trial_nr	onset	event_type	phase	response	nr_frames	movie_index	movie_duration	movie_file	blank	onset_abs	duration
0	0.14986491203308105	stim	0		94					20.483949899673462	0.7833700180053711
0	0.9250400066375732	response	0	space						21.259124994277954	
1	0.9332349300384521	stim	0		4580					21.267319917678833	38.166542053222656
1	39.09368085861206	pulse	0	t						59.42776584625244	
1	39.09977698326111	stim	1		1717					59.43386197090149	14.308152914047241
1	40.691482067108154	pulse	1	t						61.025567054748535	
1	42.29143285751343	pulse	1	t						62.62551784515381	
1	43.891480922698975	pulse	1	t						64.22556591033936	
1	45.49144005775452	pulse	1	t						65.8255250453949	
1	47.09152603149414	pulse	1	t						67.42561101913452	
1	48.69141602516174	pulse	1	t						69.02550101280212	
1	50.29151487350464	pulse	1	t						70.62559986114502	
1	51.8914680480957	pulse	1	t						72.22555303573608	
2	53.40792989730835	fix_pre	0		11	0.0	2.5	/experiments/aot/S_dwi2oPzQ1Wo_48.mp4	0.0	73.74201488494873	0.0917060375213623
2	53.491496086120605	pulse	0	t		0.0	2.5	/experiments/aot/S_dwi2oPzQ1Wo_48.mp4	0.0	73.82558107376099	
2	53.49963593482971	movie	1		299	0.0	2.5	/experiments/aot/S_dwi2oPzQ1Wo_48.mp4	0.0	73.83372092247009	2.5084519386291504
2	55.091513872146606	pulse	1	t		0.0	2.5	/experiments/aot/S_dwi2oPzQ1Wo_48.mp4	0.0	75.42559885978699	
2	56.00808787345886	fix_post	2		12	0.0	2.5	/experiments/aot/S_dwi2oPzQ1Wo_48.mp4	0.0	76.34217286109924	0.09989619255065918
3	56.10798406600952	fix_pre	0		120	1.0	2.5	/experiments/aot/R_S_comp_A007_C017_01156B_v02_SDR_PS_20180925_SDR_2K_AVC.mp4	0.0	76.4420690536499	1.0000159740447998
3	56.69147300720215	pulse	0	t		1.0	2.5	/experiments/aot/R_S_comp_A007_C017_01156B_v02_SDR_PS_20180925_SDR_2K_AVC.mp4	0.0	77.02555799484253	
3	57.10800004005432	movie	1		160	1.0	2.5	/experiments/aot/R_S_comp_A007_C017_01156B_v02_SDR_PS_20180925_SDR_2K_AVC.mp4	0.0	77.4420850276947	2.4999828338623047
3	58.29152703285217	pulse	1	t		1.0	2.5	/experiments/aot/R_S_comp_A007_C017_01156B_v02_SDR_PS_20180925_SDR_2K_AVC.mp4	0.0	78.62561202049255	
3	59.607982873916626	fix_post	2		12	1.0	2.5	/experiments/aot/R_S_comp_A007_C017_01156B_v02_SDR_PS_20180925_SDR_2K_AVC.mp4	0.0	79.942067861557	0.0999300479888916
4	59.70791292190552	fix_pre	0		120	2.0	2.5	/experiments/aot/R_S_yt-pB9w3AA-woE_37.mp4	0.0	80.0419979095459	1.0000970363616943
4	59.89136505126953	pulse	0	t		2.0	2.5	/experiments/aot/R_S_yt-pB9w3AA-woE_37.mp4	0.0	80.22545003890991	
4	60.70800995826721	movie	1		298	2.0	2.5	/experiments/aot/R_S_yt-pB9w3AA-woE_37.mp4	0.0	81.04209494590759	2.4998779296875
4	61.49147987365723	pulse	1	t		2.0	2.5	/experiments/aot/R_S_yt-pB9w3AA-woE_37.mp4	0.0	81.82556486129761	
4	63.09096097946167	pulse	1	t		2.0	2.5	/experiments/aot/R_S_yt-pB9w3AA-woE_37.mp4	0.0	83.42504596710205	
4	63.20788788795471	fix_post	2		12	2.0	2.5	/experiments/aot/R_S_yt-pB9w3AA-woE_37.mp4	0.0	83.54197287559509	0.10004496574401855
5	63.30793285369873	fix_pre	0		120	3.0	2.5	/experiments/aot/S_pexels-laker-5793000.mp4	0.0	83.64201784133911	0.9999451637268066
5	64.30787801742554	movie	1		159	3.0	2.5	/experiments/aot/S_pexels-laker-5793000.mp4	0.0	84.64196300506592	2.5000269412994385
5	64.69149899482727	pulse	1	t		3.0	2.5	/experiments/aot/S_pexels-laker-5793000.mp4	0.0	85.02558398246765	
5	66.29147386550903	pulse	1	t		3.0	2.5	/experiments/aot/S_pexels-laker-5793000.mp4	0.0	86.62555885314941	
5	66.80790495872498	fix_post	2		12	3.0	2.5	/experiments/aot/S_pexels-laker-5793000.mp4	0.0	87.14198994636536	0.09999608993530273
6	66.90790104866028	fix_pre	0		119	4.0	2.5	/experiments/aot/S_yt-ybH6uAiFbjc_273.mp4	0.0	87.24198603630066	0.991663932800293
6	67.89142608642578	pulse	0	t		4.0	2.5	/experiments/aot/S_yt-ybH6uAiFbjc_273.mp4	0.0	88.22551107406616	
6	67.89956498146057	movie	1		301	4.0	2.5	/experiments/aot/S_yt-ybH6uAiFbjc_273.mp4	0.0	88.23364996910095	2.5083870887756348
6	69.49148297309875	pulse	1	t		4.0	2.5	/experiments/aot/S_yt-ybH6uAiFbjc_273.mp4	0.0	89.82556796073914	
6	70.4079520702362	fix_post	2		12	4.0	2.5	/experiments/aot/S_yt-ybH6uAiFbjc_273.mp4	0.0	90.74203705787659	0.09993195533752441
7	70.50788402557373	fix_pre	0		120	5.0	2.5	/experiments/aot/S_yt-MNo__ov96eI_22.mp4	0.0	90.84196901321411	0.9999909400939941
7	71.09137797355652	pulse	0	t		5.0	2.5	/experiments/aot/S_yt-MNo__ov96eI_22.mp4	0.0	91.4254629611969	
7	71.50787496566772	movie	1		300	5.0	2.5	/experiments/aot/S_yt-MNo__ov96eI_22.mp4	0.0	91.8419599533081	2.499946117401123
7	72.69140887260437	pulse	1	t		5.0	2.5	/experiments/aot/S_yt-MNo__ov96eI_22.mp4	0.0	93.02549386024475	
7	74.00782108306885	fix_post	2		12	5.0	2.5	/experiments/aot/S_yt-MNo__ov96eI_22.mp4	0.0	94.34190607070923	0.10009884834289551
8	74.10791993141174	fix_pre	0		120	6.0	2.5	blank	1.0	94.44200491905212	0.9999849796295166
8	74.29136490821838	pulse	0	t		6.0	2.5	blank	1.0	94.62544989585876	
8	75.10790491104126	movie	1		300	6.0	2.5	blank	1.0	95.44198989868164	2.499946117401123
8	75.89136385917664	pulse	1	t		6.0	2.5	blank	1.0	96.22544884681702	
8	77.4913580417633	pulse	1	t		6.0	2.5	blank	1.0	97.82544302940369	
8	77.60785102844238	fix_post	2		12	6.0	2.5	blank	1.0	97.94193601608276	0.09997391700744629
9	77.70782494544983	fix_pre	0		120	7.0	2.5	/experiments/aot/R_S_Pexels_Videos_2795736.mp4	0.0	98.04190993309021	0.9999940395355225
9	78.70781898498535	movie	1		159	7.0	2.5	/experiments/aot/R_S_Pexels_Videos_2795736.mp4	0.0	99.04190397262573	2.500082015991211
9	79.09149289131165	pulse	1	t		7.0	2.5	/experiments/aot/R_S_Pexels_Videos_2795736.mp4	0.0	99.42557787895203	
9	80.6914279460907	pulse	1	t		7.0	2.5	/experiments/aot/R_S_Pexels_Videos_2795736.mp4	0.0	101.02551293373108	
9	81.20790100097656	fix_post	2		12	7.0	2.5	/experiments/aot/R_S_Pexels_Videos_2795736.mp4	0.0	101.54198598861694	0.09995794296264648
10	81.30785894393921	fix_pre	0		119	8.0	2.5	/experiments/aot/S_yt-aqrdb6BiFx4_12.mp4	0.0	101.64194393157959	0.9916579723358154
10	82.2913088798523	pulse	0	t		8.0	2.5	/experiments/aot/S_yt-aqrdb6BiFx4_12.mp4	0.0	102.62539386749268	
10	82.29951691627502	movie	1		301	8.0	2.5	/experiments/aot/S_yt-aqrdb6BiFx4_12.mp4	0.0	102.6336019039154	2.508341073989868
10	83.89155793190002	pulse	1	t		8.0	2.5	/experiments/aot/S_yt-aqrdb6BiFx4_12.mp4	0.0	104.2256429195404	
10	84.80785799026489	fix_post	2		12	8.0	2.5	/experiments/aot/S_yt-aqrdb6BiFx4_12.mp4	0.0	105.14194297790527	0.1000828742980957
11	84.90794086456299	fix_pre	0		120	9.0	2.5	/experiments/aot/S_ahJft-G235A_122.mp4	0.0	105.24202585220337	0.9999270439147949
11	85.49141192436218	pulse	0	t		9.0	2.5	/experiments/aot/S_ahJft-G235A_122.mp4	0.0	105.82549691200256	
11	85.90786790847778	movie	1		300	9.0	2.5	/experiments/aot/S_ahJft-G235A_122.mp4	0.0	106.24195289611816	2.499575138092041
11	87.09129905700684	pulse	1	t		9.0	2.5	/experiments/aot/S_ahJft-G235A_122.mp4	0.0	107.42538404464722	
11	88.40744304656982	fix_post	2		12	9.0	2.5	/experiments/aot/S_ahJft-G235A_122.mp4	0.0	108.7415280342102	0.09993791580200195
12	88.50738096237183	fix_pre	0		120	10.0	2.5	/experiments/aot/R_S_pexels-cottonbro-10640532.mp4	0.0	108.8414659500122	1.0001819133758545
12	88.69099593162537	pulse	0	t		10.0	2.5	/experiments/aot/R_S_pexels-cottonbro-10640532.mp4	0.0	109.02508091926575	
12	89.50756287574768	movie	1		162	10.0	2.5	/experiments/aot/R_S_pexels-cottonbro-10640532.mp4	0.0	109.84164786338806	2.5002059936523438
12	90.29154801368713	pulse	1	t		10.0	2.5	/experiments/aot/R_S_pexels-cottonbro-10640532.mp4	0.0	110.62563300132751	
12	91.89088606834412	pulse	1	t		10.0	2.5	/experiments/aot/R_S_pexels-cottonbro-10640532.mp4	0.0	112.2249710559845	
12	92.00776886940002	fix_post	2		12	10.0	2.5	/experiments/aot/R_S_pexels-cottonbro-10640532.mp4	0.0	112.3418538570404	0.10002708435058594
13	92.10779595375061	fix_pre	0		120	11.0	2.5	/experiments/aot/S_yt-9t5-3Qe_t9A_591.mp4	0.0	112.44188094139099	1.0000100135803223
13	93.10780596733093	movie	1		300	11.0	2.5	/experiments/aot/S_yt-9t5-3Qe_t9A_591.mp4	0.0	113.44189095497131	2.4999470710754395
13	93.49131298065186	pulse	1	t		11.0	2.5	/experiments/aot/S_yt-9t5-3Qe_t9A_591.mp4	0.0	113.82539796829224	
13	95.0912139415741	pulse	1	t		11.0	2.5	/experiments/aot/S_yt-9t5-3Qe_t9A_591.mp4	0.0	115.42529892921448	
13	95.60775303840637	fix_post	2		12	11.0	2.5	/experiments/aot/S_yt-9t5-3Qe_t9A_591.mp4	0.0	115.94183802604675	0.10002994537353516
14	95.70778298377991	fix_pre	0		119	12.0	2.5	/experiments/aot/S_yt-bQRBtP9zkms_111.mp4	0.0	116.04186797142029	0.9916050434112549
14	96.69112801551819	pulse	0	t		12.0	2.5	/experiments/aot/S_yt-bQRBtP9zkms_111.mp4	0.0	117.02521300315857	
14	96.69938802719116	movie	1		301	12.0	2.5	/experiments/aot/S_yt-bQRBtP9zkms_111.mp4	0.0	117.03347301483154	2.508344888687134
14	98.29122495651245	pulse	1	t		12.0	2.5	/experiments/aot/S_yt-bQRBtP9zkms_111.mp4	0.0	118.62530994415283	
14	99.2077329158783	fix_post	2		12	12.0	2.5	/experiments/aot/S_yt-bQRBtP9zkms_111.mp4	0.0	119.54181790351868	0.09997415542602539
15	99.30770707130432	fix_pre	0		120	13.0	2.5	blank	1.0	119.6417920589447	1.0000419616699219
15	99.89128398895264	pulse	0	t		13.0	2.5	blank	1.0	120.22536897659302	
15	100.30774903297424	movie	1		300	13.0	2.5	blank	1.0	120.64183402061462	2.4999289512634277
15	101.49122285842896	pulse	1	t		13.0	2.5	blank	1.0	121.82530784606934	
15	102.80767798423767	fix_post	2		12	13.0	2.5	blank	1.0	123.14176297187805	0.10001587867736816
16	102.90769386291504	fix_pre	0		120	14.0	2.5	/experiments/aot/S_G007_C004_UHD_SDR_2K_AVC.mp4	0.0	123.24177885055542	1.000028133392334
16	103.09135603904724	pulse	0	t		14.0	2.5	/experiments/aot/S_G007_C004_UHD_SDR_2K_AVC.mp4	0.0	123.42544102668762	
16	103.90772199630737	movie	1		164	14.0	2.5	/experiments/aot/S_G007_C004_UHD_SDR_2K_AVC.mp4	0.0	124.24180698394775	2.4999849796295166
16	104.69124388694763	pulse	1	t		14.0	2.5	/experiments/aot/S_G007_C004_UHD_SDR_2K_AVC.mp4	0.0	125.02532887458801	
16	106.29121494293213	pulse	1	t		14.0	2.5	/experiments/aot/S_G007_C004_UHD_SDR_2K_AVC.mp4	0.0	126.62529993057251	
16	106.40770697593689	fix_post	2		12	14.0	2.5	/experiments/aot/S_G007_C004_UHD_SDR_2K_AVC.mp4	0.0	126.74179196357727	0.09997391700744629
17	106.50768089294434	fix_pre	0		120	15.0	2.5	/experiments/aot/R_S_ILSVRC2015_train_00595000.mp4	0.0	126.84176588058472	1.0000510215759277
17	107.50773191452026	movie	1		300	15.0	2.5	/experiments/aot/R_S_ILSVRC2015_train_00595000.mp4	0.0	127.84181690216064	2.4999239444732666
17	107.89123201370239	pulse	1	t		15.0	2.5	/experiments/aot/R_S_ILSVRC2015_train_00595000.mp4	0.0	128.22531700134277	
17	109.49110507965088	pulse	1	t		15.0	2.5	/experiments/aot/R_S_ILSVRC2015_train_00595000.mp4	0.0	129.82519006729126	
17	110.00765585899353	fix_post	2		12	15.0	2.5	/experiments/aot/R_S_ILSVRC2015_train_00595000.mp4	0.0	130.3417408466339	0.10010313987731934
18	110.10775899887085	fix_pre	0		119	16.0	2.5	/experiments/aot/R_S_production_ID_4325506.mp4	0.0	130.44184398651123	0.991563081741333
18	111.09123206138611	pulse	0	t		16.0	2.5	/experiments/aot/R_S_production_ID_4325506.mp4	0.0	131.4253170490265	
18	111.09932208061218	movie	1		167	16.0	2.5	/experiments/aot/R_S_production_ID_4325506.mp4	0.0	131.43340706825256	2.508333921432495
18	112.69089198112488	pulse	1	t		16.0	2.5	/experiments/aot/R_S_production_ID_4325506.mp4	0.0	133.02497696876526	
18	113.60765600204468	fix_post	2		12	16.0	2.5	/experiments/aot/R_S_production_ID_4325506.mp4	0.0	133.94174098968506	0.10000896453857422
19	113.70766496658325	fix_pre	0		120	17.0	2.5	/experiments/aot/S_yt-GOgS--rzmKQ_51.mp4	0.0	134.04174995422363	1.0000650882720947
19	114.291179895401	pulse	0	t		17.0	2.5	/experiments/aot/S_yt-GOgS--rzmKQ_51.mp4	0.0	134.62526488304138	
19	114.70773005485535	movie	1		300	17.0	2.5	/experiments/aot/S_yt-GOgS--rzmKQ_51.mp4	0.0	135.04181504249573	2.499912977218628
19	115.89116501808167	pulse	1	t		17.0	2.5	/experiments/aot/S_yt-GOgS--rzmKQ_51.mp4	0.0	136.22525000572205	
19	117.20764303207397	fix_post	2		12	17.0	2.5	/experiments/aot/S_yt-GOgS--rzmKQ_51.mp4	0.0	137.54172801971436	0.09997296333312988
20	117.3076159954071	fix_pre	0		120	18.0	2.5	/experiments/aot/R_S_ILSVRC2015_train_00745000.mp4	0.0	137.64170098304749	1.0000290870666504
20	117.49127697944641	pulse	0	t		18.0	2.5	/experiments/aot/R_S_ILSVRC2015_train_00745000.mp4	0.0	137.8253619670868	
20	118.30764508247375	movie	1		299	18.0	2.5	/experiments/aot/R_S_ILSVRC2015_train_00745000.mp4	0.0	138.64173007011414	2.5000038146972656
20	119.09124088287354	pulse	1	t		18.0	2.5	/experiments/aot/R_S_ILSVRC2015_train_00745000.mp4	0.0	139.42532587051392	
20	120.69162797927856	pulse	1	t		18.0	2.5	/experiments/aot/R_S_ILSVRC2015_train_00745000.mp4	0.0	141.02571296691895	
20	120.80764889717102	fix_post	2		12	18.0	2.5	/experiments/aot/R_S_ILSVRC2015_train_00745000.mp4	0.0	141.1417338848114	0.10004615783691406
21	120.90769505500793	fix_pre	0		120	19.0	2.5	/experiments/aot/R_S_ILSVRC2015_train_00396000.mp4	0.0	141.24178004264832	1.0000088214874268
21	121.90770387649536	movie	1		300	19.0	2.5	/experiments/aot/R_S_ILSVRC2015_train_00396000.mp4	0.0	142.24178886413574	2.5000100135803223
21	122.29117202758789	pulse	1	t		19.0	2.5	/experiments/aot/R_S_ILSVRC2015_train_00396000.mp4	0.0	142.62525701522827	
21	123.8911988735199	pulse	1	t		19.0	2.5	/experiments/aot/R_S_ILSVRC2015_train_00396000.mp4	0.0	144.22528386116028	
21	124.40771389007568	fix_post	2		12	19.0	2.5	/experiments/aot/R_S_ILSVRC2015_train_00396000.mp4	0.0	144.74179887771606	0.09990310668945312
22	124.50761699676514	fix_pre	0		119	20.0	2.5	/experiments/aot/R_S_yt-w_e3sxIzepA_115.mp4	0.0	144.84170198440552	0.9916670322418213
22	125.49120903015137	pulse	0	t		20.0	2.5	/experiments/aot/R_S_yt-w_e3sxIzepA_115.mp4	0.0	145.82529401779175	
22	125.49928402900696	movie	1		301	20.0	2.5	/experiments/aot/R_S_yt-w_e3sxIzepA_115.mp4	0.0	145.83336901664734	2.508389949798584
22	127.09115290641785	pulse	1	t		20.0	2.5	/experiments/aot/R_S_yt-w_e3sxIzepA_115.mp4	0.0	147.42523789405823	
22	128.00767397880554	fix_post	2		12	20.0	2.5	/experiments/aot/R_S_yt-w_e3sxIzepA_115.mp4	0.0	148.34175896644592	0.10015296936035156
23	128.1078269481659	fix_pre	0		120	21.0	2.5	blank	1.0	148.44191193580627	0.999885082244873
23	128.69110894203186	pulse	0	t		21.0	2.5	blank	1.0	149.02519392967224	
23	129.10771203041077	movie	1		300	21.0	2.5	blank	1.0	149.44179701805115	2.499915838241577
23	130.2910840511322	pulse	1	t		21.0	2.5	blank	1.0	150.62516903877258	
23	131.60762786865234	fix_post	2		12	21.0	2.5	blank	1.0	151.94171285629272	0.09990811347961426
24	131.70753598213196	fix_pre	0		120	22.0	2.5	/experiments/aot/R_S_zr0tzAC2XHk_334.mp4	0.0	152.04162096977234	1.000075101852417
24	131.89103388786316	pulse	0	t		22.0	2.5	/experiments/aot/R_S_zr0tzAC2XHk_334.mp4	0.0	152.22511887550354	
24	132.70761108398438	movie	1		300	22.0	2.5	/experiments/aot/R_S_zr0tzAC2XHk_334.mp4	0.0	153.04169607162476	2.49996280670166
24	133.49101305007935	pulse	1	t		22.0	2.5	/experiments/aot/R_S_zr0tzAC2XHk_334.mp4	0.0	153.82509803771973	
24	135.09109807014465	pulse	1	t		22.0	2.5	/experiments/aot/R_S_zr0tzAC2XHk_334.mp4	0.0	155.42518305778503	
24	135.20757389068604	fix_post	2		12	22.0	2.5	/experiments/aot/R_S_zr0tzAC2XHk_334.mp4	0.0	155.54165887832642	0.09995913505554199
25	135.30753302574158	fix_pre	0		120	23.0	2.5	/experiments/aot/S_ILSVRC2015_train_00661001.mp4	0.0	155.64161801338196	1.0
25	136.30753302574158	movie	1		299	23.0	2.5	/experiments/aot/S_ILSVRC2015_train_00661001.mp4	0.0	156.64161801338196	2.500138998031616
25	136.69102096557617	pulse	1	t		23.0	2.5	/experiments/aot/S_ILSVRC2015_train_00661001.mp4	0.0	157.02510595321655	
25	138.29102897644043	pulse	1	t		23.0	2.5	/experiments/aot/S_ILSVRC2015_train_00661001.mp4	0.0	158.6251139640808	
25	138.8076720237732	fix_post	2		12	23.0	2.5	/experiments/aot/S_ILSVRC2015_train_00661001.mp4	0.0	159.14175701141357	0.09989094734191895
26	138.9075629711151	fix_pre	0		119	24.0	2.5	/experiments/aot/R_S_yt-p0buJEEKeuI_61.mp4	0.0	159.2416479587555	0.9916489124298096
26	139.89101886749268	pulse	0	t		24.0	2.5	/experiments/aot/R_S_yt-p0buJEEKeuI_61.mp4	0.0	160.22510385513306	
26	139.89921188354492	movie	1		301	24.0	2.5	/experiments/aot/R_S_yt-p0buJEEKeuI_61.mp4	0.0	160.2332968711853	2.5083460807800293
26	141.49107694625854	pulse	1	t		24.0	2.5	/experiments/aot/R_S_yt-p0buJEEKeuI_61.mp4	0.0	161.82516193389893	
26	142.40755796432495	fix_post	2		12	24.0	2.5	/experiments/aot/R_S_yt-p0buJEEKeuI_61.mp4	0.0	162.74164295196533	0.1000509262084961
27	142.50760889053345	fix_pre	0		120	25.0	2.5	/experiments/aot/R_S_comp_HK_H004_C001_PSNK_DENOISE_v14_SDR_PS_FINAL_20180731_SDR_2K_AVC.mp4	0.0	162.84169387817383	0.9999761581420898
27	143.09102296829224	pulse	0	t		25.0	2.5	/experiments/aot/R_S_comp_HK_H004_C001_PSNK_DENOISE_v14_SDR_PS_FINAL_20180731_SDR_2K_AVC.mp4	0.0	163.42510795593262	
27	143.50758504867554	movie	1		164	25.0	2.5	/experiments/aot/R_S_comp_HK_H004_C001_PSNK_DENOISE_v14_SDR_PS_FINAL_20180731_SDR_2K_AVC.mp4	0.0	163.84167003631592	2.500169038772583
27	144.6910879611969	pulse	1	t		25.0	2.5	/experiments/aot/R_S_comp_HK_H004_C001_PSNK_DENOISE_v14_SDR_PS_FINAL_20180731_SDR_2K_AVC.mp4	0.0	165.02517294883728	
27	146.00775408744812	fix_post	2		12	25.0	2.5	/experiments/aot/R_S_comp_HK_H004_C001_PSNK_DENOISE_v14_SDR_PS_FINAL_20180731_SDR_2K_AVC.mp4	0.0	166.3418390750885	0.10003280639648438
28	146.1077868938446	fix_pre	0		120	26.0	2.5	blank	1.0	166.44187188148499	1.0000991821289062
28	146.29133105278015	pulse	0	t		26.0	2.5	blank	1.0	166.62541604042053	
28	147.1078860759735	movie	1		300	26.0	2.5	blank	1.0	167.4419710636139	2.49967098236084
28	147.89111399650574	pulse	1	t		26.0	2.5	blank	1.0	168.22519898414612	
28	149.49103903770447	pulse	1	t		26.0	2.5	blank	1.0	169.82512402534485	
28	149.60755705833435	fix_post	2		12	26.0	2.5	blank	1.0	169.94164204597473	0.09997391700744629
29	149.7075309753418	fix_pre	0		120	27.0	2.5	/experiments/aot/R_S_ILSVRC2015_train_00595000.mp4	0.0	170.04161596298218	1.0000419616699219
29	150.70757293701172	movie	1		300	27.0	2.5	/experiments/aot/R_S_ILSVRC2015_train_00595000.mp4	0.0	171.0416579246521	2.49995493888855
29	151.09101796150208	pulse	1	t		27.0	2.5	/experiments/aot/R_S_ILSVRC2015_train_00595000.mp4	0.0	171.42510294914246	
29	152.69093203544617	pulse	1	t		27.0	2.5	/experiments/aot/R_S_ILSVRC2015_train_00595000.mp4	0.0	173.02501702308655	
29	153.20752787590027	fix_post	2		12	27.0	2.5	/experiments/aot/R_S_ILSVRC2015_train_00595000.mp4	0.0	173.54161286354065	0.10010910034179688
30	153.30763697624207	fix_pre	0		119	28.0	2.5	/experiments/aot/R_S_ILSVRC2015_train_00368000.mp4	0.0	173.64172196388245	0.9914839267730713
30	154.29100489616394	pulse	0	t		28.0	2.5	/experiments/aot/R_S_ILSVRC2015_train_00368000.mp4	0.0	174.62508988380432	
30	154.29912090301514	movie	1		301	28.0	2.5	/experiments/aot/R_S_ILSVRC2015_train_00368000.mp4	0.0	174.63320589065552	2.5083370208740234
30	155.89094996452332	pulse	1	t		28.0	2.5	/experiments/aot/R_S_ILSVRC2015_train_00368000.mp4	0.0	176.2250349521637	
30	156.80745792388916	fix_post	2		12	28.0	2.5	/experiments/aot/R_S_ILSVRC2015_train_00368000.mp4	0.0	177.14154291152954	0.10002899169921875
31	156.90748691558838	fix_pre	0		120	29.0	2.5	/experiments/aot/R_S_yt-BG-G7m5wLZ4_94.mp4	0.0	177.24157190322876	0.9999191761016846
31	157.490975856781	pulse	0	t		29.0	2.5	/experiments/aot/R_S_yt-BG-G7m5wLZ4_94.mp4	0.0	177.8250608444214	
31	157.90740609169006	movie	1		299	29.0	2.5	/experiments/aot/R_S_yt-BG-G7m5wLZ4_94.mp4	0.0	178.24149107933044	2.5001039505004883
31	159.0908908843994	pulse	1	t		29.0	2.5	/experiments/aot/R_S_yt-BG-G7m5wLZ4_94.mp4	0.0	179.4249758720398	
31	160.40751004219055	fix_post	2		12	29.0	2.5	/experiments/aot/R_S_yt-BG-G7m5wLZ4_94.mp4	0.0	180.74159502983093	0.09996390342712402
32	160.50747394561768	fix_pre	0		120	30.0	2.5	/experiments/aot/R_S_yt-rB3YVZvA78w_20.mp4	0.0	180.84155893325806	0.9999730587005615
32	160.6909499168396	pulse	0	t		30.0	2.5	/experiments/aot/R_S_yt-rB3YVZvA78w_20.mp4	0.0	181.02503490447998	
32	161.50744700431824	movie	1		299	30.0	2.5	/experiments/aot/R_S_yt-rB3YVZvA78w_20.mp4	0.0	181.84153199195862	2.500014066696167
32	162.29089903831482	pulse	1	t		30.0	2.5	/experiments/aot/R_S_yt-rB3YVZvA78w_20.mp4	0.0	182.6249840259552	
32	163.89050698280334	pulse	1	t		30.0	2.5	/experiments/aot/R_S_yt-rB3YVZvA78w_20.mp4	0.0	184.22459197044373	
32	164.0074610710144	fix_post	2		12	30.0	2.5	/experiments/aot/R_S_yt-rB3YVZvA78w_20.mp4	0.0	184.34154605865479	0.09995794296264648
33	164.10741901397705	fix_pre	0		120	31.0	2.5	/experiments/aot/R_S_yt-TNtO8RPd3iE_25.mp4	0.0	184.44150400161743	1.0000519752502441
33	165.1074709892273	movie	1		299	31.0	2.5	/experiments/aot/R_S_yt-TNtO8RPd3iE_25.mp4	0.0	185.44155597686768	2.4999799728393555
33	165.49093103408813	pulse	1	t		31.0	2.5	/experiments/aot/R_S_yt-TNtO8RPd3iE_25.mp4	0.0	185.82501602172852	
33	167.09086894989014	pulse	1	t		31.0	2.5	/experiments/aot/R_S_yt-TNtO8RPd3iE_25.mp4	0.0	187.42495393753052	
33	167.60745096206665	fix_post	2		12	31.0	2.5	/experiments/aot/R_S_yt-TNtO8RPd3iE_25.mp4	0.0	187.94153594970703	0.09987497329711914
34	167.70732593536377	fix_pre	0		119	32.0	2.5	/experiments/aot/S_yt-83nimFMNhrM_131.mp4	0.0	188.04141092300415	0.9917430877685547
34	168.6908950805664	pulse	0	t		32.0	2.5	/experiments/aot/S_yt-83nimFMNhrM_131.mp4	0.0	189.0249800682068	
34	168.69906902313232	movie	1		301	32.0	2.5	/experiments/aot/S_yt-83nimFMNhrM_131.mp4	0.0	189.0331540107727	2.50833797454834
34	170.2909848690033	pulse	1	t		32.0	2.5	/experiments/aot/S_yt-83nimFMNhrM_131.mp4	0.0	190.62506985664368	
34	171.20740699768066	fix_post	2		12	32.0	2.5	/experiments/aot/S_yt-83nimFMNhrM_131.mp4	0.0	191.54149198532104	0.10004496574401855
35	171.30745196342468	fix_pre	0		120	33.0	2.5	/experiments/aot/S_video_inspire_florida_miami_brickell_sunset_00036.1080-h264.mp4	0.0	191.64153695106506	1.0000081062316895
35	171.8908760547638	pulse	0	t		33.0	2.5	/experiments/aot/S_video_inspire_florida_miami_brickell_sunset_00036.1080-h264.mp4	0.0	192.22496104240417	
35	172.30746006965637	movie	1		164	33.0	2.5	/experiments/aot/S_video_inspire_florida_miami_brickell_sunset_00036.1080-h264.mp4	0.0	192.64154505729675	2.5000038146972656
35	173.49090194702148	pulse	1	t		33.0	2.5	/experiments/aot/S_video_inspire_florida_miami_brickell_sunset_00036.1080-h264.mp4	0.0	193.82498693466187	
35	174.80746388435364	fix_post	2		12	33.0	2.5	/experiments/aot/S_video_inspire_florida_miami_brickell_sunset_00036.1080-h264.mp4	0.0	195.14154887199402	0.09982919692993164
36	174.90729308128357	fix_pre	0		120	34.0	2.5	blank	1.0	195.24137806892395	1.000119924545288
36	175.09078907966614	pulse	0	t		34.0	2.5	blank	1.0	195.42487406730652	
36	175.90741300582886	movie	1		300	34.0	2.5	blank	1.0	196.24149799346924	2.500009059906006
36	176.6908860206604	pulse	1	t		34.0	2.5	blank	1.0	197.02497100830078	
36	178.29083895683289	pulse	1	t		34.0	2.5	blank	1.0	198.62492394447327	
36	178.40742206573486	fix_post	2		12	34.0	2.5	blank	1.0	198.74150705337524	0.1000518798828125
37	178.50747394561768	fix_pre	0		120	35.0	2.5	/experiments/aot/S_yt-rB3YVZvA78w_20.mp4	0.0	198.84155893325806	0.9999029636383057
37	179.50737690925598	movie	1		300	35.0	2.5	/experiments/aot/S_yt-rB3YVZvA78w_20.mp4	0.0	199.84146189689636	2.500077962875366
37	179.8908679485321	pulse	1	t		35.0	2.5	/experiments/aot/S_yt-rB3YVZvA78w_20.mp4	0.0	200.22495293617249	
37	181.49087285995483	pulse	1	t		35.0	2.5	/experiments/aot/S_yt-rB3YVZvA78w_20.mp4	0.0	201.82495784759521	
37	182.00745487213135	fix_post	2		12	35.0	2.5	/experiments/aot/S_yt-rB3YVZvA78w_20.mp4	0.0	202.34153985977173	0.09987616539001465
38	182.10733103752136	fix_pre	0		119	36.0	2.5	/experiments/aot/R_S_yt-YOLaQ53ooks_195.mp4	0.0	202.44141602516174	0.9916279315948486
38	183.09081292152405	pulse	0	t		36.0	2.5	/experiments/aot/R_S_yt-YOLaQ53ooks_195.mp4	0.0	203.42489790916443	
38	183.0989589691162	movie	1		301	36.0	2.5	/experiments/aot/R_S_yt-YOLaQ53ooks_195.mp4	0.0	203.4330439567566	2.508402109146118
38	184.69082903862	pulse	1	t		36.0	2.5	/experiments/aot/R_S_yt-YOLaQ53ooks_195.mp4	0.0	205.02491402626038	
38	185.60736107826233	fix_post	2		12	36.0	2.5	/experiments/aot/R_S_yt-YOLaQ53ooks_195.mp4	0.0	205.9414460659027	0.09999680519104004
39	185.70735788345337	fix_pre	0		120	37.0	2.5	/experiments/aot/R_S_flickr-51283549@N02-23064904264_16.mp4	0.0	206.04144287109375	0.9999520778656006
39	186.29076099395752	pulse	0	t		37.0	2.5	/experiments/aot/R_S_flickr-51283549@N02-23064904264_16.mp4	0.0	206.6248459815979	
39	186.70730996131897	movie	1		163	37.0	2.5	/experiments/aot/R_S_flickr-51283549@N02-23064904264_16.mp4	0.0	207.04139494895935	2.500027894973755
39	187.89091300964355	pulse	1	t		37.0	2.5	/experiments/aot/R_S_flickr-51283549@N02-23064904264_16.mp4	0.0	208.22499799728394	
39	189.20733785629272	fix_post	2		12	37.0	2.5	/experiments/aot/R_S_flickr-51283549@N02-23064904264_16.mp4	0.0	209.5414228439331	0.09995412826538086
40	189.3072919845581	fix_pre	0		120	38.0	2.5	/experiments/aot/S_yt-2y6A9DJPsDU_65.mp4	0.0	209.6413769721985	1.00006103515625
40	189.49070596694946	pulse	0	t		38.0	2.5	/experiments/aot/S_yt-2y6A9DJPsDU_65.mp4	0.0	209.82479095458984	
40	190.30735301971436	movie	1		300	38.0	2.5	/experiments/aot/S_yt-2y6A9DJPsDU_65.mp4	0.0	210.64143800735474	2.5
40	191.0908660888672	pulse	1	t		38.0	2.5	/experiments/aot/S_yt-2y6A9DJPsDU_65.mp4	0.0	211.42495107650757	
40	192.69075393676758	pulse	1	t		38.0	2.5	/experiments/aot/S_yt-2y6A9DJPsDU_65.mp4	0.0	213.02483892440796	
40	192.80735301971436	fix_post	2		12	38.0	2.5	/experiments/aot/S_yt-2y6A9DJPsDU_65.mp4	0.0	213.14143800735474	0.09995388984680176
41	192.90730690956116	fix_pre	0		120	39.0	2.5	/experiments/aot/R_S_yt-UmLeGNcqouI_718.mp4	0.0	213.24139189720154	0.9999830722808838
41	193.90728998184204	movie	1		299	39.0	2.5	/experiments/aot/R_S_yt-UmLeGNcqouI_718.mp4	0.0	214.24137496948242	2.5000319480895996
41	194.29080390930176	pulse	1	t		39.0	2.5	/experiments/aot/R_S_yt-UmLeGNcqouI_718.mp4	0.0	214.62488889694214	
41	195.89081287384033	pulse	1	t		39.0	2.5	/experiments/aot/R_S_yt-UmLeGNcqouI_718.mp4	0.0	216.2248978614807	
41	196.40732192993164	fix_post	2		12	39.0	2.5	/experiments/aot/R_S_yt-UmLeGNcqouI_718.mp4	0.0	216.74140691757202	0.09998202323913574
42	196.50730395317078	fix_pre	0		119	40.0	2.5	/experiments/aot/S_ILSVRC2015_train_00745000.mp4	0.0	216.84138894081116	0.9916329383850098
42	197.49084901809692	pulse	0	t		40.0	2.5	/experiments/aot/S_ILSVRC2015_train_00745000.mp4	0.0	217.8249340057373	
42	197.4989368915558	movie	1		301	40.0	2.5	/experiments/aot/S_ILSVRC2015_train_00745000.mp4	0.0	217.83302187919617	2.507965087890625
42	199.090833902359	pulse	1	t		40.0	2.5	/experiments/aot/S_ILSVRC2015_train_00745000.mp4	0.0	219.4249188899994	
42	200.0069019794464	fix_post	2		12	40.0	2.5	/experiments/aot/S_ILSVRC2015_train_00745000.mp4	0.0	220.3409869670868	0.09995889663696289
43	200.10686087608337	fix_pre	0		120	41.0	2.5	/experiments/aot/R_S_yt-AjyR9--Mx3A_44.mp4	0.0	220.44094586372375	1.0001091957092285
43	200.69079399108887	pulse	0	t		41.0	2.5	/experiments/aot/R_S_yt-AjyR9--Mx3A_44.mp4	0.0	221.02487897872925	
43	201.1069700717926	movie	1		300	41.0	2.5	/experiments/aot/R_S_yt-AjyR9--Mx3A_44.mp4	0.0	221.44105505943298	2.50034499168396
43	202.29060196876526	pulse	1	t		41.0	2.5	/experiments/aot/R_S_yt-AjyR9--Mx3A_44.mp4	0.0	222.62468695640564	
43	203.60731506347656	fix_post	2		12	41.0	2.5	/experiments/aot/R_S_yt-AjyR9--Mx3A_44.mp4	0.0	223.94140005111694	0.09995698928833008
44	203.7072720527649	fix_pre	0		120	42.0	2.5	blank	1.0	224.04135704040527	1.0000169277191162
44	203.8908679485321	pulse	0	t		42.0	2.5	blank	1.0	224.22495293617249	
44	204.707288980484	movie	1		300	42.0	2.5	blank	1.0	225.0413739681244	2.5000739097595215
44	205.49076390266418	pulse	1	t		42.0	2.5	blank	1.0	225.82484889030457	
44	207.0907440185547	pulse	1	t		42.0	2.5	blank	1.0	227.42482900619507	
44	207.20736289024353	fix_post	2		12	42.0	2.5	blank	1.0	227.5414478778839	0.0999441146850586
45	207.3073070049286	fix_pre	0		120	43.0	2.5	/experiments/aot/S_3dzza09VbXY_235.mp4	0.0	227.64139199256897	1.000011920928955
45	208.30731892585754	movie	1		300	43.0	2.5	/experiments/aot/S_3dzza09VbXY_235.mp4	0.0	228.64140391349792	2.4998550415039062
45	208.69068598747253	pulse	1	t		43.0	2.5	/experiments/aot/S_3dzza09VbXY_235.mp4	0.0	229.02477097511292	
45	210.290678024292	pulse	1	t		43.0	2.5	/experiments/aot/S_3dzza09VbXY_235.mp4	0.0	230.62476301193237	
45	210.80717396736145	fix_post	2		12	43.0	2.5	/experiments/aot/S_3dzza09VbXY_235.mp4	0.0	231.14125895500183	0.09998798370361328
46	210.90716195106506	fix_pre	0		119	44.0	2.5	/experiments/aot/S_yt-zSSnQYeO_DE_338.mp4	0.0	231.24124693870544	0.9916579723358154
46	211.89069294929504	pulse	0	t		44.0	2.5	/experiments/aot/S_yt-zSSnQYeO_DE_338.mp4	0.0	232.22477793693542	
46	211.89881992340088	movie	1		301	44.0	2.5	/experiments/aot/S_yt-zSSnQYeO_DE_338.mp4	0.0	232.23290491104126	2.508376121520996
46	213.49068689346313	pulse	1	t		44.0	2.5	/experiments/aot/S_yt-zSSnQYeO_DE_338.mp4	0.0	233.82477188110352	
46	214.40719604492188	fix_post	2		12	44.0	2.5	/experiments/aot/S_yt-zSSnQYeO_DE_338.mp4	0.0	234.74128103256226	0.09999394416809082
47	214.50718998908997	fix_pre	0		120	45.0	2.5	/experiments/aot/R_S_yt-WASlRH1zA8c_175.mp4	0.0	234.84127497673035	0.9999408721923828
47	215.09072399139404	pulse	0	t		45.0	2.5	/experiments/aot/R_S_yt-WASlRH1zA8c_175.mp4	0.0	235.42480897903442	
47	215.50713086128235	movie	1		300	45.0	2.5	/experiments/aot/R_S_yt-WASlRH1zA8c_175.mp4	0.0	235.84121584892273	2.500035047531128
47	216.69067096710205	pulse	1	t		45.0	2.5	/experiments/aot/R_S_yt-WASlRH1zA8c_175.mp4	0.0	237.02475595474243	
47	218.00716590881348	fix_post	2		12	45.0	2.5	/experiments/aot/R_S_yt-WASlRH1zA8c_175.mp4	0.0	238.34125089645386	0.09999299049377441
48	218.10715889930725	fix_pre	0		120	46.0	2.5	/experiments/aot/S_ILSVRC2015_train_00042002.mp4	0.0	238.44124388694763	1.000089168548584
48	218.29061603546143	pulse	0	t		46.0	2.5	/experiments/aot/S_ILSVRC2015_train_00042002.mp4	0.0	238.6247010231018	
48	219.10724806785583	movie	1		300	46.0	2.5	/experiments/aot/S_ILSVRC2015_train_00042002.mp4	0.0	239.44133305549622	2.4998350143432617
48	219.8906750679016	pulse	1	t		46.0	2.5	/experiments/aot/S_ILSVRC2015_train_00042002.mp4	0.0	240.224760055542	
48	221.4906668663025	pulse	1	t		46.0	2.5	/experiments/aot/S_ILSVRC2015_train_00042002.mp4	0.0	241.82475185394287	
48	221.6070830821991	fix_post	2		12	46.0	2.5	/experiments/aot/S_ILSVRC2015_train_00042002.mp4	0.0	241.94116806983948	0.10016489028930664
49	221.7072479724884	fix_pre	0		120	47.0	2.5	blank	1.0	242.04133296012878	0.9999630451202393
49	222.70721101760864	movie	1		300	47.0	2.5	blank	1.0	243.04129600524902	2.500005006790161
49	223.0907199382782	pulse	1	t		47.0	2.5	blank	1.0	243.42480492591858	
49	224.6907479763031	pulse	1	t		47.0	2.5	blank	1.0	245.02483296394348	
49	225.2072160243988	fix_post	2		12	47.0	2.5	blank	1.0	245.54130101203918	0.09993290901184082
50	225.30714893341064	fix_pre	0		119	48.0	2.5	/experiments/aot/R_S_pexels-laker-5793000.mp4	0.0	245.64123392105103	0.991645097732544
50	226.29074096679688	pulse	0	t		48.0	2.5	/experiments/aot/R_S_pexels-laker-5793000.mp4	0.0	246.62482595443726	
50	226.2987940311432	movie	1		162	48.0	2.5	/experiments/aot/R_S_pexels-laker-5793000.mp4	0.0	246.63287901878357	2.5083470344543457
50	227.89034986495972	pulse	1	t		48.0	2.5	/experiments/aot/R_S_pexels-laker-5793000.mp4	0.0	248.2244348526001	
50	228.80714106559753	fix_post	2		12	48.0	2.5	/experiments/aot/R_S_pexels-laker-5793000.mp4	0.0	249.14122605323792	0.10003280639648438
51	228.90717387199402	fix_pre	0		120	49.0	2.5	/experiments/aot/R_S_yt-2y6A9DJPsDU_65.mp4	0.0	249.2412588596344	1.0000190734863281
51	229.49195790290833	pulse	0	t		49.0	2.5	/experiments/aot/R_S_yt-2y6A9DJPsDU_65.mp4	0.0	249.8260428905487	
51	229.90719294548035	movie	1		300	49.0	2.5	/experiments/aot/R_S_yt-2y6A9DJPsDU_65.mp4	0.0	250.24127793312073	2.500014066696167
51	231.090744972229	pulse	1	t		49.0	2.5	/experiments/aot/R_S_yt-2y6A9DJPsDU_65.mp4	0.0	251.42482995986938	
51	232.4072070121765	fix_post	2		12	49.0	2.5	/experiments/aot/R_S_yt-2y6A9DJPsDU_65.mp4	0.0	252.7412919998169	0.09991002082824707
52	232.50711703300476	fix_pre	0		120	50.0	2.5	/experiments/aot/R_S_yt-ph1AkIToO4E_46.mp4	0.0	252.84120202064514	1.000035047531128
52	232.6906008720398	pulse	0	t		50.0	2.5	/experiments/aot/R_S_yt-ph1AkIToO4E_46.mp4	0.0	253.02468585968018	
52	233.5071520805359	movie	1		299	50.0	2.5	/experiments/aot/R_S_yt-ph1AkIToO4E_46.mp4	0.0	253.84123706817627	2.4999899864196777
52	234.29051399230957	pulse	1	t		50.0	2.5	/experiments/aot/R_S_yt-ph1AkIToO4E_46.mp4	0.0	254.62459897994995	
52	235.89058995246887	pulse	1	t		50.0	2.5	/experiments/aot/R_S_yt-ph1AkIToO4E_46.mp4	0.0	256.22467494010925	
52	236.00714206695557	fix_post	2		12	50.0	2.5	/experiments/aot/R_S_yt-ph1AkIToO4E_46.mp4	0.0	256.34122705459595	0.09999299049377441
53	236.10713505744934	fix_pre	0		120	51.0	2.5	/experiments/aot/S_ILSVRC2015_train_00368000.mp4	0.0	256.4412200450897	0.9999499320983887
53	237.10708498954773	movie	1		299	51.0	2.5	/experiments/aot/S_ILSVRC2015_train_00368000.mp4	0.0	257.4411699771881	2.5000929832458496
53	237.49053597450256	pulse	1	t		51.0	2.5	/experiments/aot/S_ILSVRC2015_train_00368000.mp4	0.0	257.82462096214294	
53	239.0905740261078	pulse	1	t		51.0	2.5	/experiments/aot/S_ILSVRC2015_train_00368000.mp4	0.0	259.42465901374817	
53	239.60717797279358	fix_post	2		12	51.0	2.5	/experiments/aot/S_ILSVRC2015_train_00368000.mp4	0.0	259.94126296043396	0.0998849868774414
54	239.70706295967102	fix_pre	0		119	52.0	2.5	/experiments/aot/S_yt-yJmHtBFyhH4_15.mp4	0.0	260.0411479473114	0.9917550086975098
54	240.6906020641327	pulse	0	t		52.0	2.5	/experiments/aot/S_yt-yJmHtBFyhH4_15.mp4	0.0	261.02468705177307	
54	240.69881796836853	movie	1		301	52.0	2.5	/experiments/aot/S_yt-yJmHtBFyhH4_15.mp4	0.0	261.0329029560089	2.50817608833313
54	242.29058694839478	pulse	1	t		52.0	2.5	/experiments/aot/S_yt-yJmHtBFyhH4_15.mp4	0.0	262.62467193603516	
54	243.20699405670166	fix_post	2		12	52.0	2.5	/experiments/aot/S_yt-yJmHtBFyhH4_15.mp4	0.0	263.54107904434204	0.10004997253417969
55	243.30704402923584	fix_pre	0		120	53.0	2.5	/experiments/aot/S_yt-zgkJCgcT1s4_300.mp4	0.0	263.6411290168762	0.9999270439147949
55	243.89053392410278	pulse	0	t		53.0	2.5	/experiments/aot/S_yt-zgkJCgcT1s4_300.mp4	0.0	264.22461891174316	
55	244.30697107315063	movie	1		300	53.0	2.5	/experiments/aot/S_yt-zgkJCgcT1s4_300.mp4	0.0	264.641056060791	2.500079870223999
55	245.4905378818512	pulse	1	t		53.0	2.5	/experiments/aot/S_yt-zgkJCgcT1s4_300.mp4	0.0	265.8246228694916	
55	246.80705094337463	fix_post	2		12	53.0	2.5	/experiments/aot/S_yt-zgkJCgcT1s4_300.mp4	0.0	267.141135931015	0.09993100166320801
56	246.90698194503784	fix_pre	0		120	54.0	2.5	blank	1.0	267.2410669326782	1.0001161098480225
56	247.09051895141602	pulse	0	t		54.0	2.5	blank	1.0	267.4246039390564	
56	247.90709805488586	movie	1		300	54.0	2.5	blank	1.0	268.24118304252625	2.499872922897339
56	248.6904649734497	pulse	1	t		54.0	2.5	blank	1.0	269.0245499610901	
56	250.2905740737915	pulse	1	t		54.0	2.5	blank	1.0	270.6246590614319	
56	250.4069709777832	fix_post	2		12	54.0	2.5	blank	1.0	270.7410559654236	0.09999704360961914
57	250.50696802139282	fix_pre	0		120	55.0	2.5	/experiments/aot/S_yt-V4ptcLegCiw_161.mp4	0.0	270.8410530090332	1.0000410079956055
57	251.50700902938843	movie	1		300	55.0	2.5	/experiments/aot/S_yt-V4ptcLegCiw_161.mp4	0.0	271.8410940170288	2.4999890327453613
57	251.89047694206238	pulse	1	t		55.0	2.5	/experiments/aot/S_yt-V4ptcLegCiw_161.mp4	0.0	272.22456192970276	
57	253.4904749393463	pulse	1	t		55.0	2.5	/experiments/aot/S_yt-V4ptcLegCiw_161.mp4	0.0	273.8245599269867	
57	254.0069980621338	fix_post	2		12	55.0	2.5	/experiments/aot/S_yt-V4ptcLegCiw_161.mp4	0.0	274.34108304977417	0.10001087188720703
58	254.107008934021	fix_pre	0		119	56.0	2.5	/experiments/aot/S_ILSVRC2015_train_00524006.mp4	0.0	274.4410939216614	0.991750955581665
58	255.09060287475586	pulse	0	t		56.0	2.5	/experiments/aot/S_ILSVRC2015_train_00524006.mp4	0.0	275.42468786239624	
58	255.09875988960266	movie	1		301	56.0	2.5	/experiments/aot/S_ILSVRC2015_train_00524006.mp4	0.0	275.43284487724304	2.507960081100464
58	256.6900589466095	pulse	1	t		56.0	2.5	/experiments/aot/S_ILSVRC2015_train_00524006.mp4	0.0	277.0241439342499	
58	257.6067199707031	fix_post	2		12	56.0	2.5	/experiments/aot/S_ILSVRC2015_train_00524006.mp4	0.0	277.9408049583435	0.10006403923034668
59	257.7067840099335	fix_pre	0		120	57.0	2.5	/experiments/aot/R_S_pexels-roman-odintsov-8231493.mp4	0.0	278.04086899757385	1.0001740455627441
59	258.29076385498047	pulse	0	t		57.0	2.5	/experiments/aot/R_S_pexels-roman-odintsov-8231493.mp4	0.0	278.62484884262085	
59	258.7069580554962	movie	1		163	57.0	2.5	/experiments/aot/R_S_pexels-roman-odintsov-8231493.mp4	0.0	279.0410430431366	2.5000250339508057
59	259.8905460834503	pulse	1	t		57.0	2.5	/experiments/aot/R_S_pexels-roman-odintsov-8231493.mp4	0.0	280.2246310710907	
59	261.206983089447	fix_post	2		12	57.0	2.5	/experiments/aot/R_S_pexels-roman-odintsov-8231493.mp4	0.0	281.5410680770874	0.10010480880737305
60	261.3070878982544	fix_pre	0		120	58.0	2.5	/experiments/aot/R_S_3dzza09VbXY_235.mp4	0.0	281.6411728858948	0.9999370574951172
60	261.49052691459656	pulse	0	t		58.0	2.5	/experiments/aot/R_S_3dzza09VbXY_235.mp4	0.0	281.82461190223694	
60	262.3070249557495	movie	1		300	58.0	2.5	/experiments/aot/R_S_3dzza09VbXY_235.mp4	0.0	282.6411099433899	2.4998679161071777
60	263.09043407440186	pulse	1	t		58.0	2.5	/experiments/aot/R_S_3dzza09VbXY_235.mp4	0.0	283.42451906204224	
60	264.69036507606506	pulse	1	t		58.0	2.5	/experiments/aot/R_S_3dzza09VbXY_235.mp4	0.0	285.02445006370544	
60	264.8068928718567	fix_post	2		12	58.0	2.5	/experiments/aot/R_S_3dzza09VbXY_235.mp4	0.0	285.14097785949707	0.10001301765441895
61	264.9069058895111	fix_pre	0		120	59.0	2.5	/experiments/aot/R_S_yt-FMIevUic_XY_50.mp4	0.0	285.2409908771515	0.9999411106109619
61	265.90684700012207	movie	1		300	59.0	2.5	/experiments/aot/R_S_yt-FMIevUic_XY_50.mp4	0.0	286.24093198776245	2.5001220703125
61	266.29033398628235	pulse	1	t		59.0	2.5	/experiments/aot/R_S_yt-FMIevUic_XY_50.mp4	0.0	286.62441897392273	
61	267.8903760910034	pulse	1	t		59.0	2.5	/experiments/aot/R_S_yt-FMIevUic_XY_50.mp4	0.0	288.2244610786438	
61	268.40696907043457	fix_post	2		12	59.0	2.5	/experiments/aot/R_S_yt-FMIevUic_XY_50.mp4	0.0	288.74105405807495	0.09986996650695801
62	268.5068390369415	fix_pre	0		119	60.0	2.5	/experiments/aot/S_yt-bmGWhOCsvJo_128.mp4	0.0	288.8409240245819	0.9917218685150146
62	269.49036407470703	pulse	0	t		60.0	2.5	/experiments/aot/S_yt-bmGWhOCsvJo_128.mp4	0.0	289.8244490623474	
62	269.49856090545654	movie	1		301	60.0	2.5	/experiments/aot/S_yt-bmGWhOCsvJo_128.mp4	0.0	289.8326458930969	2.508301019668579
62	271.09062790870667	pulse	1	t		60.0	2.5	/experiments/aot/S_yt-bmGWhOCsvJo_128.mp4	0.0	291.42471289634705	
62	272.0068619251251	fix_post	2		12	60.0	2.5	/experiments/aot/S_yt-bmGWhOCsvJo_128.mp4	0.0	292.3409469127655	0.10005712509155273
63	272.1069190502167	fix_pre	0		120	61.0	2.5	/experiments/aot/R_S_yt-3NMDWrZr1Z4_255.mp4	0.0	292.44100403785706	0.999985933303833
63	272.6904010772705	pulse	0	t		61.0	2.5	/experiments/aot/R_S_yt-3NMDWrZr1Z4_255.mp4	0.0	293.0244860649109	
63	273.1069049835205	movie	1		299	61.0	2.5	/experiments/aot/R_S_yt-3NMDWrZr1Z4_255.mp4	0.0	293.4409899711609	2.50004506111145
63	274.29042887687683	pulse	1	t		61.0	2.5	/experiments/aot/R_S_yt-3NMDWrZr1Z4_255.mp4	0.0	294.6245138645172	
63	275.60695004463196	fix_post	2		12	61.0	2.5	/experiments/aot/R_S_yt-3NMDWrZr1Z4_255.mp4	0.0	295.94103503227234	0.09993696212768555
64	275.70688700675964	fix_pre	0		120	62.0	2.5	blank	1.0	296.0409719944	0.9999749660491943
64	275.8904869556427	pulse	0	t		62.0	2.5	blank	1.0	296.2245719432831	
64	276.70686197280884	movie	1		300	62.0	2.5	blank	1.0	297.0409469604492	2.500011920928955
64	277.4903779029846	pulse	1	t		62.0	2.5	blank	1.0	297.824462890625	
64	279.09029507637024	pulse	1	t		62.0	2.5	blank	1.0	299.4243800640106	
64	279.2068738937378	fix_post	2		12	62.0	2.5	blank	1.0	299.5409588813782	0.10008406639099121
65	279.3069579601288	fix_pre	0		120	63.0	2.5	/experiments/aot/R_S_yt-ph1AkIToO4E_46.mp4	0.0	299.64104294776917	0.9999210834503174
65	280.3068790435791	movie	1		299	63.0	2.5	/experiments/aot/R_S_yt-ph1AkIToO4E_46.mp4	0.0	300.6409640312195	2.499976873397827
65	280.69039607048035	pulse	1	t		63.0	2.5	/experiments/aot/R_S_yt-ph1AkIToO4E_46.mp4	0.0	301.0244810581207	
65	282.29039192199707	pulse	1	t		63.0	2.5	/experiments/aot/R_S_yt-ph1AkIToO4E_46.mp4	0.0	302.62447690963745	
65	282.80685591697693	fix_post	2		12	63.0	2.5	/experiments/aot/R_S_yt-ph1AkIToO4E_46.mp4	0.0	303.1409409046173	0.10005307197570801
66	282.90690898895264	fix_pre	0		119	64.0	2.5	/experiments/aot/S_yt-lCb_efvJcdE_5.mp4	0.0	303.240993976593	0.991645097732544
66	283.89033794403076	pulse	0	t		64.0	2.5	/experiments/aot/S_yt-lCb_efvJcdE_5.mp4	0.0	304.22442293167114	
66	283.8985540866852	movie	1		301	64.0	2.5	/experiments/aot/S_yt-lCb_efvJcdE_5.mp4	0.0	304.23263907432556	2.5083208084106445
66	285.4903140068054	pulse	1	t		64.0	2.5	/experiments/aot/S_yt-lCb_efvJcdE_5.mp4	0.0	305.8243989944458	
66	286.4068748950958	fix_post	2		12	64.0	2.5	/experiments/aot/S_yt-lCb_efvJcdE_5.mp4	0.0	306.7409598827362	0.09999418258666992
67	286.5068690776825	fix_pre	0		120	65.0	2.5	/experiments/aot/S_yt-2y6A9DJPsDU_65.mp4	0.0	306.8409540653229	1.0000379085540771
67	287.0902109146118	pulse	0	t		65.0	2.5	/experiments/aot/S_yt-2y6A9DJPsDU_65.mp4	0.0	307.4242959022522	
67	287.5069069862366	movie	1		300	65.0	2.5	/experiments/aot/S_yt-2y6A9DJPsDU_65.mp4	0.0	307.84099197387695	2.499932050704956
67	288.69032096862793	pulse	1	t		65.0	2.5	/experiments/aot/S_yt-2y6A9DJPsDU_65.mp4	0.0	309.0244059562683	
67	290.0068390369415	fix_post	2		12	65.0	2.5	/experiments/aot/S_yt-2y6A9DJPsDU_65.mp4	0.0	310.3409240245819	0.10001087188720703
68	290.10684990882874	fix_pre	0		120	66.0	2.5	/experiments/aot/S_zr0tzAC2XHk_334.mp4	0.0	310.4409348964691	0.999932050704956
68	290.29030895233154	pulse	0	t		66.0	2.5	/experiments/aot/S_zr0tzAC2XHk_334.mp4	0.0	310.6243939399719	
68	291.1067819595337	movie	1		300	66.0	2.5	/experiments/aot/S_zr0tzAC2XHk_334.mp4	0.0	311.4408669471741	2.5000290870666504
68	291.89021396636963	pulse	1	t		66.0	2.5	/experiments/aot/S_zr0tzAC2XHk_334.mp4	0.0	312.22429895401	
68	293.49026894569397	pulse	1	t		66.0	2.5	/experiments/aot/S_zr0tzAC2XHk_334.mp4	0.0	313.82435393333435	
68	293.60681104660034	fix_post	2		12	66.0	2.5	/experiments/aot/S_zr0tzAC2XHk_334.mp4	0.0	313.9408960342407	0.09997797012329102
69	293.70678901672363	fix_pre	0		120	67.0	2.5	/experiments/aot/R_S_yt-SHTeTAnZgho_43.mp4	0.0	314.040874004364	1.000006914138794
69	294.7067959308624	movie	1		300	67.0	2.5	/experiments/aot/R_S_yt-SHTeTAnZgho_43.mp4	0.0	315.0408809185028	2.499983072280884
69	295.09019207954407	pulse	1	t		67.0	2.5	/experiments/aot/R_S_yt-SHTeTAnZgho_43.mp4	0.0	315.42427706718445	
69	296.6903488636017	pulse	1	t		67.0	2.5	/experiments/aot/R_S_yt-SHTeTAnZgho_43.mp4	0.0	317.02443385124207	
69	297.2067790031433	fix_post	2		12	67.0	2.5	/experiments/aot/R_S_yt-SHTeTAnZgho_43.mp4	0.0	317.5408639907837	0.09997892379760742
70	297.3067579269409	fix_pre	0		119	68.0	2.5	blank	1.0	317.6408429145813	0.991692066192627
70	298.29017186164856	pulse	0	t		68.0	2.5	blank	1.0	318.62425684928894	
70	298.29844999313354	movie	1		301	68.0	2.5	blank	1.0	318.6325349807739	2.508301019668579
70	299.89022493362427	pulse	1	t		68.0	2.5	blank	1.0	320.22430992126465	
70	300.8067510128021	fix_post	2		12	68.0	2.5	blank	1.0	321.1408360004425	0.10001492500305176
71	300.9067659378052	fix_pre	0		120	69.0	2.5	/experiments/aot/R_S_comp_HK_H004_C010_PSNK_v08_SDR_PS_20181009_SDR_2K_AVC.mp4	0.0	321.24085092544556	0.999891996383667
71	301.4901750087738	pulse	0	t		69.0	2.5	/experiments/aot/R_S_comp_HK_H004_C010_PSNK_v08_SDR_PS_20181009_SDR_2K_AVC.mp4	0.0	321.8242599964142	
71	301.90665793418884	movie	1		165	69.0	2.5	/experiments/aot/R_S_comp_HK_H004_C010_PSNK_v08_SDR_PS_20181009_SDR_2K_AVC.mp4	0.0	322.2407429218292	2.500154972076416
71	303.09023904800415	pulse	1	t		69.0	2.5	/experiments/aot/R_S_comp_HK_H004_C010_PSNK_v08_SDR_PS_20181009_SDR_2K_AVC.mp4	0.0	323.42432403564453	
71	304.40681290626526	fix_post	2		12	69.0	2.5	/experiments/aot/R_S_comp_HK_H004_C010_PSNK_v08_SDR_PS_20181009_SDR_2K_AVC.mp4	0.0	324.74089789390564	0.09999299049377441
72	304.50680589675903	fix_pre	0		120	70.0	2.5	/experiments/aot/R_S_yt-BAwvfRmE1LU_79.mp4	0.0	324.8408908843994	1.0000011920928955
72	304.69025897979736	pulse	0	t		70.0	2.5	/experiments/aot/R_S_yt-BAwvfRmE1LU_79.mp4	0.0	325.02434396743774	
72	305.50680708885193	movie	1		300	70.0	2.5	/experiments/aot/R_S_yt-BAwvfRmE1LU_79.mp4	0.0	325.8408920764923	2.500013828277588
72	306.2901420593262	pulse	1	t		70.0	2.5	/experiments/aot/R_S_yt-BAwvfRmE1LU_79.mp4	0.0	326.62422704696655	
72	307.89064502716064	pulse	1	t		70.0	2.5	/experiments/aot/R_S_yt-BAwvfRmE1LU_79.mp4	0.0	328.224730014801	
72	308.0068209171295	fix_post	2		12	70.0	2.5	/experiments/aot/R_S_yt-BAwvfRmE1LU_79.mp4	0.0	328.3409059047699	0.09988903999328613
73	308.1067099571228	fix_pre	0		120	71.0	2.5	/experiments/aot/R_S_yt-ejSzwn8tY8g_49.mp4	0.0	328.4407949447632	1.0000309944152832
73	309.1067409515381	movie	1		299	71.0	2.5	/experiments/aot/R_S_yt-ejSzwn8tY8g_49.mp4	0.0	329.44082593917847	2.4996049404144287
73	309.4901690483093	pulse	1	t		71.0	2.5	/experiments/aot/R_S_yt-ejSzwn8tY8g_49.mp4	0.0	329.8242540359497	
73	311.0896420478821	pulse	1	t		71.0	2.5	/experiments/aot/R_S_yt-ejSzwn8tY8g_49.mp4	0.0	331.42372703552246	
73	311.6063458919525	fix_post	2		12	71.0	2.5	/experiments/aot/R_S_yt-ejSzwn8tY8g_49.mp4	0.0	331.9404308795929	0.09998416900634766
74	311.70633006095886	fix_pre	0		119	72.0	2.5	/experiments/aot/S_yt-pB9w3AA-woE_37.mp4	0.0	332.04041504859924	0.9916989803314209
74	312.6898019313812	pulse	0	t		72.0	2.5	/experiments/aot/S_yt-pB9w3AA-woE_37.mp4	0.0	333.0238869190216	
74	312.6980290412903	movie	1		301	72.0	2.5	/experiments/aot/S_yt-pB9w3AA-woE_37.mp4	0.0	333.03211402893066	2.5087168216705322
74	314.2900969982147	pulse	1	t		72.0	2.5	/experiments/aot/S_yt-pB9w3AA-woE_37.mp4	0.0	334.6241819858551	
74	315.2067458629608	fix_post	2		12	72.0	2.5	/experiments/aot/S_yt-pB9w3AA-woE_37.mp4	0.0	335.5408308506012	0.10003399848937988
75	315.3067798614502	fix_pre	0		120	73.0	2.5	/experiments/aot/R_S_yt-H45g6700wbc_159.mp4	0.0	335.6408648490906	0.9999730587005615
75	315.8902430534363	pulse	0	t		73.0	2.5	/experiments/aot/R_S_yt-H45g6700wbc_159.mp4	0.0	336.22432804107666	
75	316.30675292015076	movie	1		300	73.0	2.5	/experiments/aot/R_S_yt-H45g6700wbc_159.mp4	0.0	336.64083790779114	2.499972105026245
75	317.4902729988098	pulse	1	t		73.0	2.5	/experiments/aot/R_S_yt-H45g6700wbc_159.mp4	0.0	337.8243579864502	
75	318.806725025177	fix_post	2		12	73.0	2.5	/experiments/aot/R_S_yt-H45g6700wbc_159.mp4	0.0	339.1408100128174	0.09991097450256348
76	318.90663599967957	fix_pre	0		120	74.0	2.5	/experiments/aot/R_S_ILSVRC2015_train_00434000.mp4	0.0	339.24072098731995	1.0000109672546387
76	319.09002208709717	pulse	0	t		74.0	2.5	/experiments/aot/R_S_ILSVRC2015_train_00434000.mp4	0.0	339.42410707473755	
76	319.9066469669342	movie	1		300	74.0	2.5	/experiments/aot/R_S_ILSVRC2015_train_00434000.mp4	0.0	340.2407319545746	2.4999959468841553
76	320.69012093544006	pulse	1	t		74.0	2.5	/experiments/aot/R_S_ILSVRC2015_train_00434000.mp4	0.0	341.02420592308044	
76	322.29006695747375	pulse	1	t		74.0	2.5	/experiments/aot/R_S_ILSVRC2015_train_00434000.mp4	0.0	342.62415194511414	
76	322.40664291381836	fix_post	2		12	74.0	2.5	/experiments/aot/R_S_ILSVRC2015_train_00434000.mp4	0.0	342.74072790145874	0.1000070571899414
77	322.5066499710083	fix_pre	0		120	75.0	2.5	/experiments/aot/R_S_nPwtvvPgdNc_39.mp4	0.0	342.8407349586487	1.000140905380249
77	323.50679087638855	movie	1		300	75.0	2.5	/experiments/aot/R_S_nPwtvvPgdNc_39.mp4	0.0	343.84087586402893	2.499850034713745
77	323.88999605178833	pulse	1	t		75.0	2.5	/experiments/aot/R_S_nPwtvvPgdNc_39.mp4	0.0	344.2240810394287	
77	325.4900698661804	pulse	1	t		75.0	2.5	/experiments/aot/R_S_nPwtvvPgdNc_39.mp4	0.0	345.8241548538208	
77	326.0066409111023	fix_post	2		12	75.0	2.5	/experiments/aot/R_S_nPwtvvPgdNc_39.mp4	0.0	346.3407258987427	0.10001206398010254
78	326.1066529750824	fix_pre	0		119	76.0	2.5	blank	1.0	346.4407379627228	0.9916579723358154
78	327.0901930332184	pulse	0	t		76.0	2.5	blank	1.0	347.42427802085876	
78	327.0983109474182	movie	1		301	76.0	2.5	blank	1.0	347.4323959350586	2.5083999633789062
78	328.690190076828	pulse	1	t		76.0	2.5	blank	1.0	349.0242750644684	
78	329.6067109107971	fix_post	2		12	76.0	2.5	blank	1.0	349.9407958984375	0.09995794296264648
79	329.70666885375977	fix_pre	0		120	77.0	2.5	/experiments/aot/R_S_wc-NVeGRb_y_y_5_36.mp4	0.0	350.04075384140015	0.9999442100524902
79	330.29020285606384	pulse	0	t		77.0	2.5	/experiments/aot/R_S_wc-NVeGRb_y_y_5_36.mp4	0.0	350.6242878437042	
79	330.70661306381226	movie	1		163	77.0	2.5	/experiments/aot/R_S_wc-NVeGRb_y_y_5_36.mp4	0.0	351.04069805145264	2.4996559619903564
79	331.8902680873871	pulse	1	t		77.0	2.5	/experiments/aot/R_S_wc-NVeGRb_y_y_5_36.mp4	0.0	352.22435307502747	
79	333.2062690258026	fix_post	2		12	77.0	2.5	/experiments/aot/R_S_wc-NVeGRb_y_y_5_36.mp4	0.0	353.540354013443	0.10035085678100586
80	333.3066198825836	fix_pre	0		120	78.0	2.5	/experiments/aot/R_S_b4-3.mp4	0.0	353.640704870224	1.0000360012054443
80	333.4900939464569	pulse	0	t		78.0	2.5	/experiments/aot/R_S_b4-3.mp4	0.0	353.8241789340973	
80	334.30665588378906	movie	1		164	78.0	2.5	/experiments/aot/R_S_b4-3.mp4	0.0	354.64074087142944	2.4998881816864014
80	335.0900979042053	pulse	1	t		78.0	2.5	/experiments/aot/R_S_b4-3.mp4	0.0	355.4241828918457	
80	336.690052986145	pulse	1	t		78.0	2.5	/experiments/aot/R_S_b4-3.mp4	0.0	357.0241379737854	
80	336.80654406547546	fix_post	2		12	78.0	2.5	/experiments/aot/R_S_b4-3.mp4	0.0	357.14062905311584	0.10008978843688965
81	336.90663385391235	fix_pre	0		120	79.0	2.5	/experiments/aot/R_S_yt-x7TqP8l4lCA_39.mp4	0.0	357.24071884155273	0.9999990463256836
81	337.90663290023804	movie	1		299	79.0	2.5	/experiments/aot/R_S_yt-x7TqP8l4lCA_39.mp4	0.0	358.2407178878784	2.499907970428467
81	338.28998589515686	pulse	1	t		79.0	2.5	/experiments/aot/R_S_yt-x7TqP8l4lCA_39.mp4	0.0	358.62407088279724	
81	339.889976978302	pulse	1	t		79.0	2.5	/experiments/aot/R_S_yt-x7TqP8l4lCA_39.mp4	0.0	360.2240619659424	
81	340.4065408706665	fix_post	2		12	79.0	2.5	/experiments/aot/R_S_yt-x7TqP8l4lCA_39.mp4	0.0	360.7406258583069	0.09999704360961914
82	340.5065379142761	fix_pre	0		119	80.0	2.5	/experiments/aot/S_zr0tzAC2XHk_334.mp4	0.0	360.8406229019165	0.9916889667510986
82	341.4900059700012	pulse	0	t		80.0	2.5	/experiments/aot/S_zr0tzAC2XHk_334.mp4	0.0	361.8240909576416	
82	341.4982268810272	movie	1		301	80.0	2.5	/experiments/aot/S_zr0tzAC2XHk_334.mp4	0.0	361.8323118686676	2.5083200931549072
82	343.0899660587311	pulse	1	t		80.0	2.5	/experiments/aot/S_zr0tzAC2XHk_334.mp4	0.0	363.42405104637146	
82	344.00654697418213	fix_post	2		12	80.0	2.5	/experiments/aot/S_zr0tzAC2XHk_334.mp4	0.0	364.3406319618225	0.10004496574401855
83	344.10659193992615	fix_pre	0		120	81.0	2.5	/experiments/aot/R_S_yt-qazCIJqjxUU_3.mp4	0.0	364.4406769275665	0.9995219707489014
83	344.68995785713196	pulse	0	t		81.0	2.5	/experiments/aot/R_S_yt-qazCIJqjxUU_3.mp4	0.0	365.02404284477234	
83	345.10611391067505	movie	1		299	81.0	2.5	/experiments/aot/R_S_yt-qazCIJqjxUU_3.mp4	0.0	365.44019889831543	2.500488042831421
83	346.2899708747864	pulse	1	t		81.0	2.5	/experiments/aot/R_S_yt-qazCIJqjxUU_3.mp4	0.0	366.62405586242676	
83	347.60660195350647	fix_post	2		12	81.0	2.5	/experiments/aot/R_S_yt-qazCIJqjxUU_3.mp4	0.0	367.94068694114685	0.09997105598449707
84	347.70657300949097	fix_pre	0		120	82.0	2.5	/experiments/aot/S_yt-MUfa26F8dfE_97.mp4	0.0	368.04065799713135	0.9999840259552002
84	347.8900890350342	pulse	0	t		82.0	2.5	/experiments/aot/S_yt-MUfa26F8dfE_97.mp4	0.0	368.22417402267456	
84	348.70655703544617	movie	1		300	82.0	2.5	/experiments/aot/S_yt-MUfa26F8dfE_97.mp4	0.0	369.04064202308655	2.499992847442627
84	349.4898898601532	pulse	1	t		82.0	2.5	/experiments/aot/S_yt-MUfa26F8dfE_97.mp4	0.0	369.8239748477936	
84	351.0895369052887	pulse	1	t		82.0	2.5	/experiments/aot/S_yt-MUfa26F8dfE_97.mp4	0.0	371.4236218929291	
84	351.2065498828888	fix_post	2		12	82.0	2.5	/experiments/aot/S_yt-MUfa26F8dfE_97.mp4	0.0	371.5406348705292	0.10000014305114746
85	351.30655002593994	fix_pre	0		120	83.0	2.5	blank	1.0	371.6406350135803	1.0000510215759277
85	352.30660104751587	movie	1		300	83.0	2.5	blank	1.0	372.64068603515625	2.4999148845672607
85	352.69008588790894	pulse	1	t		83.0	2.5	blank	1.0	373.0241708755493	
85	354.28991508483887	pulse	1	t		83.0	2.5	blank	1.0	374.62400007247925	
85	354.80651593208313	fix_post	2		12	83.0	2.5	blank	1.0	375.1406009197235	0.10005807876586914
87	354.906574010849	stim	0		1716					375.2406589984894	14.300062894821167
87	355.88998198509216	pulse	0	t						376.22406697273254	
87	357.48988008499146	pulse	0	t						377.82396507263184	
87	359.0899860858917	pulse	0	t						379.4240710735321	
87	360.6898889541626	pulse	0	t						381.023973941803	
87	362.2899670600891	pulse	0	t						382.6240520477295	
87	363.88985896110535	pulse	0	t						384.2239439487457	
87	365.4898819923401	pulse	0	t						385.82396697998047	
87	367.08946800231934	pulse	0	t						387.4235529899597	
87	368.6896378993988	pulse	0	t						389.0237228870392	
