trial_nr	onset	event_type	phase	response	nr_frames	movie_index	movie_duration	movie_file	blank	onset_abs	duration
0	0.14941000938415527	stim	0		58					25.288366079330444	0.4837989807128906
0	0.6251089572906494	response	0	space						25.76406502723694	
1	0.6332089900970459	stim	0		6558					25.772165060043335	54.64976501464844
1	55.275973081588745	pulse	0	t						80.41492915153503	
1	55.28297400474548	stim	1		1717					80.42193007469177	14.308313131332397
1	56.87487316131592	pulse	1	t						82.0138292312622	
1	58.474782943725586	pulse	1	t						83.61373901367188	
1	60.07479500770569	pulse	1	t						85.21375107765198	
1	61.6748731136322	pulse	1	t						86.81382918357849	
1	63.27478098869324	pulse	1	t						88.41373705863953	
1	64.87478804588318	pulse	1	t						90.01374411582947	
1	66.47478914260864	pulse	1	t						91.61374521255493	
1	68.07481908798218	pulse	1	t						93.21377515792847	
2	69.59128713607788	fix_pre	0		11	0.0	2.5	/experiments/aot/R_S_yt-nn-8LZcafGs_25.mp4	0.0	94.73024320602417	0.09169793128967285
2	69.674800157547	pulse	0	t		0.0	2.5	/experiments/aot/R_S_yt-nn-8LZcafGs_25.mp4	0.0	94.81375622749329	
2	69.68298506736755	movie	1		297	0.0	2.5	/experiments/aot/R_S_yt-nn-8LZcafGs_25.mp4	0.0	94.82194113731384	2.508344888687134
2	71.274747133255	pulse	1	t		0.0	2.5	/experiments/aot/R_S_yt-nn-8LZcafGs_25.mp4	0.0	96.4137032032013	
2	72.19132995605469	fix_post	2		12	0.0	2.5	/experiments/aot/R_S_yt-nn-8LZcafGs_25.mp4	0.0	97.33028602600098	0.09996318817138672
3	72.29129314422607	fix_pre	0		120	1.0	2.5	/experiments/aot/R_S_yt-Pc1ZlCvsPpc_5.mp4	0.0	97.43024921417236	0.9999690055847168
3	72.87483811378479	pulse	0	t		1.0	2.5	/experiments/aot/R_S_yt-Pc1ZlCvsPpc_5.mp4	0.0	98.01379418373108	
3	73.29126214981079	movie	1		300	1.0	2.5	/experiments/aot/R_S_yt-Pc1ZlCvsPpc_5.mp4	0.0	98.43021821975708	2.500124931335449
3	74.47479009628296	pulse	1	t		1.0	2.5	/experiments/aot/R_S_yt-Pc1ZlCvsPpc_5.mp4	0.0	99.61374616622925	
3	75.79138708114624	fix_post	2		12	1.0	2.5	/experiments/aot/R_S_yt-Pc1ZlCvsPpc_5.mp4	0.0	100.93034315109253	0.0998849868774414
4	75.89127206802368	fix_pre	0		120	2.0	2.5	/experiments/aot/S_b3TCugtX0h0_108.mp4	0.0	101.03022813796997	0.9999949932098389
4	76.07479500770569	pulse	0	t		2.0	2.5	/experiments/aot/S_b3TCugtX0h0_108.mp4	0.0	101.21375107765198	
4	76.89126706123352	movie	1		298	2.0	2.5	/experiments/aot/S_b3TCugtX0h0_108.mp4	0.0	102.03022313117981	2.499985933303833
4	77.67480802536011	pulse	1	t		2.0	2.5	/experiments/aot/S_b3TCugtX0h0_108.mp4	0.0	102.8137640953064	
4	79.27473211288452	pulse	1	t		2.0	2.5	/experiments/aot/S_b3TCugtX0h0_108.mp4	0.0	104.41368818283081	
4	79.39125299453735	fix_post	2		12	2.0	2.5	/experiments/aot/S_b3TCugtX0h0_108.mp4	0.0	104.53020906448364	0.09996604919433594
5	79.49121904373169	fix_pre	0		120	3.0	2.5	/experiments/aot/R_S_comp_CH_C002_C005_PSNK_v05_SDR_PS_FINAL_20180709_SDR_2K_AVC.mp4	0.0	104.63017511367798	0.9999940395355225
5	80.49121308326721	movie	1		173	3.0	2.5	/experiments/aot/R_S_comp_CH_C002_C005_PSNK_v05_SDR_PS_FINAL_20180709_SDR_2K_AVC.mp4	0.0	105.6301691532135	2.5002050399780273
5	80.87478613853455	pulse	1	t		3.0	2.5	/experiments/aot/R_S_comp_CH_C002_C005_PSNK_v05_SDR_PS_FINAL_20180709_SDR_2K_AVC.mp4	0.0	106.01374220848083	
5	82.47472405433655	pulse	1	t		3.0	2.5	/experiments/aot/R_S_comp_CH_C002_C005_PSNK_v05_SDR_PS_FINAL_20180709_SDR_2K_AVC.mp4	0.0	107.61368012428284	
5	82.99141812324524	fix_post	2		12	3.0	2.5	/experiments/aot/R_S_comp_CH_C002_C005_PSNK_v05_SDR_PS_FINAL_20180709_SDR_2K_AVC.mp4	0.0	108.13037419319153	0.09974503517150879
6	83.09116315841675	fix_pre	0		119	4.0	2.5	/experiments/aot/S_production_ID_3923518.mp4	0.0	108.23011922836304	0.9917559623718262
6	84.07478404045105	pulse	0	t		4.0	2.5	/experiments/aot/S_production_ID_3923518.mp4	0.0	109.21374011039734	
6	84.08291912078857	movie	1		164	4.0	2.5	/experiments/aot/S_production_ID_3923518.mp4	0.0	109.22187519073486	2.50826096534729
6	85.67473411560059	pulse	1	t		4.0	2.5	/experiments/aot/S_production_ID_3923518.mp4	0.0	110.81369018554688	
6	86.59118008613586	fix_post	2		12	4.0	2.5	/experiments/aot/S_production_ID_3923518.mp4	0.0	111.73013615608215	0.10003805160522461
7	86.69121813774109	fix_pre	0		120	5.0	2.5	blank	1.0	111.83017420768738	0.9999468326568604
7	87.27474904060364	pulse	0	t		5.0	2.5	blank	1.0	112.41370511054993	
7	87.69116497039795	movie	1		300	5.0	2.5	blank	1.0	112.83012104034424	2.5000159740448
7	88.8747501373291	pulse	1	t		5.0	2.5	blank	1.0	114.01370620727539	
7	90.19118094444275	fix_post	2		12	5.0	2.5	blank	1.0	115.33013701438904	0.09989619255065918
8	90.29107713699341	fix_pre	0		120	6.0	2.5	/experiments/aot/R_S_wc-jujp1kJRHrkJ_54.mp4	0.0	115.4300332069397	1.0001018047332764
8	90.47466897964478	pulse	0	t		6.0	2.5	/experiments/aot/R_S_wc-jujp1kJRHrkJ_54.mp4	0.0	115.61362504959106	
8	91.29117894172668	movie	1		299	6.0	2.5	/experiments/aot/R_S_wc-jujp1kJRHrkJ_54.mp4	0.0	116.43013501167297	2.4999639987945557
8	92.0746419429779	pulse	1	t		6.0	2.5	/experiments/aot/R_S_wc-jujp1kJRHrkJ_54.mp4	0.0	117.2135980129242	
8	93.67428708076477	pulse	1	t		6.0	2.5	/experiments/aot/R_S_wc-jujp1kJRHrkJ_54.mp4	0.0	118.81324315071106	
8	93.79114294052124	fix_post	2		12	6.0	2.5	/experiments/aot/R_S_wc-jujp1kJRHrkJ_54.mp4	0.0	118.93009901046753	0.10003018379211426
9	93.89117312431335	fix_pre	0		120	7.0	2.5	/experiments/aot/S_yt-nn-8LZcafGs_25.mp4	0.0	119.03012919425964	1.0000648498535156
9	94.89123797416687	movie	1		299	7.0	2.5	/experiments/aot/S_yt-nn-8LZcafGs_25.mp4	0.0	120.03019404411316	2.499894142150879
9	95.27466797828674	pulse	1	t		7.0	2.5	/experiments/aot/S_yt-nn-8LZcafGs_25.mp4	0.0	120.41362404823303	
9	96.87465810775757	pulse	1	t		7.0	2.5	/experiments/aot/S_yt-nn-8LZcafGs_25.mp4	0.0	122.01361417770386	
9	97.39113211631775	fix_post	2		12	7.0	2.5	/experiments/aot/S_yt-nn-8LZcafGs_25.mp4	0.0	122.53008818626404	0.09996294975280762
10	97.49109506607056	fix_pre	0		119	8.0	2.5	/experiments/aot/R_S_yt-6MwA-jx56AQ_612.mp4	0.0	122.63005113601685	0.9916739463806152
10	98.4747850894928	pulse	0	t		8.0	2.5	/experiments/aot/R_S_yt-6MwA-jx56AQ_612.mp4	0.0	123.61374115943909	
10	98.48276901245117	movie	1		301	8.0	2.5	/experiments/aot/R_S_yt-6MwA-jx56AQ_612.mp4	0.0	123.62172508239746	2.5083611011505127
10	100.07464098930359	pulse	1	t		8.0	2.5	/experiments/aot/R_S_yt-6MwA-jx56AQ_612.mp4	0.0	125.21359705924988	
10	100.99113011360168	fix_post	2		12	8.0	2.5	/experiments/aot/R_S_yt-6MwA-jx56AQ_612.mp4	0.0	126.13008618354797	0.09960603713989258
11	101.09073615074158	fix_pre	0		120	9.0	2.5	/experiments/aot/R_S_yt-r7brAHgxZSU_248.mp4	0.0	126.22969222068787	0.9999878406524658
11	101.67427611351013	pulse	0	t		9.0	2.5	/experiments/aot/R_S_yt-r7brAHgxZSU_248.mp4	0.0	126.81323218345642	
11	102.09072399139404	movie	1		300	9.0	2.5	/experiments/aot/R_S_yt-r7brAHgxZSU_248.mp4	0.0	127.22968006134033	2.5003950595855713
11	103.27497601509094	pulse	1	t		9.0	2.5	/experiments/aot/R_S_yt-r7brAHgxZSU_248.mp4	0.0	128.41393208503723	
11	104.59111905097961	fix_post	2		12	9.0	2.5	/experiments/aot/R_S_yt-r7brAHgxZSU_248.mp4	0.0	129.7300751209259	0.09999394416809082
12	104.6911129951477	fix_pre	0		120	10.0	2.5	/experiments/aot/R_S_yt-6mRpmfIvdew_1435.mp4	0.0	129.830069065094	1.0000059604644775
12	104.87461113929749	pulse	0	t		10.0	2.5	/experiments/aot/R_S_yt-6mRpmfIvdew_1435.mp4	0.0	130.01356720924377	
12	105.69111895561218	movie	1		300	10.0	2.5	/experiments/aot/R_S_yt-6mRpmfIvdew_1435.mp4	0.0	130.83007502555847	2.49997615814209
12	106.47459602355957	pulse	1	t		10.0	2.5	/experiments/aot/R_S_yt-6mRpmfIvdew_1435.mp4	0.0	131.61355209350586	
12	108.07468605041504	pulse	1	t		10.0	2.5	/experiments/aot/R_S_yt-6mRpmfIvdew_1435.mp4	0.0	133.21364212036133	
12	108.19109511375427	fix_post	2		12	10.0	2.5	/experiments/aot/R_S_yt-6mRpmfIvdew_1435.mp4	0.0	133.33005118370056	0.10004687309265137
13	108.29114198684692	fix_pre	0		120	11.0	2.5	/experiments/aot/S_ILSVRC2015_train_00418004.mp4	0.0	133.4300980567932	0.9999351501464844
13	109.29107713699341	movie	1		300	11.0	2.5	/experiments/aot/S_ILSVRC2015_train_00418004.mp4	0.0	134.4300332069397	2.4999988079071045
13	109.67459416389465	pulse	1	t		11.0	2.5	/experiments/aot/S_ILSVRC2015_train_00418004.mp4	0.0	134.81355023384094	
13	111.2745349407196	pulse	1	t		11.0	2.5	/experiments/aot/S_ILSVRC2015_train_00418004.mp4	0.0	136.4134910106659	
13	111.79107594490051	fix_post	2		12	11.0	2.5	/experiments/aot/S_ILSVRC2015_train_00418004.mp4	0.0	136.9300320148468	0.10003209114074707
14	111.89110803604126	fix_pre	0		119	12.0	2.5	blank	1.0	137.03006410598755	0.9916141033172607
14	112.87460708618164	pulse	0	t		12.0	2.5	blank	1.0	138.01356315612793	
14	112.88272213935852	movie	1		301	12.0	2.5	blank	1.0	138.0216782093048	2.5084028244018555
14	114.4745261669159	pulse	1	t		12.0	2.5	blank	1.0	139.61348223686218	
14	115.39112496376038	fix_post	2		12	12.0	2.5	blank	1.0	140.53008103370667	0.09996700286865234
15	115.49109196662903	fix_pre	0		120	13.0	2.5	/experiments/aot/R_S_yt-Bx2kLEUuN0E_456.mp4	0.0	140.63004803657532	0.9999639987945557
15	116.07454514503479	pulse	0	t		13.0	2.5	/experiments/aot/R_S_yt-Bx2kLEUuN0E_456.mp4	0.0	141.21350121498108	
15	116.49105596542358	movie	1		300	13.0	2.5	/experiments/aot/R_S_yt-Bx2kLEUuN0E_456.mp4	0.0	141.63001203536987	2.4999890327453613
15	117.67451310157776	pulse	1	t		13.0	2.5	/experiments/aot/R_S_yt-Bx2kLEUuN0E_456.mp4	0.0	142.81346917152405	
15	118.99104499816895	fix_post	2		12	13.0	2.5	/experiments/aot/R_S_yt-Bx2kLEUuN0E_456.mp4	0.0	144.13000106811523	0.09995412826538086
16	119.09099912643433	fix_pre	0		120	14.0	2.5	/experiments/aot/S_yt-K_gHa2x2OQA_319.mp4	0.0	144.22995519638062	1.000082015991211
16	119.27453303337097	pulse	0	t		14.0	2.5	/experiments/aot/S_yt-K_gHa2x2OQA_319.mp4	0.0	144.41348910331726	
16	120.09108114242554	movie	1		300	14.0	2.5	/experiments/aot/S_yt-K_gHa2x2OQA_319.mp4	0.0	145.23003721237183	2.499926805496216
16	120.87455606460571	pulse	1	t		14.0	2.5	/experiments/aot/S_yt-K_gHa2x2OQA_319.mp4	0.0	146.013512134552	
16	122.47456216812134	pulse	1	t		14.0	2.5	/experiments/aot/S_yt-K_gHa2x2OQA_319.mp4	0.0	147.61351823806763	
16	122.59100794792175	fix_post	2		12	14.0	2.5	/experiments/aot/S_yt-K_gHa2x2OQA_319.mp4	0.0	147.72996401786804	0.10003113746643066
17	122.69103908538818	fix_pre	0		120	15.0	2.5	/experiments/aot/S_yt-xqjVM0Vj4mI_161.mp4	0.0	147.82999515533447	0.9999408721923828
17	123.69097995758057	movie	1		300	15.0	2.5	/experiments/aot/S_yt-xqjVM0Vj4mI_161.mp4	0.0	148.82993602752686	2.500113010406494
17	124.0744640827179	pulse	1	t		15.0	2.5	/experiments/aot/S_yt-xqjVM0Vj4mI_161.mp4	0.0	149.21342015266418	
17	125.67443895339966	pulse	1	t		15.0	2.5	/experiments/aot/S_yt-xqjVM0Vj4mI_161.mp4	0.0	150.81339502334595	
17	126.19109296798706	fix_post	2		12	15.0	2.5	/experiments/aot/S_yt-xqjVM0Vj4mI_161.mp4	0.0	151.33004903793335	0.09990906715393066
18	126.29100203514099	fix_pre	0		119	16.0	2.5	/experiments/aot/R_S_yt-EuyfT0PuOoQ_91.mp4	0.0	151.42995810508728	0.991610050201416
18	127.27454996109009	pulse	0	t		16.0	2.5	/experiments/aot/R_S_yt-EuyfT0PuOoQ_91.mp4	0.0	152.41350603103638	
18	127.28261208534241	movie	1		301	16.0	2.5	/experiments/aot/R_S_yt-EuyfT0PuOoQ_91.mp4	0.0	152.4215681552887	2.508327007293701
18	128.87445306777954	pulse	1	t		16.0	2.5	/experiments/aot/R_S_yt-EuyfT0PuOoQ_91.mp4	0.0	154.01340913772583	
18	129.7909390926361	fix_post	2		12	16.0	2.5	/experiments/aot/R_S_yt-EuyfT0PuOoQ_91.mp4	0.0	154.9298951625824	0.1000208854675293
19	129.89095997810364	fix_pre	0		120	17.0	2.5	/experiments/aot/R_S_pexels-rodnae-productions-5993671.mp4	0.0	155.02991604804993	1.0000700950622559
19	130.4745671749115	pulse	0	t		17.0	2.5	/experiments/aot/R_S_pexels-rodnae-productions-5993671.mp4	0.0	155.6135232448578	
19	130.8910300731659	movie	1		163	17.0	2.5	/experiments/aot/R_S_pexels-rodnae-productions-5993671.mp4	0.0	156.02998614311218	2.4999420642852783
19	132.07456517219543	pulse	1	t		17.0	2.5	/experiments/aot/R_S_pexels-rodnae-productions-5993671.mp4	0.0	157.21352124214172	
19	133.39097213745117	fix_post	2		12	17.0	2.5	/experiments/aot/R_S_pexels-rodnae-productions-5993671.mp4	0.0	158.52992820739746	0.10007190704345703
20	133.49104404449463	fix_pre	0		120	18.0	2.5	/experiments/aot/S_yt-wrfAMDCg93Y_8.mp4	0.0	158.63000011444092	0.9999759197235107
20	133.6744990348816	pulse	0	t		18.0	2.5	/experiments/aot/S_yt-wrfAMDCg93Y_8.mp4	0.0	158.81345510482788	
20	134.49101996421814	movie	1		299	18.0	2.5	/experiments/aot/S_yt-wrfAMDCg93Y_8.mp4	0.0	159.62997603416443	2.4999589920043945
20	135.2744481563568	pulse	1	t		18.0	2.5	/experiments/aot/S_yt-wrfAMDCg93Y_8.mp4	0.0	160.4134042263031	
20	136.87455010414124	pulse	1	t		18.0	2.5	/experiments/aot/S_yt-wrfAMDCg93Y_8.mp4	0.0	162.01350617408752	
20	136.99097895622253	fix_post	2		12	18.0	2.5	/experiments/aot/S_yt-wrfAMDCg93Y_8.mp4	0.0	162.12993502616882	0.09999799728393555
21	137.09097695350647	fix_pre	0		120	19.0	2.5	blank	1.0	162.22993302345276	1.0000131130218506
21	138.09099006652832	movie	1		300	19.0	2.5	blank	1.0	163.2299461364746	2.499937057495117
21	138.47446203231812	pulse	1	t		19.0	2.5	blank	1.0	163.6134181022644	
21	140.074392080307	pulse	1	t		19.0	2.5	blank	1.0	165.2133481502533	
21	140.59092712402344	fix_post	2		12	19.0	2.5	blank	1.0	165.72988319396973	0.10005497932434082
22	140.69098210334778	fix_pre	0		119	20.0	2.5	/experiments/aot/R_S_pexels-kindel-media-8165572.mp4	0.0	165.82993817329407	0.9915618896484375
22	141.6744041442871	pulse	0	t		20.0	2.5	/experiments/aot/R_S_pexels-kindel-media-8165572.mp4	0.0	166.8133602142334	
22	141.68254399299622	movie	1		168	20.0	2.5	/experiments/aot/R_S_pexels-kindel-media-8165572.mp4	0.0	166.8215000629425	2.5083940029144287
22	143.27483916282654	pulse	1	t		20.0	2.5	/experiments/aot/R_S_pexels-kindel-media-8165572.mp4	0.0	168.41379523277283	
22	144.19093799591064	fix_post	2		12	20.0	2.5	/experiments/aot/R_S_pexels-kindel-media-8165572.mp4	0.0	169.32989406585693	0.10000395774841309
23	144.29094195365906	fix_pre	0		120	21.0	2.5	/experiments/aot/S_yt-kkbtZP78JxQ_96.mp4	0.0	169.42989802360535	1.0002779960632324
23	144.87440299987793	pulse	0	t		21.0	2.5	/experiments/aot/S_yt-kkbtZP78JxQ_96.mp4	0.0	170.01335906982422	
23	145.2912199497223	movie	1		300	21.0	2.5	/experiments/aot/S_yt-kkbtZP78JxQ_96.mp4	0.0	170.43017601966858	2.499652147293091
23	146.47448706626892	pulse	1	t		21.0	2.5	/experiments/aot/S_yt-kkbtZP78JxQ_96.mp4	0.0	171.6134431362152	
23	147.79087209701538	fix_post	2		12	21.0	2.5	/experiments/aot/S_yt-kkbtZP78JxQ_96.mp4	0.0	172.92982816696167	0.10001301765441895
24	147.8908851146698	fix_pre	0		120	22.0	2.5	/experiments/aot/S_yt-R-SETZtYWaA_336.mp4	0.0	173.0298411846161	0.9999580383300781
24	148.07441997528076	pulse	0	t		22.0	2.5	/experiments/aot/S_yt-R-SETZtYWaA_336.mp4	0.0	173.21337604522705	
24	148.89084315299988	movie	1		300	22.0	2.5	/experiments/aot/S_yt-R-SETZtYWaA_336.mp4	0.0	174.02979922294617	2.5000269412994385
24	149.67442417144775	pulse	1	t		22.0	2.5	/experiments/aot/S_yt-R-SETZtYWaA_336.mp4	0.0	174.81338024139404	
24	151.27444911003113	pulse	1	t		22.0	2.5	/experiments/aot/S_yt-R-SETZtYWaA_336.mp4	0.0	176.41340517997742	
24	151.39087009429932	fix_post	2		12	22.0	2.5	/experiments/aot/S_yt-R-SETZtYWaA_336.mp4	0.0	176.5298261642456	0.10003995895385742
25	151.49091005325317	fix_pre	0		120	23.0	2.5	/experiments/aot/S__6qAy77ODUI_175.mp4	0.0	176.62986612319946	0.9999570846557617
25	152.49086713790894	movie	1		300	23.0	2.5	/experiments/aot/S__6qAy77ODUI_175.mp4	0.0	177.62982320785522	2.4999608993530273
25	152.87436509132385	pulse	1	t		23.0	2.5	/experiments/aot/S__6qAy77ODUI_175.mp4	0.0	178.01332116127014	
25	154.47445607185364	pulse	1	t		23.0	2.5	/experiments/aot/S__6qAy77ODUI_175.mp4	0.0	179.61341214179993	
25	154.99082803726196	fix_post	2		12	23.0	2.5	/experiments/aot/S__6qAy77ODUI_175.mp4	0.0	180.12978410720825	0.1000819206237793
26	155.09090995788574	fix_pre	0		119	24.0	2.5	/experiments/aot/S_yt-GaJaxp546lc_22.mp4	0.0	180.22986602783203	0.9916751384735107
26	156.07447504997253	pulse	0	t		24.0	2.5	/experiments/aot/S_yt-GaJaxp546lc_22.mp4	0.0	181.21343111991882	
26	156.08258509635925	movie	1		301	24.0	2.5	/experiments/aot/S_yt-GaJaxp546lc_22.mp4	0.0	181.22154116630554	2.508384943008423
26	157.67401003837585	pulse	1	t		24.0	2.5	/experiments/aot/S_yt-GaJaxp546lc_22.mp4	0.0	182.81296610832214	
26	158.59097003936768	fix_post	2		12	24.0	2.5	/experiments/aot/S_yt-GaJaxp546lc_22.mp4	0.0	183.72992610931396	0.09995913505554199
27	158.69092917442322	fix_pre	0		120	25.0	2.5	/experiments/aot/R_S_yt-_HuBzj8EPBc_62.mp4	0.0	183.8298852443695	1.0002458095550537
27	159.27455115318298	pulse	0	t		25.0	2.5	/experiments/aot/R_S_yt-_HuBzj8EPBc_62.mp4	0.0	184.41350722312927	
27	159.69117498397827	movie	1		300	25.0	2.5	/experiments/aot/R_S_yt-_HuBzj8EPBc_62.mp4	0.0	184.83013105392456	2.4996089935302734
27	160.87428402900696	pulse	1	t		25.0	2.5	/experiments/aot/R_S_yt-_HuBzj8EPBc_62.mp4	0.0	186.01324009895325	
27	162.19078397750854	fix_post	2		12	25.0	2.5	/experiments/aot/R_S_yt-_HuBzj8EPBc_62.mp4	0.0	187.32974004745483	0.10000801086425781
28	162.2907919883728	fix_pre	0		120	26.0	2.5	/experiments/aot/S_comp_GMT308_139K_142NC_CARIBBEAN_DAY_v09_SDR_FINAL_22062018_SDR_2K_AVC.mp4	0.0	187.4297480583191	1.0000369548797607
28	162.47434401512146	pulse	0	t		26.0	2.5	/experiments/aot/S_comp_GMT308_139K_142NC_CARIBBEAN_DAY_v09_SDR_FINAL_22062018_SDR_2K_AVC.mp4	0.0	187.61330008506775	
28	163.29082894325256	movie	1		166	26.0	2.5	/experiments/aot/S_comp_GMT308_139K_142NC_CARIBBEAN_DAY_v09_SDR_FINAL_22062018_SDR_2K_AVC.mp4	0.0	188.42978501319885	2.4999232292175293
28	164.07436800003052	pulse	1	t		26.0	2.5	/experiments/aot/S_comp_GMT308_139K_142NC_CARIBBEAN_DAY_v09_SDR_FINAL_22062018_SDR_2K_AVC.mp4	0.0	189.2133240699768	
28	165.67419409751892	pulse	1	t		26.0	2.5	/experiments/aot/S_comp_GMT308_139K_142NC_CARIBBEAN_DAY_v09_SDR_FINAL_22062018_SDR_2K_AVC.mp4	0.0	190.8131501674652	
28	165.7907521724701	fix_post	2		12	26.0	2.5	/experiments/aot/S_comp_GMT308_139K_142NC_CARIBBEAN_DAY_v09_SDR_FINAL_22062018_SDR_2K_AVC.mp4	0.0	190.92970824241638	0.0999448299407959
29	165.8906970024109	fix_pre	0		120	27.0	2.5	blank	1.0	191.02965307235718	1.0000951290130615
29	166.89079213142395	movie	1		300	27.0	2.5	blank	1.0	192.02974820137024	2.4999840259552
29	167.27425003051758	pulse	1	t		27.0	2.5	blank	1.0	192.41320610046387	
29	168.87428617477417	pulse	1	t		27.0	2.5	blank	1.0	194.01324224472046	
29	169.39077615737915	fix_post	2		12	27.0	2.5	blank	1.0	194.52973222732544	0.09996795654296875
30	169.49074411392212	fix_pre	0		119	28.0	2.5	/experiments/aot/S_yt-EvKV7iY1_HM_193.mp4	0.0	194.6297001838684	0.9918088912963867
30	170.47421407699585	pulse	0	t		28.0	2.5	/experiments/aot/S_yt-EvKV7iY1_HM_193.mp4	0.0	195.61317014694214	
30	170.4825530052185	movie	1		300	28.0	2.5	/experiments/aot/S_yt-EvKV7iY1_HM_193.mp4	0.0	195.6215090751648	2.508234977722168
30	172.0743260383606	pulse	1	t		28.0	2.5	/experiments/aot/S_yt-EvKV7iY1_HM_193.mp4	0.0	197.21328210830688	
30	172.99078798294067	fix_post	2		12	28.0	2.5	/experiments/aot/S_yt-EvKV7iY1_HM_193.mp4	0.0	198.12974405288696	0.09996318817138672
31	173.09075117111206	fix_pre	0		120	29.0	2.5	/experiments/aot/S_yt-4rwBpRuHg-c_1308.mp4	0.0	198.22970724105835	1.000025987625122
31	173.6742560863495	pulse	0	t		29.0	2.5	/experiments/aot/S_yt-4rwBpRuHg-c_1308.mp4	0.0	198.81321215629578	
31	174.09077715873718	movie	1		300	29.0	2.5	/experiments/aot/S_yt-4rwBpRuHg-c_1308.mp4	0.0	199.22973322868347	2.5000100135803223
31	175.2742440700531	pulse	1	t		29.0	2.5	/experiments/aot/S_yt-4rwBpRuHg-c_1308.mp4	0.0	200.4132001399994	
31	176.5907871723175	fix_post	2		12	29.0	2.5	/experiments/aot/S_yt-4rwBpRuHg-c_1308.mp4	0.0	201.7297432422638	0.09989380836486816
32	176.69068098068237	fix_pre	0		120	30.0	2.5	/experiments/aot/S_yt-MEfljVFL0xw_375.mp4	0.0	201.82963705062866	1.0000650882720947
32	176.87417316436768	pulse	0	t		30.0	2.5	/experiments/aot/S_yt-MEfljVFL0xw_375.mp4	0.0	202.01312923431396	
32	177.69074606895447	movie	1		300	30.0	2.5	/experiments/aot/S_yt-MEfljVFL0xw_375.mp4	0.0	202.82970213890076	2.499998092651367
32	178.47432208061218	pulse	1	t		30.0	2.5	/experiments/aot/S_yt-MEfljVFL0xw_375.mp4	0.0	203.61327815055847	
32	180.07396411895752	pulse	1	t		30.0	2.5	/experiments/aot/S_yt-MEfljVFL0xw_375.mp4	0.0	205.2129201889038	
32	180.19074416160583	fix_post	2		12	30.0	2.5	/experiments/aot/S_yt-MEfljVFL0xw_375.mp4	0.0	205.32970023155212	0.09994387626647949
33	180.29068803787231	fix_pre	0		120	31.0	2.5	/experiments/aot/R_S_ILSVRC2015_train_00743006.mp4	0.0	205.4296441078186	1.000020980834961
33	181.29070901870728	movie	1		300	31.0	2.5	/experiments/aot/R_S_ILSVRC2015_train_00743006.mp4	0.0	206.42966508865356	2.499951124191284
33	181.6741590499878	pulse	1	t		31.0	2.5	/experiments/aot/R_S_ILSVRC2015_train_00743006.mp4	0.0	206.81311511993408	
33	183.27429294586182	pulse	1	t		31.0	2.5	/experiments/aot/R_S_ILSVRC2015_train_00743006.mp4	0.0	208.4132490158081	
33	183.79066014289856	fix_post	2		12	31.0	2.5	/experiments/aot/R_S_ILSVRC2015_train_00743006.mp4	0.0	208.92961621284485	0.09996700286865234
34	183.8906271457672	fix_pre	0		119	32.0	2.5	/experiments/aot/S_yt-EuyfT0PuOoQ_91.mp4	0.0	209.0295832157135	0.9917459487915039
34	184.87435102462769	pulse	0	t		32.0	2.5	/experiments/aot/S_yt-EuyfT0PuOoQ_91.mp4	0.0	210.01330709457397	
34	184.88237309455872	movie	1		301	32.0	2.5	/experiments/aot/S_yt-EuyfT0PuOoQ_91.mp4	0.0	210.021329164505	2.5083799362182617
34	186.47419500350952	pulse	1	t		32.0	2.5	/experiments/aot/S_yt-EuyfT0PuOoQ_91.mp4	0.0	211.6131510734558	
34	187.39075303077698	fix_post	2		12	32.0	2.5	/experiments/aot/S_yt-EuyfT0PuOoQ_91.mp4	0.0	212.52970910072327	0.09987807273864746
35	187.49063110351562	fix_pre	0		120	33.0	2.5	/experiments/aot/R_S_yt-h8wy6x6oytA_25.mp4	0.0	212.6295871734619	1.0000739097595215
35	188.07419514656067	pulse	0	t		33.0	2.5	/experiments/aot/R_S_yt-h8wy6x6oytA_25.mp4	0.0	213.21315121650696	
35	188.49070501327515	movie	1		300	33.0	2.5	/experiments/aot/R_S_yt-h8wy6x6oytA_25.mp4	0.0	213.62966108322144	2.499953031539917
35	189.67421197891235	pulse	1	t		33.0	2.5	/experiments/aot/R_S_yt-h8wy6x6oytA_25.mp4	0.0	214.81316804885864	
35	190.99065804481506	fix_post	2		12	33.0	2.5	/experiments/aot/R_S_yt-h8wy6x6oytA_25.mp4	0.0	216.12961411476135	0.09992003440856934
36	191.09057807922363	fix_pre	0		120	34.0	2.5	/experiments/aot/R_S_yt-sPhtPyQM00c_106.mp4	0.0	216.22953414916992	1.0000760555267334
36	191.2740831375122	pulse	0	t		34.0	2.5	/experiments/aot/R_S_yt-sPhtPyQM00c_106.mp4	0.0	216.4130392074585	
36	192.09065413475037	movie	1		299	34.0	2.5	/experiments/aot/R_S_yt-sPhtPyQM00c_106.mp4	0.0	217.22961020469666	2.4998810291290283
36	192.8741750717163	pulse	1	t		34.0	2.5	/experiments/aot/R_S_yt-sPhtPyQM00c_106.mp4	0.0	218.0131311416626	
36	194.4745659828186	pulse	1	t		34.0	2.5	/experiments/aot/R_S_yt-sPhtPyQM00c_106.mp4	0.0	219.6135220527649	
36	194.5905351638794	fix_post	2		12	34.0	2.5	/experiments/aot/R_S_yt-sPhtPyQM00c_106.mp4	0.0	219.72949123382568	0.1001129150390625
37	194.69064807891846	fix_pre	0		120	35.0	2.5	blank	1.0	219.82960414886475	1.0000278949737549
37	195.6906759738922	movie	1		300	35.0	2.5	blank	1.0	220.8296320438385	2.499998092651367
37	196.07410407066345	pulse	1	t		35.0	2.5	blank	1.0	221.21306014060974	
37	197.67413115501404	pulse	1	t		35.0	2.5	blank	1.0	222.81308722496033	
37	198.19067406654358	fix_post	2		12	35.0	2.5	blank	1.0	223.32963013648987	0.09995794296264648
38	198.29063200950623	fix_pre	0		119	36.0	2.5	/experiments/aot/R_S_wc-jujp1kJRHrkJ_54.mp4	0.0	223.42958807945251	0.9916160106658936
38	199.27415204048157	pulse	0	t		36.0	2.5	/experiments/aot/R_S_wc-jujp1kJRHrkJ_54.mp4	0.0	224.41310811042786	
38	199.28224802017212	movie	1		301	36.0	2.5	/experiments/aot/R_S_wc-jujp1kJRHrkJ_54.mp4	0.0	224.4212040901184	2.508437156677246
38	200.8709990978241	pulse	1	t		36.0	2.5	/experiments/aot/R_S_wc-jujp1kJRHrkJ_54.mp4	0.0	226.00995516777039	
38	201.79068517684937	fix_post	2		12	36.0	2.5	/experiments/aot/R_S_wc-jujp1kJRHrkJ_54.mp4	0.0	226.92964124679565	0.09991693496704102
39	201.8906021118164	fix_pre	0		120	37.0	2.5	/experiments/aot/S_comp_CH_C002_C005_PSNK_v05_SDR_PS_FINAL_20180709_SDR_2K_AVC.mp4	0.0	227.0295581817627	1.000020980834961
39	202.47411394119263	pulse	0	t		37.0	2.5	/experiments/aot/S_comp_CH_C002_C005_PSNK_v05_SDR_PS_FINAL_20180709_SDR_2K_AVC.mp4	0.0	227.61307001113892	
39	202.89062309265137	movie	1		168	37.0	2.5	/experiments/aot/S_comp_CH_C002_C005_PSNK_v05_SDR_PS_FINAL_20180709_SDR_2K_AVC.mp4	0.0	228.02957916259766	2.499911069869995
39	204.07406401634216	pulse	1	t		37.0	2.5	/experiments/aot/S_comp_CH_C002_C005_PSNK_v05_SDR_PS_FINAL_20180709_SDR_2K_AVC.mp4	0.0	229.21302008628845	
39	205.39053416252136	fix_post	2		12	37.0	2.5	/experiments/aot/S_comp_CH_C002_C005_PSNK_v05_SDR_PS_FINAL_20180709_SDR_2K_AVC.mp4	0.0	230.52949023246765	0.10008883476257324
40	205.49062299728394	fix_pre	0		120	38.0	2.5	/experiments/aot/R_S_yt--I4Ggi6-QOE_23.mp4	0.0	230.62957906723022	0.9999289512634277
40	205.67397594451904	pulse	0	t		38.0	2.5	/experiments/aot/R_S_yt--I4Ggi6-QOE_23.mp4	0.0	230.81293201446533	
40	206.49055194854736	movie	1		300	38.0	2.5	/experiments/aot/R_S_yt--I4Ggi6-QOE_23.mp4	0.0	231.62950801849365	2.5000410079956055
40	207.27412700653076	pulse	1	t		38.0	2.5	/experiments/aot/R_S_yt--I4Ggi6-QOE_23.mp4	0.0	232.41308307647705	
40	208.8745629787445	pulse	1	t		38.0	2.5	/experiments/aot/R_S_yt--I4Ggi6-QOE_23.mp4	0.0	234.0135190486908	
40	208.99059295654297	fix_post	2		12	38.0	2.5	/experiments/aot/R_S_yt--I4Ggi6-QOE_23.mp4	0.0	234.12954902648926	0.09989500045776367
41	209.09048795700073	fix_pre	0		120	39.0	2.5	/experiments/aot/S_Pexels_Videos_2791797.mp4	0.0	234.22944402694702	1.0000669956207275
41	210.09055495262146	movie	1		164	39.0	2.5	/experiments/aot/S_Pexels_Videos_2791797.mp4	0.0	235.22951102256775	2.5000081062316895
41	210.47412395477295	pulse	1	t		39.0	2.5	/experiments/aot/S_Pexels_Videos_2791797.mp4	0.0	235.61308002471924	
41	212.07408905029297	pulse	1	t		39.0	2.5	/experiments/aot/S_Pexels_Videos_2791797.mp4	0.0	237.21304512023926	
41	212.59056305885315	fix_post	2		12	39.0	2.5	/experiments/aot/S_Pexels_Videos_2791797.mp4	0.0	237.72951912879944	0.09998893737792969
42	212.69055199623108	fix_pre	0		119	40.0	2.5	/experiments/aot/S_video_inspire_california_big-sur_landscape_054.1080-h264.mp4	0.0	237.82950806617737	0.9917080402374268
42	213.67365097999573	pulse	0	t		40.0	2.5	/experiments/aot/S_video_inspire_california_big-sur_landscape_054.1080-h264.mp4	0.0	238.81260704994202	
42	213.6822600364685	movie	1		168	40.0	2.5	/experiments/aot/S_video_inspire_california_big-sur_landscape_054.1080-h264.mp4	0.0	238.8212161064148	2.5083539485931396
42	215.27389097213745	pulse	1	t		40.0	2.5	/experiments/aot/S_video_inspire_california_big-sur_landscape_054.1080-h264.mp4	0.0	240.41284704208374	
42	216.19061398506165	fix_post	2		12	40.0	2.5	/experiments/aot/S_video_inspire_california_big-sur_landscape_054.1080-h264.mp4	0.0	241.32957005500793	0.09991717338562012
43	216.29053115844727	fix_pre	0		120	41.0	2.5	blank	1.0	241.42948722839355	0.999985933303833
43	216.87409901618958	pulse	0	t		41.0	2.5	blank	1.0	242.01305508613586	
43	217.2905170917511	movie	1		300	41.0	2.5	blank	1.0	242.4294731616974	2.5000040531158447
43	218.47399616241455	pulse	1	t		41.0	2.5	blank	1.0	243.61295223236084	
43	219.79052114486694	fix_post	2		12	41.0	2.5	blank	1.0	244.92947721481323	0.09998202323913574
44	219.89050316810608	fix_pre	0		120	42.0	2.5	/experiments/aot/R_S_yt-G_eNNzNB-hU_1.mp4	0.0	245.02945923805237	0.9999299049377441
44	220.07401394844055	pulse	0	t		42.0	2.5	/experiments/aot/R_S_yt-G_eNNzNB-hU_1.mp4	0.0	245.21297001838684	
44	220.89043307304382	movie	1		299	42.0	2.5	/experiments/aot/R_S_yt-G_eNNzNB-hU_1.mp4	0.0	246.0293891429901	2.500077962875366
44	221.67397499084473	pulse	1	t		42.0	2.5	/experiments/aot/R_S_yt-G_eNNzNB-hU_1.mp4	0.0	246.81293106079102	
44	223.27401614189148	pulse	1	t		42.0	2.5	/experiments/aot/R_S_yt-G_eNNzNB-hU_1.mp4	0.0	248.41297221183777	
44	223.3905110359192	fix_post	2		12	42.0	2.5	/experiments/aot/R_S_yt-G_eNNzNB-hU_1.mp4	0.0	248.52946710586548	0.09990096092224121
45	223.49041199684143	fix_pre	0		120	43.0	2.5	/experiments/aot/R_S_yt-sTBOjPxix5c_1072.mp4	0.0	248.62936806678772	1.000072956085205
45	224.49048495292664	movie	1		300	43.0	2.5	/experiments/aot/R_S_yt-sTBOjPxix5c_1072.mp4	0.0	249.62944102287292	2.4999840259552
45	224.8739471435547	pulse	1	t		43.0	2.5	/experiments/aot/R_S_yt-sTBOjPxix5c_1072.mp4	0.0	250.01290321350098	
45	226.47394514083862	pulse	1	t		43.0	2.5	/experiments/aot/R_S_yt-sTBOjPxix5c_1072.mp4	0.0	251.6129012107849	
45	226.99046897888184	fix_post	2		12	43.0	2.5	/experiments/aot/R_S_yt-sTBOjPxix5c_1072.mp4	0.0	252.12942504882812	0.09996318817138672
46	227.09043216705322	fix_pre	0		119	44.0	2.5	/experiments/aot/R_S_yt-VQtbKGzI9SE_431.mp4	0.0	252.2293882369995	0.9916398525238037
46	228.07395911216736	pulse	0	t		44.0	2.5	/experiments/aot/R_S_yt-VQtbKGzI9SE_431.mp4	0.0	253.21291518211365	
46	228.08207201957703	movie	1		301	44.0	2.5	/experiments/aot/R_S_yt-VQtbKGzI9SE_431.mp4	0.0	253.22102808952332	2.5083861351013184
46	229.67392706871033	pulse	1	t		44.0	2.5	/experiments/aot/R_S_yt-VQtbKGzI9SE_431.mp4	0.0	254.81288313865662	
46	230.59045815467834	fix_post	2		12	44.0	2.5	/experiments/aot/R_S_yt-VQtbKGzI9SE_431.mp4	0.0	255.72941422462463	0.10004091262817383
47	230.69049906730652	fix_pre	0		120	45.0	2.5	/experiments/aot/R_S_SE_A016_C009_SDR_20190717_SDR_2K_AVC.mp4	0.0	255.8294551372528	0.9999740123748779
47	231.27395510673523	pulse	0	t		45.0	2.5	/experiments/aot/R_S_SE_A016_C009_SDR_20190717_SDR_2K_AVC.mp4	0.0	256.4129111766815	
47	231.6904730796814	movie	1		168	45.0	2.5	/experiments/aot/R_S_SE_A016_C009_SDR_20190717_SDR_2K_AVC.mp4	0.0	256.8294291496277	2.4999969005584717
47	232.87391996383667	pulse	1	t		45.0	2.5	/experiments/aot/R_S_SE_A016_C009_SDR_20190717_SDR_2K_AVC.mp4	0.0	258.01287603378296	
47	234.19046998023987	fix_post	2		12	45.0	2.5	/experiments/aot/R_S_SE_A016_C009_SDR_20190717_SDR_2K_AVC.mp4	0.0	259.32942605018616	0.09997010231018066
48	234.29044008255005	fix_pre	0		120	46.0	2.5	/experiments/aot/R_S_yt-AbJBxqEYoMg_27.mp4	0.0	259.42939615249634	1.0000309944152832
48	234.47388696670532	pulse	0	t		46.0	2.5	/experiments/aot/R_S_yt-AbJBxqEYoMg_27.mp4	0.0	259.6128430366516	
48	235.29047107696533	movie	1		300	46.0	2.5	/experiments/aot/R_S_yt-AbJBxqEYoMg_27.mp4	0.0	260.4294271469116	2.4999539852142334
48	236.07388710975647	pulse	1	t		46.0	2.5	/experiments/aot/R_S_yt-AbJBxqEYoMg_27.mp4	0.0	261.21284317970276	
48	237.67405200004578	pulse	1	t		46.0	2.5	/experiments/aot/R_S_yt-AbJBxqEYoMg_27.mp4	0.0	262.81300806999207	
48	237.79042506217957	fix_post	2		12	46.0	2.5	/experiments/aot/R_S_yt-AbJBxqEYoMg_27.mp4	0.0	262.92938113212585	0.09999394416809082
49	237.89041900634766	fix_pre	0		120	47.0	2.5	/experiments/aot/S_wc-ujHd_fPVcSlX_10.mp4	0.0	263.02937507629395	0.9999661445617676
49	238.89038515090942	movie	1		162	47.0	2.5	/experiments/aot/S_wc-ujHd_fPVcSlX_10.mp4	0.0	264.0293412208557	2.5000529289245605
49	239.2739200592041	pulse	1	t		47.0	2.5	/experiments/aot/S_wc-ujHd_fPVcSlX_10.mp4	0.0	264.4128761291504	
49	240.87394499778748	pulse	1	t		47.0	2.5	/experiments/aot/S_wc-ujHd_fPVcSlX_10.mp4	0.0	266.01290106773376	
49	241.39043807983398	fix_post	2		12	47.0	2.5	/experiments/aot/S_wc-ujHd_fPVcSlX_10.mp4	0.0	266.5293941497803	0.10000801086425781
50	241.49044609069824	fix_pre	0		119	48.0	2.5	/experiments/aot/R_S_pexels-cottonbro-5310858.mp4	0.0	266.62940216064453	0.991569995880127
50	242.47381210327148	pulse	0	t		48.0	2.5	/experiments/aot/R_S_pexels-cottonbro-5310858.mp4	0.0	267.6127681732178	
50	242.48201608657837	movie	1		168	48.0	2.5	/experiments/aot/R_S_pexels-cottonbro-5310858.mp4	0.0	267.62097215652466	2.5083420276641846
50	244.0746030807495	pulse	1	t		48.0	2.5	/experiments/aot/R_S_pexels-cottonbro-5310858.mp4	0.0	269.2135591506958	
50	244.99035811424255	fix_post	2		12	48.0	2.5	/experiments/aot/R_S_pexels-cottonbro-5310858.mp4	0.0	270.12931418418884	0.09995102882385254
51	245.0903091430664	fix_pre	0		120	49.0	2.5	blank	1.0	270.2292652130127	1.0000548362731934
51	245.67377400398254	pulse	0	t		49.0	2.5	blank	1.0	270.81273007392883	
51	246.0903639793396	movie	1		300	49.0	2.5	blank	1.0	271.2293200492859	2.4999611377716064
51	247.27382016181946	pulse	1	t		49.0	2.5	blank	1.0	272.41277623176575	
51	248.5903251171112	fix_post	2		12	49.0	2.5	blank	1.0	273.7292811870575	0.09998583793640137
52	248.6903109550476	fix_pre	0		120	50.0	2.5	/experiments/aot/R_S_yt-kYMffy4hTMo_107.mp4	0.0	273.8292670249939	1.0000331401824951
52	248.87387609481812	pulse	0	t		50.0	2.5	/experiments/aot/R_S_yt-kYMffy4hTMo_107.mp4	0.0	274.0128321647644	
52	249.6903440952301	movie	1		300	50.0	2.5	/experiments/aot/R_S_yt-kYMffy4hTMo_107.mp4	0.0	274.8293001651764	2.499992847442627
52	250.47384095191956	pulse	1	t		50.0	2.5	/experiments/aot/R_S_yt-kYMffy4hTMo_107.mp4	0.0	275.61279702186584	
52	252.07332706451416	pulse	1	t		50.0	2.5	/experiments/aot/R_S_yt-kYMffy4hTMo_107.mp4	0.0	277.21228313446045	
52	252.19033694267273	fix_post	2		12	50.0	2.5	/experiments/aot/R_S_yt-kYMffy4hTMo_107.mp4	0.0	277.329293012619	0.09998917579650879
53	252.29032611846924	fix_pre	0		120	51.0	2.5	/experiments/aot/S_yt-ebzrQh5ErI4_3.mp4	0.0	277.4292821884155	1.0000419616699219
53	253.29036808013916	movie	1		300	51.0	2.5	/experiments/aot/S_yt-ebzrQh5ErI4_3.mp4	0.0	278.42932415008545	2.4999730587005615
53	253.6737780570984	pulse	1	t		51.0	2.5	/experiments/aot/S_yt-ebzrQh5ErI4_3.mp4	0.0	278.8127341270447	
53	255.2737591266632	pulse	1	t		51.0	2.5	/experiments/aot/S_yt-ebzrQh5ErI4_3.mp4	0.0	280.4127151966095	
53	255.79034113883972	fix_post	2		12	51.0	2.5	/experiments/aot/S_yt-ebzrQh5ErI4_3.mp4	0.0	280.929297208786	0.09996485710144043
54	255.89030599594116	fix_pre	0		119	52.0	2.5	/experiments/aot/R_S_production_ID_3923518.mp4	0.0	281.02926206588745	0.9916491508483887
54	256.873761177063	pulse	0	t		52.0	2.5	/experiments/aot/R_S_production_ID_3923518.mp4	0.0	282.0127172470093	
54	256.88195514678955	movie	1		164	52.0	2.5	/experiments/aot/R_S_production_ID_3923518.mp4	0.0	282.02091121673584	2.5083107948303223
54	258.47372794151306	pulse	1	t		52.0	2.5	/experiments/aot/R_S_production_ID_3923518.mp4	0.0	283.61268401145935	
54	259.3902659416199	fix_post	2		12	52.0	2.5	/experiments/aot/R_S_production_ID_3923518.mp4	0.0	284.52922201156616	0.10001707077026367
55	259.49028301239014	fix_pre	0		120	53.0	2.5	/experiments/aot/S_yt-r7brAHgxZSU_248.mp4	0.0	284.6292390823364	0.9999880790710449
55	260.0738079547882	pulse	0	t		53.0	2.5	/experiments/aot/S_yt-r7brAHgxZSU_248.mp4	0.0	285.2127640247345	
55	260.4902710914612	movie	1		300	53.0	2.5	/experiments/aot/S_yt-r7brAHgxZSU_248.mp4	0.0	285.62922716140747	2.5000240802764893
55	261.67388010025024	pulse	1	t		53.0	2.5	/experiments/aot/S_yt-r7brAHgxZSU_248.mp4	0.0	286.81283617019653	
55	262.99029517173767	fix_post	2		12	53.0	2.5	/experiments/aot/S_yt-r7brAHgxZSU_248.mp4	0.0	288.12925124168396	0.09994387626647949
56	263.09023904800415	fix_pre	0		120	54.0	2.5	/experiments/aot/S_yt-4sSV4iIs8gQ_55.mp4	0.0	288.22919511795044	1.0000190734863281
56	263.2737629413605	pulse	0	t		54.0	2.5	/experiments/aot/S_yt-4sSV4iIs8gQ_55.mp4	0.0	288.41271901130676	
56	264.0902581214905	movie	1		299	54.0	2.5	/experiments/aot/S_yt-4sSV4iIs8gQ_55.mp4	0.0	289.22921419143677	2.4999518394470215
56	264.8738069534302	pulse	1	t		54.0	2.5	/experiments/aot/S_yt-4sSV4iIs8gQ_55.mp4	0.0	290.01276302337646	
56	266.4743001461029	pulse	1	t		54.0	2.5	/experiments/aot/S_yt-4sSV4iIs8gQ_55.mp4	0.0	291.6132562160492	
56	266.5902099609375	fix_post	2		12	54.0	2.5	/experiments/aot/S_yt-4sSV4iIs8gQ_55.mp4	0.0	291.7291660308838	0.10010504722595215
57	266.69031500816345	fix_pre	0		120	55.0	2.5	blank	1.0	291.82927107810974	1.0000381469726562
57	267.6903531551361	movie	1		300	55.0	2.5	blank	1.0	292.8293092250824	2.499997854232788
57	268.0737421512604	pulse	1	t		55.0	2.5	blank	1.0	293.21269822120667	
57	269.6733350753784	pulse	1	t		55.0	2.5	blank	1.0	294.8122911453247	
57	270.1903510093689	fix_post	2		12	55.0	2.5	blank	1.0	295.3293070793152	0.0999901294708252
58	270.2903411388397	fix_pre	0		119	56.0	2.5	/experiments/aot/S_yt-eF5J5Kjt6oY_23.mp4	0.0	295.429297208786	0.9918568134307861
58	271.2740430831909	pulse	0	t		56.0	2.5	/experiments/aot/S_yt-eF5J5Kjt6oY_23.mp4	0.0	296.4129991531372	
58	271.2821979522705	movie	1		301	56.0	2.5	/experiments/aot/S_yt-eF5J5Kjt6oY_23.mp4	0.0	296.4211540222168	2.508047103881836
58	272.8737790584564	pulse	1	t		56.0	2.5	/experiments/aot/S_yt-eF5J5Kjt6oY_23.mp4	0.0	298.0127351284027	
58	273.79024505615234	fix_post	2		12	56.0	2.5	/experiments/aot/S_yt-eF5J5Kjt6oY_23.mp4	0.0	298.92920112609863	0.09997010231018066
59	273.8902151584625	fix_pre	0		120	57.0	2.5	/experiments/aot/R_S_yt-2V2tq9-O_Nc_1669.mp4	0.0	299.0291712284088	1.000006914138794
59	274.4737169742584	pulse	0	t		57.0	2.5	/experiments/aot/R_S_yt-2V2tq9-O_Nc_1669.mp4	0.0	299.6126730442047	
59	274.8902220726013	movie	1		300	57.0	2.5	/experiments/aot/R_S_yt-2V2tq9-O_Nc_1669.mp4	0.0	300.0291781425476	2.4999449253082275
59	276.0736560821533	pulse	1	t		57.0	2.5	/experiments/aot/R_S_yt-2V2tq9-O_Nc_1669.mp4	0.0	301.2126121520996	
59	277.39016699790955	fix_post	2		12	57.0	2.5	/experiments/aot/R_S_yt-2V2tq9-O_Nc_1669.mp4	0.0	302.52912306785583	0.0999460220336914
60	277.49011301994324	fix_pre	0		120	58.0	2.5	/experiments/aot/S_yt-Ub5Xx5BqIOk_74.mp4	0.0	302.6290690898895	0.9999871253967285
60	277.6736011505127	pulse	0	t		58.0	2.5	/experiments/aot/S_yt-Ub5Xx5BqIOk_74.mp4	0.0	302.812557220459	
60	278.49010014533997	movie	1		299	58.0	2.5	/experiments/aot/S_yt-Ub5Xx5BqIOk_74.mp4	0.0	303.62905621528625	2.500063896179199
60	279.27362298965454	pulse	1	t		58.0	2.5	/experiments/aot/S_yt-Ub5Xx5BqIOk_74.mp4	0.0	304.41257905960083	
60	280.87321615219116	pulse	1	t		58.0	2.5	/experiments/aot/S_yt-Ub5Xx5BqIOk_74.mp4	0.0	306.01217222213745	
60	280.99016404151917	fix_post	2		12	58.0	2.5	/experiments/aot/S_yt-Ub5Xx5BqIOk_74.mp4	0.0	306.12912011146545	0.09992313385009766
61	281.09008717536926	fix_pre	0		120	59.0	2.5	/experiments/aot/R_S_yt-R9Iabv0XgOQ_80.mp4	0.0	306.22904324531555	1.0000839233398438
61	282.0901710987091	movie	1		300	59.0	2.5	/experiments/aot/R_S_yt-R9Iabv0XgOQ_80.mp4	0.0	307.2291271686554	2.4999959468841553
61	282.4736349582672	pulse	1	t		59.0	2.5	/experiments/aot/R_S_yt-R9Iabv0XgOQ_80.mp4	0.0	307.6125910282135	
61	284.0735430717468	pulse	1	t		59.0	2.5	/experiments/aot/R_S_yt-R9Iabv0XgOQ_80.mp4	0.0	309.2124991416931	
61	284.59016704559326	fix_post	2		12	59.0	2.5	/experiments/aot/R_S_yt-R9Iabv0XgOQ_80.mp4	0.0	309.72912311553955	0.0999441146850586
62	284.6901111602783	fix_pre	0		119	60.0	2.5	/experiments/aot/R_S_yt-nMWqezngycw_10.mp4	0.0	309.8290672302246	0.9916520118713379
62	285.67352414131165	pulse	0	t		60.0	2.5	/experiments/aot/R_S_yt-nMWqezngycw_10.mp4	0.0	310.81248021125793	
62	285.68176317214966	movie	1		301	60.0	2.5	/experiments/aot/R_S_yt-nMWqezngycw_10.mp4	0.0	310.82071924209595	2.5083649158477783
62	287.2738161087036	pulse	1	t		60.0	2.5	/experiments/aot/R_S_yt-nMWqezngycw_10.mp4	0.0	312.4127721786499	
62	288.19012808799744	fix_post	2		12	60.0	2.5	/experiments/aot/R_S_yt-nMWqezngycw_10.mp4	0.0	313.3290841579437	0.0995938777923584
63	288.2897219657898	fix_pre	0		120	61.0	2.5	/experiments/aot/S_ILSVRC2015_train_00165009.mp4	0.0	313.4286780357361	1.0003631114959717
63	288.8736560344696	pulse	0	t		61.0	2.5	/experiments/aot/S_ILSVRC2015_train_00165009.mp4	0.0	314.0126121044159	
63	289.29008507728577	movie	1		299	61.0	2.5	/experiments/aot/S_ILSVRC2015_train_00165009.mp4	0.0	314.42904114723206	2.5000150203704834
63	290.4736080169678	pulse	1	t		61.0	2.5	/experiments/aot/S_ILSVRC2015_train_00165009.mp4	0.0	315.61256408691406	
63	291.79010009765625	fix_post	2		12	61.0	2.5	/experiments/aot/S_ILSVRC2015_train_00165009.mp4	0.0	316.92905616760254	0.09999299049377441
64	291.89009308815	fix_pre	0		120	62.0	2.5	/experiments/aot/R_S_yt-lfDIg8kaXhA_169.mp4	0.0	317.0290491580963	1.0000050067901611
64	292.0735991001129	pulse	0	t		62.0	2.5	/experiments/aot/R_S_yt-lfDIg8kaXhA_169.mp4	0.0	317.2125551700592	
64	292.8900980949402	movie	1		300	62.0	2.5	/experiments/aot/R_S_yt-lfDIg8kaXhA_169.mp4	0.0	318.0290541648865	2.5000550746917725
64	293.673593044281	pulse	1	t		62.0	2.5	/experiments/aot/R_S_yt-lfDIg8kaXhA_169.mp4	0.0	318.8125491142273	
64	295.27362394332886	pulse	1	t		62.0	2.5	/experiments/aot/R_S_yt-lfDIg8kaXhA_169.mp4	0.0	320.41258001327515	
64	295.39015316963196	fix_post	2		12	62.0	2.5	/experiments/aot/R_S_yt-lfDIg8kaXhA_169.mp4	0.0	320.52910923957825	0.09995293617248535
65	295.49010610580444	fix_pre	0		120	63.0	2.5	blank	1.0	320.62906217575073	0.9999499320983887
65	296.49005603790283	movie	1		300	63.0	2.5	blank	1.0	321.6290121078491	2.5001120567321777
65	296.8736171722412	pulse	1	t		63.0	2.5	blank	1.0	322.0125732421875	
65	298.47351002693176	pulse	1	t		63.0	2.5	blank	1.0	323.61246609687805	
65	298.990168094635	fix_post	2		12	63.0	2.5	blank	1.0	324.1291241645813	0.10001897811889648
66	299.0901870727539	fix_pre	0		119	64.0	2.5	/experiments/aot/S_yt-Pc1ZlCvsPpc_5.mp4	0.0	324.2291431427002	0.9915719032287598
66	300.0735111236572	pulse	0	t		64.0	2.5	/experiments/aot/S_yt-Pc1ZlCvsPpc_5.mp4	0.0	325.2124671936035	
66	300.08175897598267	movie	1		301	64.0	2.5	/experiments/aot/S_yt-Pc1ZlCvsPpc_5.mp4	0.0	325.22071504592896	2.50832200050354
66	301.6736171245575	pulse	1	t		64.0	2.5	/experiments/aot/S_yt-Pc1ZlCvsPpc_5.mp4	0.0	326.8125731945038	
66	302.5900809764862	fix_post	2		12	64.0	2.5	/experiments/aot/S_yt-Pc1ZlCvsPpc_5.mp4	0.0	327.7290370464325	0.09999418258666992
67	302.6900751590729	fix_pre	0		120	65.0	2.5	/experiments/aot/S_yt-EBuE7GbFw7U_180.mp4	0.0	327.82903122901917	0.9998807907104492
67	303.27351212501526	pulse	0	t		65.0	2.5	/experiments/aot/S_yt-EBuE7GbFw7U_180.mp4	0.0	328.41246819496155	
67	303.6899559497833	movie	1		300	65.0	2.5	/experiments/aot/S_yt-EBuE7GbFw7U_180.mp4	0.0	328.8289120197296	2.50004506111145
67	304.87348103523254	pulse	1	t		65.0	2.5	/experiments/aot/S_yt-EBuE7GbFw7U_180.mp4	0.0	330.01243710517883	
67	306.1900010108948	fix_post	2		12	65.0	2.5	/experiments/aot/S_yt-EBuE7GbFw7U_180.mp4	0.0	331.32895708084106	0.09996914863586426
68	306.28997015953064	fix_pre	0		120	66.0	2.5	/experiments/aot/R_S_yt-etQaTgGOhR4_69.mp4	0.0	331.42892622947693	1.0000197887420654
68	306.4734570980072	pulse	0	t		66.0	2.5	/experiments/aot/R_S_yt-etQaTgGOhR4_69.mp4	0.0	331.6124131679535	
68	307.2899899482727	movie	1		300	66.0	2.5	/experiments/aot/R_S_yt-etQaTgGOhR4_69.mp4	0.0	332.428946018219	2.499979019165039
68	308.07345509529114	pulse	1	t		66.0	2.5	/experiments/aot/R_S_yt-etQaTgGOhR4_69.mp4	0.0	333.2124111652374	
68	309.67302203178406	pulse	1	t		66.0	2.5	/experiments/aot/R_S_yt-etQaTgGOhR4_69.mp4	0.0	334.81197810173035	
68	309.78996896743774	fix_post	2		12	66.0	2.5	/experiments/aot/R_S_yt-etQaTgGOhR4_69.mp4	0.0	334.92892503738403	0.0999600887298584
69	309.8899290561676	fix_pre	0		120	67.0	2.5	/experiments/aot/R_S_yt-HFiRYTnMZxE_338.mp4	0.0	335.0288851261139	1.0000360012054443
69	310.88996505737305	movie	1		300	67.0	2.5	/experiments/aot/R_S_yt-HFiRYTnMZxE_338.mp4	0.0	336.02892112731934	2.4999759197235107
69	311.2735290527344	pulse	1	t		67.0	2.5	/experiments/aot/R_S_yt-HFiRYTnMZxE_338.mp4	0.0	336.41248512268066	
69	312.87349915504456	pulse	1	t		67.0	2.5	/experiments/aot/R_S_yt-HFiRYTnMZxE_338.mp4	0.0	338.01245522499084	
69	313.38994097709656	fix_post	2		12	67.0	2.5	/experiments/aot/R_S_yt-HFiRYTnMZxE_338.mp4	0.0	338.52889704704285	0.09999608993530273
70	313.48993706703186	fix_pre	0		119	68.0	2.5	/experiments/aot/S_yt-AbJBxqEYoMg_27.mp4	0.0	338.62889313697815	0.9916269779205322
70	314.47348499298096	pulse	0	t		68.0	2.5	/experiments/aot/S_yt-AbJBxqEYoMg_27.mp4	0.0	339.61244106292725	
70	314.4815640449524	movie	1		301	68.0	2.5	/experiments/aot/S_yt-AbJBxqEYoMg_27.mp4	0.0	339.6205201148987	2.5083260536193848
70	316.0734670162201	pulse	1	t		68.0	2.5	/experiments/aot/S_yt-AbJBxqEYoMg_27.mp4	0.0	341.2124230861664	
70	316.9898900985718	fix_post	2		12	68.0	2.5	/experiments/aot/S_yt-AbJBxqEYoMg_27.mp4	0.0	342.12884616851807	0.10007691383361816
71	317.0899670124054	fix_pre	0		120	69.0	2.5	/experiments/aot/S_ILSVRC2015_train_00417000.mp4	0.0	342.2289230823517	1.0000190734863281
71	317.67349195480347	pulse	0	t		69.0	2.5	/experiments/aot/S_ILSVRC2015_train_00417000.mp4	0.0	342.81244802474976	
71	318.0899860858917	movie	1		300	69.0	2.5	/experiments/aot/S_ILSVRC2015_train_00417000.mp4	0.0	343.228942155838	2.4999260902404785
71	319.273442029953	pulse	1	t		69.0	2.5	/experiments/aot/S_ILSVRC2015_train_00417000.mp4	0.0	344.4123980998993	
71	320.5899121761322	fix_post	2		12	69.0	2.5	/experiments/aot/S_ILSVRC2015_train_00417000.mp4	0.0	345.7288682460785	0.10001993179321289
72	320.6899321079254	fix_pre	0		120	70.0	2.5	blank	1.0	345.8288881778717	1.0000839233398438
72	320.8734230995178	pulse	0	t		70.0	2.5	blank	1.0	346.0123791694641	
72	321.69001603126526	movie	1		300	70.0	2.5	blank	1.0	346.82897210121155	2.499948024749756
72	322.47351002693176	pulse	1	t		70.0	2.5	blank	1.0	347.61246609687805	
72	324.0735881328583	pulse	1	t		70.0	2.5	blank	1.0	349.21254420280457	
72	324.189964056015	fix_post	2		12	70.0	2.5	blank	1.0	349.3289201259613	0.09954190254211426
73	324.28950595855713	fix_pre	0		120	71.0	2.5	/experiments/aot/S_yt-UzWRbs9Syf4_7.mp4	0.0	349.4284620285034	1.0004069805145264
73	325.28991293907166	movie	1		298	71.0	2.5	/experiments/aot/S_yt-UzWRbs9Syf4_7.mp4	0.0	350.42886900901794	2.500028133392334
73	325.67299604415894	pulse	1	t		71.0	2.5	/experiments/aot/S_yt-UzWRbs9Syf4_7.mp4	0.0	350.8119521141052	
73	327.2733099460602	pulse	1	t		71.0	2.5	/experiments/aot/S_yt-UzWRbs9Syf4_7.mp4	0.0	352.41226601600647	
73	327.789941072464	fix_post	2		12	71.0	2.5	/experiments/aot/S_yt-UzWRbs9Syf4_7.mp4	0.0	352.9288971424103	0.0998680591583252
74	327.8898091316223	fix_pre	0		119	72.0	2.5	/experiments/aot/S_pexels-laker-5793000.mp4	0.0	353.0287652015686	0.991757869720459
74	328.87350702285767	pulse	0	t		72.0	2.5	/experiments/aot/S_pexels-laker-5793000.mp4	0.0	354.01246309280396	
74	328.8815670013428	movie	1		165	72.0	2.5	/experiments/aot/S_pexels-laker-5793000.mp4	0.0	354.02052307128906	2.5082950592041016
74	330.4745440483093	pulse	1	t		72.0	2.5	/experiments/aot/S_pexels-laker-5793000.mp4	0.0	355.6135001182556	
74	331.3898620605469	fix_post	2		12	72.0	2.5	/experiments/aot/S_pexels-laker-5793000.mp4	0.0	356.52881813049316	0.10007500648498535
75	331.48993706703186	fix_pre	0		120	73.0	2.5	/experiments/aot/S_yt-HFiRYTnMZxE_338.mp4	0.0	356.62889313697815	0.9998989105224609
75	332.07337403297424	pulse	0	t		73.0	2.5	/experiments/aot/S_yt-HFiRYTnMZxE_338.mp4	0.0	357.21233010292053	
75	332.4898359775543	movie	1		300	73.0	2.5	/experiments/aot/S_yt-HFiRYTnMZxE_338.mp4	0.0	357.6287920475006	2.500025987625122
75	333.67333006858826	pulse	1	t		73.0	2.5	/experiments/aot/S_yt-HFiRYTnMZxE_338.mp4	0.0	358.81228613853455	
75	334.98986196517944	fix_post	2		12	73.0	2.5	/experiments/aot/S_yt-HFiRYTnMZxE_338.mp4	0.0	360.12881803512573	0.09994220733642578
76	335.08980417251587	fix_pre	0		120	74.0	2.5	/experiments/aot/S_ILSVRC2015_train_00165012.mp4	0.0	360.22876024246216	1.0000247955322266
76	335.27327609062195	pulse	0	t		74.0	2.5	/experiments/aot/S_ILSVRC2015_train_00165012.mp4	0.0	360.41223216056824	
76	336.0898289680481	movie	1		300	74.0	2.5	/experiments/aot/S_ILSVRC2015_train_00165012.mp4	0.0	361.2287850379944	2.4999561309814453
76	336.8732969760895	pulse	1	t		74.0	2.5	/experiments/aot/S_ILSVRC2015_train_00165012.mp4	0.0	362.01225304603577	
76	338.47347807884216	pulse	1	t		74.0	2.5	/experiments/aot/S_ILSVRC2015_train_00165012.mp4	0.0	363.61243414878845	
76	338.58978509902954	fix_post	2		12	74.0	2.5	/experiments/aot/S_ILSVRC2015_train_00165012.mp4	0.0	363.72874116897583	0.10004901885986328
77	338.6898341178894	fix_pre	0		120	75.0	2.5	blank	1.0	363.8287901878357	0.9999630451202393
77	339.68979716300964	movie	1		300	75.0	2.5	blank	1.0	364.82875323295593	2.4996159076690674
77	340.0733711719513	pulse	1	t		75.0	2.5	blank	1.0	365.2123272418976	
77	341.67326617240906	pulse	1	t		75.0	2.5	blank	1.0	366.81222224235535	
77	342.1894130706787	fix_post	2		12	75.0	2.5	blank	1.0	367.328369140625	0.10036492347717285
78	342.2897779941559	fix_pre	0		119	76.0	2.5	/experiments/aot/R_S_video-2_copy.mp4	0.0	367.4287340641022	0.9916679859161377
78	343.2732939720154	pulse	0	t		76.0	2.5	/experiments/aot/R_S_video-2_copy.mp4	0.0	368.41225004196167	
78	343.281445980072	movie	1		167	76.0	2.5	/experiments/aot/R_S_video-2_copy.mp4	0.0	368.4204020500183	2.5083141326904297
78	344.8730390071869	pulse	1	t		76.0	2.5	/experiments/aot/R_S_video-2_copy.mp4	0.0	370.0119950771332	
78	345.78976011276245	fix_post	2		12	76.0	2.5	/experiments/aot/R_S_video-2_copy.mp4	0.0	370.92871618270874	0.10006093978881836
79	345.88982105255127	fix_pre	0		120	77.0	2.5	/experiments/aot/R_S_ILnEDG_aP1A_35.mp4	0.0	371.02877712249756	1.0000290870666504
79	346.4732961654663	pulse	0	t		77.0	2.5	/experiments/aot/R_S_ILnEDG_aP1A_35.mp4	0.0	371.6122522354126	
79	346.8898501396179	movie	1		300	77.0	2.5	/experiments/aot/R_S_ILnEDG_aP1A_35.mp4	0.0	372.0288062095642	2.4999279975891113
79	348.07329201698303	pulse	1	t		77.0	2.5	/experiments/aot/R_S_ILnEDG_aP1A_35.mp4	0.0	373.2122480869293	
79	349.38977813720703	fix_post	2		12	77.0	2.5	/experiments/aot/R_S_ILnEDG_aP1A_35.mp4	0.0	374.5287342071533	0.09996891021728516
80	349.4897470474243	fix_pre	0		120	78.0	2.5	/experiments/aot/R_S_PA_A004_C003_SDR_20190719_SDR_2K_AVC.mp4	0.0	374.6287031173706	0.9999570846557617
80	349.6732511520386	pulse	0	t		78.0	2.5	/experiments/aot/R_S_PA_A004_C003_SDR_20190719_SDR_2K_AVC.mp4	0.0	374.81220722198486	
80	350.4897041320801	movie	1		170	78.0	2.5	/experiments/aot/R_S_PA_A004_C003_SDR_20190719_SDR_2K_AVC.mp4	0.0	375.62866020202637	2.4996109008789062
80	351.27329111099243	pulse	1	t		78.0	2.5	/experiments/aot/R_S_PA_A004_C003_SDR_20190719_SDR_2K_AVC.mp4	0.0	376.4122471809387	
80	352.8731641769409	pulse	1	t		78.0	2.5	/experiments/aot/R_S_PA_A004_C003_SDR_20190719_SDR_2K_AVC.mp4	0.0	378.0121202468872	
80	352.989315032959	fix_post	2		12	78.0	2.5	/experiments/aot/R_S_PA_A004_C003_SDR_20190719_SDR_2K_AVC.mp4	0.0	378.1282711029053	0.10047101974487305
81	353.08978605270386	fix_pre	0		120	79.0	2.5	/experiments/aot/R_S_yt-ycfVJyrFgB4_15.mp4	0.0	378.22874212265015	0.9995300769805908
81	354.08931612968445	movie	1		300	79.0	2.5	/experiments/aot/R_S_yt-ycfVJyrFgB4_15.mp4	0.0	379.22827219963074	2.500438928604126
81	354.47318506240845	pulse	1	t		79.0	2.5	/experiments/aot/R_S_yt-ycfVJyrFgB4_15.mp4	0.0	379.61214113235474	
81	356.0731911659241	pulse	1	t		79.0	2.5	/experiments/aot/R_S_yt-ycfVJyrFgB4_15.mp4	0.0	381.21214723587036	
81	356.5897550582886	fix_post	2		12	79.0	2.5	/experiments/aot/R_S_yt-ycfVJyrFgB4_15.mp4	0.0	381.72871112823486	0.09993410110473633
82	356.6896891593933	fix_pre	0		119	80.0	2.5	/experiments/aot/S_flickr-southeasternstar-3464778323_10.mp4	0.0	381.8286452293396	0.9917349815368652
82	357.67318201065063	pulse	0	t		80.0	2.5	/experiments/aot/S_flickr-southeasternstar-3464778323_10.mp4	0.0	382.8121380805969	
82	357.6814241409302	movie	1		301	80.0	2.5	/experiments/aot/S_flickr-southeasternstar-3464778323_10.mp4	0.0	382.82038021087646	2.508333921432495
82	359.2731890678406	pulse	1	t		80.0	2.5	/experiments/aot/S_flickr-southeasternstar-3464778323_10.mp4	0.0	384.41214513778687	
82	360.18975806236267	fix_post	2		12	80.0	2.5	/experiments/aot/S_flickr-southeasternstar-3464778323_10.mp4	0.0	385.32871413230896	0.09995794296264648
83	360.2897160053253	fix_pre	0		120	81.0	2.5	/experiments/aot/S_3WAnGcPubBY_143.mp4	0.0	385.4286720752716	1.000020980834961
83	360.8731391429901	pulse	0	t		81.0	2.5	/experiments/aot/S_3WAnGcPubBY_143.mp4	0.0	386.0120952129364	
83	361.2897369861603	movie	1		300	81.0	2.5	/experiments/aot/S_3WAnGcPubBY_143.mp4	0.0	386.42869305610657	2.5000059604644775
83	362.47317695617676	pulse	1	t		81.0	2.5	/experiments/aot/S_3WAnGcPubBY_143.mp4	0.0	387.61213302612305	
83	363.78974294662476	fix_post	2		12	81.0	2.5	/experiments/aot/S_3WAnGcPubBY_143.mp4	0.0	388.92869901657104	0.10000014305114746
84	363.8897430896759	fix_pre	0		120	82.0	2.5	/experiments/aot/R_S_yt-VfASxEzDrvc_145.mp4	0.0	389.0286991596222	0.9999589920043945
84	364.0731899738312	pulse	0	t		82.0	2.5	/experiments/aot/R_S_yt-VfASxEzDrvc_145.mp4	0.0	389.21214604377747	
84	364.8897020816803	movie	1		300	82.0	2.5	/experiments/aot/R_S_yt-VfASxEzDrvc_145.mp4	0.0	390.0286581516266	2.4999818801879883
84	365.6731150150299	pulse	1	t		82.0	2.5	/experiments/aot/R_S_yt-VfASxEzDrvc_145.mp4	0.0	390.8120710849762	
84	367.27366399765015	pulse	1	t		82.0	2.5	/experiments/aot/R_S_yt-VfASxEzDrvc_145.mp4	0.0	392.41262006759644	
84	367.3896839618683	fix_post	2		12	82.0	2.5	/experiments/aot/R_S_yt-VfASxEzDrvc_145.mp4	0.0	392.5286400318146	0.09995412826538086
85	367.48963809013367	fix_pre	0		120	83.0	2.5	blank	1.0	392.62859416007996	1.0000519752502441
85	368.4896900653839	movie	1		300	83.0	2.5	blank	1.0	393.6286461353302	2.5000619888305664
85	368.8731231689453	pulse	1	t		83.0	2.5	blank	1.0	394.0120792388916	
85	370.4730851650238	pulse	1	t		83.0	2.5	blank	1.0	395.6120412349701	
85	370.9897520542145	fix_post	2		12	83.0	2.5	blank	1.0	396.12870812416077	0.09983706474304199
87	371.0895891189575	stim	0		1716					396.2285451889038	14.300029993057251
87	372.0731041431427	pulse	0	t						397.212060213089	
87	373.6730921268463	pulse	0	t						398.8120481967926	
87	375.27304315567017	pulse	0	t						400.41199922561646	
87	376.8731770515442	pulse	0	t						402.0121331214905	
87	378.47317910194397	pulse	0	t						403.61213517189026	
87	380.0726339817047	pulse	0	t						405.211590051651	
87	381.67316913604736	pulse	0	t						406.81212520599365	
87	383.27293395996094	pulse	0	t						408.4118900299072	
87	384.87305998802185	pulse	0	t						410.01201605796814	
