trial_nr	onset	event_type	phase	response	nr_frames	movie_index	movie_duration	movie_file	blank	onset_abs	duration
0	0.14948296546936035	stim	0		102					23.457725048065186	0.85036301612854
0	0.9917600154876709	response	0	space						24.300002098083496	
1	0.9998459815979004	stim	0		4545					24.308088064193726	37.87483811378479
1	38.86368799209595	pulse	0	t						62.17193007469177	
1	38.87468409538269	stim	1		1717					62.182926177978516	14.308303833007812
1	40.45822095870972	pulse	1	t						63.76646304130554	
1	42.0582320690155	pulse	1	t						65.36647415161133	
1	43.658204078674316	pulse	1	t						66.96644616127014	
1	45.2582950592041	pulse	1	t						68.56653714179993	
1	46.85811805725098	pulse	1	t						70.1663601398468	
1	48.45816493034363	pulse	1	t						71.76640701293945	
1	50.05814504623413	pulse	1	t						73.36638712882996	
1	51.658167123794556	pulse	1	t						74.96640920639038	
2	53.1829879283905	fix_pre	0		10	0.0	2.5	/experiments/aot/S_ILSVRC2015_train_00425000.mp4	0.0	76.49123001098633	0.08328008651733398
2	53.2581250667572	pulse	0	t		0.0	2.5	/experiments/aot/S_ILSVRC2015_train_00425000.mp4	0.0	76.56636714935303	
2	53.26626801490784	movie	1		299	0.0	2.5	/experiments/aot/S_ILSVRC2015_train_00425000.mp4	0.0	76.57451009750366	2.5083789825439453
2	54.85817790031433	pulse	1	t		0.0	2.5	/experiments/aot/S_ILSVRC2015_train_00425000.mp4	0.0	78.16641998291016	
2	55.77464699745178	fix_post	2		12	0.0	2.5	/experiments/aot/S_ILSVRC2015_train_00425000.mp4	0.0	79.08288908004761	0.10001492500305176
3	55.874661922454834	fix_pre	0		120	1.0	2.5	/experiments/aot/R_S_flickr-southeasternstar-3464778323_10.mp4	0.0	79.18290400505066	1.000035047531128
3	56.45812106132507	pulse	0	t		1.0	2.5	/experiments/aot/R_S_flickr-southeasternstar-3464778323_10.mp4	0.0	79.7663631439209	
3	56.87469696998596	movie	1		300	1.0	2.5	/experiments/aot/R_S_flickr-southeasternstar-3464778323_10.mp4	0.0	80.18293905258179	2.4999711513519287
3	58.05811595916748	pulse	1	t		1.0	2.5	/experiments/aot/R_S_flickr-southeasternstar-3464778323_10.mp4	0.0	81.3663580417633	
3	59.37466812133789	fix_post	2		12	1.0	2.5	/experiments/aot/R_S_flickr-southeasternstar-3464778323_10.mp4	0.0	82.68291020393372	0.10000991821289062
4	59.47467803955078	fix_pre	0		120	2.0	2.5	/experiments/aot/S_flickr-claywakening-27928940166_2.mp4	0.0	82.7829201221466	0.9999020099639893
4	59.65825891494751	pulse	0	t		2.0	2.5	/experiments/aot/S_flickr-claywakening-27928940166_2.mp4	0.0	82.96650099754333	
4	60.47458004951477	movie	1		165	2.0	2.5	/experiments/aot/S_flickr-claywakening-27928940166_2.mp4	0.0	83.7828221321106	2.5000979900360107
4	61.25811004638672	pulse	1	t		2.0	2.5	/experiments/aot/S_flickr-claywakening-27928940166_2.mp4	0.0	84.56635212898254	
4	62.85817193984985	pulse	1	t		2.0	2.5	/experiments/aot/S_flickr-claywakening-27928940166_2.mp4	0.0	86.16641402244568	
4	62.97467803955078	fix_post	2		12	2.0	2.5	/experiments/aot/S_flickr-claywakening-27928940166_2.mp4	0.0	86.2829201221466	0.09996604919433594
5	63.07464408874512	fix_pre	0		120	3.0	2.5	/experiments/aot/R_S_ILSVRC2015_train_00165011.mp4	0.0	86.38288617134094	0.9999988079071045
5	64.07464289665222	movie	1		299	3.0	2.5	/experiments/aot/R_S_ILSVRC2015_train_00165011.mp4	0.0	87.38288497924805	2.5001590251922607
5	64.45764589309692	pulse	1	t		3.0	2.5	/experiments/aot/R_S_ILSVRC2015_train_00165011.mp4	0.0	87.76588797569275	
5	66.0577380657196	pulse	1	t		3.0	2.5	/experiments/aot/R_S_ILSVRC2015_train_00165011.mp4	0.0	89.36598014831543	
5	66.57480192184448	fix_post	2		12	3.0	2.5	/experiments/aot/R_S_ILSVRC2015_train_00165011.mp4	0.0	89.88304400444031	0.09955716133117676
6	66.67435908317566	fix_pre	0		119	4.0	2.5	/experiments/aot/S_yt-pO5SVq-9EhU_114.mp4	0.0	89.98260116577148	0.9917898178100586
6	67.65815806388855	pulse	0	t		4.0	2.5	/experiments/aot/S_yt-pO5SVq-9EhU_114.mp4	0.0	90.96640014648438	
6	67.66614890098572	movie	1		300	4.0	2.5	/experiments/aot/S_yt-pO5SVq-9EhU_114.mp4	0.0	90.97439098358154	2.50839900970459
6	69.25910711288452	pulse	1	t		4.0	2.5	/experiments/aot/S_yt-pO5SVq-9EhU_114.mp4	0.0	92.56734919548035	
6	70.17454791069031	fix_post	2		12	4.0	2.5	/experiments/aot/S_yt-pO5SVq-9EhU_114.mp4	0.0	93.48278999328613	0.10002899169921875
7	70.27457690238953	fix_pre	0		120	5.0	2.5	/experiments/aot/S_yt-F2x6e7e7cAE_70.mp4	0.0	93.58281898498535	0.9999730587005615
7	70.85803604125977	pulse	0	t		5.0	2.5	/experiments/aot/S_yt-F2x6e7e7cAE_70.mp4	0.0	94.16627812385559	
7	71.27454996109009	movie	1		300	5.0	2.5	/experiments/aot/S_yt-F2x6e7e7cAE_70.mp4	0.0	94.58279204368591	2.5000131130218506
7	72.45799899101257	pulse	1	t		5.0	2.5	/experiments/aot/S_yt-F2x6e7e7cAE_70.mp4	0.0	95.7662410736084	
7	73.77456307411194	fix_post	2		12	5.0	2.5	/experiments/aot/S_yt-F2x6e7e7cAE_70.mp4	0.0	97.08280515670776	0.09991598129272461
8	73.87447905540466	fix_pre	0		120	6.0	2.5	blank	1.0	97.18272113800049	1.000074863433838
8	74.0580780506134	pulse	0	t		6.0	2.5	blank	1.0	97.36632013320923	
8	74.8745539188385	movie	1		300	6.0	2.5	blank	1.0	98.18279600143433	2.499932050704956
8	75.65810203552246	pulse	1	t		6.0	2.5	blank	1.0	98.96634411811829	
8	77.25787401199341	pulse	1	t		6.0	2.5	blank	1.0	100.56611609458923	
8	77.37448596954346	fix_post	2		12	6.0	2.5	blank	1.0	100.68272805213928	0.10006904602050781
9	77.47455501556396	fix_pre	0		120	7.0	2.5	/experiments/aot/S_pexels-roman-odintsov-8232443_1.mp4	0.0	100.78279709815979	0.9998989105224609
9	78.47445392608643	movie	1		162	7.0	2.5	/experiments/aot/S_pexels-roman-odintsov-8232443_1.mp4	0.0	101.78269600868225	2.500063180923462
9	78.8580060005188	pulse	1	t		7.0	2.5	/experiments/aot/S_pexels-roman-odintsov-8232443_1.mp4	0.0	102.16624808311462	
9	80.45798993110657	pulse	1	t		7.0	2.5	/experiments/aot/S_pexels-roman-odintsov-8232443_1.mp4	0.0	103.76623201370239	
9	80.97451710700989	fix_post	2		12	7.0	2.5	/experiments/aot/S_pexels-roman-odintsov-8232443_1.mp4	0.0	104.28275918960571	0.09999799728393555
10	81.07451510429382	fix_pre	0		119	8.0	2.5	/experiments/aot/R_S_production_ID_5139371.mp4	0.0	104.38275718688965	0.9916489124298096
10	82.05802702903748	pulse	0	t		8.0	2.5	/experiments/aot/R_S_production_ID_5139371.mp4	0.0	105.3662691116333	
10	82.06616401672363	movie	1		163	8.0	2.5	/experiments/aot/R_S_production_ID_5139371.mp4	0.0	105.37440609931946	2.508286952972412
10	83.65923690795898	pulse	1	t		8.0	2.5	/experiments/aot/R_S_production_ID_5139371.mp4	0.0	106.96747899055481	
10	84.57445096969604	fix_post	2		12	8.0	2.5	/experiments/aot/R_S_production_ID_5139371.mp4	0.0	107.88269305229187	0.1000361442565918
11	84.67448711395264	fix_pre	0		120	9.0	2.5	/experiments/aot/S_yt-6xXEMHBQ08A_28.mp4	0.0	107.98272919654846	0.9999358654022217
11	85.2580029964447	pulse	0	t		9.0	2.5	/experiments/aot/S_yt-6xXEMHBQ08A_28.mp4	0.0	108.56624507904053	
11	85.67442297935486	movie	1		300	9.0	2.5	/experiments/aot/S_yt-6xXEMHBQ08A_28.mp4	0.0	108.98266506195068	2.5000150203704834
11	86.85796093940735	pulse	1	t		9.0	2.5	/experiments/aot/S_yt-6xXEMHBQ08A_28.mp4	0.0	110.16620302200317	
11	88.17443799972534	fix_post	2		12	9.0	2.5	/experiments/aot/S_yt-6xXEMHBQ08A_28.mp4	0.0	111.48268008232117	0.0999150276184082
12	88.27435302734375	fix_pre	0		120	10.0	2.5	/experiments/aot/R_S_yt-3NMDWrZr1Z4_255.mp4	0.0	111.58259510993958	1.0000569820404053
12	88.45793104171753	pulse	0	t		10.0	2.5	/experiments/aot/R_S_yt-3NMDWrZr1Z4_255.mp4	0.0	111.76617312431335	
12	89.27441000938416	movie	1		300	10.0	2.5	/experiments/aot/R_S_yt-3NMDWrZr1Z4_255.mp4	0.0	112.58265209197998	2.499998092651367
12	90.05786204338074	pulse	1	t		10.0	2.5	/experiments/aot/R_S_yt-3NMDWrZr1Z4_255.mp4	0.0	113.36610412597656	
12	91.65793991088867	pulse	1	t		10.0	2.5	/experiments/aot/R_S_yt-3NMDWrZr1Z4_255.mp4	0.0	114.9661819934845	
12	91.77440810203552	fix_post	2		12	10.0	2.5	/experiments/aot/R_S_yt-3NMDWrZr1Z4_255.mp4	0.0	115.08265018463135	0.0999908447265625
13	91.87439894676208	fix_pre	0		120	11.0	2.5	/experiments/aot/R_S_comp_DB_D002_C003_PSNK_v04_SDR_PS_20180914_SDR_2K_AVC.mp4	0.0	115.18264102935791	0.9999639987945557
13	92.87436294555664	movie	1		162	11.0	2.5	/experiments/aot/R_S_comp_DB_D002_C003_PSNK_v04_SDR_PS_20180914_SDR_2K_AVC.mp4	0.0	116.18260502815247	2.5000600814819336
13	93.25805592536926	pulse	1	t		11.0	2.5	/experiments/aot/R_S_comp_DB_D002_C003_PSNK_v04_SDR_PS_20180914_SDR_2K_AVC.mp4	0.0	116.56629800796509	
13	94.8578999042511	pulse	1	t		11.0	2.5	/experiments/aot/R_S_comp_DB_D002_C003_PSNK_v04_SDR_PS_20180914_SDR_2K_AVC.mp4	0.0	118.16614198684692	
13	95.37442302703857	fix_post	2		12	11.0	2.5	/experiments/aot/R_S_comp_DB_D002_C003_PSNK_v04_SDR_PS_20180914_SDR_2K_AVC.mp4	0.0	118.6826651096344	0.09999489784240723
14	95.47441792488098	fix_pre	0		119	12.0	2.5	/experiments/aot/R_S_yt-pO5SVq-9EhU_114.mp4	0.0	118.7826600074768	0.9916741847991943
14	96.4579451084137	pulse	0	t		12.0	2.5	/experiments/aot/R_S_yt-pO5SVq-9EhU_114.mp4	0.0	119.76618719100952	
14	96.46609210968018	movie	1		301	12.0	2.5	/experiments/aot/R_S_yt-pO5SVq-9EhU_114.mp4	0.0	119.774334192276	2.508265972137451
14	98.05790400505066	pulse	1	t		12.0	2.5	/experiments/aot/R_S_yt-pO5SVq-9EhU_114.mp4	0.0	121.36614608764648	
14	98.97435808181763	fix_post	2		12	12.0	2.5	/experiments/aot/R_S_yt-pO5SVq-9EhU_114.mp4	0.0	122.28260016441345	0.10010790824890137
15	99.07446599006653	fix_pre	0		120	13.0	2.5	blank	1.0	122.38270807266235	0.9999299049377441
15	99.65870809555054	pulse	0	t		13.0	2.5	blank	1.0	122.96695017814636	
15	100.07439589500427	movie	1		300	13.0	2.5	blank	1.0	123.3826379776001	2.500042200088501
15	101.2586920261383	pulse	1	t		13.0	2.5	blank	1.0	124.56693410873413	
15	102.57443809509277	fix_post	2		12	13.0	2.5	blank	1.0	125.8826801776886	0.09994697570800781
16	102.67438507080078	fix_pre	0		120	14.0	2.5	/experiments/aot/S_yt-7WYXuBHeorw_188.mp4	0.0	125.9826271533966	1.0000338554382324
16	102.8578679561615	pulse	0	t		14.0	2.5	/experiments/aot/S_yt-7WYXuBHeorw_188.mp4	0.0	126.16611003875732	
16	103.67441892623901	movie	1		300	14.0	2.5	/experiments/aot/S_yt-7WYXuBHeorw_188.mp4	0.0	126.98266100883484	2.5000271797180176
16	104.45787906646729	pulse	1	t		14.0	2.5	/experiments/aot/S_yt-7WYXuBHeorw_188.mp4	0.0	127.76612114906311	
16	106.0580050945282	pulse	1	t		14.0	2.5	/experiments/aot/S_yt-7WYXuBHeorw_188.mp4	0.0	129.36624717712402	
16	106.17444610595703	fix_post	2		12	14.0	2.5	/experiments/aot/S_yt-7WYXuBHeorw_188.mp4	0.0	129.48268818855286	0.10001087188720703
17	106.27445697784424	fix_pre	0		120	15.0	2.5	/experiments/aot/R_S_video-7.mp4	0.0	129.58269906044006	0.9998950958251953
17	107.27435207366943	movie	1		167	15.0	2.5	/experiments/aot/R_S_video-7.mp4	0.0	130.58259415626526	2.5000510215759277
17	107.65794897079468	pulse	1	t		15.0	2.5	/experiments/aot/R_S_video-7.mp4	0.0	130.9661910533905	
17	109.25784993171692	pulse	1	t		15.0	2.5	/experiments/aot/R_S_video-7.mp4	0.0	132.56609201431274	
17	109.77440309524536	fix_post	2		12	15.0	2.5	/experiments/aot/R_S_video-7.mp4	0.0	133.0826451778412	0.09990882873535156
18	109.87431192398071	fix_pre	0		119	16.0	2.5	/experiments/aot/S_b3TCugtX0h0_108.mp4	0.0	133.18255400657654	0.9917280673980713
18	110.85787391662598	pulse	0	t		16.0	2.5	/experiments/aot/S_b3TCugtX0h0_108.mp4	0.0	134.1661159992218	
18	110.86603999137878	movie	1		301	16.0	2.5	/experiments/aot/S_b3TCugtX0h0_108.mp4	0.0	134.1742820739746	2.508270025253296
18	112.45785808563232	pulse	1	t		16.0	2.5	/experiments/aot/S_b3TCugtX0h0_108.mp4	0.0	135.76610016822815	
18	113.37431001663208	fix_post	2		12	16.0	2.5	/experiments/aot/S_b3TCugtX0h0_108.mp4	0.0	136.6825520992279	0.10004997253417969
19	113.47435998916626	fix_pre	0		120	17.0	2.5	/experiments/aot/R_S_yt-HMAa2QbfFPI_216.mp4	0.0	136.78260207176208	1.0000219345092773
19	114.05792307853699	pulse	0	t		17.0	2.5	/experiments/aot/R_S_yt-HMAa2QbfFPI_216.mp4	0.0	137.3661651611328	
19	114.47438192367554	movie	1		300	17.0	2.5	/experiments/aot/R_S_yt-HMAa2QbfFPI_216.mp4	0.0	137.78262400627136	2.499997138977051
19	115.66181898117065	pulse	1	t		17.0	2.5	/experiments/aot/R_S_yt-HMAa2QbfFPI_216.mp4	0.0	138.97006106376648	
19	116.97437906265259	fix_post	2		12	17.0	2.5	/experiments/aot/R_S_yt-HMAa2QbfFPI_216.mp4	0.0	140.2826211452484	0.09998393058776855
20	117.07436299324036	fix_pre	0		120	18.0	2.5	/experiments/aot/S_yt-isJga8ec5UM_32.mp4	0.0	140.38260507583618	1.0000231266021729
20	117.25857591629028	pulse	0	t		18.0	2.5	/experiments/aot/S_yt-isJga8ec5UM_32.mp4	0.0	140.5668179988861	
20	118.07438611984253	movie	1		300	18.0	2.5	/experiments/aot/S_yt-isJga8ec5UM_32.mp4	0.0	141.38262820243835	2.499567985534668
20	118.86186003684998	pulse	1	t		18.0	2.5	/experiments/aot/S_yt-isJga8ec5UM_32.mp4	0.0	142.1701021194458	
20	120.45987606048584	pulse	1	t		18.0	2.5	/experiments/aot/S_yt-isJga8ec5UM_32.mp4	0.0	143.76811814308167	
20	120.5739541053772	fix_post	2		12	18.0	2.5	/experiments/aot/S_yt-isJga8ec5UM_32.mp4	0.0	143.88219618797302	0.09994387626647949
21	120.67389798164368	fix_pre	0		120	19.0	2.5	/experiments/aot/S_yt-6mRpmfIvdew_1435.mp4	0.0	143.9821400642395	1.000572919845581
21	121.67447090148926	movie	1		300	19.0	2.5	/experiments/aot/S_yt-6mRpmfIvdew_1435.mp4	0.0	144.98271298408508	2.4998741149902344
21	122.05791807174683	pulse	1	t		19.0	2.5	/experiments/aot/S_yt-6mRpmfIvdew_1435.mp4	0.0	145.36616015434265	
21	123.66187906265259	pulse	1	t		19.0	2.5	/experiments/aot/S_yt-6mRpmfIvdew_1435.mp4	0.0	146.9701211452484	
21	124.17434501647949	fix_post	2		12	19.0	2.5	/experiments/aot/S_yt-6mRpmfIvdew_1435.mp4	0.0	147.48258709907532	0.09999203681945801
22	124.27433705329895	fix_pre	0		119	20.0	2.5	/experiments/aot/R_S_yt-R-SETZtYWaA_336.mp4	0.0	147.58257913589478	0.991602897644043
22	125.25776195526123	pulse	0	t		20.0	2.5	/experiments/aot/R_S_yt-R-SETZtYWaA_336.mp4	0.0	148.56600403785706	
22	125.265939950943	movie	1		301	20.0	2.5	/experiments/aot/R_S_yt-R-SETZtYWaA_336.mp4	0.0	148.57418203353882	2.5083999633789062
22	126.85775899887085	pulse	1	t		20.0	2.5	/experiments/aot/R_S_yt-R-SETZtYWaA_336.mp4	0.0	150.16600108146667	
22	127.7743399143219	fix_post	2		12	20.0	2.5	/experiments/aot/R_S_yt-R-SETZtYWaA_336.mp4	0.0	151.08258199691772	0.09994697570800781
23	127.87428689002991	fix_pre	0		120	21.0	2.5	blank	1.0	151.18252897262573	0.9999890327453613
23	128.45768404006958	pulse	0	t		21.0	2.5	blank	1.0	151.7659261226654	
23	128.87427592277527	movie	1		300	21.0	2.5	blank	1.0	152.1825180053711	2.4999539852142334
23	130.057785987854	pulse	1	t		21.0	2.5	blank	1.0	153.36602807044983	
23	131.3742299079895	fix_post	2		12	21.0	2.5	blank	1.0	154.68247199058533	0.09996604919433594
24	131.47419595718384	fix_pre	0		120	22.0	2.5	/experiments/aot/S_yt-h8wy6x6oytA_25.mp4	0.0	154.78243803977966	1.0000450611114502
24	131.65851593017578	pulse	0	t		22.0	2.5	/experiments/aot/S_yt-h8wy6x6oytA_25.mp4	0.0	154.9667580127716	
24	132.4742410182953	movie	1		300	22.0	2.5	/experiments/aot/S_yt-h8wy6x6oytA_25.mp4	0.0	155.7824831008911	2.5000269412994385
24	133.26184606552124	pulse	1	t		22.0	2.5	/experiments/aot/S_yt-h8wy6x6oytA_25.mp4	0.0	156.57008814811707	
24	134.85900807380676	pulse	1	t		22.0	2.5	/experiments/aot/S_yt-h8wy6x6oytA_25.mp4	0.0	158.1672501564026	
24	134.97426795959473	fix_post	2		12	22.0	2.5	/experiments/aot/S_yt-h8wy6x6oytA_25.mp4	0.0	158.28251004219055	0.09997010231018066
25	135.0742380619049	fix_pre	0		120	23.0	2.5	/experiments/aot/R_S_pexels-roman-odintsov-8232443_1.mp4	0.0	158.38248014450073	0.9999639987945557
25	136.07420206069946	movie	1		164	23.0	2.5	/experiments/aot/R_S_pexels-roman-odintsov-8232443_1.mp4	0.0	159.3824441432953	2.5
25	136.46524095535278	pulse	1	t		23.0	2.5	/experiments/aot/R_S_pexels-roman-odintsov-8232443_1.mp4	0.0	159.7734830379486	
25	138.0653591156006	pulse	1	t		23.0	2.5	/experiments/aot/R_S_pexels-roman-odintsov-8232443_1.mp4	0.0	161.3736011981964	
25	138.57420206069946	fix_post	2		12	23.0	2.5	/experiments/aot/R_S_pexels-roman-odintsov-8232443_1.mp4	0.0	161.8824441432953	0.0999448299407959
26	138.67414689064026	fix_pre	0		119	24.0	2.5	/experiments/aot/R_S_1y-EvnfGO9Y_70.mp4	0.0	161.98238897323608	0.9916691780090332
26	139.6577091217041	pulse	0	t		24.0	2.5	/experiments/aot/R_S_1y-EvnfGO9Y_70.mp4	0.0	162.96595120429993	
26	139.6658160686493	movie	1		301	24.0	2.5	/experiments/aot/R_S_1y-EvnfGO9Y_70.mp4	0.0	162.97405815124512	2.508342981338501
26	141.257630109787	pulse	1	t		24.0	2.5	/experiments/aot/R_S_1y-EvnfGO9Y_70.mp4	0.0	164.5658721923828	
26	142.1741590499878	fix_post	2		12	24.0	2.5	/experiments/aot/R_S_1y-EvnfGO9Y_70.mp4	0.0	165.48240113258362	0.1000518798828125
27	142.2742109298706	fix_pre	0		120	25.0	2.5	/experiments/aot/S_yt-r7brAHgxZSU_248.mp4	0.0	165.58245301246643	1.000054121017456
27	142.85771799087524	pulse	0	t		25.0	2.5	/experiments/aot/S_yt-r7brAHgxZSU_248.mp4	0.0	166.16596007347107	
27	143.27426505088806	movie	1		300	25.0	2.5	/experiments/aot/S_yt-r7brAHgxZSU_248.mp4	0.0	166.5825071334839	2.4999279975891113
27	144.4576859474182	pulse	1	t		25.0	2.5	/experiments/aot/S_yt-r7brAHgxZSU_248.mp4	0.0	167.76592803001404	
27	145.77419304847717	fix_post	2		12	25.0	2.5	/experiments/aot/S_yt-r7brAHgxZSU_248.mp4	0.0	169.082435131073	0.09995698928833008
28	145.8741500377655	fix_pre	0		120	26.0	2.5	blank	1.0	169.18239212036133	0.9995880126953125
28	146.05774092674255	pulse	0	t		26.0	2.5	blank	1.0	169.36598300933838	
28	146.87373805046082	movie	1		300	26.0	2.5	blank	1.0	170.18198013305664	2.5003910064697266
28	147.65849208831787	pulse	1	t		26.0	2.5	blank	1.0	170.9667341709137	
28	149.25840497016907	pulse	1	t		26.0	2.5	blank	1.0	172.5666470527649	
28	149.37412905693054	fix_post	2		12	26.0	2.5	blank	1.0	172.68237113952637	0.10006904602050781
29	149.47419810295105	fix_pre	0		120	27.0	2.5	/experiments/aot/R_S_comp_GL_G002_C002_PSNK_v03_SDR_PS_20180925_SDR_2K_AVC.mp4	0.0	172.78244018554688	1.0000298023223877
29	150.47422790527344	movie	1		169	27.0	2.5	/experiments/aot/R_S_comp_GL_G002_C002_PSNK_v03_SDR_PS_20180925_SDR_2K_AVC.mp4	0.0	173.78246998786926	2.5000040531158447
29	150.86611795425415	pulse	1	t		27.0	2.5	/experiments/aot/R_S_comp_GL_G002_C002_PSNK_v03_SDR_PS_20180925_SDR_2K_AVC.mp4	0.0	174.17436003684998	
29	152.46573495864868	pulse	1	t		27.0	2.5	/experiments/aot/R_S_comp_GL_G002_C002_PSNK_v03_SDR_PS_20180925_SDR_2K_AVC.mp4	0.0	175.7739770412445	
29	152.97423195838928	fix_post	2		12	27.0	2.5	/experiments/aot/R_S_comp_GL_G002_C002_PSNK_v03_SDR_PS_20180925_SDR_2K_AVC.mp4	0.0	176.2824740409851	0.09998798370361328
30	153.0742199420929	fix_pre	0		120	28.0	2.5	/experiments/aot/S_pexels-roman-odintsov-8232443_1.mp4	0.0	176.38246202468872	0.9999241828918457
30	154.05847811698914	pulse	0	t		28.0	2.5	/experiments/aot/S_pexels-roman-odintsov-8232443_1.mp4	0.0	177.36672019958496	
30	154.07414412498474	movie	1		165	28.0	2.5	/experiments/aot/S_pexels-roman-odintsov-8232443_1.mp4	0.0	177.38238620758057	2.508370876312256
30	155.65776109695435	pulse	1	t		28.0	2.5	/experiments/aot/S_pexels-roman-odintsov-8232443_1.mp4	0.0	178.96600317955017	
30	156.582515001297	fix_post	2		12	28.0	2.5	/experiments/aot/S_pexels-roman-odintsov-8232443_1.mp4	0.0	179.89075708389282	0.09995603561401367
31	156.682471036911	fix_pre	0		120	29.0	2.5	/experiments/aot/R_S_8amznWxLS04_212.mp4	0.0	179.99071311950684	0.9999659061431885
31	157.25764799118042	pulse	0	t		29.0	2.5	/experiments/aot/R_S_8amznWxLS04_212.mp4	0.0	180.56589007377625	
31	157.6824369430542	movie	1		300	29.0	2.5	/experiments/aot/R_S_8amznWxLS04_212.mp4	0.0	180.99067902565002	2.500030040740967
31	158.85755491256714	pulse	1	t		29.0	2.5	/experiments/aot/R_S_8amznWxLS04_212.mp4	0.0	182.16579699516296	
31	160.18246698379517	fix_post	2		12	29.0	2.5	/experiments/aot/R_S_8amznWxLS04_212.mp4	0.0	183.490709066391	0.09998893737792969
32	160.2824559211731	fix_pre	0		120	30.0	2.5	/experiments/aot/S_production_ID_3712945.mp4	0.0	183.59069800376892	1.0000290870666504
32	160.45764803886414	pulse	0	t		30.0	2.5	/experiments/aot/S_production_ID_3712945.mp4	0.0	183.76589012145996	
32	161.28248500823975	movie	1		160	30.0	2.5	/experiments/aot/S_production_ID_3712945.mp4	0.0	184.59072709083557	2.49995493888855
32	162.0660080909729	pulse	1	t		30.0	2.5	/experiments/aot/S_production_ID_3712945.mp4	0.0	185.37425017356873	
32	163.66598391532898	pulse	1	t		30.0	2.5	/experiments/aot/S_production_ID_3712945.mp4	0.0	186.9742259979248	
32	163.7824399471283	fix_post	2		12	30.0	2.5	/experiments/aot/S_production_ID_3712945.mp4	0.0	187.09068202972412	0.10004997253417969
33	163.88248991966248	fix_pre	0		120	31.0	2.5	/experiments/aot/S_yt-j3Sk8ZnAiEA_32.mp4	0.0	187.1907320022583	0.9999370574951172
33	164.8824269771576	movie	1		300	31.0	2.5	/experiments/aot/S_yt-j3Sk8ZnAiEA_32.mp4	0.0	188.19066905975342	2.4999680519104004
33	165.25854301452637	pulse	1	t		31.0	2.5	/experiments/aot/S_yt-j3Sk8ZnAiEA_32.mp4	0.0	188.5667850971222	
33	166.85857605934143	pulse	1	t		31.0	2.5	/experiments/aot/S_yt-j3Sk8ZnAiEA_32.mp4	0.0	190.16681814193726	
33	167.382395029068	fix_post	2		12	31.0	2.5	/experiments/aot/S_yt-j3Sk8ZnAiEA_32.mp4	0.0	190.69063711166382	0.09999799728393555
34	167.48239302635193	fix_pre	0		119	32.0	2.5	/experiments/aot/S_yt-zam74qlzGtQ_122.mp4	0.0	190.79063510894775	0.9916660785675049
34	168.4583899974823	pulse	0	t		32.0	2.5	/experiments/aot/S_yt-zam74qlzGtQ_122.mp4	0.0	191.76663208007812	
34	168.47405910491943	movie	1		301	32.0	2.5	/experiments/aot/S_yt-zam74qlzGtQ_122.mp4	0.0	191.78230118751526	2.508328914642334
34	170.06150197982788	pulse	1	t		32.0	2.5	/experiments/aot/S_yt-zam74qlzGtQ_122.mp4	0.0	193.3697440624237	
34	170.98238801956177	fix_post	2		12	32.0	2.5	/experiments/aot/S_yt-zam74qlzGtQ_122.mp4	0.0	194.2906301021576	0.10005688667297363
35	171.08244490623474	fix_pre	0		120	33.0	2.5	blank	1.0	194.39068698883057	0.9999790191650391
35	171.65839099884033	pulse	0	t		33.0	2.5	blank	1.0	194.96663308143616	
35	172.08242392539978	movie	1		300	33.0	2.5	blank	1.0	195.3906660079956	2.4998891353607178
35	173.25770902633667	pulse	1	t		33.0	2.5	blank	1.0	196.5659511089325	
35	174.5823130607605	fix_post	2		12	33.0	2.5	blank	1.0	197.89055514335632	0.10011601448059082
36	174.6824290752411	fix_pre	0		120	34.0	2.5	/experiments/aot/S_yt-3NMDWrZr1Z4_255.mp4	0.0	197.9906711578369	0.999953031539917
36	174.85759806632996	pulse	0	t		34.0	2.5	/experiments/aot/S_yt-3NMDWrZr1Z4_255.mp4	0.0	198.16584014892578	
36	175.682382106781	movie	1		300	34.0	2.5	/experiments/aot/S_yt-3NMDWrZr1Z4_255.mp4	0.0	198.99062418937683	2.4997849464416504
36	176.45802307128906	pulse	1	t		34.0	2.5	/experiments/aot/S_yt-3NMDWrZr1Z4_255.mp4	0.0	199.7662651538849	
36	178.0573709011078	pulse	1	t		34.0	2.5	/experiments/aot/S_yt-3NMDWrZr1Z4_255.mp4	0.0	201.3656129837036	
36	178.18216705322266	fix_post	2		12	34.0	2.5	/experiments/aot/S_yt-3NMDWrZr1Z4_255.mp4	0.0	201.49040913581848	0.09996986389160156
37	178.28213691711426	fix_pre	0		120	35.0	2.5	/experiments/aot/R_S_yt-KM_SJx8CMGc_10.mp4	0.0	201.59037899971008	1.0003650188446045
37	179.28250193595886	movie	1		300	35.0	2.5	/experiments/aot/R_S_yt-KM_SJx8CMGc_10.mp4	0.0	202.5907440185547	2.499885082244873
37	179.65846300125122	pulse	1	t		35.0	2.5	/experiments/aot/R_S_yt-KM_SJx8CMGc_10.mp4	0.0	202.96670508384705	
37	181.2583930492401	pulse	1	t		35.0	2.5	/experiments/aot/R_S_yt-KM_SJx8CMGc_10.mp4	0.0	204.56663513183594	
37	181.78238701820374	fix_post	2		12	35.0	2.5	/experiments/aot/R_S_yt-KM_SJx8CMGc_10.mp4	0.0	205.09062910079956	0.09995889663696289
38	181.8823459148407	fix_pre	0		119	36.0	2.5	/experiments/aot/S_yt-EAMpitsjbbA_153.mp4	0.0	205.19058799743652	0.9916250705718994
38	182.8582479953766	pulse	0	t		36.0	2.5	/experiments/aot/S_yt-EAMpitsjbbA_153.mp4	0.0	206.1664900779724	
38	182.8739709854126	movie	1		301	36.0	2.5	/experiments/aot/S_yt-EAMpitsjbbA_153.mp4	0.0	206.18221306800842	2.508296012878418
38	184.46164107322693	pulse	1	t		36.0	2.5	/experiments/aot/S_yt-EAMpitsjbbA_153.mp4	0.0	207.76988315582275	
38	185.38226699829102	fix_post	2		12	36.0	2.5	/experiments/aot/S_yt-EAMpitsjbbA_153.mp4	0.0	208.69050908088684	0.10004711151123047
39	185.48231410980225	fix_pre	0		120	37.0	2.5	/experiments/aot/R_S_yt-4wYTkhggZNM_90.mp4	0.0	208.79055619239807	0.9999887943267822
39	186.05842089653015	pulse	0	t		37.0	2.5	/experiments/aot/R_S_yt-4wYTkhggZNM_90.mp4	0.0	209.36666297912598	
39	186.48230290412903	movie	1		300	37.0	2.5	/experiments/aot/R_S_yt-4wYTkhggZNM_90.mp4	0.0	209.79054498672485	2.5000381469726562
39	187.65856194496155	pulse	1	t		37.0	2.5	/experiments/aot/R_S_yt-4wYTkhggZNM_90.mp4	0.0	210.96680402755737	
39	188.98234105110168	fix_post	2		12	37.0	2.5	/experiments/aot/R_S_yt-4wYTkhggZNM_90.mp4	0.0	212.2905831336975	0.09999203681945801
40	189.08233308792114	fix_pre	0		120	38.0	2.5	/experiments/aot/R_S_production_ID_4802710.mp4	0.0	212.39057517051697	0.9999580383300781
40	189.25828289985657	pulse	0	t		38.0	2.5	/experiments/aot/R_S_production_ID_4802710.mp4	0.0	212.5665249824524	
40	190.08229112625122	movie	1		163	38.0	2.5	/experiments/aot/R_S_production_ID_4802710.mp4	0.0	213.39053320884705	2.4999117851257324
40	190.86585807800293	pulse	1	t		38.0	2.5	/experiments/aot/R_S_production_ID_4802710.mp4	0.0	214.17410016059875	
40	192.45742797851562	pulse	1	t		38.0	2.5	/experiments/aot/R_S_production_ID_4802710.mp4	0.0	215.76567006111145	
40	192.58220291137695	fix_post	2		12	38.0	2.5	/experiments/aot/R_S_production_ID_4802710.mp4	0.0	215.89044499397278	0.10008120536804199
41	192.682284116745	fix_pre	0		120	39.0	2.5	/experiments/aot/S_ILSVRC2015_train_00559000.mp4	0.0	215.99052619934082	1.0000128746032715
41	193.68229699134827	movie	1		300	39.0	2.5	/experiments/aot/S_ILSVRC2015_train_00559000.mp4	0.0	216.9905390739441	2.4999420642852783
41	194.0575098991394	pulse	1	t		39.0	2.5	/experiments/aot/S_ILSVRC2015_train_00559000.mp4	0.0	217.36575198173523	
41	195.65829610824585	pulse	1	t		39.0	2.5	/experiments/aot/S_ILSVRC2015_train_00559000.mp4	0.0	218.96653819084167	
41	196.18223905563354	fix_post	2		12	39.0	2.5	/experiments/aot/S_ILSVRC2015_train_00559000.mp4	0.0	219.49048113822937	0.10000801086425781
42	196.2822470664978	fix_pre	0		119	40.0	2.5	/experiments/aot/S_comp_GL_G002_C002_PSNK_v03_SDR_PS_20180925_SDR_2K_AVC.mp4	0.0	219.59048914909363	0.9916670322418213
42	197.2582778930664	pulse	0	t		40.0	2.5	/experiments/aot/S_comp_GL_G002_C002_PSNK_v03_SDR_PS_20180925_SDR_2K_AVC.mp4	0.0	220.56651997566223	
42	197.27391409873962	movie	1		165	40.0	2.5	/experiments/aot/S_comp_GL_G002_C002_PSNK_v03_SDR_PS_20180925_SDR_2K_AVC.mp4	0.0	220.58215618133545	2.5084259510040283
42	198.8657169342041	pulse	1	t		40.0	2.5	/experiments/aot/S_comp_GL_G002_C002_PSNK_v03_SDR_PS_20180925_SDR_2K_AVC.mp4	0.0	222.17395901679993	
42	199.78234004974365	fix_post	2		12	40.0	2.5	/experiments/aot/S_comp_GL_G002_C002_PSNK_v03_SDR_PS_20180925_SDR_2K_AVC.mp4	0.0	223.09058213233948	0.09998798370361328
43	199.88232803344727	fix_pre	0		120	41.0	2.5	blank	1.0	223.1905701160431	0.9999489784240723
43	200.45838403701782	pulse	0	t		41.0	2.5	blank	1.0	223.76662611961365	
43	200.88227701187134	movie	1		300	41.0	2.5	blank	1.0	224.19051909446716	2.499924898147583
43	202.05834794044495	pulse	1	t		41.0	2.5	blank	1.0	225.36659002304077	
43	203.38220191001892	fix_post	2		12	41.0	2.5	blank	1.0	226.69044399261475	0.1000821590423584
44	203.48228406906128	fix_pre	0		120	42.0	2.5	/experiments/aot/S_yt-nn-8LZcafGs_25.mp4	0.0	226.7905261516571	1.0000319480895996
44	203.6582579612732	pulse	0	t		42.0	2.5	/experiments/aot/S_yt-nn-8LZcafGs_25.mp4	0.0	226.96650004386902	
44	204.48231601715088	movie	1		300	42.0	2.5	/experiments/aot/S_yt-nn-8LZcafGs_25.mp4	0.0	227.7905580997467	2.499985933303833
44	205.25837993621826	pulse	1	t		42.0	2.5	/experiments/aot/S_yt-nn-8LZcafGs_25.mp4	0.0	228.5666220188141	
44	206.8607530593872	pulse	1	t		42.0	2.5	/experiments/aot/S_yt-nn-8LZcafGs_25.mp4	0.0	230.16899514198303	
44	206.9823019504547	fix_post	2		12	42.0	2.5	/experiments/aot/S_yt-nn-8LZcafGs_25.mp4	0.0	230.29054403305054	0.10001206398010254
45	207.08231401443481	fix_pre	0		120	43.0	2.5	/experiments/aot/R_S_video-11.mp4	0.0	230.39055609703064	0.9999699592590332
45	208.08228397369385	movie	1		163	43.0	2.5	/experiments/aot/R_S_video-11.mp4	0.0	231.39052605628967	2.4999959468841553
45	208.45745611190796	pulse	1	t		43.0	2.5	/experiments/aot/R_S_video-11.mp4	0.0	231.76569819450378	
45	210.05748295783997	pulse	1	t		43.0	2.5	/experiments/aot/R_S_video-11.mp4	0.0	233.3657250404358	
45	210.582279920578	fix_post	2		12	43.0	2.5	/experiments/aot/R_S_video-11.mp4	0.0	233.89052200317383	0.09996509552001953
46	210.68224501609802	fix_pre	0		119	44.0	2.5	/experiments/aot/S_yt-n6aLw10f2Yw_317.mp4	0.0	233.99048709869385	0.9915978908538818
46	211.665687084198	pulse	0	t		44.0	2.5	/experiments/aot/S_yt-n6aLw10f2Yw_317.mp4	0.0	234.97392916679382	
46	211.6738429069519	movie	1		301	44.0	2.5	/experiments/aot/S_yt-n6aLw10f2Yw_317.mp4	0.0	234.98208498954773	2.508388042449951
46	213.2614529132843	pulse	1	t		44.0	2.5	/experiments/aot/S_yt-n6aLw10f2Yw_317.mp4	0.0	236.56969499588013	
46	214.18223094940186	fix_post	2		12	44.0	2.5	/experiments/aot/S_yt-n6aLw10f2Yw_317.mp4	0.0	237.49047303199768	0.0999460220336914
47	214.28217697143555	fix_pre	0		120	45.0	2.5	/experiments/aot/S_ILSVRC2015_train_00165011.mp4	0.0	237.59041905403137	1.0000669956207275
47	214.85813903808594	pulse	0	t		45.0	2.5	/experiments/aot/S_ILSVRC2015_train_00165011.mp4	0.0	238.16638112068176	
47	215.28224396705627	movie	1		300	45.0	2.5	/experiments/aot/S_ILSVRC2015_train_00165011.mp4	0.0	238.5904860496521	2.5000059604644775
47	216.45832896232605	pulse	1	t		45.0	2.5	/experiments/aot/S_ILSVRC2015_train_00165011.mp4	0.0	239.76657104492188	
47	217.78224992752075	fix_post	2		12	45.0	2.5	/experiments/aot/S_ILSVRC2015_train_00165011.mp4	0.0	241.09049201011658	0.09992003440856934
48	217.88216996192932	fix_pre	0		120	46.0	2.5	/experiments/aot/R_S_production_ID_4802710.mp4	0.0	241.19041204452515	0.9999799728393555
48	218.05820298194885	pulse	0	t		46.0	2.5	/experiments/aot/R_S_production_ID_4802710.mp4	0.0	241.36644506454468	
48	218.88214993476868	movie	1		165	46.0	2.5	/experiments/aot/R_S_production_ID_4802710.mp4	0.0	242.1903920173645	2.5000791549682617
48	219.6657590866089	pulse	1	t		46.0	2.5	/experiments/aot/R_S_production_ID_4802710.mp4	0.0	242.9740011692047	
48	221.25807809829712	pulse	1	t		46.0	2.5	/experiments/aot/R_S_production_ID_4802710.mp4	0.0	244.56632018089294	
48	221.38222908973694	fix_post	2		12	46.0	2.5	/experiments/aot/R_S_production_ID_4802710.mp4	0.0	244.69047117233276	0.09994101524353027
49	221.48217010498047	fix_pre	0		120	47.0	2.5	/experiments/aot/S_production_ID_3944248.mp4	0.0	244.7904121875763	1.0001509189605713
49	222.48232102394104	movie	1		163	47.0	2.5	/experiments/aot/S_production_ID_3944248.mp4	0.0	245.79056310653687	2.4999630451202393
49	222.8657910823822	pulse	1	t		47.0	2.5	/experiments/aot/S_production_ID_3944248.mp4	0.0	246.17403316497803	
49	224.4656960964203	pulse	1	t		47.0	2.5	/experiments/aot/S_production_ID_3944248.mp4	0.0	247.7739381790161	
49	224.98228406906128	fix_post	2		12	47.0	2.5	/experiments/aot/S_production_ID_3944248.mp4	0.0	248.2905261516571	0.09981703758239746
50	225.08210110664368	fix_pre	0		118	48.0	2.5	blank	1.0	248.3903431892395	0.9833259582519531
50	226.0573480129242	pulse	0	t		48.0	2.5	blank	1.0	249.36559009552002	
50	226.06542706489563	movie	1		301	48.0	2.5	blank	1.0	249.37366914749146	2.5084009170532227
50	227.6656289100647	pulse	1	t		48.0	2.5	blank	1.0	250.97387099266052	
50	228.57382798194885	fix_post	2		12	48.0	2.5	blank	1.0	251.88207006454468	0.09991192817687988
51	228.67373991012573	fix_pre	0		120	49.0	2.5	/experiments/aot/R_S_yt-GaJaxp546lc_22.mp4	0.0	251.98198199272156	1.0000231266021729
51	229.26555109024048	pulse	0	t		49.0	2.5	/experiments/aot/R_S_yt-GaJaxp546lc_22.mp4	0.0	252.5737931728363	
51	229.6737630367279	movie	1		300	49.0	2.5	/experiments/aot/R_S_yt-GaJaxp546lc_22.mp4	0.0	252.98200511932373	2.5000150203704834
51	230.86216807365417	pulse	1	t		49.0	2.5	/experiments/aot/R_S_yt-GaJaxp546lc_22.mp4	0.0	254.17041015625	
51	232.1737780570984	fix_post	2		12	49.0	2.5	/experiments/aot/R_S_yt-GaJaxp546lc_22.mp4	0.0	255.4820201396942	0.09957599639892578
52	232.27335405349731	fix_pre	0		120	50.0	2.5	/experiments/aot/R_S_video-7.mp4	0.0	255.58159613609314	1.000082015991211
52	232.46524000167847	pulse	0	t		50.0	2.5	/experiments/aot/R_S_video-7.mp4	0.0	255.7734820842743	
52	233.27343606948853	movie	1		171	50.0	2.5	/experiments/aot/R_S_video-7.mp4	0.0	256.58167815208435	2.500354051589966
52	234.06570100784302	pulse	1	t		50.0	2.5	/experiments/aot/R_S_video-7.mp4	0.0	257.37394309043884	
52	235.65822505950928	pulse	1	t		50.0	2.5	/experiments/aot/R_S_video-7.mp4	0.0	258.9664671421051	
52	235.7737901210785	fix_post	2		12	50.0	2.5	/experiments/aot/R_S_video-7.mp4	0.0	259.0820322036743	0.0999608039855957
53	235.8737509250641	fix_pre	0		120	51.0	2.5	/experiments/aot/S_comp_L007_C007_PS_v01_SDR_PS_20180925_SDR_2K_AVC.mp4	0.0	259.1819930076599	0.9999520778656006
53	236.8737030029297	movie	1		167	51.0	2.5	/experiments/aot/S_comp_L007_C007_PS_v01_SDR_PS_20180925_SDR_2K_AVC.mp4	0.0	260.1819450855255	2.5000901222229004
53	237.26546001434326	pulse	1	t		51.0	2.5	/experiments/aot/S_comp_L007_C007_PS_v01_SDR_PS_20180925_SDR_2K_AVC.mp4	0.0	260.5737020969391	
53	238.86535906791687	pulse	1	t		51.0	2.5	/experiments/aot/S_comp_L007_C007_PS_v01_SDR_PS_20180925_SDR_2K_AVC.mp4	0.0	262.1736011505127	
53	239.3737931251526	fix_post	2		12	51.0	2.5	/experiments/aot/S_comp_L007_C007_PS_v01_SDR_PS_20180925_SDR_2K_AVC.mp4	0.0	262.6820352077484	0.09996199607849121
54	239.47375512123108	fix_pre	0		120	52.0	2.5	/experiments/aot/S_yt-MEfljVFL0xw_375.mp4	0.0	262.7819972038269	0.9999508857727051
54	240.45800304412842	pulse	0	t		52.0	2.5	/experiments/aot/S_yt-MEfljVFL0xw_375.mp4	0.0	263.76624512672424	
54	240.47370600700378	movie	1		301	52.0	2.5	/experiments/aot/S_yt-MEfljVFL0xw_375.mp4	0.0	263.7819480895996	2.5084030628204346
54	242.06114411354065	pulse	1	t		52.0	2.5	/experiments/aot/S_yt-MEfljVFL0xw_375.mp4	0.0	265.3693861961365	
54	242.98210906982422	fix_post	2		12	52.0	2.5	/experiments/aot/S_yt-MEfljVFL0xw_375.mp4	0.0	266.29035115242004	0.09986996650695801
55	243.08197903633118	fix_pre	0		120	53.0	2.5	/experiments/aot/S_yt-JVhfcpV7OaY_71.mp4	0.0	266.390221118927	1.0000660419464111
55	243.66548705101013	pulse	0	t		53.0	2.5	/experiments/aot/S_yt-JVhfcpV7OaY_71.mp4	0.0	266.97372913360596	
55	244.0820450782776	movie	1		300	53.0	2.5	/experiments/aot/S_yt-JVhfcpV7OaY_71.mp4	0.0	267.3902871608734	2.4999608993530273
55	245.2654950618744	pulse	1	t		53.0	2.5	/experiments/aot/S_yt-JVhfcpV7OaY_71.mp4	0.0	268.5737371444702	
55	246.58200597763062	fix_post	2		12	53.0	2.5	/experiments/aot/S_yt-JVhfcpV7OaY_71.mp4	0.0	269.89024806022644	0.10005712509155273
56	246.68206310272217	fix_pre	0		120	54.0	2.5	/experiments/aot/R_S_yt-ebzrQh5ErI4_3.mp4	0.0	269.990305185318	0.9999418258666992
56	246.8655300140381	pulse	0	t		54.0	2.5	/experiments/aot/R_S_yt-ebzrQh5ErI4_3.mp4	0.0	270.1737720966339	
56	247.68200492858887	movie	1		300	54.0	2.5	/experiments/aot/R_S_yt-ebzrQh5ErI4_3.mp4	0.0	270.9902470111847	2.5000221729278564
56	248.4581880569458	pulse	1	t		54.0	2.5	/experiments/aot/R_S_yt-ebzrQh5ErI4_3.mp4	0.0	271.7664301395416	
56	250.05803298950195	pulse	1	t		54.0	2.5	/experiments/aot/R_S_yt-ebzrQh5ErI4_3.mp4	0.0	273.3662750720978	
56	250.18202710151672	fix_post	2		12	54.0	2.5	/experiments/aot/R_S_yt-ebzrQh5ErI4_3.mp4	0.0	273.49026918411255	0.10001397132873535
57	250.28204107284546	fix_pre	0		120	55.0	2.5	blank	1.0	273.5902831554413	0.9999909400939941
57	251.28203201293945	movie	1		300	55.0	2.5	blank	1.0	274.5902740955353	2.499903917312622
57	251.65801906585693	pulse	1	t		55.0	2.5	blank	1.0	274.96626114845276	
57	253.2578639984131	pulse	1	t		55.0	2.5	blank	1.0	276.5661060810089	
57	253.78193593025208	fix_post	2		12	55.0	2.5	blank	1.0	277.0901780128479	0.1000521183013916
58	253.88198804855347	fix_pre	0		119	56.0	2.5	/experiments/aot/S_flickr-southeasternstar-3464778323_10.mp4	0.0	277.1902301311493	0.9916129112243652
58	254.85793900489807	pulse	0	t		56.0	2.5	/experiments/aot/S_flickr-southeasternstar-3464778323_10.mp4	0.0	278.1661810874939	
58	254.87360095977783	movie	1		301	56.0	2.5	/experiments/aot/S_flickr-southeasternstar-3464778323_10.mp4	0.0	278.18184304237366	2.5084071159362793
58	256.46183490753174	pulse	1	t		56.0	2.5	/experiments/aot/S_flickr-southeasternstar-3464778323_10.mp4	0.0	279.77007699012756	
58	257.3820080757141	fix_post	2		12	56.0	2.5	/experiments/aot/S_flickr-southeasternstar-3464778323_10.mp4	0.0	280.69025015830994	0.09997391700744629
59	257.48198199272156	fix_pre	0		120	57.0	2.5	/experiments/aot/R_S_yt-P8vJa4YVcGU_488.mp4	0.0	280.7902240753174	0.9999809265136719
59	258.05795311927795	pulse	0	t		57.0	2.5	/experiments/aot/R_S_yt-P8vJa4YVcGU_488.mp4	0.0	281.3661952018738	
59	258.48196291923523	movie	1		300	57.0	2.5	/experiments/aot/R_S_yt-P8vJa4YVcGU_488.mp4	0.0	281.79020500183105	2.499953031539917
59	259.6655330657959	pulse	1	t		57.0	2.5	/experiments/aot/R_S_yt-P8vJa4YVcGU_488.mp4	0.0	282.9737751483917	
59	260.98191595077515	fix_post	2		12	57.0	2.5	/experiments/aot/R_S_yt-P8vJa4YVcGU_488.mp4	0.0	284.290158033371	0.10010004043579102
60	261.08201599121094	fix_pre	0		120	58.0	2.5	/experiments/aot/R_S_yt-_6j2NXrB-zE_28.mp4	0.0	284.39025807380676	1.000011920928955
60	261.265487909317	pulse	0	t		58.0	2.5	/experiments/aot/R_S_yt-_6j2NXrB-zE_28.mp4	0.0	284.57372999191284	
60	262.0820279121399	movie	1		300	58.0	2.5	/experiments/aot/R_S_yt-_6j2NXrB-zE_28.mp4	0.0	285.3902699947357	2.4999821186065674
60	262.8655309677124	pulse	1	t		58.0	2.5	/experiments/aot/R_S_yt-_6j2NXrB-zE_28.mp4	0.0	286.1737730503082	
60	264.4655590057373	pulse	1	t		58.0	2.5	/experiments/aot/R_S_yt-_6j2NXrB-zE_28.mp4	0.0	287.77380108833313	
60	264.58201003074646	fix_post	2		12	58.0	2.5	/experiments/aot/R_S_yt-_6j2NXrB-zE_28.mp4	0.0	287.8902521133423	0.0999760627746582
61	264.6819860935211	fix_pre	0		120	59.0	2.5	/experiments/aot/R_S_yt-hvuC_2YXsTQ_73.mp4	0.0	287.99022817611694	1.0000150203704834
61	265.6820011138916	movie	1		299	59.0	2.5	/experiments/aot/R_S_yt-hvuC_2YXsTQ_73.mp4	0.0	288.9902431964874	2.500058889389038
61	266.05804800987244	pulse	1	t		59.0	2.5	/experiments/aot/R_S_yt-hvuC_2YXsTQ_73.mp4	0.0	289.36629009246826	
61	267.6580491065979	pulse	1	t		59.0	2.5	/experiments/aot/R_S_yt-hvuC_2YXsTQ_73.mp4	0.0	290.9662911891937	
61	268.18206000328064	fix_post	2		12	59.0	2.5	/experiments/aot/R_S_yt-hvuC_2YXsTQ_73.mp4	0.0	291.49030208587646	0.09984993934631348
62	268.28190994262695	fix_pre	0		119	60.0	2.5	/experiments/aot/S_yt-GVaF4tmJBZE_253.mp4	0.0	291.5901520252228	0.9916150569915771
62	269.25788712501526	pulse	0	t		60.0	2.5	/experiments/aot/S_yt-GVaF4tmJBZE_253.mp4	0.0	292.5661292076111	
62	269.27352499961853	movie	1		301	60.0	2.5	/experiments/aot/S_yt-GVaF4tmJBZE_253.mp4	0.0	292.58176708221436	2.508362054824829
62	270.86113810539246	pulse	1	t		60.0	2.5	/experiments/aot/S_yt-GVaF4tmJBZE_253.mp4	0.0	294.1693801879883	
62	271.78188705444336	fix_post	2		12	60.0	2.5	/experiments/aot/S_yt-GVaF4tmJBZE_253.mp4	0.0	295.0901291370392	0.09994792938232422
63	271.8818349838257	fix_pre	0		120	61.0	2.5	/experiments/aot/S_yt-K-iCphzt_RE_17.mp4	0.0	295.1900770664215	1.0000901222229004
63	272.4578800201416	pulse	0	t		61.0	2.5	/experiments/aot/S_yt-K-iCphzt_RE_17.mp4	0.0	295.7661221027374	
63	272.8819251060486	movie	1		300	61.0	2.5	/experiments/aot/S_yt-K-iCphzt_RE_17.mp4	0.0	296.1901671886444	2.4999959468841553
63	274.05802607536316	pulse	1	t		61.0	2.5	/experiments/aot/S_yt-K-iCphzt_RE_17.mp4	0.0	297.366268157959	
63	275.38192105293274	fix_post	2		12	61.0	2.5	/experiments/aot/S_yt-K-iCphzt_RE_17.mp4	0.0	298.69016313552856	0.09995794296264648
64	275.4818789958954	fix_pre	0		120	62.0	2.5	/experiments/aot/S_yt-0xzYSBvVfYM_197.mp4	0.0	298.7901210784912	1.0000250339508057
64	275.6653609275818	pulse	0	t		62.0	2.5	/experiments/aot/S_yt-0xzYSBvVfYM_197.mp4	0.0	298.9736030101776	
64	276.4819040298462	movie	1		300	62.0	2.5	/experiments/aot/S_yt-0xzYSBvVfYM_197.mp4	0.0	299.790146112442	2.4999730587005615
64	277.2653250694275	pulse	1	t		62.0	2.5	/experiments/aot/S_yt-0xzYSBvVfYM_197.mp4	0.0	300.5735671520233	
64	278.86535906791687	pulse	1	t		62.0	2.5	/experiments/aot/S_yt-0xzYSBvVfYM_197.mp4	0.0	302.1736011505127	
64	278.98187708854675	fix_post	2		12	62.0	2.5	/experiments/aot/S_yt-0xzYSBvVfYM_197.mp4	0.0	302.2901191711426	0.09998202323913574
65	279.0818591117859	fix_pre	0		120	63.0	2.5	blank	1.0	302.3901011943817	1.000079870223999
65	280.0819389820099	movie	1		300	63.0	2.5	blank	1.0	303.3901810646057	2.5
65	280.4653959274292	pulse	1	t		63.0	2.5	blank	1.0	303.773638010025	
65	282.06541204452515	pulse	1	t		63.0	2.5	blank	1.0	305.373654127121	
65	282.5819389820099	fix_post	2		12	63.0	2.5	blank	1.0	305.8901810646057	0.09997010231018066
66	282.68190908432007	fix_pre	0		119	64.0	2.5	/experiments/aot/S_yt-nYi_FfCjepk_74.mp4	0.0	305.9901511669159	0.9916670322418213
66	283.657860994339	pulse	0	t		64.0	2.5	/experiments/aot/S_yt-nYi_FfCjepk_74.mp4	0.0	306.9661030769348	
66	283.6735761165619	movie	1		301	64.0	2.5	/experiments/aot/S_yt-nYi_FfCjepk_74.mp4	0.0	306.9818181991577	2.508309841156006
66	285.26138710975647	pulse	1	t		64.0	2.5	/experiments/aot/S_yt-nYi_FfCjepk_74.mp4	0.0	308.5696291923523	
66	286.1818859577179	fix_post	2		12	64.0	2.5	/experiments/aot/S_yt-nYi_FfCjepk_74.mp4	0.0	309.4901280403137	0.09999513626098633
67	286.2818810939789	fix_pre	0		120	65.0	2.5	/experiments/aot/R_S_ILSVRC2015_train_00762000.mp4	0.0	309.5901231765747	1.000046968460083
67	286.8579330444336	pulse	0	t		65.0	2.5	/experiments/aot/R_S_ILSVRC2015_train_00762000.mp4	0.0	310.1661751270294	
67	287.28192806243896	movie	1		300	65.0	2.5	/experiments/aot/R_S_ILSVRC2015_train_00762000.mp4	0.0	310.5901701450348	2.500148057937622
67	288.4575729370117	pulse	1	t		65.0	2.5	/experiments/aot/R_S_ILSVRC2015_train_00762000.mp4	0.0	311.76581501960754	
67	289.7820761203766	fix_post	2		12	65.0	2.5	/experiments/aot/R_S_ILSVRC2015_train_00762000.mp4	0.0	313.0903182029724	0.09958291053771973
68	289.8816590309143	fix_pre	0		120	66.0	2.5	/experiments/aot/S_yt-6xXEMHBQ08A_28.mp4	0.0	313.18990111351013	1.0001370906829834
68	290.0579869747162	pulse	0	t		66.0	2.5	/experiments/aot/S_yt-6xXEMHBQ08A_28.mp4	0.0	313.366229057312	
68	290.8817961215973	movie	1		300	66.0	2.5	/experiments/aot/S_yt-6xXEMHBQ08A_28.mp4	0.0	314.1900382041931	2.5000929832458496
68	291.6653320789337	pulse	1	t		66.0	2.5	/experiments/aot/S_yt-6xXEMHBQ08A_28.mp4	0.0	314.97357416152954	
68	293.25948905944824	pulse	1	t		66.0	2.5	/experiments/aot/S_yt-6xXEMHBQ08A_28.mp4	0.0	316.56773114204407	
68	293.38188910484314	fix_post	2		12	66.0	2.5	/experiments/aot/S_yt-6xXEMHBQ08A_28.mp4	0.0	316.69013118743896	0.09997892379760742
69	293.48186802864075	fix_pre	0		120	67.0	2.5	/experiments/aot/R_S_video.mp4	0.0	316.7901101112366	0.9999949932098389
69	294.4818630218506	movie	1		167	67.0	2.5	/experiments/aot/R_S_video.mp4	0.0	317.7901051044464	2.4998679161071777
69	294.8650801181793	pulse	1	t		67.0	2.5	/experiments/aot/R_S_video.mp4	0.0	318.17332220077515	
69	296.46572709083557	pulse	1	t		67.0	2.5	/experiments/aot/R_S_video.mp4	0.0	319.7739691734314	
69	296.98173093795776	fix_post	2		12	67.0	2.5	/experiments/aot/R_S_video.mp4	0.0	320.2899730205536	0.10002017021179199
70	297.08175110816956	fix_pre	0		119	68.0	2.5	/experiments/aot/S_yt-OdTWn1U1mO4_68.mp4	0.0	320.3899931907654	0.9917140007019043
70	298.0652720928192	pulse	0	t		68.0	2.5	/experiments/aot/S_yt-OdTWn1U1mO4_68.mp4	0.0	321.37351417541504	
70	298.07346510887146	movie	1		301	68.0	2.5	/experiments/aot/S_yt-OdTWn1U1mO4_68.mp4	0.0	321.3817071914673	2.508375883102417
70	299.6610789299011	pulse	1	t		68.0	2.5	/experiments/aot/S_yt-OdTWn1U1mO4_68.mp4	0.0	322.96932101249695	
70	300.5818409919739	fix_post	2		12	68.0	2.5	/experiments/aot/S_yt-OdTWn1U1mO4_68.mp4	0.0	323.8900830745697	0.09993290901184082
71	300.6817739009857	fix_pre	0		120	69.0	2.5	blank	1.0	323.99001598358154	1.000016212463379
71	301.25773906707764	pulse	0	t		69.0	2.5	blank	1.0	324.56598114967346	
71	301.6817901134491	movie	1		300	69.0	2.5	blank	1.0	324.9900321960449	2.499931812286377
71	302.8576810359955	pulse	1	t		69.0	2.5	blank	1.0	326.1659231185913	
71	304.1817219257355	fix_post	2		12	69.0	2.5	blank	1.0	327.4899640083313	0.10003209114074707
72	304.2817540168762	fix_pre	0		120	70.0	2.5	/experiments/aot/R_S_yt-nMWqezngycw_10.mp4	0.0	327.58999609947205	1.0000700950622559
72	304.4577651023865	pulse	0	t		70.0	2.5	/experiments/aot/R_S_yt-nMWqezngycw_10.mp4	0.0	327.7660071849823	
72	305.2818241119385	movie	1		300	70.0	2.5	/experiments/aot/R_S_yt-nMWqezngycw_10.mp4	0.0	328.5900661945343	2.4999778270721436
72	306.0579309463501	pulse	1	t		70.0	2.5	/experiments/aot/R_S_yt-nMWqezngycw_10.mp4	0.0	329.3661730289459	
72	307.6652729511261	pulse	1	t		70.0	2.5	/experiments/aot/R_S_yt-nMWqezngycw_10.mp4	0.0	330.9735150337219	
72	307.7818019390106	fix_post	2		12	70.0	2.5	/experiments/aot/R_S_yt-nMWqezngycw_10.mp4	0.0	331.09004402160645	0.09998297691345215
73	307.8817849159241	fix_pre	0		120	71.0	2.5	/experiments/aot/S_pexels-diva-plavalaguna-6985395_1.mp4	0.0	331.1900269985199	0.9999971389770508
73	308.8817820549011	movie	1		164	71.0	2.5	/experiments/aot/S_pexels-diva-plavalaguna-6985395_1.mp4	0.0	332.19002413749695	2.499958038330078
73	309.26532101631165	pulse	1	t		71.0	2.5	/experiments/aot/S_pexels-diva-plavalaguna-6985395_1.mp4	0.0	332.57356309890747	
73	310.8586549758911	pulse	1	t		71.0	2.5	/experiments/aot/S_pexels-diva-plavalaguna-6985395_1.mp4	0.0	334.16689705848694	
73	311.3817400932312	fix_post	2		12	71.0	2.5	/experiments/aot/S_pexels-diva-plavalaguna-6985395_1.mp4	0.0	334.689982175827	0.09997391700744629
74	311.48171401023865	fix_pre	0		119	72.0	2.5	/experiments/aot/R_S_yt-nn-8LZcafGs_25.mp4	0.0	334.7899560928345	0.9917049407958984
74	312.4652659893036	pulse	0	t		72.0	2.5	/experiments/aot/R_S_yt-nn-8LZcafGs_25.mp4	0.0	335.7735080718994	
74	312.47341895103455	movie	1		301	72.0	2.5	/experiments/aot/R_S_yt-nn-8LZcafGs_25.mp4	0.0	335.78166103363037	2.5082991123199463
74	314.0609669685364	pulse	1	t		72.0	2.5	/experiments/aot/R_S_yt-nn-8LZcafGs_25.mp4	0.0	337.3692090511322	
74	314.9817180633545	fix_post	2		12	72.0	2.5	/experiments/aot/R_S_yt-nn-8LZcafGs_25.mp4	0.0	338.2899601459503	0.09994387626647949
75	315.081661939621	fix_pre	0		120	73.0	2.5	/experiments/aot/S_production_ID_4325591.mp4	0.0	338.3899040222168	1.0000901222229004
75	315.66521692276	pulse	0	t		73.0	2.5	/experiments/aot/S_production_ID_4325591.mp4	0.0	338.97345900535583	
75	316.0817520618439	movie	1		170	73.0	2.5	/experiments/aot/S_production_ID_4325591.mp4	0.0	339.3899941444397	2.4998810291290283
75	317.2652690410614	pulse	1	t		73.0	2.5	/experiments/aot/S_production_ID_4325591.mp4	0.0	340.5735111236572	
75	318.5816330909729	fix_post	2		12	73.0	2.5	/experiments/aot/S_production_ID_4325591.mp4	0.0	341.8898751735687	0.10007286071777344
76	318.6817059516907	fix_pre	0		120	74.0	2.5	/experiments/aot/S_yt-uE9XoCLZlFo_1.mp4	0.0	341.9899480342865	0.9999949932098389
76	318.8652060031891	pulse	0	t		74.0	2.5	/experiments/aot/S_yt-uE9XoCLZlFo_1.mp4	0.0	342.1734480857849	
76	319.6817009449005	movie	1		300	74.0	2.5	/experiments/aot/S_yt-uE9XoCLZlFo_1.mp4	0.0	342.98994302749634	2.4999749660491943
76	320.45774698257446	pulse	1	t		74.0	2.5	/experiments/aot/S_yt-uE9XoCLZlFo_1.mp4	0.0	343.7659890651703	
76	322.05854892730713	pulse	1	t		74.0	2.5	/experiments/aot/S_yt-uE9XoCLZlFo_1.mp4	0.0	345.36679100990295	
76	322.1816759109497	fix_post	2		12	74.0	2.5	/experiments/aot/S_yt-uE9XoCLZlFo_1.mp4	0.0	345.48991799354553	0.09999203681945801
77	322.28166794776917	fix_pre	0		120	75.0	2.5	/experiments/aot/S_yt-etQaTgGOhR4_69.mp4	0.0	345.589910030365	0.999953031539917
77	323.2816209793091	movie	1		300	75.0	2.5	/experiments/aot/S_yt-etQaTgGOhR4_69.mp4	0.0	346.5898630619049	2.500014066696167
77	323.6651780605316	pulse	1	t		75.0	2.5	/experiments/aot/S_yt-etQaTgGOhR4_69.mp4	0.0	346.97342014312744	
77	325.2651400566101	pulse	1	t		75.0	2.5	/experiments/aot/S_yt-etQaTgGOhR4_69.mp4	0.0	348.57338213920593	
77	325.78163504600525	fix_post	2		12	75.0	2.5	/experiments/aot/S_yt-etQaTgGOhR4_69.mp4	0.0	349.0898771286011	0.10003995895385742
78	325.8816750049591	fix_pre	0		119	76.0	2.5	blank	1.0	349.18991708755493	0.9916689395904541
78	326.86521196365356	pulse	0	t		76.0	2.5	blank	1.0	350.1734540462494	
78	326.87334394454956	movie	1		301	76.0	2.5	blank	1.0	350.1815860271454	2.508336067199707
78	328.4652419090271	pulse	1	t		76.0	2.5	blank	1.0	351.7734839916229	
78	329.38168001174927	fix_post	2		12	76.0	2.5	blank	1.0	352.6899220943451	0.09999203681945801
79	329.4816720485687	fix_pre	0		120	77.0	2.5	/experiments/aot/R_S_yt-wEbfIR14zZ8_7.mp4	0.0	352.78991413116455	0.9999878406524658
79	330.0652210712433	pulse	0	t		77.0	2.5	/experiments/aot/R_S_yt-wEbfIR14zZ8_7.mp4	0.0	353.3734631538391	
79	330.4816598892212	movie	1		300	77.0	2.5	/experiments/aot/R_S_yt-wEbfIR14zZ8_7.mp4	0.0	353.789901971817	2.499951124191284
79	331.6651690006256	pulse	1	t		77.0	2.5	/experiments/aot/R_S_yt-wEbfIR14zZ8_7.mp4	0.0	354.97341108322144	
79	332.9816110134125	fix_post	2		12	77.0	2.5	/experiments/aot/R_S_yt-wEbfIR14zZ8_7.mp4	0.0	356.2898530960083	0.09999489784240723
80	333.0816059112549	fix_pre	0		120	78.0	2.5	/experiments/aot/S_Pexels_Videos_2791797.mp4	0.0	356.3898479938507	0.9999270439147949
80	333.26529002189636	pulse	0	t		78.0	2.5	/experiments/aot/S_Pexels_Videos_2791797.mp4	0.0	356.5735321044922	
80	334.0815329551697	movie	1		166	78.0	2.5	/experiments/aot/S_Pexels_Videos_2791797.mp4	0.0	357.3897750377655	2.5000369548797607
80	334.8651239871979	pulse	1	t		78.0	2.5	/experiments/aot/S_Pexels_Videos_2791797.mp4	0.0	358.1733660697937	
80	336.4653079509735	pulse	1	t		78.0	2.5	/experiments/aot/S_Pexels_Videos_2791797.mp4	0.0	359.77355003356934	
80	336.58156991004944	fix_post	2		12	78.0	2.5	/experiments/aot/S_Pexels_Videos_2791797.mp4	0.0	359.88981199264526	0.1000051498413086
81	336.68157505989075	fix_pre	0		120	79.0	2.5	/experiments/aot/R_S_ILSVRC2015_train_00569006.mp4	0.0	359.9898171424866	1.0000219345092773
81	337.6815969944	movie	1		298	79.0	2.5	/experiments/aot/R_S_ILSVRC2015_train_00569006.mp4	0.0	360.98983907699585	2.5000200271606445
81	338.0577669143677	pulse	1	t		79.0	2.5	/experiments/aot/R_S_ILSVRC2015_train_00569006.mp4	0.0	361.3660089969635	
81	339.66511511802673	pulse	1	t		79.0	2.5	/experiments/aot/R_S_ILSVRC2015_train_00569006.mp4	0.0	362.97335720062256	
81	340.18161702156067	fix_post	2		12	79.0	2.5	/experiments/aot/R_S_ILSVRC2015_train_00569006.mp4	0.0	363.4898591041565	0.10012602806091309
82	340.2817430496216	fix_pre	0		119	80.0	2.5	/experiments/aot/R_S_ILSVRC2015_train_00369000.mp4	0.0	363.5899851322174	0.9914689064025879
82	341.26522612571716	pulse	0	t		80.0	2.5	/experiments/aot/R_S_ILSVRC2015_train_00369000.mp4	0.0	364.573468208313	
82	341.27321195602417	movie	1		301	80.0	2.5	/experiments/aot/R_S_ILSVRC2015_train_00369000.mp4	0.0	364.58145403862	2.5079901218414307
82	342.8612720966339	pulse	1	t		80.0	2.5	/experiments/aot/R_S_ILSVRC2015_train_00369000.mp4	0.0	366.16951417922974	
82	343.7812020778656	fix_post	2		12	80.0	2.5	/experiments/aot/R_S_ILSVRC2015_train_00369000.mp4	0.0	367.0894441604614	0.10006189346313477
83	343.88126397132874	fix_pre	0		120	81.0	2.5	/experiments/aot/S_yt-hvuC_2YXsTQ_73.mp4	0.0	367.18950605392456	0.9999959468841553
83	344.46466398239136	pulse	0	t		81.0	2.5	/experiments/aot/S_yt-hvuC_2YXsTQ_73.mp4	0.0	367.7729060649872	
83	344.8812599182129	movie	1		300	81.0	2.5	/experiments/aot/S_yt-hvuC_2YXsTQ_73.mp4	0.0	368.1895020008087	2.5003530979156494
83	346.06487798690796	pulse	1	t		81.0	2.5	/experiments/aot/S_yt-hvuC_2YXsTQ_73.mp4	0.0	369.3731200695038	
83	347.38161301612854	fix_post	2		12	81.0	2.5	/experiments/aot/S_yt-hvuC_2YXsTQ_73.mp4	0.0	370.68985509872437	0.09995102882385254
84	347.4815640449524	fix_pre	0		120	82.0	2.5	/experiments/aot/R_S_ILSVRC2015_train_00762000.mp4	0.0	370.7898061275482	0.9999780654907227
84	347.6651859283447	pulse	0	t		82.0	2.5	/experiments/aot/R_S_ILSVRC2015_train_00762000.mp4	0.0	370.97342801094055	
84	348.4815421104431	movie	1		300	82.0	2.5	/experiments/aot/R_S_ILSVRC2015_train_00762000.mp4	0.0	371.78978419303894	2.5000009536743164
84	349.2650320529938	pulse	1	t		82.0	2.5	/experiments/aot/R_S_ILSVRC2015_train_00762000.mp4	0.0	372.5732741355896	
84	350.86509799957275	pulse	1	t		82.0	2.5	/experiments/aot/R_S_ILSVRC2015_train_00762000.mp4	0.0	374.1733400821686	
84	350.98154306411743	fix_post	2		12	82.0	2.5	/experiments/aot/R_S_ILSVRC2015_train_00762000.mp4	0.0	374.28978514671326	0.09989285469055176
85	351.081435918808	fix_pre	0		120	83.0	2.5	blank	1.0	374.3896780014038	1.0001180171966553
85	352.08155393600464	movie	1		300	83.0	2.5	blank	1.0	375.38979601860046	2.499907970428467
85	352.46495389938354	pulse	1	t		83.0	2.5	blank	1.0	375.77319598197937	
85	354.05758690834045	pulse	1	t		83.0	2.5	blank	1.0	377.3658289909363	
85	354.5814619064331	fix_post	2		12	83.0	2.5	blank	1.0	377.88970398902893	0.09998321533203125
87	354.68144512176514	stim	0		1716					377.98968720436096	14.30005693435669
87	355.6649990081787	pulse	0	t						378.97324109077454	
87	357.2649691104889	pulse	0	t						380.5732111930847	
87	358.8649399280548	pulse	0	t						382.17318201065063	
87	360.4649488925934	pulse	0	t						383.7731909751892	
87	362.0649480819702	pulse	0	t						385.37319016456604	
87	363.66496109962463	pulse	0	t						386.97320318222046	
87	365.2649450302124	pulse	0	t						388.5731871128082	
87	366.8649580478668	pulse	0	t						390.17320013046265	
87	368.4649119377136	pulse	0	t						391.77315402030945	
