trial_nr	onset	event_type	phase	response	nr_frames	movie_index	movie_duration	movie_file	blank	onset_abs	duration
0	0.15830492973327637	stim	0		227					22.65832805633545	1.891813039779663
0	2.0420398712158203	response	0	space						24.542062997817993	
1	2.0501179695129395	stim	0		4442					24.550141096115112	37.01655292510986
1	39.05976986885071	pulse	0	t						61.55979299545288	
1	39.0666708946228	stim	1		1717					61.566694021224976	14.308226108551025
1	40.65845203399658	pulse	1	t						63.158475160598755	
1	42.258508920669556	pulse	1	t						64.75853204727173	
1	43.8584098815918	pulse	1	t						66.35843300819397	
1	45.458457946777344	pulse	1	t						67.95848107337952	
1	47.05842995643616	pulse	1	t						69.55845308303833	
1	48.65828585624695	pulse	1	t						71.15830898284912	
1	50.25834083557129	pulse	1	t						72.75836396217346	
1	51.8584189414978	pulse	1	t						74.35844206809998	
2	53.37489700317383	fix_pre	0		11	0.0	2.5	/experiments/aot/S_yt-GOgS--rzmKQ_51.mp4	0.0	75.874920129776	0.09160804748535156
2	53.45798993110657	pulse	0	t		0.0	2.5	/experiments/aot/S_yt-GOgS--rzmKQ_51.mp4	0.0	75.95801305770874	
2	53.46650505065918	movie	1		300	0.0	2.5	/experiments/aot/S_yt-GOgS--rzmKQ_51.mp4	0.0	75.96652817726135	2.508197784423828
2	55.058066844940186	pulse	1	t		0.0	2.5	/experiments/aot/S_yt-GOgS--rzmKQ_51.mp4	0.0	77.55808997154236	
2	55.97470283508301	fix_post	2		12	0.0	2.5	/experiments/aot/S_yt-GOgS--rzmKQ_51.mp4	0.0	78.47472596168518	0.09995913505554199
3	56.07466197013855	fix_pre	0		120	1.0	2.5	/experiments/aot/S_yt-V4ptcLegCiw_161.mp4	0.0	78.57468509674072	1.0002660751342773
3	56.65864586830139	pulse	0	t		1.0	2.5	/experiments/aot/S_yt-V4ptcLegCiw_161.mp4	0.0	79.15866899490356	
3	57.07492804527283	movie	1		300	1.0	2.5	/experiments/aot/S_yt-V4ptcLegCiw_161.mp4	0.0	79.574951171875	2.500001907348633
3	58.25830888748169	pulse	1	t		1.0	2.5	/experiments/aot/S_yt-V4ptcLegCiw_161.mp4	0.0	80.75833201408386	
3	59.57492995262146	fix_post	2		12	1.0	2.5	/experiments/aot/S_yt-V4ptcLegCiw_161.mp4	0.0	82.07495307922363	0.10001897811889648
4	59.674948930740356	fix_pre	0		120	2.0	2.5	/experiments/aot/R_S_ILSVRC2015_train_00369004.mp4	0.0	82.17497205734253	0.9999840259552002
4	59.85833191871643	pulse	0	t		2.0	2.5	/experiments/aot/R_S_ILSVRC2015_train_00369004.mp4	0.0	82.3583550453186	
4	60.67493295669556	movie	1		299	2.0	2.5	/experiments/aot/R_S_ILSVRC2015_train_00369004.mp4	0.0	83.17495608329773	2.4999589920043945
4	61.458317041397095	pulse	1	t		2.0	2.5	/experiments/aot/R_S_ILSVRC2015_train_00369004.mp4	0.0	83.95834016799927	
4	63.05790185928345	pulse	1	t		2.0	2.5	/experiments/aot/R_S_ILSVRC2015_train_00369004.mp4	0.0	85.55792498588562	
4	63.17489194869995	fix_post	2		12	2.0	2.5	/experiments/aot/R_S_ILSVRC2015_train_00369004.mp4	0.0	85.67491507530212	0.09997105598449707
5	63.27486300468445	fix_pre	0		120	3.0	2.5	/experiments/aot/R_S_yt-5fZZrdwkFx0_28.mp4	0.0	85.77488613128662	0.9999258518218994
5	64.27478885650635	movie	1		300	3.0	2.5	/experiments/aot/R_S_yt-5fZZrdwkFx0_28.mp4	0.0	86.77481198310852	2.500152111053467
5	64.65830087661743	pulse	1	t		3.0	2.5	/experiments/aot/R_S_yt-5fZZrdwkFx0_28.mp4	0.0	87.1583240032196	
5	66.2582459449768	pulse	1	t		3.0	2.5	/experiments/aot/R_S_yt-5fZZrdwkFx0_28.mp4	0.0	88.75826907157898	
5	66.77494096755981	fix_post	2		12	3.0	2.5	/experiments/aot/R_S_yt-5fZZrdwkFx0_28.mp4	0.0	89.27496409416199	0.09987998008728027
6	66.8748209476471	fix_pre	0		119	4.0	2.5	/experiments/aot/S_yt-UojTppgtyCE_121.mp4	0.0	89.37484407424927	0.9916250705718994
6	67.85820698738098	pulse	0	t		4.0	2.5	/experiments/aot/S_yt-UojTppgtyCE_121.mp4	0.0	90.35823011398315	
6	67.866446018219	movie	1		301	4.0	2.5	/experiments/aot/S_yt-UojTppgtyCE_121.mp4	0.0	90.36646914482117	2.508356809616089
6	69.45828294754028	pulse	1	t		4.0	2.5	/experiments/aot/S_yt-UojTppgtyCE_121.mp4	0.0	91.95830607414246	
6	70.37480282783508	fix_post	2		12	4.0	2.5	/experiments/aot/S_yt-UojTppgtyCE_121.mp4	0.0	92.87482595443726	0.09995508193969727
7	70.47475790977478	fix_pre	0		120	5.0	2.5	/experiments/aot/S_yt-zgkJCgcT1s4_300.mp4	0.0	92.97478103637695	1.000002145767212
7	71.05829501152039	pulse	0	t		5.0	2.5	/experiments/aot/S_yt-zgkJCgcT1s4_300.mp4	0.0	93.55831813812256	
7	71.47476005554199	movie	1		300	5.0	2.5	/experiments/aot/S_yt-zgkJCgcT1s4_300.mp4	0.0	93.97478318214417	2.4999799728393555
7	72.65825986862183	pulse	1	t		5.0	2.5	/experiments/aot/S_yt-zgkJCgcT1s4_300.mp4	0.0	95.158282995224	
7	73.97474002838135	fix_post	2		12	5.0	2.5	/experiments/aot/S_yt-zgkJCgcT1s4_300.mp4	0.0	96.47476315498352	0.10001301765441895
8	74.07475304603577	fix_pre	0		120	6.0	2.5	blank	1.0	96.57477617263794	1.0000078678131104
8	74.2583589553833	pulse	0	t		6.0	2.5	blank	1.0	96.75838208198547	
8	75.07476091384888	movie	1		300	6.0	2.5	blank	1.0	97.57478404045105	2.500070095062256
8	75.85836696624756	pulse	1	t		6.0	2.5	blank	1.0	98.35839009284973	
8	77.45818495750427	pulse	1	t		6.0	2.5	blank	1.0	99.95820808410645	
8	77.57483100891113	fix_post	2		12	6.0	2.5	blank	1.0	100.0748541355133	0.09988284111022949
9	77.67471385002136	fix_pre	0		120	7.0	2.5	/experiments/aot/R_S_yt-UzWRbs9Syf4_7.mp4	0.0	100.17473697662354	1.0000851154327393
9	78.6747989654541	movie	1		300	7.0	2.5	/experiments/aot/R_S_yt-UzWRbs9Syf4_7.mp4	0.0	101.17482209205627	2.499911069869995
9	79.05825090408325	pulse	1	t		7.0	2.5	/experiments/aot/R_S_yt-UzWRbs9Syf4_7.mp4	0.0	101.55827403068542	
9	80.6582100391388	pulse	1	t		7.0	2.5	/experiments/aot/R_S_yt-UzWRbs9Syf4_7.mp4	0.0	103.15823316574097	
9	81.1747100353241	fix_post	2		12	7.0	2.5	/experiments/aot/R_S_yt-UzWRbs9Syf4_7.mp4	0.0	103.67473316192627	0.10003399848937988
10	81.27474403381348	fix_pre	0		119	8.0	2.5	/experiments/aot/S_yt-SHTeTAnZgho_43.mp4	0.0	103.77476716041565	0.9916849136352539
10	82.25816488265991	pulse	0	t		8.0	2.5	/experiments/aot/S_yt-SHTeTAnZgho_43.mp4	0.0	104.75818800926208	
10	82.26642894744873	movie	1		301	8.0	2.5	/experiments/aot/S_yt-SHTeTAnZgho_43.mp4	0.0	104.7664520740509	2.508409023284912
10	83.85821390151978	pulse	1	t		8.0	2.5	/experiments/aot/S_yt-SHTeTAnZgho_43.mp4	0.0	106.35823702812195	
10	84.77483797073364	fix_post	2		12	8.0	2.5	/experiments/aot/S_yt-SHTeTAnZgho_43.mp4	0.0	107.27486109733582	0.0998220443725586
11	84.8746600151062	fix_pre	0		120	9.0	2.5	/experiments/aot/R_S_yt-kINZMjys3O4_112.mp4	0.0	107.37468314170837	1.0001130104064941
11	85.45827984809875	pulse	0	t		9.0	2.5	/experiments/aot/R_S_yt-kINZMjys3O4_112.mp4	0.0	107.95830297470093	
11	85.8747730255127	movie	1		299	9.0	2.5	/experiments/aot/R_S_yt-kINZMjys3O4_112.mp4	0.0	108.37479615211487	2.4999589920043945
11	87.05818700790405	pulse	1	t		9.0	2.5	/experiments/aot/R_S_yt-kINZMjys3O4_112.mp4	0.0	109.55821013450623	
11	88.37473201751709	fix_post	2		12	9.0	2.5	/experiments/aot/R_S_yt-kINZMjys3O4_112.mp4	0.0	110.87475514411926	0.10002684593200684
12	88.4747588634491	fix_pre	0		120	10.0	2.5	/experiments/aot/S_production_ID_5049072.mp4	0.0	110.97478199005127	1.0000340938568115
12	88.65826296806335	pulse	0	t		10.0	2.5	/experiments/aot/S_production_ID_5049072.mp4	0.0	111.15828609466553	
12	89.47479295730591	movie	1		162	10.0	2.5	/experiments/aot/S_production_ID_5049072.mp4	0.0	111.97481608390808	2.4999608993530273
12	90.25829005241394	pulse	1	t		10.0	2.5	/experiments/aot/S_production_ID_5049072.mp4	0.0	112.75831317901611	
12	91.85825705528259	pulse	1	t		10.0	2.5	/experiments/aot/S_production_ID_5049072.mp4	0.0	114.35828018188477	
12	91.97475385665894	fix_post	2		12	10.0	2.5	/experiments/aot/S_production_ID_5049072.mp4	0.0	114.47477698326111	0.0999910831451416
13	92.07474493980408	fix_pre	0		120	11.0	2.5	/experiments/aot/R_S_comp_DB_D001_C001_PSNK_v06_SDR_PS_20180824_SDR_2K_AVC.mp4	0.0	114.57476806640625	0.9999690055847168
13	93.0747139453888	movie	1		168	11.0	2.5	/experiments/aot/R_S_comp_DB_D001_C001_PSNK_v06_SDR_PS_20180824_SDR_2K_AVC.mp4	0.0	115.57473707199097	2.5000579357147217
13	93.45841884613037	pulse	1	t		11.0	2.5	/experiments/aot/R_S_comp_DB_D001_C001_PSNK_v06_SDR_PS_20180824_SDR_2K_AVC.mp4	0.0	115.95844197273254	
13	95.05792999267578	pulse	1	t		11.0	2.5	/experiments/aot/R_S_comp_DB_D001_C001_PSNK_v06_SDR_PS_20180824_SDR_2K_AVC.mp4	0.0	117.55795311927795	
13	95.57477188110352	fix_post	2		12	11.0	2.5	/experiments/aot/R_S_comp_DB_D001_C001_PSNK_v06_SDR_PS_20180824_SDR_2K_AVC.mp4	0.0	118.07479500770569	0.09995412826538086
14	95.6747260093689	fix_pre	0		119	12.0	2.5	/experiments/aot/R_S_yt-bQRBtP9zkms_111.mp4	0.0	118.17474913597107	0.9915528297424316
14	96.65823888778687	pulse	0	t		12.0	2.5	/experiments/aot/R_S_yt-bQRBtP9zkms_111.mp4	0.0	119.15826201438904	
14	96.66627883911133	movie	1		301	12.0	2.5	/experiments/aot/R_S_yt-bQRBtP9zkms_111.mp4	0.0	119.1663019657135	2.5084660053253174
14	98.25480103492737	pulse	1	t		12.0	2.5	/experiments/aot/R_S_yt-bQRBtP9zkms_111.mp4	0.0	120.75482416152954	
14	99.17474484443665	fix_post	2		12	12.0	2.5	/experiments/aot/R_S_yt-bQRBtP9zkms_111.mp4	0.0	121.67476797103882	0.09995508193969727
15	99.27469992637634	fix_pre	0		120	13.0	2.5	/experiments/aot/R_S_pexels-roman-odintsov-8232443.mp4	0.0	121.77472305297852	1.000049114227295
15	99.85818099975586	pulse	0	t		13.0	2.5	/experiments/aot/R_S_pexels-roman-odintsov-8232443.mp4	0.0	122.35820412635803	
15	100.27474904060364	movie	1		162	13.0	2.5	/experiments/aot/R_S_pexels-roman-odintsov-8232443.mp4	0.0	122.77477216720581	2.4998979568481445
15	101.45817685127258	pulse	1	t		13.0	2.5	/experiments/aot/R_S_pexels-roman-odintsov-8232443.mp4	0.0	123.95819997787476	
15	102.77464699745178	fix_post	2		12	13.0	2.5	/experiments/aot/R_S_pexels-roman-odintsov-8232443.mp4	0.0	125.27467012405396	0.10002493858337402
16	102.87467193603516	fix_pre	0		120	14.0	2.5	blank	1.0	125.37469506263733	1.000025987625122
16	103.05817484855652	pulse	0	t		14.0	2.5	blank	1.0	125.55819797515869	
16	103.87469792366028	movie	1		300	14.0	2.5	blank	1.0	126.37472105026245	2.4999070167541504
16	104.65816402435303	pulse	1	t		14.0	2.5	blank	1.0	127.1581871509552	
16	106.25817084312439	pulse	1	t		14.0	2.5	blank	1.0	128.75819396972656	
16	106.37460494041443	fix_post	2		12	14.0	2.5	blank	1.0	128.8746280670166	0.10001492500305176
17	106.47461986541748	fix_pre	0		120	15.0	2.5	/experiments/aot/S_flickr-lamujuri-10653517683_4.mp4	0.0	128.97464299201965	1.0000011920928955
17	107.47462105751038	movie	1		163	15.0	2.5	/experiments/aot/S_flickr-lamujuri-10653517683_4.mp4	0.0	129.97464418411255	2.5000898838043213
17	107.85955095291138	pulse	1	t		15.0	2.5	/experiments/aot/S_flickr-lamujuri-10653517683_4.mp4	0.0	130.35957407951355	
17	109.4580249786377	pulse	1	t		15.0	2.5	/experiments/aot/S_flickr-lamujuri-10653517683_4.mp4	0.0	131.95804810523987	
17	109.9747109413147	fix_post	2		12	15.0	2.5	/experiments/aot/S_flickr-lamujuri-10653517683_4.mp4	0.0	132.47473406791687	0.09995794296264648
18	110.07466888427734	fix_pre	0		119	16.0	2.5	/experiments/aot/R_S_yt-zKnjBBYWe90_369.mp4	0.0	132.57469201087952	0.9916961193084717
18	111.05817985534668	pulse	0	t		16.0	2.5	/experiments/aot/R_S_yt-zKnjBBYWe90_369.mp4	0.0	133.55820298194885	
18	111.06636500358582	movie	1		301	16.0	2.5	/experiments/aot/R_S_yt-zKnjBBYWe90_369.mp4	0.0	133.566388130188	2.5083060264587402
18	112.6580798625946	pulse	1	t		16.0	2.5	/experiments/aot/R_S_yt-zKnjBBYWe90_369.mp4	0.0	135.15810298919678	
18	113.57467103004456	fix_post	2		12	16.0	2.5	/experiments/aot/R_S_yt-zKnjBBYWe90_369.mp4	0.0	136.07469415664673	0.09995102882385254
19	113.67462205886841	fix_pre	0		120	17.0	2.5	/experiments/aot/R_S_yt-zKnjBBYWe90_369.mp4	0.0	136.17464518547058	0.9999549388885498
19	114.25806283950806	pulse	0	t		17.0	2.5	/experiments/aot/R_S_yt-zKnjBBYWe90_369.mp4	0.0	136.75808596611023	
19	114.67457699775696	movie	1		300	17.0	2.5	/experiments/aot/R_S_yt-zKnjBBYWe90_369.mp4	0.0	137.17460012435913	2.499974012374878
19	115.85803389549255	pulse	1	t		17.0	2.5	/experiments/aot/R_S_yt-zKnjBBYWe90_369.mp4	0.0	138.35805702209473	
19	117.17455101013184	fix_post	2		12	17.0	2.5	/experiments/aot/R_S_yt-zKnjBBYWe90_369.mp4	0.0	139.674574136734	0.10012698173522949
20	117.27467799186707	fix_pre	0		120	18.0	2.5	/experiments/aot/R_S_pexels-cottonbro-9063801_1.mp4	0.0	139.77470111846924	0.9998488426208496
20	117.45815587043762	pulse	0	t		18.0	2.5	/experiments/aot/R_S_pexels-cottonbro-9063801_1.mp4	0.0	139.9581789970398	
20	118.27452683448792	movie	1		165	18.0	2.5	/experiments/aot/R_S_pexels-cottonbro-9063801_1.mp4	0.0	140.7745499610901	2.50007700920105
20	119.05814599990845	pulse	1	t		18.0	2.5	/experiments/aot/R_S_pexels-cottonbro-9063801_1.mp4	0.0	141.55816912651062	
20	120.65802884101868	pulse	1	t		18.0	2.5	/experiments/aot/R_S_pexels-cottonbro-9063801_1.mp4	0.0	143.15805196762085	
20	120.77460384368896	fix_post	2		12	18.0	2.5	/experiments/aot/R_S_pexels-cottonbro-9063801_1.mp4	0.0	143.27462697029114	0.09992313385009766
21	120.87452697753906	fix_pre	0		120	19.0	2.5	blank	1.0	143.37455010414124	1.0000438690185547
21	121.87457084655762	movie	1		300	19.0	2.5	blank	1.0	144.3745939731598	2.4999940395355225
21	122.25808095932007	pulse	1	t		19.0	2.5	blank	1.0	144.75810408592224	
21	123.85795283317566	pulse	1	t		19.0	2.5	blank	1.0	146.35797595977783	
21	124.37456488609314	fix_post	2		12	19.0	2.5	blank	1.0	146.8745880126953	0.09992504119873047
22	124.47448992729187	fix_pre	0		119	20.0	2.5	/experiments/aot/R_S_production_ID_4802716.mp4	0.0	146.97451305389404	0.9916539192199707
22	125.4579849243164	pulse	0	t		20.0	2.5	/experiments/aot/R_S_production_ID_4802716.mp4	0.0	147.95800805091858	
22	125.46614384651184	movie	1		163	20.0	2.5	/experiments/aot/R_S_production_ID_4802716.mp4	0.0	147.966166973114	2.5084280967712402
22	127.0579628944397	pulse	1	t		20.0	2.5	/experiments/aot/R_S_production_ID_4802716.mp4	0.0	149.55798602104187	
22	127.97457194328308	fix_post	2		12	20.0	2.5	/experiments/aot/R_S_production_ID_4802716.mp4	0.0	150.47459506988525	0.0999000072479248
23	128.074471950531	fix_pre	0		120	21.0	2.5	/experiments/aot/S_5Bc466bkeA0_35.mp4	0.0	150.57449507713318	1.000140905380249
23	128.6591989994049	pulse	0	t		21.0	2.5	/experiments/aot/S_5Bc466bkeA0_35.mp4	0.0	151.15922212600708	
23	129.07461285591125	movie	1		300	21.0	2.5	/experiments/aot/S_5Bc466bkeA0_35.mp4	0.0	151.57463598251343	2.499958038330078
23	130.25796794891357	pulse	1	t		21.0	2.5	/experiments/aot/S_5Bc466bkeA0_35.mp4	0.0	152.75799107551575	
23	131.57457089424133	fix_post	2		12	21.0	2.5	/experiments/aot/S_5Bc466bkeA0_35.mp4	0.0	154.0745940208435	0.0999901294708252
24	131.67456102371216	fix_pre	0		120	22.0	2.5	/experiments/aot/S_flickr-clarkstonscamp-4863427159_1.mp4	0.0	154.17458415031433	1.0000059604644775
24	131.85793590545654	pulse	0	t		22.0	2.5	/experiments/aot/S_flickr-clarkstonscamp-4863427159_1.mp4	0.0	154.35795903205872	
24	132.67456698417664	movie	1		300	22.0	2.5	/experiments/aot/S_flickr-clarkstonscamp-4863427159_1.mp4	0.0	155.1745901107788	2.4999630451202393
24	133.4579939842224	pulse	1	t		22.0	2.5	/experiments/aot/S_flickr-clarkstonscamp-4863427159_1.mp4	0.0	155.95801711082458	
24	135.05757188796997	pulse	1	t		22.0	2.5	/experiments/aot/S_flickr-clarkstonscamp-4863427159_1.mp4	0.0	157.55759501457214	
24	135.17453002929688	fix_post	2		12	22.0	2.5	/experiments/aot/S_flickr-clarkstonscamp-4863427159_1.mp4	0.0	157.67455315589905	0.09998798370361328
25	135.2745180130005	fix_pre	0		120	23.0	2.5	/experiments/aot/R_S_5Bc466bkeA0_35.mp4	0.0	157.77454113960266	0.9999918937683105
25	136.2745099067688	movie	1		299	23.0	2.5	/experiments/aot/R_S_5Bc466bkeA0_35.mp4	0.0	158.77453303337097	2.5000131130218506
25	136.65795803070068	pulse	1	t		23.0	2.5	/experiments/aot/R_S_5Bc466bkeA0_35.mp4	0.0	159.15798115730286	
25	138.25793290138245	pulse	1	t		23.0	2.5	/experiments/aot/R_S_5Bc466bkeA0_35.mp4	0.0	160.75795602798462	
25	138.77452301979065	fix_post	2		12	23.0	2.5	/experiments/aot/R_S_5Bc466bkeA0_35.mp4	0.0	161.27454614639282	0.09998202323913574
26	138.87450504302979	fix_pre	0		119	24.0	2.5	/experiments/aot/R_S_pexels-anthony-shkraba-production-8135459.mp4	0.0	161.37452816963196	0.9915609359741211
26	139.8579819202423	pulse	0	t		24.0	2.5	/experiments/aot/R_S_pexels-anthony-shkraba-production-8135459.mp4	0.0	162.35800504684448	
26	139.8660659790039	movie	1		163	24.0	2.5	/experiments/aot/R_S_pexels-anthony-shkraba-production-8135459.mp4	0.0	162.36608910560608	2.5083930492401123
26	141.45756888389587	pulse	1	t		24.0	2.5	/experiments/aot/R_S_pexels-anthony-shkraba-production-8135459.mp4	0.0	163.95759201049805	
26	142.37445902824402	fix_post	2		12	24.0	2.5	/experiments/aot/R_S_pexels-anthony-shkraba-production-8135459.mp4	0.0	164.8744821548462	0.09996390342712402
27	142.47442293167114	fix_pre	0		120	25.0	2.5	/experiments/aot/R_S_yt-2pRKCSgdXXU_30.mp4	0.0	164.97444605827332	1.0001039505004883
27	143.0591700077057	pulse	0	t		25.0	2.5	/experiments/aot/R_S_yt-2pRKCSgdXXU_30.mp4	0.0	165.55919313430786	
27	143.47452688217163	movie	1		300	25.0	2.5	/experiments/aot/R_S_yt-2pRKCSgdXXU_30.mp4	0.0	165.9745500087738	2.4998841285705566
27	144.65795588493347	pulse	1	t		25.0	2.5	/experiments/aot/R_S_yt-2pRKCSgdXXU_30.mp4	0.0	167.15797901153564	
27	145.9744110107422	fix_post	2		12	25.0	2.5	/experiments/aot/R_S_yt-2pRKCSgdXXU_30.mp4	0.0	168.47443413734436	0.10000801086425781
28	146.07441902160645	fix_pre	0		120	26.0	2.5	blank	1.0	168.57444214820862	1.0000579357147217
28	146.25802302360535	pulse	0	t		26.0	2.5	blank	1.0	168.75804615020752	
28	147.07447695732117	movie	1		300	26.0	2.5	blank	1.0	169.57450008392334	2.5000290870666504
28	147.85790300369263	pulse	1	t		26.0	2.5	blank	1.0	170.3579261302948	
28	149.45782995224	pulse	1	t		26.0	2.5	blank	1.0	171.95785307884216	
28	149.57450604438782	fix_post	2		12	26.0	2.5	blank	1.0	172.07452917099	0.09993791580200195
29	149.67444396018982	fix_pre	0		120	27.0	2.5	/experiments/aot/R_S_yt-Xkx53mjgj2E_30.mp4	0.0	172.174467086792	1.0000619888305664
29	150.67450594902039	movie	1		299	27.0	2.5	/experiments/aot/R_S_yt-Xkx53mjgj2E_30.mp4	0.0	173.17452907562256	2.499872922897339
29	151.0579879283905	pulse	1	t		27.0	2.5	/experiments/aot/R_S_yt-Xkx53mjgj2E_30.mp4	0.0	173.55801105499268	
29	152.6579020023346	pulse	1	t		27.0	2.5	/experiments/aot/R_S_yt-Xkx53mjgj2E_30.mp4	0.0	175.15792512893677	
29	153.17437887191772	fix_post	2		12	27.0	2.5	/experiments/aot/R_S_yt-Xkx53mjgj2E_30.mp4	0.0	175.6744019985199	0.10003805160522461
30	153.27441692352295	fix_pre	0		119	28.0	2.5	/experiments/aot/S_yt-kkbtZP78JxQ_96.mp4	0.0	175.77444005012512	0.9916031360626221
30	154.25802493095398	pulse	0	t		28.0	2.5	/experiments/aot/S_yt-kkbtZP78JxQ_96.mp4	0.0	176.75804805755615	
30	154.26602005958557	movie	1		301	28.0	2.5	/experiments/aot/S_yt-kkbtZP78JxQ_96.mp4	0.0	176.76604318618774	2.508408784866333
30	155.85795283317566	pulse	1	t		28.0	2.5	/experiments/aot/S_yt-kkbtZP78JxQ_96.mp4	0.0	178.35797595977783	
30	156.7744288444519	fix_post	2		12	28.0	2.5	/experiments/aot/S_yt-kkbtZP78JxQ_96.mp4	0.0	179.27445197105408	0.09999608993530273
31	156.8744249343872	fix_pre	0		120	29.0	2.5	/experiments/aot/R_S_yt-ejSzwn8tY8g_49.mp4	0.0	179.37444806098938	0.9999799728393555
31	157.4579038619995	pulse	0	t		29.0	2.5	/experiments/aot/R_S_yt-ejSzwn8tY8g_49.mp4	0.0	179.95792698860168	
31	157.87440490722656	movie	1		299	29.0	2.5	/experiments/aot/R_S_yt-ejSzwn8tY8g_49.mp4	0.0	180.37442803382874	2.500005006790161
31	159.05789995193481	pulse	1	t		29.0	2.5	/experiments/aot/R_S_yt-ejSzwn8tY8g_49.mp4	0.0	181.557923078537	
31	160.37440991401672	fix_post	2		12	29.0	2.5	/experiments/aot/R_S_yt-ejSzwn8tY8g_49.mp4	0.0	182.8744330406189	0.10000896453857422
32	160.4744188785553	fix_pre	0		120	30.0	2.5	/experiments/aot/S_yt-Q5Mfl5NdT7g_3.mp4	0.0	182.97444200515747	0.9998559951782227
32	160.6578390598297	pulse	0	t		30.0	2.5	/experiments/aot/S_yt-Q5Mfl5NdT7g_3.mp4	0.0	183.15786218643188	
32	161.47427487373352	movie	1		299	30.0	2.5	/experiments/aot/S_yt-Q5Mfl5NdT7g_3.mp4	0.0	183.9742980003357	2.500214099884033
32	162.25794792175293	pulse	1	t		30.0	2.5	/experiments/aot/S_yt-Q5Mfl5NdT7g_3.mp4	0.0	184.7579710483551	
32	163.85737299919128	pulse	1	t		30.0	2.5	/experiments/aot/S_yt-Q5Mfl5NdT7g_3.mp4	0.0	186.35739612579346	
32	163.97448897361755	fix_post	2		12	30.0	2.5	/experiments/aot/S_yt-Q5Mfl5NdT7g_3.mp4	0.0	186.47451210021973	0.09983992576599121
33	164.07432889938354	fix_pre	0		120	31.0	2.5	/experiments/aot/S_pexels-roman-odintsov-8232443.mp4	0.0	186.57435202598572	1.000201940536499
33	165.07453083992004	movie	1		160	31.0	2.5	/experiments/aot/S_pexels-roman-odintsov-8232443.mp4	0.0	187.57455396652222	2.499993085861206
33	165.45740604400635	pulse	1	t		31.0	2.5	/experiments/aot/S_pexels-roman-odintsov-8232443.mp4	0.0	187.95742917060852	
33	167.0579719543457	pulse	1	t		31.0	2.5	/experiments/aot/S_pexels-roman-odintsov-8232443.mp4	0.0	189.55799508094788	
33	167.57452392578125	fix_post	2		12	31.0	2.5	/experiments/aot/S_pexels-roman-odintsov-8232443.mp4	0.0	190.07454705238342	0.09964299201965332
34	167.6741669178009	fix_pre	0		119	32.0	2.5	/experiments/aot/R_S_pexels-cottonbro-9063801_1.mp4	0.0	190.17419004440308	0.9917700290679932
34	168.6577160358429	pulse	0	t		32.0	2.5	/experiments/aot/R_S_pexels-cottonbro-9063801_1.mp4	0.0	191.15773916244507	
34	168.6659369468689	movie	1		166	32.0	2.5	/experiments/aot/R_S_pexels-cottonbro-9063801_1.mp4	0.0	191.16596007347107	2.508424997329712
34	170.2572009563446	pulse	1	t		32.0	2.5	/experiments/aot/R_S_pexels-cottonbro-9063801_1.mp4	0.0	192.75722408294678	
34	171.1743619441986	fix_post	2		12	32.0	2.5	/experiments/aot/R_S_pexels-cottonbro-9063801_1.mp4	0.0	193.67438507080078	0.09999608993530273
35	171.2743580341339	fix_pre	0		120	33.0	2.5	blank	1.0	193.77438116073608	0.9999589920043945
35	171.85779404640198	pulse	0	t		33.0	2.5	blank	1.0	194.35781717300415	
35	172.2743170261383	movie	1		300	33.0	2.5	blank	1.0	194.77434015274048	2.4999239444732666
35	173.45767092704773	pulse	1	t		33.0	2.5	blank	1.0	195.9576940536499	
35	174.77424097061157	fix_post	2		12	33.0	2.5	blank	1.0	197.27426409721375	0.10000991821289062
36	174.87425088882446	fix_pre	0		120	34.0	2.5	/experiments/aot/R_S_production_ID_4325506.mp4	0.0	197.37427401542664	0.9999830722808838
36	175.0577268600464	pulse	0	t		34.0	2.5	/experiments/aot/R_S_production_ID_4325506.mp4	0.0	197.55774998664856	
36	175.87423396110535	movie	1		164	34.0	2.5	/experiments/aot/R_S_production_ID_4325506.mp4	0.0	198.37425708770752	2.4999959468841553
36	176.65781593322754	pulse	1	t		34.0	2.5	/experiments/aot/R_S_production_ID_4325506.mp4	0.0	199.1578390598297	
36	178.2577178478241	pulse	1	t		34.0	2.5	/experiments/aot/R_S_production_ID_4325506.mp4	0.0	200.75774097442627	
36	178.3742299079895	fix_post	2		12	34.0	2.5	/experiments/aot/R_S_production_ID_4325506.mp4	0.0	200.87425303459167	0.09997797012329102
37	178.4742078781128	fix_pre	0		120	35.0	2.5	/experiments/aot/R_S_yt-_zDYi2P-QxY_128.mp4	0.0	200.97423100471497	1.0000081062316895
37	179.47421598434448	movie	1		300	35.0	2.5	/experiments/aot/R_S_yt-_zDYi2P-QxY_128.mp4	0.0	201.97423911094666	2.500053882598877
37	179.8578040599823	pulse	1	t		35.0	2.5	/experiments/aot/R_S_yt-_zDYi2P-QxY_128.mp4	0.0	202.35782718658447	
37	181.45778489112854	pulse	1	t		35.0	2.5	/experiments/aot/R_S_yt-_zDYi2P-QxY_128.mp4	0.0	203.9578080177307	
37	181.97426986694336	fix_post	2		12	35.0	2.5	/experiments/aot/R_S_yt-_zDYi2P-QxY_128.mp4	0.0	204.47429299354553	0.10002303123474121
38	182.0742928981781	fix_pre	0		119	36.0	2.5	/experiments/aot/S_Y005_C003_SDR_2K_AVC.mp4	0.0	204.57431602478027	0.9916601181030273
38	183.05775785446167	pulse	0	t		36.0	2.5	/experiments/aot/S_Y005_C003_SDR_2K_AVC.mp4	0.0	205.55778098106384	
38	183.06595301628113	movie	1		163	36.0	2.5	/experiments/aot/S_Y005_C003_SDR_2K_AVC.mp4	0.0	205.5659761428833	2.5083370208740234
38	184.65979385375977	pulse	1	t		36.0	2.5	/experiments/aot/S_Y005_C003_SDR_2K_AVC.mp4	0.0	207.15981698036194	
38	185.57429003715515	fix_post	2		12	36.0	2.5	/experiments/aot/S_Y005_C003_SDR_2K_AVC.mp4	0.0	208.07431316375732	0.09995484352111816
39	185.67424488067627	fix_pre	0		120	37.0	2.5	/experiments/aot/R_S_yt-kKRGgUhVRzc_74.mp4	0.0	208.17426800727844	1.0000109672546387
39	186.25768399238586	pulse	0	t		37.0	2.5	/experiments/aot/R_S_yt-kKRGgUhVRzc_74.mp4	0.0	208.75770711898804	
39	186.6742558479309	movie	1		300	37.0	2.5	/experiments/aot/R_S_yt-kKRGgUhVRzc_74.mp4	0.0	209.17427897453308	2.500028133392334
39	187.85768604278564	pulse	1	t		37.0	2.5	/experiments/aot/R_S_yt-kKRGgUhVRzc_74.mp4	0.0	210.35770916938782	
39	189.17428398132324	fix_post	2		12	37.0	2.5	/experiments/aot/R_S_yt-kKRGgUhVRzc_74.mp4	0.0	211.67430710792542	0.10003805160522461
40	189.27432203292847	fix_pre	0		120	38.0	2.5	/experiments/aot/S_comp_HK_H004_C001_PSNK_DENOISE_v14_SDR_PS_FINAL_20180731_SDR_2K_AVC.mp4	0.0	211.77434515953064	0.9999148845672607
40	189.4576759338379	pulse	0	t		38.0	2.5	/experiments/aot/S_comp_HK_H004_C001_PSNK_DENOISE_v14_SDR_PS_FINAL_20180731_SDR_2K_AVC.mp4	0.0	211.95769906044006	
40	190.27423691749573	movie	1		162	38.0	2.5	/experiments/aot/S_comp_HK_H004_C001_PSNK_DENOISE_v14_SDR_PS_FINAL_20180731_SDR_2K_AVC.mp4	0.0	212.7742600440979	2.499951124191284
40	191.0577268600464	pulse	1	t		38.0	2.5	/experiments/aot/S_comp_HK_H004_C001_PSNK_DENOISE_v14_SDR_PS_FINAL_20180731_SDR_2K_AVC.mp4	0.0	213.55774998664856	
40	192.6572608947754	pulse	1	t		38.0	2.5	/experiments/aot/S_comp_HK_H004_C001_PSNK_DENOISE_v14_SDR_PS_FINAL_20180731_SDR_2K_AVC.mp4	0.0	215.15728402137756	
40	192.774188041687	fix_post	2		12	38.0	2.5	/experiments/aot/S_comp_HK_H004_C001_PSNK_DENOISE_v14_SDR_PS_FINAL_20180731_SDR_2K_AVC.mp4	0.0	215.27421116828918	0.10006284713745117
41	192.87425088882446	fix_pre	0		120	39.0	2.5	/experiments/aot/S_ILSVRC2015_train_00368000.mp4	0.0	215.37427401542664	0.9999730587005615
41	193.87422394752502	movie	1		300	39.0	2.5	/experiments/aot/S_ILSVRC2015_train_00368000.mp4	0.0	216.3742470741272	2.4999639987945557
41	194.2576470375061	pulse	1	t		39.0	2.5	/experiments/aot/S_ILSVRC2015_train_00368000.mp4	0.0	216.75767016410828	
41	195.85769891738892	pulse	1	t		39.0	2.5	/experiments/aot/S_ILSVRC2015_train_00368000.mp4	0.0	218.3577220439911	
41	196.37418794631958	fix_post	2		12	39.0	2.5	/experiments/aot/S_ILSVRC2015_train_00368000.mp4	0.0	218.87421107292175	0.10004305839538574
42	196.47423100471497	fix_pre	0		119	40.0	2.5	/experiments/aot/R_S_59eT4XDXNno_25.mp4	0.0	218.97425413131714	0.9916179180145264
42	197.45772504806519	pulse	0	t		40.0	2.5	/experiments/aot/R_S_59eT4XDXNno_25.mp4	0.0	219.95774817466736	
42	197.4658489227295	movie	1		301	40.0	2.5	/experiments/aot/R_S_59eT4XDXNno_25.mp4	0.0	219.96587204933167	2.5083630084991455
42	199.05458688735962	pulse	1	t		40.0	2.5	/experiments/aot/R_S_59eT4XDXNno_25.mp4	0.0	221.5546100139618	
42	199.97421193122864	fix_post	2		12	40.0	2.5	/experiments/aot/R_S_59eT4XDXNno_25.mp4	0.0	222.4742350578308	0.10001111030578613
43	200.07422304153442	fix_pre	0		120	41.0	2.5	/experiments/aot/S_ILSVRC2015_test_00004002.mp4	0.0	222.5742461681366	1.0001389980316162
43	200.6576828956604	pulse	0	t		41.0	2.5	/experiments/aot/S_ILSVRC2015_test_00004002.mp4	0.0	223.15770602226257	
43	201.07436203956604	movie	1		300	41.0	2.5	/experiments/aot/S_ILSVRC2015_test_00004002.mp4	0.0	223.5743851661682	2.4999759197235107
43	202.25768494606018	pulse	1	t		41.0	2.5	/experiments/aot/S_ILSVRC2015_test_00004002.mp4	0.0	224.75770807266235	
43	203.57433795928955	fix_post	2		12	41.0	2.5	/experiments/aot/S_ILSVRC2015_test_00004002.mp4	0.0	226.07436108589172	0.09980607032775879
44	203.6741440296173	fix_pre	0		120	42.0	2.5	blank	1.0	226.17416715621948	1.000032901763916
44	203.85786604881287	pulse	0	t		42.0	2.5	blank	1.0	226.35788917541504	
44	204.67417693138123	movie	1		300	42.0	2.5	blank	1.0	227.1742000579834	2.4999070167541504
44	205.45766592025757	pulse	1	t		42.0	2.5	blank	1.0	227.95768904685974	
44	207.05765199661255	pulse	1	t		42.0	2.5	blank	1.0	229.55767512321472	
44	207.17408394813538	fix_post	2		12	42.0	2.5	blank	1.0	229.67410707473755	0.09996199607849121
45	207.27404594421387	fix_pre	0		120	43.0	2.5	/experiments/aot/R_S_yt-ybH6uAiFbjc_273.mp4	0.0	229.77406907081604	1.0000009536743164
45	208.27404689788818	movie	1		299	43.0	2.5	/experiments/aot/R_S_yt-ybH6uAiFbjc_273.mp4	0.0	230.77407002449036	2.500077962875366
45	208.65758085250854	pulse	1	t		43.0	2.5	/experiments/aot/R_S_yt-ybH6uAiFbjc_273.mp4	0.0	231.15760397911072	
45	210.25767493247986	pulse	1	t		43.0	2.5	/experiments/aot/R_S_yt-ybH6uAiFbjc_273.mp4	0.0	232.75769805908203	
45	210.77412486076355	fix_post	2		12	43.0	2.5	/experiments/aot/R_S_yt-ybH6uAiFbjc_273.mp4	0.0	233.27414798736572	0.10002398490905762
46	210.8741488456726	fix_pre	0		119	44.0	2.5	/experiments/aot/S_b1-3.mp4	0.0	233.37417197227478	0.9915661811828613
46	211.85768699645996	pulse	0	t		44.0	2.5	/experiments/aot/S_b1-3.mp4	0.0	234.35771012306213	
46	211.86571502685547	movie	1		163	44.0	2.5	/experiments/aot/S_b1-3.mp4	0.0	234.36573815345764	2.508342981338501
46	213.45827984809875	pulse	1	t		44.0	2.5	/experiments/aot/S_b1-3.mp4	0.0	235.95830297470093	
46	214.37405800819397	fix_post	2		12	44.0	2.5	/experiments/aot/S_b1-3.mp4	0.0	236.87408113479614	0.1000828742980957
47	214.47414088249207	fix_pre	0		120	45.0	2.5	/experiments/aot/R_S_yt-aiDGx4AN8J0_9.mp4	0.0	236.97416400909424	0.9998950958251953
47	215.0575828552246	pulse	0	t		45.0	2.5	/experiments/aot/R_S_yt-aiDGx4AN8J0_9.mp4	0.0	237.55760598182678	
47	215.47403597831726	movie	1		300	45.0	2.5	/experiments/aot/R_S_yt-aiDGx4AN8J0_9.mp4	0.0	237.97405910491943	2.500014066696167
47	216.65757393836975	pulse	1	t		45.0	2.5	/experiments/aot/R_S_yt-aiDGx4AN8J0_9.mp4	0.0	239.15759706497192	
47	217.97405004501343	fix_post	2		12	45.0	2.5	/experiments/aot/R_S_yt-aiDGx4AN8J0_9.mp4	0.0	240.4740731716156	0.10000395774841309
48	218.07405400276184	fix_pre	0		120	46.0	2.5	/experiments/aot/R_S_yt-25xuzTBhwPk_109.mp4	0.0	240.574077129364	1.0000200271606445
48	218.2576220035553	pulse	0	t		46.0	2.5	/experiments/aot/R_S_yt-25xuzTBhwPk_109.mp4	0.0	240.75764513015747	
48	219.07407402992249	movie	1		299	46.0	2.5	/experiments/aot/R_S_yt-25xuzTBhwPk_109.mp4	0.0	241.57409715652466	2.499621868133545
48	219.85751795768738	pulse	1	t		46.0	2.5	/experiments/aot/R_S_yt-25xuzTBhwPk_109.mp4	0.0	242.35754108428955	
48	221.45714282989502	pulse	1	t		46.0	2.5	/experiments/aot/R_S_yt-25xuzTBhwPk_109.mp4	0.0	243.9571659564972	
48	221.57369589805603	fix_post	2		12	46.0	2.5	/experiments/aot/R_S_yt-25xuzTBhwPk_109.mp4	0.0	244.0737190246582	0.10001206398010254
49	221.67370796203613	fix_pre	0		120	47.0	2.5	blank	1.0	244.1737310886383	1.0005550384521484
49	222.67426300048828	movie	1		300	47.0	2.5	blank	1.0	245.17428612709045	2.499861001968384
49	223.05786085128784	pulse	1	t		47.0	2.5	blank	1.0	245.55788397789001	
49	224.6574318408966	pulse	1	t		47.0	2.5	blank	1.0	247.15745496749878	
49	225.17412400245667	fix_post	2		12	47.0	2.5	blank	1.0	247.67414712905884	0.09996604919433594
50	225.274090051651	fix_pre	0		119	48.0	2.5	/experiments/aot/R_S_PA_A004_C003_SDR_20190719_SDR_2K_AVC.mp4	0.0	247.77411317825317	0.9916129112243652
50	226.25754404067993	pulse	0	t		48.0	2.5	/experiments/aot/R_S_PA_A004_C003_SDR_20190719_SDR_2K_AVC.mp4	0.0	248.7575671672821	
50	226.26570296287537	movie	1		169	48.0	2.5	/experiments/aot/R_S_PA_A004_C003_SDR_20190719_SDR_2K_AVC.mp4	0.0	248.76572608947754	2.50833797454834
50	227.85790991783142	pulse	1	t		48.0	2.5	/experiments/aot/R_S_PA_A004_C003_SDR_20190719_SDR_2K_AVC.mp4	0.0	250.3579330444336	
50	228.7740409374237	fix_post	2		12	48.0	2.5	/experiments/aot/R_S_PA_A004_C003_SDR_20190719_SDR_2K_AVC.mp4	0.0	251.27406406402588	0.1000070571899414
51	228.87404799461365	fix_pre	0		120	49.0	2.5	/experiments/aot/S_yt-YlA-FPDylDE_100.mp4	0.0	251.37407112121582	0.9999399185180664
51	229.45743489265442	pulse	0	t		49.0	2.5	/experiments/aot/S_yt-YlA-FPDylDE_100.mp4	0.0	251.9574580192566	
51	229.8739879131317	movie	1		299	49.0	2.5	/experiments/aot/S_yt-YlA-FPDylDE_100.mp4	0.0	252.3740110397339	2.500054121017456
51	231.05750393867493	pulse	1	t		49.0	2.5	/experiments/aot/S_yt-YlA-FPDylDE_100.mp4	0.0	253.5575270652771	
51	232.37404203414917	fix_post	2		12	49.0	2.5	/experiments/aot/S_yt-YlA-FPDylDE_100.mp4	0.0	254.87406516075134	0.09997391700744629
52	232.47401595115662	fix_pre	0		120	50.0	2.5	/experiments/aot/R_S_9smWynsk6sI_158.mp4	0.0	254.9740390777588	0.9999499320983887
52	232.6574740409851	pulse	0	t		50.0	2.5	/experiments/aot/R_S_9smWynsk6sI_158.mp4	0.0	255.15749716758728	
52	233.473965883255	movie	1		300	50.0	2.5	/experiments/aot/R_S_9smWynsk6sI_158.mp4	0.0	255.97398900985718	2.500020980834961
52	234.25748896598816	pulse	1	t		50.0	2.5	/experiments/aot/R_S_9smWynsk6sI_158.mp4	0.0	256.75751209259033	
52	235.85711288452148	pulse	1	t		50.0	2.5	/experiments/aot/R_S_9smWynsk6sI_158.mp4	0.0	258.35713601112366	
52	235.97398686408997	fix_post	2		12	50.0	2.5	/experiments/aot/R_S_9smWynsk6sI_158.mp4	0.0	258.47400999069214	0.1000220775604248
53	236.0740089416504	fix_pre	0		120	51.0	2.5	/experiments/aot/S_yt-aqrdb6BiFx4_12.mp4	0.0	258.57403206825256	0.9999420642852783
53	237.07395100593567	movie	1		300	51.0	2.5	/experiments/aot/S_yt-aqrdb6BiFx4_12.mp4	0.0	259.57397413253784	2.500020980834961
53	237.4574420452118	pulse	1	t		51.0	2.5	/experiments/aot/S_yt-aqrdb6BiFx4_12.mp4	0.0	259.95746517181396	
53	239.05745196342468	pulse	1	t		51.0	2.5	/experiments/aot/S_yt-aqrdb6BiFx4_12.mp4	0.0	261.55747509002686	
53	239.57397198677063	fix_post	2		12	51.0	2.5	/experiments/aot/S_yt-aqrdb6BiFx4_12.mp4	0.0	262.0739951133728	0.10000085830688477
54	239.67397284507751	fix_pre	0		119	52.0	2.5	/experiments/aot/R_S_yt-gMqeZkpA_1Q_61.mp4	0.0	262.1739959716797	0.9916560649871826
54	240.65753197669983	pulse	0	t		52.0	2.5	/experiments/aot/R_S_yt-gMqeZkpA_1Q_61.mp4	0.0	263.157555103302	
54	240.6656289100647	movie	1		301	52.0	2.5	/experiments/aot/R_S_yt-gMqeZkpA_1Q_61.mp4	0.0	263.16565203666687	2.5082590579986572
54	242.25750994682312	pulse	1	t		52.0	2.5	/experiments/aot/R_S_yt-gMqeZkpA_1Q_61.mp4	0.0	264.7575330734253	
54	243.17388796806335	fix_post	2		12	52.0	2.5	/experiments/aot/R_S_yt-gMqeZkpA_1Q_61.mp4	0.0	265.6739110946655	0.09997987747192383
55	243.27386784553528	fix_pre	0		120	53.0	2.5	/experiments/aot/S_PA_A004_C003_SDR_20190719_SDR_2K_AVC.mp4	0.0	265.77389097213745	1.0001251697540283
55	243.85747599601746	pulse	0	t		53.0	2.5	/experiments/aot/S_PA_A004_C003_SDR_20190719_SDR_2K_AVC.mp4	0.0	266.35749912261963	
55	244.2739930152893	movie	1		167	53.0	2.5	/experiments/aot/S_PA_A004_C003_SDR_20190719_SDR_2K_AVC.mp4	0.0	266.7740161418915	2.5001039505004883
55	245.45752000808716	pulse	1	t		53.0	2.5	/experiments/aot/S_PA_A004_C003_SDR_20190719_SDR_2K_AVC.mp4	0.0	267.95754313468933	
55	246.7740969657898	fix_post	2		12	53.0	2.5	/experiments/aot/S_PA_A004_C003_SDR_20190719_SDR_2K_AVC.mp4	0.0	269.27412009239197	0.09984397888183594
56	246.87394094467163	fix_pre	0		120	54.0	2.5	/experiments/aot/R_S_ILSVRC2015_train_00661001.mp4	0.0	269.3739640712738	1.0000319480895996
56	247.0575008392334	pulse	0	t		54.0	2.5	/experiments/aot/R_S_ILSVRC2015_train_00661001.mp4	0.0	269.55752396583557	
56	247.87397289276123	movie	1		300	54.0	2.5	/experiments/aot/R_S_ILSVRC2015_train_00661001.mp4	0.0	270.3739960193634	2.499932050704956
56	248.65744304656982	pulse	1	t		54.0	2.5	/experiments/aot/R_S_ILSVRC2015_train_00661001.mp4	0.0	271.157466173172	
56	250.25750184059143	pulse	1	t		54.0	2.5	/experiments/aot/R_S_ILSVRC2015_train_00661001.mp4	0.0	272.7575249671936	
56	250.3739049434662	fix_post	2		12	54.0	2.5	/experiments/aot/R_S_ILSVRC2015_train_00661001.mp4	0.0	272.87392807006836	0.1001279354095459
57	250.47403287887573	fix_pre	0		120	55.0	2.5	/experiments/aot/R_S_yt-MNo__ov96eI_22.mp4	0.0	272.9740560054779	0.9998979568481445
57	251.47393083572388	movie	1		299	55.0	2.5	/experiments/aot/R_S_yt-MNo__ov96eI_22.mp4	0.0	273.97395396232605	2.500075101852417
57	251.85746002197266	pulse	1	t		55.0	2.5	/experiments/aot/R_S_yt-MNo__ov96eI_22.mp4	0.0	274.35748314857483	
57	253.45739483833313	pulse	1	t		55.0	2.5	/experiments/aot/R_S_yt-MNo__ov96eI_22.mp4	0.0	275.9574179649353	
57	253.9740059375763	fix_post	2		12	55.0	2.5	/experiments/aot/R_S_yt-MNo__ov96eI_22.mp4	0.0	276.47402906417847	0.09989690780639648
58	254.0739028453827	fix_pre	0		119	56.0	2.5	blank	1.0	276.57392597198486	0.9916820526123047
58	255.05743885040283	pulse	0	t		56.0	2.5	blank	1.0	277.557461977005	
58	255.065584897995	movie	1		301	56.0	2.5	blank	1.0	277.56560802459717	2.508347988128662
58	256.6573688983917	pulse	1	t		56.0	2.5	blank	1.0	279.1573920249939	
58	257.57393288612366	fix_post	2		12	56.0	2.5	blank	1.0	280.07395601272583	0.0999150276184082
59	257.67384791374207	fix_pre	0		120	57.0	2.5	/experiments/aot/S_c5iVM3LI6kI_252.mp4	0.0	280.17387104034424	1.0001389980316162
59	258.257376909256	pulse	0	t		57.0	2.5	/experiments/aot/S_c5iVM3LI6kI_252.mp4	0.0	280.75740003585815	
59	258.6739869117737	movie	1		299	57.0	2.5	/experiments/aot/S_c5iVM3LI6kI_252.mp4	0.0	281.17401003837585	2.499979019165039
59	259.8573169708252	pulse	1	t		57.0	2.5	/experiments/aot/S_c5iVM3LI6kI_252.mp4	0.0	282.35734009742737	
59	261.1739659309387	fix_post	2		12	57.0	2.5	/experiments/aot/S_c5iVM3LI6kI_252.mp4	0.0	283.6739890575409	0.09984493255615234
60	261.2738108634949	fix_pre	0		120	58.0	2.5	/experiments/aot/S_comp_DB_D002_C003_PSNK_v04_SDR_PS_20180914_SDR_2K_AVC.mp4	0.0	283.77383399009705	1.0001111030578613
60	261.45730805397034	pulse	0	t		58.0	2.5	/experiments/aot/S_comp_DB_D002_C003_PSNK_v04_SDR_PS_20180914_SDR_2K_AVC.mp4	0.0	283.9573311805725	
60	262.27392196655273	movie	1		168	58.0	2.5	/experiments/aot/S_comp_DB_D002_C003_PSNK_v04_SDR_PS_20180914_SDR_2K_AVC.mp4	0.0	284.7739450931549	2.4999330043792725
60	263.05748295783997	pulse	1	t		58.0	2.5	/experiments/aot/S_comp_DB_D002_C003_PSNK_v04_SDR_PS_20180914_SDR_2K_AVC.mp4	0.0	285.55750608444214	
60	264.6572949886322	pulse	1	t		58.0	2.5	/experiments/aot/S_comp_DB_D002_C003_PSNK_v04_SDR_PS_20180914_SDR_2K_AVC.mp4	0.0	287.1573181152344	
60	264.773854970932	fix_post	2		12	58.0	2.5	/experiments/aot/S_comp_DB_D002_C003_PSNK_v04_SDR_PS_20180914_SDR_2K_AVC.mp4	0.0	287.2738780975342	0.0999760627746582
61	264.87383103370667	fix_pre	0		120	59.0	2.5	/experiments/aot/S_yt-mHLTJkMrkZI_143.mp4	0.0	287.37385416030884	1.0001239776611328
61	265.8739550113678	movie	1		299	59.0	2.5	/experiments/aot/S_yt-mHLTJkMrkZI_143.mp4	0.0	288.37397813796997	2.4998819828033447
61	266.25729990005493	pulse	1	t		59.0	2.5	/experiments/aot/S_yt-mHLTJkMrkZI_143.mp4	0.0	288.7573230266571	
61	267.85729694366455	pulse	1	t		59.0	2.5	/experiments/aot/S_yt-mHLTJkMrkZI_143.mp4	0.0	290.3573200702667	
61	268.37383699417114	fix_post	2		12	59.0	2.5	/experiments/aot/S_yt-mHLTJkMrkZI_143.mp4	0.0	290.8738601207733	0.09999585151672363
62	268.47383284568787	fix_pre	0		119	60.0	2.5	/experiments/aot/R_S_yt-kkbtZP78JxQ_96.mp4	0.0	290.97385597229004	0.9917581081390381
62	269.45722699165344	pulse	0	t		60.0	2.5	/experiments/aot/R_S_yt-kkbtZP78JxQ_96.mp4	0.0	291.9572501182556	
62	269.4655909538269	movie	1		301	60.0	2.5	/experiments/aot/R_S_yt-kkbtZP78JxQ_96.mp4	0.0	291.9656140804291	2.508241891860962
62	271.0573978424072	pulse	1	t		60.0	2.5	/experiments/aot/R_S_yt-kkbtZP78JxQ_96.mp4	0.0	293.5574209690094	
62	271.97383284568787	fix_post	2		12	60.0	2.5	/experiments/aot/R_S_yt-kkbtZP78JxQ_96.mp4	0.0	294.47385597229004	0.09997200965881348
63	272.0738048553467	fix_pre	0		120	61.0	2.5	blank	1.0	294.57382798194885	1.0001230239868164
63	272.65725803375244	pulse	0	t		61.0	2.5	blank	1.0	295.1572811603546	
63	273.0739278793335	movie	1		300	61.0	2.5	blank	1.0	295.57395100593567	2.4999239444732666
63	274.25723600387573	pulse	1	t		61.0	2.5	blank	1.0	296.7572591304779	
63	275.57385182380676	fix_post	2		12	61.0	2.5	blank	1.0	298.07387495040894	0.10007309913635254
64	275.6739249229431	fix_pre	0		120	62.0	2.5	/experiments/aot/S_production_ID_5049072.mp4	0.0	298.1739480495453	1.0000600814819336
64	275.8573100566864	pulse	0	t		62.0	2.5	/experiments/aot/S_production_ID_5049072.mp4	0.0	298.3573331832886	
64	276.67398500442505	movie	1		162	62.0	2.5	/experiments/aot/S_production_ID_5049072.mp4	0.0	299.1740081310272	2.5000548362731934
64	277.45686888694763	pulse	1	t		62.0	2.5	/experiments/aot/S_production_ID_5049072.mp4	0.0	299.9568920135498	
64	279.0575909614563	pulse	1	t		62.0	2.5	/experiments/aot/S_production_ID_5049072.mp4	0.0	301.5576140880585	
64	279.17403984069824	fix_post	2		12	62.0	2.5	/experiments/aot/S_production_ID_5049072.mp4	0.0	301.6740629673004	0.09961414337158203
65	279.2736539840698	fix_pre	0		120	63.0	2.5	/experiments/aot/S_yt-2pRKCSgdXXU_30.mp4	0.0	301.773677110672	1.0001039505004883
65	280.2737579345703	movie	1		300	63.0	2.5	/experiments/aot/S_yt-2pRKCSgdXXU_30.mp4	0.0	302.7737810611725	2.5000510215759277
65	280.6571969985962	pulse	1	t		63.0	2.5	/experiments/aot/S_yt-2pRKCSgdXXU_30.mp4	0.0	303.15722012519836	
65	282.25715494155884	pulse	1	t		63.0	2.5	/experiments/aot/S_yt-2pRKCSgdXXU_30.mp4	0.0	304.757178068161	
65	282.77380895614624	fix_post	2		12	63.0	2.5	/experiments/aot/S_yt-2pRKCSgdXXU_30.mp4	0.0	305.2738320827484	0.09996891021728516
66	282.8737778663635	fix_pre	0		119	64.0	2.5	/experiments/aot/R_S_yt-QFGyhhr1KSQ_9.mp4	0.0	305.3738009929657	0.9917361736297607
66	283.8572509288788	pulse	0	t		64.0	2.5	/experiments/aot/R_S_yt-QFGyhhr1KSQ_9.mp4	0.0	306.35727405548096	
66	283.8655140399933	movie	1		301	64.0	2.5	/experiments/aot/R_S_yt-QFGyhhr1KSQ_9.mp4	0.0	306.36553716659546	2.5083038806915283
66	285.45723390579224	pulse	1	t		64.0	2.5	/experiments/aot/R_S_yt-QFGyhhr1KSQ_9.mp4	0.0	307.9572570323944	
66	286.3738179206848	fix_post	2		12	64.0	2.5	/experiments/aot/R_S_yt-QFGyhhr1KSQ_9.mp4	0.0	308.873841047287	0.09992098808288574
67	286.4737389087677	fix_pre	0		120	65.0	2.5	/experiments/aot/R_S_wc-7ugQ0V4lxYkJ_131.mp4	0.0	308.9737620353699	1.000020980834961
67	287.0572249889374	pulse	0	t		65.0	2.5	/experiments/aot/R_S_wc-7ugQ0V4lxYkJ_131.mp4	0.0	309.55724811553955	
67	287.47375988960266	movie	1		300	65.0	2.5	/experiments/aot/R_S_wc-7ugQ0V4lxYkJ_131.mp4	0.0	309.97378301620483	2.499933958053589
67	288.65716886520386	pulse	1	t		65.0	2.5	/experiments/aot/R_S_wc-7ugQ0V4lxYkJ_131.mp4	0.0	311.15719199180603	
67	289.97369384765625	fix_post	2		12	65.0	2.5	/experiments/aot/R_S_wc-7ugQ0V4lxYkJ_131.mp4	0.0	312.4737169742584	0.10010409355163574
68	290.0737979412079	fix_pre	0		120	66.0	2.5	/experiments/aot/S_yt-HoRtvVuuvOs_5.mp4	0.0	312.57382106781006	0.9999969005584717
68	290.25720596313477	pulse	0	t		66.0	2.5	/experiments/aot/S_yt-HoRtvVuuvOs_5.mp4	0.0	312.75722908973694	
68	291.07379484176636	movie	1		299	66.0	2.5	/experiments/aot/S_yt-HoRtvVuuvOs_5.mp4	0.0	313.57381796836853	2.499885082244873
68	291.8571398258209	pulse	1	t		66.0	2.5	/experiments/aot/S_yt-HoRtvVuuvOs_5.mp4	0.0	314.3571629524231	
68	293.45669889450073	pulse	1	t		66.0	2.5	/experiments/aot/S_yt-HoRtvVuuvOs_5.mp4	0.0	315.9567220211029	
68	293.57367992401123	fix_post	2		12	66.0	2.5	/experiments/aot/S_yt-HoRtvVuuvOs_5.mp4	0.0	316.0737030506134	0.09998893737792969
69	293.67366886138916	fix_pre	0		120	67.0	2.5	/experiments/aot/R_S_G007_C004_UHD_SDR_2K_AVC.mp4	0.0	316.17369198799133	1.000007152557373
69	294.67367601394653	movie	1		168	67.0	2.5	/experiments/aot/R_S_G007_C004_UHD_SDR_2K_AVC.mp4	0.0	317.1736991405487	2.500013828277588
69	295.0571880340576	pulse	1	t		67.0	2.5	/experiments/aot/R_S_G007_C004_UHD_SDR_2K_AVC.mp4	0.0	317.5572111606598	
69	296.6572639942169	pulse	1	t		67.0	2.5	/experiments/aot/R_S_G007_C004_UHD_SDR_2K_AVC.mp4	0.0	319.1572871208191	
69	297.1736898422241	fix_post	2		12	67.0	2.5	/experiments/aot/R_S_G007_C004_UHD_SDR_2K_AVC.mp4	0.0	319.6737129688263	0.09999513626098633
70	297.2736849784851	fix_pre	0		119	68.0	2.5	/experiments/aot/R_S_yt--JnTDuElzXQ_121.mp4	0.0	319.7737081050873	0.9916880130767822
70	298.2572548389435	pulse	0	t		68.0	2.5	/experiments/aot/R_S_yt--JnTDuElzXQ_121.mp4	0.0	320.75727796554565	
70	298.2653729915619	movie	1		301	68.0	2.5	/experiments/aot/R_S_yt--JnTDuElzXQ_121.mp4	0.0	320.76539611816406	2.508293867111206
70	299.85725688934326	pulse	1	t		68.0	2.5	/experiments/aot/R_S_yt--JnTDuElzXQ_121.mp4	0.0	322.35728001594543	
70	300.7736668586731	fix_post	2		12	68.0	2.5	/experiments/aot/R_S_yt--JnTDuElzXQ_121.mp4	0.0	323.27368998527527	0.09998011589050293
71	300.8736469745636	fix_pre	0		120	69.0	2.5	blank	1.0	323.37367010116577	1.0000460147857666
71	301.45720291137695	pulse	0	t		69.0	2.5	blank	1.0	323.9572260379791	
71	301.87369298934937	movie	1		300	69.0	2.5	blank	1.0	324.37371611595154	2.5000579357147217
71	303.0572249889374	pulse	1	t		69.0	2.5	blank	1.0	325.55724811553955	
71	304.3737509250641	fix_post	2		12	69.0	2.5	blank	1.0	326.87377405166626	0.09987401962280273
72	304.4736249446869	fix_pre	0		120	70.0	2.5	/experiments/aot/S_yt-qycUhA3Isjg_76.mp4	0.0	326.97364807128906	1.0000150203704834
72	304.65721583366394	pulse	0	t		70.0	2.5	/experiments/aot/S_yt-qycUhA3Isjg_76.mp4	0.0	327.1572389602661	
72	305.4736399650574	movie	1		300	70.0	2.5	/experiments/aot/S_yt-qycUhA3Isjg_76.mp4	0.0	327.97366309165955	2.500035047531128
72	306.25710582733154	pulse	1	t		70.0	2.5	/experiments/aot/S_yt-qycUhA3Isjg_76.mp4	0.0	328.7571289539337	
72	307.85719895362854	pulse	1	t		70.0	2.5	/experiments/aot/S_yt-qycUhA3Isjg_76.mp4	0.0	330.3572220802307	
72	307.9736750125885	fix_post	2		12	70.0	2.5	/experiments/aot/S_yt-qycUhA3Isjg_76.mp4	0.0	330.4736981391907	0.09995698928833008
73	308.07363200187683	fix_pre	0		120	71.0	2.5	/experiments/aot/R_S_yt-SGTgMItFkxY_172.mp4	0.0	330.573655128479	0.9999408721923828
73	309.0735728740692	movie	1		299	71.0	2.5	/experiments/aot/R_S_yt-SGTgMItFkxY_172.mp4	0.0	331.5735960006714	2.500110149383545
73	309.45711183547974	pulse	1	t		71.0	2.5	/experiments/aot/R_S_yt-SGTgMItFkxY_172.mp4	0.0	331.9571349620819	
73	311.0571599006653	pulse	1	t		71.0	2.5	/experiments/aot/R_S_yt-SGTgMItFkxY_172.mp4	0.0	333.55718302726746	
73	311.57368302345276	fix_post	2		12	71.0	2.5	/experiments/aot/R_S_yt-SGTgMItFkxY_172.mp4	0.0	334.07370615005493	0.10002994537353516
74	311.6737129688263	fix_pre	0		119	72.0	2.5	/experiments/aot/R_S_yt-pOCEuqVE7ro_61.mp4	0.0	334.17373609542847	0.9916179180145264
74	312.6571340560913	pulse	0	t		72.0	2.5	/experiments/aot/R_S_yt-pOCEuqVE7ro_61.mp4	0.0	335.1571571826935	
74	312.6653308868408	movie	1		301	72.0	2.5	/experiments/aot/R_S_yt-pOCEuqVE7ro_61.mp4	0.0	335.165354013443	2.508312940597534
74	314.25711393356323	pulse	1	t		72.0	2.5	/experiments/aot/R_S_yt-pOCEuqVE7ro_61.mp4	0.0	336.7571370601654	
74	315.17364382743835	fix_post	2		12	72.0	2.5	/experiments/aot/R_S_yt-pOCEuqVE7ro_61.mp4	0.0	337.6736669540405	0.09998106956481934
75	315.2736248970032	fix_pre	0		120	73.0	2.5	/experiments/aot/S_yt-UmLeGNcqouI_718.mp4	0.0	337.77364802360535	0.9999921321868896
75	315.85715198516846	pulse	0	t		73.0	2.5	/experiments/aot/S_yt-UmLeGNcqouI_718.mp4	0.0	338.35717511177063	
75	316.27361702919006	movie	1		300	73.0	2.5	/experiments/aot/S_yt-UmLeGNcqouI_718.mp4	0.0	338.77364015579224	2.499950885772705
75	317.45695900917053	pulse	1	t		73.0	2.5	/experiments/aot/S_yt-UmLeGNcqouI_718.mp4	0.0	339.9569821357727	
75	318.77356791496277	fix_post	2		12	73.0	2.5	/experiments/aot/S_yt-UmLeGNcqouI_718.mp4	0.0	341.27359104156494	0.09996199607849121
76	318.87352991104126	fix_pre	0		120	74.0	2.5	/experiments/aot/S_yt-bQRBtP9zkms_111.mp4	0.0	341.37355303764343	1.0000231266021729
76	319.05711793899536	pulse	0	t		74.0	2.5	/experiments/aot/S_yt-bQRBtP9zkms_111.mp4	0.0	341.55714106559753	
76	319.87355303764343	movie	1		300	74.0	2.5	/experiments/aot/S_yt-bQRBtP9zkms_111.mp4	0.0	342.3735761642456	2.500037908554077
76	320.6571159362793	pulse	1	t		74.0	2.5	/experiments/aot/S_yt-bQRBtP9zkms_111.mp4	0.0	343.15713906288147	
76	322.2570290565491	pulse	1	t		74.0	2.5	/experiments/aot/S_yt-bQRBtP9zkms_111.mp4	0.0	344.75705218315125	
76	322.3735909461975	fix_post	2		12	74.0	2.5	/experiments/aot/S_yt-bQRBtP9zkms_111.mp4	0.0	344.8736140727997	0.09999608993530273
77	322.4735870361328	fix_pre	0		120	75.0	2.5	/experiments/aot/S_yt-McqS-QObQbk_122.mp4	0.0	344.973610162735	1.0000319480895996
77	323.4736189842224	movie	1		300	75.0	2.5	/experiments/aot/S_yt-McqS-QObQbk_122.mp4	0.0	345.9736421108246	2.4999499320983887
77	323.8569920063019	pulse	1	t		75.0	2.5	/experiments/aot/S_yt-McqS-QObQbk_122.mp4	0.0	346.35701513290405	
77	325.4569799900055	pulse	1	t		75.0	2.5	/experiments/aot/S_yt-McqS-QObQbk_122.mp4	0.0	347.95700311660767	
77	325.9735689163208	fix_post	2		12	75.0	2.5	/experiments/aot/S_yt-McqS-QObQbk_122.mp4	0.0	348.473592042923	0.09958505630493164
78	326.07315397262573	fix_pre	0		119	76.0	2.5	blank	1.0	348.5731770992279	0.9920558929443359
78	327.0569820404053	pulse	0	t		76.0	2.5	blank	1.0	349.55700516700745	
78	327.06520986557007	movie	1		301	76.0	2.5	blank	1.0	349.56523299217224	2.5082550048828125
78	328.65698504447937	pulse	1	t		76.0	2.5	blank	1.0	351.15700817108154	
78	329.5734648704529	fix_post	2		12	76.0	2.5	blank	1.0	352.07348799705505	0.10016918182373047
79	329.6736340522766	fix_pre	0		120	77.0	2.5	/experiments/aot/R_S_yt-G65z8p1YNhw_16.mp4	0.0	352.1736571788788	0.9999008178710938
79	330.25712394714355	pulse	0	t		77.0	2.5	/experiments/aot/R_S_yt-G65z8p1YNhw_16.mp4	0.0	352.7571470737457	
79	330.6735348701477	movie	1		300	77.0	2.5	/experiments/aot/R_S_yt-G65z8p1YNhw_16.mp4	0.0	353.1735579967499	2.4995691776275635
79	331.85693883895874	pulse	1	t		77.0	2.5	/experiments/aot/R_S_yt-G65z8p1YNhw_16.mp4	0.0	354.3569619655609	
79	333.17310404777527	fix_post	2		12	77.0	2.5	/experiments/aot/R_S_yt-G65z8p1YNhw_16.mp4	0.0	355.67312717437744	0.10001587867736816
80	333.27311992645264	fix_pre	0		120	78.0	2.5	/experiments/aot/R_S_ahJft-G235A_122.mp4	0.0	355.7731430530548	1.0004661083221436
80	333.45659494400024	pulse	0	t		78.0	2.5	/experiments/aot/R_S_ahJft-G235A_122.mp4	0.0	355.9566180706024	
80	334.2735860347748	movie	1		299	78.0	2.5	/experiments/aot/R_S_ahJft-G235A_122.mp4	0.0	356.77360916137695	2.499976873397827
80	335.0571839809418	pulse	1	t		78.0	2.5	/experiments/aot/R_S_ahJft-G235A_122.mp4	0.0	357.55720710754395	
80	336.6570110321045	pulse	1	t		78.0	2.5	/experiments/aot/R_S_ahJft-G235A_122.mp4	0.0	359.15703415870667	
80	336.7735629081726	fix_post	2		12	78.0	2.5	/experiments/aot/R_S_ahJft-G235A_122.mp4	0.0	359.2735860347748	0.10011506080627441
81	336.8736779689789	fix_pre	0		120	79.0	2.5	/experiments/aot/R_S_bing-www_yahoo_com_entertainment_anastasia-karanikolaou-chantel-jeffries-discuss-182400502_html_9.mp4	0.0	359.37370109558105	0.9998559951782227
81	337.8735339641571	movie	1		163	79.0	2.5	/experiments/aot/R_S_bing-www_yahoo_com_entertainment_anastasia-karanikolaou-chantel-jeffries-discuss-182400502_html_9.mp4	0.0	360.3735570907593	2.5000078678131104
81	338.2570798397064	pulse	1	t		79.0	2.5	/experiments/aot/R_S_bing-www_yahoo_com_entertainment_anastasia-karanikolaou-chantel-jeffries-discuss-182400502_html_9.mp4	0.0	360.7571029663086	
81	339.8570148944855	pulse	1	t		79.0	2.5	/experiments/aot/R_S_bing-www_yahoo_com_entertainment_anastasia-karanikolaou-chantel-jeffries-discuss-182400502_html_9.mp4	0.0	362.35703802108765	
81	340.3735418319702	fix_post	2		12	79.0	2.5	/experiments/aot/R_S_bing-www_yahoo_com_entertainment_anastasia-karanikolaou-chantel-jeffries-discuss-182400502_html_9.mp4	0.0	362.8735649585724	0.09994006156921387
82	340.47348189353943	fix_pre	0		119	80.0	2.5	/experiments/aot/S_yt-McqS-QObQbk_122.mp4	0.0	362.9735050201416	0.9916379451751709
82	341.456946849823	pulse	0	t		80.0	2.5	/experiments/aot/S_yt-McqS-QObQbk_122.mp4	0.0	363.95696997642517	
82	341.4651198387146	movie	1		301	80.0	2.5	/experiments/aot/S_yt-McqS-QObQbk_122.mp4	0.0	363.9651429653168	2.5083351135253906
82	343.05699706077576	pulse	1	t		80.0	2.5	/experiments/aot/S_yt-McqS-QObQbk_122.mp4	0.0	365.55702018737793	
82	343.97345495224	fix_post	2		12	80.0	2.5	/experiments/aot/S_yt-McqS-QObQbk_122.mp4	0.0	366.47347807884216	0.09995007514953613
83	344.0734050273895	fix_pre	0		120	81.0	2.5	/experiments/aot/R_S_yt-tOOaOzYvtKE_79.mp4	0.0	366.5734281539917	1.0000560283660889
83	344.6569550037384	pulse	0	t		81.0	2.5	/experiments/aot/R_S_yt-tOOaOzYvtKE_79.mp4	0.0	367.1569781303406	
83	345.0734610557556	movie	1		300	81.0	2.5	/experiments/aot/R_S_yt-tOOaOzYvtKE_79.mp4	0.0	367.5734841823578	2.5001089572906494
83	346.256875038147	pulse	1	t		81.0	2.5	/experiments/aot/R_S_yt-tOOaOzYvtKE_79.mp4	0.0	368.75689816474915	
83	347.57357001304626	fix_post	2		12	81.0	2.5	/experiments/aot/R_S_yt-tOOaOzYvtKE_79.mp4	0.0	370.07359313964844	0.09986400604248047
84	347.67343401908875	fix_pre	0		120	82.0	2.5	blank	1.0	370.1734571456909	0.9999339580535889
84	347.8569369316101	pulse	0	t		82.0	2.5	blank	1.0	370.3569600582123	
84	348.67336797714233	movie	1		300	82.0	2.5	blank	1.0	371.1733911037445	2.5000998973846436
84	349.45691204071045	pulse	1	t		82.0	2.5	blank	1.0	371.9569351673126	
84	351.0569179058075	pulse	1	t		82.0	2.5	blank	1.0	373.55694103240967	
84	351.173467874527	fix_post	2		12	82.0	2.5	blank	1.0	373.67349100112915	0.09994196891784668
85	351.2734098434448	fix_pre	0		120	83.0	2.5	/experiments/aot/S_yt-9t5-3Qe_t9A_591.mp4	0.0	373.773432970047	1.0000221729278564
85	352.2734320163727	movie	1		300	83.0	2.5	/experiments/aot/S_yt-9t5-3Qe_t9A_591.mp4	0.0	374.77345514297485	2.500025987625122
85	352.6569309234619	pulse	1	t		83.0	2.5	/experiments/aot/S_yt-9t5-3Qe_t9A_591.mp4	0.0	375.1569540500641	
85	354.2569959163666	pulse	1	t		83.0	2.5	/experiments/aot/S_yt-9t5-3Qe_t9A_591.mp4	0.0	376.75701904296875	
85	354.7734580039978	fix_post	2		12	83.0	2.5	/experiments/aot/S_yt-9t5-3Qe_t9A_591.mp4	0.0	377.2734811306	0.09993195533752441
87	354.8733899593353	stim	0		1716					377.3734130859375	14.300065994262695
87	355.8568639755249	pulse	0	t						378.3568871021271	
87	357.4567959308624	pulse	0	t						379.9568190574646	
87	359.0568358898163	pulse	0	t						381.55685901641846	
87	360.656898021698	pulse	0	t						383.15692114830017	
87	362.25680685043335	pulse	0	t						384.7568299770355	
87	363.85694003105164	pulse	0	t						386.3569631576538	
87	365.4568519592285	pulse	0	t						387.9568750858307	
87	367.0568950176239	pulse	0	t						389.5569181442261	
87	368.65687894821167	pulse	0	t						391.15690207481384	
