trial_nr	onset	event_type	phase	response	nr_frames	movie_index	movie_duration	movie_file	blank	onset_abs	duration
0	0.1493360996246338	stim	0		271					29.6602520942688	2.2588469982147217
0	2.399583101272583	response	0	space						31.910499095916748	
1	2.4081830978393555	stim	0		4215					31.91909909248352	35.12475895881653
1	37.52745819091797	pulse	0	t						67.03837418556213	
1	37.532942056655884	stim	1		1717					67.04385805130005	14.308236122131348
1	39.12479901313782	pulse	1	t						68.63571500778198	
1	40.72479319572449	pulse	1	t						70.23570919036865	
1	42.324788093566895	pulse	1	t						71.83570408821106	
1	43.92479920387268	pulse	1	t						73.43571519851685	
1	45.524848222732544	pulse	1	t						75.03576421737671	
1	47.12471604347229	pulse	1	t						76.63563203811646	
1	48.724746227264404	pulse	1	t						78.23566222190857	
1	50.3246591091156	pulse	1	t						79.83557510375977	
2	51.84117817878723	fix_pre	0		11	0.0	2.5	/experiments/aot/R_S_ILSVRC2015_train_00417000.mp4	0.0	81.3520941734314	0.09175896644592285
2	51.92481803894043	pulse	0	t		0.0	2.5	/experiments/aot/R_S_ILSVRC2015_train_00417000.mp4	0.0	81.4357340335846	
2	51.932937145233154	movie	1		298	0.0	2.5	/experiments/aot/R_S_ILSVRC2015_train_00417000.mp4	0.0	81.44385313987732	2.508228063583374
2	53.52475309371948	pulse	1	t		0.0	2.5	/experiments/aot/R_S_ILSVRC2015_train_00417000.mp4	0.0	83.03566908836365	
2	54.44116520881653	fix_post	2		12	0.0	2.5	/experiments/aot/R_S_ILSVRC2015_train_00417000.mp4	0.0	83.9520812034607	0.10001802444458008
3	54.54118323326111	fix_pre	0		120	1.0	2.5	/experiments/aot/R_S_yt-MEfljVFL0xw_375.mp4	0.0	84.05209922790527	1.0001459121704102
3	55.12479519844055	pulse	0	t		1.0	2.5	/experiments/aot/R_S_yt-MEfljVFL0xw_375.mp4	0.0	84.63571119308472	
3	55.54132914543152	movie	1		300	1.0	2.5	/experiments/aot/R_S_yt-MEfljVFL0xw_375.mp4	0.0	85.05224514007568	2.4994618892669678
3	56.72419023513794	pulse	1	t		1.0	2.5	/experiments/aot/R_S_yt-MEfljVFL0xw_375.mp4	0.0	86.2351062297821	
3	58.040791034698486	fix_post	2		12	1.0	2.5	/experiments/aot/R_S_yt-MEfljVFL0xw_375.mp4	0.0	87.55170702934265	0.09998703002929688
4	58.14077806472778	fix_pre	0		120	2.0	2.5	/experiments/aot/S_ILSVRC2015_train_00405000.mp4	0.0	87.65169405937195	1.0005509853363037
4	58.32432508468628	pulse	0	t		2.0	2.5	/experiments/aot/S_ILSVRC2015_train_00405000.mp4	0.0	87.83524107933044	
4	59.14132905006409	movie	1		299	2.0	2.5	/experiments/aot/S_ILSVRC2015_train_00405000.mp4	0.0	88.65224504470825	2.4999191761016846
4	59.92482304573059	pulse	1	t		2.0	2.5	/experiments/aot/S_ILSVRC2015_train_00405000.mp4	0.0	89.43573904037476	
4	61.52463507652283	pulse	1	t		2.0	2.5	/experiments/aot/S_ILSVRC2015_train_00405000.mp4	0.0	91.03555107116699	
4	61.64124822616577	fix_post	2		12	2.0	2.5	/experiments/aot/S_ILSVRC2015_train_00405000.mp4	0.0	91.15216422080994	0.09990191459655762
5	61.74115014076233	fix_pre	0		120	3.0	2.5	/experiments/aot/S_yt-kYMffy4hTMo_107.mp4	0.0	91.2520661354065	1.0000240802764893
5	62.74117422103882	movie	1		300	3.0	2.5	/experiments/aot/S_yt-kYMffy4hTMo_107.mp4	0.0	92.25209021568298	2.499992847442627
5	63.12468409538269	pulse	1	t		3.0	2.5	/experiments/aot/S_yt-kYMffy4hTMo_107.mp4	0.0	92.63560009002686	
5	64.72462511062622	pulse	1	t		3.0	2.5	/experiments/aot/S_yt-kYMffy4hTMo_107.mp4	0.0	94.23554110527039	
5	65.24116706848145	fix_post	2		12	3.0	2.5	/experiments/aot/S_yt-kYMffy4hTMo_107.mp4	0.0	94.75208306312561	0.0999760627746582
6	65.3411431312561	fix_pre	0		119	4.0	2.5	/experiments/aot/S_yt-uSHBdUi8_V0_24.mp4	0.0	94.85205912590027	0.9915850162506104
6	66.32461905479431	pulse	0	t		4.0	2.5	/experiments/aot/S_yt-uSHBdUi8_V0_24.mp4	0.0	95.83553504943848	
6	66.33272814750671	movie	1		301	4.0	2.5	/experiments/aot/S_yt-uSHBdUi8_V0_24.mp4	0.0	95.84364414215088	2.508328914642334
6	67.92463803291321	pulse	1	t		4.0	2.5	/experiments/aot/S_yt-uSHBdUi8_V0_24.mp4	0.0	97.43555402755737	
6	68.84105706214905	fix_post	2		12	4.0	2.5	/experiments/aot/S_yt-uSHBdUi8_V0_24.mp4	0.0	98.35197305679321	0.10006999969482422
7	68.94112706184387	fix_pre	0		120	5.0	2.5	blank	1.0	98.45204305648804	0.9999101161956787
7	69.52462911605835	pulse	0	t		5.0	2.5	blank	1.0	99.03554511070251	
7	69.94103717803955	movie	1		300	5.0	2.5	blank	1.0	99.45195317268372	2.500027894973755
7	71.12458300590515	pulse	1	t		5.0	2.5	blank	1.0	100.63549900054932	
7	72.4410650730133	fix_post	2		12	5.0	2.5	blank	1.0	101.95198106765747	0.09996509552001953
8	72.54103016853333	fix_pre	0		120	6.0	2.5	/experiments/aot/R_S_yt-mL3MuCfKtdY_79.mp4	0.0	102.05194616317749	1.0000278949737549
8	72.7245421409607	pulse	0	t		6.0	2.5	/experiments/aot/R_S_yt-mL3MuCfKtdY_79.mp4	0.0	102.23545813560486	
8	73.54105806350708	movie	1		300	6.0	2.5	/experiments/aot/R_S_yt-mL3MuCfKtdY_79.mp4	0.0	103.05197405815125	2.500020980834961
8	74.32458710670471	pulse	1	t		6.0	2.5	/experiments/aot/R_S_yt-mL3MuCfKtdY_79.mp4	0.0	103.83550310134888	
8	75.92461013793945	pulse	1	t		6.0	2.5	/experiments/aot/R_S_yt-mL3MuCfKtdY_79.mp4	0.0	105.43552613258362	
8	76.04107904434204	fix_post	2		12	6.0	2.5	/experiments/aot/R_S_yt-mL3MuCfKtdY_79.mp4	0.0	105.5519950389862	0.10002517700195312
9	76.141104221344	fix_pre	0		120	7.0	2.5	/experiments/aot/R_S_comp_GMT308_139K_142NC_CARIBBEAN_DAY_v09_SDR_FINAL_22062018_SDR_2K_AVC.mp4	0.0	105.65202021598816	1.0000088214874268
9	77.14111304283142	movie	1		165	7.0	2.5	/experiments/aot/R_S_comp_GMT308_139K_142NC_CARIBBEAN_DAY_v09_SDR_FINAL_22062018_SDR_2K_AVC.mp4	0.0	106.65202903747559	2.4998881816864014
9	77.52467322349548	pulse	1	t		7.0	2.5	/experiments/aot/R_S_comp_GMT308_139K_142NC_CARIBBEAN_DAY_v09_SDR_FINAL_22062018_SDR_2K_AVC.mp4	0.0	107.03558921813965	
9	79.12460708618164	pulse	1	t		7.0	2.5	/experiments/aot/R_S_comp_GMT308_139K_142NC_CARIBBEAN_DAY_v09_SDR_FINAL_22062018_SDR_2K_AVC.mp4	0.0	108.6355230808258	
9	79.64100122451782	fix_post	2		12	7.0	2.5	/experiments/aot/R_S_comp_GMT308_139K_142NC_CARIBBEAN_DAY_v09_SDR_FINAL_22062018_SDR_2K_AVC.mp4	0.0	109.15191721916199	0.10000991821289062
10	79.74101114273071	fix_pre	0		119	8.0	2.5	/experiments/aot/R_S_yt-6MwA-jx56AQ_612.mp4	0.0	109.25192713737488	0.991710901260376
10	80.72451519966125	pulse	0	t		8.0	2.5	/experiments/aot/R_S_yt-6MwA-jx56AQ_612.mp4	0.0	110.23543119430542	
10	80.73272204399109	movie	1		301	8.0	2.5	/experiments/aot/R_S_yt-6MwA-jx56AQ_612.mp4	0.0	110.24363803863525	2.50832200050354
10	82.32466506958008	pulse	1	t		8.0	2.5	/experiments/aot/R_S_yt-6MwA-jx56AQ_612.mp4	0.0	111.83558106422424	
10	83.24104404449463	fix_post	2		12	8.0	2.5	/experiments/aot/R_S_yt-6MwA-jx56AQ_612.mp4	0.0	112.7519600391388	0.10006403923034668
11	83.34110808372498	fix_pre	0		120	9.0	2.5	/experiments/aot/R_S_Pexels_Videos_2795737.mp4	0.0	112.85202407836914	0.9999711513519287
11	83.92455220222473	pulse	0	t		9.0	2.5	/experiments/aot/R_S_Pexels_Videos_2795737.mp4	0.0	113.4354681968689	
11	84.3410792350769	movie	1		161	9.0	2.5	/experiments/aot/R_S_Pexels_Videos_2795737.mp4	0.0	113.85199522972107	2.4999709129333496
11	85.52464723587036	pulse	1	t		9.0	2.5	/experiments/aot/R_S_Pexels_Videos_2795737.mp4	0.0	115.03556323051453	
11	86.84105014801025	fix_post	2		12	9.0	2.5	/experiments/aot/R_S_Pexels_Videos_2795737.mp4	0.0	116.35196614265442	0.10000801086425781
12	86.94105815887451	fix_pre	0		120	10.0	2.5	/experiments/aot/R_S_ILSVRC2015_train_00369000.mp4	0.0	116.45197415351868	1.0000309944152832
12	87.12454915046692	pulse	0	t		10.0	2.5	/experiments/aot/R_S_ILSVRC2015_train_00369000.mp4	0.0	116.63546514511108	
12	87.9410891532898	movie	1		300	10.0	2.5	/experiments/aot/R_S_ILSVRC2015_train_00369000.mp4	0.0	117.45200514793396	2.4998440742492676
12	88.72458720207214	pulse	1	t		10.0	2.5	/experiments/aot/R_S_ILSVRC2015_train_00369000.mp4	0.0	118.23550319671631	
12	90.32468318939209	pulse	1	t		10.0	2.5	/experiments/aot/R_S_ILSVRC2015_train_00369000.mp4	0.0	119.83559918403625	
12	90.44093322753906	fix_post	2		12	10.0	2.5	/experiments/aot/R_S_ILSVRC2015_train_00369000.mp4	0.0	119.95184922218323	0.10009884834289551
13	90.54103207588196	fix_pre	0		120	11.0	2.5	/experiments/aot/S_yt-EBuE7GbFw7U_180.mp4	0.0	120.05194807052612	0.9999699592590332
13	91.54100203514099	movie	1		300	11.0	2.5	/experiments/aot/S_yt-EBuE7GbFw7U_180.mp4	0.0	121.05191802978516	2.50006103515625
13	91.92455816268921	pulse	1	t		11.0	2.5	/experiments/aot/S_yt-EBuE7GbFw7U_180.mp4	0.0	121.43547415733337	
13	93.52450799942017	pulse	1	t		11.0	2.5	/experiments/aot/S_yt-EBuE7GbFw7U_180.mp4	0.0	123.03542399406433	
13	94.04106307029724	fix_post	2		12	11.0	2.5	/experiments/aot/S_yt-EBuE7GbFw7U_180.mp4	0.0	123.5519790649414	0.09997296333312988
14	94.14103603363037	fix_pre	0		119	12.0	2.5	blank	1.0	123.65195202827454	0.9916841983795166
14	95.12450814247131	pulse	0	t		12.0	2.5	blank	1.0	124.63542413711548	
14	95.13272023200989	movie	1		301	12.0	2.5	blank	1.0	124.64363622665405	2.5083727836608887
14	96.7244222164154	pulse	1	t		12.0	2.5	blank	1.0	126.23533821105957	
14	97.64109301567078	fix_post	2		12	12.0	2.5	blank	1.0	127.15200901031494	0.09986519813537598
15	97.74095821380615	fix_pre	0		120	13.0	2.5	/experiments/aot/R_S_yt-3E02UEHdoZ4_752.mp4	0.0	127.25187420845032	0.9999690055847168
15	98.3244640827179	pulse	0	t		13.0	2.5	/experiments/aot/R_S_yt-3E02UEHdoZ4_752.mp4	0.0	127.83538007736206	
15	98.74092721939087	movie	1		300	13.0	2.5	/experiments/aot/R_S_yt-3E02UEHdoZ4_752.mp4	0.0	128.25184321403503	2.500027894973755
15	99.9244270324707	pulse	1	t		13.0	2.5	/experiments/aot/R_S_yt-3E02UEHdoZ4_752.mp4	0.0	129.43534302711487	
15	101.24095511436462	fix_post	2		12	13.0	2.5	/experiments/aot/R_S_yt-3E02UEHdoZ4_752.mp4	0.0	130.7518711090088	0.10003399848937988
16	101.340989112854	fix_pre	0		120	14.0	2.5	/experiments/aot/S_ILSVRC2015_train_00584001.mp4	0.0	130.85190510749817	0.9999449253082275
16	101.52442407608032	pulse	0	t		14.0	2.5	/experiments/aot/S_ILSVRC2015_train_00584001.mp4	0.0	131.0353400707245	
16	102.34093403816223	movie	1		300	14.0	2.5	/experiments/aot/S_ILSVRC2015_train_00584001.mp4	0.0	131.8518500328064	2.5000481605529785
16	103.12440013885498	pulse	1	t		14.0	2.5	/experiments/aot/S_ILSVRC2015_train_00584001.mp4	0.0	132.63531613349915	
16	104.72497916221619	pulse	1	t		14.0	2.5	/experiments/aot/S_ILSVRC2015_train_00584001.mp4	0.0	134.23589515686035	
16	104.84098219871521	fix_post	2		12	14.0	2.5	/experiments/aot/S_ILSVRC2015_train_00584001.mp4	0.0	134.35189819335938	0.10001993179321289
17	104.94100213050842	fix_pre	0		120	15.0	2.5	/experiments/aot/S_ILSVRC2015_train_00689000.mp4	0.0	134.4519181251526	0.9995520114898682
17	105.94055414199829	movie	1		299	15.0	2.5	/experiments/aot/S_ILSVRC2015_train_00689000.mp4	0.0	135.45147013664246	2.4999849796295166
17	106.32438707351685	pulse	1	t		15.0	2.5	/experiments/aot/S_ILSVRC2015_train_00689000.mp4	0.0	135.835303068161	
17	107.92442512512207	pulse	1	t		15.0	2.5	/experiments/aot/S_ILSVRC2015_train_00689000.mp4	0.0	137.43534111976624	
17	108.44053912162781	fix_post	2		12	15.0	2.5	/experiments/aot/S_ILSVRC2015_train_00689000.mp4	0.0	137.95145511627197	0.10042905807495117
18	108.54096817970276	fix_pre	0		119	16.0	2.5	/experiments/aot/R_S_yt-zgimmOcW5Mc_127.mp4	0.0	138.05188417434692	0.9915709495544434
18	109.52437615394592	pulse	0	t		16.0	2.5	/experiments/aot/R_S_yt-zgimmOcW5Mc_127.mp4	0.0	139.0352921485901	
18	109.5325391292572	movie	1		301	16.0	2.5	/experiments/aot/R_S_yt-zgimmOcW5Mc_127.mp4	0.0	139.04345512390137	2.508289098739624
18	111.12434911727905	pulse	1	t		16.0	2.5	/experiments/aot/R_S_yt-zgimmOcW5Mc_127.mp4	0.0	140.63526511192322	
18	112.04082822799683	fix_post	2		12	16.0	2.5	/experiments/aot/R_S_yt-zgimmOcW5Mc_127.mp4	0.0	141.551744222641	0.1000359058380127
19	112.14086413383484	fix_pre	0		120	17.0	2.5	/experiments/aot/S_ILSVRC2015_train_00559000.mp4	0.0	141.651780128479	0.9999880790710449
19	112.72437310218811	pulse	0	t		17.0	2.5	/experiments/aot/S_ILSVRC2015_train_00559000.mp4	0.0	142.23528909683228	
19	113.14085221290588	movie	1		300	17.0	2.5	/experiments/aot/S_ILSVRC2015_train_00559000.mp4	0.0	142.65176820755005	2.5002918243408203
19	114.32438707351685	pulse	1	t		17.0	2.5	/experiments/aot/S_ILSVRC2015_train_00559000.mp4	0.0	143.835303068161	
19	115.6411440372467	fix_post	2		12	17.0	2.5	/experiments/aot/S_ILSVRC2015_train_00559000.mp4	0.0	145.15206003189087	0.09956598281860352
20	115.74071002006531	fix_pre	0		120	18.0	2.5	/experiments/aot/R_S_yt-JVhfcpV7OaY_71.mp4	0.0	145.25162601470947	1.0001821517944336
20	115.92460513114929	pulse	0	t		18.0	2.5	/experiments/aot/R_S_yt-JVhfcpV7OaY_71.mp4	0.0	145.43552112579346	
20	116.74089217185974	movie	1		300	18.0	2.5	/experiments/aot/R_S_yt-JVhfcpV7OaY_71.mp4	0.0	146.2518081665039	2.499994993209839
20	117.52436709403992	pulse	1	t		18.0	2.5	/experiments/aot/R_S_yt-JVhfcpV7OaY_71.mp4	0.0	147.03528308868408	
20	119.12392616271973	pulse	1	t		18.0	2.5	/experiments/aot/R_S_yt-JVhfcpV7OaY_71.mp4	0.0	148.6348421573639	
20	119.24088716506958	fix_post	2		12	18.0	2.5	/experiments/aot/R_S_yt-JVhfcpV7OaY_71.mp4	0.0	148.75180315971375	0.09998703002929688
21	119.34087419509888	fix_pre	0		120	19.0	2.5	blank	1.0	148.85179018974304	0.9999940395355225
21	120.3408682346344	movie	1		300	19.0	2.5	blank	1.0	149.85178422927856	2.499994993209839
21	120.72430801391602	pulse	1	t		19.0	2.5	blank	1.0	150.23522400856018	
21	122.3242552280426	pulse	1	t		19.0	2.5	blank	1.0	151.83517122268677	
21	122.84086322784424	fix_post	2		12	19.0	2.5	blank	1.0	152.3517792224884	0.09993982315063477
22	122.94080305099487	fix_pre	0		119	20.0	2.5	/experiments/aot/R_S_yt-fA0nOetbOJY_580.mp4	0.0	152.45171904563904	0.9916460514068604
22	123.92424702644348	pulse	0	t		20.0	2.5	/experiments/aot/R_S_yt-fA0nOetbOJY_580.mp4	0.0	153.43516302108765	
22	123.93244910240173	movie	1		301	20.0	2.5	/experiments/aot/R_S_yt-fA0nOetbOJY_580.mp4	0.0	153.4433650970459	2.5083858966827393
22	125.52434206008911	pulse	1	t		20.0	2.5	/experiments/aot/R_S_yt-fA0nOetbOJY_580.mp4	0.0	155.03525805473328	
22	126.44083499908447	fix_post	2		12	20.0	2.5	/experiments/aot/R_S_yt-fA0nOetbOJY_580.mp4	0.0	155.95175099372864	0.09992718696594238
23	126.54076218605042	fix_pre	0		120	21.0	2.5	/experiments/aot/R_S_yt-wnQFgNEnHUI_109.mp4	0.0	156.05167818069458	1.0001070499420166
23	127.12426209449768	pulse	0	t		21.0	2.5	/experiments/aot/R_S_yt-wnQFgNEnHUI_109.mp4	0.0	156.63517808914185	
23	127.54086923599243	movie	1		300	21.0	2.5	/experiments/aot/R_S_yt-wnQFgNEnHUI_109.mp4	0.0	157.0517852306366	2.4998998641967773
23	128.72423720359802	pulse	1	t		21.0	2.5	/experiments/aot/R_S_yt-wnQFgNEnHUI_109.mp4	0.0	158.2351531982422	
23	130.0407691001892	fix_post	2		12	21.0	2.5	/experiments/aot/R_S_yt-wnQFgNEnHUI_109.mp4	0.0	159.55168509483337	0.10000896453857422
24	130.14077806472778	fix_pre	0		120	22.0	2.5	/experiments/aot/R_S_ILSVRC2015_train_00418004.mp4	0.0	159.65169405937195	0.9995789527893066
24	130.32426810264587	pulse	0	t		22.0	2.5	/experiments/aot/R_S_ILSVRC2015_train_00418004.mp4	0.0	159.83518409729004	
24	131.1403570175171	movie	1		299	22.0	2.5	/experiments/aot/R_S_ILSVRC2015_train_00418004.mp4	0.0	160.65127301216125	2.5005671977996826
24	131.924232006073	pulse	1	t		22.0	2.5	/experiments/aot/R_S_ILSVRC2015_train_00418004.mp4	0.0	161.43514800071716	
24	133.52424502372742	pulse	1	t		22.0	2.5	/experiments/aot/R_S_ILSVRC2015_train_00418004.mp4	0.0	163.03516101837158	
24	133.64092421531677	fix_post	2		12	22.0	2.5	/experiments/aot/R_S_ILSVRC2015_train_00418004.mp4	0.0	163.15184020996094	0.09984183311462402
25	133.7407660484314	fix_pre	0		120	23.0	2.5	/experiments/aot/S_yt-3ohvpS42xug_184.mp4	0.0	163.25168204307556	1.0000109672546387
25	134.74077701568604	movie	1		300	23.0	2.5	/experiments/aot/S_yt-3ohvpS42xug_184.mp4	0.0	164.2516930103302	2.4999752044677734
25	135.12417316436768	pulse	1	t		23.0	2.5	/experiments/aot/S_yt-3ohvpS42xug_184.mp4	0.0	164.63508915901184	
25	136.72415804862976	pulse	1	t		23.0	2.5	/experiments/aot/S_yt-3ohvpS42xug_184.mp4	0.0	166.23507404327393	
25	137.2407522201538	fix_post	2		12	23.0	2.5	/experiments/aot/S_yt-3ohvpS42xug_184.mp4	0.0	166.75166821479797	0.09998488426208496
26	137.3407371044159	fix_pre	0		119	24.0	2.5	/experiments/aot/R_S_ILSVRC2015_train_00572001.mp4	0.0	166.85165309906006	0.9917299747467041
26	138.32430911064148	pulse	0	t		24.0	2.5	/experiments/aot/R_S_ILSVRC2015_train_00572001.mp4	0.0	167.83522510528564	
26	138.3324670791626	movie	1		301	24.0	2.5	/experiments/aot/R_S_ILSVRC2015_train_00572001.mp4	0.0	167.84338307380676	2.508324146270752
26	139.92422914505005	pulse	1	t		24.0	2.5	/experiments/aot/R_S_ILSVRC2015_train_00572001.mp4	0.0	169.4351451396942	
26	140.84079122543335	fix_post	2		12	24.0	2.5	/experiments/aot/R_S_ILSVRC2015_train_00572001.mp4	0.0	170.35170722007751	0.09999299049377441
27	140.94078421592712	fix_pre	0		120	25.0	2.5	/experiments/aot/S_yt-EuyfT0PuOoQ_91.mp4	0.0	170.4517002105713	0.9999339580535889
27	141.52428722381592	pulse	0	t		25.0	2.5	/experiments/aot/S_yt-EuyfT0PuOoQ_91.mp4	0.0	171.03520321846008	
27	141.9407181739807	movie	1		300	25.0	2.5	/experiments/aot/S_yt-EuyfT0PuOoQ_91.mp4	0.0	171.45163416862488	2.5000109672546387
27	143.12425804138184	pulse	1	t		25.0	2.5	/experiments/aot/S_yt-EuyfT0PuOoQ_91.mp4	0.0	172.635174036026	
27	144.44072914123535	fix_post	2		12	25.0	2.5	/experiments/aot/S_yt-EuyfT0PuOoQ_91.mp4	0.0	173.95164513587952	0.10007095336914062
28	144.5408000946045	fix_pre	0		120	26.0	2.5	/experiments/aot/S_yt-K-iCphzt_RE_17.mp4	0.0	174.05171608924866	0.9999139308929443
28	144.72424507141113	pulse	0	t		26.0	2.5	/experiments/aot/S_yt-K-iCphzt_RE_17.mp4	0.0	174.2351610660553	
28	145.54071402549744	movie	1		300	26.0	2.5	/experiments/aot/S_yt-K-iCphzt_RE_17.mp4	0.0	175.0516300201416	2.500066041946411
28	146.32420301437378	pulse	1	t		26.0	2.5	/experiments/aot/S_yt-K-iCphzt_RE_17.mp4	0.0	175.83511900901794	
28	147.92423105239868	pulse	1	t		26.0	2.5	/experiments/aot/S_yt-K-iCphzt_RE_17.mp4	0.0	177.43514704704285	
28	148.04078006744385	fix_post	2		12	26.0	2.5	/experiments/aot/S_yt-K-iCphzt_RE_17.mp4	0.0	177.551696062088	0.09989309310913086
29	148.14067316055298	fix_pre	0		120	27.0	2.5	blank	1.0	177.65158915519714	1.0000839233398438
29	149.14075708389282	movie	1		300	27.0	2.5	blank	1.0	178.651673078537	2.5000381469726562
29	149.5242440700531	pulse	1	t		27.0	2.5	blank	1.0	179.03516006469727	
29	151.12412309646606	pulse	1	t		27.0	2.5	blank	1.0	180.63503909111023	
29	151.64079523086548	fix_post	2		12	27.0	2.5	blank	1.0	181.15171122550964	0.10001587867736816
30	151.74081110954285	fix_pre	0		119	28.0	2.5	/experiments/aot/R_S_yt-GjFQxAklviE_25.mp4	0.0	181.251727104187	0.9914650917053223
30	152.72413802146912	pulse	0	t		28.0	2.5	/experiments/aot/R_S_yt-GjFQxAklviE_25.mp4	0.0	182.23505401611328	
30	152.73227620124817	movie	1		301	28.0	2.5	/experiments/aot/R_S_yt-GjFQxAklviE_25.mp4	0.0	182.24319219589233	2.50834584236145
30	154.32416915893555	pulse	1	t		28.0	2.5	/experiments/aot/R_S_yt-GjFQxAklviE_25.mp4	0.0	183.8350851535797	
30	155.24062204360962	fix_post	2		12	28.0	2.5	/experiments/aot/R_S_yt-GjFQxAklviE_25.mp4	0.0	184.75153803825378	0.1000211238861084
31	155.34064316749573	fix_pre	0		120	29.0	2.5	/experiments/aot/S_video_inspire_texas_austin_oct2019_evening_00085.1080-h264.mp4	0.0	184.8515591621399	1.000108003616333
31	155.92424321174622	pulse	0	t		29.0	2.5	/experiments/aot/S_video_inspire_texas_austin_oct2019_evening_00085.1080-h264.mp4	0.0	185.43515920639038	
31	156.34075117111206	movie	1		165	29.0	2.5	/experiments/aot/S_video_inspire_texas_austin_oct2019_evening_00085.1080-h264.mp4	0.0	185.85166716575623	2.4999330043792725
31	157.52428603172302	pulse	1	t		29.0	2.5	/experiments/aot/S_video_inspire_texas_austin_oct2019_evening_00085.1080-h264.mp4	0.0	187.0352020263672	
31	158.84068417549133	fix_post	2		12	29.0	2.5	/experiments/aot/S_video_inspire_texas_austin_oct2019_evening_00085.1080-h264.mp4	0.0	188.3516001701355	0.1000058650970459
32	158.94069004058838	fix_pre	0		120	30.0	2.5	/experiments/aot/S_yt-2OoHcgS8sss_7.mp4	0.0	188.45160603523254	0.9998571872711182
32	159.12420511245728	pulse	0	t		30.0	2.5	/experiments/aot/S_yt-2OoHcgS8sss_7.mp4	0.0	188.63512110710144	
32	159.9405472278595	movie	1		300	30.0	2.5	/experiments/aot/S_yt-2OoHcgS8sss_7.mp4	0.0	189.45146322250366	2.500005006790161
32	160.72436213493347	pulse	1	t		30.0	2.5	/experiments/aot/S_yt-2OoHcgS8sss_7.mp4	0.0	190.23527812957764	
32	162.32361817359924	pulse	1	t		30.0	2.5	/experiments/aot/S_yt-2OoHcgS8sss_7.mp4	0.0	191.8345341682434	
32	162.44055223464966	fix_post	2		12	30.0	2.5	/experiments/aot/S_yt-2OoHcgS8sss_7.mp4	0.0	191.95146822929382	0.10001897811889648
33	162.54057121276855	fix_pre	0		120	31.0	2.5	/experiments/aot/R_S_yt-ycfVJyrFgB4_15.mp4	0.0	192.05148720741272	1.000044822692871
33	163.54061603546143	movie	1		300	31.0	2.5	/experiments/aot/R_S_yt-ycfVJyrFgB4_15.mp4	0.0	193.0515320301056	2.499967098236084
33	163.92417812347412	pulse	1	t		31.0	2.5	/experiments/aot/R_S_yt-ycfVJyrFgB4_15.mp4	0.0	193.4350941181183	
33	165.52411603927612	pulse	1	t		31.0	2.5	/experiments/aot/R_S_yt-ycfVJyrFgB4_15.mp4	0.0	195.0350320339203	
33	166.0405831336975	fix_post	2		12	31.0	2.5	/experiments/aot/R_S_yt-ycfVJyrFgB4_15.mp4	0.0	195.55149912834167	0.10006189346313477
34	166.14064502716064	fix_pre	0		119	32.0	2.5	/experiments/aot/S_SE_A016_C009_SDR_20190717_SDR_2K_AVC.mp4	0.0	195.6515610218048	0.9917600154876709
34	167.1242070198059	pulse	0	t		32.0	2.5	/experiments/aot/S_SE_A016_C009_SDR_20190717_SDR_2K_AVC.mp4	0.0	196.63512301445007	
34	167.13240504264832	movie	1		163	32.0	2.5	/experiments/aot/S_SE_A016_C009_SDR_20190717_SDR_2K_AVC.mp4	0.0	196.64332103729248	2.507819175720215
34	168.72372913360596	pulse	1	t		32.0	2.5	/experiments/aot/S_SE_A016_C009_SDR_20190717_SDR_2K_AVC.mp4	0.0	198.23464512825012	
34	169.64022421836853	fix_post	2		12	32.0	2.5	/experiments/aot/S_SE_A016_C009_SDR_20190717_SDR_2K_AVC.mp4	0.0	199.1511402130127	0.09992790222167969
35	169.7401521205902	fix_pre	0		120	33.0	2.5	/experiments/aot/S_yt-HMAa2QbfFPI_216.mp4	0.0	199.25106811523438	1.0001399517059326
35	170.3249831199646	pulse	0	t		33.0	2.5	/experiments/aot/S_yt-HMAa2QbfFPI_216.mp4	0.0	199.83589911460876	
35	170.74029207229614	movie	1		300	33.0	2.5	/experiments/aot/S_yt-HMAa2QbfFPI_216.mp4	0.0	200.2512080669403	2.50032901763916
35	171.9240210056305	pulse	1	t		33.0	2.5	/experiments/aot/S_yt-HMAa2QbfFPI_216.mp4	0.0	201.43493700027466	
35	173.2406210899353	fix_post	2		12	33.0	2.5	/experiments/aot/S_yt-HMAa2QbfFPI_216.mp4	0.0	202.75153708457947	0.10000896453857422
36	173.34063005447388	fix_pre	0		120	34.0	2.5	/experiments/aot/R_S_pexels-cottonbro-5310858.mp4	0.0	202.85154604911804	1.0
36	173.52413320541382	pulse	0	t		34.0	2.5	/experiments/aot/R_S_pexels-cottonbro-5310858.mp4	0.0	203.03504920005798	
36	174.34063005447388	movie	1		161	34.0	2.5	/experiments/aot/R_S_pexels-cottonbro-5310858.mp4	0.0	203.85154604911804	2.4999020099639893
36	175.1240541934967	pulse	1	t		34.0	2.5	/experiments/aot/R_S_pexels-cottonbro-5310858.mp4	0.0	204.63497018814087	
36	176.72406721115112	pulse	1	t		34.0	2.5	/experiments/aot/R_S_pexels-cottonbro-5310858.mp4	0.0	206.2349832057953	
36	176.84053206443787	fix_post	2		12	34.0	2.5	/experiments/aot/R_S_pexels-cottonbro-5310858.mp4	0.0	206.35144805908203	0.0999140739440918
37	176.94044613838196	fix_pre	0		120	35.0	2.5	blank	1.0	206.45136213302612	1.0000989437103271
37	177.94054508209229	movie	1		300	35.0	2.5	blank	1.0	207.45146107673645	2.4999499320983887
37	178.32400107383728	pulse	1	t		35.0	2.5	blank	1.0	207.83491706848145	
37	179.92395401000977	pulse	1	t		35.0	2.5	blank	1.0	209.43487000465393	
37	180.44049501419067	fix_post	2		12	35.0	2.5	blank	1.0	209.95141100883484	0.10003113746643066
38	180.5405261516571	fix_pre	0		119	36.0	2.5	/experiments/aot/S_ILSVRC2015_train_00756000.mp4	0.0	210.05144214630127	0.9915969371795654
38	181.5239691734314	pulse	0	t		36.0	2.5	/experiments/aot/S_ILSVRC2015_train_00756000.mp4	0.0	211.03488516807556	
38	181.53212308883667	movie	1		301	36.0	2.5	/experiments/aot/S_ILSVRC2015_train_00756000.mp4	0.0	211.04303908348083	2.508366107940674
38	183.1240050792694	pulse	1	t		36.0	2.5	/experiments/aot/S_ILSVRC2015_train_00756000.mp4	0.0	212.63492107391357	
38	184.04048919677734	fix_post	2		12	36.0	2.5	/experiments/aot/S_ILSVRC2015_train_00756000.mp4	0.0	213.5514051914215	0.10003089904785156
39	184.1405200958252	fix_pre	0		120	37.0	2.5	/experiments/aot/R_S_yt-B8Sy53C6Pxw_8.mp4	0.0	213.65143609046936	0.9999620914459229
39	184.72410917282104	pulse	0	t		37.0	2.5	/experiments/aot/R_S_yt-B8Sy53C6Pxw_8.mp4	0.0	214.2350251674652	
39	185.14048218727112	movie	1		300	37.0	2.5	/experiments/aot/R_S_yt-B8Sy53C6Pxw_8.mp4	0.0	214.65139818191528	2.5000219345092773
39	186.32398009300232	pulse	1	t		37.0	2.5	/experiments/aot/R_S_yt-B8Sy53C6Pxw_8.mp4	0.0	215.83489608764648	
39	187.6405041217804	fix_post	2		12	37.0	2.5	/experiments/aot/R_S_yt-B8Sy53C6Pxw_8.mp4	0.0	217.15142011642456	0.09995198249816895
40	187.74045610427856	fix_pre	0		120	38.0	2.5	/experiments/aot/R_S_yt-eF5J5Kjt6oY_23.mp4	0.0	217.25137209892273	1.0000829696655273
40	187.92392110824585	pulse	0	t		38.0	2.5	/experiments/aot/R_S_yt-eF5J5Kjt6oY_23.mp4	0.0	217.43483710289001	
40	188.7405390739441	movie	1		299	38.0	2.5	/experiments/aot/R_S_yt-eF5J5Kjt6oY_23.mp4	0.0	218.25145506858826	2.500023126602173
40	189.52398014068604	pulse	1	t		38.0	2.5	/experiments/aot/R_S_yt-eF5J5Kjt6oY_23.mp4	0.0	219.0348961353302	
40	191.12389016151428	pulse	1	t		38.0	2.5	/experiments/aot/R_S_yt-eF5J5Kjt6oY_23.mp4	0.0	220.63480615615845	
40	191.24056220054626	fix_post	2		12	38.0	2.5	/experiments/aot/R_S_yt-eF5J5Kjt6oY_23.mp4	0.0	220.75147819519043	0.09997391700744629
41	191.3405361175537	fix_pre	0		120	39.0	2.5	/experiments/aot/R_S_yt-_6j2NXrB-zE_28.mp4	0.0	220.85145211219788	0.9999289512634277
41	192.34046506881714	movie	1		300	39.0	2.5	/experiments/aot/R_S_yt-_6j2NXrB-zE_28.mp4	0.0	221.8513810634613	2.5000710487365723
41	192.72396612167358	pulse	1	t		39.0	2.5	/experiments/aot/R_S_yt-_6j2NXrB-zE_28.mp4	0.0	222.23488211631775	
41	194.32389616966248	pulse	1	t		39.0	2.5	/experiments/aot/R_S_yt-_6j2NXrB-zE_28.mp4	0.0	223.83481216430664	
41	194.8405361175537	fix_post	2		12	39.0	2.5	/experiments/aot/R_S_yt-_6j2NXrB-zE_28.mp4	0.0	224.35145211219788	0.0999460220336914
42	194.9404821395874	fix_pre	0		119	40.0	2.5	/experiments/aot/R_S_ILSVRC2015_train_00473000.mp4	0.0	224.45139813423157	0.9916019439697266
42	195.9239661693573	pulse	0	t		40.0	2.5	/experiments/aot/R_S_ILSVRC2015_train_00473000.mp4	0.0	225.43488216400146	
42	195.93208408355713	movie	1		301	40.0	2.5	/experiments/aot/R_S_ILSVRC2015_train_00473000.mp4	0.0	225.4430000782013	2.50832200050354
42	197.52388501167297	pulse	1	t		40.0	2.5	/experiments/aot/R_S_ILSVRC2015_train_00473000.mp4	0.0	227.03480100631714	
42	198.44040608406067	fix_post	2		12	40.0	2.5	/experiments/aot/R_S_ILSVRC2015_train_00473000.mp4	0.0	227.95132207870483	0.10006904602050781
43	198.54047513008118	fix_pre	0		120	41.0	2.5	/experiments/aot/S_yt-H45g6700wbc_159.mp4	0.0	228.05139112472534	1.0000369548797607
43	199.1238992214203	pulse	0	t		41.0	2.5	/experiments/aot/S_yt-H45g6700wbc_159.mp4	0.0	228.63481521606445	
43	199.54051208496094	movie	1		299	41.0	2.5	/experiments/aot/S_yt-H45g6700wbc_159.mp4	0.0	229.0514280796051	2.4999051094055176
43	200.72389006614685	pulse	1	t		41.0	2.5	/experiments/aot/S_yt-H45g6700wbc_159.mp4	0.0	230.23480606079102	
43	202.04041719436646	fix_post	2		12	41.0	2.5	/experiments/aot/S_yt-H45g6700wbc_159.mp4	0.0	231.55133318901062	0.09995484352111816
44	202.14037203788757	fix_pre	0		120	42.0	2.5	blank	1.0	231.65128803253174	1.0001130104064941
44	202.32389521598816	pulse	0	t		42.0	2.5	blank	1.0	231.83481121063232	
44	203.14048504829407	movie	1		300	42.0	2.5	blank	1.0	232.65140104293823	2.49992299079895
44	203.92385506629944	pulse	1	t		42.0	2.5	blank	1.0	233.4347710609436	
44	205.52388310432434	pulse	1	t		42.0	2.5	blank	1.0	235.0347990989685	
44	205.64040803909302	fix_post	2		12	42.0	2.5	blank	1.0	235.15132403373718	0.10004615783691406
45	205.74045419692993	fix_pre	0		120	43.0	2.5	/experiments/aot/S_yt-n6aLw10f2Yw_317.mp4	0.0	235.2513701915741	0.9999039173126221
45	206.74035811424255	movie	1		300	43.0	2.5	/experiments/aot/S_yt-n6aLw10f2Yw_317.mp4	0.0	236.25127410888672	2.5001189708709717
45	207.12389016151428	pulse	1	t		43.0	2.5	/experiments/aot/S_yt-n6aLw10f2Yw_317.mp4	0.0	236.63480615615845	
45	208.72381901741028	pulse	1	t		43.0	2.5	/experiments/aot/S_yt-n6aLw10f2Yw_317.mp4	0.0	238.23473501205444	
45	209.24047708511353	fix_post	2		12	43.0	2.5	/experiments/aot/S_yt-n6aLw10f2Yw_317.mp4	0.0	238.7513930797577	0.09996414184570312
46	209.34044122695923	fix_pre	0		119	44.0	2.5	/experiments/aot/S_production_ID_3923518.mp4	0.0	238.8513572216034	0.9915030002593994
46	210.32388305664062	pulse	0	t		44.0	2.5	/experiments/aot/S_production_ID_3923518.mp4	0.0	239.8347990512848	
46	210.33194422721863	movie	1		164	44.0	2.5	/experiments/aot/S_production_ID_3923518.mp4	0.0	239.8428602218628	2.5083529949188232
46	211.92548823356628	pulse	1	t		44.0	2.5	/experiments/aot/S_production_ID_3923518.mp4	0.0	241.43640422821045	
46	212.84029722213745	fix_post	2		12	44.0	2.5	/experiments/aot/S_production_ID_3923518.mp4	0.0	242.35121321678162	0.10013699531555176
47	212.940434217453	fix_pre	0		120	45.0	2.5	/experiments/aot/R_S_yt-YeT4acsbqok_210.mp4	0.0	242.45135021209717	0.9998688697814941
47	213.52390313148499	pulse	0	t		45.0	2.5	/experiments/aot/R_S_yt-YeT4acsbqok_210.mp4	0.0	243.03481912612915	
47	213.9403030872345	movie	1		300	45.0	2.5	/experiments/aot/R_S_yt-YeT4acsbqok_210.mp4	0.0	243.45121908187866	2.5001320838928223
47	215.12386107444763	pulse	1	t		45.0	2.5	/experiments/aot/R_S_yt-YeT4acsbqok_210.mp4	0.0	244.6347770690918	
47	216.44043517112732	fix_post	2		12	45.0	2.5	/experiments/aot/R_S_yt-YeT4acsbqok_210.mp4	0.0	245.95135116577148	0.10010790824890137
48	216.54054307937622	fix_pre	0		120	46.0	2.5	/experiments/aot/R_S_yt-qurTr1BJMec_244.mp4	0.0	246.05145907402039	0.9998059272766113
48	216.7240560054779	pulse	0	t		46.0	2.5	/experiments/aot/R_S_yt-qurTr1BJMec_244.mp4	0.0	246.23497200012207	
48	217.54034900665283	movie	1		300	46.0	2.5	/experiments/aot/R_S_yt-qurTr1BJMec_244.mp4	0.0	247.051265001297	2.5000741481781006
48	218.32387113571167	pulse	1	t		46.0	2.5	/experiments/aot/R_S_yt-qurTr1BJMec_244.mp4	0.0	247.83478713035583	
48	219.9243130683899	pulse	1	t		46.0	2.5	/experiments/aot/R_S_yt-qurTr1BJMec_244.mp4	0.0	249.43522906303406	
48	220.04042315483093	fix_post	2		12	46.0	2.5	/experiments/aot/R_S_yt-qurTr1BJMec_244.mp4	0.0	249.5513391494751	0.09991908073425293
49	220.14034223556519	fix_pre	0		120	47.0	2.5	/experiments/aot/S_yt-fA0nOetbOJY_580.mp4	0.0	249.65125823020935	1.0000438690185547
49	221.14038610458374	movie	1		300	47.0	2.5	/experiments/aot/S_yt-fA0nOetbOJY_580.mp4	0.0	250.6513020992279	2.4999899864196777
49	221.52404308319092	pulse	1	t		47.0	2.5	/experiments/aot/S_yt-fA0nOetbOJY_580.mp4	0.0	251.03495907783508	
49	223.12383818626404	pulse	1	t		47.0	2.5	/experiments/aot/S_yt-fA0nOetbOJY_580.mp4	0.0	252.6347541809082	
49	223.64037609100342	fix_post	2		12	47.0	2.5	/experiments/aot/S_yt-fA0nOetbOJY_580.mp4	0.0	253.15129208564758	0.09995698928833008
50	223.74033308029175	fix_pre	0		119	48.0	2.5	/experiments/aot/R_S_yt-a0axt7n0GuQ_19.mp4	0.0	253.2512490749359	0.9912109375
50	224.72336411476135	pulse	0	t		48.0	2.5	/experiments/aot/R_S_yt-a0axt7n0GuQ_19.mp4	0.0	254.23428010940552	
50	224.73154401779175	movie	1		301	48.0	2.5	/experiments/aot/R_S_yt-a0axt7n0GuQ_19.mp4	0.0	254.2424600124359	2.508967161178589
50	226.32388019561768	pulse	1	t		48.0	2.5	/experiments/aot/R_S_yt-a0axt7n0GuQ_19.mp4	0.0	255.83479619026184	
50	227.24051117897034	fix_post	2		12	48.0	2.5	/experiments/aot/R_S_yt-a0axt7n0GuQ_19.mp4	0.0	256.7514271736145	0.10009384155273438
51	227.34060502052307	fix_pre	0		120	49.0	2.5	blank	1.0	256.85152101516724	0.9995980262756348
51	227.924063205719	pulse	0	t		49.0	2.5	blank	1.0	257.43497920036316	
51	228.3402030467987	movie	1		300	49.0	2.5	blank	1.0	257.85111904144287	2.500152111053467
51	229.52385210990906	pulse	1	t		49.0	2.5	blank	1.0	259.0347681045532	
51	230.84035515785217	fix_post	2		12	49.0	2.5	blank	1.0	260.35127115249634	0.09987306594848633
52	230.94022822380066	fix_pre	0		120	50.0	2.5	/experiments/aot/R_S_yt-2lnxIdOTxog_157.mp4	0.0	260.4511442184448	1.000079870223999
52	231.1237940788269	pulse	0	t		50.0	2.5	/experiments/aot/R_S_yt-2lnxIdOTxog_157.mp4	0.0	260.63471007347107	
52	231.94030809402466	movie	1		299	50.0	2.5	/experiments/aot/R_S_yt-2lnxIdOTxog_157.mp4	0.0	261.4512240886688	2.499906063079834
52	232.72376012802124	pulse	1	t		50.0	2.5	/experiments/aot/R_S_yt-2lnxIdOTxog_157.mp4	0.0	262.2346761226654	
52	234.32369208335876	pulse	1	t		50.0	2.5	/experiments/aot/R_S_yt-2lnxIdOTxog_157.mp4	0.0	263.83460807800293	
52	234.4402141571045	fix_post	2		12	50.0	2.5	/experiments/aot/R_S_yt-2lnxIdOTxog_157.mp4	0.0	263.95113015174866	0.10008406639099121
53	234.54029822349548	fix_pre	0		120	51.0	2.5	/experiments/aot/R_S_video_inspire_texas_austin_oct2019_evening_00085.1080-h264.mp4	0.0	264.05121421813965	0.9999499320983887
53	235.54024815559387	movie	1		168	51.0	2.5	/experiments/aot/R_S_video_inspire_texas_austin_oct2019_evening_00085.1080-h264.mp4	0.0	265.05116415023804	2.4999520778656006
53	235.9237720966339	pulse	1	t		51.0	2.5	/experiments/aot/R_S_video_inspire_texas_austin_oct2019_evening_00085.1080-h264.mp4	0.0	265.4346880912781	
53	237.52380919456482	pulse	1	t		51.0	2.5	/experiments/aot/R_S_video_inspire_texas_austin_oct2019_evening_00085.1080-h264.mp4	0.0	267.034725189209	
53	238.04020023345947	fix_post	2		12	51.0	2.5	/experiments/aot/R_S_video_inspire_texas_austin_oct2019_evening_00085.1080-h264.mp4	0.0	267.55111622810364	0.10004591941833496
54	238.1402461528778	fix_pre	0		119	52.0	2.5	/experiments/aot/S_comp_CH_C002_C005_PSNK_v05_SDR_PS_FINAL_20180709_SDR_2K_AVC.mp4	0.0	267.651162147522	0.9916560649871826
54	239.12366914749146	pulse	0	t		52.0	2.5	/experiments/aot/S_comp_CH_C002_C005_PSNK_v05_SDR_PS_FINAL_20180709_SDR_2K_AVC.mp4	0.0	268.6345851421356	
54	239.131902217865	movie	1		170	52.0	2.5	/experiments/aot/S_comp_CH_C002_C005_PSNK_v05_SDR_PS_FINAL_20180709_SDR_2K_AVC.mp4	0.0	268.64281821250916	2.508302927017212
54	240.72360801696777	pulse	1	t		52.0	2.5	/experiments/aot/S_comp_CH_C002_C005_PSNK_v05_SDR_PS_FINAL_20180709_SDR_2K_AVC.mp4	0.0	270.23452401161194	
54	241.6402051448822	fix_post	2		12	52.0	2.5	/experiments/aot/S_comp_CH_C002_C005_PSNK_v05_SDR_PS_FINAL_20180709_SDR_2K_AVC.mp4	0.0	271.15112113952637	0.09996294975280762
55	241.740168094635	fix_pre	0		120	53.0	2.5	/experiments/aot/R_S_yt-Ub5Xx5BqIOk_74.mp4	0.0	271.2510840892792	1.0000181198120117
55	242.3237020969391	pulse	0	t		53.0	2.5	/experiments/aot/R_S_yt-Ub5Xx5BqIOk_74.mp4	0.0	271.83461809158325	
55	242.74018621444702	movie	1		300	53.0	2.5	/experiments/aot/R_S_yt-Ub5Xx5BqIOk_74.mp4	0.0	272.2511022090912	2.500070810317993
55	243.92363715171814	pulse	1	t		53.0	2.5	/experiments/aot/R_S_yt-Ub5Xx5BqIOk_74.mp4	0.0	273.4345531463623	
55	245.24025702476501	fix_post	2		12	53.0	2.5	/experiments/aot/R_S_yt-Ub5Xx5BqIOk_74.mp4	0.0	274.7511730194092	0.09987616539001465
56	245.34013319015503	fix_pre	0		120	54.0	2.5	blank	1.0	274.8510491847992	1.0000388622283936
56	245.5236690044403	pulse	0	t		54.0	2.5	blank	1.0	275.0345849990845	
56	246.34017205238342	movie	1		300	54.0	2.5	blank	1.0	275.8510880470276	2.4999899864196777
56	247.12373518943787	pulse	1	t		54.0	2.5	blank	1.0	276.63465118408203	
56	248.72377014160156	pulse	1	t		54.0	2.5	blank	1.0	278.2346861362457	
56	248.8401620388031	fix_post	2		12	54.0	2.5	blank	1.0	278.35107803344727	0.10000896453857422
57	248.94017100334167	fix_pre	0		120	55.0	2.5	/experiments/aot/S_yt-GVaF4tmJBZE_253.mp4	0.0	278.45108699798584	0.9999740123748779
57	249.94014501571655	movie	1		300	55.0	2.5	/experiments/aot/S_yt-GVaF4tmJBZE_253.mp4	0.0	279.4510610103607	2.5000410079956055
57	250.32363200187683	pulse	1	t		55.0	2.5	/experiments/aot/S_yt-GVaF4tmJBZE_253.mp4	0.0	279.834547996521	
57	251.92378211021423	pulse	1	t		55.0	2.5	/experiments/aot/S_yt-GVaF4tmJBZE_253.mp4	0.0	281.4346981048584	
57	252.44018602371216	fix_post	2		12	55.0	2.5	/experiments/aot/S_yt-GVaF4tmJBZE_253.mp4	0.0	281.9511020183563	0.09997010231018066
58	252.54015612602234	fix_pre	0		119	56.0	2.5	/experiments/aot/R_S_yt-EBuE7GbFw7U_180.mp4	0.0	282.0510721206665	0.9916179180145264
58	253.5236542224884	pulse	0	t		56.0	2.5	/experiments/aot/R_S_yt-EBuE7GbFw7U_180.mp4	0.0	283.03457021713257	
58	253.53177404403687	movie	1		301	56.0	2.5	/experiments/aot/R_S_yt-EBuE7GbFw7U_180.mp4	0.0	283.04269003868103	2.5084900856018066
58	255.12366914749146	pulse	1	t		56.0	2.5	/experiments/aot/R_S_yt-EBuE7GbFw7U_180.mp4	0.0	284.6345851421356	
58	256.0402641296387	fix_post	2		12	56.0	2.5	/experiments/aot/R_S_yt-EBuE7GbFw7U_180.mp4	0.0	285.55118012428284	0.0999600887298584
59	256.14022421836853	fix_pre	0		120	57.0	2.5	/experiments/aot/S_flickr-claywakening-27928940166_2.mp4	0.0	285.6511402130127	0.9999268054962158
59	256.7235782146454	pulse	0	t		57.0	2.5	/experiments/aot/S_flickr-claywakening-27928940166_2.mp4	0.0	286.23449420928955	
59	257.14015102386475	movie	1		168	57.0	2.5	/experiments/aot/S_flickr-claywakening-27928940166_2.mp4	0.0	286.6510670185089	2.5
59	258.32350611686707	pulse	1	t		57.0	2.5	/experiments/aot/S_flickr-claywakening-27928940166_2.mp4	0.0	287.83442211151123	
59	259.64015102386475	fix_post	2		12	57.0	2.5	/experiments/aot/S_flickr-claywakening-27928940166_2.mp4	0.0	289.1510670185089	0.09999918937683105
60	259.7401502132416	fix_pre	0		120	58.0	2.5	/experiments/aot/R_S_yt-ThT8utBaywI_68.mp4	0.0	289.25106620788574	1.0000059604644775
60	259.9235680103302	pulse	0	t		58.0	2.5	/experiments/aot/R_S_yt-ThT8utBaywI_68.mp4	0.0	289.43448400497437	
60	260.74015617370605	movie	1		300	58.0	2.5	/experiments/aot/R_S_yt-ThT8utBaywI_68.mp4	0.0	290.2510721683502	2.5000109672546387
60	261.52348017692566	pulse	1	t		58.0	2.5	/experiments/aot/R_S_yt-ThT8utBaywI_68.mp4	0.0	291.0343961715698	
60	263.1235861778259	pulse	1	t		58.0	2.5	/experiments/aot/R_S_yt-ThT8utBaywI_68.mp4	0.0	292.6345021724701	
60	263.2401671409607	fix_post	2		12	58.0	2.5	/experiments/aot/R_S_yt-ThT8utBaywI_68.mp4	0.0	292.75108313560486	0.09990787506103516
61	263.34007501602173	fix_pre	0		120	59.0	2.5	/experiments/aot/R_S_yt-RlHmMGUjT9E_130.mp4	0.0	292.8509910106659	1.0000081062316895
61	264.3400831222534	movie	1		299	59.0	2.5	/experiments/aot/R_S_yt-RlHmMGUjT9E_130.mp4	0.0	293.8509991168976	2.5000040531158447
61	264.7235851287842	pulse	1	t		59.0	2.5	/experiments/aot/R_S_yt-RlHmMGUjT9E_130.mp4	0.0	294.23450112342834	
61	266.32354402542114	pulse	1	t		59.0	2.5	/experiments/aot/R_S_yt-RlHmMGUjT9E_130.mp4	0.0	295.8344600200653	
61	266.84008717536926	fix_post	2		12	59.0	2.5	/experiments/aot/R_S_yt-RlHmMGUjT9E_130.mp4	0.0	296.3510031700134	0.09992694854736328
62	266.9400141239166	fix_pre	0		119	60.0	2.5	/experiments/aot/R_S_yt-R9Iabv0XgOQ_80.mp4	0.0	296.4509301185608	0.9917640686035156
62	267.9235792160034	pulse	0	t		60.0	2.5	/experiments/aot/R_S_yt-R9Iabv0XgOQ_80.mp4	0.0	297.4344952106476	
62	267.93177819252014	movie	1		301	60.0	2.5	/experiments/aot/R_S_yt-R9Iabv0XgOQ_80.mp4	0.0	297.4426941871643	2.5083398818969727
62	269.52368116378784	pulse	1	t		60.0	2.5	/experiments/aot/R_S_yt-R9Iabv0XgOQ_80.mp4	0.0	299.034597158432	
62	270.4401180744171	fix_post	2		12	60.0	2.5	/experiments/aot/R_S_yt-R9Iabv0XgOQ_80.mp4	0.0	299.9510340690613	0.0999910831451416
63	270.54010915756226	fix_pre	0		120	61.0	2.5	/experiments/aot/R_S_comp_DB_D001_C001_PSNK_v06_SDR_PS_20180824_SDR_2K_AVC.mp4	0.0	300.0510251522064	0.9999408721923828
63	271.1235020160675	pulse	0	t		61.0	2.5	/experiments/aot/R_S_comp_DB_D001_C001_PSNK_v06_SDR_PS_20180824_SDR_2K_AVC.mp4	0.0	300.63441801071167	
63	271.54005002975464	movie	1		169	61.0	2.5	/experiments/aot/R_S_comp_DB_D001_C001_PSNK_v06_SDR_PS_20180824_SDR_2K_AVC.mp4	0.0	301.0509660243988	2.5001142024993896
63	272.72358202934265	pulse	1	t		61.0	2.5	/experiments/aot/R_S_comp_DB_D001_C001_PSNK_v06_SDR_PS_20180824_SDR_2K_AVC.mp4	0.0	302.2344980239868	
63	274.040164232254	fix_post	2		12	61.0	2.5	/experiments/aot/R_S_comp_DB_D001_C001_PSNK_v06_SDR_PS_20180824_SDR_2K_AVC.mp4	0.0	303.5510802268982	0.09994697570800781
64	274.14011120796204	fix_pre	0		120	62.0	2.5	/experiments/aot/R_S_yt-zam74qlzGtQ_122.mp4	0.0	303.6510272026062	0.9999969005584717
64	274.32349610328674	pulse	0	t		62.0	2.5	/experiments/aot/R_S_yt-zam74qlzGtQ_122.mp4	0.0	303.8344120979309	
64	275.1401081085205	movie	1		300	62.0	2.5	/experiments/aot/R_S_yt-zam74qlzGtQ_122.mp4	0.0	304.6510241031647	2.500001907348633
64	275.92356610298157	pulse	1	t		62.0	2.5	/experiments/aot/R_S_yt-zam74qlzGtQ_122.mp4	0.0	305.43448209762573	
64	277.523157119751	pulse	1	t		62.0	2.5	/experiments/aot/R_S_yt-zam74qlzGtQ_122.mp4	0.0	307.03407311439514	
64	277.64011001586914	fix_post	2		12	62.0	2.5	/experiments/aot/R_S_yt-zam74qlzGtQ_122.mp4	0.0	307.1510260105133	0.10004019737243652
65	277.7401502132416	fix_pre	0		120	63.0	2.5	blank	1.0	307.25106620788574	0.9999778270721436
65	278.7401280403137	movie	1		300	63.0	2.5	blank	1.0	308.2510440349579	2.499556064605713
65	279.12375116348267	pulse	1	t		63.0	2.5	blank	1.0	308.63466715812683	
65	280.7235231399536	pulse	1	t		63.0	2.5	blank	1.0	310.2344391345978	
65	281.23968410491943	fix_post	2		12	63.0	2.5	blank	1.0	310.7506000995636	0.10042405128479004
66	281.3401081562042	fix_pre	0		119	64.0	2.5	/experiments/aot/R_S_production_ID_4325591.mp4	0.0	310.8510241508484	0.9913170337677002
66	282.3232090473175	pulse	0	t		64.0	2.5	/experiments/aot/R_S_production_ID_4325591.mp4	0.0	311.83412504196167	
66	282.3314251899719	movie	1		169	64.0	2.5	/experiments/aot/R_S_production_ID_4325591.mp4	0.0	311.8423411846161	2.5086398124694824
66	283.9232521057129	pulse	1	t		64.0	2.5	/experiments/aot/R_S_production_ID_4325591.mp4	0.0	313.43416810035706	
66	284.8400650024414	fix_post	2		12	64.0	2.5	/experiments/aot/R_S_production_ID_4325591.mp4	0.0	314.35098099708557	0.10004305839538574
67	284.9401080608368	fix_pre	0		120	65.0	2.5	/experiments/aot/S_yt-OdTWn1U1mO4_68.mp4	0.0	314.45102405548096	0.9999771118164062
67	285.5235080718994	pulse	0	t		65.0	2.5	/experiments/aot/S_yt-OdTWn1U1mO4_68.mp4	0.0	315.0344240665436	
67	285.9400851726532	movie	1		300	65.0	2.5	/experiments/aot/S_yt-OdTWn1U1mO4_68.mp4	0.0	315.45100116729736	2.4994659423828125
67	287.12338614463806	pulse	1	t		65.0	2.5	/experiments/aot/S_yt-OdTWn1U1mO4_68.mp4	0.0	316.6343021392822	
67	288.439551115036	fix_post	2		12	65.0	2.5	/experiments/aot/S_yt-OdTWn1U1mO4_68.mp4	0.0	317.9504671096802	0.1004478931427002
68	288.5399990081787	fix_pre	0		120	66.0	2.5	/experiments/aot/R_S_pexels-vlada-karpovich-8044792.mp4	0.0	318.0509150028229	0.9999690055847168
68	288.72342801094055	pulse	0	t		66.0	2.5	/experiments/aot/R_S_pexels-vlada-karpovich-8044792.mp4	0.0	318.2343440055847	
68	289.5399680137634	movie	1		164	66.0	2.5	/experiments/aot/R_S_pexels-vlada-karpovich-8044792.mp4	0.0	319.0508840084076	2.500127077102661
68	290.3234632015228	pulse	1	t		66.0	2.5	/experiments/aot/R_S_pexels-vlada-karpovich-8044792.mp4	0.0	319.834379196167	
68	291.9233810901642	pulse	1	t		66.0	2.5	/experiments/aot/R_S_pexels-vlada-karpovich-8044792.mp4	0.0	321.43429708480835	
68	292.0400950908661	fix_post	2		12	66.0	2.5	/experiments/aot/R_S_pexels-vlada-karpovich-8044792.mp4	0.0	321.55101108551025	0.09989404678344727
69	292.13998913764954	fix_pre	0		120	67.0	2.5	/experiments/aot/R_S_yt-Fm97IY0Z2LU_110.mp4	0.0	321.6509051322937	1.000108003616333
69	293.14009714126587	movie	1		300	67.0	2.5	/experiments/aot/R_S_yt-Fm97IY0Z2LU_110.mp4	0.0	322.65101313591003	2.499819040298462
69	293.52342200279236	pulse	1	t		67.0	2.5	/experiments/aot/R_S_yt-Fm97IY0Z2LU_110.mp4	0.0	323.0343379974365	
69	295.12337017059326	pulse	1	t		67.0	2.5	/experiments/aot/R_S_yt-Fm97IY0Z2LU_110.mp4	0.0	324.6342861652374	
69	295.63991618156433	fix_post	2		12	67.0	2.5	/experiments/aot/R_S_yt-Fm97IY0Z2LU_110.mp4	0.0	325.1508321762085	0.09999203681945801
70	295.7399082183838	fix_pre	0		119	68.0	2.5	/experiments/aot/S_yt-3ohvpS42xug_184.mp4	0.0	325.25082421302795	0.9917759895324707
70	296.72343015670776	pulse	0	t		68.0	2.5	/experiments/aot/S_yt-3ohvpS42xug_184.mp4	0.0	326.23434615135193	
70	296.73168420791626	movie	1		301	68.0	2.5	/experiments/aot/S_yt-3ohvpS42xug_184.mp4	0.0	326.2426002025604	2.50832200050354
70	298.32352018356323	pulse	1	t		68.0	2.5	/experiments/aot/S_yt-3ohvpS42xug_184.mp4	0.0	327.8344361782074	
70	299.2400062084198	fix_post	2		12	68.0	2.5	/experiments/aot/S_yt-3ohvpS42xug_184.mp4	0.0	328.75092220306396	0.09988093376159668
71	299.3398871421814	fix_pre	0		120	69.0	2.5	blank	1.0	328.85080313682556	1.0000700950622559
71	299.92346811294556	pulse	0	t		69.0	2.5	blank	1.0	329.4343841075897	
71	300.33995723724365	movie	1		300	69.0	2.5	blank	1.0	329.8508732318878	2.499955892562866
71	301.5234351158142	pulse	1	t		69.0	2.5	blank	1.0	331.0343511104584	
71	302.8399131298065	fix_post	2		12	69.0	2.5	blank	1.0	332.3508291244507	0.10002398490905762
72	302.9399371147156	fix_pre	0		120	70.0	2.5	/experiments/aot/R_S_yt-H45g6700wbc_159.mp4	0.0	332.45085310935974	0.9999580383300781
72	303.1234860420227	pulse	0	t		70.0	2.5	/experiments/aot/R_S_yt-H45g6700wbc_159.mp4	0.0	332.63440203666687	
72	303.93989515304565	movie	1		299	70.0	2.5	/experiments/aot/R_S_yt-H45g6700wbc_159.mp4	0.0	333.4508111476898	2.5001649856567383
72	304.72334814071655	pulse	1	t		70.0	2.5	/experiments/aot/R_S_yt-H45g6700wbc_159.mp4	0.0	334.2342641353607	
72	306.3234791755676	pulse	1	t		70.0	2.5	/experiments/aot/R_S_yt-H45g6700wbc_159.mp4	0.0	335.8343951702118	
72	306.4400601387024	fix_post	2		12	70.0	2.5	/experiments/aot/R_S_yt-H45g6700wbc_159.mp4	0.0	335.95097613334656	0.09984087944030762
73	306.5399010181427	fix_pre	0		120	71.0	2.5	/experiments/aot/S_ILSVRC2015_train_00584001.mp4	0.0	336.05081701278687	1.000007152557373
73	307.5399081707001	movie	1		299	71.0	2.5	/experiments/aot/S_ILSVRC2015_train_00584001.mp4	0.0	337.05082416534424	2.499932050704956
73	307.9234871864319	pulse	1	t		71.0	2.5	/experiments/aot/S_ILSVRC2015_train_00584001.mp4	0.0	337.43440318107605	
73	309.52332401275635	pulse	1	t		71.0	2.5	/experiments/aot/S_ILSVRC2015_train_00584001.mp4	0.0	339.0342400074005	
73	310.03984022140503	fix_post	2		12	71.0	2.5	/experiments/aot/S_ILSVRC2015_train_00584001.mp4	0.0	339.5507562160492	0.09999299049377441
74	310.1398332118988	fix_pre	0		119	72.0	2.5	/experiments/aot/R_S_yt-B8Sy53C6Pxw_8.mp4	0.0	339.65074920654297	0.9916539192199707
74	311.1233260631561	pulse	0	t		72.0	2.5	/experiments/aot/R_S_yt-B8Sy53C6Pxw_8.mp4	0.0	340.6342420578003	
74	311.1314871311188	movie	1		301	72.0	2.5	/experiments/aot/R_S_yt-B8Sy53C6Pxw_8.mp4	0.0	340.64240312576294	2.50846004486084
74	312.72333121299744	pulse	1	t		72.0	2.5	/experiments/aot/R_S_yt-B8Sy53C6Pxw_8.mp4	0.0	342.2342472076416	
74	313.6399471759796	fix_post	2		12	72.0	2.5	/experiments/aot/R_S_yt-B8Sy53C6Pxw_8.mp4	0.0	343.1508631706238	0.09985899925231934
75	313.73980617523193	fix_pre	0		120	73.0	2.5	/experiments/aot/S_ILSVRC2015_train_00165011.mp4	0.0	343.2507221698761	1.0000698566436768
75	314.32331013679504	pulse	0	t		73.0	2.5	/experiments/aot/S_ILSVRC2015_train_00165011.mp4	0.0	343.8342261314392	
75	314.7398760318756	movie	1		300	73.0	2.5	/experiments/aot/S_ILSVRC2015_train_00165011.mp4	0.0	344.2507920265198	2.500009059906006
75	315.92330622673035	pulse	1	t		73.0	2.5	/experiments/aot/S_ILSVRC2015_train_00165011.mp4	0.0	345.4342222213745	
75	317.2398850917816	fix_post	2		12	73.0	2.5	/experiments/aot/S_ILSVRC2015_train_00165011.mp4	0.0	346.7508010864258	0.09998893737792969
76	317.33987402915955	fix_pre	0		120	74.0	2.5	/experiments/aot/S_comp_L007_C007_PS_v01_SDR_PS_20180925_SDR_2K_AVC.mp4	0.0	346.8507900238037	1.0000150203704834
76	317.52334904670715	pulse	0	t		74.0	2.5	/experiments/aot/S_comp_L007_C007_PS_v01_SDR_PS_20180925_SDR_2K_AVC.mp4	0.0	347.0342650413513	
76	318.33988904953003	movie	1		168	74.0	2.5	/experiments/aot/S_comp_L007_C007_PS_v01_SDR_PS_20180925_SDR_2K_AVC.mp4	0.0	347.8508050441742	2.4999780654907227
76	319.1233642101288	pulse	1	t		74.0	2.5	/experiments/aot/S_comp_L007_C007_PS_v01_SDR_PS_20180925_SDR_2K_AVC.mp4	0.0	348.63428020477295	
76	320.7233052253723	pulse	1	t		74.0	2.5	/experiments/aot/S_comp_L007_C007_PS_v01_SDR_PS_20180925_SDR_2K_AVC.mp4	0.0	350.2342212200165	
76	320.83986711502075	fix_post	2		12	74.0	2.5	/experiments/aot/S_comp_L007_C007_PS_v01_SDR_PS_20180925_SDR_2K_AVC.mp4	0.0	350.3507831096649	0.09994697570800781
77	320.93981409072876	fix_pre	0		120	75.0	2.5	/experiments/aot/S_yt-rB3YVZvA78w_20.mp4	0.0	350.4507300853729	1.0000529289245605
77	321.9398670196533	movie	1		299	75.0	2.5	/experiments/aot/S_yt-rB3YVZvA78w_20.mp4	0.0	351.4507830142975	2.500009059906006
77	322.3233630657196	pulse	1	t		75.0	2.5	/experiments/aot/S_yt-rB3YVZvA78w_20.mp4	0.0	351.83427906036377	
77	323.9232940673828	pulse	1	t		75.0	2.5	/experiments/aot/S_yt-rB3YVZvA78w_20.mp4	0.0	353.434210062027	
77	324.4398760795593	fix_post	2		12	75.0	2.5	/experiments/aot/S_yt-rB3YVZvA78w_20.mp4	0.0	353.9507920742035	0.0998690128326416
78	324.53974509239197	fix_pre	0		119	76.0	2.5	blank	1.0	354.05066108703613	0.9916939735412598
78	325.52328515052795	pulse	0	t		76.0	2.5	blank	1.0	355.0342011451721	
78	325.5314390659332	movie	1		301	76.0	2.5	blank	1.0	355.0423550605774	2.508358955383301
78	327.1232180595398	pulse	1	t		76.0	2.5	blank	1.0	356.63413405418396	
78	328.0397980213165	fix_post	2		12	76.0	2.5	blank	1.0	357.5507140159607	0.09997701644897461
79	328.1397750377655	fix_pre	0		120	77.0	2.5	/experiments/aot/R_S_yt-K_gHa2x2OQA_319.mp4	0.0	357.65069103240967	1.0000660419464111
79	328.72333002090454	pulse	0	t		77.0	2.5	/experiments/aot/R_S_yt-K_gHa2x2OQA_319.mp4	0.0	358.2342460155487	
79	329.1398410797119	movie	1		300	77.0	2.5	/experiments/aot/R_S_yt-K_gHa2x2OQA_319.mp4	0.0	358.6507570743561	2.4999160766601562
79	330.32329511642456	pulse	1	t		77.0	2.5	/experiments/aot/R_S_yt-K_gHa2x2OQA_319.mp4	0.0	359.8342111110687	
79	331.63975715637207	fix_post	2		12	77.0	2.5	/experiments/aot/R_S_yt-K_gHa2x2OQA_319.mp4	0.0	361.15067315101624	0.09998488426208496
80	331.73974204063416	fix_pre	0		120	78.0	2.5	/experiments/aot/S_yt-VjTiMtjdjTw_103.mp4	0.0	361.2506580352783	1.0000250339508057
80	331.9232761859894	pulse	0	t		78.0	2.5	/experiments/aot/S_yt-VjTiMtjdjTw_103.mp4	0.0	361.43419218063354	
80	332.73976707458496	movie	1		299	78.0	2.5	/experiments/aot/S_yt-VjTiMtjdjTw_103.mp4	0.0	362.2506830692291	2.500016927719116
80	333.5231900215149	pulse	1	t		78.0	2.5	/experiments/aot/S_yt-VjTiMtjdjTw_103.mp4	0.0	363.03410601615906	
80	335.1234290599823	pulse	1	t		78.0	2.5	/experiments/aot/S_yt-VjTiMtjdjTw_103.mp4	0.0	364.63434505462646	
80	335.2397840023041	fix_post	2		12	78.0	2.5	/experiments/aot/S_yt-VjTiMtjdjTw_103.mp4	0.0	364.75069999694824	0.10008811950683594
81	335.3398721218109	fix_pre	0		120	79.0	2.5	/experiments/aot/R_S_yt-VjTiMtjdjTw_103.mp4	0.0	364.8507881164551	0.9994750022888184
81	336.33934712409973	movie	1		300	79.0	2.5	/experiments/aot/R_S_yt-VjTiMtjdjTw_103.mp4	0.0	365.8502631187439	2.500688076019287
81	336.7231991291046	pulse	1	t		79.0	2.5	/experiments/aot/R_S_yt-VjTiMtjdjTw_103.mp4	0.0	366.2341151237488	
81	338.3229470252991	pulse	1	t		79.0	2.5	/experiments/aot/R_S_yt-VjTiMtjdjTw_103.mp4	0.0	367.83386301994324	
81	338.840035200119	fix_post	2		12	79.0	2.5	/experiments/aot/R_S_yt-VjTiMtjdjTw_103.mp4	0.0	368.3509511947632	0.09992384910583496
82	338.93995904922485	fix_pre	0		119	80.0	2.5	/experiments/aot/S_yt-YeT4acsbqok_210.mp4	0.0	368.450875043869	0.9913959503173828
82	339.9231860637665	pulse	0	t		80.0	2.5	/experiments/aot/S_yt-YeT4acsbqok_210.mp4	0.0	369.43410205841064	
82	339.93135499954224	movie	1		301	80.0	2.5	/experiments/aot/S_yt-YeT4acsbqok_210.mp4	0.0	369.4422709941864	2.5084280967712402
82	341.52318501472473	pulse	1	t		80.0	2.5	/experiments/aot/S_yt-YeT4acsbqok_210.mp4	0.0	371.0341010093689	
82	342.4397830963135	fix_post	2		12	80.0	2.5	/experiments/aot/S_yt-YeT4acsbqok_210.mp4	0.0	371.95069909095764	0.1000509262084961
83	342.539834022522	fix_pre	0		120	81.0	2.5	/experiments/aot/R_S_ILSVRC2015_train_00415007.mp4	0.0	372.05075001716614	0.9999401569366455
83	343.1232101917267	pulse	0	t		81.0	2.5	/experiments/aot/R_S_ILSVRC2015_train_00415007.mp4	0.0	372.63412618637085	
83	343.5397741794586	movie	1		300	81.0	2.5	/experiments/aot/R_S_ILSVRC2015_train_00415007.mp4	0.0	373.0506901741028	2.500001907348633
83	344.72315311431885	pulse	1	t		81.0	2.5	/experiments/aot/R_S_ILSVRC2015_train_00415007.mp4	0.0	374.234069108963	
83	346.03977608680725	fix_post	2		12	81.0	2.5	/experiments/aot/R_S_ILSVRC2015_train_00415007.mp4	0.0	375.5506920814514	0.09991097450256348
84	346.1396870613098	fix_pre	0		120	82.0	2.5	/experiments/aot/S_8amznWxLS04_212.mp4	0.0	375.650603055954	1.0000450611114502
84	346.3231830596924	pulse	0	t		82.0	2.5	/experiments/aot/S_8amznWxLS04_212.mp4	0.0	375.83409905433655	
84	347.13973212242126	movie	1		300	82.0	2.5	/experiments/aot/S_8amznWxLS04_212.mp4	0.0	376.65064811706543	2.499948024749756
84	347.9231221675873	pulse	1	t		82.0	2.5	/experiments/aot/S_8amznWxLS04_212.mp4	0.0	377.43403816223145	
84	349.52313899993896	pulse	1	t		82.0	2.5	/experiments/aot/S_8amznWxLS04_212.mp4	0.0	379.03405499458313	
84	349.639680147171	fix_post	2		12	82.0	2.5	/experiments/aot/S_8amznWxLS04_212.mp4	0.0	379.1505961418152	0.1000359058380127
85	349.73971605300903	fix_pre	0		120	83.0	2.5	blank	1.0	379.2506320476532	1.0000030994415283
85	350.73971915245056	movie	1		300	83.0	2.5	blank	1.0	380.2506351470947	2.499966859817505
85	351.1231870651245	pulse	1	t		83.0	2.5	blank	1.0	380.6341030597687	
85	352.7231070995331	pulse	1	t		83.0	2.5	blank	1.0	382.23402309417725	
85	353.23968601226807	fix_post	2		12	83.0	2.5	blank	1.0	382.75060200691223	0.09997820854187012
87	353.33966422080994	stim	0		1716					382.8505802154541	14.300014972686768
87	354.32316422462463	pulse	0	t						383.8340802192688	
87	355.9231722354889	pulse	0	t						385.43408823013306	
87	357.523118019104	pulse	0	t						387.03403401374817	
87	359.12310814857483	pulse	0	t						388.634024143219	
87	360.7231161594391	pulse	0	t						390.23403215408325	
87	362.3231010437012	pulse	0	t						391.83401703834534	
87	363.92307806015015	pulse	0	t						393.4339940547943	
87	365.52307200431824	pulse	0	t						395.0339879989624	
87	367.12310910224915	pulse	0	t						396.6340250968933	
