trial_nr	onset	event_type	phase	response	nr_frames	movie_index	movie_duration	movie_file	blank	onset_abs	duration
0	0.14993810653686523	stim	0		119					30.18707799911499	0.9915869235992432
0	1.1259751319885254	response	0	space						31.16311502456665	
1	1.1415250301361084	stim	0		4412					31.178664922714233	36.7665638923645
1	37.90346813201904	pulse	0	t						67.94060802459717	
1	37.90808892250061	stim	1		1717					67.94522881507874	14.308300018310547
1	39.49983191490173	pulse	1	t						69.53697180747986	
1	41.09989905357361	pulse	1	t						71.13703894615173	
1	42.69229602813721	pulse	1	t						72.72943592071533	
1	44.29229998588562	pulse	1	t						74.32943987846375	
1	45.89233708381653	pulse	1	t						75.92947697639465	
1	47.49237895011902	pulse	1	t						77.52951884269714	
1	49.091920137405396	pulse	1	t						79.12906002998352	
1	50.69167113304138	pulse	1	t						80.7288110256195	
2	52.21638894081116	fix_pre	0		11	0.0	2.5	/experiments/aot/R_S_yt-BAQ3Xhm_PPE_23.mp4	0.0	82.25352883338928	0.0917201042175293
2	52.299885988235474	pulse	0	t		0.0	2.5	/experiments/aot/R_S_yt-BAQ3Xhm_PPE_23.mp4	0.0	82.3370258808136	
2	52.30810904502869	movie	1		298	0.0	2.5	/experiments/aot/R_S_yt-BAQ3Xhm_PPE_23.mp4	0.0	82.34524893760681	2.5081899166107178
2	53.895596981048584	pulse	1	t		0.0	2.5	/experiments/aot/R_S_yt-BAQ3Xhm_PPE_23.mp4	0.0	83.93273687362671	
2	54.816298961639404	fix_post	2		12	0.0	2.5	/experiments/aot/R_S_yt-BAQ3Xhm_PPE_23.mp4	0.0	84.85343885421753	0.10001707077026367
3	54.91631603240967	fix_pre	0		120	1.0	2.5	/experiments/aot/S_production_ID_4707837.mp4	0.0	84.9534559249878	0.9999630451202393
3	55.49980592727661	pulse	0	t		1.0	2.5	/experiments/aot/S_production_ID_4707837.mp4	0.0	85.53694581985474	
3	55.91627907752991	movie	1		164	1.0	2.5	/experiments/aot/S_production_ID_4707837.mp4	0.0	85.95341897010803	2.5000338554382324
3	57.09257507324219	pulse	1	t		1.0	2.5	/experiments/aot/S_production_ID_4707837.mp4	0.0	87.12971496582031	
3	58.41631293296814	fix_post	2		12	1.0	2.5	/experiments/aot/S_production_ID_4707837.mp4	0.0	88.45345282554626	0.09990906715393066
4	58.51622200012207	fix_pre	0		120	2.0	2.5	/experiments/aot/S_yt-P8vJa4YVcGU_488.mp4	0.0	88.5533618927002	1.0000710487365723
4	58.69984412193298	pulse	0	t		2.0	2.5	/experiments/aot/S_yt-P8vJa4YVcGU_488.mp4	0.0	88.73698401451111	
4	59.51629304885864	movie	1		300	2.0	2.5	/experiments/aot/S_yt-P8vJa4YVcGU_488.mp4	0.0	89.55343294143677	2.5000269412994385
4	60.2924120426178	pulse	1	t		2.0	2.5	/experiments/aot/S_yt-P8vJa4YVcGU_488.mp4	0.0	90.32955193519592	
4	61.89245891571045	pulse	1	t		2.0	2.5	/experiments/aot/S_yt-P8vJa4YVcGU_488.mp4	0.0	91.92959880828857	
4	62.01631999015808	fix_post	2		12	2.0	2.5	/experiments/aot/S_yt-P8vJa4YVcGU_488.mp4	0.0	92.0534598827362	0.09991908073425293
5	62.116239070892334	fix_pre	0		120	3.0	2.5	/experiments/aot/S_yt-LUIvP_NDWAs_45.mp4	0.0	92.15337896347046	0.9999608993530273
5	63.11619997024536	movie	1		300	3.0	2.5	/experiments/aot/S_yt-LUIvP_NDWAs_45.mp4	0.0	93.15333986282349	2.500049114227295
5	63.49233913421631	pulse	1	t		3.0	2.5	/experiments/aot/S_yt-LUIvP_NDWAs_45.mp4	0.0	93.52947902679443	
5	65.09249806404114	pulse	1	t		3.0	2.5	/experiments/aot/S_yt-LUIvP_NDWAs_45.mp4	0.0	95.12963795661926	
5	65.61624908447266	fix_post	2		12	3.0	2.5	/experiments/aot/S_yt-LUIvP_NDWAs_45.mp4	0.0	95.65338897705078	0.0999748706817627
6	65.71622395515442	fix_pre	0		119	4.0	2.5	/experiments/aot/R_S_video_inspire_texas_austin_oct2019_evening_00085.1080-h264.mp4	0.0	95.75336384773254	0.9916081428527832
6	66.69218802452087	pulse	0	t		4.0	2.5	/experiments/aot/R_S_video_inspire_texas_austin_oct2019_evening_00085.1080-h264.mp4	0.0	96.729327917099	
6	66.7078320980072	movie	1		168	4.0	2.5	/experiments/aot/R_S_video_inspire_texas_austin_oct2019_evening_00085.1080-h264.mp4	0.0	96.74497199058533	2.5084469318389893
6	68.29978609085083	pulse	1	t		4.0	2.5	/experiments/aot/R_S_video_inspire_texas_austin_oct2019_evening_00085.1080-h264.mp4	0.0	98.33692598342896	
6	69.21627902984619	fix_post	2		12	4.0	2.5	/experiments/aot/R_S_video_inspire_texas_austin_oct2019_evening_00085.1080-h264.mp4	0.0	99.25341892242432	0.10002994537353516
7	69.31630897521973	fix_pre	0		120	5.0	2.5	/experiments/aot/S_yt-2V2tq9-O_Nc_1669.mp4	0.0	99.35344886779785	0.9999890327453613
7	69.89969992637634	pulse	0	t		5.0	2.5	/experiments/aot/S_yt-2V2tq9-O_Nc_1669.mp4	0.0	99.93683981895447	
7	70.31629800796509	movie	1		300	5.0	2.5	/experiments/aot/S_yt-2V2tq9-O_Nc_1669.mp4	0.0	100.35343790054321	2.499972105026245
7	71.49968194961548	pulse	1	t		5.0	2.5	/experiments/aot/S_yt-2V2tq9-O_Nc_1669.mp4	0.0	101.5368218421936	
7	72.81627011299133	fix_post	2		12	5.0	2.5	/experiments/aot/S_yt-2V2tq9-O_Nc_1669.mp4	0.0	102.85341000556946	0.09998583793640137
8	72.91625595092773	fix_pre	0		120	6.0	2.5	blank	1.0	102.95339584350586	0.9999780654907227
8	73.09974598884583	pulse	0	t		6.0	2.5	blank	1.0	103.13688588142395	
8	73.91623401641846	movie	1		300	6.0	2.5	blank	1.0	103.95337390899658	2.5000219345092773
8	74.69966793060303	pulse	1	t		6.0	2.5	blank	1.0	104.73680782318115	
8	76.29217100143433	pulse	1	t		6.0	2.5	blank	1.0	106.32931089401245	
8	76.41625595092773	fix_post	2		12	6.0	2.5	blank	1.0	106.45339584350586	0.09990096092224121
9	76.51615691184998	fix_pre	0		120	7.0	2.5	/experiments/aot/R_S_yt-3NMDWrZr1Z4_255.mp4	0.0	106.5532968044281	1.0000090599060059
9	77.51616597175598	movie	1		299	7.0	2.5	/experiments/aot/R_S_yt-3NMDWrZr1Z4_255.mp4	0.0	107.5533058643341	2.5000860691070557
9	77.89233994483948	pulse	1	t		7.0	2.5	/experiments/aot/R_S_yt-3NMDWrZr1Z4_255.mp4	0.0	107.9294798374176	
9	79.49224901199341	pulse	1	t		7.0	2.5	/experiments/aot/R_S_yt-3NMDWrZr1Z4_255.mp4	0.0	109.52938890457153	
9	80.01625204086304	fix_post	2		12	7.0	2.5	/experiments/aot/R_S_yt-3NMDWrZr1Z4_255.mp4	0.0	110.05339193344116	0.10006499290466309
10	80.1163170337677	fix_pre	0		119	8.0	2.5	/experiments/aot/S_yt-IDpUZ2NWBUY_60.mp4	0.0	110.15345692634583	0.9915099143981934
10	81.09218502044678	pulse	0	t		8.0	2.5	/experiments/aot/S_yt-IDpUZ2NWBUY_60.mp4	0.0	111.1293249130249	
10	81.1078269481659	movie	1		301	8.0	2.5	/experiments/aot/S_yt-IDpUZ2NWBUY_60.mp4	0.0	111.14496684074402	2.508366107940674
10	82.69594192504883	pulse	1	t		8.0	2.5	/experiments/aot/S_yt-IDpUZ2NWBUY_60.mp4	0.0	112.73308181762695	
10	83.61619305610657	fix_post	2		12	8.0	2.5	/experiments/aot/S_yt-IDpUZ2NWBUY_60.mp4	0.0	113.65333294868469	0.09997105598449707
11	83.71616411209106	fix_pre	0		120	9.0	2.5	/experiments/aot/S_yt--5ls65Ue1RA_52.mp4	0.0	113.75330400466919	0.9999949932098389
11	84.29975509643555	pulse	0	t		9.0	2.5	/experiments/aot/S_yt--5ls65Ue1RA_52.mp4	0.0	114.33689498901367	
11	84.7161591053009	movie	1		300	9.0	2.5	/experiments/aot/S_yt--5ls65Ue1RA_52.mp4	0.0	114.75329899787903	2.49992299079895
11	85.89970803260803	pulse	1	t		9.0	2.5	/experiments/aot/S_yt--5ls65Ue1RA_52.mp4	0.0	115.93684792518616	
11	87.21608209609985	fix_post	2		12	9.0	2.5	/experiments/aot/S_yt--5ls65Ue1RA_52.mp4	0.0	117.25322198867798	0.10001087188720703
12	87.31609296798706	fix_pre	0		120	10.0	2.5	/experiments/aot/R_S_IrGYVLkWeQs_9.mp4	0.0	117.35323286056519	1.0000159740447998
12	87.499685049057	pulse	0	t		10.0	2.5	/experiments/aot/R_S_IrGYVLkWeQs_9.mp4	0.0	117.53682494163513	
12	88.31610894203186	movie	1		298	10.0	2.5	/experiments/aot/R_S_IrGYVLkWeQs_9.mp4	0.0	118.35324883460999	2.4999821186065674
12	89.09967803955078	pulse	1	t		10.0	2.5	/experiments/aot/R_S_IrGYVLkWeQs_9.mp4	0.0	119.1368179321289	
12	90.69967913627625	pulse	1	t		10.0	2.5	/experiments/aot/R_S_IrGYVLkWeQs_9.mp4	0.0	120.73681902885437	
12	90.81609106063843	fix_post	2		12	10.0	2.5	/experiments/aot/R_S_IrGYVLkWeQs_9.mp4	0.0	120.85323095321655	0.09995007514953613
13	90.91604113578796	fix_pre	0		120	11.0	2.5	/experiments/aot/R_S_yt-6mRpmfIvdew_1435.mp4	0.0	120.95318102836609	1.0000479221343994
13	91.91608905792236	movie	1		300	11.0	2.5	/experiments/aot/R_S_yt-6mRpmfIvdew_1435.mp4	0.0	121.95322895050049	2.499953031539917
13	92.29228711128235	pulse	1	t		11.0	2.5	/experiments/aot/R_S_yt-6mRpmfIvdew_1435.mp4	0.0	122.32942700386047	
13	93.8923089504242	pulse	1	t		11.0	2.5	/experiments/aot/R_S_yt-6mRpmfIvdew_1435.mp4	0.0	123.92944884300232	
13	94.41604208946228	fix_post	2		12	11.0	2.5	/experiments/aot/R_S_yt-6mRpmfIvdew_1435.mp4	0.0	124.4531819820404	0.10005402565002441
14	94.5160961151123	fix_pre	0		119	12.0	2.5	/experiments/aot/S_yt-uSHBdUi8_V0_24.mp4	0.0	124.55323600769043	0.9916439056396484
14	95.49214601516724	pulse	0	t		12.0	2.5	/experiments/aot/S_yt-uSHBdUi8_V0_24.mp4	0.0	125.52928590774536	
14	95.50774002075195	movie	1		301	12.0	2.5	/experiments/aot/S_yt-uSHBdUi8_V0_24.mp4	0.0	125.54487991333008	2.508470058441162
14	97.09578704833984	pulse	1	t		12.0	2.5	/experiments/aot/S_yt-uSHBdUi8_V0_24.mp4	0.0	127.13292694091797	
14	98.01621007919312	fix_post	2		12	12.0	2.5	/experiments/aot/S_yt-uSHBdUi8_V0_24.mp4	0.0	128.05334997177124	0.0998990535736084
15	98.11610913276672	fix_pre	0		120	13.0	2.5	/experiments/aot/S_yt-B8Sy53C6Pxw_8.mp4	0.0	128.15324902534485	1.0000247955322266
15	98.69228196144104	pulse	0	t		13.0	2.5	/experiments/aot/S_yt-B8Sy53C6Pxw_8.mp4	0.0	128.72942185401917	
15	99.11613392829895	movie	1		300	13.0	2.5	/experiments/aot/S_yt-B8Sy53C6Pxw_8.mp4	0.0	129.15327382087708	2.5000181198120117
15	100.29975605010986	pulse	1	t		13.0	2.5	/experiments/aot/S_yt-B8Sy53C6Pxw_8.mp4	0.0	130.336895942688	
15	101.61615204811096	fix_post	2		12	13.0	2.5	/experiments/aot/S_yt-B8Sy53C6Pxw_8.mp4	0.0	131.6532919406891	0.09989404678344727
16	101.71604609489441	fix_pre	0		120	14.0	2.5	blank	1.0	131.75318598747253	1.0002079010009766
16	101.89958906173706	pulse	0	t		14.0	2.5	blank	1.0	131.93672895431519	
16	102.71625399589539	movie	1		300	14.0	2.5	blank	1.0	132.7533938884735	2.499454975128174
16	103.49964499473572	pulse	1	t		14.0	2.5	blank	1.0	133.53678488731384	
16	105.09917211532593	pulse	1	t		14.0	2.5	blank	1.0	135.13631200790405	
16	105.21570897102356	fix_post	2		12	14.0	2.5	blank	1.0	135.25284886360168	0.0999150276184082
17	105.31562399864197	fix_pre	0		120	15.0	2.5	/experiments/aot/S_yt-kINZMjys3O4_112.mp4	0.0	135.3527638912201	1.0001981258392334
17	106.3158221244812	movie	1		299	15.0	2.5	/experiments/aot/S_yt-kINZMjys3O4_112.mp4	0.0	136.35296201705933	2.500253915786743
17	106.69936895370483	pulse	1	t		15.0	2.5	/experiments/aot/S_yt-kINZMjys3O4_112.mp4	0.0	136.73650884628296	
17	108.29947400093079	pulse	1	t		15.0	2.5	/experiments/aot/S_yt-kINZMjys3O4_112.mp4	0.0	138.3366138935089	
17	108.81607604026794	fix_post	2		12	15.0	2.5	/experiments/aot/S_yt-kINZMjys3O4_112.mp4	0.0	138.85321593284607	0.10007500648498535
18	108.91615104675293	fix_pre	0		119	16.0	2.5	/experiments/aot/R_S_yt-xqjVM0Vj4mI_161.mp4	0.0	138.95329093933105	0.991736888885498
18	109.8995680809021	pulse	0	t		16.0	2.5	/experiments/aot/R_S_yt-xqjVM0Vj4mI_161.mp4	0.0	139.93670797348022	
18	109.90788793563843	movie	1		301	16.0	2.5	/experiments/aot/R_S_yt-xqjVM0Vj4mI_161.mp4	0.0	139.94502782821655	2.5081911087036133
18	111.49550604820251	pulse	1	t		16.0	2.5	/experiments/aot/R_S_yt-xqjVM0Vj4mI_161.mp4	0.0	141.53264594078064	
18	112.41607904434204	fix_post	2		12	16.0	2.5	/experiments/aot/R_S_yt-xqjVM0Vj4mI_161.mp4	0.0	142.45321893692017	0.09991598129272461
19	112.51599502563477	fix_pre	0		120	17.0	2.5	/experiments/aot/R_S_production_ID_3944248.mp4	0.0	142.5531349182129	0.9999980926513672
19	113.09944796562195	pulse	0	t		17.0	2.5	/experiments/aot/R_S_production_ID_3944248.mp4	0.0	143.13658785820007	
19	113.51599311828613	movie	1		163	17.0	2.5	/experiments/aot/R_S_production_ID_3944248.mp4	0.0	143.55313301086426	2.499957799911499
19	114.69961905479431	pulse	1	t		17.0	2.5	/experiments/aot/R_S_production_ID_3944248.mp4	0.0	144.73675894737244	
19	116.01595091819763	fix_post	2		12	17.0	2.5	/experiments/aot/R_S_production_ID_3944248.mp4	0.0	146.05309081077576	0.10009598731994629
20	116.11604690551758	fix_pre	0		120	18.0	2.5	/experiments/aot/S_yt-KpOAdMtPGFs_17.mp4	0.0	146.1531867980957	0.999906063079834
20	116.29951190948486	pulse	0	t		18.0	2.5	/experiments/aot/S_yt-KpOAdMtPGFs_17.mp4	0.0	146.336651802063	
20	117.11595296859741	movie	1		300	18.0	2.5	/experiments/aot/S_yt-KpOAdMtPGFs_17.mp4	0.0	147.15309286117554	2.5000510215759277
20	117.89950609207153	pulse	1	t		18.0	2.5	/experiments/aot/S_yt-KpOAdMtPGFs_17.mp4	0.0	147.93664598464966	
20	119.49400806427002	pulse	1	t		18.0	2.5	/experiments/aot/S_yt-KpOAdMtPGFs_17.mp4	0.0	149.53114795684814	
20	119.61600399017334	fix_post	2		12	18.0	2.5	/experiments/aot/S_yt-KpOAdMtPGFs_17.mp4	0.0	149.65314388275146	0.09995102882385254
21	119.71595501899719	fix_pre	0		120	19.0	2.5	/experiments/aot/S_yt-0xzYSBvVfYM_197.mp4	0.0	149.75309491157532	1.000143051147461
21	120.71609807014465	movie	1		300	19.0	2.5	/experiments/aot/S_yt-0xzYSBvVfYM_197.mp4	0.0	150.75323796272278	2.4998979568481445
21	121.09951210021973	pulse	1	t		19.0	2.5	/experiments/aot/S_yt-0xzYSBvVfYM_197.mp4	0.0	151.13665199279785	
21	122.69950699806213	pulse	1	t		19.0	2.5	/experiments/aot/S_yt-0xzYSBvVfYM_197.mp4	0.0	152.73664689064026	
21	123.2159960269928	fix_post	2		12	19.0	2.5	/experiments/aot/S_yt-0xzYSBvVfYM_197.mp4	0.0	153.25313591957092	0.10001111030578613
22	123.31600713729858	fix_pre	0		119	20.0	2.5	blank	1.0	153.3531470298767	0.9915750026702881
22	124.29952311515808	pulse	0	t		20.0	2.5	blank	1.0	154.3366630077362	
22	124.30758213996887	movie	1		301	20.0	2.5	blank	1.0	154.344722032547	2.5084757804870605
22	125.89950609207153	pulse	1	t		20.0	2.5	blank	1.0	155.93664598464966	
22	126.81605792045593	fix_post	2		12	20.0	2.5	blank	1.0	156.85319781303406	0.09989500045776367
23	126.9159529209137	fix_pre	0		120	21.0	2.5	/experiments/aot/S_yt-a0axt7n0GuQ_19.mp4	0.0	156.95309281349182	0.9999830722808838
23	127.49950504302979	pulse	0	t		21.0	2.5	/experiments/aot/S_yt-a0axt7n0GuQ_19.mp4	0.0	157.5366449356079	
23	127.91593599319458	movie	1		300	21.0	2.5	/experiments/aot/S_yt-a0axt7n0GuQ_19.mp4	0.0	157.9530758857727	2.5000510215759277
23	129.0994861125946	pulse	1	t		21.0	2.5	/experiments/aot/S_yt-a0axt7n0GuQ_19.mp4	0.0	159.13662600517273	
23	130.4159870147705	fix_post	2		12	21.0	2.5	/experiments/aot/S_yt-a0axt7n0GuQ_19.mp4	0.0	160.45312690734863	0.10008811950683594
24	130.51607513427734	fix_pre	0		120	22.0	2.5	/experiments/aot/R_S_ILSVRC2015_train_00165012.mp4	0.0	160.55321502685547	0.9999659061431885
24	130.6994650363922	pulse	0	t		22.0	2.5	/experiments/aot/R_S_ILSVRC2015_train_00165012.mp4	0.0	160.73660492897034	
24	131.51604104042053	movie	1		299	22.0	2.5	/experiments/aot/R_S_ILSVRC2015_train_00165012.mp4	0.0	161.55318093299866	2.4999589920043945
24	132.29949808120728	pulse	1	t		22.0	2.5	/experiments/aot/R_S_ILSVRC2015_train_00165012.mp4	0.0	162.3366379737854	
24	133.8994870185852	pulse	1	t		22.0	2.5	/experiments/aot/R_S_ILSVRC2015_train_00165012.mp4	0.0	163.93662691116333	
24	134.01600003242493	fix_post	2		12	22.0	2.5	/experiments/aot/R_S_ILSVRC2015_train_00165012.mp4	0.0	164.05313992500305	0.09995102882385254
25	134.11595106124878	fix_pre	0		120	23.0	2.5	/experiments/aot/S_yt-wnQFgNEnHUI_109.mp4	0.0	164.1530909538269	0.9999949932098389
25	135.11594605445862	movie	1		300	23.0	2.5	/experiments/aot/S_yt-wnQFgNEnHUI_109.mp4	0.0	165.15308594703674	2.5000250339508057
25	135.49949407577515	pulse	1	t		23.0	2.5	/experiments/aot/S_yt-wnQFgNEnHUI_109.mp4	0.0	165.53663396835327	
25	137.09941506385803	pulse	1	t		23.0	2.5	/experiments/aot/S_yt-wnQFgNEnHUI_109.mp4	0.0	167.13655495643616	
25	137.61597108840942	fix_post	2		12	23.0	2.5	/experiments/aot/S_yt-wnQFgNEnHUI_109.mp4	0.0	167.65311098098755	0.10007095336914062
26	137.71604204177856	fix_pre	0		119	24.0	2.5	/experiments/aot/S_bing-www_dailymotion_com_video_x4kcklg_53.mp4	0.0	167.7531819343567	0.9915878772735596
26	138.6994400024414	pulse	0	t		24.0	2.5	/experiments/aot/S_bing-www_dailymotion_com_video_x4kcklg_53.mp4	0.0	168.73657989501953	
26	138.70762991905212	movie	1		166	24.0	2.5	/experiments/aot/S_bing-www_dailymotion_com_video_x4kcklg_53.mp4	0.0	168.74476981163025	2.5082831382751465
26	140.29906797409058	pulse	1	t		24.0	2.5	/experiments/aot/S_bing-www_dailymotion_com_video_x4kcklg_53.mp4	0.0	170.3362078666687	
26	141.21591305732727	fix_post	2		12	24.0	2.5	/experiments/aot/S_bing-www_dailymotion_com_video_x4kcklg_53.mp4	0.0	171.2530529499054	0.10003304481506348
27	141.31594610214233	fix_pre	0		120	25.0	2.5	/experiments/aot/R_S_yt-dO0OuozAgt0_225.mp4	0.0	171.35308599472046	1.000011920928955
27	141.89939999580383	pulse	0	t		25.0	2.5	/experiments/aot/R_S_yt-dO0OuozAgt0_225.mp4	0.0	171.93653988838196	
27	142.3159580230713	movie	1		300	25.0	2.5	/experiments/aot/R_S_yt-dO0OuozAgt0_225.mp4	0.0	172.3530979156494	2.4998719692230225
27	143.49940609931946	pulse	1	t		25.0	2.5	/experiments/aot/R_S_yt-dO0OuozAgt0_225.mp4	0.0	173.53654599189758	
27	144.8158299922943	fix_post	2		12	25.0	2.5	/experiments/aot/R_S_yt-dO0OuozAgt0_225.mp4	0.0	174.85296988487244	0.10007596015930176
28	144.9159059524536	fix_pre	0		120	26.0	2.5	/experiments/aot/S_yt-sPhtPyQM00c_106.mp4	0.0	174.95304584503174	1.0000560283660889
28	145.09944605827332	pulse	0	t		26.0	2.5	/experiments/aot/S_yt-sPhtPyQM00c_106.mp4	0.0	175.13658595085144	
28	145.9159619808197	movie	1		300	26.0	2.5	/experiments/aot/S_yt-sPhtPyQM00c_106.mp4	0.0	175.95310187339783	2.4999589920043945
28	146.6994640827179	pulse	1	t		26.0	2.5	/experiments/aot/S_yt-sPhtPyQM00c_106.mp4	0.0	176.73660397529602	
28	148.29933500289917	pulse	1	t		26.0	2.5	/experiments/aot/S_yt-sPhtPyQM00c_106.mp4	0.0	178.3364748954773	
28	148.4159209728241	fix_post	2		12	26.0	2.5	/experiments/aot/S_yt-sPhtPyQM00c_106.mp4	0.0	178.45306086540222	0.09988999366760254
29	148.5158109664917	fix_pre	0		120	27.0	2.5	/experiments/aot/R_S_comp_L007_C007_PS_v01_SDR_PS_20180925_SDR_2K_AVC.mp4	0.0	178.55295085906982	1.0000050067901611
29	149.51581597328186	movie	1		169	27.0	2.5	/experiments/aot/R_S_comp_L007_C007_PS_v01_SDR_PS_20180925_SDR_2K_AVC.mp4	0.0	179.55295586585999	2.500070095062256
29	149.8995099067688	pulse	1	t		27.0	2.5	/experiments/aot/R_S_comp_L007_C007_PS_v01_SDR_PS_20180925_SDR_2K_AVC.mp4	0.0	179.93664979934692	
29	151.4994421005249	pulse	1	t		27.0	2.5	/experiments/aot/R_S_comp_L007_C007_PS_v01_SDR_PS_20180925_SDR_2K_AVC.mp4	0.0	181.53658199310303	
29	152.01588606834412	fix_post	2		12	27.0	2.5	/experiments/aot/R_S_comp_L007_C007_PS_v01_SDR_PS_20180925_SDR_2K_AVC.mp4	0.0	182.05302596092224	0.1000218391418457
30	152.11590790748596	fix_pre	0		119	28.0	2.5	blank	1.0	182.1530478000641	0.9916391372680664
30	153.09942293167114	pulse	0	t		28.0	2.5	blank	1.0	183.13656282424927	
30	153.10754704475403	movie	1		301	28.0	2.5	blank	1.0	183.14468693733215	2.5083539485931396
30	154.6993350982666	pulse	1	t		28.0	2.5	blank	1.0	184.73647499084473	
30	155.61590099334717	fix_post	2		12	28.0	2.5	blank	1.0	185.6530408859253	0.10000491142272949
31	155.7159059047699	fix_pre	0		120	29.0	2.5	/experiments/aot/R_S_yt-K-iCphzt_RE_17.mp4	0.0	185.75304579734802	0.9999861717224121
31	156.29938793182373	pulse	0	t		29.0	2.5	/experiments/aot/R_S_yt-K-iCphzt_RE_17.mp4	0.0	186.33652782440186	
31	156.7158920764923	movie	1		300	29.0	2.5	/experiments/aot/R_S_yt-K-iCphzt_RE_17.mp4	0.0	186.75303196907043	2.4995410442352295
31	157.89948201179504	pulse	1	t		29.0	2.5	/experiments/aot/R_S_yt-K-iCphzt_RE_17.mp4	0.0	187.93662190437317	
31	159.21543312072754	fix_post	2		12	29.0	2.5	/experiments/aot/R_S_yt-K-iCphzt_RE_17.mp4	0.0	189.25257301330566	0.10038495063781738
32	159.31581807136536	fix_pre	0		120	30.0	2.5	/experiments/aot/R_S_yt-P8vJa4YVcGU_488.mp4	0.0	189.35295796394348	0.9995598793029785
32	159.49940609931946	pulse	0	t		30.0	2.5	/experiments/aot/R_S_yt-P8vJa4YVcGU_488.mp4	0.0	189.53654599189758	
32	160.31537795066833	movie	1		300	30.0	2.5	/experiments/aot/R_S_yt-P8vJa4YVcGU_488.mp4	0.0	190.35251784324646	2.50030517578125
32	161.09895992279053	pulse	1	t		30.0	2.5	/experiments/aot/R_S_yt-P8vJa4YVcGU_488.mp4	0.0	191.13609981536865	
32	162.69385600090027	pulse	1	t		30.0	2.5	/experiments/aot/R_S_yt-P8vJa4YVcGU_488.mp4	0.0	192.7309958934784	
32	162.81568312644958	fix_post	2		12	30.0	2.5	/experiments/aot/R_S_yt-P8vJa4YVcGU_488.mp4	0.0	192.8528230190277	0.1000669002532959
33	162.91575002670288	fix_pre	0		120	31.0	2.5	/experiments/aot/R_S_ILSVRC2015_train_00425000.mp4	0.0	192.952889919281	1.000101089477539
33	163.91585111618042	movie	1		300	31.0	2.5	/experiments/aot/R_S_ILSVRC2015_train_00425000.mp4	0.0	193.95299100875854	2.4999449253082275
33	164.2993381023407	pulse	1	t		31.0	2.5	/experiments/aot/R_S_ILSVRC2015_train_00425000.mp4	0.0	194.33647799491882	
33	165.8993000984192	pulse	1	t		31.0	2.5	/experiments/aot/R_S_ILSVRC2015_train_00425000.mp4	0.0	195.93643999099731	
33	166.41579604148865	fix_post	2		12	31.0	2.5	/experiments/aot/R_S_ILSVRC2015_train_00425000.mp4	0.0	196.45293593406677	0.10005998611450195
34	166.51585602760315	fix_pre	0		119	32.0	2.5	/experiments/aot/R_S_pexels-tima-miroshnichenko-8724308.mp4	0.0	196.55299592018127	0.9917590618133545
34	167.49934005737305	pulse	0	t		32.0	2.5	/experiments/aot/R_S_pexels-tima-miroshnichenko-8724308.mp4	0.0	197.53647994995117	
34	167.5076150894165	movie	1		166	32.0	2.5	/experiments/aot/R_S_pexels-tima-miroshnichenko-8724308.mp4	0.0	197.54475498199463	2.5081968307495117
34	169.0989351272583	pulse	1	t		32.0	2.5	/experiments/aot/R_S_pexels-tima-miroshnichenko-8724308.mp4	0.0	199.13607501983643	
34	170.01581192016602	fix_post	2		12	32.0	2.5	/experiments/aot/R_S_pexels-tima-miroshnichenko-8724308.mp4	0.0	200.05295181274414	0.1000511646270752
35	170.1158630847931	fix_pre	0		120	33.0	2.5	/experiments/aot/R_S_ILSVRC2015_train_00165009.mp4	0.0	200.15300297737122	0.9999198913574219
35	170.6992781162262	pulse	0	t		33.0	2.5	/experiments/aot/R_S_ILSVRC2015_train_00165009.mp4	0.0	200.73641800880432	
35	171.1157829761505	movie	1		300	33.0	2.5	/experiments/aot/R_S_ILSVRC2015_train_00165009.mp4	0.0	201.15292286872864	2.5000040531158447
35	172.2991590499878	pulse	1	t		33.0	2.5	/experiments/aot/R_S_ILSVRC2015_train_00165009.mp4	0.0	202.33629894256592	
35	173.61578702926636	fix_post	2		12	33.0	2.5	/experiments/aot/R_S_ILSVRC2015_train_00165009.mp4	0.0	203.65292692184448	0.09993290901184082
36	173.7157199382782	fix_pre	0		120	34.0	2.5	blank	1.0	203.75285983085632	1.0000150203704834
36	173.89924907684326	pulse	0	t		34.0	2.5	blank	1.0	203.9363889694214	
36	174.71573495864868	movie	1		300	34.0	2.5	blank	1.0	204.7528748512268	2.500002145767212
36	175.49922800064087	pulse	1	t		34.0	2.5	blank	1.0	205.536367893219	
36	177.09918212890625	pulse	1	t		34.0	2.5	blank	1.0	207.13632202148438	
36	177.2157371044159	fix_post	2		12	34.0	2.5	blank	1.0	207.25287699699402	0.09996581077575684
37	177.31570291519165	fix_pre	0		120	35.0	2.5	/experiments/aot/S_pexels-tima-miroshnichenko-8724308.mp4	0.0	207.35284280776978	1.0000481605529785
37	178.31575107574463	movie	1		164	35.0	2.5	/experiments/aot/S_pexels-tima-miroshnichenko-8724308.mp4	0.0	208.35289096832275	2.4999899864196777
37	178.69927501678467	pulse	1	t		35.0	2.5	/experiments/aot/S_pexels-tima-miroshnichenko-8724308.mp4	0.0	208.7364149093628	
37	180.29935002326965	pulse	1	t		35.0	2.5	/experiments/aot/S_pexels-tima-miroshnichenko-8724308.mp4	0.0	210.33648991584778	
37	180.8157410621643	fix_post	2		12	35.0	2.5	/experiments/aot/S_pexels-tima-miroshnichenko-8724308.mp4	0.0	210.85288095474243	0.10000395774841309
38	180.91574501991272	fix_pre	0		119	36.0	2.5	/experiments/aot/S_ILSVRC2015_train_00743006.mp4	0.0	210.95288491249084	0.9916839599609375
38	181.89916801452637	pulse	0	t		36.0	2.5	/experiments/aot/S_ILSVRC2015_train_00743006.mp4	0.0	211.9363079071045	
38	181.90742897987366	movie	1		301	36.0	2.5	/experiments/aot/S_ILSVRC2015_train_00743006.mp4	0.0	211.94456887245178	2.5083839893341064
38	183.49517393112183	pulse	1	t		36.0	2.5	/experiments/aot/S_ILSVRC2015_train_00743006.mp4	0.0	213.53231382369995	
38	184.41581296920776	fix_post	2		12	36.0	2.5	/experiments/aot/S_ILSVRC2015_train_00743006.mp4	0.0	214.4529528617859	0.09991598129272461
39	184.5157289505005	fix_pre	0		120	37.0	2.5	/experiments/aot/S_ILSVRC2015_train_00569006.mp4	0.0	214.5528688430786	1.0000011920928955
39	185.09924697875977	pulse	0	t		37.0	2.5	/experiments/aot/S_ILSVRC2015_train_00569006.mp4	0.0	215.1363868713379	
39	185.51573014259338	movie	1		300	37.0	2.5	/experiments/aot/S_ILSVRC2015_train_00569006.mp4	0.0	215.5528700351715	2.49993896484375
39	186.6991901397705	pulse	1	t		37.0	2.5	/experiments/aot/S_ILSVRC2015_train_00569006.mp4	0.0	216.73633003234863	
39	188.01566910743713	fix_post	2		12	37.0	2.5	/experiments/aot/S_ILSVRC2015_train_00569006.mp4	0.0	218.05280900001526	0.09998488426208496
40	188.11565399169922	fix_pre	0		120	38.0	2.5	/experiments/aot/R_S_production_ID_4707837.mp4	0.0	218.15279388427734	1.0000700950622559
40	188.29927396774292	pulse	0	t		38.0	2.5	/experiments/aot/R_S_production_ID_4707837.mp4	0.0	218.33641386032104	
40	189.11572408676147	movie	1		167	38.0	2.5	/experiments/aot/R_S_production_ID_4707837.mp4	0.0	219.1528639793396	2.4999899864196777
40	189.89936208724976	pulse	1	t		38.0	2.5	/experiments/aot/R_S_production_ID_4707837.mp4	0.0	219.93650197982788	
40	191.49924397468567	pulse	1	t		38.0	2.5	/experiments/aot/R_S_production_ID_4707837.mp4	0.0	221.5363838672638	
40	191.61571407318115	fix_post	2		12	38.0	2.5	/experiments/aot/R_S_production_ID_4707837.mp4	0.0	221.65285396575928	0.1000819206237793
41	191.71579599380493	fix_pre	0		120	39.0	2.5	/experiments/aot/S_yt-kYMffy4hTMo_107.mp4	0.0	221.75293588638306	0.999953031539917
41	192.71574902534485	movie	1		300	39.0	2.5	/experiments/aot/S_yt-kYMffy4hTMo_107.mp4	0.0	222.75288891792297	2.4996159076690674
41	193.09917998313904	pulse	1	t		39.0	2.5	/experiments/aot/S_yt-kYMffy4hTMo_107.mp4	0.0	223.13631987571716	
41	194.69920110702515	pulse	1	t		39.0	2.5	/experiments/aot/S_yt-kYMffy4hTMo_107.mp4	0.0	224.73634099960327	
41	195.21536493301392	fix_post	2		12	39.0	2.5	/experiments/aot/S_yt-kYMffy4hTMo_107.mp4	0.0	225.25250482559204	0.10023808479309082
42	195.315603017807	fix_pre	0		119	40.0	2.5	/experiments/aot/S_video-11.mp4	0.0	225.35274291038513	0.9917099475860596
42	196.29924607276917	pulse	0	t		40.0	2.5	/experiments/aot/S_video-11.mp4	0.0	226.3363859653473	
42	196.30731296539307	movie	1		164	40.0	2.5	/experiments/aot/S_video-11.mp4	0.0	226.3444528579712	2.5084071159362793
42	197.9003939628601	pulse	1	t		40.0	2.5	/experiments/aot/S_video-11.mp4	0.0	227.93753385543823	
42	198.81572008132935	fix_post	2		12	40.0	2.5	/experiments/aot/S_video-11.mp4	0.0	228.85285997390747	0.09996485710144043
43	198.9156849384308	fix_pre	0		120	41.0	2.5	blank	1.0	228.9528248310089	1.000014066696167
43	199.49918603897095	pulse	0	t		41.0	2.5	blank	1.0	229.53632593154907	
43	199.91569900512695	movie	1		300	41.0	2.5	blank	1.0	229.95283889770508	2.500062942504883
43	201.0991759300232	pulse	1	t		41.0	2.5	blank	1.0	231.13631582260132	
43	202.41576194763184	fix_post	2		12	41.0	2.5	blank	1.0	232.45290184020996	0.10001206398010254
44	202.51577401161194	fix_pre	0		120	42.0	2.5	/experiments/aot/R_S_yt-nYi_FfCjepk_74.mp4	0.0	232.55291390419006	0.9999299049377441
44	202.69918513298035	pulse	0	t		42.0	2.5	/experiments/aot/R_S_yt-nYi_FfCjepk_74.mp4	0.0	232.73632502555847	
44	203.51570391654968	movie	1		300	42.0	2.5	/experiments/aot/R_S_yt-nYi_FfCjepk_74.mp4	0.0	233.5528438091278	2.4999911785125732
44	204.2991349697113	pulse	1	t		42.0	2.5	/experiments/aot/R_S_yt-nYi_FfCjepk_74.mp4	0.0	234.33627486228943	
44	205.89355397224426	pulse	1	t		42.0	2.5	/experiments/aot/R_S_yt-nYi_FfCjepk_74.mp4	0.0	235.9306938648224	
44	206.01569509506226	fix_post	2		12	42.0	2.5	/experiments/aot/R_S_yt-nYi_FfCjepk_74.mp4	0.0	236.05283498764038	0.099578857421875
45	206.11527395248413	fix_pre	0		120	43.0	2.5	/experiments/aot/R_S_yt-fA0nOetbOJY_580.mp4	0.0	236.15241384506226	1.0003399848937988
45	207.11561393737793	movie	1		300	43.0	2.5	/experiments/aot/R_S_yt-fA0nOetbOJY_580.mp4	0.0	237.15275382995605	2.5000340938568115
45	207.49923396110535	pulse	1	t		43.0	2.5	/experiments/aot/R_S_yt-fA0nOetbOJY_580.mp4	0.0	237.53637385368347	
45	209.09907913208008	pulse	1	t		43.0	2.5	/experiments/aot/R_S_yt-fA0nOetbOJY_580.mp4	0.0	239.1362190246582	
45	209.61564803123474	fix_post	2		12	43.0	2.5	/experiments/aot/R_S_yt-fA0nOetbOJY_580.mp4	0.0	239.65278792381287	0.09961390495300293
46	209.71526193618774	fix_pre	0		119	44.0	2.5	/experiments/aot/R_S_yt-zh2yLr-o_8A_953.mp4	0.0	239.75240182876587	0.9920241832733154
46	210.69914197921753	pulse	0	t		44.0	2.5	/experiments/aot/R_S_yt-zh2yLr-o_8A_953.mp4	0.0	240.73628187179565	
46	210.70728611946106	movie	1		301	44.0	2.5	/experiments/aot/R_S_yt-zh2yLr-o_8A_953.mp4	0.0	240.74442601203918	2.5083417892456055
46	212.29486513137817	pulse	1	t		44.0	2.5	/experiments/aot/R_S_yt-zh2yLr-o_8A_953.mp4	0.0	242.3320050239563	
46	213.21562790870667	fix_post	2		12	44.0	2.5	/experiments/aot/R_S_yt-zh2yLr-o_8A_953.mp4	0.0	243.2527678012848	0.09999918937683105
47	213.3156270980835	fix_pre	0		120	45.0	2.5	/experiments/aot/R_S_yt-IDpUZ2NWBUY_60.mp4	0.0	243.35276699066162	1.0000410079956055
47	213.89909505844116	pulse	0	t		45.0	2.5	/experiments/aot/R_S_yt-IDpUZ2NWBUY_60.mp4	0.0	243.9362349510193	
47	214.3156681060791	movie	1		300	45.0	2.5	/experiments/aot/R_S_yt-IDpUZ2NWBUY_60.mp4	0.0	244.35280799865723	2.4999499320983887
47	215.49857211112976	pulse	1	t		45.0	2.5	/experiments/aot/R_S_yt-IDpUZ2NWBUY_60.mp4	0.0	245.53571200370789	
47	216.8156180381775	fix_post	2		12	45.0	2.5	/experiments/aot/R_S_yt-IDpUZ2NWBUY_60.mp4	0.0	246.85275793075562	0.09999203681945801
48	216.91561007499695	fix_pre	0		120	46.0	2.5	/experiments/aot/R_S_yt--5ls65Ue1RA_52.mp4	0.0	246.95274996757507	0.9996800422668457
48	217.09873414039612	pulse	0	t		46.0	2.5	/experiments/aot/R_S_yt--5ls65Ue1RA_52.mp4	0.0	247.13587403297424	
48	217.9152901172638	movie	1		300	46.0	2.5	/experiments/aot/R_S_yt--5ls65Ue1RA_52.mp4	0.0	247.95243000984192	2.500274896621704
48	218.69945907592773	pulse	1	t		46.0	2.5	/experiments/aot/R_S_yt--5ls65Ue1RA_52.mp4	0.0	248.73659896850586	
48	220.29906010627747	pulse	1	t		46.0	2.5	/experiments/aot/R_S_yt--5ls65Ue1RA_52.mp4	0.0	250.3361999988556	
48	220.4155650138855	fix_post	2		12	46.0	2.5	/experiments/aot/R_S_yt--5ls65Ue1RA_52.mp4	0.0	250.45270490646362	0.09967899322509766
49	220.5152440071106	fix_pre	0		120	47.0	2.5	/experiments/aot/S_yt-Ev39pXXfr1Y_152.mp4	0.0	250.55238389968872	1.0003559589385986
49	221.5155999660492	movie	1		299	47.0	2.5	/experiments/aot/S_yt-Ev39pXXfr1Y_152.mp4	0.0	251.55273985862732	2.4999210834503174
49	221.89909505844116	pulse	1	t		47.0	2.5	/experiments/aot/S_yt-Ev39pXXfr1Y_152.mp4	0.0	251.9362349510193	
49	223.4991419315338	pulse	1	t		47.0	2.5	/experiments/aot/S_yt-Ev39pXXfr1Y_152.mp4	0.0	253.53628182411194	
49	224.0155210494995	fix_post	2		12	47.0	2.5	/experiments/aot/S_yt-Ev39pXXfr1Y_152.mp4	0.0	254.05266094207764	0.09965801239013672
50	224.11517906188965	fix_pre	0		119	48.0	2.5	/experiments/aot/S_yt-ThT8utBaywI_68.mp4	0.0	254.15231895446777	0.9920148849487305
50	225.09898710250854	pulse	0	t		48.0	2.5	/experiments/aot/S_yt-ThT8utBaywI_68.mp4	0.0	255.13612699508667	
50	225.10719394683838	movie	1		301	48.0	2.5	/experiments/aot/S_yt-ThT8utBaywI_68.mp4	0.0	255.1443338394165	2.508329153060913
50	226.69500207901	pulse	1	t		48.0	2.5	/experiments/aot/S_yt-ThT8utBaywI_68.mp4	0.0	256.73214197158813	
50	227.6155230998993	fix_post	2		12	48.0	2.5	/experiments/aot/S_yt-ThT8utBaywI_68.mp4	0.0	257.6526629924774	0.10004091262817383
51	227.71556401252747	fix_pre	0		120	49.0	2.5	blank	1.0	257.7527039051056	0.9998679161071777
51	228.29895091056824	pulse	0	t		49.0	2.5	blank	1.0	258.33609080314636	
51	228.71543192863464	movie	1		300	49.0	2.5	blank	1.0	258.75257182121277	2.500185012817383
51	229.89899897575378	pulse	1	t		49.0	2.5	blank	1.0	259.9361388683319	
51	231.21561694145203	fix_post	2		12	49.0	2.5	blank	1.0	261.25275683403015	0.09993410110473633
52	231.31555104255676	fix_pre	0		120	50.0	2.5	/experiments/aot/S_yt-uE9XoCLZlFo_1.mp4	0.0	261.3526909351349	1.000046968460083
52	231.49902391433716	pulse	0	t		50.0	2.5	/experiments/aot/S_yt-uE9XoCLZlFo_1.mp4	0.0	261.5361638069153	
52	232.31559801101685	movie	1		299	50.0	2.5	/experiments/aot/S_yt-uE9XoCLZlFo_1.mp4	0.0	262.35273790359497	2.4999210834503174
52	233.09894609451294	pulse	1	t		50.0	2.5	/experiments/aot/S_yt-uE9XoCLZlFo_1.mp4	0.0	263.13608598709106	
52	234.69948196411133	pulse	1	t		50.0	2.5	/experiments/aot/S_yt-uE9XoCLZlFo_1.mp4	0.0	264.73662185668945	
52	234.81551909446716	fix_post	2		12	50.0	2.5	/experiments/aot/S_yt-uE9XoCLZlFo_1.mp4	0.0	264.8526589870453	0.10002899169921875
53	234.91554808616638	fix_pre	0		120	51.0	2.5	/experiments/aot/S_yt-wEbfIR14zZ8_7.mp4	0.0	264.9526879787445	0.9999208450317383
53	235.91546893119812	movie	1		300	51.0	2.5	/experiments/aot/S_yt-wEbfIR14zZ8_7.mp4	0.0	265.95260882377625	2.5000741481781006
53	236.29892897605896	pulse	1	t		51.0	2.5	/experiments/aot/S_yt-wEbfIR14zZ8_7.mp4	0.0	266.3360688686371	
53	237.89906001091003	pulse	1	t		51.0	2.5	/experiments/aot/S_yt-wEbfIR14zZ8_7.mp4	0.0	267.93619990348816	
53	238.41554307937622	fix_post	2		12	51.0	2.5	/experiments/aot/S_yt-wEbfIR14zZ8_7.mp4	0.0	268.45268297195435	0.09997987747192383
54	238.51552295684814	fix_pre	0		119	52.0	2.5	/experiments/aot/S_ILSVRC2015_train_00165009.mp4	0.0	268.55266284942627	0.9916419982910156
54	239.49899291992188	pulse	0	t		52.0	2.5	/experiments/aot/S_ILSVRC2015_train_00165009.mp4	0.0	269.5361328125	
54	239.50716495513916	movie	1		301	52.0	2.5	/experiments/aot/S_ILSVRC2015_train_00165009.mp4	0.0	269.5443048477173	2.508265972137451
54	241.0950539112091	pulse	1	t		52.0	2.5	/experiments/aot/S_ILSVRC2015_train_00165009.mp4	0.0	271.13219380378723	
54	242.0154309272766	fix_post	2		12	52.0	2.5	/experiments/aot/S_ILSVRC2015_train_00165009.mp4	0.0	272.05257081985474	0.09995317459106445
55	242.11538410186768	fix_pre	0		120	53.0	2.5	/experiments/aot/R_S_yt-7W50lcw5FCo_37.mp4	0.0	272.1525239944458	1.0001168251037598
55	242.69896006584167	pulse	0	t		53.0	2.5	/experiments/aot/R_S_yt-7W50lcw5FCo_37.mp4	0.0	272.7360999584198	
55	243.11550092697144	movie	1		300	53.0	2.5	/experiments/aot/R_S_yt-7W50lcw5FCo_37.mp4	0.0	273.15264081954956	2.500019073486328
55	244.29895091056824	pulse	1	t		53.0	2.5	/experiments/aot/R_S_yt-7W50lcw5FCo_37.mp4	0.0	274.33609080314636	
55	245.61552000045776	fix_post	2		12	53.0	2.5	/experiments/aot/R_S_yt-7W50lcw5FCo_37.mp4	0.0	275.6526598930359	0.09988808631896973
56	245.71540808677673	fix_pre	0		120	54.0	2.5	/experiments/aot/R_S_yt-uWeU2s6JYyk_10.mp4	0.0	275.75254797935486	1.0001070499420166
56	245.89901113510132	pulse	0	t		54.0	2.5	/experiments/aot/R_S_yt-uWeU2s6JYyk_10.mp4	0.0	275.93615102767944	
56	246.71551513671875	movie	1		300	54.0	2.5	/experiments/aot/R_S_yt-uWeU2s6JYyk_10.mp4	0.0	276.7526550292969	2.499945878982544
56	247.4990041255951	pulse	1	t		54.0	2.5	/experiments/aot/R_S_yt-uWeU2s6JYyk_10.mp4	0.0	277.5361440181732	
56	249.0989329814911	pulse	1	t		54.0	2.5	/experiments/aot/R_S_yt-uWeU2s6JYyk_10.mp4	0.0	279.1360728740692	
56	249.2154610157013	fix_post	2		12	54.0	2.5	/experiments/aot/R_S_yt-uWeU2s6JYyk_10.mp4	0.0	279.2526009082794	0.10000491142272949
57	249.31546592712402	fix_pre	0		120	55.0	2.5	blank	1.0	279.35260581970215	1.0000720024108887
57	250.3155379295349	movie	1		300	55.0	2.5	blank	1.0	280.35267782211304	2.4999589920043945
57	250.69889307022095	pulse	1	t		55.0	2.5	blank	1.0	280.7360329627991	
57	252.2989490032196	pulse	1	t		55.0	2.5	blank	1.0	282.33608889579773	
57	252.8154969215393	fix_post	2		12	55.0	2.5	blank	1.0	282.85263681411743	0.09993815422058105
58	252.9154350757599	fix_pre	0		119	56.0	2.5	/experiments/aot/S_yt-_7HJhRPVmHw_255.mp4	0.0	282.952574968338	0.9916939735412598
58	253.89889001846313	pulse	0	t		56.0	2.5	/experiments/aot/S_yt-_7HJhRPVmHw_255.mp4	0.0	283.93602991104126	
58	253.90712904930115	movie	1		301	56.0	2.5	/experiments/aot/S_yt-_7HJhRPVmHw_255.mp4	0.0	283.9442689418793	2.508358955383301
58	255.49472999572754	pulse	1	t		56.0	2.5	/experiments/aot/S_yt-_7HJhRPVmHw_255.mp4	0.0	285.53186988830566	
58	256.41548800468445	fix_post	2		12	56.0	2.5	/experiments/aot/S_yt-_7HJhRPVmHw_255.mp4	0.0	286.4526278972626	0.10005903244018555
59	256.51554703712463	fix_pre	0		120	57.0	2.5	/experiments/aot/R_S_ILSVRC2015_train_00584001.mp4	0.0	286.55268692970276	0.9999570846557617
59	257.0989279747009	pulse	0	t		57.0	2.5	/experiments/aot/R_S_ILSVRC2015_train_00584001.mp4	0.0	287.13606786727905	
59	257.5155041217804	movie	1		300	57.0	2.5	/experiments/aot/R_S_ILSVRC2015_train_00584001.mp4	0.0	287.5526440143585	2.500105857849121
59	258.69890308380127	pulse	1	t		57.0	2.5	/experiments/aot/R_S_ILSVRC2015_train_00584001.mp4	0.0	288.7360429763794	
59	260.0156099796295	fix_post	2		12	57.0	2.5	/experiments/aot/R_S_ILSVRC2015_train_00584001.mp4	0.0	290.05274987220764	0.0993809700012207
60	260.11499094963074	fix_pre	0		120	58.0	2.5	/experiments/aot/S_yt-uWeU2s6JYyk_10.mp4	0.0	290.15213084220886	1.0004169940948486
60	260.2989320755005	pulse	0	t		58.0	2.5	/experiments/aot/S_yt-uWeU2s6JYyk_10.mp4	0.0	290.3360719680786	
60	261.1154079437256	movie	1		300	58.0	2.5	/experiments/aot/S_yt-uWeU2s6JYyk_10.mp4	0.0	291.1525478363037	2.500084161758423
60	261.89892411231995	pulse	1	t		58.0	2.5	/experiments/aot/S_yt-uWeU2s6JYyk_10.mp4	0.0	291.93606400489807	
60	263.498407125473	pulse	1	t		58.0	2.5	/experiments/aot/S_yt-uWeU2s6JYyk_10.mp4	0.0	293.53554701805115	
60	263.615492105484	fix_post	2		12	58.0	2.5	/experiments/aot/S_yt-uWeU2s6JYyk_10.mp4	0.0	293.65263199806213	0.09987187385559082
61	263.7153639793396	fix_pre	0		120	59.0	2.5	/experiments/aot/S_ILSVRC2015_train_00689000.mp4	0.0	293.7525038719177	1.000067949295044
61	264.71543192863464	movie	1		300	59.0	2.5	/experiments/aot/S_ILSVRC2015_train_00689000.mp4	0.0	294.75257182121277	2.5001041889190674
61	265.09887409210205	pulse	1	t		59.0	2.5	/experiments/aot/S_ILSVRC2015_train_00689000.mp4	0.0	295.1360139846802	
61	266.6988971233368	pulse	1	t		59.0	2.5	/experiments/aot/S_ILSVRC2015_train_00689000.mp4	0.0	296.7360370159149	
61	267.2155361175537	fix_post	2		12	59.0	2.5	/experiments/aot/S_ILSVRC2015_train_00689000.mp4	0.0	297.25267601013184	0.09981894493103027
62	267.31535506248474	fix_pre	0		119	60.0	2.5	/experiments/aot/R_S_yt-GVaF4tmJBZE_253.mp4	0.0	297.35249495506287	0.9916930198669434
62	268.29891300201416	pulse	0	t		60.0	2.5	/experiments/aot/R_S_yt-GVaF4tmJBZE_253.mp4	0.0	298.3360528945923	
62	268.3070480823517	movie	1		301	60.0	2.5	/experiments/aot/R_S_yt-GVaF4tmJBZE_253.mp4	0.0	298.3441879749298	2.5083889961242676
62	269.89513897895813	pulse	1	t		60.0	2.5	/experiments/aot/R_S_yt-GVaF4tmJBZE_253.mp4	0.0	299.93227887153625	
62	270.81543707847595	fix_post	2		12	60.0	2.5	/experiments/aot/R_S_yt-GVaF4tmJBZE_253.mp4	0.0	300.8525769710541	0.1000070571899414
63	270.9154441356659	fix_pre	0		120	61.0	2.5	/experiments/aot/S_yt-kkbtZP78JxQ_96.mp4	0.0	300.952584028244	0.9999079704284668
63	271.49892711639404	pulse	0	t		61.0	2.5	/experiments/aot/S_yt-kkbtZP78JxQ_96.mp4	0.0	301.53606700897217	
63	271.91535210609436	movie	1		300	61.0	2.5	/experiments/aot/S_yt-kkbtZP78JxQ_96.mp4	0.0	301.9524919986725	2.4998598098754883
63	273.09842896461487	pulse	1	t		61.0	2.5	/experiments/aot/S_yt-kkbtZP78JxQ_96.mp4	0.0	303.135568857193	
63	274.41521191596985	fix_post	2		12	61.0	2.5	/experiments/aot/S_yt-kkbtZP78JxQ_96.mp4	0.0	304.452351808548	0.09992599487304688
64	274.5151379108429	fix_pre	0		120	62.0	2.5	/experiments/aot/R_S_yt-hyZEDFkh49w_196.mp4	0.0	304.552277803421	1.0003321170806885
64	274.6986219882965	pulse	0	t		62.0	2.5	/experiments/aot/R_S_yt-hyZEDFkh49w_196.mp4	0.0	304.73576188087463	
64	275.5154700279236	movie	1		300	62.0	2.5	/experiments/aot/R_S_yt-hyZEDFkh49w_196.mp4	0.0	305.5526099205017	2.4994380474090576
64	276.29884910583496	pulse	1	t		62.0	2.5	/experiments/aot/R_S_yt-hyZEDFkh49w_196.mp4	0.0	306.3359889984131	
64	277.8988559246063	pulse	1	t		62.0	2.5	/experiments/aot/R_S_yt-hyZEDFkh49w_196.mp4	0.0	307.93599581718445	
64	278.01490807533264	fix_post	2		12	62.0	2.5	/experiments/aot/R_S_yt-hyZEDFkh49w_196.mp4	0.0	308.05204796791077	0.10053300857543945
65	278.1154410839081	fix_pre	0		120	63.0	2.5	blank	1.0	308.1525809764862	0.9998779296875
65	279.1153190135956	movie	1		300	63.0	2.5	blank	1.0	309.1524589061737	2.499948024749756
65	279.49887204170227	pulse	1	t		63.0	2.5	blank	1.0	309.5360119342804	
65	281.098757982254	pulse	1	t		63.0	2.5	blank	1.0	311.13589787483215	
65	281.61526703834534	fix_post	2		12	63.0	2.5	blank	1.0	311.65240693092346	0.10004091262817383
66	281.7153079509735	fix_pre	0		119	64.0	2.5	/experiments/aot/S_yt-9EnchawJ3pA_90.mp4	0.0	311.75244784355164	0.9916801452636719
66	282.69873809814453	pulse	0	t		64.0	2.5	/experiments/aot/S_yt-9EnchawJ3pA_90.mp4	0.0	312.73587799072266	
66	282.7069880962372	movie	1		301	64.0	2.5	/experiments/aot/S_yt-9EnchawJ3pA_90.mp4	0.0	312.7441279888153	2.5082859992980957
66	284.29453206062317	pulse	1	t		64.0	2.5	/experiments/aot/S_yt-9EnchawJ3pA_90.mp4	0.0	314.3316719532013	
66	285.2152740955353	fix_post	2		12	64.0	2.5	/experiments/aot/S_yt-9EnchawJ3pA_90.mp4	0.0	315.2524139881134	0.10004901885986328
67	285.31532311439514	fix_pre	0		120	65.0	2.5	/experiments/aot/R_S_yt-2OoHcgS8sss_7.mp4	0.0	315.35246300697327	0.9999229907989502
67	285.89877796173096	pulse	0	t		65.0	2.5	/experiments/aot/R_S_yt-2OoHcgS8sss_7.mp4	0.0	315.9359178543091	
67	286.3152461051941	movie	1		300	65.0	2.5	/experiments/aot/R_S_yt-2OoHcgS8sss_7.mp4	0.0	316.3523859977722	2.5000100135803223
67	287.4986779689789	pulse	1	t		65.0	2.5	/experiments/aot/R_S_yt-2OoHcgS8sss_7.mp4	0.0	317.535817861557	
67	288.8152561187744	fix_post	2		12	65.0	2.5	/experiments/aot/R_S_yt-2OoHcgS8sss_7.mp4	0.0	318.85239601135254	0.1000218391418457
68	288.91527795791626	fix_pre	0		120	66.0	2.5	/experiments/aot/S_pexels-cottonbro-5310858.mp4	0.0	318.9524178504944	0.9999179840087891
68	289.0988531112671	pulse	0	t		66.0	2.5	/experiments/aot/S_pexels-cottonbro-5310858.mp4	0.0	319.1359930038452	
68	289.91519594192505	movie	1		165	66.0	2.5	/experiments/aot/S_pexels-cottonbro-5310858.mp4	0.0	319.9523358345032	2.50018310546875
68	290.69879698753357	pulse	1	t		66.0	2.5	/experiments/aot/S_pexels-cottonbro-5310858.mp4	0.0	320.7359368801117	
68	292.2988049983978	pulse	1	t		66.0	2.5	/experiments/aot/S_pexels-cottonbro-5310858.mp4	0.0	322.33594489097595	
68	292.4153790473938	fix_post	2		12	66.0	2.5	/experiments/aot/S_pexels-cottonbro-5310858.mp4	0.0	322.4525189399719	0.09992504119873047
69	292.51530408859253	fix_pre	0		120	67.0	2.5	/experiments/aot/R_S_yt-GaJaxp546lc_22.mp4	0.0	322.55244398117065	1.000013828277588
69	293.5153179168701	movie	1		300	67.0	2.5	/experiments/aot/R_S_yt-GaJaxp546lc_22.mp4	0.0	323.55245780944824	2.49989914894104
69	293.89877104759216	pulse	1	t		67.0	2.5	/experiments/aot/R_S_yt-GaJaxp546lc_22.mp4	0.0	323.9359109401703	
69	295.49891805648804	pulse	1	t		67.0	2.5	/experiments/aot/R_S_yt-GaJaxp546lc_22.mp4	0.0	325.53605794906616	
69	296.01521706581116	fix_post	2		12	67.0	2.5	/experiments/aot/R_S_yt-GaJaxp546lc_22.mp4	0.0	326.0523569583893	0.10001897811889648
70	296.11523604393005	fix_pre	0		119	68.0	2.5	/experiments/aot/R_S_yt-wrfAMDCg93Y_8.mp4	0.0	326.1523759365082	0.9916200637817383
70	297.0987329483032	pulse	0	t		68.0	2.5	/experiments/aot/R_S_yt-wrfAMDCg93Y_8.mp4	0.0	327.13587284088135	
70	297.1068561077118	movie	1		301	68.0	2.5	/experiments/aot/R_S_yt-wrfAMDCg93Y_8.mp4	0.0	327.1439960002899	2.508373975753784
70	298.6946201324463	pulse	1	t		68.0	2.5	/experiments/aot/R_S_yt-wrfAMDCg93Y_8.mp4	0.0	328.7317600250244	
70	299.6152300834656	fix_post	2		12	68.0	2.5	/experiments/aot/R_S_yt-wrfAMDCg93Y_8.mp4	0.0	329.6523699760437	0.10002803802490234
71	299.7152581214905	fix_pre	0		120	69.0	2.5	blank	1.0	329.7523980140686	0.9996058940887451
71	300.2986800670624	pulse	0	t		69.0	2.5	blank	1.0	330.3358199596405	
71	300.7148640155792	movie	1		300	69.0	2.5	blank	1.0	330.75200390815735	2.500404119491577
71	301.8986940383911	pulse	1	t		69.0	2.5	blank	1.0	331.93583393096924	
71	303.2152681350708	fix_post	2		12	69.0	2.5	blank	1.0	333.2524080276489	0.09992694854736328
72	303.31519508361816	fix_pre	0		120	70.0	2.5	/experiments/aot/R_S_yt-F3hhts3bwWg_25.mp4	0.0	333.3523349761963	1.0000159740447998
72	303.4987120628357	pulse	0	t		70.0	2.5	/experiments/aot/R_S_yt-F3hhts3bwWg_25.mp4	0.0	333.5358519554138	
72	304.31521105766296	movie	1		300	70.0	2.5	/experiments/aot/R_S_yt-F3hhts3bwWg_25.mp4	0.0	334.3523509502411	2.4999630451202393
72	305.0986530780792	pulse	1	t		70.0	2.5	/experiments/aot/R_S_yt-F3hhts3bwWg_25.mp4	0.0	335.13579297065735	
72	306.69891810417175	pulse	1	t		70.0	2.5	/experiments/aot/R_S_yt-F3hhts3bwWg_25.mp4	0.0	336.7360579967499	
72	306.8151741027832	fix_post	2		12	70.0	2.5	/experiments/aot/R_S_yt-F3hhts3bwWg_25.mp4	0.0	336.8523139953613	0.10003495216369629
73	306.9152090549469	fix_pre	0		120	71.0	2.5	/experiments/aot/R_S_yt-IDpUZ2NWBUY_60.mp4	0.0	336.952348947525	0.9999339580535889
73	307.9151430130005	movie	1		299	71.0	2.5	/experiments/aot/R_S_yt-IDpUZ2NWBUY_60.mp4	0.0	337.9522829055786	2.5000860691070557
73	308.29855012893677	pulse	1	t		71.0	2.5	/experiments/aot/R_S_yt-IDpUZ2NWBUY_60.mp4	0.0	338.3356900215149	
73	309.89870595932007	pulse	1	t		71.0	2.5	/experiments/aot/R_S_yt-IDpUZ2NWBUY_60.mp4	0.0	339.9358458518982	
73	310.41522908210754	fix_post	2		12	71.0	2.5	/experiments/aot/R_S_yt-IDpUZ2NWBUY_60.mp4	0.0	340.45236897468567	0.1000058650970459
74	310.5152349472046	fix_pre	0		119	72.0	2.5	/experiments/aot/S_yt-fQgLKiz2tuM_14.mp4	0.0	340.5523748397827	0.9915530681610107
74	311.49873304367065	pulse	0	t		72.0	2.5	/experiments/aot/S_yt-fQgLKiz2tuM_14.mp4	0.0	341.5358729362488	
74	311.5067880153656	movie	1		301	72.0	2.5	/experiments/aot/S_yt-fQgLKiz2tuM_14.mp4	0.0	341.5439279079437	2.508333921432495
74	313.0945839881897	pulse	1	t		72.0	2.5	/experiments/aot/S_yt-fQgLKiz2tuM_14.mp4	0.0	343.1317238807678	
74	314.0151219367981	fix_post	2		12	72.0	2.5	/experiments/aot/S_yt-fQgLKiz2tuM_14.mp4	0.0	344.0522618293762	0.0999910831451416
75	314.11511301994324	fix_pre	0		120	73.0	2.5	/experiments/aot/R_S_yt-uE9XoCLZlFo_1.mp4	0.0	344.15225291252136	0.9996240139007568
75	314.6987009048462	pulse	0	t		73.0	2.5	/experiments/aot/R_S_yt-uE9XoCLZlFo_1.mp4	0.0	344.7358407974243	
75	315.114737033844	movie	1		299	73.0	2.5	/experiments/aot/R_S_yt-uE9XoCLZlFo_1.mp4	0.0	345.1518769264221	2.5003678798675537
75	316.29867601394653	pulse	1	t		73.0	2.5	/experiments/aot/R_S_yt-uE9XoCLZlFo_1.mp4	0.0	346.33581590652466	
75	317.61510491371155	fix_post	2		12	73.0	2.5	/experiments/aot/R_S_yt-uE9XoCLZlFo_1.mp4	0.0	347.6522448062897	0.09971809387207031
76	317.7148230075836	fix_pre	0		120	74.0	2.5	/experiments/aot/R_S_yt-LUIvP_NDWAs_45.mp4	0.0	347.75196290016174	1.0003209114074707
76	317.8986690044403	pulse	0	t		74.0	2.5	/experiments/aot/R_S_yt-LUIvP_NDWAs_45.mp4	0.0	347.93580889701843	
76	318.7151439189911	movie	1		300	74.0	2.5	/experiments/aot/R_S_yt-LUIvP_NDWAs_45.mp4	0.0	348.7522838115692	2.4999711513519287
76	319.4986300468445	pulse	1	t		74.0	2.5	/experiments/aot/R_S_yt-LUIvP_NDWAs_45.mp4	0.0	349.5357699394226	
76	321.0986659526825	pulse	1	t		74.0	2.5	/experiments/aot/R_S_yt-LUIvP_NDWAs_45.mp4	0.0	351.1358058452606	
76	321.215115070343	fix_post	2		12	74.0	2.5	/experiments/aot/R_S_yt-LUIvP_NDWAs_45.mp4	0.0	351.25225496292114	0.10000896453857422
77	321.3151240348816	fix_pre	0		120	75.0	2.5	/experiments/aot/R_S_yt-OdTWn1U1mO4_68.mp4	0.0	351.3522639274597	1.0001020431518555
77	322.31522607803345	movie	1		300	75.0	2.5	/experiments/aot/R_S_yt-OdTWn1U1mO4_68.mp4	0.0	352.3523659706116	2.4999639987945557
77	322.69865012168884	pulse	1	t		75.0	2.5	/experiments/aot/R_S_yt-OdTWn1U1mO4_68.mp4	0.0	352.73579001426697	
77	324.29854106903076	pulse	1	t		75.0	2.5	/experiments/aot/R_S_yt-OdTWn1U1mO4_68.mp4	0.0	354.3356809616089	
77	324.815190076828	fix_post	2		12	75.0	2.5	/experiments/aot/R_S_yt-OdTWn1U1mO4_68.mp4	0.0	354.8523299694061	0.09987902641296387
78	324.91506910324097	fix_pre	0		119	76.0	2.5	/experiments/aot/S_comp_DB_D002_C003_PSNK_v04_SDR_PS_20180914_SDR_2K_AVC.mp4	0.0	354.9522089958191	0.9917290210723877
78	325.8986990451813	pulse	0	t		76.0	2.5	/experiments/aot/S_comp_DB_D002_C003_PSNK_v04_SDR_PS_20180914_SDR_2K_AVC.mp4	0.0	355.9358389377594	
78	325.90679812431335	movie	1		166	76.0	2.5	/experiments/aot/S_comp_DB_D002_C003_PSNK_v04_SDR_PS_20180914_SDR_2K_AVC.mp4	0.0	355.9439380168915	2.5079398155212402
78	327.4982011318207	pulse	1	t		76.0	2.5	/experiments/aot/S_comp_DB_D002_C003_PSNK_v04_SDR_PS_20180914_SDR_2K_AVC.mp4	0.0	357.5353410243988	
78	328.4147379398346	fix_post	2		12	76.0	2.5	/experiments/aot/S_comp_DB_D002_C003_PSNK_v04_SDR_PS_20180914_SDR_2K_AVC.mp4	0.0	358.4518778324127	0.0999910831451416
79	328.51472902297974	fix_pre	0		120	77.0	2.5	blank	1.0	358.55186891555786	1.000169038772583
79	329.09825897216797	pulse	0	t		77.0	2.5	blank	1.0	359.1353988647461	
79	329.5148980617523	movie	1		300	77.0	2.5	blank	1.0	359.55203795433044	2.4998910427093506
79	330.6989200115204	pulse	1	t		77.0	2.5	blank	1.0	360.7360599040985	
79	332.01478910446167	fix_post	2		12	77.0	2.5	blank	1.0	362.0519289970398	0.10037994384765625
80	332.1151690483093	fix_pre	0		120	78.0	2.5	/experiments/aot/R_S_yt-7lULOC_rSE0_747.mp4	0.0	362.15230894088745	0.9999308586120605
80	332.2985780239105	pulse	0	t		78.0	2.5	/experiments/aot/R_S_yt-7lULOC_rSE0_747.mp4	0.0	362.33571791648865	
80	333.1150999069214	movie	1		300	78.0	2.5	/experiments/aot/R_S_yt-7lULOC_rSE0_747.mp4	0.0	363.1522397994995	2.499953031539917
80	333.8984971046448	pulse	1	t		78.0	2.5	/experiments/aot/R_S_yt-7lULOC_rSE0_747.mp4	0.0	363.9356369972229	
80	335.498153924942	pulse	1	t		78.0	2.5	/experiments/aot/R_S_yt-7lULOC_rSE0_747.mp4	0.0	365.53529381752014	
80	335.6150529384613	fix_post	2		12	78.0	2.5	/experiments/aot/R_S_yt-7lULOC_rSE0_747.mp4	0.0	365.65219283103943	0.10000205039978027
81	335.7150549888611	fix_pre	0		120	79.0	2.5	/experiments/aot/R_S_yt-sTBOjPxix5c_1072.mp4	0.0	365.7521948814392	0.9999489784240723
81	336.71500396728516	movie	1		300	79.0	2.5	/experiments/aot/R_S_yt-sTBOjPxix5c_1072.mp4	0.0	366.7521438598633	2.500056028366089
81	337.0984511375427	pulse	1	t		79.0	2.5	/experiments/aot/R_S_yt-sTBOjPxix5c_1072.mp4	0.0	367.13559103012085	
81	338.69850611686707	pulse	1	t		79.0	2.5	/experiments/aot/R_S_yt-sTBOjPxix5c_1072.mp4	0.0	368.7356460094452	
81	339.21505999565125	fix_post	2		12	79.0	2.5	/experiments/aot/R_S_yt-sTBOjPxix5c_1072.mp4	0.0	369.25219988822937	0.099945068359375
82	339.3150050640106	fix_pre	0		119	80.0	2.5	/experiments/aot/S_ILSVRC2015_train_00569006.mp4	0.0	369.35214495658875	0.9916949272155762
82	340.2986099720001	pulse	0	t		80.0	2.5	/experiments/aot/S_ILSVRC2015_train_00569006.mp4	0.0	370.33574986457825	
82	340.3066999912262	movie	1		301	80.0	2.5	/experiments/aot/S_ILSVRC2015_train_00569006.mp4	0.0	370.3438398838043	2.508333921432495
82	341.8946180343628	pulse	1	t		80.0	2.5	/experiments/aot/S_ILSVRC2015_train_00569006.mp4	0.0	371.9317579269409	
82	342.8150339126587	fix_post	2		12	80.0	2.5	/experiments/aot/S_ILSVRC2015_train_00569006.mp4	0.0	372.8521738052368	0.0999610424041748
83	342.91499495506287	fix_pre	0		120	81.0	2.5	/experiments/aot/R_S_video.mp4	0.0	372.952134847641	1.0000309944152832
83	343.49856901168823	pulse	0	t		81.0	2.5	/experiments/aot/R_S_video.mp4	0.0	373.53570890426636	
83	343.91502594947815	movie	1		166	81.0	2.5	/experiments/aot/R_S_video.mp4	0.0	373.9521658420563	2.5000221729278564
83	345.0988380908966	pulse	1	t		81.0	2.5	/experiments/aot/R_S_video.mp4	0.0	375.13597798347473	
83	346.415048122406	fix_post	2		12	81.0	2.5	/experiments/aot/R_S_video.mp4	0.0	376.45218801498413	0.09988999366760254
84	346.5149381160736	fix_pre	0		120	82.0	2.5	/experiments/aot/R_S_yt-EAMpitsjbbA_153.mp4	0.0	376.55207800865173	1.0000557899475098
84	346.69849705696106	pulse	0	t		82.0	2.5	/experiments/aot/R_S_yt-EAMpitsjbbA_153.mp4	0.0	376.7356369495392	
84	347.5149939060211	movie	1		299	82.0	2.5	/experiments/aot/R_S_yt-EAMpitsjbbA_153.mp4	0.0	377.55213379859924	2.499993085861206
84	348.298465013504	pulse	1	t		82.0	2.5	/experiments/aot/R_S_yt-EAMpitsjbbA_153.mp4	0.0	378.33560490608215	
84	349.89852595329285	pulse	1	t		82.0	2.5	/experiments/aot/R_S_yt-EAMpitsjbbA_153.mp4	0.0	379.935665845871	
84	350.0149869918823	fix_post	2		12	82.0	2.5	/experiments/aot/R_S_yt-EAMpitsjbbA_153.mp4	0.0	380.05212688446045	0.10002899169921875
85	350.11501598358154	fix_pre	0		120	83.0	2.5	blank	1.0	380.15215587615967	0.999953031539917
85	351.11496901512146	movie	1		300	83.0	2.5	blank	1.0	381.1521089076996	2.5000100135803223
85	351.4984829425812	pulse	1	t		83.0	2.5	blank	1.0	381.5356228351593	
85	353.09850001335144	pulse	1	t		83.0	2.5	blank	1.0	383.13563990592957	
85	353.6149790287018	fix_post	2		12	83.0	2.5	blank	1.0	383.6521189212799	0.10005998611450195
87	353.7150390148163	stim	0		1716					383.7521789073944	14.299840927124023
87	354.69854497909546	pulse	0	t						384.7356848716736	
87	356.29849004745483	pulse	0	t						386.33562994003296	
87	357.89847207069397	pulse	0	t						387.9356119632721	
87	359.49843311309814	pulse	0	t						389.53557300567627	
87	361.0985140800476	pulse	0	t						391.13565397262573	
87	362.69836497306824	pulse	0	t						392.73550486564636	
87	364.2983500957489	pulse	0	t						394.335489988327	
87	365.8984160423279	pulse	0	t						395.935555934906	
87	367.49835109710693	pulse	0	t						397.53549098968506	
