trial_nr	onset	event_type	phase	response	nr_frames	movie_index	movie_duration	movie_file	blank	onset_abs	duration
0	0.14985299110412598	stim	0		66					23.958565950393677	0.5501060485839844
0	0.6844630241394043	response	0	space						24.493175983428955	
1	0.6999590396881104	stim	0		4437					24.50867199897766	36.97467613220215
1	37.66690707206726	pulse	0	t						61.47562003135681	
1	37.67463517189026	stim	1		1717					61.48334813117981	14.30831789970398
1	39.26652908325195	pulse	1	t						63.075242042541504	
1	40.86649012565613	pulse	1	t						64.67520308494568	
1	42.4664990901947	pulse	1	t						66.27521204948425	
1	44.06653714179993	pulse	1	t						67.87525010108948	
1	45.66652202606201	pulse	1	t						69.47523498535156	
1	47.26646399497986	pulse	1	t						71.07517695426941	
1	48.8665030002594	pulse	1	t						72.67521595954895	
1	50.46646213531494	pulse	1	t						74.27517509460449	
2	51.98295307159424	fix_pre	0		11	0.0	2.5	/experiments/aot/S_b3TCugtX0h0_108.mp4	0.0	75.79166603088379	0.09164190292358398
2	52.06640911102295	pulse	0	t		0.0	2.5	/experiments/aot/S_b3TCugtX0h0_108.mp4	0.0	75.8751220703125	
2	52.07459497451782	movie	1		299	0.0	2.5	/experiments/aot/S_b3TCugtX0h0_108.mp4	0.0	75.88330793380737	2.5083670616149902
2	53.662172079086304	pulse	1	t		0.0	2.5	/experiments/aot/S_b3TCugtX0h0_108.mp4	0.0	77.47088503837585	
2	54.58296203613281	fix_post	2		12	0.0	2.5	/experiments/aot/S_b3TCugtX0h0_108.mp4	0.0	78.39167499542236	0.09997010231018066
3	54.68293213844299	fix_pre	0		120	1.0	2.5	/experiments/aot/R_S_yt-I2n2eo2zoZs_112.mp4	0.0	78.49164509773254	1.0000128746032715
3	55.26652717590332	pulse	0	t		1.0	2.5	/experiments/aot/R_S_yt-I2n2eo2zoZs_112.mp4	0.0	79.07524013519287	
3	55.682945013046265	movie	1		300	1.0	2.5	/experiments/aot/R_S_yt-I2n2eo2zoZs_112.mp4	0.0	79.49165797233582	2.499983072280884
3	56.866454124450684	pulse	1	t		1.0	2.5	/experiments/aot/R_S_yt-I2n2eo2zoZs_112.mp4	0.0	80.67516708374023	
3	58.18292808532715	fix_post	2		12	1.0	2.5	/experiments/aot/R_S_yt-I2n2eo2zoZs_112.mp4	0.0	81.9916410446167	0.09999799728393555
4	58.282926082611084	fix_pre	0		120	2.0	2.5	/experiments/aot/R_S_yt-XF0fyyFEgWo_280.mp4	0.0	82.09163904190063	1.0000700950622559
4	58.46647810935974	pulse	0	t		2.0	2.5	/experiments/aot/R_S_yt-XF0fyyFEgWo_280.mp4	0.0	82.27519106864929	
4	59.28299617767334	movie	1		299	2.0	2.5	/experiments/aot/R_S_yt-XF0fyyFEgWo_280.mp4	0.0	83.09170913696289	2.499919891357422
4	60.06645107269287	pulse	1	t		2.0	2.5	/experiments/aot/R_S_yt-XF0fyyFEgWo_280.mp4	0.0	83.87516403198242	
4	61.666471004486084	pulse	1	t		2.0	2.5	/experiments/aot/R_S_yt-XF0fyyFEgWo_280.mp4	0.0	85.47518396377563	
4	61.78291606903076	fix_post	2		12	2.0	2.5	/experiments/aot/R_S_yt-XF0fyyFEgWo_280.mp4	0.0	85.59162902832031	0.10012698173522949
5	61.88304305076599	fix_pre	0		120	3.0	2.5	/experiments/aot/S_yt-XF0fyyFEgWo_280.mp4	0.0	85.69175601005554	0.9999079704284668
5	62.88295102119446	movie	1		300	3.0	2.5	/experiments/aot/S_yt-XF0fyyFEgWo_280.mp4	0.0	86.69166398048401	2.499994993209839
5	63.26646614074707	pulse	1	t		3.0	2.5	/experiments/aot/S_yt-XF0fyyFEgWo_280.mp4	0.0	87.07517910003662	
5	64.86640501022339	pulse	1	t		3.0	2.5	/experiments/aot/S_yt-XF0fyyFEgWo_280.mp4	0.0	88.67511796951294	
5	65.3829460144043	fix_post	2		12	3.0	2.5	/experiments/aot/S_yt-XF0fyyFEgWo_280.mp4	0.0	89.19165897369385	0.09998202323913574
6	65.48292803764343	fix_pre	0		119	4.0	2.5	/experiments/aot/R_S_yt-B8Sy53C6Pxw_8.mp4	0.0	89.29164099693298	0.9915881156921387
6	66.46636199951172	pulse	0	t		4.0	2.5	/experiments/aot/R_S_yt-B8Sy53C6Pxw_8.mp4	0.0	90.27507495880127	
6	66.47451615333557	movie	1		301	4.0	2.5	/experiments/aot/R_S_yt-B8Sy53C6Pxw_8.mp4	0.0	90.28322911262512	2.508342981338501
6	68.06233596801758	pulse	1	t		4.0	2.5	/experiments/aot/R_S_yt-B8Sy53C6Pxw_8.mp4	0.0	91.87104892730713	
6	68.98285913467407	fix_post	2		12	4.0	2.5	/experiments/aot/R_S_yt-B8Sy53C6Pxw_8.mp4	0.0	92.79157209396362	0.09997797012329102
7	69.08283710479736	fix_pre	0		120	5.0	2.5	/experiments/aot/R_S_yt-tOOaOzYvtKE_79.mp4	0.0	92.89155006408691	0.9999880790710449
7	69.66639018058777	pulse	0	t		5.0	2.5	/experiments/aot/R_S_yt-tOOaOzYvtKE_79.mp4	0.0	93.47510313987732	
7	70.08282518386841	movie	1		299	5.0	2.5	/experiments/aot/R_S_yt-tOOaOzYvtKE_79.mp4	0.0	93.89153814315796	2.500072956085205
7	71.26631808280945	pulse	1	t		5.0	2.5	/experiments/aot/R_S_yt-tOOaOzYvtKE_79.mp4	0.0	95.075031042099	
7	72.58289813995361	fix_post	2		12	5.0	2.5	/experiments/aot/R_S_yt-tOOaOzYvtKE_79.mp4	0.0	96.39161109924316	0.09998583793640137
8	72.68288397789001	fix_pre	0		120	6.0	2.5	blank	1.0	96.49159693717957	1.000028133392334
8	72.86629700660706	pulse	0	t		6.0	2.5	blank	1.0	96.6750099658966	
8	73.68291211128235	movie	1		300	6.0	2.5	blank	1.0	97.4916250705719	2.500005006790161
8	74.46630501747131	pulse	1	t		6.0	2.5	blank	1.0	98.27501797676086	
8	76.0663161277771	pulse	1	t		6.0	2.5	blank	1.0	99.87502908706665	
8	76.18291711807251	fix_post	2		12	6.0	2.5	blank	1.0	99.99163007736206	0.09999799728393555
9	76.28291511535645	fix_pre	0		120	7.0	2.5	/experiments/aot/S_yt-G65z8p1YNhw_16.mp4	0.0	100.091628074646	0.9999818801879883
9	77.28289699554443	movie	1		300	7.0	2.5	/experiments/aot/S_yt-G65z8p1YNhw_16.mp4	0.0	101.09160995483398	2.5
9	77.6662950515747	pulse	1	t		7.0	2.5	/experiments/aot/S_yt-G65z8p1YNhw_16.mp4	0.0	101.47500801086426	
9	79.26630401611328	pulse	1	t		7.0	2.5	/experiments/aot/S_yt-G65z8p1YNhw_16.mp4	0.0	103.07501697540283	
9	79.78289699554443	fix_post	2		12	7.0	2.5	/experiments/aot/S_yt-G65z8p1YNhw_16.mp4	0.0	103.59160995483398	0.09992098808288574
10	79.88281798362732	fix_pre	0		119	8.0	2.5	/experiments/aot/S_ILSVRC2015_train_00042002.mp4	0.0	103.69153094291687	0.9917850494384766
10	80.86644411087036	pulse	0	t		8.0	2.5	/experiments/aot/S_ILSVRC2015_train_00042002.mp4	0.0	104.67515707015991	
10	80.8746030330658	movie	1		299	8.0	2.5	/experiments/aot/S_ILSVRC2015_train_00042002.mp4	0.0	104.68331599235535	2.5083889961242676
10	82.46165895462036	pulse	1	t		8.0	2.5	/experiments/aot/S_ILSVRC2015_train_00042002.mp4	0.0	106.27037191390991	
10	83.38299202919006	fix_post	2		12	8.0	2.5	/experiments/aot/S_ILSVRC2015_train_00042002.mp4	0.0	107.19170498847961	0.10000109672546387
11	83.48299312591553	fix_pre	0		120	9.0	2.5	/experiments/aot/R_S_yt-c-H45QS0CF4_147.mp4	0.0	107.29170608520508	0.9997539520263672
11	84.06660509109497	pulse	0	t		9.0	2.5	/experiments/aot/R_S_yt-c-H45QS0CF4_147.mp4	0.0	107.87531805038452	
11	84.4827470779419	movie	1		300	9.0	2.5	/experiments/aot/R_S_yt-c-H45QS0CF4_147.mp4	0.0	108.29146003723145	2.500135898590088
11	85.66631817817688	pulse	1	t		9.0	2.5	/experiments/aot/R_S_yt-c-H45QS0CF4_147.mp4	0.0	109.47503113746643	
11	86.98288297653198	fix_post	2		12	9.0	2.5	/experiments/aot/R_S_yt-c-H45QS0CF4_147.mp4	0.0	110.79159593582153	0.09989500045776367
12	87.08277797698975	fix_pre	0		120	10.0	2.5	/experiments/aot/R_S_production_ID_3944248.mp4	0.0	110.8914909362793	1.0000159740447998
12	87.2663221359253	pulse	0	t		10.0	2.5	/experiments/aot/R_S_production_ID_3944248.mp4	0.0	111.07503509521484	
12	88.08279395103455	movie	1		166	10.0	2.5	/experiments/aot/R_S_production_ID_3944248.mp4	0.0	111.8915069103241	2.499932050704956
12	88.86630606651306	pulse	1	t		10.0	2.5	/experiments/aot/R_S_production_ID_3944248.mp4	0.0	112.67501902580261	
12	90.46625208854675	pulse	1	t		10.0	2.5	/experiments/aot/R_S_production_ID_3944248.mp4	0.0	114.2749650478363	
12	90.5827260017395	fix_post	2		12	10.0	2.5	/experiments/aot/R_S_production_ID_3944248.mp4	0.0	114.39143896102905	0.1000051498413086
13	90.68273115158081	fix_pre	0		120	11.0	2.5	/experiments/aot/S_comp_LA_A006_C008_PSNK_ALL_LOGOS_v10_SDR_PS_FINAL_20180801_SDR_2K_AVC.mp4	0.0	114.49144411087036	0.9999969005584717
13	91.68272805213928	movie	1		168	11.0	2.5	/experiments/aot/S_comp_LA_A006_C008_PSNK_ALL_LOGOS_v10_SDR_PS_FINAL_20180801_SDR_2K_AVC.mp4	0.0	115.49144101142883	2.5000040531158447
13	92.06628704071045	pulse	1	t		11.0	2.5	/experiments/aot/S_comp_LA_A006_C008_PSNK_ALL_LOGOS_v10_SDR_PS_FINAL_20180801_SDR_2K_AVC.mp4	0.0	115.875	
13	93.66629695892334	pulse	1	t		11.0	2.5	/experiments/aot/S_comp_LA_A006_C008_PSNK_ALL_LOGOS_v10_SDR_PS_FINAL_20180801_SDR_2K_AVC.mp4	0.0	117.47500991821289	
13	94.18273210525513	fix_post	2		12	11.0	2.5	/experiments/aot/S_comp_LA_A006_C008_PSNK_ALL_LOGOS_v10_SDR_PS_FINAL_20180801_SDR_2K_AVC.mp4	0.0	117.99144506454468	0.09991908073425293
14	94.28265118598938	fix_pre	0		119	12.0	2.5	/experiments/aot/S_yt-FMIevUic_XY_50.mp4	0.0	118.09136414527893	0.9917559623718262
14	95.26627898216248	pulse	0	t		12.0	2.5	/experiments/aot/S_yt-FMIevUic_XY_50.mp4	0.0	119.07499194145203	
14	95.2744071483612	movie	1		301	12.0	2.5	/experiments/aot/S_yt-FMIevUic_XY_50.mp4	0.0	119.08312010765076	2.5083298683166504
14	96.86289310455322	pulse	1	t		12.0	2.5	/experiments/aot/S_yt-FMIevUic_XY_50.mp4	0.0	120.67160606384277	
14	97.78273701667786	fix_post	2		12	12.0	2.5	/experiments/aot/S_yt-FMIevUic_XY_50.mp4	0.0	121.59144997596741	0.10001206398010254
15	97.88274908065796	fix_pre	0		120	13.0	2.5	blank	1.0	121.69146203994751	0.9999849796295166
15	98.46632599830627	pulse	0	t		13.0	2.5	blank	1.0	122.27503895759583	
15	98.88273406028748	movie	1		300	13.0	2.5	blank	1.0	122.69144701957703	2.5000181198120117
15	100.06628704071045	pulse	1	t		13.0	2.5	blank	1.0	123.875	
15	101.38275218009949	fix_post	2		12	13.0	2.5	blank	1.0	125.19146513938904	0.09988784790039062
16	101.48264002799988	fix_pre	0		120	14.0	2.5	/experiments/aot/R_S_yt--JnTDuElzXQ_121.mp4	0.0	125.29135298728943	1.0001211166381836
16	101.66621017456055	pulse	0	t		14.0	2.5	/experiments/aot/R_S_yt--JnTDuElzXQ_121.mp4	0.0	125.4749231338501	
16	102.48276114463806	movie	1		300	14.0	2.5	/experiments/aot/R_S_yt--JnTDuElzXQ_121.mp4	0.0	126.29147410392761	2.4999308586120605
16	103.26621198654175	pulse	1	t		14.0	2.5	/experiments/aot/R_S_yt--JnTDuElzXQ_121.mp4	0.0	127.0749249458313	
16	104.86625504493713	pulse	1	t		14.0	2.5	/experiments/aot/R_S_yt--JnTDuElzXQ_121.mp4	0.0	128.67496800422668	
16	104.98269200325012	fix_post	2		12	14.0	2.5	/experiments/aot/R_S_yt--JnTDuElzXQ_121.mp4	0.0	128.79140496253967	0.1000370979309082
17	105.08272910118103	fix_pre	0		120	15.0	2.5	/experiments/aot/R_S_yt-AbJBxqEYoMg_105.mp4	0.0	128.89144206047058	0.9999680519104004
17	106.08269715309143	movie	1		300	15.0	2.5	/experiments/aot/R_S_yt-AbJBxqEYoMg_105.mp4	0.0	129.89141011238098	2.4999778270721436
17	106.46618604660034	pulse	1	t		15.0	2.5	/experiments/aot/R_S_yt-AbJBxqEYoMg_105.mp4	0.0	130.2748990058899	
17	108.06608510017395	pulse	1	t		15.0	2.5	/experiments/aot/R_S_yt-AbJBxqEYoMg_105.mp4	0.0	131.8747980594635	
17	108.58267498016357	fix_post	2		12	15.0	2.5	/experiments/aot/R_S_yt-AbJBxqEYoMg_105.mp4	0.0	132.39138793945312	0.09999203681945801
18	108.68266701698303	fix_pre	0		119	16.0	2.5	/experiments/aot/R_S_yt-GOgS--rzmKQ_51.mp4	0.0	132.49137997627258	0.9916319847106934
18	109.66622710227966	pulse	0	t		16.0	2.5	/experiments/aot/R_S_yt-GOgS--rzmKQ_51.mp4	0.0	133.4749400615692	
18	109.67429900169373	movie	1		301	16.0	2.5	/experiments/aot/R_S_yt-GOgS--rzmKQ_51.mp4	0.0	133.48301196098328	2.508380174636841
18	111.26250195503235	pulse	1	t		16.0	2.5	/experiments/aot/R_S_yt-GOgS--rzmKQ_51.mp4	0.0	135.0712149143219	
18	112.18267917633057	fix_post	2		12	16.0	2.5	/experiments/aot/R_S_yt-GOgS--rzmKQ_51.mp4	0.0	135.99139213562012	0.10000395774841309
19	112.28268313407898	fix_pre	0		120	17.0	2.5	/experiments/aot/R_S_yt-25xuzTBhwPk_109.mp4	0.0	136.09139609336853	1.0000150203704834
19	112.86622405052185	pulse	0	t		17.0	2.5	/experiments/aot/R_S_yt-25xuzTBhwPk_109.mp4	0.0	136.6749370098114	
19	113.28269815444946	movie	1		300	17.0	2.5	/experiments/aot/R_S_yt-25xuzTBhwPk_109.mp4	0.0	137.091411113739	2.4999399185180664
19	114.46618008613586	pulse	1	t		17.0	2.5	/experiments/aot/R_S_yt-25xuzTBhwPk_109.mp4	0.0	138.27489304542542	
19	115.78263807296753	fix_post	2		12	17.0	2.5	/experiments/aot/R_S_yt-25xuzTBhwPk_109.mp4	0.0	139.59135103225708	0.0999910831451416
20	115.88262915611267	fix_pre	0		120	18.0	2.5	/experiments/aot/S_yt-ph1AkIToO4E_46.mp4	0.0	139.69134211540222	1.0000808238983154
20	116.06623601913452	pulse	0	t		18.0	2.5	/experiments/aot/S_yt-ph1AkIToO4E_46.mp4	0.0	139.87494897842407	
20	116.88270998001099	movie	1		300	18.0	2.5	/experiments/aot/S_yt-ph1AkIToO4E_46.mp4	0.0	140.69142293930054	2.4999380111694336
20	117.66617703437805	pulse	1	t		18.0	2.5	/experiments/aot/S_yt-ph1AkIToO4E_46.mp4	0.0	141.4748899936676	
20	119.26571917533875	pulse	1	t		18.0	2.5	/experiments/aot/S_yt-ph1AkIToO4E_46.mp4	0.0	143.0744321346283	
20	119.38264799118042	fix_post	2		12	18.0	2.5	/experiments/aot/S_yt-ph1AkIToO4E_46.mp4	0.0	143.19136095046997	0.09997105598449707
21	119.48261904716492	fix_pre	0		120	19.0	2.5	/experiments/aot/S_wc-sd8_iKx0t7s7_9.mp4	0.0	143.29133200645447	1.000025987625122
21	120.48264503479004	movie	1		163	19.0	2.5	/experiments/aot/S_wc-sd8_iKx0t7s7_9.mp4	0.0	144.2913579940796	2.499967098236084
21	120.86622405052185	pulse	1	t		19.0	2.5	/experiments/aot/S_wc-sd8_iKx0t7s7_9.mp4	0.0	144.6749370098114	
21	122.46618008613586	pulse	1	t		19.0	2.5	/experiments/aot/S_wc-sd8_iKx0t7s7_9.mp4	0.0	146.27489304542542	
21	122.98261213302612	fix_post	2		12	19.0	2.5	/experiments/aot/S_wc-sd8_iKx0t7s7_9.mp4	0.0	146.79132509231567	0.09999585151672363
22	123.08260798454285	fix_pre	0		119	20.0	2.5	/experiments/aot/S_pexels-anthony-shkraba-production-8135459.mp4	0.0	146.8913209438324	0.9917562007904053
22	124.06617307662964	pulse	0	t		20.0	2.5	/experiments/aot/S_pexels-anthony-shkraba-production-8135459.mp4	0.0	147.8748860359192	
22	124.07436418533325	movie	1		164	20.0	2.5	/experiments/aot/S_pexels-anthony-shkraba-production-8135459.mp4	0.0	147.8830771446228	2.5083107948303223
22	125.66644811630249	pulse	1	t		20.0	2.5	/experiments/aot/S_pexels-anthony-shkraba-production-8135459.mp4	0.0	149.47516107559204	
22	126.58267498016357	fix_post	2		12	20.0	2.5	/experiments/aot/S_pexels-anthony-shkraba-production-8135459.mp4	0.0	150.39138793945312	0.09996318817138672
23	126.68263816833496	fix_pre	0		120	21.0	2.5	blank	1.0	150.4913511276245	0.99997878074646
23	127.26605415344238	pulse	0	t		21.0	2.5	blank	1.0	151.07476711273193	
23	127.68261694908142	movie	1		300	21.0	2.5	blank	1.0	151.49132990837097	2.5001401901245117
23	128.86609506607056	pulse	1	t		21.0	2.5	blank	1.0	152.6748080253601	
23	130.18275713920593	fix_post	2		12	21.0	2.5	blank	1.0	153.99147009849548	0.09982085227966309
24	130.2825779914856	fix_pre	0		120	22.0	2.5	/experiments/aot/R_S_yt-0bovQBIUZho_15.mp4	0.0	154.09129095077515	1.0000121593475342
24	130.46616196632385	pulse	0	t		22.0	2.5	/experiments/aot/R_S_yt-0bovQBIUZho_15.mp4	0.0	154.2748749256134	
24	131.28259015083313	movie	1		300	22.0	2.5	/experiments/aot/R_S_yt-0bovQBIUZho_15.mp4	0.0	155.09130311012268	2.5000219345092773
24	132.06610012054443	pulse	1	t		22.0	2.5	/experiments/aot/R_S_yt-0bovQBIUZho_15.mp4	0.0	155.87481307983398	
24	133.66172814369202	pulse	1	t		22.0	2.5	/experiments/aot/R_S_yt-0bovQBIUZho_15.mp4	0.0	157.47044110298157	
24	133.7826120853424	fix_post	2		12	22.0	2.5	/experiments/aot/R_S_yt-0bovQBIUZho_15.mp4	0.0	157.59132504463196	0.10004591941833496
25	133.88265800476074	fix_pre	0		120	23.0	2.5	/experiments/aot/R_S_yt-zgkJCgcT1s4_300.mp4	0.0	157.6913709640503	0.9998900890350342
25	134.88254809379578	movie	1		300	23.0	2.5	/experiments/aot/R_S_yt-zgkJCgcT1s4_300.mp4	0.0	158.69126105308533	2.499650001525879
25	135.2660529613495	pulse	1	t		23.0	2.5	/experiments/aot/R_S_yt-zgkJCgcT1s4_300.mp4	0.0	159.07476592063904	
25	136.86555910110474	pulse	1	t		23.0	2.5	/experiments/aot/R_S_yt-zgkJCgcT1s4_300.mp4	0.0	160.6742720603943	
25	137.38219809532166	fix_post	2		12	23.0	2.5	/experiments/aot/R_S_yt-zgkJCgcT1s4_300.mp4	0.0	161.1909110546112	0.10040497779846191
26	137.48260307312012	fix_pre	0		119	24.0	2.5	/experiments/aot/S_yt-JTVyt-eu4VI_1.mp4	0.0	161.29131603240967	0.9912769794464111
26	138.4661340713501	pulse	0	t		24.0	2.5	/experiments/aot/S_yt-JTVyt-eu4VI_1.mp4	0.0	162.27484703063965	
26	138.47388005256653	movie	1		301	24.0	2.5	/experiments/aot/S_yt-JTVyt-eu4VI_1.mp4	0.0	162.28259301185608	2.508700132369995
26	140.06213116645813	pulse	1	t		24.0	2.5	/experiments/aot/S_yt-JTVyt-eu4VI_1.mp4	0.0	163.87084412574768	
26	140.98258018493652	fix_post	2		12	24.0	2.5	/experiments/aot/S_yt-JTVyt-eu4VI_1.mp4	0.0	164.79129314422607	0.10000491142272949
27	141.08258509635925	fix_pre	0		120	25.0	2.5	/experiments/aot/S_yt-zam74qlzGtQ_122.mp4	0.0	164.8912980556488	0.9999830722808838
27	141.66610598564148	pulse	0	t		25.0	2.5	/experiments/aot/S_yt-zam74qlzGtQ_122.mp4	0.0	165.47481894493103	
27	142.08256816864014	movie	1		300	25.0	2.5	/experiments/aot/S_yt-zam74qlzGtQ_122.mp4	0.0	165.8912811279297	2.499983787536621
27	143.26593112945557	pulse	1	t		25.0	2.5	/experiments/aot/S_yt-zam74qlzGtQ_122.mp4	0.0	167.07464408874512	
27	144.58255195617676	fix_post	2		12	25.0	2.5	/experiments/aot/S_yt-zam74qlzGtQ_122.mp4	0.0	168.3912649154663	0.09998011589050293
28	144.68253207206726	fix_pre	0		120	26.0	2.5	blank	1.0	168.4912450313568	0.9999051094055176
28	144.86605596542358	pulse	0	t		26.0	2.5	blank	1.0	168.67476892471313	
28	145.68243718147278	movie	1		300	26.0	2.5	blank	1.0	169.49115014076233	2.5000109672546387
28	146.46596717834473	pulse	1	t		26.0	2.5	blank	1.0	170.27468013763428	
28	148.06589317321777	pulse	1	t		26.0	2.5	blank	1.0	171.87460613250732	
28	148.18244814872742	fix_post	2		12	26.0	2.5	blank	1.0	171.99116110801697	0.09999299049377441
29	148.2824411392212	fix_pre	0		120	27.0	2.5	/experiments/aot/S_yt-ebajhZwlVJM_32.mp4	0.0	172.09115409851074	1.0000839233398438
29	149.28252506256104	movie	1		300	27.0	2.5	/experiments/aot/S_yt-ebajhZwlVJM_32.mp4	0.0	173.0912380218506	2.4998879432678223
29	149.66595697402954	pulse	1	t		27.0	2.5	/experiments/aot/S_yt-ebajhZwlVJM_32.mp4	0.0	173.4746699333191	
29	151.26596403121948	pulse	1	t		27.0	2.5	/experiments/aot/S_yt-ebajhZwlVJM_32.mp4	0.0	175.07467699050903	
29	151.78241300582886	fix_post	2		12	27.0	2.5	/experiments/aot/S_yt-ebajhZwlVJM_32.mp4	0.0	175.5911259651184	0.10014605522155762
30	151.88255906105042	fix_pre	0		119	28.0	2.5	/experiments/aot/S_5Bc466bkeA0_35.mp4	0.0	175.69127202033997	0.9915330410003662
30	152.86596012115479	pulse	0	t		28.0	2.5	/experiments/aot/S_5Bc466bkeA0_35.mp4	0.0	176.67467308044434	
30	152.87409210205078	movie	1		301	28.0	2.5	/experiments/aot/S_5Bc466bkeA0_35.mp4	0.0	176.68280506134033	2.5083229541778564
30	154.4659481048584	pulse	1	t		28.0	2.5	/experiments/aot/S_5Bc466bkeA0_35.mp4	0.0	178.27466106414795	
30	155.38241505622864	fix_post	2		12	28.0	2.5	/experiments/aot/S_5Bc466bkeA0_35.mp4	0.0	179.1911280155182	0.10006499290466309
31	155.4824800491333	fix_pre	0		120	29.0	2.5	/experiments/aot/S_b4-3.mp4	0.0	179.29119300842285	1.0000600814819336
31	156.06598210334778	pulse	0	t		29.0	2.5	/experiments/aot/S_b4-3.mp4	0.0	179.87469506263733	
31	156.48254013061523	movie	1		165	29.0	2.5	/experiments/aot/S_b4-3.mp4	0.0	180.29125308990479	2.499876022338867
31	157.6659860610962	pulse	1	t		29.0	2.5	/experiments/aot/S_b4-3.mp4	0.0	181.47469902038574	
31	158.9824161529541	fix_post	2		12	29.0	2.5	/experiments/aot/S_b4-3.mp4	0.0	182.79112911224365	0.0999908447265625
32	159.08240699768066	fix_pre	0		120	30.0	2.5	/experiments/aot/S_ILSVRC2015_test_00004002.mp4	0.0	182.89111995697021	1.0000519752502441
32	159.26598811149597	pulse	0	t		30.0	2.5	/experiments/aot/S_ILSVRC2015_test_00004002.mp4	0.0	183.07470107078552	
32	160.0824589729309	movie	1		300	30.0	2.5	/experiments/aot/S_ILSVRC2015_test_00004002.mp4	0.0	183.89117193222046	2.4999501705169678
32	160.8659930229187	pulse	1	t		30.0	2.5	/experiments/aot/S_ILSVRC2015_test_00004002.mp4	0.0	184.67470598220825	
32	162.46599507331848	pulse	1	t		30.0	2.5	/experiments/aot/S_ILSVRC2015_test_00004002.mp4	0.0	186.27470803260803	
32	162.58240914344788	fix_post	2		12	30.0	2.5	/experiments/aot/S_ILSVRC2015_test_00004002.mp4	0.0	186.39112210273743	0.10002493858337402
33	162.68243408203125	fix_pre	0		120	31.0	2.5	/experiments/aot/S_yt-fnE8kgUHUMI_64.mp4	0.0	186.4911470413208	0.9999709129333496
33	163.6824049949646	movie	1		299	31.0	2.5	/experiments/aot/S_yt-fnE8kgUHUMI_64.mp4	0.0	187.49111795425415	2.5000760555267334
33	164.06594610214233	pulse	1	t		31.0	2.5	/experiments/aot/S_yt-fnE8kgUHUMI_64.mp4	0.0	187.87465906143188	
33	165.6659209728241	pulse	1	t		31.0	2.5	/experiments/aot/S_yt-fnE8kgUHUMI_64.mp4	0.0	189.47463393211365	
33	166.18248105049133	fix_post	2		12	31.0	2.5	/experiments/aot/S_yt-fnE8kgUHUMI_64.mp4	0.0	189.99119400978088	0.09987711906433105
34	166.28235816955566	fix_pre	0		119	32.0	2.5	/experiments/aot/S_yt-ebajhZwlVJM_32.mp4	0.0	190.09107112884521	0.9916489124298096
34	167.2659990787506	pulse	0	t		32.0	2.5	/experiments/aot/S_yt-ebajhZwlVJM_32.mp4	0.0	191.07471203804016	
34	167.27400708198547	movie	1		301	32.0	2.5	/experiments/aot/S_yt-ebajhZwlVJM_32.mp4	0.0	191.08272004127502	2.508344888687134
34	168.86196112632751	pulse	1	t		32.0	2.5	/experiments/aot/S_yt-ebajhZwlVJM_32.mp4	0.0	192.67067408561707	
34	169.7823519706726	fix_post	2		12	32.0	2.5	/experiments/aot/S_yt-ebajhZwlVJM_32.mp4	0.0	193.59106492996216	0.10006403923034668
35	169.88241600990295	fix_pre	0		120	33.0	2.5	/experiments/aot/S_nPwtvvPgdNc_39.mp4	0.0	193.6911289691925	0.9998941421508789
35	170.46590614318848	pulse	0	t		33.0	2.5	/experiments/aot/S_nPwtvvPgdNc_39.mp4	0.0	194.27461910247803	
35	170.88231015205383	movie	1		300	33.0	2.5	/experiments/aot/S_nPwtvvPgdNc_39.mp4	0.0	194.69102311134338	2.500065803527832
35	172.06593704223633	pulse	1	t		33.0	2.5	/experiments/aot/S_nPwtvvPgdNc_39.mp4	0.0	195.87465000152588	
35	173.38237595558167	fix_post	2		12	33.0	2.5	/experiments/aot/S_nPwtvvPgdNc_39.mp4	0.0	197.19108891487122	0.09996414184570312
36	173.48234009742737	fix_pre	0		120	34.0	2.5	blank	1.0	197.29105305671692	1.0000839233398438
36	173.66586303710938	pulse	0	t		34.0	2.5	blank	1.0	197.47457599639893	
36	174.4824240207672	movie	1		300	34.0	2.5	blank	1.0	198.29113698005676	2.499864101409912
36	175.26589012145996	pulse	1	t		34.0	2.5	blank	1.0	199.0746030807495	
36	176.86598110198975	pulse	1	t		34.0	2.5	blank	1.0	200.6746940612793	
36	176.98228812217712	fix_post	2		12	34.0	2.5	blank	1.0	200.79100108146667	0.10003805160522461
37	177.08232617378235	fix_pre	0		120	35.0	2.5	/experiments/aot/R_S_yt-MNo__ov96eI_22.mp4	0.0	200.8910391330719	1.0000159740447998
37	178.08234214782715	movie	1		299	35.0	2.5	/experiments/aot/R_S_yt-MNo__ov96eI_22.mp4	0.0	201.8910551071167	2.5000569820404053
37	178.465882062912	pulse	1	t		35.0	2.5	/experiments/aot/R_S_yt-MNo__ov96eI_22.mp4	0.0	202.27459502220154	
37	180.0659201145172	pulse	1	t		35.0	2.5	/experiments/aot/R_S_yt-MNo__ov96eI_22.mp4	0.0	203.87463307380676	
37	180.58239912986755	fix_post	2		12	35.0	2.5	/experiments/aot/R_S_yt-MNo__ov96eI_22.mp4	0.0	204.3911120891571	0.10002303123474121
38	180.6824221611023	fix_pre	0		119	36.0	2.5	/experiments/aot/S_yt-HoRtvVuuvOs_5.mp4	0.0	204.49113512039185	0.9915587902069092
38	181.66584300994873	pulse	0	t		36.0	2.5	/experiments/aot/S_yt-HoRtvVuuvOs_5.mp4	0.0	205.47455596923828	
38	181.6739809513092	movie	1		301	36.0	2.5	/experiments/aot/S_yt-HoRtvVuuvOs_5.mp4	0.0	205.48269391059875	2.508341073989868
38	183.26165199279785	pulse	1	t		36.0	2.5	/experiments/aot/S_yt-HoRtvVuuvOs_5.mp4	0.0	207.0703649520874	
38	184.18232202529907	fix_post	2		12	36.0	2.5	/experiments/aot/S_yt-HoRtvVuuvOs_5.mp4	0.0	207.99103498458862	0.09997105598449707
39	184.28229308128357	fix_pre	0		120	37.0	2.5	/experiments/aot/R_S_yt-vQGD-rJyMw4_166.mp4	0.0	208.09100604057312	1.0000429153442383
39	184.86574602127075	pulse	0	t		37.0	2.5	/experiments/aot/R_S_yt-vQGD-rJyMw4_166.mp4	0.0	208.6744589805603	
39	185.2823359966278	movie	1		299	37.0	2.5	/experiments/aot/R_S_yt-vQGD-rJyMw4_166.mp4	0.0	209.09104895591736	2.499911069869995
39	186.465900182724	pulse	1	t		37.0	2.5	/experiments/aot/R_S_yt-vQGD-rJyMw4_166.mp4	0.0	210.27461314201355	
39	187.7822470664978	fix_post	2		12	37.0	2.5	/experiments/aot/R_S_yt-vQGD-rJyMw4_166.mp4	0.0	211.59096002578735	0.10009288787841797
40	187.88233995437622	fix_pre	0		120	38.0	2.5	/experiments/aot/S_yt-R0gFQo85cAE_5.mp4	0.0	211.69105291366577	0.9999711513519287
40	188.06574416160583	pulse	0	t		38.0	2.5	/experiments/aot/S_yt-R0gFQo85cAE_5.mp4	0.0	211.87445712089539	
40	188.88231110572815	movie	1		299	38.0	2.5	/experiments/aot/S_yt-R0gFQo85cAE_5.mp4	0.0	212.6910240650177	2.499988079071045
40	189.6658329963684	pulse	1	t		38.0	2.5	/experiments/aot/S_yt-R0gFQo85cAE_5.mp4	0.0	213.47454595565796	
40	191.26586318016052	pulse	1	t		38.0	2.5	/experiments/aot/S_yt-R0gFQo85cAE_5.mp4	0.0	215.07457613945007	
40	191.3822991847992	fix_post	2		12	38.0	2.5	/experiments/aot/S_yt-R0gFQo85cAE_5.mp4	0.0	215.19101214408875	0.10011792182922363
41	191.48241710662842	fix_pre	0		120	39.0	2.5	/experiments/aot/S_comp_HK_H004_C010_PSNK_v08_SDR_PS_20181009_SDR_2K_AVC.mp4	0.0	215.29113006591797	0.999863862991333
41	192.48228096961975	movie	1		163	39.0	2.5	/experiments/aot/S_comp_HK_H004_C010_PSNK_v08_SDR_PS_20181009_SDR_2K_AVC.mp4	0.0	216.2909939289093	2.5002059936523438
41	192.86537408828735	pulse	1	t		39.0	2.5	/experiments/aot/S_comp_HK_H004_C010_PSNK_v08_SDR_PS_20181009_SDR_2K_AVC.mp4	0.0	216.6740870475769	
41	194.4658660888672	pulse	1	t		39.0	2.5	/experiments/aot/S_comp_HK_H004_C010_PSNK_v08_SDR_PS_20181009_SDR_2K_AVC.mp4	0.0	218.27457904815674	
41	194.9824869632721	fix_post	2		12	39.0	2.5	/experiments/aot/S_comp_HK_H004_C010_PSNK_v08_SDR_PS_20181009_SDR_2K_AVC.mp4	0.0	218.79119992256165	0.09963822364807129
42	195.08212518692017	fix_pre	0		119	40.0	2.5	/experiments/aot/R_S_comp_LA_A009_C009_PSNK_v02_SDR_PS_FINAL_20180709_SDR_2K_AVC.mp4	0.0	218.89083814620972	0.9917869567871094
42	196.0657660961151	pulse	0	t		40.0	2.5	/experiments/aot/R_S_comp_LA_A009_C009_PSNK_v02_SDR_PS_FINAL_20180709_SDR_2K_AVC.mp4	0.0	219.87447905540466	
42	196.07391214370728	movie	1		166	40.0	2.5	/experiments/aot/R_S_comp_LA_A009_C009_PSNK_v02_SDR_PS_FINAL_20180709_SDR_2K_AVC.mp4	0.0	219.88262510299683	2.508430004119873
42	197.66577696800232	pulse	1	t		40.0	2.5	/experiments/aot/R_S_comp_LA_A009_C009_PSNK_v02_SDR_PS_FINAL_20180709_SDR_2K_AVC.mp4	0.0	221.47448992729187	
42	198.58234214782715	fix_post	2		12	40.0	2.5	/experiments/aot/R_S_comp_LA_A009_C009_PSNK_v02_SDR_PS_FINAL_20180709_SDR_2K_AVC.mp4	0.0	222.3910551071167	0.0999288558959961
43	198.68227100372314	fix_pre	0		120	41.0	2.5	blank	1.0	222.4909839630127	1.0001230239868164
43	199.26577711105347	pulse	0	t		41.0	2.5	blank	1.0	223.07449007034302	
43	199.68239402770996	movie	1		300	41.0	2.5	blank	1.0	223.4911069869995	2.499846935272217
43	200.86580896377563	pulse	1	t		41.0	2.5	blank	1.0	224.67452192306519	
43	202.18224096298218	fix_post	2		12	41.0	2.5	blank	1.0	225.99095392227173	0.0999901294708252
44	202.282231092453	fix_pre	0		120	42.0	2.5	/experiments/aot/R_S_yt-zgkJCgcT1s4_300.mp4	0.0	226.09094405174255	1.0000519752502441
44	202.46563816070557	pulse	0	t		42.0	2.5	/experiments/aot/R_S_yt-zgkJCgcT1s4_300.mp4	0.0	226.27435111999512	
44	203.28228306770325	movie	1		300	42.0	2.5	/experiments/aot/R_S_yt-zgkJCgcT1s4_300.mp4	0.0	227.0909960269928	2.4999399185180664
44	204.0657000541687	pulse	1	t		42.0	2.5	/experiments/aot/R_S_yt-zgkJCgcT1s4_300.mp4	0.0	227.87441301345825	
44	205.66556906700134	pulse	1	t		42.0	2.5	/experiments/aot/R_S_yt-zgkJCgcT1s4_300.mp4	0.0	229.4742820262909	
44	205.7822229862213	fix_post	2		12	42.0	2.5	/experiments/aot/R_S_yt-zgkJCgcT1s4_300.mp4	0.0	229.59093594551086	0.100006103515625
45	205.88222908973694	fix_pre	0		120	43.0	2.5	/experiments/aot/S_yt-0qfEA1ZFWjA_123.mp4	0.0	229.6909420490265	0.9999790191650391
45	206.88220810890198	movie	1		300	43.0	2.5	/experiments/aot/S_yt-0qfEA1ZFWjA_123.mp4	0.0	230.69092106819153	2.4999840259552
45	207.26569509506226	pulse	1	t		43.0	2.5	/experiments/aot/S_yt-0qfEA1ZFWjA_123.mp4	0.0	231.0744080543518	
45	208.86574816703796	pulse	1	t		43.0	2.5	/experiments/aot/S_yt-0qfEA1ZFWjA_123.mp4	0.0	232.67446112632751	
45	209.38219213485718	fix_post	2		12	43.0	2.5	/experiments/aot/S_yt-0qfEA1ZFWjA_123.mp4	0.0	233.19090509414673	0.09998393058776855
46	209.48217606544495	fix_pre	0		119	44.0	2.5	/experiments/aot/S_yt-FMIevUic_XY_50.mp4	0.0	233.2908890247345	0.991710901260376
46	210.46569395065308	pulse	0	t		44.0	2.5	/experiments/aot/S_yt-FMIevUic_XY_50.mp4	0.0	234.27440690994263	
46	210.47388696670532	movie	1		301	44.0	2.5	/experiments/aot/S_yt-FMIevUic_XY_50.mp4	0.0	234.28259992599487	2.5083460807800293
46	212.06577801704407	pulse	1	t		44.0	2.5	/experiments/aot/S_yt-FMIevUic_XY_50.mp4	0.0	235.87449097633362	
46	212.98223304748535	fix_post	2		12	44.0	2.5	/experiments/aot/S_yt-FMIevUic_XY_50.mp4	0.0	236.7909460067749	0.09988594055175781
47	213.0821189880371	fix_pre	0		120	45.0	2.5	/experiments/aot/S_Pexels_Videos_2795736.mp4	0.0	236.89083194732666	1.0001590251922607
47	213.66556596755981	pulse	0	t		45.0	2.5	/experiments/aot/S_Pexels_Videos_2795736.mp4	0.0	237.47427892684937	
47	214.08227801322937	movie	1		165	45.0	2.5	/experiments/aot/S_Pexels_Videos_2795736.mp4	0.0	237.89099097251892	2.499951124191284
47	215.26570415496826	pulse	1	t		45.0	2.5	/experiments/aot/S_Pexels_Videos_2795736.mp4	0.0	239.0744171142578	
47	216.58222913742065	fix_post	2		12	45.0	2.5	/experiments/aot/S_Pexels_Videos_2795736.mp4	0.0	240.3909420967102	0.09993290901184082
48	216.6821620464325	fix_pre	0		120	46.0	2.5	/experiments/aot/S_yt-kINZMjys3O4_112.mp4	0.0	240.49087500572205	1.0000081062316895
48	216.8656780719757	pulse	0	t		46.0	2.5	/experiments/aot/S_yt-kINZMjys3O4_112.mp4	0.0	240.67439103126526	
48	217.68217015266418	movie	1		300	46.0	2.5	/experiments/aot/S_yt-kINZMjys3O4_112.mp4	0.0	241.49088311195374	2.4995169639587402
48	218.46569108963013	pulse	1	t		46.0	2.5	/experiments/aot/S_yt-kINZMjys3O4_112.mp4	0.0	242.27440404891968	
48	220.07372403144836	pulse	1	t		46.0	2.5	/experiments/aot/S_yt-kINZMjys3O4_112.mp4	0.0	243.88243699073792	
48	220.18168711662292	fix_post	2		12	46.0	2.5	/experiments/aot/S_yt-kINZMjys3O4_112.mp4	0.0	243.99040007591248	0.10049700736999512
49	220.28218412399292	fix_pre	0		120	47.0	2.5	blank	1.0	244.09089708328247	0.9999969005584717
49	221.2821810245514	movie	1		300	47.0	2.5	blank	1.0	245.09089398384094	2.500028133392334
49	221.6656789779663	pulse	1	t		47.0	2.5	blank	1.0	245.47439193725586	
49	223.26562905311584	pulse	1	t		47.0	2.5	blank	1.0	247.0743420124054	
49	223.78220915794373	fix_post	2		12	47.0	2.5	blank	1.0	247.59092211723328	0.09987783432006836
50	223.8820869922638	fix_pre	0		119	48.0	2.5	/experiments/aot/R_S_yt-KpOAdMtPGFs_17.mp4	0.0	247.69079995155334	0.9917399883270264
50	224.86586117744446	pulse	0	t		48.0	2.5	/experiments/aot/R_S_yt-KpOAdMtPGFs_17.mp4	0.0	248.674574136734	
50	224.87382698059082	movie	1		301	48.0	2.5	/experiments/aot/R_S_yt-KpOAdMtPGFs_17.mp4	0.0	248.68253993988037	2.508308172225952
50	226.46556210517883	pulse	1	t		48.0	2.5	/experiments/aot/R_S_yt-KpOAdMtPGFs_17.mp4	0.0	250.27427506446838	
50	227.38213515281677	fix_post	2		12	48.0	2.5	/experiments/aot/R_S_yt-KpOAdMtPGFs_17.mp4	0.0	251.19084811210632	0.09998202323913574
51	227.4821171760559	fix_pre	0		120	49.0	2.5	/experiments/aot/S_yt-H45g6700wbc_159.mp4	0.0	251.29083013534546	0.9999599456787109
51	228.06555795669556	pulse	0	t		49.0	2.5	/experiments/aot/S_yt-H45g6700wbc_159.mp4	0.0	251.8742709159851	
51	228.48207712173462	movie	1		300	49.0	2.5	/experiments/aot/S_yt-H45g6700wbc_159.mp4	0.0	252.29079008102417	2.500066041946411
51	229.66562294960022	pulse	1	t		49.0	2.5	/experiments/aot/S_yt-H45g6700wbc_159.mp4	0.0	253.47433590888977	
51	230.98214316368103	fix_post	2		12	49.0	2.5	/experiments/aot/S_yt-H45g6700wbc_159.mp4	0.0	254.79085612297058	0.09995079040527344
52	231.0820939540863	fix_pre	0		120	50.0	2.5	/experiments/aot/S_yt-WASlRH1zA8c_175.mp4	0.0	254.89080691337585	1.0000231266021729
52	231.26551008224487	pulse	0	t		50.0	2.5	/experiments/aot/S_yt-WASlRH1zA8c_175.mp4	0.0	255.07422304153442	
52	232.08211708068848	movie	1		300	50.0	2.5	/experiments/aot/S_yt-WASlRH1zA8c_175.mp4	0.0	255.89083003997803	2.499967098236084
52	232.8655650615692	pulse	1	t		50.0	2.5	/experiments/aot/S_yt-WASlRH1zA8c_175.mp4	0.0	256.67427802085876	
52	234.46526312828064	pulse	1	t		50.0	2.5	/experiments/aot/S_yt-WASlRH1zA8c_175.mp4	0.0	258.2739760875702	
52	234.58208417892456	fix_post	2		12	50.0	2.5	/experiments/aot/S_yt-WASlRH1zA8c_175.mp4	0.0	258.3907971382141	0.09995889663696289
53	234.68204307556152	fix_pre	0		120	51.0	2.5	/experiments/aot/R_S_yt-2pRKCSgdXXU_30.mp4	0.0	258.4907560348511	0.9999699592590332
53	235.68201303482056	movie	1		300	51.0	2.5	/experiments/aot/R_S_yt-2pRKCSgdXXU_30.mp4	0.0	259.4907259941101	2.500087022781372
53	236.06552505493164	pulse	1	t		51.0	2.5	/experiments/aot/R_S_yt-2pRKCSgdXXU_30.mp4	0.0	259.8742380142212	
53	237.66555500030518	pulse	1	t		51.0	2.5	/experiments/aot/R_S_yt-2pRKCSgdXXU_30.mp4	0.0	261.4742679595947	
53	238.18210005760193	fix_post	2		12	51.0	2.5	/experiments/aot/R_S_yt-2pRKCSgdXXU_30.mp4	0.0	261.9908130168915	0.09988594055175781
54	238.2819859981537	fix_pre	0		119	52.0	2.5	/experiments/aot/R_S_yt-Q5Mfl5NdT7g_3.mp4	0.0	262.09069895744324	0.9918100833892822
54	239.26557302474976	pulse	0	t		52.0	2.5	/experiments/aot/R_S_yt-Q5Mfl5NdT7g_3.mp4	0.0	263.0742859840393	
54	239.27379608154297	movie	1		301	52.0	2.5	/experiments/aot/R_S_yt-Q5Mfl5NdT7g_3.mp4	0.0	263.0825090408325	2.5082530975341797
54	240.86558318138123	pulse	1	t		52.0	2.5	/experiments/aot/R_S_yt-Q5Mfl5NdT7g_3.mp4	0.0	264.6742961406708	
54	241.78204917907715	fix_post	2		12	52.0	2.5	/experiments/aot/R_S_yt-Q5Mfl5NdT7g_3.mp4	0.0	265.5907621383667	0.09993290901184082
55	241.881982088089	fix_pre	0		120	53.0	2.5	/experiments/aot/S_yt-tfHCqgH1guY_235.mp4	0.0	265.69069504737854	1.0000009536743164
55	242.46562218666077	pulse	0	t		53.0	2.5	/experiments/aot/S_yt-tfHCqgH1guY_235.mp4	0.0	266.2743351459503	
55	242.8819830417633	movie	1		299	53.0	2.5	/experiments/aot/S_yt-tfHCqgH1guY_235.mp4	0.0	266.69069600105286	2.5000901222229004
55	244.06577396392822	pulse	1	t		53.0	2.5	/experiments/aot/S_yt-tfHCqgH1guY_235.mp4	0.0	267.8744869232178	
55	245.3820731639862	fix_post	2		12	53.0	2.5	/experiments/aot/S_yt-tfHCqgH1guY_235.mp4	0.0	269.19078612327576	0.09985089302062988
56	245.48192405700684	fix_pre	0		120	54.0	2.5	blank	1.0	269.2906370162964	1.0001399517059326
56	245.66557502746582	pulse	0	t		54.0	2.5	blank	1.0	269.47428798675537	
56	246.48206400871277	movie	1		300	54.0	2.5	blank	1.0	270.2907769680023	2.4999680519104004
56	247.26554107666016	pulse	1	t		54.0	2.5	blank	1.0	271.0742540359497	
56	248.86510300636292	pulse	1	t		54.0	2.5	blank	1.0	272.67381596565247	
56	248.98203206062317	fix_post	2		12	54.0	2.5	blank	1.0	272.7907450199127	0.10001993179321289
57	249.08205199241638	fix_pre	0		120	55.0	2.5	/experiments/aot/R_S_yt-zam74qlzGtQ_122.mp4	0.0	272.89076495170593	1.0000510215759277
57	250.0821030139923	movie	1		300	55.0	2.5	/experiments/aot/R_S_yt-zam74qlzGtQ_122.mp4	0.0	273.89081597328186	2.4999170303344727
57	250.4651620388031	pulse	1	t		55.0	2.5	/experiments/aot/R_S_yt-zam74qlzGtQ_122.mp4	0.0	274.27387499809265	
57	252.0655529499054	pulse	1	t		55.0	2.5	/experiments/aot/R_S_yt-zam74qlzGtQ_122.mp4	0.0	275.87426590919495	
57	252.58202004432678	fix_post	2		12	55.0	2.5	/experiments/aot/R_S_yt-zam74qlzGtQ_122.mp4	0.0	276.39073300361633	0.09999608993530273
58	252.68201613426208	fix_pre	0		119	56.0	2.5	/experiments/aot/R_S_ILSVRC2015_train_00559000.mp4	0.0	276.49072909355164	0.9916658401489258
58	253.66562008857727	pulse	0	t		56.0	2.5	/experiments/aot/R_S_ILSVRC2015_train_00559000.mp4	0.0	277.4743330478668	
58	253.673681974411	movie	1		301	56.0	2.5	/experiments/aot/R_S_ILSVRC2015_train_00559000.mp4	0.0	277.48239493370056	2.5082900524139404
58	255.2623131275177	pulse	1	t		56.0	2.5	/experiments/aot/R_S_ILSVRC2015_train_00559000.mp4	0.0	279.07102608680725	
58	256.18197202682495	fix_post	2		12	56.0	2.5	/experiments/aot/R_S_ILSVRC2015_train_00559000.mp4	0.0	279.9906849861145	0.10013008117675781
59	256.2821021080017	fix_pre	0		120	57.0	2.5	/experiments/aot/S_production_ID_4325506.mp4	0.0	280.09081506729126	0.9998030662536621
59	256.86542797088623	pulse	0	t		57.0	2.5	/experiments/aot/S_production_ID_4325506.mp4	0.0	280.6741409301758	
59	257.28190517425537	movie	1		165	57.0	2.5	/experiments/aot/S_production_ID_4325506.mp4	0.0	281.0906181335449	2.500053882598877
59	258.4655420780182	pulse	1	t		57.0	2.5	/experiments/aot/S_production_ID_4325506.mp4	0.0	282.27425503730774	
59	259.78195905685425	fix_post	2		12	57.0	2.5	/experiments/aot/S_production_ID_4325506.mp4	0.0	283.5906720161438	0.09996199607849121
60	259.88192105293274	fix_pre	0		120	58.0	2.5	/experiments/aot/S_yt-MUfa26F8dfE_97.mp4	0.0	283.6906340122223	1.0
60	260.06541109085083	pulse	0	t		58.0	2.5	/experiments/aot/S_yt-MUfa26F8dfE_97.mp4	0.0	283.8741240501404	
60	260.88192105293274	movie	1		300	58.0	2.5	/experiments/aot/S_yt-MUfa26F8dfE_97.mp4	0.0	284.6906340122223	2.500023126602173
60	261.66546297073364	pulse	1	t		58.0	2.5	/experiments/aot/S_yt-MUfa26F8dfE_97.mp4	0.0	285.4741759300232	
60	263.26489210128784	pulse	1	t		58.0	2.5	/experiments/aot/S_yt-MUfa26F8dfE_97.mp4	0.0	287.0736050605774	
60	263.3819441795349	fix_post	2		12	58.0	2.5	/experiments/aot/S_yt-MUfa26F8dfE_97.mp4	0.0	287.19065713882446	0.09995889663696289
61	263.4819030761719	fix_pre	0		120	59.0	2.5	/experiments/aot/R_S_yt-D6fhzH21T_E_26.mp4	0.0	287.2906160354614	0.9999899864196777
61	264.48189306259155	movie	1		300	59.0	2.5	/experiments/aot/R_S_yt-D6fhzH21T_E_26.mp4	0.0	288.2906060218811	2.5000460147857666
61	264.86535906791687	pulse	1	t		59.0	2.5	/experiments/aot/R_S_yt-D6fhzH21T_E_26.mp4	0.0	288.6740720272064	
61	266.46538496017456	pulse	1	t		59.0	2.5	/experiments/aot/R_S_yt-D6fhzH21T_E_26.mp4	0.0	290.2740979194641	
61	266.9819390773773	fix_post	2		12	59.0	2.5	/experiments/aot/R_S_yt-D6fhzH21T_E_26.mp4	0.0	290.79065203666687	0.09998297691345215
62	267.08192205429077	fix_pre	0		119	60.0	2.5	/experiments/aot/S_wc-8bTJmWfuVyJ4_8.mp4	0.0	290.8906350135803	0.991645097732544
62	268.065309047699	pulse	0	t		60.0	2.5	/experiments/aot/S_wc-8bTJmWfuVyJ4_8.mp4	0.0	291.8740220069885	
62	268.0735671520233	movie	1		164	60.0	2.5	/experiments/aot/S_wc-8bTJmWfuVyJ4_8.mp4	0.0	291.88228011131287	2.5084328651428223
62	269.66493916511536	pulse	1	t		60.0	2.5	/experiments/aot/S_wc-8bTJmWfuVyJ4_8.mp4	0.0	293.4736521244049	
62	270.58200001716614	fix_post	2		12	60.0	2.5	/experiments/aot/S_wc-8bTJmWfuVyJ4_8.mp4	0.0	294.3907129764557	0.09992313385009766
63	270.68192315101624	fix_pre	0		120	61.0	2.5	blank	1.0	294.4906361103058	1.0000238418579102
63	271.2653479576111	pulse	0	t		61.0	2.5	blank	1.0	295.07406091690063	
63	271.68194699287415	movie	1		300	61.0	2.5	blank	1.0	295.4906599521637	2.4999001026153564
63	272.8653190135956	pulse	1	t		61.0	2.5	blank	1.0	296.67403197288513	
63	274.1818470954895	fix_post	2		12	61.0	2.5	blank	1.0	297.99056005477905	0.10004591941833496
64	274.28189301490784	fix_pre	0		120	62.0	2.5	/experiments/aot/S_pexels-mart-production-7698693.mp4	0.0	298.0906059741974	0.9999871253967285
64	274.4653401374817	pulse	0	t		62.0	2.5	/experiments/aot/S_pexels-mart-production-7698693.mp4	0.0	298.27405309677124	
64	275.28188014030457	movie	1		169	62.0	2.5	/experiments/aot/S_pexels-mart-production-7698693.mp4	0.0	299.0905930995941	2.5000228881835938
64	276.06547498703003	pulse	1	t		62.0	2.5	/experiments/aot/S_pexels-mart-production-7698693.mp4	0.0	299.8741879463196	
64	277.6653571128845	pulse	1	t		62.0	2.5	/experiments/aot/S_pexels-mart-production-7698693.mp4	0.0	301.4740700721741	
64	277.78190302848816	fix_post	2		12	62.0	2.5	/experiments/aot/S_pexels-mart-production-7698693.mp4	0.0	301.5906159877777	0.10000109672546387
65	277.8819041252136	fix_pre	0		120	63.0	2.5	/experiments/aot/S_ILSVRC2015_train_00414000.mp4	0.0	301.6906170845032	1.0000019073486328
65	278.88190603256226	movie	1		300	63.0	2.5	/experiments/aot/S_ILSVRC2015_train_00414000.mp4	0.0	302.6906189918518	2.500066041946411
65	279.2652921676636	pulse	1	t		63.0	2.5	/experiments/aot/S_ILSVRC2015_train_00414000.mp4	0.0	303.0740051269531	
65	280.8654091358185	pulse	1	t		63.0	2.5	/experiments/aot/S_ILSVRC2015_train_00414000.mp4	0.0	304.67412209510803	
65	281.38197207450867	fix_post	2		12	63.0	2.5	/experiments/aot/S_ILSVRC2015_train_00414000.mp4	0.0	305.1906850337982	0.09991693496704102
66	281.4818890094757	fix_pre	0		119	64.0	2.5	/experiments/aot/S_yt-aiDGx4AN8J0_9.mp4	0.0	305.29060196876526	0.9916059970855713
66	282.4652769565582	pulse	0	t		64.0	2.5	/experiments/aot/S_yt-aiDGx4AN8J0_9.mp4	0.0	306.2739899158478	
66	282.4734950065613	movie	1		301	64.0	2.5	/experiments/aot/S_yt-aiDGx4AN8J0_9.mp4	0.0	306.28220796585083	2.5083370208740234
66	284.06533217430115	pulse	1	t		64.0	2.5	/experiments/aot/S_yt-aiDGx4AN8J0_9.mp4	0.0	307.8740451335907	
66	284.9818320274353	fix_post	2		12	64.0	2.5	/experiments/aot/S_yt-aiDGx4AN8J0_9.mp4	0.0	308.79054498672485	0.10006594657897949
67	285.0818979740143	fix_pre	0		120	65.0	2.5	/experiments/aot/R_S_b3TCugtX0h0_108.mp4	0.0	308.89061093330383	0.9998869895935059
67	285.66535115242004	pulse	0	t		65.0	2.5	/experiments/aot/R_S_b3TCugtX0h0_108.mp4	0.0	309.4740641117096	
67	286.0817849636078	movie	1		300	65.0	2.5	/experiments/aot/R_S_b3TCugtX0h0_108.mp4	0.0	309.89049792289734	2.5001070499420166
67	287.26528906822205	pulse	1	t		65.0	2.5	/experiments/aot/R_S_b3TCugtX0h0_108.mp4	0.0	311.0740020275116	
67	288.5818920135498	fix_post	2		12	65.0	2.5	/experiments/aot/R_S_b3TCugtX0h0_108.mp4	0.0	312.39060497283936	0.100006103515625
68	288.68189811706543	fix_pre	0		120	66.0	2.5	/experiments/aot/R_S_flickr-clarkstonscamp-4863427159_1.mp4	0.0	312.490611076355	0.9999079704284668
68	288.8653440475464	pulse	0	t		66.0	2.5	/experiments/aot/R_S_flickr-clarkstonscamp-4863427159_1.mp4	0.0	312.67405700683594	
68	289.6818060874939	movie	1		300	66.0	2.5	/experiments/aot/R_S_flickr-clarkstonscamp-4863427159_1.mp4	0.0	313.49051904678345	2.500082015991211
68	290.46531414985657	pulse	1	t		66.0	2.5	/experiments/aot/R_S_flickr-clarkstonscamp-4863427159_1.mp4	0.0	314.2740271091461	
68	292.06526017189026	pulse	1	t		66.0	2.5	/experiments/aot/R_S_flickr-clarkstonscamp-4863427159_1.mp4	0.0	315.8739731311798	
68	292.1818881034851	fix_post	2		12	66.0	2.5	/experiments/aot/R_S_flickr-clarkstonscamp-4863427159_1.mp4	0.0	315.99060106277466	0.09994792938232422
69	292.28183603286743	fix_pre	0		120	67.0	2.5	/experiments/aot/S_yt-QFGyhhr1KSQ_9.mp4	0.0	316.090548992157	1.0000720024108887
69	293.2819080352783	movie	1		300	67.0	2.5	/experiments/aot/S_yt-QFGyhhr1KSQ_9.mp4	0.0	317.09062099456787	2.4999160766601562
69	293.6652190685272	pulse	1	t		67.0	2.5	/experiments/aot/S_yt-QFGyhhr1KSQ_9.mp4	0.0	317.4739320278168	
69	295.26526403427124	pulse	1	t		67.0	2.5	/experiments/aot/S_yt-QFGyhhr1KSQ_9.mp4	0.0	319.0739769935608	
69	295.7818241119385	fix_post	2		12	67.0	2.5	/experiments/aot/S_yt-QFGyhhr1KSQ_9.mp4	0.0	319.590537071228	0.09998393058776855
70	295.88180804252625	fix_pre	0		119	68.0	2.5	/experiments/aot/R_S_Pexels_Videos_2795736.mp4	0.0	319.6905210018158	0.9915730953216553
70	296.8652780056	pulse	0	t		68.0	2.5	/experiments/aot/R_S_Pexels_Videos_2795736.mp4	0.0	320.6739909648895	
70	296.8733811378479	movie	1		164	68.0	2.5	/experiments/aot/R_S_Pexels_Videos_2795736.mp4	0.0	320.68209409713745	2.508457899093628
70	298.46499609947205	pulse	1	t		68.0	2.5	/experiments/aot/R_S_Pexels_Videos_2795736.mp4	0.0	322.2737090587616	
70	299.3818390369415	fix_post	2		12	68.0	2.5	/experiments/aot/R_S_Pexels_Videos_2795736.mp4	0.0	323.1905519962311	0.10001993179321289
71	299.48185896873474	fix_pre	0		120	69.0	2.5	blank	1.0	323.2905719280243	1.0000181198120117
71	300.06530117988586	pulse	0	t		69.0	2.5	blank	1.0	323.8740141391754	
71	300.48187708854675	movie	1		300	69.0	2.5	blank	1.0	324.2905900478363	2.4999940395355225
71	301.6653850078583	pulse	1	t		69.0	2.5	blank	1.0	325.4740979671478	
71	302.9818711280823	fix_post	2		12	69.0	2.5	blank	1.0	326.7905840873718	0.0998079776763916
72	303.08167910575867	fix_pre	0		120	70.0	2.5	/experiments/aot/S_yt-Ub5Xx5BqIOk_74.mp4	0.0	326.8903920650482	1.0001728534698486
72	303.26519417762756	pulse	0	t		70.0	2.5	/experiments/aot/S_yt-Ub5Xx5BqIOk_74.mp4	0.0	327.0739071369171	
72	304.0818519592285	movie	1		300	70.0	2.5	/experiments/aot/S_yt-Ub5Xx5BqIOk_74.mp4	0.0	327.89056491851807	2.4996511936187744
72	304.86474108695984	pulse	1	t		70.0	2.5	/experiments/aot/S_yt-Ub5Xx5BqIOk_74.mp4	0.0	328.6734540462494	
72	306.46553111076355	pulse	1	t		70.0	2.5	/experiments/aot/S_yt-Ub5Xx5BqIOk_74.mp4	0.0	330.2742440700531	
72	306.5815031528473	fix_post	2		12	70.0	2.5	/experiments/aot/S_yt-Ub5Xx5BqIOk_74.mp4	0.0	330.39021611213684	0.10048699378967285
73	306.68199014663696	fix_pre	0		120	71.0	2.5	/experiments/aot/R_S_yt-qazCIJqjxUU_3.mp4	0.0	330.4907031059265	1.000053882598877
73	307.68204402923584	movie	1		300	71.0	2.5	/experiments/aot/R_S_yt-qazCIJqjxUU_3.mp4	0.0	331.4907569885254	2.4996700286865234
73	308.06513595581055	pulse	1	t		71.0	2.5	/experiments/aot/R_S_yt-qazCIJqjxUU_3.mp4	0.0	331.8738489151001	
73	309.66519808769226	pulse	1	t		71.0	2.5	/experiments/aot/R_S_yt-qazCIJqjxUU_3.mp4	0.0	333.4739110469818	
73	310.18171405792236	fix_post	2		12	71.0	2.5	/experiments/aot/R_S_yt-qazCIJqjxUU_3.mp4	0.0	333.9904270172119	0.09999489784240723
74	310.28170895576477	fix_pre	0		119	72.0	2.5	/experiments/aot/S_yt-TNtO8RPd3iE_25.mp4	0.0	334.0904219150543	0.9916751384735107
74	311.2651741504669	pulse	0	t		72.0	2.5	/experiments/aot/S_yt-TNtO8RPd3iE_25.mp4	0.0	335.07388710975647	
74	311.2733840942383	movie	1		301	72.0	2.5	/experiments/aot/S_yt-TNtO8RPd3iE_25.mp4	0.0	335.08209705352783	2.5082690715789795
74	312.86511301994324	pulse	1	t		72.0	2.5	/experiments/aot/S_yt-TNtO8RPd3iE_25.mp4	0.0	336.6738259792328	
74	313.78165316581726	fix_post	2		12	72.0	2.5	/experiments/aot/S_yt-TNtO8RPd3iE_25.mp4	0.0	337.5903661251068	0.10004782676696777
75	313.88170099258423	fix_pre	0		120	73.0	2.5	/experiments/aot/R_S_comp_LA_A006_C008_PSNK_ALL_LOGOS_v10_SDR_PS_FINAL_20180801_SDR_2K_AVC.mp4	0.0	337.6904139518738	0.9999589920043945
75	314.4652211666107	pulse	0	t		73.0	2.5	/experiments/aot/R_S_comp_LA_A006_C008_PSNK_ALL_LOGOS_v10_SDR_PS_FINAL_20180801_SDR_2K_AVC.mp4	0.0	338.27393412590027	
75	314.8816599845886	movie	1		172	73.0	2.5	/experiments/aot/R_S_comp_LA_A006_C008_PSNK_ALL_LOGOS_v10_SDR_PS_FINAL_20180801_SDR_2K_AVC.mp4	0.0	338.6903729438782	2.499997138977051
75	316.0651581287384	pulse	1	t		73.0	2.5	/experiments/aot/R_S_comp_LA_A006_C008_PSNK_ALL_LOGOS_v10_SDR_PS_FINAL_20180801_SDR_2K_AVC.mp4	0.0	339.87387108802795	
75	317.3816571235657	fix_post	2		12	73.0	2.5	/experiments/aot/R_S_comp_LA_A006_C008_PSNK_ALL_LOGOS_v10_SDR_PS_FINAL_20180801_SDR_2K_AVC.mp4	0.0	341.1903700828552	0.09995388984680176
76	317.4816110134125	fix_pre	0		120	74.0	2.5	/experiments/aot/S_ILSVRC2015_train_00165012.mp4	0.0	341.290323972702	1.0000419616699219
76	317.66532611846924	pulse	0	t		74.0	2.5	/experiments/aot/S_ILSVRC2015_train_00165012.mp4	0.0	341.4740390777588	
76	318.4816529750824	movie	1		300	74.0	2.5	/experiments/aot/S_ILSVRC2015_train_00165012.mp4	0.0	342.29036593437195	2.5000171661376953
76	319.26521706581116	pulse	1	t		74.0	2.5	/experiments/aot/S_ILSVRC2015_train_00165012.mp4	0.0	343.0739300251007	
76	320.8651201725006	pulse	1	t		74.0	2.5	/experiments/aot/S_ILSVRC2015_train_00165012.mp4	0.0	344.67383313179016	
76	320.9816701412201	fix_post	2		12	74.0	2.5	/experiments/aot/S_ILSVRC2015_train_00165012.mp4	0.0	344.79038310050964	0.10001587867736816
77	321.08168601989746	fix_pre	0		120	75.0	2.5	/experiments/aot/S_ILSVRC2015_train_00584001.mp4	0.0	344.890398979187	0.999920129776001
77	322.08160614967346	movie	1		299	75.0	2.5	/experiments/aot/S_ILSVRC2015_train_00584001.mp4	0.0	345.890319108963	2.500044822692871
77	322.4653310775757	pulse	1	t		75.0	2.5	/experiments/aot/S_ILSVRC2015_train_00584001.mp4	0.0	346.27404403686523	
77	324.0652241706848	pulse	1	t		75.0	2.5	/experiments/aot/S_ILSVRC2015_train_00584001.mp4	0.0	347.87393712997437	
77	324.58165097236633	fix_post	2		12	75.0	2.5	/experiments/aot/S_ILSVRC2015_train_00584001.mp4	0.0	348.3903639316559	0.09998202323913574
78	324.68163299560547	fix_pre	0		119	76.0	2.5	/experiments/aot/S_pexels-koolshooters-7327405.mp4	0.0	348.490345954895	0.9916651248931885
78	325.6652750968933	pulse	0	t		76.0	2.5	/experiments/aot/S_pexels-koolshooters-7327405.mp4	0.0	349.47398805618286	
78	325.67329812049866	movie	1		164	76.0	2.5	/experiments/aot/S_pexels-koolshooters-7327405.mp4	0.0	349.4820110797882	2.5083789825439453
78	327.26514506340027	pulse	1	t		76.0	2.5	/experiments/aot/S_pexels-koolshooters-7327405.mp4	0.0	351.0738580226898	
78	328.1816771030426	fix_post	2		12	76.0	2.5	/experiments/aot/S_pexels-koolshooters-7327405.mp4	0.0	351.99039006233215	0.09998297691345215
79	328.28166007995605	fix_pre	0		120	77.0	2.5	blank	1.0	352.0903730392456	0.9999449253082275
79	328.8651080131531	pulse	0	t		77.0	2.5	blank	1.0	352.6738209724426	
79	329.2816050052643	movie	1		300	77.0	2.5	blank	1.0	353.09031796455383	2.5001070499420166
79	330.4651529788971	pulse	1	t		77.0	2.5	blank	1.0	354.27386593818665	
79	331.7817120552063	fix_post	2		12	77.0	2.5	blank	1.0	355.59042501449585	0.09984111785888672
80	331.8815531730652	fix_pre	0		120	78.0	2.5	/experiments/aot/S_yt-25xuzTBhwPk_109.mp4	0.0	355.69026613235474	1.0001349449157715
80	332.0651149749756	pulse	0	t		78.0	2.5	/experiments/aot/S_yt-25xuzTBhwPk_109.mp4	0.0	355.87382793426514	
80	332.88168811798096	movie	1		299	78.0	2.5	/experiments/aot/S_yt-25xuzTBhwPk_109.mp4	0.0	356.6904010772705	2.4999840259552
80	333.66504096984863	pulse	1	t		78.0	2.5	/experiments/aot/S_yt-25xuzTBhwPk_109.mp4	0.0	357.4737539291382	
80	335.2650320529938	pulse	1	t		78.0	2.5	/experiments/aot/S_yt-25xuzTBhwPk_109.mp4	0.0	359.0737450122833	
80	335.38167214393616	fix_post	2		12	78.0	2.5	/experiments/aot/S_yt-25xuzTBhwPk_109.mp4	0.0	359.1903851032257	0.09996485710144043
81	335.4816370010376	fix_pre	0		120	79.0	2.5	/experiments/aot/R_S_production_ID_4802716.mp4	0.0	359.29034996032715	0.9999830722808838
81	336.4816200733185	movie	1		164	79.0	2.5	/experiments/aot/R_S_production_ID_4802716.mp4	0.0	360.29033303260803	2.4999639987945557
81	336.86512303352356	pulse	1	t		79.0	2.5	/experiments/aot/R_S_production_ID_4802716.mp4	0.0	360.6738359928131	
81	338.4650981426239	pulse	1	t		79.0	2.5	/experiments/aot/R_S_production_ID_4802716.mp4	0.0	362.27381110191345	
81	338.98158407211304	fix_post	2		12	79.0	2.5	/experiments/aot/R_S_production_ID_4802716.mp4	0.0	362.7902970314026	0.10004305839538574
82	339.0816271305084	fix_pre	0		119	80.0	2.5	/experiments/aot/S_yt-zSSnQYeO_DE_338.mp4	0.0	362.890340089798	0.9915809631347656
82	340.06508898735046	pulse	0	t		80.0	2.5	/experiments/aot/S_yt-zSSnQYeO_DE_338.mp4	0.0	363.87380194664	
82	340.0732080936432	movie	1		301	80.0	2.5	/experiments/aot/S_yt-zSSnQYeO_DE_338.mp4	0.0	363.88192105293274	2.508370876312256
82	341.6650769710541	pulse	1	t		80.0	2.5	/experiments/aot/S_yt-zSSnQYeO_DE_338.mp4	0.0	365.4737899303436	
82	342.58157896995544	fix_post	2		12	80.0	2.5	/experiments/aot/S_yt-zSSnQYeO_DE_338.mp4	0.0	366.390291929245	0.10000014305114746
83	342.6815791130066	fix_pre	0		120	81.0	2.5	/experiments/aot/S_ioSkDvwpEaU_35.mp4	0.0	366.49029207229614	0.999992847442627
83	343.265114068985	pulse	0	t		81.0	2.5	/experiments/aot/S_ioSkDvwpEaU_35.mp4	0.0	367.07382702827454	
83	343.6815719604492	movie	1		299	81.0	2.5	/experiments/aot/S_ioSkDvwpEaU_35.mp4	0.0	367.49028491973877	2.499880075454712
83	344.8650600910187	pulse	1	t		81.0	2.5	/experiments/aot/S_ioSkDvwpEaU_35.mp4	0.0	368.6737730503082	
83	346.18145203590393	fix_post	2		12	81.0	2.5	/experiments/aot/S_ioSkDvwpEaU_35.mp4	0.0	369.9901649951935	0.10008597373962402
84	346.28153800964355	fix_pre	0		120	82.0	2.5	/experiments/aot/R_S_yt-JTVyt-eu4VI_1.mp4	0.0	370.0902509689331	0.9999091625213623
84	346.4650659561157	pulse	0	t		82.0	2.5	/experiments/aot/R_S_yt-JTVyt-eu4VI_1.mp4	0.0	370.2737789154053	
84	347.2814471721649	movie	1		300	82.0	2.5	/experiments/aot/R_S_yt-JTVyt-eu4VI_1.mp4	0.0	371.09016013145447	2.5000648498535156
84	348.0649161338806	pulse	1	t		82.0	2.5	/experiments/aot/R_S_yt-JTVyt-eu4VI_1.mp4	0.0	371.87362909317017	
84	349.6645381450653	pulse	1	t		82.0	2.5	/experiments/aot/R_S_yt-JTVyt-eu4VI_1.mp4	0.0	373.47325110435486	
84	349.78151202201843	fix_post	2		12	82.0	2.5	/experiments/aot/R_S_yt-JTVyt-eu4VI_1.mp4	0.0	373.590224981308	0.09998703002929688
85	349.88149905204773	fix_pre	0		120	83.0	2.5	blank	1.0	373.6902120113373	0.9999499320983887
85	350.8814489841461	movie	1		300	83.0	2.5	blank	1.0	374.69016194343567	2.5000979900360107
85	351.2650511264801	pulse	1	t		83.0	2.5	blank	1.0	375.07376408576965	
85	352.86500310897827	pulse	1	t		83.0	2.5	blank	1.0	376.6737160682678	
85	353.38154697418213	fix_post	2		12	83.0	2.5	blank	1.0	377.1902599334717	0.09989714622497559
87	353.4814441204071	stim	0		1716					377.29015707969666	14.29996395111084
87	354.46497917175293	pulse	0	t						378.2736921310425	
87	356.06497716903687	pulse	0	t						379.8736901283264	
87	357.6650061607361	pulse	0	t						381.47371912002563	
87	359.2649450302124	pulse	0	t						383.07365798950195	
87	360.8649489879608	pulse	0	t						384.67366194725037	
87	362.4647390842438	pulse	0	t						386.2734520435333	
87	364.06492018699646	pulse	0	t						387.873633146286	
87	365.6649091243744	pulse	0	t						389.47362208366394	
87	367.2649600505829	pulse	0	t						391.07367300987244	
