trial_nr	onset	event_type	phase	response	nr_frames	movie_index	movie_duration	movie_file	blank	onset_abs	duration
0	0.15833711624145508	stim	0		791					26.60690999031067	6.591523885726929
0	6.7344160079956055	response	0	space						33.18298888206482	
1	6.749861001968384	stim	0		4311					33.1984338760376	35.933287143707275
1	42.671651124954224	pulse	0	t						69.12022399902344	
1	42.68314814567566	stim	1		1716					69.13172101974487	14.299832820892334
1	44.266494035720825	pulse	1	t						70.71506690979004	
1	45.866554975509644	pulse	1	t						72.31512784957886	
1	47.466521978378296	pulse	1	t						73.91509485244751	
1	49.066508054733276	pulse	1	t						75.51508092880249	
1	50.666528940200806	pulse	1	t						77.11510181427002	
1	52.26659607887268	pulse	1	t						78.7151689529419	
1	53.866477966308594	pulse	1	t						80.31505084037781	
1	55.46648097038269	pulse	1	t						81.9150538444519	
2	56.98298096656799	fix_pre	0		11	0.0	2.5	/experiments/aot/R_S_yt-zh2yLr-o_8A_953.mp4	0.0	83.4315538406372	0.09162020683288574
2	57.06652808189392	pulse	0	t		0.0	2.5	/experiments/aot/R_S_yt-zh2yLr-o_8A_953.mp4	0.0	83.51510095596313	
2	57.07460117340088	movie	1		300	0.0	2.5	/experiments/aot/R_S_yt-zh2yLr-o_8A_953.mp4	0.0	83.52317404747009	2.5082919597625732
2	58.66246008872986	pulse	1	t		0.0	2.5	/experiments/aot/R_S_yt-zh2yLr-o_8A_953.mp4	0.0	85.11103296279907	
2	59.58289313316345	fix_post	2		12	0.0	2.5	/experiments/aot/R_S_yt-zh2yLr-o_8A_953.mp4	0.0	86.03146600723267	0.10013103485107422
3	59.683024168014526	fix_pre	0		120	1.0	2.5	/experiments/aot/S_yt-pO5SVq-9EhU_114.mp4	0.0	86.13159704208374	0.9999299049377441
3	60.266534090042114	pulse	0	t		1.0	2.5	/experiments/aot/S_yt-pO5SVq-9EhU_114.mp4	0.0	86.71510696411133	
3	60.68295407295227	movie	1		299	1.0	2.5	/experiments/aot/S_yt-pO5SVq-9EhU_114.mp4	0.0	87.13152694702148	2.500025987625122
3	61.86651110649109	pulse	1	t		1.0	2.5	/experiments/aot/S_yt-pO5SVq-9EhU_114.mp4	0.0	88.3150839805603	
3	63.18298006057739	fix_post	2		12	1.0	2.5	/experiments/aot/S_yt-pO5SVq-9EhU_114.mp4	0.0	89.6315529346466	0.09992790222167969
4	63.28290796279907	fix_pre	0		120	2.0	2.5	/experiments/aot/R_S_yt-3E02UEHdoZ4_752.mp4	0.0	89.73148083686829	1.0000050067901611
4	63.46646308898926	pulse	0	t		2.0	2.5	/experiments/aot/R_S_yt-3E02UEHdoZ4_752.mp4	0.0	89.91503596305847	
4	64.28291296958923	movie	1		300	2.0	2.5	/experiments/aot/R_S_yt-3E02UEHdoZ4_752.mp4	0.0	90.73148584365845	2.500025987625122
4	65.06647205352783	pulse	1	t		2.0	2.5	/experiments/aot/R_S_yt-3E02UEHdoZ4_752.mp4	0.0	91.51504492759705	
4	66.66650295257568	pulse	1	t		2.0	2.5	/experiments/aot/R_S_yt-3E02UEHdoZ4_752.mp4	0.0	93.1150758266449	
4	66.78293895721436	fix_post	2		12	2.0	2.5	/experiments/aot/R_S_yt-3E02UEHdoZ4_752.mp4	0.0	93.23151183128357	0.10005903244018555
5	66.88299798965454	fix_pre	0		120	3.0	2.5	/experiments/aot/S_pexels-laker-5793000.mp4	0.0	93.33157086372375	0.999906063079834
5	67.88290405273438	movie	1		159	3.0	2.5	/experiments/aot/S_pexels-laker-5793000.mp4	0.0	94.33147692680359	2.5000760555267334
5	68.26656103134155	pulse	1	t		3.0	2.5	/experiments/aot/S_pexels-laker-5793000.mp4	0.0	94.71513390541077	
5	69.86652302742004	pulse	1	t		3.0	2.5	/experiments/aot/S_pexels-laker-5793000.mp4	0.0	96.31509590148926	
5	70.38298010826111	fix_post	2		12	3.0	2.5	/experiments/aot/S_pexels-laker-5793000.mp4	0.0	96.83155298233032	0.1001439094543457
6	70.48312401771545	fix_pre	0		119	4.0	2.5	/experiments/aot/S_pexels-vlada-karpovich-8044792.mp4	0.0	96.93169689178467	0.9915499687194824
6	71.46649312973022	pulse	0	t		4.0	2.5	/experiments/aot/S_pexels-vlada-karpovich-8044792.mp4	0.0	97.91506600379944	
6	71.47467398643494	movie	1		162	4.0	2.5	/experiments/aot/S_pexels-vlada-karpovich-8044792.mp4	0.0	97.92324686050415	2.508358955383301
6	73.06706309318542	pulse	1	t		4.0	2.5	/experiments/aot/S_pexels-vlada-karpovich-8044792.mp4	0.0	99.51563596725464	
6	73.98303294181824	fix_post	2		12	4.0	2.5	/experiments/aot/S_pexels-vlada-karpovich-8044792.mp4	0.0	100.43160581588745	0.09982609748840332
7	74.08285903930664	fix_pre	0		120	5.0	2.5	blank	1.0	100.53143191337585	1.000082015991211
7	74.66645812988281	pulse	0	t		5.0	2.5	blank	1.0	101.11503100395203	
7	75.08294105529785	movie	1		300	5.0	2.5	blank	1.0	101.53151392936707	2.4999139308929443
7	76.2664589881897	pulse	1	t		5.0	2.5	blank	1.0	102.71503186225891	
7	77.5828549861908	fix_post	2		12	5.0	2.5	blank	1.0	104.03142786026001	0.10005617141723633
8	77.68291115760803	fix_pre	0		120	6.0	2.5	/experiments/aot/R_S_yt-2lnxIdOTxog_157.mp4	0.0	104.13148403167725	0.9999129772186279
8	77.86641001701355	pulse	0	t		6.0	2.5	/experiments/aot/R_S_yt-2lnxIdOTxog_157.mp4	0.0	104.31498289108276	
8	78.68282413482666	movie	1		300	6.0	2.5	/experiments/aot/R_S_yt-2lnxIdOTxog_157.mp4	0.0	105.13139700889587	2.50006103515625
8	79.46641516685486	pulse	1	t		6.0	2.5	/experiments/aot/R_S_yt-2lnxIdOTxog_157.mp4	0.0	105.91498804092407	
8	81.0667769908905	pulse	1	t		6.0	2.5	/experiments/aot/R_S_yt-2lnxIdOTxog_157.mp4	0.0	107.51534986495972	
8	81.18288516998291	fix_post	2		12	6.0	2.5	/experiments/aot/R_S_yt-2lnxIdOTxog_157.mp4	0.0	107.63145804405212	0.09997296333312988
9	81.28285813331604	fix_pre	0		120	7.0	2.5	/experiments/aot/R_S_video_inspire_california_big-sur_landscape_054.1080-h264.mp4	0.0	107.73143100738525	1.0000739097595215
9	82.28293204307556	movie	1		168	7.0	2.5	/experiments/aot/R_S_video_inspire_california_big-sur_landscape_054.1080-h264.mp4	0.0	108.73150491714478	2.499969959259033
9	82.66644096374512	pulse	1	t		7.0	2.5	/experiments/aot/R_S_video_inspire_california_big-sur_landscape_054.1080-h264.mp4	0.0	109.11501383781433	
9	84.26655912399292	pulse	1	t		7.0	2.5	/experiments/aot/R_S_video_inspire_california_big-sur_landscape_054.1080-h264.mp4	0.0	110.71513199806213	
9	84.7829020023346	fix_post	2		12	7.0	2.5	/experiments/aot/R_S_video_inspire_california_big-sur_landscape_054.1080-h264.mp4	0.0	111.23147487640381	0.09996509552001953
10	84.88286709785461	fix_pre	0		119	8.0	2.5	/experiments/aot/S_yt-KM_SJx8CMGc_10.mp4	0.0	111.33143997192383	0.9916670322418213
10	85.86647605895996	pulse	0	t		8.0	2.5	/experiments/aot/S_yt-KM_SJx8CMGc_10.mp4	0.0	112.31504893302917	
10	85.87453413009644	movie	1		301	8.0	2.5	/experiments/aot/S_yt-KM_SJx8CMGc_10.mp4	0.0	112.32310700416565	2.5083649158477783
10	87.46232295036316	pulse	1	t		8.0	2.5	/experiments/aot/S_yt-KM_SJx8CMGc_10.mp4	0.0	113.91089582443237	
10	88.38289904594421	fix_post	2		12	8.0	2.5	/experiments/aot/S_yt-KM_SJx8CMGc_10.mp4	0.0	114.83147192001343	0.10005807876586914
11	88.48295712471008	fix_pre	0		120	9.0	2.5	/experiments/aot/S_yt-mL3MuCfKtdY_79.mp4	0.0	114.9315299987793	0.9999558925628662
11	89.06646013259888	pulse	0	t		9.0	2.5	/experiments/aot/S_yt-mL3MuCfKtdY_79.mp4	0.0	115.51503300666809	
11	89.48291301727295	movie	1		300	9.0	2.5	/experiments/aot/S_yt-mL3MuCfKtdY_79.mp4	0.0	115.93148589134216	2.5000030994415283
11	90.66628098487854	pulse	1	t		9.0	2.5	/experiments/aot/S_yt-mL3MuCfKtdY_79.mp4	0.0	117.11485385894775	
11	91.98291611671448	fix_post	2		12	9.0	2.5	/experiments/aot/S_yt-mL3MuCfKtdY_79.mp4	0.0	118.43148899078369	0.09995484352111816
12	92.0828709602356	fix_pre	0		120	10.0	2.5	/experiments/aot/R_S_production_ID_5139371.mp4	0.0	118.53144383430481	1.0000920295715332
12	92.26600003242493	pulse	0	t		10.0	2.5	/experiments/aot/R_S_production_ID_5139371.mp4	0.0	118.71457290649414	
12	93.08296298980713	movie	1		161	10.0	2.5	/experiments/aot/R_S_production_ID_5139371.mp4	0.0	119.53153586387634	2.499927043914795
12	93.86661696434021	pulse	1	t		10.0	2.5	/experiments/aot/R_S_production_ID_5139371.mp4	0.0	120.31518983840942	
12	95.46651315689087	pulse	1	t		10.0	2.5	/experiments/aot/R_S_production_ID_5139371.mp4	0.0	121.91508603096008	
12	95.58289003372192	fix_post	2		12	10.0	2.5	/experiments/aot/R_S_production_ID_5139371.mp4	0.0	122.03146290779114	0.09999203681945801
13	95.68288207054138	fix_pre	0		120	11.0	2.5	/experiments/aot/R_S_yt-O_4DgW-XKvA_35.mp4	0.0	122.1314549446106	0.9999849796295166
13	96.6828670501709	movie	1		300	11.0	2.5	/experiments/aot/R_S_yt-O_4DgW-XKvA_35.mp4	0.0	123.13143992424011	2.4999821186065674
13	97.06627798080444	pulse	1	t		11.0	2.5	/experiments/aot/R_S_yt-O_4DgW-XKvA_35.mp4	0.0	123.51485085487366	
13	98.66630601882935	pulse	1	t		11.0	2.5	/experiments/aot/R_S_yt-O_4DgW-XKvA_35.mp4	0.0	125.11487889289856	
13	99.18284916877747	fix_post	2		12	11.0	2.5	/experiments/aot/R_S_yt-O_4DgW-XKvA_35.mp4	0.0	125.63142204284668	0.09995698928833008
14	99.2828061580658	fix_pre	0		119	12.0	2.5	blank	1.0	125.73137903213501	0.9916799068450928
14	100.26630902290344	pulse	0	t		12.0	2.5	blank	1.0	126.71488189697266	
14	100.27448606491089	movie	1		301	12.0	2.5	blank	1.0	126.7230589389801	2.508310079574585
14	101.86631107330322	pulse	1	t		12.0	2.5	blank	1.0	128.31488394737244	
14	102.78279614448547	fix_post	2		12	12.0	2.5	blank	1.0	129.2313690185547	0.09997987747192383
15	102.8827760219574	fix_pre	0		120	13.0	2.5	/experiments/aot/S_b5-3.mp4	0.0	129.3313488960266	1.0000629425048828
15	103.46624398231506	pulse	0	t		13.0	2.5	/experiments/aot/S_b5-3.mp4	0.0	129.91481685638428	
15	103.88283896446228	movie	1		161	13.0	2.5	/experiments/aot/S_b5-3.mp4	0.0	130.3314118385315	2.500005006790161
15	105.06633996963501	pulse	1	t		13.0	2.5	/experiments/aot/S_b5-3.mp4	0.0	131.51491284370422	
15	106.38284397125244	fix_post	2		12	13.0	2.5	/experiments/aot/S_b5-3.mp4	0.0	132.83141684532166	0.09991002082824707
16	106.48275399208069	fix_pre	0		120	14.0	2.5	/experiments/aot/R_S__6qAy77ODUI_175.mp4	0.0	132.9313268661499	0.9999880790710449
16	106.66630506515503	pulse	0	t		14.0	2.5	/experiments/aot/R_S__6qAy77ODUI_175.mp4	0.0	133.11487793922424	
16	107.48274207115173	movie	1		300	14.0	2.5	/experiments/aot/R_S__6qAy77ODUI_175.mp4	0.0	133.93131494522095	2.5000360012054443
16	108.26632404327393	pulse	1	t		14.0	2.5	/experiments/aot/R_S__6qAy77ODUI_175.mp4	0.0	134.71489691734314	
16	109.86634111404419	pulse	1	t		14.0	2.5	/experiments/aot/R_S__6qAy77ODUI_175.mp4	0.0	136.3149139881134	
16	109.98277807235718	fix_post	2		12	14.0	2.5	/experiments/aot/R_S__6qAy77ODUI_175.mp4	0.0	136.4313509464264	0.09995293617248535
17	110.08273100852966	fix_pre	0		120	15.0	2.5	/experiments/aot/R_S_yt-Fm97IY0Z2LU_110.mp4	0.0	136.53130388259888	1.0000889301300049
17	111.08281993865967	movie	1		300	15.0	2.5	/experiments/aot/R_S_yt-Fm97IY0Z2LU_110.mp4	0.0	137.53139281272888	2.499969005584717
17	111.46622395515442	pulse	1	t		15.0	2.5	/experiments/aot/R_S_yt-Fm97IY0Z2LU_110.mp4	0.0	137.91479682922363	
17	113.06617999076843	pulse	1	t		15.0	2.5	/experiments/aot/R_S_yt-Fm97IY0Z2LU_110.mp4	0.0	139.51475286483765	
17	113.58278894424438	fix_post	2		12	15.0	2.5	/experiments/aot/R_S_yt-Fm97IY0Z2LU_110.mp4	0.0	140.0313618183136	0.09996509552001953
18	113.6827540397644	fix_pre	0		119	16.0	2.5	/experiments/aot/R_S_yt-UzWRbs9Syf4_7.mp4	0.0	140.13132691383362	0.9916870594024658
18	114.6662859916687	pulse	0	t		16.0	2.5	/experiments/aot/R_S_yt-UzWRbs9Syf4_7.mp4	0.0	141.11485886573792	
18	114.67444109916687	movie	1		301	16.0	2.5	/experiments/aot/R_S_yt-UzWRbs9Syf4_7.mp4	0.0	141.12301397323608	2.5083160400390625
18	116.26206612586975	pulse	1	t		16.0	2.5	/experiments/aot/R_S_yt-UzWRbs9Syf4_7.mp4	0.0	142.71063899993896	
18	117.18275713920593	fix_post	2		12	16.0	2.5	/experiments/aot/R_S_yt-UzWRbs9Syf4_7.mp4	0.0	143.63133001327515	0.10003900527954102
19	117.28279614448547	fix_pre	0		120	17.0	2.5	/experiments/aot/S_yt-R-SETZtYWaA_336.mp4	0.0	143.7313690185547	0.9999988079071045
19	117.86626315116882	pulse	0	t		17.0	2.5	/experiments/aot/S_yt-R-SETZtYWaA_336.mp4	0.0	144.31483602523804	
19	118.28279495239258	movie	1		299	17.0	2.5	/experiments/aot/S_yt-R-SETZtYWaA_336.mp4	0.0	144.7313678264618	2.499946117401123
19	119.46626496315002	pulse	1	t		17.0	2.5	/experiments/aot/S_yt-R-SETZtYWaA_336.mp4	0.0	145.91483783721924	
19	120.7827410697937	fix_post	2		12	17.0	2.5	/experiments/aot/S_yt-R-SETZtYWaA_336.mp4	0.0	147.23131394386292	0.09998202323913574
20	120.88272309303284	fix_pre	0		120	18.0	2.5	/experiments/aot/S_yt-LUIvP_NDWAs_45.mp4	0.0	147.33129596710205	0.9999370574951172
20	121.06630110740662	pulse	0	t		18.0	2.5	/experiments/aot/S_yt-LUIvP_NDWAs_45.mp4	0.0	147.51487398147583	
20	121.88266015052795	movie	1		300	18.0	2.5	/experiments/aot/S_yt-LUIvP_NDWAs_45.mp4	0.0	148.33123302459717	2.500030994415283
20	122.66621208190918	pulse	1	t		18.0	2.5	/experiments/aot/S_yt-LUIvP_NDWAs_45.mp4	0.0	149.1147849559784	
20	124.26617908477783	pulse	1	t		18.0	2.5	/experiments/aot/S_yt-LUIvP_NDWAs_45.mp4	0.0	150.71475195884705	
20	124.38269114494324	fix_post	2		12	18.0	2.5	/experiments/aot/S_yt-LUIvP_NDWAs_45.mp4	0.0	150.83126401901245	0.09997200965881348
21	124.48266315460205	fix_pre	0		120	19.0	2.5	/experiments/aot/R_S_bing-www_dailymotion_com_video_x4kcklg_53.mp4	0.0	150.93123602867126	1.0001068115234375
21	125.48276996612549	movie	1		163	19.0	2.5	/experiments/aot/R_S_bing-www_dailymotion_com_video_x4kcklg_53.mp4	0.0	151.9313428401947	2.499911069869995
21	125.86626601219177	pulse	1	t		19.0	2.5	/experiments/aot/R_S_bing-www_dailymotion_com_video_x4kcklg_53.mp4	0.0	152.314838886261	
21	127.46626305580139	pulse	1	t		19.0	2.5	/experiments/aot/R_S_bing-www_dailymotion_com_video_x4kcklg_53.mp4	0.0	153.9148359298706	
21	127.98268103599548	fix_post	2		12	19.0	2.5	/experiments/aot/R_S_bing-www_dailymotion_com_video_x4kcklg_53.mp4	0.0	154.4312539100647	0.10008597373962402
22	128.0827670097351	fix_pre	0		119	20.0	2.5	blank	1.0	154.53133988380432	0.9915421009063721
22	129.06619095802307	pulse	0	t		20.0	2.5	blank	1.0	155.51476383209229	
22	129.07430911064148	movie	1		301	20.0	2.5	blank	1.0	155.5228819847107	2.5083439350128174
22	130.6662130355835	pulse	1	t		20.0	2.5	blank	1.0	157.1147859096527	
22	131.5826530456543	fix_post	2		12	20.0	2.5	blank	1.0	158.0312259197235	0.1000509262084961
23	131.6827039718628	fix_pre	0		120	21.0	2.5	/experiments/aot/S_video-11.mp4	0.0	158.131276845932	0.9999551773071289
23	132.2662229537964	pulse	0	t		21.0	2.5	/experiments/aot/S_video-11.mp4	0.0	158.7147958278656	
23	132.68265914916992	movie	1		162	21.0	2.5	/experiments/aot/S_video-11.mp4	0.0	159.13123202323914	2.500072956085205
23	133.86619901657104	pulse	1	t		21.0	2.5	/experiments/aot/S_video-11.mp4	0.0	160.31477189064026	
23	135.18273210525513	fix_post	2		12	21.0	2.5	/experiments/aot/S_video-11.mp4	0.0	161.63130497932434	0.1000070571899414
24	135.28273916244507	fix_pre	0		120	22.0	2.5	/experiments/aot/R_S_production_ID_3944248.mp4	0.0	161.73131203651428	0.9999899864196777
24	135.4661900997162	pulse	0	t		22.0	2.5	/experiments/aot/R_S_production_ID_3944248.mp4	0.0	161.9147629737854	
24	136.28272914886475	movie	1		160	22.0	2.5	/experiments/aot/R_S_production_ID_3944248.mp4	0.0	162.73130202293396	2.4999887943267822
24	137.0662579536438	pulse	1	t		22.0	2.5	/experiments/aot/R_S_production_ID_3944248.mp4	0.0	163.514830827713	
24	138.66622495651245	pulse	1	t		22.0	2.5	/experiments/aot/R_S_production_ID_3944248.mp4	0.0	165.11479783058167	
24	138.78271794319153	fix_post	2		12	22.0	2.5	/experiments/aot/R_S_production_ID_3944248.mp4	0.0	165.23129081726074	0.09998703002929688
25	138.88270497322083	fix_pre	0		120	23.0	2.5	/experiments/aot/S_yt-4wjGeLyvfjY_223.mp4	0.0	165.33127784729004	0.9999911785125732
25	139.8826961517334	movie	1		300	23.0	2.5	/experiments/aot/S_yt-4wjGeLyvfjY_223.mp4	0.0	166.3312690258026	2.499994993209839
25	140.26617813110352	pulse	1	t		23.0	2.5	/experiments/aot/S_yt-4wjGeLyvfjY_223.mp4	0.0	166.71475100517273	
25	141.866112947464	pulse	1	t		23.0	2.5	/experiments/aot/S_yt-4wjGeLyvfjY_223.mp4	0.0	168.3146858215332	
25	142.38269114494324	fix_post	2		12	23.0	2.5	/experiments/aot/S_yt-4wjGeLyvfjY_223.mp4	0.0	168.83126401901245	0.10003781318664551
26	142.48272895812988	fix_pre	0		119	24.0	2.5	/experiments/aot/S_yt-F3hhts3bwWg_25.mp4	0.0	168.9313018321991	0.9915750026702881
26	143.46607398986816	pulse	0	t		24.0	2.5	/experiments/aot/S_yt-F3hhts3bwWg_25.mp4	0.0	169.91464686393738	
26	143.47430396080017	movie	1		301	24.0	2.5	/experiments/aot/S_yt-F3hhts3bwWg_25.mp4	0.0	169.92287683486938	2.5083670616149902
26	145.0626380443573	pulse	1	t		24.0	2.5	/experiments/aot/S_yt-F3hhts3bwWg_25.mp4	0.0	171.5112109184265	
26	145.98267102241516	fix_post	2		12	24.0	2.5	/experiments/aot/S_yt-F3hhts3bwWg_25.mp4	0.0	172.43124389648438	0.09998798370361328
27	146.08265900611877	fix_pre	0		120	25.0	2.5	/experiments/aot/R_S_ILSVRC2015_train_00418004.mp4	0.0	172.531231880188	1.000020980834961
27	146.66619205474854	pulse	0	t		25.0	2.5	/experiments/aot/R_S_ILSVRC2015_train_00418004.mp4	0.0	173.11476492881775	
27	147.08267998695374	movie	1		300	25.0	2.5	/experiments/aot/R_S_ILSVRC2015_train_00418004.mp4	0.0	173.53125286102295	2.500185966491699
27	148.26568913459778	pulse	1	t		25.0	2.5	/experiments/aot/R_S_ILSVRC2015_train_00418004.mp4	0.0	174.714262008667	
27	149.58286595344543	fix_post	2		12	25.0	2.5	/experiments/aot/R_S_ILSVRC2015_train_00418004.mp4	0.0	176.03143882751465	0.09964299201965332
28	149.6825089454651	fix_pre	0		120	26.0	2.5	/experiments/aot/S_yt-VfASxEzDrvc_145.mp4	0.0	176.1310818195343	1.0000991821289062
28	149.86593794822693	pulse	0	t		26.0	2.5	/experiments/aot/S_yt-VfASxEzDrvc_145.mp4	0.0	176.31451082229614	
28	150.682608127594	movie	1		300	26.0	2.5	/experiments/aot/S_yt-VfASxEzDrvc_145.mp4	0.0	177.1311810016632	2.5000388622283936
28	151.46637415885925	pulse	1	t		26.0	2.5	/experiments/aot/S_yt-VfASxEzDrvc_145.mp4	0.0	177.91494703292847	
28	153.06567096710205	pulse	1	t		26.0	2.5	/experiments/aot/S_yt-VfASxEzDrvc_145.mp4	0.0	179.51424384117126	
28	153.1826469898224	fix_post	2		12	26.0	2.5	/experiments/aot/S_yt-VfASxEzDrvc_145.mp4	0.0	179.6312198638916	0.09998798370361328
29	153.282634973526	fix_pre	0		120	27.0	2.5	/experiments/aot/R_S_yt-hyZEDFkh49w_196.mp4	0.0	179.73120784759521	1.000108003616333
29	154.28274297714233	movie	1		300	27.0	2.5	/experiments/aot/R_S_yt-hyZEDFkh49w_196.mp4	0.0	180.73131585121155	2.4997971057891846
29	154.66622710227966	pulse	1	t		27.0	2.5	/experiments/aot/R_S_yt-hyZEDFkh49w_196.mp4	0.0	181.11479997634888	
29	156.26595902442932	pulse	1	t		27.0	2.5	/experiments/aot/R_S_yt-hyZEDFkh49w_196.mp4	0.0	182.71453189849854	
29	156.78254008293152	fix_post	2		12	27.0	2.5	/experiments/aot/R_S_yt-hyZEDFkh49w_196.mp4	0.0	183.23111295700073	0.10002589225769043
30	156.8825659751892	fix_pre	0		119	28.0	2.5	blank	1.0	183.33113884925842	0.9916121959686279
30	157.86604595184326	pulse	0	t		28.0	2.5	blank	1.0	184.31461882591248	
30	157.87417817115784	movie	1		301	28.0	2.5	blank	1.0	184.32275104522705	2.5083580017089844
30	159.4659550189972	pulse	1	t		28.0	2.5	blank	1.0	185.9145278930664	
30	160.38253617286682	fix_post	2		12	28.0	2.5	blank	1.0	186.83110904693604	0.10000276565551758
31	160.48253893852234	fix_pre	0		120	29.0	2.5	/experiments/aot/S_yt-06XMUn9DTKc_35.mp4	0.0	186.93111181259155	0.9999721050262451
31	161.06602215766907	pulse	0	t		29.0	2.5	/experiments/aot/S_yt-06XMUn9DTKc_35.mp4	0.0	187.51459503173828	
31	161.48251104354858	movie	1		300	29.0	2.5	/experiments/aot/S_yt-06XMUn9DTKc_35.mp4	0.0	187.9310839176178	2.5000569820404053
31	162.66599917411804	pulse	1	t		29.0	2.5	/experiments/aot/S_yt-06XMUn9DTKc_35.mp4	0.0	189.11457204818726	
31	163.982568025589	fix_post	2		12	29.0	2.5	/experiments/aot/S_yt-06XMUn9DTKc_35.mp4	0.0	190.4311408996582	0.09995412826538086
32	164.08252215385437	fix_pre	0		120	30.0	2.5	/experiments/aot/R_S_yt-xqjVM0Vj4mI_161.mp4	0.0	190.53109502792358	0.9999988079071045
32	164.26604413986206	pulse	0	t		30.0	2.5	/experiments/aot/R_S_yt-xqjVM0Vj4mI_161.mp4	0.0	190.71461701393127	
32	165.08252096176147	movie	1		299	30.0	2.5	/experiments/aot/R_S_yt-xqjVM0Vj4mI_161.mp4	0.0	191.5310938358307	2.5000131130218506
32	165.86604499816895	pulse	1	t		30.0	2.5	/experiments/aot/R_S_yt-xqjVM0Vj4mI_161.mp4	0.0	192.31461787223816	
32	167.4655201435089	pulse	1	t		30.0	2.5	/experiments/aot/R_S_yt-xqjVM0Vj4mI_161.mp4	0.0	193.91409301757812	
32	167.58253407478333	fix_post	2		12	30.0	2.5	/experiments/aot/R_S_yt-xqjVM0Vj4mI_161.mp4	0.0	194.03110694885254	0.09998893737792969
33	167.68252301216125	fix_pre	0		120	31.0	2.5	/experiments/aot/R_S_comp_CH_C002_C005_PSNK_v05_SDR_PS_FINAL_20180709_SDR_2K_AVC.mp4	0.0	194.13109588623047	1.0000381469726562
33	168.6825611591339	movie	1		172	31.0	2.5	/experiments/aot/R_S_comp_CH_C002_C005_PSNK_v05_SDR_PS_FINAL_20180709_SDR_2K_AVC.mp4	0.0	195.13113403320312	2.499903917312622
33	169.06601095199585	pulse	1	t		31.0	2.5	/experiments/aot/R_S_comp_CH_C002_C005_PSNK_v05_SDR_PS_FINAL_20180709_SDR_2K_AVC.mp4	0.0	195.51458382606506	
33	170.66600704193115	pulse	1	t		31.0	2.5	/experiments/aot/R_S_comp_CH_C002_C005_PSNK_v05_SDR_PS_FINAL_20180709_SDR_2K_AVC.mp4	0.0	197.11457991600037	
33	171.18246507644653	fix_post	2		12	31.0	2.5	/experiments/aot/R_S_comp_CH_C002_C005_PSNK_v05_SDR_PS_FINAL_20180709_SDR_2K_AVC.mp4	0.0	197.63103795051575	0.10003805160522461
34	171.28250312805176	fix_pre	0		119	32.0	2.5	/experiments/aot/S_yt-H45g6700wbc_159.mp4	0.0	197.73107600212097	0.9916849136352539
34	172.26601004600525	pulse	0	t		32.0	2.5	/experiments/aot/S_yt-H45g6700wbc_159.mp4	0.0	198.71458292007446	
34	172.274188041687	movie	1		301	32.0	2.5	/experiments/aot/S_yt-H45g6700wbc_159.mp4	0.0	198.72276091575623	2.5083069801330566
34	173.8619360923767	pulse	1	t		32.0	2.5	/experiments/aot/S_yt-H45g6700wbc_159.mp4	0.0	200.31050896644592	
34	174.78249502182007	fix_post	2		12	32.0	2.5	/experiments/aot/S_yt-H45g6700wbc_159.mp4	0.0	201.23106789588928	0.10000991821289062
35	174.88250494003296	fix_pre	0		120	33.0	2.5	/experiments/aot/S_Person_Going_Through_A_Bible.mp4	0.0	201.33107781410217	0.9999470710754395
35	175.4660439491272	pulse	0	t		33.0	2.5	/experiments/aot/S_Person_Going_Through_A_Bible.mp4	0.0	201.9146168231964	
35	175.8824520111084	movie	1		162	33.0	2.5	/experiments/aot/S_Person_Going_Through_A_Bible.mp4	0.0	202.3310248851776	2.5001630783081055
35	177.06606197357178	pulse	1	t		33.0	2.5	/experiments/aot/S_Person_Going_Through_A_Bible.mp4	0.0	203.514634847641	
35	178.3826150894165	fix_post	2		12	33.0	2.5	/experiments/aot/S_Person_Going_Through_A_Bible.mp4	0.0	204.83118796348572	0.09986996650695801
36	178.48248505592346	fix_pre	0		120	34.0	2.5	blank	1.0	204.93105792999268	1.0000250339508057
36	178.6659710407257	pulse	0	t		34.0	2.5	blank	1.0	205.11454391479492	
36	179.48251008987427	movie	1		300	34.0	2.5	blank	1.0	205.93108296394348	2.499894857406616
36	180.26588916778564	pulse	1	t		34.0	2.5	blank	1.0	206.71446204185486	
36	181.8658630847931	pulse	1	t		34.0	2.5	blank	1.0	208.3144359588623	
36	181.98240494728088	fix_post	2		12	34.0	2.5	blank	1.0	208.4309778213501	0.10005617141723633
37	182.08246111869812	fix_pre	0		120	35.0	2.5	/experiments/aot/S_yt-O_4DgW-XKvA_35.mp4	0.0	208.53103399276733	1.0000078678131104
37	183.08246898651123	movie	1		300	35.0	2.5	/experiments/aot/S_yt-O_4DgW-XKvA_35.mp4	0.0	209.53104186058044	2.4999520778656006
37	183.46595406532288	pulse	1	t		35.0	2.5	/experiments/aot/S_yt-O_4DgW-XKvA_35.mp4	0.0	209.9145269393921	
37	185.06592416763306	pulse	1	t		35.0	2.5	/experiments/aot/S_yt-O_4DgW-XKvA_35.mp4	0.0	211.51449704170227	
37	185.58242106437683	fix_post	2		12	35.0	2.5	/experiments/aot/S_yt-O_4DgW-XKvA_35.mp4	0.0	212.03099393844604	0.10002303123474121
38	185.68244409561157	fix_pre	0		119	36.0	2.5	/experiments/aot/R_S_flickr-southeasternstar-3464778323_10.mp4	0.0	212.1310169696808	0.991689920425415
38	186.6659231185913	pulse	0	t		36.0	2.5	/experiments/aot/R_S_flickr-southeasternstar-3464778323_10.mp4	0.0	213.11449599266052	
38	186.674134016037	movie	1		301	36.0	2.5	/experiments/aot/R_S_flickr-southeasternstar-3464778323_10.mp4	0.0	213.1227068901062	2.5082359313964844
38	188.2626509666443	pulse	1	t		36.0	2.5	/experiments/aot/R_S_flickr-southeasternstar-3464778323_10.mp4	0.0	214.7112238407135	
38	189.18236994743347	fix_post	2		12	36.0	2.5	/experiments/aot/R_S_flickr-southeasternstar-3464778323_10.mp4	0.0	215.63094282150269	0.09993815422058105
39	189.28230810165405	fix_pre	0		120	37.0	2.5	/experiments/aot/S_yt-WhQMF3WM0Ig_29.mp4	0.0	215.73088097572327	1.0000169277191162
39	189.8658890724182	pulse	0	t		37.0	2.5	/experiments/aot/S_yt-WhQMF3WM0Ig_29.mp4	0.0	216.31446194648743	
39	190.28232502937317	movie	1		300	37.0	2.5	/experiments/aot/S_yt-WhQMF3WM0Ig_29.mp4	0.0	216.73089790344238	2.499983072280884
39	191.46589708328247	pulse	1	t		37.0	2.5	/experiments/aot/S_yt-WhQMF3WM0Ig_29.mp4	0.0	217.91446995735168	
39	192.78230810165405	fix_post	2		12	37.0	2.5	/experiments/aot/S_yt-WhQMF3WM0Ig_29.mp4	0.0	219.23088097572327	0.10003495216369629
40	192.88234305381775	fix_pre	0		120	38.0	2.5	/experiments/aot/R_S_yt-hZxbKZ1WCVg_24.mp4	0.0	219.33091592788696	1.0000309944152832
40	193.0657820701599	pulse	0	t		38.0	2.5	/experiments/aot/R_S_yt-hZxbKZ1WCVg_24.mp4	0.0	219.51435494422913	
40	193.88237404823303	movie	1		300	38.0	2.5	/experiments/aot/R_S_yt-hZxbKZ1WCVg_24.mp4	0.0	220.33094692230225	2.5000109672546387
40	194.66594099998474	pulse	1	t		38.0	2.5	/experiments/aot/R_S_yt-hZxbKZ1WCVg_24.mp4	0.0	221.11451387405396	
40	196.26588106155396	pulse	1	t		38.0	2.5	/experiments/aot/R_S_yt-hZxbKZ1WCVg_24.mp4	0.0	222.71445393562317	
40	196.38238501548767	fix_post	2		12	38.0	2.5	/experiments/aot/R_S_yt-hZxbKZ1WCVg_24.mp4	0.0	222.83095788955688	0.09989213943481445
41	196.48227715492249	fix_pre	0		120	39.0	2.5	/experiments/aot/S_production_ID_4325591.mp4	0.0	222.9308500289917	1.0001308917999268
41	197.4824080467224	movie	1		168	39.0	2.5	/experiments/aot/S_production_ID_4325591.mp4	0.0	223.93098092079163	2.500093936920166
41	197.86588501930237	pulse	1	t		39.0	2.5	/experiments/aot/S_production_ID_4325591.mp4	0.0	224.31445789337158	
41	199.46592211723328	pulse	1	t		39.0	2.5	/experiments/aot/S_production_ID_4325591.mp4	0.0	225.9144949913025	
41	199.98250198364258	fix_post	2		12	39.0	2.5	/experiments/aot/S_production_ID_4325591.mp4	0.0	226.4310748577118	0.09991812705993652
42	200.08242011070251	fix_pre	0		119	40.0	2.5	/experiments/aot/S_video-7.mp4	0.0	226.53099298477173	0.9916880130767822
42	201.0658941268921	pulse	0	t		40.0	2.5	/experiments/aot/S_video-7.mp4	0.0	227.5144670009613	
42	201.0741081237793	movie	1		168	40.0	2.5	/experiments/aot/S_video-7.mp4	0.0	227.5226809978485	2.507908821105957
42	202.6658170223236	pulse	1	t		40.0	2.5	/experiments/aot/S_video-7.mp4	0.0	229.11438989639282	
42	203.58201694488525	fix_post	2		12	40.0	2.5	/experiments/aot/S_video-7.mp4	0.0	230.03058981895447	0.09997916221618652
43	203.68199610710144	fix_pre	0		120	41.0	2.5	blank	1.0	230.13056898117065	1.0000360012054443
43	204.2655119895935	pulse	0	t		41.0	2.5	blank	1.0	230.71408486366272	
43	204.68203210830688	movie	1		300	41.0	2.5	blank	1.0	231.1306049823761	2.5003550052642822
43	205.86564803123474	pulse	1	t		41.0	2.5	blank	1.0	232.31422090530396	
43	207.18238711357117	fix_post	2		12	41.0	2.5	blank	1.0	233.63095998764038	0.09995603561401367
44	207.28234314918518	fix_pre	0		120	42.0	2.5	/experiments/aot/S_yt-7WYXuBHeorw_188.mp4	0.0	233.7309160232544	0.9999768733978271
44	207.4658420085907	pulse	0	t		42.0	2.5	/experiments/aot/S_yt-7WYXuBHeorw_188.mp4	0.0	233.9144148826599	
44	208.282320022583	movie	1		300	42.0	2.5	/experiments/aot/S_yt-7WYXuBHeorw_188.mp4	0.0	234.73089289665222	2.499985933303833
44	209.06580710411072	pulse	1	t		42.0	2.5	/experiments/aot/S_yt-7WYXuBHeorw_188.mp4	0.0	235.51437997817993	
44	210.66529607772827	pulse	1	t		42.0	2.5	/experiments/aot/S_yt-7WYXuBHeorw_188.mp4	0.0	237.11386895179749	
44	210.78230595588684	fix_post	2		12	42.0	2.5	/experiments/aot/S_yt-7WYXuBHeorw_188.mp4	0.0	237.23087882995605	0.09993720054626465
45	210.8822431564331	fix_pre	0		120	43.0	2.5	/experiments/aot/S_yt-wrfAMDCg93Y_8.mp4	0.0	237.33081603050232	1.0001959800720215
45	211.88243913650513	movie	1		299	43.0	2.5	/experiments/aot/S_yt-wrfAMDCg93Y_8.mp4	0.0	238.33101201057434	2.4998748302459717
45	212.26571607589722	pulse	1	t		43.0	2.5	/experiments/aot/S_yt-wrfAMDCg93Y_8.mp4	0.0	238.71428894996643	
45	213.86574411392212	pulse	1	t		43.0	2.5	/experiments/aot/S_yt-wrfAMDCg93Y_8.mp4	0.0	240.31431698799133	
45	214.3823139667511	fix_post	2		12	43.0	2.5	/experiments/aot/S_yt-wrfAMDCg93Y_8.mp4	0.0	240.8308868408203	0.09999608993530273
46	214.4823100566864	fix_pre	0		119	44.0	2.5	/experiments/aot/R_S_ILSVRC2015_train_00559000.mp4	0.0	240.93088293075562	0.9916579723358154
46	215.46580505371094	pulse	0	t		44.0	2.5	/experiments/aot/R_S_ILSVRC2015_train_00559000.mp4	0.0	241.91437792778015	
46	215.47396802902222	movie	1		301	44.0	2.5	/experiments/aot/R_S_ILSVRC2015_train_00559000.mp4	0.0	241.92254090309143	2.5083060264587402
46	217.0657820701599	pulse	1	t		44.0	2.5	/experiments/aot/R_S_ILSVRC2015_train_00559000.mp4	0.0	243.51435494422913	
46	217.98227405548096	fix_post	2		12	44.0	2.5	/experiments/aot/R_S_ILSVRC2015_train_00559000.mp4	0.0	244.43084692955017	0.09995794296264648
47	218.0822319984436	fix_pre	0		120	45.0	2.5	/experiments/aot/R_S_ILSVRC2015_train_00405000.mp4	0.0	244.53080487251282	0.9999480247497559
47	218.66581010818481	pulse	0	t		45.0	2.5	/experiments/aot/R_S_ILSVRC2015_train_00405000.mp4	0.0	245.11438298225403	
47	219.08218002319336	movie	1		300	45.0	2.5	/experiments/aot/R_S_ILSVRC2015_train_00405000.mp4	0.0	245.53075289726257	2.5001120567321777
47	220.26578903198242	pulse	1	t		45.0	2.5	/experiments/aot/R_S_ILSVRC2015_train_00405000.mp4	0.0	246.71436190605164	
47	221.58229207992554	fix_post	2		12	45.0	2.5	/experiments/aot/R_S_ILSVRC2015_train_00405000.mp4	0.0	248.03086495399475	0.0998849868774414
48	221.68217706680298	fix_pre	0		120	46.0	2.5	/experiments/aot/S_yt-RO4mhuXBVrY_67.mp4	0.0	248.1307499408722	1.000072956085205
48	221.86568999290466	pulse	0	t		46.0	2.5	/experiments/aot/S_yt-RO4mhuXBVrY_67.mp4	0.0	248.31426286697388	
48	222.68225002288818	movie	1		300	46.0	2.5	/experiments/aot/S_yt-RO4mhuXBVrY_67.mp4	0.0	249.1308228969574	2.4999759197235107
48	223.46573495864868	pulse	1	t		46.0	2.5	/experiments/aot/S_yt-RO4mhuXBVrY_67.mp4	0.0	249.9143078327179	
48	225.06526494026184	pulse	1	t		46.0	2.5	/experiments/aot/S_yt-RO4mhuXBVrY_67.mp4	0.0	251.51383781433105	
48	225.1822259426117	fix_post	2		12	46.0	2.5	/experiments/aot/S_yt-RO4mhuXBVrY_67.mp4	0.0	251.6307988166809	0.10004806518554688
49	225.28227400779724	fix_pre	0		120	47.0	2.5	/experiments/aot/R_S_comp_GMT308_139K_142NC_CARIBBEAN_DAY_v09_SDR_FINAL_22062018_SDR_2K_AVC.mp4	0.0	251.73084688186646	0.9999489784240723
49	226.2822229862213	movie	1		169	47.0	2.5	/experiments/aot/R_S_comp_GMT308_139K_142NC_CARIBBEAN_DAY_v09_SDR_FINAL_22062018_SDR_2K_AVC.mp4	0.0	252.73079586029053	2.50007700920105
49	226.6657750606537	pulse	1	t		47.0	2.5	/experiments/aot/R_S_comp_GMT308_139K_142NC_CARIBBEAN_DAY_v09_SDR_FINAL_22062018_SDR_2K_AVC.mp4	0.0	253.1143479347229	
49	228.2657790184021	pulse	1	t		47.0	2.5	/experiments/aot/R_S_comp_GMT308_139K_142NC_CARIBBEAN_DAY_v09_SDR_FINAL_22062018_SDR_2K_AVC.mp4	0.0	254.7143518924713	
49	228.78229999542236	fix_post	2		12	47.0	2.5	/experiments/aot/R_S_comp_GMT308_139K_142NC_CARIBBEAN_DAY_v09_SDR_FINAL_22062018_SDR_2K_AVC.mp4	0.0	255.23087286949158	0.09996414184570312
50	228.88226413726807	fix_pre	0		119	48.0	2.5	blank	1.0	255.33083701133728	0.991541862487793
50	229.86562395095825	pulse	0	t		48.0	2.5	blank	1.0	256.31419682502747	
50	229.87380599975586	movie	1		301	48.0	2.5	blank	1.0	256.3223788738251	2.5083820819854736
50	231.46564412117004	pulse	1	t		48.0	2.5	blank	1.0	257.91421699523926	
50	232.38218808174133	fix_post	2		12	48.0	2.5	blank	1.0	258.83076095581055	0.10007095336914062
51	232.48225903511047	fix_pre	0		120	49.0	2.5	/experiments/aot/S_ILSVRC2015_train_00165012.mp4	0.0	258.9308319091797	1.000006914138794
51	233.06561613082886	pulse	0	t		49.0	2.5	/experiments/aot/S_ILSVRC2015_train_00165012.mp4	0.0	259.51418900489807	
51	233.48226594924927	movie	1		300	49.0	2.5	/experiments/aot/S_ILSVRC2015_train_00165012.mp4	0.0	259.9308388233185	2.4999821186065674
51	234.66567611694336	pulse	1	t		49.0	2.5	/experiments/aot/S_ILSVRC2015_train_00165012.mp4	0.0	261.1142489910126	
51	235.98224806785583	fix_post	2		12	49.0	2.5	/experiments/aot/S_ILSVRC2015_train_00165012.mp4	0.0	262.43082094192505	0.09987688064575195
52	236.0821249485016	fix_pre	0		120	50.0	2.5	/experiments/aot/S_yt-HFiRYTnMZxE_338.mp4	0.0	262.5306978225708	1.0001020431518555
52	236.2656500339508	pulse	0	t		50.0	2.5	/experiments/aot/S_yt-HFiRYTnMZxE_338.mp4	0.0	262.71422290802	
52	237.08222699165344	movie	1		300	50.0	2.5	/experiments/aot/S_yt-HFiRYTnMZxE_338.mp4	0.0	263.53079986572266	2.499868154525757
52	237.86572194099426	pulse	1	t		50.0	2.5	/experiments/aot/S_yt-HFiRYTnMZxE_338.mp4	0.0	264.3142948150635	
52	239.4657461643219	pulse	1	t		50.0	2.5	/experiments/aot/S_yt-HFiRYTnMZxE_338.mp4	0.0	265.9143190383911	
52	239.5820951461792	fix_post	2		12	50.0	2.5	/experiments/aot/S_yt-HFiRYTnMZxE_338.mp4	0.0	266.0306680202484	0.10003781318664551
53	239.68213295936584	fix_pre	0		120	51.0	2.5	/experiments/aot/R_S_yt-2V2tq9-O_Nc_1669.mp4	0.0	266.13070583343506	1.0000131130218506
53	240.6821460723877	movie	1		300	51.0	2.5	/experiments/aot/R_S_yt-2V2tq9-O_Nc_1669.mp4	0.0	267.1307189464569	2.50006103515625
53	241.06568813323975	pulse	1	t		51.0	2.5	/experiments/aot/R_S_yt-2V2tq9-O_Nc_1669.mp4	0.0	267.51426100730896	
53	242.66559100151062	pulse	1	t		51.0	2.5	/experiments/aot/R_S_yt-2V2tq9-O_Nc_1669.mp4	0.0	269.11416387557983	
53	243.18220710754395	fix_post	2		12	51.0	2.5	/experiments/aot/R_S_yt-2V2tq9-O_Nc_1669.mp4	0.0	269.63077998161316	0.09995198249816895
54	243.28215909004211	fix_pre	0		119	52.0	2.5	/experiments/aot/S_yt-G_eNNzNB-hU_1.mp4	0.0	269.7307319641113	0.9915709495544434
54	244.26564812660217	pulse	0	t		52.0	2.5	/experiments/aot/S_yt-G_eNNzNB-hU_1.mp4	0.0	270.7142210006714	
54	244.27373003959656	movie	1		301	52.0	2.5	/experiments/aot/S_yt-G_eNNzNB-hU_1.mp4	0.0	270.72230291366577	2.5083460807800293
54	245.86568999290466	pulse	1	t		52.0	2.5	/experiments/aot/S_yt-G_eNNzNB-hU_1.mp4	0.0	272.3142628669739	
54	246.7820761203766	fix_post	2		12	52.0	2.5	/experiments/aot/S_yt-G_eNNzNB-hU_1.mp4	0.0	273.2306489944458	0.09999704360961914
55	246.8820731639862	fix_pre	0		120	53.0	2.5	/experiments/aot/R_S_yt-R-SETZtYWaA_336.mp4	0.0	273.3306460380554	1.0000269412994385
55	247.4655680656433	pulse	0	t		53.0	2.5	/experiments/aot/R_S_yt-R-SETZtYWaA_336.mp4	0.0	273.9141409397125	
55	247.88210010528564	movie	1		300	53.0	2.5	/experiments/aot/R_S_yt-R-SETZtYWaA_336.mp4	0.0	274.33067297935486	2.500011920928955
55	249.0655710697174	pulse	1	t		53.0	2.5	/experiments/aot/R_S_yt-R-SETZtYWaA_336.mp4	0.0	275.5141439437866	
55	250.3821120262146	fix_post	2		12	53.0	2.5	/experiments/aot/R_S_yt-R-SETZtYWaA_336.mp4	0.0	276.8306849002838	0.10000300407409668
56	250.4821150302887	fix_pre	0		120	54.0	2.5	/experiments/aot/R_S_yt-hZxbKZ1WCVg_24.mp4	0.0	276.9306879043579	1.0000700950622559
56	250.66562700271606	pulse	0	t		54.0	2.5	/experiments/aot/R_S_yt-hZxbKZ1WCVg_24.mp4	0.0	277.1141998767853	
56	251.48218512535095	movie	1		299	54.0	2.5	/experiments/aot/R_S_yt-hZxbKZ1WCVg_24.mp4	0.0	277.93075799942017	2.49993896484375
56	252.2655370235443	pulse	1	t		54.0	2.5	/experiments/aot/R_S_yt-hZxbKZ1WCVg_24.mp4	0.0	278.7141098976135	
56	253.86561608314514	pulse	1	t		54.0	2.5	/experiments/aot/R_S_yt-hZxbKZ1WCVg_24.mp4	0.0	280.31418895721436	
56	253.9821240901947	fix_post	2		12	54.0	2.5	/experiments/aot/R_S_yt-hZxbKZ1WCVg_24.mp4	0.0	280.4306969642639	0.09999203681945801
57	254.08211612701416	fix_pre	0		120	55.0	2.5	blank	1.0	280.5306890010834	0.9999668598175049
57	255.08208298683167	movie	1		300	55.0	2.5	blank	1.0	281.5306558609009	2.500178098678589
57	255.46563911437988	pulse	1	t		55.0	2.5	blank	1.0	281.9142119884491	
57	257.06562995910645	pulse	1	t		55.0	2.5	blank	1.0	283.51420283317566	
57	257.58226108551025	fix_post	2		12	55.0	2.5	blank	1.0	284.03083395957947	0.09979796409606934
58	257.6820590496063	fix_pre	0		119	56.0	2.5	/experiments/aot/S_yt-etQaTgGOhR4_69.mp4	0.0	284.13063192367554	0.9916961193084717
58	258.66554498672485	pulse	0	t		56.0	2.5	/experiments/aot/S_yt-etQaTgGOhR4_69.mp4	0.0	285.11411786079407	
58	258.6737551689148	movie	1		301	56.0	2.5	/experiments/aot/S_yt-etQaTgGOhR4_69.mp4	0.0	285.122328042984	2.5085878372192383
58	260.2652111053467	pulse	1	t		56.0	2.5	/experiments/aot/S_yt-etQaTgGOhR4_69.mp4	0.0	286.7137839794159	
58	261.18234300613403	fix_post	2		12	56.0	2.5	/experiments/aot/S_yt-etQaTgGOhR4_69.mp4	0.0	287.63091588020325	0.09988999366760254
59	261.28223299980164	fix_pre	0		120	57.0	2.5	/experiments/aot/R_S_yt-HFiRYTnMZxE_338.mp4	0.0	287.73080587387085	0.9997880458831787
59	261.8658130168915	pulse	0	t		57.0	2.5	/experiments/aot/R_S_yt-HFiRYTnMZxE_338.mp4	0.0	288.3143858909607	
59	262.2820210456848	movie	1		300	57.0	2.5	/experiments/aot/R_S_yt-HFiRYTnMZxE_338.mp4	0.0	288.730593919754	2.5001320838928223
59	263.4654769897461	pulse	1	t		57.0	2.5	/experiments/aot/R_S_yt-HFiRYTnMZxE_338.mp4	0.0	289.9140498638153	
59	264.78215312957764	fix_post	2		12	57.0	2.5	/experiments/aot/R_S_yt-HFiRYTnMZxE_338.mp4	0.0	291.23072600364685	0.09988594055175781
60	264.8820390701294	fix_pre	0		120	58.0	2.5	/experiments/aot/R_S_yt-4wjGeLyvfjY_223.mp4	0.0	291.3306119441986	0.9999520778656006
60	265.0655550956726	pulse	0	t		58.0	2.5	/experiments/aot/R_S_yt-4wjGeLyvfjY_223.mp4	0.0	291.5141279697418	
60	265.881991147995	movie	1		300	58.0	2.5	/experiments/aot/R_S_yt-4wjGeLyvfjY_223.mp4	0.0	292.3305640220642	2.4999608993530273
60	266.6655230522156	pulse	1	t		58.0	2.5	/experiments/aot/R_S_yt-4wjGeLyvfjY_223.mp4	0.0	293.1140959262848	
60	268.2654731273651	pulse	1	t		58.0	2.5	/experiments/aot/R_S_yt-4wjGeLyvfjY_223.mp4	0.0	294.7140460014343	
60	268.381952047348	fix_post	2		12	58.0	2.5	/experiments/aot/R_S_yt-4wjGeLyvfjY_223.mp4	0.0	294.83052492141724	0.10000205039978027
61	268.4819540977478	fix_pre	0		120	59.0	2.5	/experiments/aot/S_ILSVRC2015_train_00417000.mp4	0.0	294.930526971817	1.000032901763916
61	269.4819869995117	movie	1		300	59.0	2.5	/experiments/aot/S_ILSVRC2015_train_00417000.mp4	0.0	295.93055987358093	2.5000650882720947
61	269.8654580116272	pulse	1	t		59.0	2.5	/experiments/aot/S_ILSVRC2015_train_00417000.mp4	0.0	296.3140308856964	
61	271.46540212631226	pulse	1	t		59.0	2.5	/experiments/aot/S_ILSVRC2015_train_00417000.mp4	0.0	297.91397500038147	
61	271.9820520877838	fix_post	2		12	59.0	2.5	/experiments/aot/S_ILSVRC2015_train_00417000.mp4	0.0	298.430624961853	0.0999300479888916
62	272.0819821357727	fix_pre	0		119	60.0	2.5	/experiments/aot/R_S_bing-www_msn_com_en-us_video_news_tommy-lasorda-salutes-national-league-champs_vp-AAtLThQ_4.mp4	0.0	298.5305550098419	0.991642951965332
62	273.0654101371765	pulse	0	t		60.0	2.5	/experiments/aot/R_S_bing-www_msn_com_en-us_video_news_tommy-lasorda-salutes-national-league-champs_vp-AAtLThQ_4.mp4	0.0	299.5139830112457	
62	273.07362508773804	movie	1		160	60.0	2.5	/experiments/aot/R_S_bing-www_msn_com_en-us_video_news_tommy-lasorda-salutes-national-league-champs_vp-AAtLThQ_4.mp4	0.0	299.52219796180725	2.508375883102417
62	274.66506695747375	pulse	1	t		60.0	2.5	/experiments/aot/R_S_bing-www_msn_com_en-us_video_news_tommy-lasorda-salutes-national-league-champs_vp-AAtLThQ_4.mp4	0.0	301.11363983154297	
62	275.58200097084045	fix_post	2		12	60.0	2.5	/experiments/aot/R_S_bing-www_msn_com_en-us_video_news_tommy-lasorda-salutes-national-league-champs_vp-AAtLThQ_4.mp4	0.0	302.03057384490967	0.09991812705993652
63	275.6819190979004	fix_pre	0		120	61.0	2.5	/experiments/aot/R_S_yt-RO4mhuXBVrY_67.mp4	0.0	302.1304919719696	1.0000479221343994
63	276.26545906066895	pulse	0	t		61.0	2.5	/experiments/aot/R_S_yt-RO4mhuXBVrY_67.mp4	0.0	302.71403193473816	
63	276.6819670200348	movie	1		300	61.0	2.5	/experiments/aot/R_S_yt-RO4mhuXBVrY_67.mp4	0.0	303.130539894104	2.4999680519104004
63	277.86542797088623	pulse	1	t		61.0	2.5	/experiments/aot/R_S_yt-RO4mhuXBVrY_67.mp4	0.0	304.31400084495544	
63	279.1819350719452	fix_post	2		12	61.0	2.5	/experiments/aot/R_S_yt-RO4mhuXBVrY_67.mp4	0.0	305.6305079460144	0.09999704360961914
64	279.2819321155548	fix_pre	0		120	62.0	2.5	blank	1.0	305.730504989624	1.000046968460083
64	279.4654951095581	pulse	0	t		62.0	2.5	blank	1.0	305.9140679836273	
64	280.2819790840149	movie	1		300	62.0	2.5	blank	1.0	306.7305519580841	2.4999449253082275
64	281.0655951499939	pulse	1	t		62.0	2.5	blank	1.0	307.5141680240631	
64	282.6653800010681	pulse	1	t		62.0	2.5	blank	1.0	309.11395287513733	
64	282.7819240093231	fix_post	2		12	62.0	2.5	blank	1.0	309.23049688339233	0.09993815422058105
65	282.8818621635437	fix_pre	0		120	63.0	2.5	/experiments/aot/S_production_ID_3712945.mp4	0.0	309.3304350376129	1.0000979900360107
65	283.8819601535797	movie	1		160	63.0	2.5	/experiments/aot/S_production_ID_3712945.mp4	0.0	310.3305330276489	2.4999778270721436
65	284.26548194885254	pulse	1	t		63.0	2.5	/experiments/aot/S_production_ID_3712945.mp4	0.0	310.71405482292175	
65	285.8654420375824	pulse	1	t		63.0	2.5	/experiments/aot/S_production_ID_3712945.mp4	0.0	312.3140149116516	
65	286.38193798065186	fix_post	2		12	63.0	2.5	/experiments/aot/S_production_ID_3712945.mp4	0.0	312.83051085472107	0.09987998008728027
66	286.48181796073914	fix_pre	0		119	64.0	2.5	/experiments/aot/R_S_yt-nYi_FfCjepk_74.mp4	0.0	312.93039083480835	0.9917640686035156
66	287.46540999412537	pulse	0	t		64.0	2.5	/experiments/aot/R_S_yt-nYi_FfCjepk_74.mp4	0.0	313.9139828681946	
66	287.47358202934265	movie	1		301	64.0	2.5	/experiments/aot/R_S_yt-nYi_FfCjepk_74.mp4	0.0	313.92215490341187	2.5083119869232178
66	289.06536507606506	pulse	1	t		64.0	2.5	/experiments/aot/R_S_yt-nYi_FfCjepk_74.mp4	0.0	315.5139379501343	
66	289.98189401626587	fix_post	2		12	64.0	2.5	/experiments/aot/R_S_yt-nYi_FfCjepk_74.mp4	0.0	316.4304668903351	0.10002303123474121
67	290.0819170475006	fix_pre	0		120	65.0	2.5	/experiments/aot/R_S_yt-6xXEMHBQ08A_28.mp4	0.0	316.5304899215698	0.9999740123748779
67	290.66535115242004	pulse	0	t		65.0	2.5	/experiments/aot/R_S_yt-6xXEMHBQ08A_28.mp4	0.0	317.11392402648926	
67	291.0818910598755	movie	1		300	65.0	2.5	/experiments/aot/R_S_yt-6xXEMHBQ08A_28.mp4	0.0	317.5304639339447	2.500035047531128
67	292.265349149704	pulse	1	t		65.0	2.5	/experiments/aot/R_S_yt-6xXEMHBQ08A_28.mp4	0.0	318.7139220237732	
67	293.5819261074066	fix_post	2		12	65.0	2.5	/experiments/aot/R_S_yt-6xXEMHBQ08A_28.mp4	0.0	320.03049898147583	0.10002684593200684
68	293.6819529533386	fix_pre	0		120	66.0	2.5	/experiments/aot/S_yt-4sSV4iIs8gQ_55.mp4	0.0	320.13052582740784	0.9999270439147949
68	293.86532711982727	pulse	0	t		66.0	2.5	/experiments/aot/S_yt-4sSV4iIs8gQ_55.mp4	0.0	320.3138999938965	
68	294.6818799972534	movie	1		300	66.0	2.5	/experiments/aot/S_yt-4sSV4iIs8gQ_55.mp4	0.0	321.13045287132263	2.5000360012054443
68	295.4652810096741	pulse	1	t		66.0	2.5	/experiments/aot/S_yt-4sSV4iIs8gQ_55.mp4	0.0	321.9138538837433	
68	297.0653941631317	pulse	1	t		66.0	2.5	/experiments/aot/S_yt-4sSV4iIs8gQ_55.mp4	0.0	323.5139670372009	
68	297.18191599845886	fix_post	2		12	66.0	2.5	/experiments/aot/S_yt-4sSV4iIs8gQ_55.mp4	0.0	323.6304888725281	0.09992194175720215
69	297.28183794021606	fix_pre	0		120	67.0	2.5	/experiments/aot/S_yt-B8Sy53C6Pxw_8.mp4	0.0	323.7304108142853	1.0000572204589844
69	298.28189516067505	movie	1		298	67.0	2.5	/experiments/aot/S_yt-B8Sy53C6Pxw_8.mp4	0.0	324.73046803474426	2.499898910522461
69	298.6653230190277	pulse	1	t		67.0	2.5	/experiments/aot/S_yt-B8Sy53C6Pxw_8.mp4	0.0	325.1138958930969	
69	300.26532196998596	pulse	1	t		67.0	2.5	/experiments/aot/S_yt-B8Sy53C6Pxw_8.mp4	0.0	326.7138948440552	
69	300.7817940711975	fix_post	2		12	67.0	2.5	/experiments/aot/S_yt-B8Sy53C6Pxw_8.mp4	0.0	327.2303669452667	0.0999760627746582
70	300.88177013397217	fix_pre	0		119	68.0	2.5	/experiments/aot/S_ILnEDG_aP1A_35.mp4	0.0	327.3303430080414	0.991765022277832
70	301.86531615257263	pulse	0	t		68.0	2.5	/experiments/aot/S_ILnEDG_aP1A_35.mp4	0.0	328.31388902664185	
70	301.87353515625	movie	1		301	68.0	2.5	/experiments/aot/S_ILnEDG_aP1A_35.mp4	0.0	328.3221080303192	2.5083518028259277
70	303.4653971195221	pulse	1	t		68.0	2.5	/experiments/aot/S_ILnEDG_aP1A_35.mp4	0.0	329.9139699935913	
70	304.3818869590759	fix_post	2		12	68.0	2.5	/experiments/aot/S_ILnEDG_aP1A_35.mp4	0.0	330.83045983314514	0.09992003440856934
71	304.4818069934845	fix_pre	0		120	69.0	2.5	/experiments/aot/S_production_ID_4802710.mp4	0.0	330.9303798675537	1.000025987625122
71	305.06533908843994	pulse	0	t		69.0	2.5	/experiments/aot/S_production_ID_4802710.mp4	0.0	331.51391196250916	
71	305.4818329811096	movie	1		163	69.0	2.5	/experiments/aot/S_production_ID_4802710.mp4	0.0	331.93040585517883	2.4999771118164062
71	306.6653790473938	pulse	1	t		69.0	2.5	/experiments/aot/S_production_ID_4802710.mp4	0.0	333.113951921463	
71	307.981810092926	fix_post	2		12	69.0	2.5	/experiments/aot/S_production_ID_4802710.mp4	0.0	334.43038296699524	0.10000991821289062
72	308.0818200111389	fix_pre	0		120	70.0	2.5	blank	1.0	334.53039288520813	0.9999439716339111
72	308.265328168869	pulse	0	t		70.0	2.5	blank	1.0	334.71390104293823	
72	309.0817639827728	movie	1		300	70.0	2.5	blank	1.0	335.53033685684204	2.5000200271606445
72	309.8652250766754	pulse	1	t		70.0	2.5	blank	1.0	336.31379795074463	
72	311.4652121067047	pulse	1	t		70.0	2.5	blank	1.0	337.9137849807739	
72	311.5817840099335	fix_post	2		12	70.0	2.5	blank	1.0	338.0303568840027	0.10003805160522461
73	311.6818220615387	fix_pre	0		120	71.0	2.5	/experiments/aot/S_yt-4wYTkhggZNM_90.mp4	0.0	338.1303949356079	0.9999749660491943
73	312.6817970275879	movie	1		299	71.0	2.5	/experiments/aot/S_yt-4wYTkhggZNM_90.mp4	0.0	339.1303699016571	2.4999890327453613
73	313.0652470588684	pulse	1	t		71.0	2.5	/experiments/aot/S_yt-4wYTkhggZNM_90.mp4	0.0	339.5138199329376	
73	314.6648020744324	pulse	1	t		71.0	2.5	/experiments/aot/S_yt-4wYTkhggZNM_90.mp4	0.0	341.1133749485016	
73	315.18178606033325	fix_post	2		12	71.0	2.5	/experiments/aot/S_yt-4wYTkhggZNM_90.mp4	0.0	341.63035893440247	0.09964609146118164
74	315.28143215179443	fix_pre	0		119	72.0	2.5	/experiments/aot/R_S_yt-h8wy6x6oytA_25.mp4	0.0	341.73000502586365	0.9916729927062988
74	316.26499009132385	pulse	0	t		72.0	2.5	/experiments/aot/R_S_yt-h8wy6x6oytA_25.mp4	0.0	342.71356296539307	
74	316.27310514450073	movie	1		301	72.0	2.5	/experiments/aot/R_S_yt-h8wy6x6oytA_25.mp4	0.0	342.72167801856995	2.508694887161255
74	317.86518716812134	pulse	1	t		72.0	2.5	/experiments/aot/R_S_yt-h8wy6x6oytA_25.mp4	0.0	344.31376004219055	
74	318.781800031662	fix_post	2		12	72.0	2.5	/experiments/aot/R_S_yt-h8wy6x6oytA_25.mp4	0.0	345.2303729057312	0.100006103515625
75	318.8818061351776	fix_pre	0		120	73.0	2.5	/experiments/aot/R_S_yt-Pc1ZlCvsPpc_5.mp4	0.0	345.3303790092468	1.0000019073486328
75	319.4652590751648	pulse	0	t		73.0	2.5	/experiments/aot/R_S_yt-Pc1ZlCvsPpc_5.mp4	0.0	345.913831949234	
75	319.88180804252625	movie	1		300	73.0	2.5	/experiments/aot/R_S_yt-Pc1ZlCvsPpc_5.mp4	0.0	346.33038091659546	2.499937057495117
75	321.06520915031433	pulse	1	t		73.0	2.5	/experiments/aot/R_S_yt-Pc1ZlCvsPpc_5.mp4	0.0	347.51378202438354	
75	322.38174510002136	fix_post	2		12	73.0	2.5	/experiments/aot/R_S_yt-Pc1ZlCvsPpc_5.mp4	0.0	348.8303179740906	0.09999704360961914
76	322.481742143631	fix_pre	0		120	74.0	2.5	/experiments/aot/R_S_yt-qurTr1BJMec_244.mp4	0.0	348.9303150177002	0.9999978542327881
76	322.6652829647064	pulse	0	t		74.0	2.5	/experiments/aot/R_S_yt-qurTr1BJMec_244.mp4	0.0	349.11385583877563	
76	323.48173999786377	movie	1		300	74.0	2.5	/experiments/aot/R_S_yt-qurTr1BJMec_244.mp4	0.0	349.930312871933	2.4999091625213623
76	324.2651410102844	pulse	1	t		74.0	2.5	/experiments/aot/R_S_yt-qurTr1BJMec_244.mp4	0.0	350.71371388435364	
76	325.86520409584045	pulse	1	t		74.0	2.5	/experiments/aot/R_S_yt-qurTr1BJMec_244.mp4	0.0	352.31377696990967	
76	325.98164916038513	fix_post	2		12	74.0	2.5	/experiments/aot/R_S_yt-qurTr1BJMec_244.mp4	0.0	352.43022203445435	0.10004591941833496
77	326.08169507980347	fix_pre	0		120	75.0	2.5	/experiments/aot/S_yt-6MwA-jx56AQ_612.mp4	0.0	352.5302679538727	0.9999969005584717
77	327.08169198036194	movie	1		300	75.0	2.5	/experiments/aot/S_yt-6MwA-jx56AQ_612.mp4	0.0	353.53026485443115	2.5000171661376953
77	327.46519112586975	pulse	1	t		75.0	2.5	/experiments/aot/S_yt-6MwA-jx56AQ_612.mp4	0.0	353.91376399993896	
77	329.0651750564575	pulse	1	t		75.0	2.5	/experiments/aot/S_yt-6MwA-jx56AQ_612.mp4	0.0	355.51374793052673	
77	329.58170914649963	fix_post	2		12	75.0	2.5	/experiments/aot/S_yt-6MwA-jx56AQ_612.mp4	0.0	356.03028202056885	0.0998988151550293
78	329.68160796165466	fix_pre	0		119	76.0	2.5	/experiments/aot/R_S_ILSVRC2015_train_00743006.mp4	0.0	356.1301808357239	0.9917871952056885
78	330.66528511047363	pulse	0	t		76.0	2.5	/experiments/aot/R_S_ILSVRC2015_train_00743006.mp4	0.0	357.11385798454285	
78	330.67339515686035	movie	1		301	76.0	2.5	/experiments/aot/R_S_ILSVRC2015_train_00743006.mp4	0.0	357.12196803092957	2.508349895477295
78	332.2651970386505	pulse	1	t		76.0	2.5	/experiments/aot/R_S_ILSVRC2015_train_00743006.mp4	0.0	358.7137699127197	
78	333.18174505233765	fix_post	2		12	76.0	2.5	/experiments/aot/R_S_ILSVRC2015_train_00743006.mp4	0.0	359.63031792640686	0.09993290901184082
79	333.2816779613495	fix_pre	0		120	77.0	2.5	blank	1.0	359.7302508354187	1.0000669956207275
79	333.8651511669159	pulse	0	t		77.0	2.5	blank	1.0	360.3137240409851	
79	334.2817449569702	movie	1		300	77.0	2.5	blank	1.0	360.73031783103943	2.4999301433563232
79	335.46516394615173	pulse	1	t		77.0	2.5	blank	1.0	361.91373682022095	
79	336.78167510032654	fix_post	2		12	77.0	2.5	blank	1.0	363.23024797439575	0.09997701644897461
80	336.8816521167755	fix_pre	0		120	78.0	2.5	/experiments/aot/R_S_bing-www_msn_com_en-us_video_news_tommy-lasorda-salutes-national-league-champs_vp-AAtLThQ_4.mp4	0.0	363.3302249908447	1.0000510215759277
80	337.0651259422302	pulse	0	t		78.0	2.5	/experiments/aot/R_S_bing-www_msn_com_en-us_video_news_tommy-lasorda-salutes-national-league-champs_vp-AAtLThQ_4.mp4	0.0	363.51369881629944	
80	337.88170313835144	movie	1		164	78.0	2.5	/experiments/aot/R_S_bing-www_msn_com_en-us_video_news_tommy-lasorda-salutes-national-league-champs_vp-AAtLThQ_4.mp4	0.0	364.33027601242065	2.4999840259552
80	338.66519594192505	pulse	1	t		78.0	2.5	/experiments/aot/R_S_bing-www_msn_com_en-us_video_news_tommy-lasorda-salutes-national-league-champs_vp-AAtLThQ_4.mp4	0.0	365.11376881599426	
80	340.265221118927	pulse	1	t		78.0	2.5	/experiments/aot/R_S_bing-www_msn_com_en-us_video_news_tommy-lasorda-salutes-national-league-champs_vp-AAtLThQ_4.mp4	0.0	366.7137939929962	
80	340.38168716430664	fix_post	2		12	78.0	2.5	/experiments/aot/R_S_bing-www_msn_com_en-us_video_news_tommy-lasorda-salutes-national-league-champs_vp-AAtLThQ_4.mp4	0.0	366.83026003837585	0.10000085830688477
81	340.4816880226135	fix_pre	0		120	79.0	2.5	/experiments/aot/S_wc-jujp1kJRHrkJ_54.mp4	0.0	366.93026089668274	0.9999771118164062
81	341.48166513442993	movie	1		300	79.0	2.5	/experiments/aot/S_wc-jujp1kJRHrkJ_54.mp4	0.0	367.93023800849915	2.499936819076538
81	341.8651659488678	pulse	1	t		79.0	2.5	/experiments/aot/S_wc-jujp1kJRHrkJ_54.mp4	0.0	368.313738822937	
81	343.465115070343	pulse	1	t		79.0	2.5	/experiments/aot/S_wc-jujp1kJRHrkJ_54.mp4	0.0	369.91368794441223	
81	343.98160195350647	fix_post	2		12	79.0	2.5	/experiments/aot/S_wc-jujp1kJRHrkJ_54.mp4	0.0	370.4301748275757	0.10004615783691406
82	344.0816481113434	fix_pre	0		119	80.0	2.5	/experiments/aot/S_yt-GaJaxp546lc_22.mp4	0.0	370.5302209854126	0.9915578365325928
82	345.0651710033417	pulse	0	t		80.0	2.5	/experiments/aot/S_yt-GaJaxp546lc_22.mp4	0.0	371.5137438774109	
82	345.073205947876	movie	1		301	80.0	2.5	/experiments/aot/S_yt-GaJaxp546lc_22.mp4	0.0	371.5217788219452	2.5083510875701904
82	346.6651599407196	pulse	1	t		80.0	2.5	/experiments/aot/S_yt-GaJaxp546lc_22.mp4	0.0	373.1137328147888	
82	347.58155703544617	fix_post	2		12	80.0	2.5	/experiments/aot/S_yt-GaJaxp546lc_22.mp4	0.0	374.0301299095154	0.10005712509155273
83	347.6816141605377	fix_pre	0		120	81.0	2.5	/experiments/aot/S_yt-rB3YVZvA78w_20.mp4	0.0	374.13018703460693	1.000032901763916
83	348.2651460170746	pulse	0	t		81.0	2.5	/experiments/aot/S_yt-rB3YVZvA78w_20.mp4	0.0	374.7137188911438	
83	348.68164706230164	movie	1		300	81.0	2.5	/experiments/aot/S_yt-rB3YVZvA78w_20.mp4	0.0	375.13021993637085	2.499933958053589
83	349.8651659488678	pulse	1	t		81.0	2.5	/experiments/aot/S_yt-rB3YVZvA78w_20.mp4	0.0	376.313738822937	
83	351.1815810203552	fix_post	2		12	81.0	2.5	/experiments/aot/S_yt-rB3YVZvA78w_20.mp4	0.0	377.63015389442444	0.10007596015930176
84	351.2816569805145	fix_pre	0		120	82.0	2.5	/experiments/aot/R_S_production_ID_3712945.mp4	0.0	377.73022985458374	0.9999661445617676
84	351.4650549888611	pulse	0	t		82.0	2.5	/experiments/aot/R_S_production_ID_3712945.mp4	0.0	377.9136278629303	
84	352.2816231250763	movie	1		162	82.0	2.5	/experiments/aot/R_S_production_ID_3712945.mp4	0.0	378.7301959991455	2.5000669956207275
84	353.0650451183319	pulse	1	t		82.0	2.5	/experiments/aot/R_S_production_ID_3712945.mp4	0.0	379.5136179924011	
84	354.66453409194946	pulse	1	t		82.0	2.5	/experiments/aot/R_S_production_ID_3712945.mp4	0.0	381.1131069660187	
84	354.781690120697	fix_post	2		12	82.0	2.5	/experiments/aot/R_S_production_ID_3712945.mp4	0.0	381.23026299476624	0.0999150276184082
85	354.88160514831543	fix_pre	0		120	83.0	2.5	blank	1.0	381.33017802238464	1.0000379085540771
85	355.8816430568695	movie	1		300	83.0	2.5	blank	1.0	382.3302159309387	2.4998550415039062
85	356.26502895355225	pulse	1	t		83.0	2.5	blank	1.0	382.71360182762146	
85	357.86505794525146	pulse	1	t		83.0	2.5	blank	1.0	384.3136308193207	
85	358.3814980983734	fix_post	2		12	83.0	2.5	blank	1.0	384.8300709724426	0.10011005401611328
87	358.4816081523895	stim	0		1716					384.93018102645874	14.300145864486694
87	359.4651081562042	pulse	0	t						385.91368103027344	
87	361.06502413749695	pulse	0	t						387.51359701156616	
87	362.6650130748749	pulse	0	t						389.1135859489441	
87	364.2650079727173	pulse	0	t						390.7135808467865	
87	365.8649580478668	pulse	0	t						392.31353092193604	
87	367.4649090766907	pulse	0	t						393.9134819507599	
87	369.064973115921	pulse	0	t						395.51354598999023	
87	370.6645619869232	pulse	0	t						397.11313486099243	
87	372.26506900787354	pulse	0	t						398.71364188194275	
