trial_nr	onset	event_type	phase	response	nr_frames	movie_index	movie_duration	movie_file	blank	onset_abs	duration
0	0.1348259449005127	stim	0		151.0					61.48304486274719	1.2566461563110352
0	1.3758621215820312	response	0	space						62.72408103942871	
1	1.3914721012115479	stim	0		121.0					62.73969101905823	1.0081489086151123
1	2.39962100982666	stim	1		120.0					63.74783992767334	0.9999759197235107
2	3.399596929550171	fix_pre	0		154.0	0.0	2.5	/experiments/knapen_aot/videos/R_S_yt--a-d97T4Gak_75.mp4	0.0	64.74781584739685	1.2833800315856934
2	4.674649000167847	response	0	space		0.0	2.5	/experiments/knapen_aot/videos/R_S_yt--a-d97T4Gak_75.mp4	0.0	66.02286791801453	
2	4.682976961135864	movie	1		301.0	0.0	2.5	/experiments/knapen_aot/videos/R_S_yt--a-d97T4Gak_75.mp4	0.0	66.03119587898254	2.5082850456237793
2	7.1912620067596436	fix_post	2		12.0	0.0	2.5	/experiments/knapen_aot/videos/R_S_yt--a-d97T4Gak_75.mp4	0.0	68.53948092460632	0.1000070571899414
3	7.291269063949585	fix_pre	0		65.0	1.0	2.5	/experiments/knapen_aot/videos/S_yt-HMAa2QbfFPI_216.mp4	0.0	68.63948798179626	0.5445868968963623
3	7.826375961303711	response	0	2		1.0	2.5	/experiments/knapen_aot/videos/S_yt-HMAa2QbfFPI_216.mp4	0.0	69.17459487915039	
3	7.835855960845947	movie	1		301.0	1.0	2.5	/experiments/knapen_aot/videos/S_yt-HMAa2QbfFPI_216.mp4	0.0	69.18407487869263	2.5054471492767334
3	10.34130311012268	fix_post	2		12.0	1.0	2.5	/experiments/knapen_aot/videos/S_yt-HMAa2QbfFPI_216.mp4	0.0	71.68952202796936	0.09995794296264648
4	10.441261053085327	fix_pre	0		20.0	2.0	2.5	/experiments/knapen_aot/videos/S_production_ID_4510622.mp4	0.0	71.789479970932	0.16672396659851074
4	10.59964394569397	response	0	2		2.0	2.5	/experiments/knapen_aot/videos/S_production_ID_4510622.mp4	0.0	71.94786286354065	
4	10.607985019683838	movie	1		168.0	2.0	2.5	/experiments/knapen_aot/videos/S_production_ID_4510622.mp4	0.0	71.95620393753052	2.5082459449768066
4	13.116230964660645	fix_post	2		12.0	2.0	2.5	/experiments/knapen_aot/videos/S_production_ID_4510622.mp4	0.0	74.46444988250732	0.099945068359375
5	13.21617603302002	fix_pre	0		21.0	3.0	2.5	/experiments/knapen_aot/videos/R_S_yt-he_RSdeVinA_68.mp4	0.0	74.5643949508667	0.17502093315124512
5	13.38300609588623	response	0	2		3.0	2.5	/experiments/knapen_aot/videos/R_S_yt-he_RSdeVinA_68.mp4	0.0	74.73122501373291	
5	13.391196966171265	movie	1		301.0	3.0	2.5	/experiments/knapen_aot/videos/R_S_yt-he_RSdeVinA_68.mp4	0.0	74.73941588401794	2.5083491802215576
5	15.899546146392822	fix_post	2		12.0	3.0	2.5	/experiments/knapen_aot/videos/R_S_yt-he_RSdeVinA_68.mp4	0.0	77.2477650642395	0.09994387626647949
6	15.999490022659302	fix_pre	0		10.0	4.0	2.5	/experiments/knapen_aot/videos/S_ILSVRC2015_train_00479004.mp4	0.0	77.34770894050598	0.08343005180358887
6	16.07464599609375	response	0	2		4.0	2.5	/experiments/knapen_aot/videos/S_ILSVRC2015_train_00479004.mp4	0.0	77.42286491394043	
6	16.08292007446289	movie	1		301.0	4.0	2.5	/experiments/knapen_aot/videos/S_ILSVRC2015_train_00479004.mp4	0.0	77.43113899230957	2.5082759857177734
6	18.591196060180664	fix_post	2		12.0	4.0	2.5	/experiments/knapen_aot/videos/S_ILSVRC2015_train_00479004.mp4	0.0	79.93941497802734	0.10015106201171875
7	18.691347122192383	fix_pre	0		19.0	5.0	2.5	/experiments/knapen_aot/videos/R_S_yt-CNq5mTA8oXY_176.mp4	0.0	80.03956604003906	0.15815401077270508
7	18.841318130493164	response	0	2		5.0	2.5	/experiments/knapen_aot/videos/R_S_yt-CNq5mTA8oXY_176.mp4	0.0	80.18953704833984	
7	18.849501132965088	movie	1		301.0	5.0	2.5	/experiments/knapen_aot/videos/R_S_yt-CNq5mTA8oXY_176.mp4	0.0	80.19772005081177	2.5083529949188232
7	21.35785412788391	fix_post	2		12.0	5.0	2.5	/experiments/knapen_aot/videos/R_S_yt-CNq5mTA8oXY_176.mp4	0.0	82.70607304573059	0.09993100166320801
8	21.45778512954712	fix_pre	0		23.0	6.0	2.5	/experiments/knapen_aot/videos/R_S_yt-2V2tq9-O_Nc_1669.mp4	0.0	82.8060040473938	0.19172382354736328
8	21.64131212234497	response	0	2		6.0	2.5	/experiments/knapen_aot/videos/R_S_yt-2V2tq9-O_Nc_1669.mp4	0.0	82.98953104019165	
8	21.649508953094482	movie	1		301.0	6.0	2.5	/experiments/knapen_aot/videos/R_S_yt-2V2tq9-O_Nc_1669.mp4	0.0	82.99772787094116	2.5085060596466064
8	24.15801501274109	fix_post	2		12.0	6.0	2.5	/experiments/knapen_aot/videos/R_S_yt-2V2tq9-O_Nc_1669.mp4	0.0	85.50623393058777	0.0998830795288086
9	24.257898092269897	fix_pre	0		13.0	7.0	2.5	blank	1.0	85.60611701011658	0.10824084281921387
9	24.357913970947266	response	0	2		7.0	2.5	blank	1.0	85.70613288879395	
9	24.36613893508911	movie	1		301.0	7.0	2.5	blank	1.0	85.71435785293579	2.508594036102295
9	26.874732971191406	fix_post	2		12.0	7.0	2.5	blank	1.0	88.22295188903809	0.10001611709594727
10	26.974749088287354	fix_pre	0		29.0	8.0	2.5	/experiments/knapen_aot/videos/R_S_ILSVRC2015_train_00563000.mp4	0.0	88.32296800613403	0.2413489818572998
10	27.208006143569946	response	0	2		8.0	2.5	/experiments/knapen_aot/videos/R_S_ILSVRC2015_train_00563000.mp4	0.0	88.55622506141663	
10	27.216098070144653	movie	1		301.0	8.0	2.5	/experiments/knapen_aot/videos/R_S_ILSVRC2015_train_00563000.mp4	0.0	88.56431698799133	2.5083870887756348
10	29.724485158920288	fix_post	2		12.0	8.0	2.5	/experiments/knapen_aot/videos/R_S_ILSVRC2015_train_00563000.mp4	0.0	91.07270407676697	0.09999990463256836
11	29.824485063552856	fix_pre	0		13.0	9.0	2.5	/experiments/knapen_aot/videos/S_yt-83nimFMNhrM_131.mp4	0.0	91.17270398139954	0.10832691192626953
11	29.924556970596313	response	0	2		9.0	2.5	/experiments/knapen_aot/videos/S_yt-83nimFMNhrM_131.mp4	0.0	91.272775888443	
11	29.932811975479126	movie	1		301.0	9.0	2.5	/experiments/knapen_aot/videos/S_yt-83nimFMNhrM_131.mp4	0.0	91.2810308933258	2.508402109146118
11	32.441214084625244	fix_post	2		12.0	9.0	2.5	/experiments/knapen_aot/videos/S_yt-83nimFMNhrM_131.mp4	0.0	93.78943300247192	0.09994387626647949
12	32.541157960891724	fix_pre	0		16.0	10.0	2.5	/experiments/knapen_aot/videos/R_S_yt-_BvMLZo0MG0_1226.mp4	0.0	93.8893768787384	0.1332700252532959
12	32.66626214981079	response	0	2		10.0	2.5	/experiments/knapen_aot/videos/R_S_yt-_BvMLZo0MG0_1226.mp4	0.0	94.01448106765747	
12	32.67442798614502	movie	1		301.0	10.0	2.5	/experiments/knapen_aot/videos/R_S_yt-_BvMLZo0MG0_1226.mp4	0.0	94.0226469039917	2.508371114730835
12	35.182799100875854	fix_post	2		12.0	10.0	2.5	/experiments/knapen_aot/videos/R_S_yt-_BvMLZo0MG0_1226.mp4	0.0	96.53101801872253	0.1000058650970459
13	35.2828049659729	fix_pre	0		2.0	11.0	2.5	/experiments/knapen_aot/videos/R_S_yt-e_eOzV7qMZo_374.mp4	0.0	96.63102388381958	0.016646146774291992
13	35.28519296646118	response	0	2		11.0	2.5	/experiments/knapen_aot/videos/R_S_yt-e_eOzV7qMZo_374.mp4	0.0	96.63341188430786	
13	35.29945111274719	movie	1		301.0	11.0	2.5	/experiments/knapen_aot/videos/R_S_yt-e_eOzV7qMZo_374.mp4	0.0	96.64767003059387	2.508417844772339
13	37.80786895751953	fix_post	2		12.0	11.0	2.5	/experiments/knapen_aot/videos/R_S_yt-e_eOzV7qMZo_374.mp4	0.0	99.15608787536621	0.0999441146850586
14	37.90781307220459	fix_pre	0		11.0	12.0	2.5	/experiments/knapen_aot/videos/S_yt-KQq7vTlXUiQ_173.mp4	0.0	99.25603199005127	0.09160804748535156
14	37.991191148757935	response	0	2		12.0	2.5	/experiments/knapen_aot/videos/S_yt-KQq7vTlXUiQ_173.mp4	0.0	99.33941006660461	
14	37.99942111968994	movie	1		301.0	12.0	2.5	/experiments/knapen_aot/videos/S_yt-KQq7vTlXUiQ_173.mp4	0.0	99.34764003753662	2.508396863937378
14	40.50781798362732	fix_post	2		12.0	12.0	2.5	/experiments/knapen_aot/videos/S_yt-KQq7vTlXUiQ_173.mp4	0.0	101.856036901474	0.09996795654296875
15	40.60778594017029	fix_pre	0		10.0	13.0	2.5	blank	1.0	101.95600485801697	0.08333015441894531
15	40.682929039001465	response	0	2		13.0	2.5	blank	1.0	102.03114795684814	
15	40.69111609458923	movie	1		301.0	13.0	2.5	blank	1.0	102.03933501243591	2.5083489418029785
15	43.19946503639221	fix_post	2		12.0	13.0	2.5	blank	1.0	104.54768395423889	0.1000669002532959
16	43.29953193664551	fix_pre	0		24.0	14.0	2.5	/experiments/knapen_aot/videos/R_S_yt-3ohvpS42xug_184.mp4	0.0	104.64775085449219	0.19984102249145508
16	43.49118995666504	response	0	2		14.0	2.5	/experiments/knapen_aot/videos/R_S_yt-3ohvpS42xug_184.mp4	0.0	104.83940887451172	
16	43.49937295913696	movie	1		301.0	14.0	2.5	/experiments/knapen_aot/videos/R_S_yt-3ohvpS42xug_184.mp4	0.0	104.84759187698364	2.5083141326904297
16	46.00768709182739	fix_post	2		12.0	14.0	2.5	/experiments/knapen_aot/videos/R_S_yt-3ohvpS42xug_184.mp4	0.0	107.35590600967407	0.10013103485107422
17	46.10781812667847	fix_pre	0		20.0	15.0	2.5	/experiments/knapen_aot/videos/S_yt-_BvMLZo0MG0_1226.mp4	0.0	107.45603704452515	0.16655993461608887
17	46.266247034072876	response	0	2		15.0	2.5	/experiments/knapen_aot/videos/S_yt-_BvMLZo0MG0_1226.mp4	0.0	107.61446595191956	
17	46.274378061294556	movie	1		301.0	15.0	2.5	/experiments/knapen_aot/videos/S_yt-_BvMLZo0MG0_1226.mp4	0.0	107.62259697914124	2.5087928771972656
17	48.78317093849182	fix_post	2		12.0	15.0	2.5	/experiments/knapen_aot/videos/S_yt-_BvMLZo0MG0_1226.mp4	0.0	110.1313898563385	0.09957504272460938
18	48.88274598121643	fix_pre	0		11.0	16.0	2.5	/experiments/knapen_aot/videos/R_S_yt-146gReE6xKw_379.mp4	0.0	110.23096489906311	0.09158110618591309
18	48.96615195274353	response	0	2		16.0	2.5	/experiments/knapen_aot/videos/R_S_yt-146gReE6xKw_379.mp4	0.0	110.31437087059021	
18	48.974327087402344	movie	1		301.0	16.0	2.5	/experiments/knapen_aot/videos/R_S_yt-146gReE6xKw_379.mp4	0.0	110.32254600524902	2.5088179111480713
18	51.483144998550415	fix_post	2		12.0	16.0	2.5	/experiments/knapen_aot/videos/R_S_yt-146gReE6xKw_379.mp4	0.0	112.8313639163971	0.09975409507751465
19	51.58289909362793	fix_pre	0		12.0	17.0	2.5	/experiments/knapen_aot/videos/R_S_yt-kXarkCFJLeg_46.mp4	0.0	112.93111801147461	0.09994983673095703
19	51.67457294464111	response	0	2		17.0	2.5	/experiments/knapen_aot/videos/R_S_yt-kXarkCFJLeg_46.mp4	0.0	113.0227918624878	
19	51.68284893035889	movie	1		301.0	17.0	2.5	/experiments/knapen_aot/videos/R_S_yt-kXarkCFJLeg_46.mp4	0.0	113.03106784820557	2.5086002349853516
19	54.19144916534424	fix_post	2		12.0	17.0	2.5	/experiments/knapen_aot/videos/R_S_yt-kXarkCFJLeg_46.mp4	0.0	115.53966808319092	0.09986090660095215
19	54.274516105651855	response	2	2		17.0	2.5	/experiments/knapen_aot/videos/R_S_yt-kXarkCFJLeg_46.mp4	0.0	115.62273502349854	
20	54.29131007194519	fix_pre	0		56.0	18.0	2.5	/experiments/knapen_aot/videos/R_S_bing-www_yahoo_com_entertainment_anastasia-karanikolaou-chantel-jeffries-discuss-182400502_html_9.mp4	0.0	115.63952898979187	0.467663049697876
20	54.74954915046692	response	0	2		18.0	2.5	/experiments/knapen_aot/videos/R_S_bing-www_yahoo_com_entertainment_anastasia-karanikolaou-chantel-jeffries-discuss-182400502_html_9.mp4	0.0	116.0977680683136	
20	54.758973121643066	movie	1		163.0	18.0	2.5	/experiments/knapen_aot/videos/R_S_bing-www_yahoo_com_entertainment_anastasia-karanikolaou-chantel-jeffries-discuss-182400502_html_9.mp4	0.0	116.10719203948975	2.5072999000549316
20	57.266273021698	fix_post	2		12.0	18.0	2.5	/experiments/knapen_aot/videos/R_S_bing-www_yahoo_com_entertainment_anastasia-karanikolaou-chantel-jeffries-discuss-182400502_html_9.mp4	0.0	118.61449193954468	0.09984397888183594
21	57.366117000579834	fix_pre	0		22.0	19.0	2.5	blank	1.0	118.71433591842651	0.18326210975646973
21	57.54114007949829	response	0	2		19.0	2.5	blank	1.0	118.88935899734497	
21	57.549379110336304	movie	1		301.0	19.0	2.5	blank	1.0	118.89759802818298	2.5083489418029785
21	60.05772805213928	fix_post	2		12.0	19.0	2.5	blank	1.0	121.40594696998596	0.0999610424041748
22	60.15768909454346	fix_pre	0		33.0	20.0	2.5	/experiments/knapen_aot/videos/R_S_yt-B7ZRYVhfW2U_52.mp4	0.0	121.50590801239014	0.27497386932373047
22	60.42452001571655	response	0	2		20.0	2.5	/experiments/knapen_aot/videos/R_S_yt-B7ZRYVhfW2U_52.mp4	0.0	121.77273893356323	
22	60.43266296386719	movie	1		301.0	20.0	2.5	/experiments/knapen_aot/videos/R_S_yt-B7ZRYVhfW2U_52.mp4	0.0	121.78088188171387	2.5083961486816406
22	62.94105911254883	fix_post	2		12.0	20.0	2.5	/experiments/knapen_aot/videos/R_S_yt-B7ZRYVhfW2U_52.mp4	0.0	124.28927803039551	0.09998703002929688
23	63.041046142578125	fix_pre	0		6.0	21.0	2.5	/experiments/knapen_aot/videos/R_S_yt-kINZMjys3O4_112.mp4	0.0	124.3892650604248	0.05118989944458008
23	63.08278012275696	response	0	2		21.0	2.5	/experiments/knapen_aot/videos/R_S_yt-kINZMjys3O4_112.mp4	0.0	124.43099904060364	
23	63.092236042022705	movie	1		301.0	21.0	2.5	/experiments/knapen_aot/videos/R_S_yt-kINZMjys3O4_112.mp4	0.0	124.44045495986938	2.5071210861206055
23	65.59935712814331	fix_post	2		12.0	21.0	2.5	/experiments/knapen_aot/videos/R_S_yt-kINZMjys3O4_112.mp4	0.0	126.94757604598999	0.10002899169921875
24	65.69938611984253	fix_pre	0		16.0	22.0	2.5	/experiments/knapen_aot/videos/S_comp_LA_A005_C009_PSNK_ALT_v09_SDR_PS_201809134_SDR_2K_AVC.mp4	0.0	127.04760503768921	0.1358199119567871
24	65.82448697090149	response	0	2		22.0	2.5	/experiments/knapen_aot/videos/S_comp_LA_A005_C009_PSNK_ALT_v09_SDR_PS_201809134_SDR_2K_AVC.mp4	0.0	127.17270588874817	
24	65.83520603179932	movie	1		169.0	22.0	2.5	/experiments/knapen_aot/videos/S_comp_LA_A005_C009_PSNK_ALT_v09_SDR_PS_201809134_SDR_2K_AVC.mp4	0.0	127.183424949646	2.505831003189087
24	68.3410370349884	fix_post	2		12.0	22.0	2.5	/experiments/knapen_aot/videos/S_comp_LA_A005_C009_PSNK_ALT_v09_SDR_PS_201809134_SDR_2K_AVC.mp4	0.0	129.68925595283508	0.10002708435058594
25	68.44106411933899	fix_pre	0		6.0	23.0	2.5	/experiments/knapen_aot/videos/R_S_pexels-marcus-aurelius-6785014.mp4	0.0	129.78928303718567	0.049919843673706055
25	68.48285102844238	response	0	2		23.0	2.5	/experiments/knapen_aot/videos/R_S_pexels-marcus-aurelius-6785014.mp4	0.0	129.83106994628906	
25	68.4909839630127	movie	1		168.0	23.0	2.5	/experiments/knapen_aot/videos/R_S_pexels-marcus-aurelius-6785014.mp4	0.0	129.83920288085938	2.508450984954834
25	70.99943494796753	fix_post	2		12.0	23.0	2.5	/experiments/knapen_aot/videos/R_S_pexels-marcus-aurelius-6785014.mp4	0.0	132.3476538658142	0.09991621971130371
25	71.09123206138611	response	2	2		23.0	2.5	/experiments/knapen_aot/videos/R_S_pexels-marcus-aurelius-6785014.mp4	0.0	132.4394509792328	
26	71.09935116767883	fix_pre	0		59.0	24.0	2.5	/experiments/knapen_aot/videos/S_yt-o_CT2MjZ9fA_216.mp4	0.0	132.4475700855255	0.4927489757537842
26	71.58278203010559	response	0	2		24.0	2.5	/experiments/knapen_aot/videos/S_yt-o_CT2MjZ9fA_216.mp4	0.0	132.93100094795227	
26	71.59210014343262	movie	1		301.0	24.0	2.5	/experiments/knapen_aot/videos/S_yt-o_CT2MjZ9fA_216.mp4	0.0	132.9403190612793	2.5072519779205322
26	74.09935212135315	fix_post	2		12.0	24.0	2.5	/experiments/knapen_aot/videos/S_yt-o_CT2MjZ9fA_216.mp4	0.0	135.44757103919983	0.09999799728393555
27	74.19935011863708	fix_pre	0		11.0	25.0	2.5	/experiments/knapen_aot/videos/R_S_G009_C003_UHD_SDR_2K_AVC.mp4	0.0	135.54756903648376	0.09176301956176758
27	74.28283214569092	response	0	2		25.0	2.5	/experiments/knapen_aot/videos/R_S_G009_C003_UHD_SDR_2K_AVC.mp4	0.0	135.6310510635376	
27	74.29111313819885	movie	1		167.0	25.0	2.5	/experiments/knapen_aot/videos/R_S_G009_C003_UHD_SDR_2K_AVC.mp4	0.0	135.63933205604553	2.508204936981201
27	76.79931807518005	fix_post	2		12.0	25.0	2.5	/experiments/knapen_aot/videos/R_S_G009_C003_UHD_SDR_2K_AVC.mp4	0.0	138.14753699302673	0.10000491142272949
28	76.89932298660278	fix_pre	0		19.0	26.0	2.5	/experiments/knapen_aot/videos/S_yt-AiXq1oDrEXI_123.mp4	0.0	138.24754190444946	0.15830612182617188
28	77.04939603805542	response	0	2		26.0	2.5	/experiments/knapen_aot/videos/S_yt-AiXq1oDrEXI_123.mp4	0.0	138.3976149559021	
28	77.05762910842896	movie	1		301.0	26.0	2.5	/experiments/knapen_aot/videos/S_yt-AiXq1oDrEXI_123.mp4	0.0	138.40584802627563	2.5083189010620117
28	79.56594800949097	fix_post	2		12.0	26.0	2.5	/experiments/knapen_aot/videos/S_yt-AiXq1oDrEXI_123.mp4	0.0	140.91416692733765	0.09999799728393555
29	79.6659460067749	fix_pre	0		12.0	27.0	2.5	/experiments/knapen_aot/videos/R_S_wc-1MzpHfRq1MUK_32.mp4	0.0	141.01416492462158	0.09998703002929688
29	79.75772404670715	response	0	2		27.0	2.5	/experiments/knapen_aot/videos/R_S_wc-1MzpHfRq1MUK_32.mp4	0.0	141.10594296455383	
29	79.7659330368042	movie	1		301.0	27.0	2.5	/experiments/knapen_aot/videos/R_S_wc-1MzpHfRq1MUK_32.mp4	0.0	141.11415195465088	2.508392095565796
29	82.27432513237	fix_post	2		12.0	27.0	2.5	/experiments/knapen_aot/videos/R_S_wc-1MzpHfRq1MUK_32.mp4	0.0	143.62254405021667	0.09998297691345215
30	82.37430810928345	fix_pre	0		16.0	28.0	2.5	blank	1.0	143.72252702713013	0.1333179473876953
30	82.49946904182434	response	0	2		28.0	2.5	blank	1.0	143.84768795967102	
30	82.50762605667114	movie	1		301.0	28.0	2.5	blank	1.0	143.85584497451782	2.5084428787231445
30	85.01606893539429	fix_post	2		12.0	28.0	2.5	blank	1.0	146.36428785324097	0.09990715980529785
31	85.11597609519958	fix_pre	0		7.0	29.0	2.5	/experiments/knapen_aot/videos/S_yt-22c5eZ1UNME_76.mp4	0.0	146.46419501304626	0.05937385559082031
31	85.16602993011475	response	0	2		29.0	2.5	/experiments/knapen_aot/videos/S_yt-22c5eZ1UNME_76.mp4	0.0	146.51424884796143	
31	85.1753499507904	movie	1		301.0	29.0	2.5	/experiments/knapen_aot/videos/S_yt-22c5eZ1UNME_76.mp4	0.0	146.52356886863708	2.507296085357666
31	87.68264603614807	fix_post	2		12.0	29.0	2.5	/experiments/knapen_aot/videos/S_yt-22c5eZ1UNME_76.mp4	0.0	149.03086495399475	0.09996700286865234
32	87.78261303901672	fix_pre	0		14.0	30.0	2.5	/experiments/knapen_aot/videos/S_ILSVRC2015_train_00563000.mp4	0.0	149.1308319568634	0.11667799949645996
32	87.89113306999207	response	0	2		30.0	2.5	/experiments/knapen_aot/videos/S_ILSVRC2015_train_00563000.mp4	0.0	149.23935198783875	
32	87.89929103851318	movie	1		301.0	30.0	2.5	/experiments/knapen_aot/videos/S_ILSVRC2015_train_00563000.mp4	0.0	149.24750995635986	2.50823712348938
32	90.40752816200256	fix_post	2		12.0	30.0	2.5	/experiments/knapen_aot/videos/S_ILSVRC2015_train_00563000.mp4	0.0	151.75574707984924	0.10006093978881836
33	90.50758910179138	fix_pre	0		10.0	31.0	2.5	/experiments/knapen_aot/videos/R_S_yt-o_CT2MjZ9fA_216.mp4	0.0	151.85580801963806	0.08434200286865234
33	90.58270406723022	response	0	2		31.0	2.5	/experiments/knapen_aot/videos/R_S_yt-o_CT2MjZ9fA_216.mp4	0.0	151.9309229850769	
33	90.59193110466003	movie	1		301.0	31.0	2.5	/experiments/knapen_aot/videos/R_S_yt-o_CT2MjZ9fA_216.mp4	0.0	151.9401500225067	2.5073070526123047
33	93.09923815727234	fix_post	2		12.0	31.0	2.5	/experiments/knapen_aot/videos/R_S_yt-o_CT2MjZ9fA_216.mp4	0.0	154.44745707511902	0.10004186630249023
34	93.19928002357483	fix_pre	0		1.0	32.0	2.5	/experiments/knapen_aot/videos/R_S_yt-I9uf7kAccFA_229.mp4	0.0	154.5474989414215	0.010757923126220703
34	93.20088815689087	response	0	2		32.0	2.5	/experiments/knapen_aot/videos/R_S_yt-I9uf7kAccFA_229.mp4	0.0	154.54910707473755	
34	93.21003794670105	movie	1		301.0	32.0	2.5	/experiments/knapen_aot/videos/R_S_yt-I9uf7kAccFA_229.mp4	0.0	154.55825686454773	2.5058770179748535
34	95.7159149646759	fix_post	2		12.0	32.0	2.5	/experiments/knapen_aot/videos/R_S_yt-I9uf7kAccFA_229.mp4	0.0	157.06413388252258	0.10002517700195312
35	95.81594014167786	fix_pre	0		8.0	33.0	2.5	/experiments/knapen_aot/videos/S_yt-9Ow95khYa_M_91.mp4	0.0	157.16415905952454	0.0676119327545166
35	95.87435412406921	response	0	2		33.0	2.5	/experiments/knapen_aot/videos/S_yt-9Ow95khYa_M_91.mp4	0.0	157.2225730419159	
35	95.88355207443237	movie	1		301.0	33.0	2.5	/experiments/knapen_aot/videos/S_yt-9Ow95khYa_M_91.mp4	0.0	157.23177099227905	2.5073728561401367
35	98.39092493057251	fix_post	2		12.0	33.0	2.5	/experiments/knapen_aot/videos/S_yt-9Ow95khYa_M_91.mp4	0.0	159.7391438484192	0.0999901294708252
36	98.49091506004333	fix_pre	0		8.0	34.0	2.5	blank	1.0	159.83913397789001	0.06662988662719727
36	98.54939198493958	response	0	2		34.0	2.5	blank	1.0	159.89761090278625	
36	98.55754494667053	movie	1		301.0	34.0	2.5	blank	1.0	159.9057638645172	2.5083861351013184
36	101.06593108177185	fix_post	2		12.0	34.0	2.5	blank	1.0	162.41414999961853	0.0999610424041748
37	101.16589212417603	fix_pre	0		35.0	35.0	2.5	/experiments/knapen_aot/videos/R_S_comp_GMT060_117NC_363D_1034_AUSTRALIA_v35_SDR_PS_FINAL_20180731_SDR_2K_AVC.mp4	0.0	162.5141110420227	0.2917478084564209
37	101.44929504394531	response	0	2		35.0	2.5	/experiments/knapen_aot/videos/R_S_comp_GMT060_117NC_363D_1034_AUSTRALIA_v35_SDR_PS_FINAL_20180731_SDR_2K_AVC.mp4	0.0	162.797513961792	
37	101.45763993263245	movie	1		165.0	35.0	2.5	/experiments/knapen_aot/videos/R_S_comp_GMT060_117NC_363D_1034_AUSTRALIA_v35_SDR_PS_FINAL_20180731_SDR_2K_AVC.mp4	0.0	162.80585885047913	2.5085551738739014
37	103.96619510650635	fix_post	2		12.0	35.0	2.5	/experiments/knapen_aot/videos/R_S_comp_GMT060_117NC_363D_1034_AUSTRALIA_v35_SDR_PS_FINAL_20180731_SDR_2K_AVC.mp4	0.0	165.31441402435303	0.09995388984680176
38	104.06614899635315	fix_pre	0		10.0	36.0	2.5	/experiments/knapen_aot/videos/S_yt-9Ow95khYa_M_91.mp4	0.0	165.41436791419983	0.08300614356994629
38	104.14105010032654	response	0	2		36.0	2.5	/experiments/knapen_aot/videos/S_yt-9Ow95khYa_M_91.mp4	0.0	165.48926901817322	
38	104.1491551399231	movie	1		301.0	36.0	2.5	/experiments/knapen_aot/videos/S_yt-9Ow95khYa_M_91.mp4	0.0	165.49737405776978	2.50832200050354
38	106.65747714042664	fix_post	2		12.0	36.0	2.5	/experiments/knapen_aot/videos/S_yt-9Ow95khYa_M_91.mp4	0.0	168.00569605827332	0.10007596015930176
39	106.75755310058594	fix_pre	0		24.0	37.0	2.5	/experiments/knapen_aot/videos/S_yt-kINZMjys3O4_112.mp4	0.0	168.10577201843262	0.1999509334564209
39	106.9492449760437	response	0	2		37.0	2.5	/experiments/knapen_aot/videos/S_yt-kINZMjys3O4_112.mp4	0.0	168.29746389389038	
39	106.95750403404236	movie	1		301.0	37.0	2.5	/experiments/knapen_aot/videos/S_yt-kINZMjys3O4_112.mp4	0.0	168.30572295188904	2.508323907852173
39	109.46582794189453	fix_post	2		12.0	37.0	2.5	/experiments/knapen_aot/videos/S_yt-kINZMjys3O4_112.mp4	0.0	170.8140468597412	0.09998822212219238
40	109.56581616401672	fix_pre	0		22.0	38.0	2.5	/experiments/knapen_aot/videos/R_S_ILSVRC2015_train_00689000.mp4	0.0	170.9140350818634	0.18335199356079102
40	109.74095797538757	response	0	2		38.0	2.5	/experiments/knapen_aot/videos/R_S_ILSVRC2015_train_00689000.mp4	0.0	171.08917689323425	
40	109.74916815757751	movie	1		301.0	38.0	2.5	/experiments/knapen_aot/videos/R_S_ILSVRC2015_train_00689000.mp4	0.0	171.0973870754242	2.5083768367767334
40	112.25754499435425	fix_post	2		12.0	38.0	2.5	/experiments/knapen_aot/videos/R_S_ILSVRC2015_train_00689000.mp4	0.0	173.60576391220093	0.1000070571899414
41	112.35755205154419	fix_pre	0		11.0	39.0	2.5	/experiments/knapen_aot/videos/S_pexels-kelly-lacy-6756531.mp4	0.0	173.70577096939087	0.09159493446350098
41	112.44097900390625	response	0	2		39.0	2.5	/experiments/knapen_aot/videos/S_pexels-kelly-lacy-6756531.mp4	0.0	173.78919792175293	
41	112.44914698600769	movie	1		166.0	39.0	2.5	/experiments/knapen_aot/videos/S_pexels-kelly-lacy-6756531.mp4	0.0	173.79736590385437	2.5084340572357178
41	114.95758104324341	fix_post	2		12.0	39.0	2.5	/experiments/knapen_aot/videos/S_pexels-kelly-lacy-6756531.mp4	0.0	176.3057999610901	0.09996199607849121
42	115.0575430393219	fix_pre	0		15.0	40.0	2.5	blank	1.0	176.40576195716858	0.12507200241088867
42	115.17425012588501	response	0	2		40.0	2.5	blank	1.0	176.5224690437317	
42	115.18261504173279	movie	1		301.0	40.0	2.5	blank	1.0	176.53083395957947	2.50823712348938
42	117.69085216522217	fix_post	2		12.0	40.0	2.5	blank	1.0	179.03907108306885	0.10001993179321289
43	117.79087209701538	fix_pre	0		30.0	41.0	2.5	/experiments/knapen_aot/videos/R_S_comp_A009_C001_010181A_v09_SDR_PS_FINAL_20180725_SDR_2K_AVC.mp4	0.0	179.13909101486206	0.25003695487976074
43	118.03258800506592	response	0	2		41.0	2.5	/experiments/knapen_aot/videos/R_S_comp_A009_C001_010181A_v09_SDR_PS_FINAL_20180725_SDR_2K_AVC.mp4	0.0	179.3808069229126	
43	118.04090905189514	movie	1		165.0	41.0	2.5	/experiments/knapen_aot/videos/R_S_comp_A009_C001_010181A_v09_SDR_PS_FINAL_20180725_SDR_2K_AVC.mp4	0.0	179.38912796974182	2.508267879486084
43	120.54917693138123	fix_post	2		12.0	41.0	2.5	/experiments/knapen_aot/videos/R_S_comp_A009_C001_010181A_v09_SDR_PS_FINAL_20180725_SDR_2K_AVC.mp4	0.0	181.8973958492279	0.09997701644897461
44	120.6491539478302	fix_pre	0		7.0	42.0	2.5	/experiments/knapen_aot/videos/S_yt-7W50lcw5FCo_37.mp4	0.0	181.99737286567688	0.058279991149902344
44	120.69182705879211	response	0	2		42.0	2.5	/experiments/knapen_aot/videos/S_yt-7W50lcw5FCo_37.mp4	0.0	182.0400459766388	
44	120.7074339389801	movie	1		301.0	42.0	2.5	/experiments/knapen_aot/videos/S_yt-7W50lcw5FCo_37.mp4	0.0	182.05565285682678	2.508395195007324
44	123.21582913398743	fix_post	2		12.0	42.0	2.5	/experiments/knapen_aot/videos/S_yt-7W50lcw5FCo_37.mp4	0.0	184.5640480518341	0.10002899169921875
45	123.31585812568665	fix_pre	0		13.0	43.0	2.5	/experiments/knapen_aot/videos/R_S_yt-7Fyu2vr7zbA_31.mp4	0.0	184.66407704353333	0.10910296440124512
45	123.41594815254211	response	0	2		43.0	2.5	/experiments/knapen_aot/videos/R_S_yt-7Fyu2vr7zbA_31.mp4	0.0	184.7641670703888	
45	123.42496109008789	movie	1		301.0	43.0	2.5	/experiments/knapen_aot/videos/R_S_yt-7Fyu2vr7zbA_31.mp4	0.0	184.77318000793457	2.5075180530548096
45	125.9324791431427	fix_post	2		12.0	43.0	2.5	/experiments/knapen_aot/videos/R_S_yt-7Fyu2vr7zbA_31.mp4	0.0	187.28069806098938	0.09995079040527344
46	126.03242993354797	fix_pre	0		7.0	44.0	2.5	/experiments/knapen_aot/videos/R_S_yt-qBPDvSQD0XY_5.mp4	0.0	187.38064885139465	0.05910921096801758
46	126.08252716064453	response	0	2		44.0	2.5	/experiments/knapen_aot/videos/R_S_yt-qBPDvSQD0XY_5.mp4	0.0	187.4307460784912	
46	126.09153914451599	movie	1		301.0	44.0	2.5	/experiments/knapen_aot/videos/R_S_yt-qBPDvSQD0XY_5.mp4	0.0	187.43975806236267	2.507661819458008
46	128.599200963974	fix_post	2		12.0	44.0	2.5	/experiments/knapen_aot/videos/R_S_yt-qBPDvSQD0XY_5.mp4	0.0	189.94741988182068	0.09990215301513672
47	128.69910311698914	fix_pre	0		4.0	45.0	2.5	/experiments/knapen_aot/videos/R_S_yt-xQilXyNKsBw_42.mp4	0.0	190.04732203483582	0.033258914947509766
47	128.72438502311707	response	0	2		45.0	2.5	/experiments/knapen_aot/videos/R_S_yt-xQilXyNKsBw_42.mp4	0.0	190.07260394096375	
47	128.73236203193665	movie	1		301.0	45.0	2.5	/experiments/knapen_aot/videos/R_S_yt-xQilXyNKsBw_42.mp4	0.0	190.08058094978333	2.508392095565796
47	131.24075412750244	fix_post	2		12.0	45.0	2.5	/experiments/knapen_aot/videos/R_S_yt-xQilXyNKsBw_42.mp4	0.0	192.58897304534912	0.09998393058776855
48	131.3407380580902	fix_pre	0		11.0	46.0	2.5	/experiments/knapen_aot/videos/S_yt-lkpfs_4qAGE_50.mp4	0.0	192.6889569759369	0.09162497520446777
48	131.41666102409363	response	0	2		46.0	2.5	/experiments/knapen_aot/videos/S_yt-lkpfs_4qAGE_50.mp4	0.0	192.7648799419403	
48	131.43236303329468	movie	1		301.0	46.0	2.5	/experiments/knapen_aot/videos/S_yt-lkpfs_4qAGE_50.mp4	0.0	192.78058195114136	2.5085830688476562
48	133.94094610214233	fix_post	2		12.0	46.0	2.5	/experiments/knapen_aot/videos/S_yt-lkpfs_4qAGE_50.mp4	0.0	195.289165019989	0.09977984428405762
49	134.0407259464264	fix_pre	0		26.0	47.0	2.5	/experiments/knapen_aot/videos/R_S_yt-KQq7vTlXUiQ_173.mp4	0.0	195.38894486427307	0.21743416786193848
49	134.24914407730103	response	0	2		47.0	2.5	/experiments/knapen_aot/videos/R_S_yt-KQq7vTlXUiQ_173.mp4	0.0	195.5973629951477	
49	134.25816011428833	movie	1		301.0	47.0	2.5	/experiments/knapen_aot/videos/R_S_yt-KQq7vTlXUiQ_173.mp4	0.0	195.606379032135	2.5079779624938965
49	136.76613807678223	fix_post	2		12.0	47.0	2.5	/experiments/knapen_aot/videos/R_S_yt-KQq7vTlXUiQ_173.mp4	0.0	198.1143569946289	0.09965300559997559
50	136.8657910823822	fix_pre	0		20.0	48.0	2.5	/experiments/knapen_aot/videos/R_S_ILSVRC2015_train_00479004.mp4	0.0	198.21401000022888	0.16652393341064453
50	137.02419114112854	response	0	2		48.0	2.5	/experiments/knapen_aot/videos/R_S_ILSVRC2015_train_00479004.mp4	0.0	198.37241005897522	
50	137.03231501579285	movie	1		301.0	48.0	2.5	/experiments/knapen_aot/videos/R_S_ILSVRC2015_train_00479004.mp4	0.0	198.38053393363953	2.5083730220794678
50	139.54068803787231	fix_post	2		12.0	48.0	2.5	/experiments/knapen_aot/videos/R_S_ILSVRC2015_train_00479004.mp4	0.0	200.888906955719	0.1001279354095459
50	139.62416911125183	response	2	2		48.0	2.5	/experiments/knapen_aot/videos/R_S_ILSVRC2015_train_00479004.mp4	0.0	200.9723880290985	
51	139.64081597328186	fix_pre	0		49.0	49.0	2.5	blank	1.0	200.98903489112854	0.40910911560058594
51	140.04086804389954	response	0	2		49.0	2.5	blank	1.0	201.38908696174622	
51	140.04992508888245	movie	1		301.0	49.0	2.5	blank	1.0	201.39814400672913	2.507593870162964
51	142.5575189590454	fix_post	2		12.0	49.0	2.5	blank	1.0	203.9057378768921	0.09983015060424805
52	142.65734910964966	fix_pre	0		388.0	50.0	2.5	/experiments/knapen_aot/videos/R_S_yt-0d5TkclKWVA_146.mp4	0.0	204.00556802749634	3.2332639694213867
52	145.88247108459473	response	0	2		50.0	2.5	/experiments/knapen_aot/videos/R_S_yt-0d5TkclKWVA_146.mp4	0.0	207.2306900024414	
52	145.89061307907104	movie	1		301.0	50.0	2.5	/experiments/knapen_aot/videos/R_S_yt-0d5TkclKWVA_146.mp4	0.0	207.23883199691772	2.508418083190918
52	148.39903116226196	fix_post	2		12.0	50.0	2.5	/experiments/knapen_aot/videos/R_S_yt-0d5TkclKWVA_146.mp4	0.0	209.74725008010864	0.10000777244567871
53	148.49903893470764	fix_pre	0		12.0	51.0	2.5	/experiments/knapen_aot/videos/R_S_ILSVRC2015_train_00469000.mp4	0.0	209.84725785255432	0.10003209114074707
53	148.59065413475037	response	0	2		51.0	2.5	/experiments/knapen_aot/videos/R_S_ILSVRC2015_train_00469000.mp4	0.0	209.93887305259705	
53	148.5990710258484	movie	1		301.0	51.0	2.5	/experiments/knapen_aot/videos/R_S_ILSVRC2015_train_00469000.mp4	0.0	209.94728994369507	2.5082809925079346
53	151.10735201835632	fix_post	2		12.0	51.0	2.5	/experiments/knapen_aot/videos/R_S_ILSVRC2015_train_00469000.mp4	0.0	212.455570936203	0.10001802444458008
53	151.1491620540619	response	2	2		51.0	2.5	/experiments/knapen_aot/videos/R_S_ILSVRC2015_train_00469000.mp4	0.0	212.49738097190857	
54	151.2073700428009	fix_pre	0		45.0	52.0	2.5	/experiments/knapen_aot/videos/S_comp_GMT314_139M_170NC_NORTH_AMERICA_AURORA__COMP_v22_SDR_20181206_v12CC_SDR_2K_AVC.mp4	0.0	212.55558896064758	0.37491798400878906
54	151.57398796081543	response	0	2		52.0	2.5	/experiments/knapen_aot/videos/S_comp_GMT314_139M_170NC_NORTH_AMERICA_AURORA__COMP_v22_SDR_20181206_v12CC_SDR_2K_AVC.mp4	0.0	212.9222068786621	
54	151.5822880268097	movie	1		162.0	52.0	2.5	/experiments/knapen_aot/videos/S_comp_GMT314_139M_170NC_NORTH_AMERICA_AURORA__COMP_v22_SDR_20181206_v12CC_SDR_2K_AVC.mp4	0.0	212.93050694465637	2.5083720684051514
54	154.09066009521484	fix_post	2		12.0	52.0	2.5	/experiments/knapen_aot/videos/S_comp_GMT314_139M_170NC_NORTH_AMERICA_AURORA__COMP_v22_SDR_20181206_v12CC_SDR_2K_AVC.mp4	0.0	215.43887901306152	0.10002589225769043
54	154.16578602790833	response	2	2		52.0	2.5	/experiments/knapen_aot/videos/S_comp_GMT314_139M_170NC_NORTH_AMERICA_AURORA__COMP_v22_SDR_20181206_v12CC_SDR_2K_AVC.mp4	0.0	215.514004945755	
55	154.19068598747253	fix_pre	0		49.0	53.0	2.5	/experiments/knapen_aot/videos/S_yt-w_e3sxIzepA_115.mp4	0.0	215.5389049053192	0.4082350730895996
55	154.59071707725525	response	0	2		53.0	2.5	/experiments/knapen_aot/videos/S_yt-w_e3sxIzepA_115.mp4	0.0	215.93893599510193	
55	154.59892106056213	movie	1		301.0	53.0	2.5	/experiments/knapen_aot/videos/S_yt-w_e3sxIzepA_115.mp4	0.0	215.9471399784088	2.5084738731384277
55	157.10739493370056	fix_post	2		12.0	53.0	2.5	/experiments/knapen_aot/videos/S_yt-w_e3sxIzepA_115.mp4	0.0	218.45561385154724	0.09995722770690918
56	157.20735216140747	fix_pre	0		5.0	54.0	2.5	/experiments/knapen_aot/videos/S_wc-1MzpHfRq1MUK_32.mp4	0.0	218.55557107925415	0.04161882400512695
56	157.23342394828796	response	0	2		54.0	2.5	/experiments/knapen_aot/videos/S_wc-1MzpHfRq1MUK_32.mp4	0.0	218.58164286613464	
56	157.2489709854126	movie	1		301.0	54.0	2.5	/experiments/knapen_aot/videos/S_wc-1MzpHfRq1MUK_32.mp4	0.0	218.59718990325928	2.508841037750244
56	159.75781202316284	fix_post	2		12.0	54.0	2.5	/experiments/knapen_aot/videos/S_wc-1MzpHfRq1MUK_32.mp4	0.0	221.10603094100952	0.09946107864379883
57	159.85727310180664	fix_pre	0		8.0	55.0	2.5	/experiments/knapen_aot/videos/S_yt-7Fyu2vr7zbA_31.mp4	0.0	221.20549201965332	0.06738901138305664
57	159.91572904586792	response	0	2		55.0	2.5	/experiments/knapen_aot/videos/S_yt-7Fyu2vr7zbA_31.mp4	0.0	221.2639479637146	
57	159.9246621131897	movie	1		301.0	55.0	2.5	/experiments/knapen_aot/videos/S_yt-7Fyu2vr7zbA_31.mp4	0.0	221.27288103103638	2.5080089569091797
57	162.43267107009888	fix_post	2		12.0	55.0	2.5	/experiments/knapen_aot/videos/S_yt-7Fyu2vr7zbA_31.mp4	0.0	223.78088998794556	0.0996100902557373
58	162.53228116035461	fix_pre	0		10.0	56.0	2.5	blank	1.0	223.8805000782013	0.08331489562988281
58	162.59989595413208	response	0	2		56.0	2.5	blank	1.0	223.94811487197876	
58	162.6155960559845	movie	1		301.0	56.0	2.5	blank	1.0	223.96381497383118	2.5083630084991455
58	165.12395906448364	fix_post	2		12.0	56.0	2.5	blank	1.0	226.47217798233032	0.1000220775604248
59	165.22398114204407	fix_pre	0		32.0	57.0	2.5	/experiments/knapen_aot/videos/S_comp_LA_A005_C009_PSNK_ALT_v09_SDR_PS_201809134_SDR_2K_AVC.mp4	0.0	226.57220005989075	0.26660680770874023
59	165.48229098320007	response	0	2		57.0	2.5	/experiments/knapen_aot/videos/S_comp_LA_A005_C009_PSNK_ALT_v09_SDR_PS_201809134_SDR_2K_AVC.mp4	0.0	226.83050990104675	
59	165.4905879497528	movie	1		168.0	57.0	2.5	/experiments/knapen_aot/videos/S_comp_LA_A005_C009_PSNK_ALT_v09_SDR_PS_201809134_SDR_2K_AVC.mp4	0.0	226.8388068675995	2.508258104324341
59	167.99884605407715	fix_post	2		12.0	57.0	2.5	/experiments/knapen_aot/videos/S_comp_LA_A005_C009_PSNK_ALT_v09_SDR_PS_201809134_SDR_2K_AVC.mp4	0.0	229.34706497192383	0.10010910034179688
59	168.05731916427612	response	2	2		57.0	2.5	/experiments/knapen_aot/videos/S_comp_LA_A005_C009_PSNK_ALT_v09_SDR_PS_201809134_SDR_2K_AVC.mp4	0.0	229.4055380821228	
60	168.09895515441895	fix_pre	0		68.0	58.0	2.5	/experiments/knapen_aot/videos/R_S_yt-GOgS--rzmKQ_51.mp4	0.0	229.44717407226562	0.5687248706817627
60	168.658527135849	response	0	2		58.0	2.5	/experiments/knapen_aot/videos/R_S_yt-GOgS--rzmKQ_51.mp4	0.0	230.00674605369568	
60	168.6676800251007	movie	1		301.0	58.0	2.5	/experiments/knapen_aot/videos/R_S_yt-GOgS--rzmKQ_51.mp4	0.0	230.0158989429474	2.5062761306762695
60	171.17395615577698	fix_post	2		12.0	58.0	2.5	/experiments/knapen_aot/videos/R_S_yt-GOgS--rzmKQ_51.mp4	0.0	232.52217507362366	0.09991192817687988
61	171.27386808395386	fix_pre	0		92.0	59.0	2.5	/experiments/knapen_aot/videos/S_yt-bmGWhOCsvJo_128.mp4	0.0	232.62208700180054	0.7667410373687744
61	172.0324251651764	response	0	2		59.0	2.5	/experiments/knapen_aot/videos/S_yt-bmGWhOCsvJo_128.mp4	0.0	233.38064408302307	
61	172.04060912132263	movie	1		301.0	59.0	2.5	/experiments/knapen_aot/videos/S_yt-bmGWhOCsvJo_128.mp4	0.0	233.3888280391693	2.508328914642334
61	174.54893803596497	fix_post	2		12.0	59.0	2.5	/experiments/knapen_aot/videos/S_yt-bmGWhOCsvJo_128.mp4	0.0	235.89715695381165	0.099945068359375
62	174.64888310432434	fix_pre	0		167.0	60.0	2.5	/experiments/knapen_aot/videos/R_S_yt-Rqwi-Fk9IJQ_114.mp4	0.0	235.99710202217102	1.391618013381958
62	176.03234910964966	response	0	2		60.0	2.5	/experiments/knapen_aot/videos/R_S_yt-Rqwi-Fk9IJQ_114.mp4	0.0	237.38056802749634	
62	176.0405011177063	movie	1		301.0	60.0	2.5	/experiments/knapen_aot/videos/R_S_yt-Rqwi-Fk9IJQ_114.mp4	0.0	237.38872003555298	2.5084049701690674
62	178.54890608787537	fix_post	2		12.0	60.0	2.5	/experiments/knapen_aot/videos/R_S_yt-Rqwi-Fk9IJQ_114.mp4	0.0	239.89712500572205	0.10003805160522461
63	178.6489441394806	fix_pre	0		23.0	61.0	2.5	/experiments/knapen_aot/videos/R_S_ILSVRC2015_train_00323000.mp4	0.0	239.99716305732727	0.19224190711975098
63	178.83233213424683	response	0	2		61.0	2.5	/experiments/knapen_aot/videos/R_S_ILSVRC2015_train_00323000.mp4	0.0	240.1805510520935	
63	178.84118604660034	movie	1		301.0	61.0	2.5	/experiments/knapen_aot/videos/R_S_ILSVRC2015_train_00323000.mp4	0.0	240.18940496444702	2.507718086242676
63	181.34890413284302	fix_post	2		12.0	61.0	2.5	/experiments/knapen_aot/videos/R_S_ILSVRC2015_train_00323000.mp4	0.0	242.6971230506897	0.09998703002929688
64	181.44889116287231	fix_pre	0		6.0	62.0	2.5	/experiments/knapen_aot/videos/R_S_yt-NLfzvAJgyJ4_120.mp4	0.0	242.797110080719	0.04994678497314453
64	181.49065709114075	response	0	2		62.0	2.5	/experiments/knapen_aot/videos/R_S_yt-NLfzvAJgyJ4_120.mp4	0.0	242.83887600898743	
64	181.49883794784546	movie	1		301.0	62.0	2.5	/experiments/knapen_aot/videos/R_S_yt-NLfzvAJgyJ4_120.mp4	0.0	242.84705686569214	2.5083889961242676
64	184.00722694396973	fix_post	2		12.0	62.0	2.5	/experiments/knapen_aot/videos/R_S_yt-NLfzvAJgyJ4_120.mp4	0.0	245.3554458618164	0.09997916221618652
65	184.1072061061859	fix_pre	0		5.0	63.0	2.5	blank	1.0	245.4554250240326	0.0416409969329834
65	184.1405930519104	response	0	2		63.0	2.5	blank	1.0	245.48881196975708	
65	184.1488471031189	movie	1		301.0	63.0	2.5	blank	1.0	245.49706602096558	2.508363962173462
65	186.65721106529236	fix_post	2		12.0	63.0	2.5	blank	1.0	248.00542998313904	0.09997105598449707
66	186.75718212127686	fix_pre	0		24.0	64.0	2.5	/experiments/knapen_aot/videos/R_S_ILSVRC2015_train_00518001.mp4	0.0	248.10540103912354	0.19998502731323242
66	186.94889402389526	response	0	2		64.0	2.5	/experiments/knapen_aot/videos/R_S_ILSVRC2015_train_00518001.mp4	0.0	248.29711294174194	
66	186.9571671485901	movie	1		301.0	64.0	2.5	/experiments/knapen_aot/videos/R_S_ILSVRC2015_train_00518001.mp4	0.0	248.30538606643677	2.508405923843384
66	189.46557307243347	fix_post	2		12.0	64.0	2.5	/experiments/knapen_aot/videos/R_S_ILSVRC2015_train_00518001.mp4	0.0	250.81379199028015	0.099945068359375
66	189.54892206192017	response	2	2		64.0	2.5	/experiments/knapen_aot/videos/R_S_ILSVRC2015_train_00518001.mp4	0.0	250.89714097976685	
67	189.56551814079285	fix_pre	0		50.0	65.0	2.5	/experiments/knapen_aot/videos/S_production_ID_4499960.mp4	0.0	250.91373705863953	0.4165618419647217
67	189.9738781452179	response	0	2		65.0	2.5	/experiments/knapen_aot/videos/S_production_ID_4499960.mp4	0.0	251.32209706306458	
67	189.98207998275757	movie	1		164.0	65.0	2.5	/experiments/knapen_aot/videos/S_production_ID_4499960.mp4	0.0	251.33029890060425	2.5084290504455566
67	192.49050903320312	fix_post	2		12.0	65.0	2.5	/experiments/knapen_aot/videos/S_production_ID_4499960.mp4	0.0	253.8387279510498	0.10018610954284668
68	192.59069514274597	fix_pre	0		17.0	66.0	2.5	/experiments/knapen_aot/videos/R_S_yt-hvuC_2YXsTQ_159.mp4	0.0	253.93891406059265	0.14145183563232422
68	192.71641993522644	response	0	2		66.0	2.5	/experiments/knapen_aot/videos/R_S_yt-hvuC_2YXsTQ_159.mp4	0.0	254.06463885307312	
68	192.7321469783783	movie	1		301.0	66.0	2.5	/experiments/knapen_aot/videos/R_S_yt-hvuC_2YXsTQ_159.mp4	0.0	254.08036589622498	2.5084450244903564
68	195.24059200286865	fix_post	2		12.0	66.0	2.5	/experiments/knapen_aot/videos/R_S_yt-hvuC_2YXsTQ_159.mp4	0.0	256.58881092071533	0.09989500045776367
69	195.34048700332642	fix_pre	0		7.0	67.0	2.5	/experiments/knapen_aot/videos/R_S_yt-83nimFMNhrM_131.mp4	0.0	256.6887059211731	0.05830502510070801
69	195.3905529975891	response	0	2		67.0	2.5	/experiments/knapen_aot/videos/R_S_yt-83nimFMNhrM_131.mp4	0.0	256.7387719154358	
69	195.39879202842712	movie	1		301.0	67.0	2.5	/experiments/knapen_aot/videos/R_S_yt-83nimFMNhrM_131.mp4	0.0	256.7470109462738	2.508366107940674
69	197.9071581363678	fix_post	2		12.0	67.0	2.5	/experiments/knapen_aot/videos/R_S_yt-83nimFMNhrM_131.mp4	0.0	259.2553770542145	0.10004901885986328
70	198.00720715522766	fix_pre	0		7.0	68.0	2.5	/experiments/knapen_aot/videos/S_yt-XRQ_LSGGr3Y_712.mp4	0.0	259.35542607307434	0.05823397636413574
70	198.04982805252075	response	0	2		68.0	2.5	/experiments/knapen_aot/videos/S_yt-XRQ_LSGGr3Y_712.mp4	0.0	259.39804697036743	
70	198.0654411315918	movie	1		301.0	68.0	2.5	/experiments/knapen_aot/videos/S_yt-XRQ_LSGGr3Y_712.mp4	0.0	259.4136600494385	2.5083518028259277
70	200.57379293441772	fix_post	2		12.0	68.0	2.5	/experiments/knapen_aot/videos/S_yt-XRQ_LSGGr3Y_712.mp4	0.0	261.9220118522644	0.10004615783691406
71	200.67383909225464	fix_pre	0		9.0	69.0	2.5	/experiments/knapen_aot/videos/R_S_bing-www_yahoo_com_entertainment_anastasia-karanikolaou-chantel-jeffries-discuss-182400502_html_9.mp4	0.0	262.0220580101013	0.07497692108154297
71	200.7405560016632	response	0	2		69.0	2.5	/experiments/knapen_aot/videos/R_S_bing-www_yahoo_com_entertainment_anastasia-karanikolaou-chantel-jeffries-discuss-182400502_html_9.mp4	0.0	262.0887749195099	
71	200.74881601333618	movie	1		170.0	69.0	2.5	/experiments/knapen_aot/videos/R_S_bing-www_yahoo_com_entertainment_anastasia-karanikolaou-chantel-jeffries-discuss-182400502_html_9.mp4	0.0	262.09703493118286	2.5083510875701904
71	203.25716710090637	fix_post	2		12.0	69.0	2.5	/experiments/knapen_aot/videos/R_S_bing-www_yahoo_com_entertainment_anastasia-karanikolaou-chantel-jeffries-discuss-182400502_html_9.mp4	0.0	264.60538601875305	0.09999203681945801
72	203.35715913772583	fix_pre	0		13.0	70.0	2.5	blank	1.0	264.7053780555725	0.10877490043640137
72	203.4572229385376	response	0	2		70.0	2.5	blank	1.0	264.8054418563843	
72	203.46593403816223	movie	1		301.0	70.0	2.5	blank	1.0	264.8141529560089	2.5078790187835693
72	205.9738130569458	fix_post	2		12.0	70.0	2.5	blank	1.0	267.3220319747925	0.09999799728393555
73	206.07381105422974	fix_pre	0		53.0	71.0	2.5	/experiments/knapen_aot/videos/S_yt-fk-z6WCvjjA_3.mp4	0.0	267.4220299720764	0.4416630268096924
73	206.49969506263733	response	0	2		71.0	2.5	/experiments/knapen_aot/videos/S_yt-fk-z6WCvjjA_3.mp4	0.0	267.847913980484	
73	206.51547408103943	movie	1		301.0	71.0	2.5	/experiments/knapen_aot/videos/S_yt-fk-z6WCvjjA_3.mp4	0.0	267.8636929988861	2.5083370208740234
73	209.02381110191345	fix_post	2		12.0	71.0	2.5	/experiments/knapen_aot/videos/S_yt-fk-z6WCvjjA_3.mp4	0.0	270.37203001976013	0.10001301765441895
74	209.12382411956787	fix_pre	0		17.0	72.0	2.5	/experiments/knapen_aot/videos/S_yt-nn-8LZcafGs_25.mp4	0.0	270.47204303741455	0.14162588119506836
74	209.25722694396973	response	0	2		72.0	2.5	/experiments/knapen_aot/videos/S_yt-nn-8LZcafGs_25.mp4	0.0	270.6054458618164	
74	209.26545000076294	movie	1		301.0	72.0	2.5	/experiments/knapen_aot/videos/S_yt-nn-8LZcafGs_25.mp4	0.0	270.6136689186096	2.508301019668579
74	211.77375102043152	fix_post	2		12.0	72.0	2.5	/experiments/knapen_aot/videos/S_yt-nn-8LZcafGs_25.mp4	0.0	273.1219699382782	0.10002708435058594
75	211.8737781047821	fix_pre	0		18.0	73.0	2.5	/experiments/knapen_aot/videos/R_S_yt-Gam0NeyyG8w_22.mp4	0.0	273.2219970226288	0.15007805824279785
75	212.00801515579224	response	0	2		73.0	2.5	/experiments/knapen_aot/videos/R_S_yt-Gam0NeyyG8w_22.mp4	0.0	273.3562340736389	
75	212.0238561630249	movie	1		301.0	73.0	2.5	/experiments/knapen_aot/videos/R_S_yt-Gam0NeyyG8w_22.mp4	0.0	273.3720750808716	2.5082619190216064
75	214.5321180820465	fix_post	2		12.0	73.0	2.5	/experiments/knapen_aot/videos/R_S_yt-Gam0NeyyG8w_22.mp4	0.0	275.8803369998932	0.10019898414611816
76	214.63231706619263	fix_pre	0		21.0	74.0	2.5	/experiments/knapen_aot/videos/S_yt-s2PWkCdT-TM_258.mp4	0.0	275.9805359840393	0.17481088638305664
76	214.7988941669464	response	0	2		74.0	2.5	/experiments/knapen_aot/videos/S_yt-s2PWkCdT-TM_258.mp4	0.0	276.1471130847931	
76	214.80712795257568	movie	1		301.0	74.0	2.5	/experiments/knapen_aot/videos/S_yt-s2PWkCdT-TM_258.mp4	0.0	276.15534687042236	2.5085830688476562
76	217.31571102142334	fix_post	2		12.0	74.0	2.5	/experiments/knapen_aot/videos/S_yt-s2PWkCdT-TM_258.mp4	0.0	278.66392993927	0.09971904754638672
77	217.41543006896973	fix_pre	0		12.0	75.0	2.5	blank	1.0	278.7636489868164	0.1000220775604248
77	217.50720715522766	response	0	2		75.0	2.5	blank	1.0	278.85542607307434	
77	217.51545214653015	movie	1		301.0	75.0	2.5	blank	1.0	278.86367106437683	2.5083069801330566
77	220.0237591266632	fix_post	2		12.0	75.0	2.5	blank	1.0	281.3719780445099	0.09994983673095703
78	220.12370896339417	fix_pre	0		30.0	76.0	2.5	/experiments/knapen_aot/videos/R_S_yt-JpOBXV46TLE_124.mp4	0.0	281.47192788124084	0.2500030994415283
78	220.36548900604248	response	0	2		76.0	2.5	/experiments/knapen_aot/videos/R_S_yt-JpOBXV46TLE_124.mp4	0.0	281.71370792388916	
78	220.3737120628357	movie	1		301.0	76.0	2.5	/experiments/knapen_aot/videos/R_S_yt-JpOBXV46TLE_124.mp4	0.0	281.7219309806824	2.508500099182129
78	222.88221216201782	fix_post	2		12.0	76.0	2.5	/experiments/knapen_aot/videos/R_S_yt-JpOBXV46TLE_124.mp4	0.0	284.2304310798645	0.09978890419006348
79	222.98200106620789	fix_pre	0		13.0	77.0	2.5	/experiments/knapen_aot/videos/R_S_yt-CNq5mTA8oXY_176.mp4	0.0	284.33021998405457	0.10869288444519043
79	223.0822160243988	response	0	2		77.0	2.5	/experiments/knapen_aot/videos/R_S_yt-CNq5mTA8oXY_176.mp4	0.0	284.4304349422455	
79	223.09069395065308	movie	1		301.0	77.0	2.5	/experiments/knapen_aot/videos/R_S_yt-CNq5mTA8oXY_176.mp4	0.0	284.43891286849976	2.5079991817474365
79	225.5986931324005	fix_post	2		12.0	77.0	2.5	/experiments/knapen_aot/videos/R_S_yt-CNq5mTA8oXY_176.mp4	0.0	286.9469120502472	0.10000181198120117
80	225.6986949443817	fix_pre	0		11.0	78.0	2.5	/experiments/knapen_aot/videos/R_S_ILSVRC2015_train_00551000.mp4	0.0	287.0469138622284	0.09161114692687988
80	225.78215098381042	response	0	2		78.0	2.5	/experiments/knapen_aot/videos/R_S_ILSVRC2015_train_00551000.mp4	0.0	287.1303699016571	
80	225.7903060913086	movie	1		301.0	78.0	2.5	/experiments/knapen_aot/videos/R_S_ILSVRC2015_train_00551000.mp4	0.0	287.1385250091553	2.508409023284912
80	228.2987151145935	fix_post	2		12.0	78.0	2.5	/experiments/knapen_aot/videos/R_S_ILSVRC2015_train_00551000.mp4	0.0	289.6469340324402	0.10000991821289062
81	228.3987250328064	fix_pre	0		23.0	79.0	2.5	/experiments/knapen_aot/videos/S_comp_LA_A011_C003_DGRN_LNFIX_STAB_v57_SDR_PS_20181002_SDR_2K_AVC.mp4	0.0	289.7469439506531	0.19202494621276855
81	228.57464003562927	response	0	2		79.0	2.5	/experiments/knapen_aot/videos/S_comp_LA_A011_C003_DGRN_LNFIX_STAB_v57_SDR_PS_20181002_SDR_2K_AVC.mp4	0.0	289.92285895347595	
81	228.59074997901917	movie	1		166.0	79.0	2.5	/experiments/knapen_aot/videos/S_comp_LA_A011_C003_DGRN_LNFIX_STAB_v57_SDR_PS_20181002_SDR_2K_AVC.mp4	0.0	289.93896889686584	2.507941961288452
81	231.09869194030762	fix_post	2		12.0	79.0	2.5	/experiments/knapen_aot/videos/S_comp_LA_A011_C003_DGRN_LNFIX_STAB_v57_SDR_PS_20181002_SDR_2K_AVC.mp4	0.0	292.4469108581543	0.10003519058227539
81	231.11554312705994	response	2	2		79.0	2.5	/experiments/knapen_aot/videos/S_comp_LA_A011_C003_DGRN_LNFIX_STAB_v57_SDR_PS_20181002_SDR_2K_AVC.mp4	0.0	292.4637620449066	
82	231.1987271308899	fix_pre	0		59.0	80.0	2.5	/experiments/knapen_aot/videos/S_comp_GMT060_117NC_363D_1034_AUSTRALIA_v35_SDR_PS_FINAL_20180731_SDR_2K_AVC.mp4	0.0	292.5469460487366	0.4916379451751709
82	231.6821141242981	response	0	2		80.0	2.5	/experiments/knapen_aot/videos/S_comp_GMT060_117NC_363D_1034_AUSTRALIA_v35_SDR_PS_FINAL_20180731_SDR_2K_AVC.mp4	0.0	293.0303330421448	
82	231.69036507606506	movie	1		164.0	80.0	2.5	/experiments/knapen_aot/videos/S_comp_GMT060_117NC_363D_1034_AUSTRALIA_v35_SDR_PS_FINAL_20180731_SDR_2K_AVC.mp4	0.0	293.03858399391174	2.5084989070892334
82	234.1988639831543	fix_post	2		12.0	80.0	2.5	/experiments/knapen_aot/videos/S_comp_GMT060_117NC_363D_1034_AUSTRALIA_v35_SDR_PS_FINAL_20180731_SDR_2K_AVC.mp4	0.0	295.547082901001	0.09983706474304199
83	234.29870104789734	fix_pre	0		5.0	81.0	2.5	/experiments/knapen_aot/videos/R_S_pexels-pavel-danilyuk-8057714.mp4	0.0	295.646919965744	0.042037010192871094
83	234.332093000412	response	0	2		81.0	2.5	/experiments/knapen_aot/videos/R_S_pexels-pavel-danilyuk-8057714.mp4	0.0	295.68031191825867	
83	234.3407380580902	movie	1		166.0	81.0	2.5	/experiments/knapen_aot/videos/R_S_pexels-pavel-danilyuk-8057714.mp4	0.0	295.6889569759369	2.507901906967163
83	236.84863996505737	fix_post	2		12.0	81.0	2.5	/experiments/knapen_aot/videos/R_S_pexels-pavel-danilyuk-8057714.mp4	0.0	298.19685888290405	0.10002303123474121
84	236.94866299629211	fix_pre	0		10.0	82.0	2.5	/experiments/knapen_aot/videos/S_yt-zydTlQGCUjQ_277.mp4	0.0	298.2968819141388	0.08330512046813965
84	237.02368712425232	response	0	2		82.0	2.5	/experiments/knapen_aot/videos/S_yt-zydTlQGCUjQ_277.mp4	0.0	298.371906042099	
84	237.03196811676025	movie	1		301.0	82.0	2.5	/experiments/knapen_aot/videos/S_yt-zydTlQGCUjQ_277.mp4	0.0	298.38018703460693	2.5087459087371826
84	239.54071402549744	fix_post	2		12.0	82.0	2.5	/experiments/knapen_aot/videos/S_yt-zydTlQGCUjQ_277.mp4	0.0	300.8889329433441	0.09963393211364746
85	239.64034795761108	fix_pre	0		16.0	83.0	2.5	blank	1.0	300.98856687545776	0.13328814506530762
85	239.7654321193695	response	0	2		83.0	2.5	blank	1.0	301.1136510372162	
85	239.7736361026764	movie	1		301.0	83.0	2.5	blank	1.0	301.12185502052307	2.508388042449951
85	242.28202414512634	fix_post	2		12.0	83.0	2.5	blank	1.0	303.630243062973	0.1002039909362793
87	242.38222813606262	stim	0		135.0					303.7304470539093	1.1248769760131836
87	242.61537313461304	response	0	2						303.9635920524597	
87	243.5030541419983	response	0	space						304.85127305984497	
