trial_nr	onset	event_type	phase	response	nr_frames	movie_index	movie_duration	movie_file	blank	onset_abs	duration
0	0.12504005432128906	stim	0		42.0					61.96770620346069	0.34931397438049316
0	0.4660909175872803	response	0	space						62.308757066726685	
1	0.4743540287017822	stim	0		121.0					62.31702017784119	1.0082058906555176
1	0.9837088584899902	response	0	space						62.826375007629395	
1	1.3325779438018799	response	0	space						63.175244092941284	
1	1.4825599193572998	stim	1		120.0					63.325226068496704	1.003235101699829
1	1.8072760105133057	response	1	space						63.64994215965271	
1	2.0055010318756104	response	1	4						63.848167181015015	
1	2.4762909412384033	response	1	space						64.31895709037781	
2	2.485795021057129	fix_pre	0		45.0	0.0	2.5	/experiments/knapen_aot/videos/R_S_yt-hTkrnNr39dk_202.mp4	0.0	64.32846117019653	0.3796830177307129
2	2.8573038578033447	response	0	space		0.0	2.5	/experiments/knapen_aot/videos/R_S_yt-hTkrnNr39dk_202.mp4	0.0	64.69997000694275	
2	2.865478038787842	movie	1		301.0	0.0	2.5	/experiments/knapen_aot/videos/R_S_yt-hTkrnNr39dk_202.mp4	0.0	64.70814418792725	2.5083329677581787
2	3.1110918521881104	response	1	4		0.0	2.5	/experiments/knapen_aot/videos/R_S_yt-hTkrnNr39dk_202.mp4	0.0	64.95375800132751	
2	4.648979902267456	response	1	4		0.0	2.5	/experiments/knapen_aot/videos/R_S_yt-hTkrnNr39dk_202.mp4	0.0	66.49164605140686	
2	5.3738110065460205	fix_post	2		12.0	0.0	2.5	/experiments/knapen_aot/videos/R_S_yt-hTkrnNr39dk_202.mp4	0.0	67.21647715568542	0.10009598731994629
3	5.473906993865967	fix_pre	0		7.0	1.0	2.5	/experiments/knapen_aot/videos/R_S_m-aeoYPMqfg_185.mp4	0.0	67.31657314300537	0.05828094482421875
3	5.523998022079468	response	0	4		1.0	2.5	/experiments/knapen_aot/videos/R_S_m-aeoYPMqfg_185.mp4	0.0	67.36666417121887	
3	5.5321879386901855	movie	1		301.0	1.0	2.5	/experiments/knapen_aot/videos/R_S_m-aeoYPMqfg_185.mp4	0.0	67.37485408782959	2.5083229541778564
3	8.040510892868042	fix_post	2		12.0	1.0	2.5	/experiments/knapen_aot/videos/R_S_m-aeoYPMqfg_185.mp4	0.0	69.88317704200745	0.09994816780090332
3	8.132262945175171	response	2	4		1.0	2.5	/experiments/knapen_aot/videos/R_S_m-aeoYPMqfg_185.mp4	0.0	69.97492909431458	
4	8.140459060668945	fix_pre	0		90.0	2.0	2.5	/experiments/knapen_aot/videos/S_EFR8AteY59I_15.mp4	0.0	69.98312520980835	0.750046968460083
4	8.882325887680054	response	0	4		2.0	2.5	/experiments/knapen_aot/videos/S_EFR8AteY59I_15.mp4	0.0	70.72499203681946	
4	8.890506029129028	movie	1		301.0	2.0	2.5	/experiments/knapen_aot/videos/S_EFR8AteY59I_15.mp4	0.0	70.73317217826843	2.508370876312256
4	11.398876905441284	fix_post	2		12.0	2.0	2.5	/experiments/knapen_aot/videos/S_EFR8AteY59I_15.mp4	0.0	73.24154305458069	0.10001897811889648
5	11.49889588356018	fix_pre	0		20.0	3.0	2.5	/experiments/knapen_aot/videos/R_S_yt-rY_ra5Tb9XU_51.mp4	0.0	73.34156203269958	0.16733312606811523
5	11.657331943511963	response	0	4		3.0	2.5	/experiments/knapen_aot/videos/R_S_yt-rY_ra5Tb9XU_51.mp4	0.0	73.49999809265137	
5	11.666229009628296	movie	1		301.0	3.0	2.5	/experiments/knapen_aot/videos/R_S_yt-rY_ra5Tb9XU_51.mp4	0.0	73.5088951587677	2.5076229572296143
5	14.035018920898438	response	1	4		3.0	2.5	/experiments/knapen_aot/videos/R_S_yt-rY_ra5Tb9XU_51.mp4	0.0	75.87768507003784	
5	14.17385196685791	fix_post	2		12.0	3.0	2.5	/experiments/knapen_aot/videos/R_S_yt-rY_ra5Tb9XU_51.mp4	0.0	76.01651811599731	0.09992003440856934
6	14.27377200126648	fix_pre	0		44.0	4.0	2.5	/experiments/knapen_aot/videos/R_S_yt-hekMMCluhnU_18.mp4	0.0	76.11643815040588	0.36666393280029297
6	14.632314920425415	response	0	4		4.0	2.5	/experiments/knapen_aot/videos/R_S_yt-hekMMCluhnU_18.mp4	0.0	76.47498106956482	
6	14.640435934066772	movie	1		301.0	4.0	2.5	/experiments/knapen_aot/videos/R_S_yt-hekMMCluhnU_18.mp4	0.0	76.48310208320618	2.5083119869232178
6	17.14874792098999	fix_post	2		12.0	4.0	2.5	/experiments/knapen_aot/videos/R_S_yt-hekMMCluhnU_18.mp4	0.0	78.9914140701294	0.1000680923461914
7	17.24881601333618	fix_pre	0		47.0	5.0	2.5	/experiments/knapen_aot/videos/S_3dzza09VbXY_235.mp4	0.0	79.09148216247559	0.3916740417480469
7	17.62481999397278	response	0	4		5.0	2.5	/experiments/knapen_aot/videos/S_3dzza09VbXY_235.mp4	0.0	79.46748614311218	
7	17.64049005508423	movie	1		301.0	5.0	2.5	/experiments/knapen_aot/videos/S_3dzza09VbXY_235.mp4	0.0	79.48315620422363	2.508262872695923
7	20.14875292778015	fix_post	2		12.0	5.0	2.5	/experiments/knapen_aot/videos/S_3dzza09VbXY_235.mp4	0.0	81.99141907691956	0.10009598731994629
8	20.248848915100098	fix_pre	0		15.0	6.0	2.5	/experiments/knapen_aot/videos/R_S_yt-sxZ_ONShI7U_75.mp4	0.0	82.0915150642395	0.1255970001220703
8	20.365628957748413	response	0	4		6.0	2.5	/experiments/knapen_aot/videos/R_S_yt-sxZ_ONShI7U_75.mp4	0.0	82.20829510688782	
8	20.374445915222168	movie	1		301.0	6.0	2.5	/experiments/knapen_aot/videos/R_S_yt-sxZ_ONShI7U_75.mp4	0.0	82.21711206436157	2.5077221393585205
8	22.88216805458069	fix_post	2		12.0	6.0	2.5	/experiments/knapen_aot/videos/R_S_yt-sxZ_ONShI7U_75.mp4	0.0	84.72483420372009	0.10001802444458008
9	22.98218607902527	fix_pre	0		31.0	7.0	2.5	blank	1.0	84.82485222816467	0.258267879486084
9	23.232259035110474	response	0	4		7.0	2.5	blank	1.0	85.07492518424988	
9	23.240453958511353	movie	1		301.0	7.0	2.5	blank	1.0	85.08312010765076	2.508410930633545
9	25.748864889144897	fix_post	2		12.0	7.0	2.5	blank	1.0	87.5915310382843	0.10002803802490234
10	25.8488929271698	fix_pre	0		19.0	8.0	2.5	/experiments/knapen_aot/videos/R_S_yt-Y7-umyL036c_507.mp4	0.0	87.6915590763092	0.15825295448303223
10	25.998950958251953	response	0	4		8.0	2.5	/experiments/knapen_aot/videos/R_S_yt-Y7-umyL036c_507.mp4	0.0	87.84161710739136	
10	26.007145881652832	movie	1		301.0	8.0	2.5	/experiments/knapen_aot/videos/R_S_yt-Y7-umyL036c_507.mp4	0.0	87.84981203079224	2.508327007293701
10	28.515472888946533	fix_post	2		12.0	8.0	2.5	/experiments/knapen_aot/videos/R_S_yt-Y7-umyL036c_507.mp4	0.0	90.35813903808594	0.1000361442565918
11	28.615509033203125	fix_pre	0		48.0	9.0	2.5	/experiments/knapen_aot/videos/S_bing-www_cnn_com_2015_04_20_living_steak-eating-contest-molly-schuyler-feat_index_html_1.mp4	0.0	90.45817518234253	0.399960994720459
11	29.00729203224182	response	0	4		9.0	2.5	/experiments/knapen_aot/videos/S_bing-www_cnn_com_2015_04_20_living_steak-eating-contest-molly-schuyler-feat_index_html_1.mp4	0.0	90.84995818138123	
11	29.015470027923584	movie	1		301.0	9.0	2.5	/experiments/knapen_aot/videos/S_bing-www_cnn_com_2015_04_20_living_steak-eating-contest-molly-schuyler-feat_index_html_1.mp4	0.0	90.85813617706299	2.5083160400390625
11	31.523786067962646	fix_post	2		12.0	9.0	2.5	/experiments/knapen_aot/videos/S_bing-www_cnn_com_2015_04_20_living_steak-eating-contest-molly-schuyler-feat_index_html_1.mp4	0.0	93.36645221710205	0.10061192512512207
12	31.62439799308777	fix_pre	0		44.0	10.0	2.5	/experiments/knapen_aot/videos/S_yt-xSGPe0KemD4_384.mp4	0.0	93.46706414222717	0.3660309314727783
12	31.98216700553894	response	0	4		10.0	2.5	/experiments/knapen_aot/videos/S_yt-xSGPe0KemD4_384.mp4	0.0	93.82483315467834	
12	31.990428924560547	movie	1		301.0	10.0	2.5	/experiments/knapen_aot/videos/S_yt-xSGPe0KemD4_384.mp4	0.0	93.83309507369995	2.508319139480591
12	34.49874806404114	fix_post	2		12.0	10.0	2.5	/experiments/knapen_aot/videos/S_yt-xSGPe0KemD4_384.mp4	0.0	96.34141421318054	0.09993982315063477
13	34.59868788719177	fix_pre	0		162.0	11.0	2.5	/experiments/knapen_aot/videos/R_S_yt-JH6qCYAnX-I_70.mp4	0.0	96.44135403633118	1.3500421047210693
13	35.940572023391724	response	0	4		11.0	2.5	/experiments/knapen_aot/videos/R_S_yt-JH6qCYAnX-I_70.mp4	0.0	97.78323817253113	
13	35.94872999191284	movie	1		301.0	11.0	2.5	/experiments/knapen_aot/videos/R_S_yt-JH6qCYAnX-I_70.mp4	0.0	97.79139614105225	2.508331060409546
13	38.45706105232239	fix_post	2		12.0	11.0	2.5	/experiments/knapen_aot/videos/R_S_yt-JH6qCYAnX-I_70.mp4	0.0	100.29972720146179	0.09995579719543457
14	38.55701684951782	fix_pre	0		371.0	12.0	2.5	/experiments/knapen_aot/videos/S_yt-hTkrnNr39dk_202.mp4	0.0	100.39968299865723	3.091677188873291
14	41.632964849472046	response	0	4		12.0	2.5	/experiments/knapen_aot/videos/S_yt-hTkrnNr39dk_202.mp4	0.0	103.47563099861145	
14	41.64869403839111	movie	1		301.0	12.0	2.5	/experiments/knapen_aot/videos/S_yt-hTkrnNr39dk_202.mp4	0.0	103.49136018753052	2.5083889961242676
14	44.15708303451538	fix_post	2		12.0	12.0	2.5	/experiments/knapen_aot/videos/S_yt-hTkrnNr39dk_202.mp4	0.0	105.99974918365479	0.09992504119873047
15	44.25700807571411	fix_pre	0		14.0	13.0	2.5	blank	1.0	106.09967422485352	0.11725878715515137
15	44.365484952926636	response	0	4		13.0	2.5	blank	1.0	106.20815110206604	
15	44.37426686286926	movie	1		301.0	13.0	2.5	blank	1.0	106.21693301200867	2.5078091621398926
15	46.882076025009155	fix_post	2		12.0	13.0	2.5	blank	1.0	108.72474217414856	0.09999799728393555
16	46.98207402229309	fix_pre	0		21.0	14.0	2.5	/experiments/knapen_aot/videos/R_S_comp_HK_H004_C001_PSNK_DENOISE_v14_SDR_PS_FINAL_20180731_SDR_2K_AVC.mp4	0.0	108.8247401714325	0.17499089241027832
16	47.14129590988159	response	0	4		14.0	2.5	/experiments/knapen_aot/videos/R_S_comp_HK_H004_C001_PSNK_DENOISE_v14_SDR_PS_FINAL_20180731_SDR_2K_AVC.mp4	0.0	108.983962059021	
16	47.15706491470337	movie	1		169.0	14.0	2.5	/experiments/knapen_aot/videos/R_S_comp_HK_H004_C001_PSNK_DENOISE_v14_SDR_PS_FINAL_20180731_SDR_2K_AVC.mp4	0.0	108.99973106384277	2.508228063583374
16	49.66529297828674	fix_post	2		12.0	14.0	2.5	/experiments/knapen_aot/videos/R_S_comp_HK_H004_C001_PSNK_DENOISE_v14_SDR_PS_FINAL_20180731_SDR_2K_AVC.mp4	0.0	111.50795912742615	0.10009908676147461
17	49.76539206504822	fix_pre	0		13.0	15.0	2.5	/experiments/knapen_aot/videos/S_video_inspire_texas_pecos_foggy-landscape_00018.1080-h264.mp4	0.0	111.60805821418762	0.1087958812713623
17	49.865468978881836	response	0	4		15.0	2.5	/experiments/knapen_aot/videos/S_video_inspire_texas_pecos_foggy-landscape_00018.1080-h264.mp4	0.0	111.70813512802124	
17	49.87418794631958	movie	1		165.0	15.0	2.5	/experiments/knapen_aot/videos/S_video_inspire_texas_pecos_foggy-landscape_00018.1080-h264.mp4	0.0	111.71685409545898	2.507875919342041
17	52.38206386566162	fix_post	2		12.0	15.0	2.5	/experiments/knapen_aot/videos/S_video_inspire_texas_pecos_foggy-landscape_00018.1080-h264.mp4	0.0	114.22473001480103	0.09998202323913574
17	52.43218207359314	response	2	4		15.0	2.5	/experiments/knapen_aot/videos/S_video_inspire_texas_pecos_foggy-landscape_00018.1080-h264.mp4	0.0	114.27484822273254	
18	52.48204588890076	fix_pre	0		50.0	16.0	2.5	/experiments/knapen_aot/videos/S_yt-Rybd-sKJFz0_78.mp4	0.0	114.32471203804016	0.4166240692138672
18	52.88290190696716	response	0	4		16.0	2.5	/experiments/knapen_aot/videos/S_yt-Rybd-sKJFz0_78.mp4	0.0	114.72556805610657	
18	52.898669958114624	movie	1		299.0	16.0	2.5	/experiments/knapen_aot/videos/S_yt-Rybd-sKJFz0_78.mp4	0.0	114.74133610725403	2.5083909034729004
18	55.407060861587524	fix_post	2		12.0	16.0	2.5	/experiments/knapen_aot/videos/S_yt-Rybd-sKJFz0_78.mp4	0.0	117.24972701072693	0.09999918937683105
19	55.507060050964355	fix_pre	0		17.0	17.0	2.5	/experiments/knapen_aot/videos/S_yt-11VGDAOVEag_8.mp4	0.0	117.34972620010376	0.14166498184204102
19	55.63296985626221	response	0	4		17.0	2.5	/experiments/knapen_aot/videos/S_yt-11VGDAOVEag_8.mp4	0.0	117.47563600540161	
19	55.6487250328064	movie	1		301.0	17.0	2.5	/experiments/knapen_aot/videos/S_yt-11VGDAOVEag_8.mp4	0.0	117.4913911819458	2.5082929134368896
19	58.157017946243286	fix_post	2		12.0	17.0	2.5	/experiments/knapen_aot/videos/S_yt-11VGDAOVEag_8.mp4	0.0	119.99968409538269	0.09992599487304688
20	58.25694394111633	fix_pre	0		6.0	18.0	2.5	/experiments/knapen_aot/videos/S_yt-ebylvieB_4g_16.mp4	0.0	120.09961009025574	0.050065040588378906
20	58.291281938552856	response	0	4		18.0	2.5	/experiments/knapen_aot/videos/S_yt-ebylvieB_4g_16.mp4	0.0	120.13394808769226	
20	58.30700898170471	movie	1		301.0	18.0	2.5	/experiments/knapen_aot/videos/S_yt-ebylvieB_4g_16.mp4	0.0	120.14967513084412	2.5083179473876953
20	60.81532692909241	fix_post	2		12.0	18.0	2.5	/experiments/knapen_aot/videos/S_yt-ebylvieB_4g_16.mp4	0.0	122.65799307823181	0.10003304481506348
21	60.91535997390747	fix_pre	0		21.0	19.0	2.5	/experiments/knapen_aot/videos/S_yt-ybH6uAiFbjc_273.mp4	0.0	122.75802612304688	0.17495989799499512
21	61.08215403556824	response	0	4		19.0	2.5	/experiments/knapen_aot/videos/S_yt-ybH6uAiFbjc_273.mp4	0.0	122.92482018470764	
21	61.090319871902466	movie	1		301.0	19.0	2.5	/experiments/knapen_aot/videos/S_yt-ybH6uAiFbjc_273.mp4	0.0	122.93298602104187	2.508371114730835
21	63.5986909866333	fix_post	2		12.0	19.0	2.5	/experiments/knapen_aot/videos/S_yt-ybH6uAiFbjc_273.mp4	0.0	125.4413571357727	0.09994387626647949
22	63.69863486289978	fix_pre	0		12.0	20.0	2.5	/experiments/knapen_aot/videos/S_yt-yyIimWrvRyI_246.mp4	0.0	125.54130101203918	0.10003399848937988
22	63.790411949157715	response	0	4		20.0	2.5	/experiments/knapen_aot/videos/S_yt-yyIimWrvRyI_246.mp4	0.0	125.63307809829712	
22	63.79866886138916	movie	1		300.0	20.0	2.5	/experiments/knapen_aot/videos/S_yt-yyIimWrvRyI_246.mp4	0.0	125.64133501052856	2.5083072185516357
22	66.3069760799408	fix_post	2		12.0	20.0	2.5	/experiments/knapen_aot/videos/S_yt-yyIimWrvRyI_246.mp4	0.0	128.1496422290802	0.09993791580200195
23	66.4069139957428	fix_pre	0		7.0	21.0	2.5	blank	1.0	128.2495801448822	0.058409929275512695
23	66.44960904121399	response	0	4		21.0	2.5	blank	1.0	128.2922751903534	
23	66.46532392501831	movie	1		301.0	21.0	2.5	blank	1.0	128.30799007415771	2.5083200931549072
23	68.54871201515198	response	1	4		21.0	2.5	blank	1.0	130.39137816429138	
23	68.97364401817322	fix_post	2		12.0	21.0	2.5	blank	1.0	130.81631016731262	0.10001587867736816
24	69.07365989685059	fix_pre	0		41.0	22.0	2.5	/experiments/knapen_aot/videos/R_S_yt-fymgyhmYnMI_76.mp4	0.0	130.91632604599	0.342022180557251
24	69.4070839881897	response	0	4		22.0	2.5	/experiments/knapen_aot/videos/R_S_yt-fymgyhmYnMI_76.mp4	0.0	131.2497501373291	
24	69.41568207740784	movie	1		301.0	22.0	2.5	/experiments/knapen_aot/videos/R_S_yt-fymgyhmYnMI_76.mp4	0.0	131.25834822654724	2.5079948902130127
24	70.93206787109375	response	1	4		22.0	2.5	/experiments/knapen_aot/videos/R_S_yt-fymgyhmYnMI_76.mp4	0.0	132.77473402023315	
24	71.92367696762085	fix_post	2		12.0	22.0	2.5	/experiments/knapen_aot/videos/R_S_yt-fymgyhmYnMI_76.mp4	0.0	133.76634311676025	0.10009288787841797
25	72.02376985549927	fix_pre	0		41.0	23.0	2.5	/experiments/knapen_aot/videos/S_b6-4.mp4	0.0	133.86643600463867	0.3415181636810303
25	72.35705304145813	response	0	4		23.0	2.5	/experiments/knapen_aot/videos/S_b6-4.mp4	0.0	134.19971919059753	
25	72.3652880191803	movie	1		164.0	23.0	2.5	/experiments/knapen_aot/videos/S_b6-4.mp4	0.0	134.2079541683197	2.508213996887207
25	74.0487220287323	response	1	4		23.0	2.5	/experiments/knapen_aot/videos/S_b6-4.mp4	0.0	135.8913881778717	
25	74.8735020160675	fix_post	2		12.0	23.0	2.5	/experiments/knapen_aot/videos/S_b6-4.mp4	0.0	136.7161681652069	0.10009288787841797
26	74.97359490394592	fix_pre	0		10.0	24.0	2.5	/experiments/knapen_aot/videos/S_pexels-cottonbro-9063801_1.mp4	0.0	136.81626105308533	0.08331012725830078
26	75.04872393608093	response	0	4		24.0	2.5	/experiments/knapen_aot/videos/S_pexels-cottonbro-9063801_1.mp4	0.0	136.89139008522034	
26	75.05690503120422	movie	1		200.0	24.0	2.5	/experiments/knapen_aot/videos/S_pexels-cottonbro-9063801_1.mp4	0.0	136.89957118034363	2.508340835571289
26	77.49878692626953	response	1	4		24.0	2.5	/experiments/knapen_aot/videos/S_pexels-cottonbro-9063801_1.mp4	0.0	139.34145307540894	
26	77.56524586677551	fix_post	2		12.0	24.0	2.5	/experiments/knapen_aot/videos/S_pexels-cottonbro-9063801_1.mp4	0.0	139.40791201591492	0.10004210472106934
27	77.66528797149658	fix_pre	0		39.0	25.0	2.5	/experiments/knapen_aot/videos/S_yt-738MRS0yI6g_177.mp4	0.0	139.507954120636	0.32495594024658203
27	77.98208498954773	response	0	4		25.0	2.5	/experiments/knapen_aot/videos/S_yt-738MRS0yI6g_177.mp4	0.0	139.82475113868713	
27	77.99024391174316	movie	1		298.0	25.0	2.5	/experiments/knapen_aot/videos/S_yt-738MRS0yI6g_177.mp4	0.0	139.83291006088257	2.508249044418335
27	80.4984929561615	fix_post	2		12.0	25.0	2.5	/experiments/knapen_aot/videos/S_yt-738MRS0yI6g_177.mp4	0.0	142.3411591053009	0.10004496574401855
28	80.59853792190552	fix_pre	0		5.0	26.0	2.5	/experiments/knapen_aot/videos/R_S_b6-4.mp4	0.0	142.44120407104492	0.041738033294677734
28	80.6320309638977	response	0	4		26.0	2.5	/experiments/knapen_aot/videos/R_S_b6-4.mp4	0.0	142.4746971130371	
28	80.6402759552002	movie	1		170.0	26.0	2.5	/experiments/knapen_aot/videos/R_S_b6-4.mp4	0.0	142.4829421043396	2.5083470344543457
28	83.14862298965454	fix_post	2		12.0	26.0	2.5	/experiments/knapen_aot/videos/R_S_b6-4.mp4	0.0	144.99128913879395	0.10030198097229004
29	83.24892497062683	fix_pre	0		3.0	27.0	2.5	/experiments/knapen_aot/videos/R_S_yt-dQRqGgpS9mE_288.mp4	0.0	145.09159111976624	0.024691104888916016
29	83.26547884941101	response	0	4		27.0	2.5	/experiments/knapen_aot/videos/R_S_yt-dQRqGgpS9mE_288.mp4	0.0	145.10814499855042	
29	83.27361607551575	movie	1		301.0	27.0	2.5	/experiments/knapen_aot/videos/R_S_yt-dQRqGgpS9mE_288.mp4	0.0	145.11628222465515	2.508288860321045
29	85.78190493583679	fix_post	2		12.0	27.0	2.5	/experiments/knapen_aot/videos/R_S_yt-dQRqGgpS9mE_288.mp4	0.0	147.6245710849762	0.10001802444458008
30	85.88192296028137	fix_pre	0		31.0	28.0	2.5	blank	1.0	147.72458910942078	0.2582380771636963
30	86.13198590278625	response	0	4		28.0	2.5	blank	1.0	147.97465205192566	
30	86.14016103744507	movie	1		301.0	28.0	2.5	blank	1.0	147.98282718658447	2.5082788467407227
30	88.64843988418579	fix_post	2		12.0	28.0	2.5	blank	1.0	150.4911060333252	0.1000511646270752
31	88.74849104881287	fix_pre	0		19.0	29.0	2.5	/experiments/knapen_aot/videos/S_yt-w_e3sxIzepA_115.mp4	0.0	150.59115719795227	0.15832281112670898
31	88.89111590385437	response	0	4		29.0	2.5	/experiments/knapen_aot/videos/S_yt-w_e3sxIzepA_115.mp4	0.0	150.73378205299377	
31	88.90681385993958	movie	1		301.0	29.0	2.5	/experiments/knapen_aot/videos/S_yt-w_e3sxIzepA_115.mp4	0.0	150.74948000907898	2.508683204650879
31	91.41549706459045	fix_post	2		12.0	29.0	2.5	/experiments/knapen_aot/videos/S_yt-w_e3sxIzepA_115.mp4	0.0	153.25816321372986	0.09973597526550293
32	91.51523303985596	fix_pre	0		120.0	30.0	2.5	/experiments/knapen_aot/videos/S_yt-xqjVM0Vj4mI_161.mp4	0.0	153.35789918899536	0.9999399185180664
32	92.50704503059387	response	0	4		30.0	2.5	/experiments/knapen_aot/videos/S_yt-xqjVM0Vj4mI_161.mp4	0.0	154.34971117973328	
32	92.51517295837402	movie	1		301.0	30.0	2.5	/experiments/knapen_aot/videos/S_yt-xqjVM0Vj4mI_161.mp4	0.0	154.35783910751343	2.508441925048828
32	95.02361488342285	fix_post	2		12.0	30.0	2.5	/experiments/knapen_aot/videos/S_yt-xqjVM0Vj4mI_161.mp4	0.0	156.86628103256226	0.10022807121276855
33	95.12384295463562	fix_pre	0		35.0	31.0	2.5	/experiments/knapen_aot/videos/S_yt-he_RSdeVinA_68.mp4	0.0	156.96650910377502	0.2916440963745117
33	95.40705394744873	response	0	4		31.0	2.5	/experiments/knapen_aot/videos/S_yt-he_RSdeVinA_68.mp4	0.0	157.24972009658813	
33	95.41548705101013	movie	1		301.0	31.0	2.5	/experiments/knapen_aot/videos/S_yt-he_RSdeVinA_68.mp4	0.0	157.25815320014954	2.508059024810791
33	97.92354607582092	fix_post	2		12.0	31.0	2.5	/experiments/knapen_aot/videos/S_yt-he_RSdeVinA_68.mp4	0.0	159.76621222496033	0.09999680519104004
34	98.02354288101196	fix_pre	0		172.0	32.0	2.5	/experiments/knapen_aot/videos/S_ILSVRC2015_train_00484001.mp4	0.0	159.86620903015137	1.4335660934448242
34	99.44868993759155	response	0	4		32.0	2.5	/experiments/knapen_aot/videos/S_ILSVRC2015_train_00484001.mp4	0.0	161.29135608673096	
34	99.45710897445679	movie	1		301.0	32.0	2.5	/experiments/knapen_aot/videos/S_ILSVRC2015_train_00484001.mp4	0.0	161.2997751235962	2.508070945739746
34	101.96517992019653	fix_post	2		12.0	32.0	2.5	/experiments/knapen_aot/videos/S_ILSVRC2015_train_00484001.mp4	0.0	163.80784606933594	0.10001111030578613
35	102.06519103050232	fix_pre	0		75.0	33.0	2.5	/experiments/knapen_aot/videos/R_S_yt-OPzchvF7jO8_53.mp4	0.0	163.90785717964172	0.6333110332489014
35	102.69029808044434	response	0	4		33.0	2.5	/experiments/knapen_aot/videos/R_S_yt-OPzchvF7jO8_53.mp4	0.0	164.53296422958374	
35	102.69850206375122	movie	1		301.0	33.0	2.5	/experiments/knapen_aot/videos/R_S_yt-OPzchvF7jO8_53.mp4	0.0	164.54116821289062	2.5085229873657227
35	105.20702505111694	fix_post	2		12.0	33.0	2.5	/experiments/knapen_aot/videos/R_S_yt-OPzchvF7jO8_53.mp4	0.0	167.04969120025635	0.09978485107421875
36	105.30680990219116	fix_pre	0		50.0	34.0	2.5	/experiments/knapen_aot/videos/R_S_yt-l_ioasf6yHg_44.mp4	0.0	167.14947605133057	0.4166240692138672
36	105.71526288986206	response	0	4		34.0	2.5	/experiments/knapen_aot/videos/R_S_yt-l_ioasf6yHg_44.mp4	0.0	167.55792903900146	
36	105.72343397140503	movie	1		301.0	34.0	2.5	/experiments/knapen_aot/videos/R_S_yt-l_ioasf6yHg_44.mp4	0.0	167.56610012054443	2.5083699226379395
36	108.23180389404297	fix_post	2		12.0	34.0	2.5	/experiments/knapen_aot/videos/R_S_yt-l_ioasf6yHg_44.mp4	0.0	170.07447004318237	0.1001889705657959
37	108.33199286460876	fix_pre	0		36.0	35.0	2.5	blank	1.0	170.17465901374817	0.2997920513153076
37	108.62357807159424	response	0	4		35.0	2.5	blank	1.0	170.46624422073364	
37	108.63178491592407	movie	1		301.0	35.0	2.5	blank	1.0	170.47445106506348	2.508358955383301
37	110.51518988609314	response	1	4		35.0	2.5	blank	1.0	172.35785603523254	
37	110.9818639755249	response	1	4		35.0	2.5	blank	1.0	172.8245301246643	
37	111.14014387130737	fix_post	2		12.0	35.0	2.5	blank	1.0	172.98281002044678	0.0999600887298584
38	111.24010396003723	fix_pre	0		22.0	36.0	2.5	/experiments/knapen_aot/videos/R_S_yt-2IxVZeiSv3g_28.mp4	0.0	173.08277010917664	0.18332505226135254
38	111.41527104377747	response	0	4		36.0	2.5	/experiments/knapen_aot/videos/R_S_yt-2IxVZeiSv3g_28.mp4	0.0	173.25793719291687	
38	111.42342901229858	movie	1		301.0	36.0	2.5	/experiments/knapen_aot/videos/R_S_yt-2IxVZeiSv3g_28.mp4	0.0	173.266095161438	2.5082390308380127
38	113.9316680431366	fix_post	2		12.0	36.0	2.5	/experiments/knapen_aot/videos/R_S_yt-2IxVZeiSv3g_28.mp4	0.0	175.774334192276	0.10013389587402344
39	114.03180193901062	fix_pre	0		27.0	37.0	2.5	/experiments/knapen_aot/videos/R_S_yt-Faxdis4m3Fw_9.mp4	0.0	175.87446808815002	0.2249131202697754
39	114.24854898452759	response	0	4		37.0	2.5	/experiments/knapen_aot/videos/R_S_yt-Faxdis4m3Fw_9.mp4	0.0	176.091215133667	
39	114.2567150592804	movie	1		300.0	37.0	2.5	/experiments/knapen_aot/videos/R_S_yt-Faxdis4m3Fw_9.mp4	0.0	176.0993812084198	2.5084009170532227
39	115.9122359752655	response	1	4		37.0	2.5	/experiments/knapen_aot/videos/R_S_yt-Faxdis4m3Fw_9.mp4	0.0	177.7549021244049	
39	116.46526503562927	response	1	4		37.0	2.5	/experiments/knapen_aot/videos/R_S_yt-Faxdis4m3Fw_9.mp4	0.0	178.30793118476868	
39	116.76511597633362	fix_post	2		12.0	37.0	2.5	/experiments/knapen_aot/videos/R_S_yt-Faxdis4m3Fw_9.mp4	0.0	178.60778212547302	0.09998488426208496
40	116.8651008605957	fix_pre	0		21.0	38.0	2.5	/experiments/knapen_aot/videos/R_S_yt-xSGPe0KemD4_384.mp4	0.0	178.7077670097351	0.17513608932495117
40	117.03191494941711	response	0	4		38.0	2.5	/experiments/knapen_aot/videos/R_S_yt-xSGPe0KemD4_384.mp4	0.0	178.87458109855652	
40	117.04023694992065	movie	1		301.0	38.0	2.5	/experiments/knapen_aot/videos/R_S_yt-xSGPe0KemD4_384.mp4	0.0	178.88290309906006	2.5081191062927246
40	119.27355694770813	response	1	4		38.0	2.5	/experiments/knapen_aot/videos/R_S_yt-xSGPe0KemD4_384.mp4	0.0	181.11622309684753	
40	119.54835605621338	fix_post	2		12.0	38.0	2.5	/experiments/knapen_aot/videos/R_S_yt-xSGPe0KemD4_384.mp4	0.0	181.39102220535278	0.10003495216369629
41	119.64839100837708	fix_pre	0		20.0	39.0	2.5	/experiments/knapen_aot/videos/S_zAKvYNtmhuc_772.mp4	0.0	181.49105715751648	0.16665291786193848
41	119.79924893379211	response	0	4		39.0	2.5	/experiments/knapen_aot/videos/S_zAKvYNtmhuc_772.mp4	0.0	181.64191508293152	
41	119.81504392623901	movie	1		301.0	39.0	2.5	/experiments/knapen_aot/videos/S_zAKvYNtmhuc_772.mp4	0.0	181.65771007537842	2.508389949798584
41	120.3666980266571	response	1	4		39.0	2.5	/experiments/knapen_aot/videos/S_zAKvYNtmhuc_772.mp4	0.0	182.2093641757965	
41	120.66531896591187	response	1	4		39.0	2.5	/experiments/knapen_aot/videos/S_zAKvYNtmhuc_772.mp4	0.0	182.50798511505127	
41	120.88183903694153	response	1	4		39.0	2.5	/experiments/knapen_aot/videos/S_zAKvYNtmhuc_772.mp4	0.0	182.72450518608093	
41	122.3234338760376	fix_post	2		12.0	39.0	2.5	/experiments/knapen_aot/videos/S_zAKvYNtmhuc_772.mp4	0.0	184.166100025177	0.09998798370361328
42	122.42342185974121	fix_pre	0		373.0	40.0	2.5	blank	1.0	184.26608800888062	3.1082592010498047
42	125.52356505393982	response	0	4		40.0	2.5	blank	1.0	187.36623120307922	
42	125.53168106079102	movie	1		301.0	40.0	2.5	blank	1.0	187.37434720993042	2.508466958999634
42	128.04014801979065	fix_post	2		12.0	40.0	2.5	blank	1.0	189.88281416893005	0.09989690780639648
43	128.14004492759705	fix_pre	0		26.0	41.0	2.5	/experiments/knapen_aot/videos/S_ILSVRC2015_train_00693000.mp4	0.0	189.98271107673645	0.21664094924926758
43	128.34859204292297	response	0	4		41.0	2.5	/experiments/knapen_aot/videos/S_ILSVRC2015_train_00693000.mp4	0.0	190.19125819206238	
43	128.3566858768463	movie	1		299.0	41.0	2.5	/experiments/knapen_aot/videos/S_ILSVRC2015_train_00693000.mp4	0.0	190.19935202598572	2.508526086807251
43	130.86521196365356	fix_post	2		12.0	41.0	2.5	/experiments/knapen_aot/videos/S_ILSVRC2015_train_00693000.mp4	0.0	192.70787811279297	0.09985089302062988
44	130.9650628566742	fix_pre	0		45.0	42.0	2.5	/experiments/knapen_aot/videos/S_production_ID_4873122.mp4	0.0	192.8077290058136	0.375
44	131.3318109512329	response	0	4		42.0	2.5	/experiments/knapen_aot/videos/S_production_ID_4873122.mp4	0.0	193.17447710037231	
44	131.3400628566742	movie	1		168.0	42.0	2.5	/experiments/knapen_aot/videos/S_production_ID_4873122.mp4	0.0	193.1827290058136	2.5082831382751465
44	133.84834599494934	fix_post	2		12.0	42.0	2.5	/experiments/knapen_aot/videos/S_production_ID_4873122.mp4	0.0	195.69101214408875	0.10001397132873535
45	133.94835996627808	fix_pre	0		280.0	43.0	2.5	/experiments/knapen_aot/videos/R_S_yt-zydTlQGCUjQ_277.mp4	0.0	195.79102611541748	2.3333020210266113
45	136.2734830379486	response	0	4		43.0	2.5	/experiments/knapen_aot/videos/R_S_yt-zydTlQGCUjQ_277.mp4	0.0	198.116149187088	
45	136.2816619873047	movie	1		301.0	43.0	2.5	/experiments/knapen_aot/videos/R_S_yt-zydTlQGCUjQ_277.mp4	0.0	198.1243281364441	2.508357048034668
45	138.79001903533936	fix_post	2		12.0	43.0	2.5	/experiments/knapen_aot/videos/R_S_yt-zydTlQGCUjQ_277.mp4	0.0	200.63268518447876	0.09993791580200195
46	138.88995695114136	fix_pre	0		19.0	44.0	2.5	/experiments/knapen_aot/videos/S_yt-JH6qCYAnX-I_70.mp4	0.0	200.73262310028076	0.15842103958129883
46	139.04015493392944	response	0	4		44.0	2.5	/experiments/knapen_aot/videos/S_yt-JH6qCYAnX-I_70.mp4	0.0	200.88282108306885	
46	139.04837799072266	movie	1		301.0	44.0	2.5	/experiments/knapen_aot/videos/S_yt-JH6qCYAnX-I_70.mp4	0.0	200.89104413986206	2.5081799030303955
46	141.55655789375305	fix_post	2		12.0	44.0	2.5	/experiments/knapen_aot/videos/S_yt-JH6qCYAnX-I_70.mp4	0.0	203.39922404289246	0.10004115104675293
47	141.6565990447998	fix_pre	0		29.0	45.0	2.5	/experiments/knapen_aot/videos/R_S_dwi2oPzQ1Wo_48.mp4	0.0	203.4992651939392	0.2418978214263916
47	141.8900809288025	response	0	4		45.0	2.5	/experiments/knapen_aot/videos/R_S_dwi2oPzQ1Wo_48.mp4	0.0	203.7327470779419	
47	141.8984968662262	movie	1		301.0	45.0	2.5	/experiments/knapen_aot/videos/R_S_dwi2oPzQ1Wo_48.mp4	0.0	203.7411630153656	2.5080931186676025
47	144.4065899848938	fix_post	2		12.0	45.0	2.5	/experiments/knapen_aot/videos/R_S_dwi2oPzQ1Wo_48.mp4	0.0	206.2492561340332	0.10005593299865723
47	144.433091878891	response	2	4		45.0	2.5	/experiments/knapen_aot/videos/R_S_dwi2oPzQ1Wo_48.mp4	0.0	206.2757580280304	
48	144.50664591789246	fix_pre	0		92.0	46.0	2.5	/experiments/knapen_aot/videos/R_S_production_ID_4787635.mp4	0.0	206.34931206703186	0.7667019367218018
48	145.2651288509369	response	0	4		46.0	2.5	/experiments/knapen_aot/videos/R_S_production_ID_4787635.mp4	0.0	207.1077950000763	
48	145.27334785461426	movie	1		167.0	46.0	2.5	/experiments/knapen_aot/videos/R_S_production_ID_4787635.mp4	0.0	207.11601400375366	2.5082361698150635
48	147.78158402442932	fix_post	2		12.0	46.0	2.5	/experiments/knapen_aot/videos/R_S_production_ID_4787635.mp4	0.0	209.62425017356873	0.09994196891784668
49	147.88152599334717	fix_pre	0		21.0	47.0	2.5	/experiments/knapen_aot/videos/R_S_yt-w_e3sxIzepA_27.mp4	0.0	209.72419214248657	0.17509007453918457
49	148.04841995239258	response	0	4		47.0	2.5	/experiments/knapen_aot/videos/R_S_yt-w_e3sxIzepA_27.mp4	0.0	209.89108610153198	
49	148.05661606788635	movie	1		301.0	47.0	2.5	/experiments/knapen_aot/videos/R_S_yt-w_e3sxIzepA_27.mp4	0.0	209.89928221702576	2.5084168910980225
49	150.56503295898438	fix_post	2		12.0	47.0	2.5	/experiments/knapen_aot/videos/R_S_yt-w_e3sxIzepA_27.mp4	0.0	212.40769910812378	0.09991908073425293
49	150.57565188407898	response	2	4		47.0	2.5	/experiments/knapen_aot/videos/R_S_yt-w_e3sxIzepA_27.mp4	0.0	212.41831803321838	
50	150.66495203971863	fix_pre	0		68.0	48.0	2.5	/experiments/knapen_aot/videos/S_yt-VJ65ukWmdxQ_193.mp4	0.0	212.50761818885803	0.5665819644927979
50	151.22341084480286	response	0	4		48.0	2.5	/experiments/knapen_aot/videos/S_yt-VJ65ukWmdxQ_193.mp4	0.0	213.06607699394226	
50	151.23153400421143	movie	1		301.0	48.0	2.5	/experiments/knapen_aot/videos/S_yt-VJ65ukWmdxQ_193.mp4	0.0	213.07420015335083	2.508389949798584
50	151.68501996994019	response	1	4		48.0	2.5	/experiments/knapen_aot/videos/S_yt-VJ65ukWmdxQ_193.mp4	0.0	213.5276861190796	
50	153.25167894363403	response	1	4		48.0	2.5	/experiments/knapen_aot/videos/S_yt-VJ65ukWmdxQ_193.mp4	0.0	215.09434509277344	
50	153.73992395401	fix_post	2		12.0	48.0	2.5	/experiments/knapen_aot/videos/S_yt-VJ65ukWmdxQ_193.mp4	0.0	215.5825901031494	0.10001897811889648
51	153.8399429321289	fix_pre	0		39.0	49.0	2.5	blank	1.0	215.6826090812683	0.3249650001525879
51	154.156672000885	response	0	4		49.0	2.5	blank	1.0	215.9993381500244	
51	154.1649079322815	movie	1		301.0	49.0	2.5	blank	1.0	216.0075740814209	2.508291006088257
51	155.66499185562134	response	1	4		49.0	2.5	blank	1.0	217.50765800476074	
51	156.67319893836975	fix_post	2		12.0	49.0	2.5	blank	1.0	218.51586508750916	0.1000370979309082
52	156.77323603630066	fix_pre	0		161.0	50.0	2.5	/experiments/knapen_aot/videos/R_S_pexels-cottonbro-9063801_1.mp4	0.0	218.61590218544006	1.341667890548706
52	158.10670399665833	response	0	4		50.0	2.5	/experiments/knapen_aot/videos/R_S_pexels-cottonbro-9063801_1.mp4	0.0	219.94937014579773	
52	158.11490392684937	movie	1		200.0	50.0	2.5	/experiments/knapen_aot/videos/R_S_pexels-cottonbro-9063801_1.mp4	0.0	219.95757007598877	2.5083279609680176
52	160.62323188781738	fix_post	2		12.0	50.0	2.5	/experiments/knapen_aot/videos/R_S_pexels-cottonbro-9063801_1.mp4	0.0	222.4658980369568	0.09996414184570312
53	160.7231960296631	fix_pre	0		36.0	51.0	2.5	/experiments/knapen_aot/videos/R_S_yt-LdHRVIb4nIE_6.mp4	0.0	222.5658621788025	0.29999804496765137
53	161.0150499343872	response	0	4		51.0	2.5	/experiments/knapen_aot/videos/R_S_yt-LdHRVIb4nIE_6.mp4	0.0	222.8577160835266	
53	161.02319407463074	movie	1		301.0	51.0	2.5	/experiments/knapen_aot/videos/R_S_yt-LdHRVIb4nIE_6.mp4	0.0	222.86586022377014	2.5083107948303223
53	163.53150486946106	fix_post	2		12.0	51.0	2.5	/experiments/knapen_aot/videos/R_S_yt-LdHRVIb4nIE_6.mp4	0.0	225.37417101860046	0.10005903244018555
54	163.63156390190125	fix_pre	0		210.0	52.0	2.5	/experiments/knapen_aot/videos/S_yt-qurTr1BJMec_244.mp4	0.0	225.47423005104065	1.7499170303344727
54	165.37349390983582	response	0	4		52.0	2.5	/experiments/knapen_aot/videos/S_yt-qurTr1BJMec_244.mp4	0.0	227.21616005897522	
54	165.38148093223572	movie	1		301.0	52.0	2.5	/experiments/knapen_aot/videos/S_yt-qurTr1BJMec_244.mp4	0.0	227.22414708137512	2.5083930492401123
54	167.88987398147583	fix_post	2		12.0	52.0	2.5	/experiments/knapen_aot/videos/S_yt-qurTr1BJMec_244.mp4	0.0	229.73254013061523	0.10004091262817383
55	167.989914894104	fix_pre	0		28.0	53.0	2.5	/experiments/knapen_aot/videos/R_S_yt-WFiEvQuOqqg_18.mp4	0.0	229.8325810432434	0.23323607444763184
55	168.21493887901306	response	0	4		53.0	2.5	/experiments/knapen_aot/videos/R_S_yt-WFiEvQuOqqg_18.mp4	0.0	230.05760502815247	
55	168.22315096855164	movie	1		301.0	53.0	2.5	/experiments/knapen_aot/videos/R_S_yt-WFiEvQuOqqg_18.mp4	0.0	230.06581711769104	2.5084190368652344
55	170.73157000541687	fix_post	2		12.0	53.0	2.5	/experiments/knapen_aot/videos/R_S_yt-WFiEvQuOqqg_18.mp4	0.0	232.57423615455627	0.09998583793640137
56	170.83155584335327	fix_pre	0		29.0	54.0	2.5	blank	1.0	232.67422199249268	0.24162006378173828
56	171.06494092941284	response	0	4		54.0	2.5	blank	1.0	232.90760707855225	
56	171.073175907135	movie	1		301.0	54.0	2.5	blank	1.0	232.9158420562744	2.5083510875701904
56	173.5815269947052	fix_post	2		12.0	54.0	2.5	blank	1.0	235.4241931438446	0.0998990535736084
57	173.6814260482788	fix_pre	0		39.0	55.0	2.5	/experiments/knapen_aot/videos/S_pexels-rodnae-productions-5993654.mp4	0.0	235.5240921974182	0.32515597343444824
57	173.99082589149475	response	0	4		55.0	2.5	/experiments/knapen_aot/videos/S_pexels-rodnae-productions-5993654.mp4	0.0	235.83349204063416	
57	174.00658202171326	movie	1		163.0	55.0	2.5	/experiments/knapen_aot/videos/S_pexels-rodnae-productions-5993654.mp4	0.0	235.84924817085266	2.508301019668579
57	176.4566900730133	response	1	4		55.0	2.5	/experiments/knapen_aot/videos/S_pexels-rodnae-productions-5993654.mp4	0.0	238.2993562221527	
57	176.51488304138184	fix_post	2		11.0	55.0	2.5	/experiments/knapen_aot/videos/S_pexels-rodnae-productions-5993654.mp4	0.0	238.35754919052124	0.09991192817687988
58	176.61479496955872	fix_pre	0		36.0	56.0	2.5	/experiments/knapen_aot/videos/S_pexels-ekaterina-bolovtsova-7669220.mp4	0.0	238.45746111869812	0.29999303817749023
58	176.9065899848938	response	0	4		56.0	2.5	/experiments/knapen_aot/videos/S_pexels-ekaterina-bolovtsova-7669220.mp4	0.0	238.7492561340332	
58	176.9147880077362	movie	1		163.0	56.0	2.5	/experiments/knapen_aot/videos/S_pexels-ekaterina-bolovtsova-7669220.mp4	0.0	238.7574541568756	2.5083000659942627
58	179.42308807373047	fix_post	2		12.0	56.0	2.5	/experiments/knapen_aot/videos/S_pexels-ekaterina-bolovtsova-7669220.mp4	0.0	241.26575422286987	0.1000819206237793
59	179.52316999435425	fix_pre	0		20.0	57.0	2.5	/experiments/knapen_aot/videos/R_S_yt-ebylvieB_4g_16.mp4	0.0	241.36583614349365	0.16664695739746094
59	179.68164491653442	response	0	4		57.0	2.5	/experiments/knapen_aot/videos/R_S_yt-ebylvieB_4g_16.mp4	0.0	241.52431106567383	
59	179.6898169517517	movie	1		301.0	57.0	2.5	/experiments/knapen_aot/videos/R_S_yt-ebylvieB_4g_16.mp4	0.0	241.5324831008911	2.508352041244507
59	181.86618399620056	response	1	4		57.0	2.5	/experiments/knapen_aot/videos/R_S_yt-ebylvieB_4g_16.mp4	0.0	243.70885014533997	
59	182.19816899299622	fix_post	2		12.0	57.0	2.5	/experiments/knapen_aot/videos/R_S_yt-ebylvieB_4g_16.mp4	0.0	244.04083514213562	0.0998830795288086
60	182.29805207252502	fix_pre	0		520.0	58.0	2.5	/experiments/knapen_aot/videos/S_yt-rlVzHENWufE_61.mp4	0.0	244.14071822166443	4.3333799839019775
60	186.62328004837036	response	0	4		58.0	2.5	/experiments/knapen_aot/videos/S_yt-rlVzHENWufE_61.mp4	0.0	248.46594619750977	
60	186.631432056427	movie	1		301.0	58.0	2.5	/experiments/knapen_aot/videos/S_yt-rlVzHENWufE_61.mp4	0.0	248.4740982055664	2.5083558559417725
60	189.13978791236877	fix_post	2		12.0	58.0	2.5	/experiments/knapen_aot/videos/S_yt-rlVzHENWufE_61.mp4	0.0	250.98245406150818	0.09993100166320801
61	189.23971891403198	fix_pre	0		42.0	59.0	2.5	/experiments/knapen_aot/videos/R_S_yt-uSHBdUi8_V0_24.mp4	0.0	251.0823850631714	0.350024938583374
61	189.58156895637512	response	0	4		59.0	2.5	/experiments/knapen_aot/videos/R_S_yt-uSHBdUi8_V0_24.mp4	0.0	251.42423510551453	
61	189.58974385261536	movie	1		301.0	59.0	2.5	/experiments/knapen_aot/videos/R_S_yt-uSHBdUi8_V0_24.mp4	0.0	251.43241000175476	2.508369207382202
61	192.09811305999756	fix_post	2		12.0	59.0	2.5	/experiments/knapen_aot/videos/R_S_yt-uSHBdUi8_V0_24.mp4	0.0	253.94077920913696	0.09999990463256836
62	192.19811296463013	fix_pre	0		25.0	60.0	2.5	/experiments/knapen_aot/videos/R_S_yt-fQGoTMausn8_88.mp4	0.0	254.04077911376953	0.21661806106567383
62	192.39909601211548	response	0	4		60.0	2.5	/experiments/knapen_aot/videos/R_S_yt-fQGoTMausn8_88.mp4	0.0	254.24176216125488	
62	192.4147310256958	movie	1		301.0	60.0	2.5	/experiments/knapen_aot/videos/R_S_yt-fQGoTMausn8_88.mp4	0.0	254.2573971748352	2.5083978176116943
62	194.9231288433075	fix_post	2		12.0	60.0	2.5	/experiments/knapen_aot/videos/R_S_yt-fQGoTMausn8_88.mp4	0.0	256.7657949924469	0.09996318817138672
63	195.02309203147888	fix_pre	0		55.0	61.0	2.5	/experiments/knapen_aot/videos/S_yt-CeOZeB1LXwE_79.mp4	0.0	256.8657581806183	0.4583408832550049
63	195.47321796417236	response	0	4		61.0	2.5	/experiments/knapen_aot/videos/S_yt-CeOZeB1LXwE_79.mp4	0.0	257.31588411331177	
63	195.4814329147339	movie	1		301.0	61.0	2.5	/experiments/knapen_aot/videos/S_yt-CeOZeB1LXwE_79.mp4	0.0	257.3240990638733	2.5083041191101074
63	197.989737033844	fix_post	2		12.0	61.0	2.5	/experiments/knapen_aot/videos/S_yt-CeOZeB1LXwE_79.mp4	0.0	259.8324031829834	0.09992790222167969
64	198.08966493606567	fix_pre	0		1.0	62.0	2.5	blank	1.0	259.9323310852051	0.008415937423706055
64	198.09130692481995	response	0	4		62.0	2.5	blank	1.0	259.93397307395935	
64	198.09808087348938	movie	1		301.0	62.0	2.5	blank	1.0	259.9407470226288	2.5083351135253906
64	200.58150696754456	response	1	4		62.0	2.5	blank	1.0	262.42417311668396	
64	200.60641598701477	fix_post	2		12.0	62.0	2.5	blank	1.0	262.4490821361542	0.10000395774841309
65	200.70641994476318	fix_pre	0		60.0	63.0	2.5	/experiments/knapen_aot/videos/R_S_yt-8LO59eN9om4_16.mp4	0.0	262.5490860939026	0.4999871253967285
65	201.19822597503662	response	0	4		63.0	2.5	/experiments/knapen_aot/videos/R_S_yt-8LO59eN9om4_16.mp4	0.0	263.040892124176	
65	201.2064070701599	movie	1		301.0	63.0	2.5	/experiments/knapen_aot/videos/R_S_yt-8LO59eN9om4_16.mp4	0.0	263.0490732192993	2.508227825164795
65	203.32424092292786	response	1	4		63.0	2.5	/experiments/knapen_aot/videos/R_S_yt-8LO59eN9om4_16.mp4	0.0	265.16690707206726	
65	203.7146348953247	fix_post	2		12.0	63.0	2.5	/experiments/knapen_aot/videos/R_S_yt-8LO59eN9om4_16.mp4	0.0	265.5573010444641	0.1000521183013916
66	203.8146870136261	fix_pre	0		17.0	64.0	2.5	/experiments/knapen_aot/videos/S_yt-wEbfIR14zZ8_7.mp4	0.0	265.6573531627655	0.1417698860168457
66	203.94820404052734	response	0	4		64.0	2.5	/experiments/knapen_aot/videos/S_yt-wEbfIR14zZ8_7.mp4	0.0	265.79087018966675	
66	203.95645689964294	movie	1		301.0	64.0	2.5	/experiments/knapen_aot/videos/S_yt-wEbfIR14zZ8_7.mp4	0.0	265.79912304878235	2.508226156234741
66	206.46468305587769	fix_post	2		12.0	64.0	2.5	/experiments/knapen_aot/videos/S_yt-wEbfIR14zZ8_7.mp4	0.0	268.3073492050171	0.10004997253417969
67	206.56473302841187	fix_pre	0		6.0	65.0	2.5	/experiments/knapen_aot/videos/R_S_yt-JH6qCYAnX-I_70.mp4	0.0	268.40739917755127	0.05108904838562012
67	206.60642290115356	response	0	4		65.0	2.5	/experiments/knapen_aot/videos/R_S_yt-JH6qCYAnX-I_70.mp4	0.0	268.44908905029297	
67	206.61582207679749	movie	1		301.0	65.0	2.5	/experiments/knapen_aot/videos/R_S_yt-JH6qCYAnX-I_70.mp4	0.0	268.4584882259369	2.5072128772735596
67	209.12303495407104	fix_post	2		12.0	65.0	2.5	/experiments/knapen_aot/videos/R_S_yt-JH6qCYAnX-I_70.mp4	0.0	270.96570110321045	0.09993100166320801
68	209.22296595573425	fix_pre	0		23.0	66.0	2.5	/experiments/knapen_aot/videos/R_S_yt-yXJr3FR2xrM_27.mp4	0.0	271.06563210487366	0.19170308113098145
68	209.40649104118347	response	0	4		66.0	2.5	/experiments/knapen_aot/videos/R_S_yt-yXJr3FR2xrM_27.mp4	0.0	271.2491571903229	
68	209.41466903686523	movie	1		301.0	66.0	2.5	/experiments/knapen_aot/videos/R_S_yt-yXJr3FR2xrM_27.mp4	0.0	271.25733518600464	2.50832200050354
68	210.27568006515503	response	1	4		66.0	2.5	/experiments/knapen_aot/videos/R_S_yt-yXJr3FR2xrM_27.mp4	0.0	272.11834621429443	
68	210.56477999687195	response	1	4		66.0	2.5	/experiments/knapen_aot/videos/R_S_yt-yXJr3FR2xrM_27.mp4	0.0	272.40744614601135	
68	211.5679440498352	response	1	4		66.0	2.5	/experiments/knapen_aot/videos/R_S_yt-yXJr3FR2xrM_27.mp4	0.0	273.4106101989746	
68	211.92299103736877	fix_post	2		12.0	66.0	2.5	/experiments/knapen_aot/videos/R_S_yt-yXJr3FR2xrM_27.mp4	0.0	273.7656571865082	0.1000669002532959
69	212.02305793762207	fix_pre	0		122.0	67.0	2.5	/experiments/knapen_aot/videos/R_S_pexels-tima-miroshnichenko-5717005.mp4	0.0	273.8657240867615	1.0166149139404297
69	213.0314450263977	response	0	4		67.0	2.5	/experiments/knapen_aot/videos/R_S_pexels-tima-miroshnichenko-5717005.mp4	0.0	274.8741111755371	
69	213.0396728515625	movie	1		167.0	67.0	2.5	/experiments/knapen_aot/videos/R_S_pexels-tima-miroshnichenko-5717005.mp4	0.0	274.8823390007019	2.5082411766052246
69	215.50652194023132	response	1	4		67.0	2.5	/experiments/knapen_aot/videos/R_S_pexels-tima-miroshnichenko-5717005.mp4	0.0	277.3491880893707	
69	215.54791402816772	fix_post	2		12.0	67.0	2.5	/experiments/knapen_aot/videos/R_S_pexels-tima-miroshnichenko-5717005.mp4	0.0	277.39058017730713	0.10008001327514648
70	215.64799404144287	fix_pre	0		100.0	68.0	2.5	/experiments/knapen_aot/videos/S_production_ID_4154238.mp4	0.0	277.4906601905823	0.8333070278167725
70	216.47309494018555	response	0	4		68.0	2.5	/experiments/knapen_aot/videos/S_production_ID_4154238.mp4	0.0	278.31576108932495	
70	216.48130106925964	movie	1		184.0	68.0	2.5	/experiments/knapen_aot/videos/S_production_ID_4154238.mp4	0.0	278.32396721839905	2.5083439350128174
70	218.98964500427246	fix_post	2		12.0	68.0	2.5	/experiments/knapen_aot/videos/S_production_ID_4154238.mp4	0.0	280.83231115341187	0.0999908447265625
71	219.08963584899902	fix_pre	0		97.0	69.0	2.5	/experiments/knapen_aot/videos/R_S_yt-GWlwb2QsxIA_48.mp4	0.0	280.9323019981384	0.8107712268829346
71	219.8898060321808	response	0	4		69.0	2.5	/experiments/knapen_aot/videos/R_S_yt-GWlwb2QsxIA_48.mp4	0.0	281.7324721813202	
71	219.90040707588196	movie	1		301.0	69.0	2.5	/experiments/knapen_aot/videos/R_S_yt-GWlwb2QsxIA_48.mp4	0.0	281.74307322502136	2.5059328079223633
71	222.40633988380432	fix_post	2		12.0	69.0	2.5	/experiments/knapen_aot/videos/R_S_yt-GWlwb2QsxIA_48.mp4	0.0	284.2490060329437	0.10004997253417969
72	222.5063898563385	fix_pre	0		21.0	70.0	2.5	blank	1.0	284.3490560054779	0.1749410629272461
72	222.67316198349	response	0	4		70.0	2.5	blank	1.0	284.5158281326294	
72	222.68133091926575	movie	1		301.0	70.0	2.5	blank	1.0	284.52399706840515	2.508291006088257
72	225.189621925354	fix_post	2		12.0	70.0	2.5	blank	1.0	287.0322880744934	0.10011696815490723
73	225.2897388935089	fix_pre	0		47.0	71.0	2.5	/experiments/knapen_aot/videos/S_yt-a9bnYU0Gnxg_59.mp4	0.0	287.1324050426483	0.39147496223449707
73	225.6731219291687	response	0	4		71.0	2.5	/experiments/knapen_aot/videos/S_yt-a9bnYU0Gnxg_59.mp4	0.0	287.5157880783081	
73	225.6812138557434	movie	1		299.0	71.0	2.5	/experiments/knapen_aot/videos/S_yt-a9bnYU0Gnxg_59.mp4	0.0	287.5238800048828	2.5083181858062744
73	227.81838202476501	response	1	4		71.0	2.5	/experiments/knapen_aot/videos/S_yt-a9bnYU0Gnxg_59.mp4	0.0	289.6610481739044	
73	228.18953204154968	fix_post	2		12.0	71.0	2.5	/experiments/knapen_aot/videos/S_yt-a9bnYU0Gnxg_59.mp4	0.0	290.0321981906891	0.10013389587402344
74	228.2896659374237	fix_pre	0		3.0	72.0	2.5	/experiments/knapen_aot/videos/R_S_pexels-rodnae-productions-5993654.mp4	0.0	290.1323320865631	0.02502298355102539
74	228.30644392967224	response	0	4		72.0	2.5	/experiments/knapen_aot/videos/R_S_pexels-rodnae-productions-5993654.mp4	0.0	290.14911007881165	
74	228.31468892097473	movie	1		168.0	72.0	2.5	/experiments/knapen_aot/videos/R_S_pexels-rodnae-productions-5993654.mp4	0.0	290.15735507011414	2.508254051208496
74	230.82294297218323	fix_post	2		12.0	72.0	2.5	/experiments/knapen_aot/videos/R_S_pexels-rodnae-productions-5993654.mp4	0.0	292.66560912132263	0.09997797012329102
75	230.92292094230652	fix_pre	0		24.0	73.0	2.5	/experiments/knapen_aot/videos/S_yt-VTNBCfQxnsk_59.mp4	0.0	292.7655870914459	0.19999313354492188
75	231.11473608016968	response	0	4		73.0	2.5	/experiments/knapen_aot/videos/S_yt-VTNBCfQxnsk_59.mp4	0.0	292.9574022293091	
75	231.12291407585144	movie	1		300.0	73.0	2.5	/experiments/knapen_aot/videos/S_yt-VTNBCfQxnsk_59.mp4	0.0	292.96558022499084	2.508410930633545
75	233.63132500648499	fix_post	2		12.0	73.0	2.5	/experiments/knapen_aot/videos/S_yt-VTNBCfQxnsk_59.mp4	0.0	295.4739911556244	0.1000218391418457
76	233.73134684562683	fix_pre	0		34.0	74.0	2.5	/experiments/knapen_aot/videos/R_S_yt-0Zze3Ff12Ys_58.mp4	0.0	295.57401299476624	0.2832601070404053
76	234.00650691986084	response	0	4		74.0	2.5	/experiments/knapen_aot/videos/R_S_yt-0Zze3Ff12Ys_58.mp4	0.0	295.84917306900024	
76	234.01460695266724	movie	1		300.0	74.0	2.5	/experiments/knapen_aot/videos/R_S_yt-0Zze3Ff12Ys_58.mp4	0.0	295.85727310180664	2.508312940597534
76	236.52291989326477	fix_post	2		12.0	74.0	2.5	/experiments/knapen_aot/videos/R_S_yt-0Zze3Ff12Ys_58.mp4	0.0	298.3655860424042	0.10004496574401855
77	236.6229648590088	fix_pre	0		4.0	75.0	2.5	/experiments/knapen_aot/videos/R_S_pexels-c-technical-6344801.mp4	0.0	298.4656310081482	0.03480219841003418
77	236.64829301834106	response	0	4		75.0	2.5	/experiments/knapen_aot/videos/R_S_pexels-c-technical-6344801.mp4	0.0	298.49095916748047	
77	236.65776705741882	movie	1		199.0	75.0	2.5	/experiments/knapen_aot/videos/R_S_pexels-c-technical-6344801.mp4	0.0	298.5004332065582	2.506802797317505
77	238.73133492469788	response	1	4		75.0	2.5	/experiments/knapen_aot/videos/R_S_pexels-c-technical-6344801.mp4	0.0	300.5740010738373	
77	239.16456985473633	fix_post	2		12.0	75.0	2.5	/experiments/knapen_aot/videos/R_S_pexels-c-technical-6344801.mp4	0.0	301.00723600387573	0.10003018379211426
78	239.26460003852844	fix_pre	0		176.0	76.0	2.5	/experiments/knapen_aot/videos/S_comp_GMT060_117NC_363D_1034_AUSTRALIA_v35_SDR_PS_FINAL_20180731_SDR_2K_AVC.mp4	0.0	301.10726618766785	1.4666168689727783
78	240.7230100631714	response	0	4		76.0	2.5	/experiments/knapen_aot/videos/S_comp_GMT060_117NC_363D_1034_AUSTRALIA_v35_SDR_PS_FINAL_20180731_SDR_2K_AVC.mp4	0.0	302.5656762123108	
78	240.73121690750122	movie	1		165.0	76.0	2.5	/experiments/knapen_aot/videos/S_comp_GMT060_117NC_363D_1034_AUSTRALIA_v35_SDR_PS_FINAL_20180731_SDR_2K_AVC.mp4	0.0	302.5738830566406	2.5084121227264404
78	241.88887000083923	response	1	4		76.0	2.5	/experiments/knapen_aot/videos/S_comp_GMT060_117NC_363D_1034_AUSTRALIA_v35_SDR_PS_FINAL_20180731_SDR_2K_AVC.mp4	0.0	303.73153614997864	
78	243.23962903022766	fix_post	2		12.0	76.0	2.5	/experiments/knapen_aot/videos/S_comp_GMT060_117NC_363D_1034_AUSTRALIA_v35_SDR_PS_FINAL_20180731_SDR_2K_AVC.mp4	0.0	305.08229517936707	0.09997391700744629
79	243.3396029472351	fix_pre	0		51.0	77.0	2.5	blank	1.0	305.1822690963745	0.4249141216278076
79	243.74878692626953	response	0	4		77.0	2.5	blank	1.0	305.59145307540894	
79	243.76451706886292	movie	1		301.0	77.0	2.5	blank	1.0	305.6071832180023	2.508375883102417
79	245.0812909603119	response	1	4		77.0	2.5	blank	1.0	306.9239571094513	
79	245.71463704109192	response	1	4		77.0	2.5	blank	1.0	307.5573031902313	
79	246.27289295196533	fix_post	2		12.0	77.0	2.5	blank	1.0	308.11555910110474	0.10000801086425781
80	246.3729009628296	fix_pre	0		18.0	78.0	2.5	/experiments/knapen_aot/videos/R_S_yt-0d5TkclKWVA_146.mp4	0.0	308.215567111969	0.15024089813232422
80	246.51463294029236	response	0	4		78.0	2.5	/experiments/knapen_aot/videos/R_S_yt-0d5TkclKWVA_146.mp4	0.0	308.35729908943176	
80	246.5231418609619	movie	1		301.0	78.0	2.5	/experiments/knapen_aot/videos/R_S_yt-0d5TkclKWVA_146.mp4	0.0	308.3658080101013	2.5080831050872803
80	249.0312249660492	fix_post	2		12.0	78.0	2.5	/experiments/knapen_aot/videos/R_S_yt-0d5TkclKWVA_146.mp4	0.0	310.8738911151886	0.09995603561401367
81	249.1311810016632	fix_pre	0		56.0	79.0	2.5	/experiments/knapen_aot/videos/S_yt-sWJc_Do8EaI_32.mp4	0.0	310.9738471508026	0.46663594245910645
81	249.58961296081543	response	0	4		79.0	2.5	/experiments/knapen_aot/videos/S_yt-sWJc_Do8EaI_32.mp4	0.0	311.43227910995483	
81	249.59781694412231	movie	1		301.0	79.0	2.5	/experiments/knapen_aot/videos/S_yt-sWJc_Do8EaI_32.mp4	0.0	311.4404830932617	2.508405923843384
81	252.1062228679657	fix_post	2		12.0	79.0	2.5	/experiments/knapen_aot/videos/S_yt-sWJc_Do8EaI_32.mp4	0.0	313.9488890171051	0.09995818138122559
82	252.20618104934692	fix_pre	0		20.0	80.0	2.5	/experiments/knapen_aot/videos/S_yt-fk-z6WCvjjA_3.mp4	0.0	314.0488471984863	0.16662096977233887
82	252.36469888687134	response	0	4		80.0	2.5	/experiments/knapen_aot/videos/S_yt-fk-z6WCvjjA_3.mp4	0.0	314.20736503601074	
82	252.37280201911926	movie	1		300.0	80.0	2.5	/experiments/knapen_aot/videos/S_yt-fk-z6WCvjjA_3.mp4	0.0	314.21546816825867	2.5084240436553955
82	254.88122606277466	fix_post	2		12.0	80.0	2.5	/experiments/knapen_aot/videos/S_yt-fk-z6WCvjjA_3.mp4	0.0	316.72389221191406	0.09999895095825195
83	254.9812250137329	fix_pre	0		21.0	81.0	2.5	/experiments/knapen_aot/videos/S_yt-tqxZlasEvZA_43.mp4	0.0	316.8238911628723	0.1758279800415039
83	255.14803385734558	response	0	4		81.0	2.5	/experiments/knapen_aot/videos/S_yt-tqxZlasEvZA_43.mp4	0.0	316.990700006485	
83	255.1570529937744	movie	1		301.0	81.0	2.5	/experiments/knapen_aot/videos/S_yt-tqxZlasEvZA_43.mp4	0.0	316.9997191429138	2.5075230598449707
83	257.6645760536194	fix_post	2		12.0	81.0	2.5	/experiments/knapen_aot/videos/S_yt-tqxZlasEvZA_43.mp4	0.0	319.5072422027588	0.1000528335571289
84	257.7646288871765	fix_pre	0		15.0	82.0	2.5	/experiments/knapen_aot/videos/S_yt-ebylvieB_4g_16.mp4	0.0	319.6072950363159	0.12488102912902832
84	257.88127398490906	response	0	4		82.0	2.5	/experiments/knapen_aot/videos/S_yt-ebylvieB_4g_16.mp4	0.0	319.72394013404846	
84	257.88950991630554	movie	1		301.0	82.0	2.5	/experiments/knapen_aot/videos/S_yt-ebylvieB_4g_16.mp4	0.0	319.73217606544495	2.508371114730835
84	260.3978810310364	fix_post	2		12.0	82.0	2.5	/experiments/knapen_aot/videos/S_yt-ebylvieB_4g_16.mp4	0.0	322.2405471801758	0.09997081756591797
85	260.4978518486023	fix_pre	0		49.0	83.0	2.5	blank	1.0	322.3405179977417	0.4091482162475586
85	260.8981020450592	response	0	4		83.0	2.5	blank	1.0	322.7407681941986	
85	260.90700006484985	movie	1		301.0	83.0	2.5	blank	1.0	322.74966621398926	2.507391929626465
85	263.4143919944763	fix_post	2		12.0	83.0	2.5	blank	1.0	325.2570581436157	0.10012602806091309
87	263.51451802253723	stim	0		114.0					325.35718417167664	0.9549539089202881
87	264.4609429836273	response	0	space						326.3036091327667	
