trial_nr	onset	event_type	phase	response	nr_frames	movie_index	movie_duration	movie_file	blank	onset_abs	duration
0	0.12501215934753418	stim	0		116.0					73.88232517242432	0.9660890102386475
0	1.0835270881652832	response	0	space						74.84084010124207	
1	1.0911011695861816	stim	0		121.0					74.84841418266296	1.0080418586730957
1	1.6001830101013184	response	0	space						75.3574960231781	
1	2.0991430282592773	stim	1		120.0					75.85645604133606	0.9999771118164062
1	3.06589412689209	response	1	space						76.82320713996887	
2	3.0991201400756836	fix_pre	0		186.0	0.0	2.5	/experiments/knapen_aot/videos/R_S_yt-xvIZtEVkebk_462.mp4	0.0	76.85643315315247	1.5500030517578125
2	4.6408610343933105	response	0	space		0.0	2.5	/experiments/knapen_aot/videos/R_S_yt-xvIZtEVkebk_462.mp4	0.0	78.39817404747009	
2	4.649123191833496	movie	1		300.0	0.0	2.5	/experiments/knapen_aot/videos/R_S_yt-xvIZtEVkebk_462.mp4	0.0	78.40643620491028	2.5083508491516113
2	7.157474040985107	fix_post	2		12.0	0.0	2.5	/experiments/knapen_aot/videos/R_S_yt-xvIZtEVkebk_462.mp4	0.0	80.91478705406189	0.10000014305114746
3	7.257474184036255	fix_pre	0		34.0	1.0	2.5	/experiments/knapen_aot/videos/S_yt--wYgjXsc1XQ_106.mp4	0.0	81.01478719711304	0.2837848663330078
3	7.536535024642944	response	0	2		1.0	2.5	/experiments/knapen_aot/videos/S_yt--wYgjXsc1XQ_106.mp4	0.0	81.29384803771973	
3	7.541259050369263	movie	1		300.0	1.0	2.5	/experiments/knapen_aot/videos/S_yt--wYgjXsc1XQ_106.mp4	0.0	81.29857206344604	2.5078389644622803
3	10.049098014831543	fix_post	2		12.0	1.0	2.5	/experiments/knapen_aot/videos/S_yt--wYgjXsc1XQ_106.mp4	0.0	83.80641102790833	0.09995603561401367
4	10.149054050445557	fix_pre	0		25.0	2.0	2.5	/experiments/knapen_aot/videos/R_S_pexels-koolshooters-7327405.mp4	0.0	83.90636706352234	0.20833706855773926
4	10.341646194458008	response	0	2		2.0	2.5	/experiments/knapen_aot/videos/R_S_pexels-koolshooters-7327405.mp4	0.0	84.09895920753479	
4	10.357391119003296	movie	1		165.0	2.0	2.5	/experiments/knapen_aot/videos/R_S_pexels-koolshooters-7327405.mp4	0.0	84.11470413208008	2.508373975753784
4	12.86576509475708	fix_post	2		12.0	2.0	2.5	/experiments/knapen_aot/videos/R_S_pexels-koolshooters-7327405.mp4	0.0	86.62307810783386	0.10000300407409668
5	12.965768098831177	fix_pre	0		23.0	3.0	2.5	/experiments/knapen_aot/videos/R_S_pexels-cottonbro-9063801.mp4	0.0	86.72308111190796	0.19167089462280273
5	13.149279117584229	response	0	2		3.0	2.5	/experiments/knapen_aot/videos/R_S_pexels-cottonbro-9063801.mp4	0.0	86.90659213066101	
5	13.15743899345398	movie	1		201.0	3.0	2.5	/experiments/knapen_aot/videos/R_S_pexels-cottonbro-9063801.mp4	0.0	86.91475200653076	2.508316993713379
5	15.665755987167358	fix_post	2		12.0	3.0	2.5	/experiments/knapen_aot/videos/R_S_pexels-cottonbro-9063801.mp4	0.0	89.42306900024414	0.09992718696594238
6	15.7656831741333	fix_pre	0		22.0	4.0	2.5	/experiments/knapen_aot/videos/R_S_AK_A004_C012_SDR_20191217_SDR_2K_AVC.mp4	0.0	89.52299618721008	0.18333101272583008
6	15.94087815284729	response	0	2		4.0	2.5	/experiments/knapen_aot/videos/R_S_AK_A004_C012_SDR_20191217_SDR_2K_AVC.mp4	0.0	89.69819116592407	
6	15.94901418685913	movie	1		164.0	4.0	2.5	/experiments/knapen_aot/videos/R_S_AK_A004_C012_SDR_20191217_SDR_2K_AVC.mp4	0.0	89.70632719993591	2.508375883102417
6	18.457390069961548	fix_post	2		12.0	4.0	2.5	/experiments/knapen_aot/videos/R_S_AK_A004_C012_SDR_20191217_SDR_2K_AVC.mp4	0.0	92.21470308303833	0.09998011589050293
7	18.55737018585205	fix_pre	0		11.0	5.0	2.5	/experiments/knapen_aot/videos/S_yt-Pinnv3-3GFU_452.mp4	0.0	92.31468319892883	0.09168887138366699
7	18.640844106674194	response	0	2		5.0	2.5	/experiments/knapen_aot/videos/S_yt-Pinnv3-3GFU_452.mp4	0.0	92.39815711975098	
7	18.649059057235718	movie	1		301.0	5.0	2.5	/experiments/knapen_aot/videos/S_yt-Pinnv3-3GFU_452.mp4	0.0	92.4063720703125	2.5082859992980957
7	21.157345056533813	fix_post	2		12.0	5.0	2.5	/experiments/knapen_aot/videos/S_yt-Pinnv3-3GFU_452.mp4	0.0	94.9146580696106	0.10016298294067383
8	21.257508039474487	fix_pre	0		30.0	6.0	2.5	/experiments/knapen_aot/videos/S_yt-3JApfnMu5cU_378.mp4	0.0	95.01482105255127	0.24986600875854492
8	21.499231100082397	response	0	2		6.0	2.5	/experiments/knapen_aot/videos/S_yt-3JApfnMu5cU_378.mp4	0.0	95.25654411315918	
8	21.507374048233032	movie	1		301.0	6.0	2.5	/experiments/knapen_aot/videos/S_yt-3JApfnMu5cU_378.mp4	0.0	95.26468706130981	2.508345127105713
8	24.015719175338745	fix_post	2		12.0	6.0	2.5	/experiments/knapen_aot/videos/S_yt-3JApfnMu5cU_378.mp4	0.0	97.77303218841553	0.09996795654296875
9	24.115687131881714	fix_pre	0		17.0	7.0	2.5	blank	1.0	97.8730001449585	0.14168787002563477
9	24.249073028564453	response	0	2		7.0	2.5	blank	1.0	98.00638604164124	
9	24.25737500190735	movie	1		301.0	7.0	2.5	blank	1.0	98.01468801498413	2.5083231925964355
9	26.765698194503784	fix_post	2		12.0	7.0	2.5	blank	1.0	100.52301120758057	0.1000218391418457
10	26.86572003364563	fix_pre	0		43.0	8.0	2.5	/experiments/knapen_aot/videos/S_EFR8AteY59I_15.mp4	0.0	100.62303304672241	0.3582611083984375
10	27.21572518348694	response	0	2		8.0	2.5	/experiments/knapen_aot/videos/S_EFR8AteY59I_15.mp4	0.0	100.97303819656372	
10	27.223981142044067	movie	1		297.0	8.0	2.5	/experiments/knapen_aot/videos/S_EFR8AteY59I_15.mp4	0.0	100.98129415512085	2.508344888687134
10	29.7323260307312	fix_post	2		12.0	8.0	2.5	/experiments/knapen_aot/videos/S_EFR8AteY59I_15.mp4	0.0	103.48963904380798	0.10000801086425781
11	29.83233404159546	fix_pre	0		11.0	9.0	2.5	/experiments/knapen_aot/videos/S_yt-JtR6WZXT2kU_8.mp4	0.0	103.58964705467224	0.09166908264160156
11	29.91581916809082	response	0	2		9.0	2.5	/experiments/knapen_aot/videos/S_yt-JtR6WZXT2kU_8.mp4	0.0	103.6731321811676	
11	29.92400312423706	movie	1		301.0	9.0	2.5	/experiments/knapen_aot/videos/S_yt-JtR6WZXT2kU_8.mp4	0.0	103.68131613731384	2.5083298683166504
11	32.43233299255371	fix_post	2		12.0	9.0	2.5	/experiments/knapen_aot/videos/S_yt-JtR6WZXT2kU_8.mp4	0.0	106.1896460056305	0.10000300407409668
12	32.53233599662781	fix_pre	0		22.0	10.0	2.5	/experiments/knapen_aot/videos/R_S_video_inspire_california_catalina_00005.1080-h264.mp4	0.0	106.28964900970459	0.18332910537719727
12	32.70746302604675	response	0	2		10.0	2.5	/experiments/knapen_aot/videos/R_S_video_inspire_california_catalina_00005.1080-h264.mp4	0.0	106.46477603912354	
12	32.715665102005005	movie	1		168.0	10.0	2.5	/experiments/knapen_aot/videos/R_S_video_inspire_california_catalina_00005.1080-h264.mp4	0.0	106.47297811508179	2.5082340240478516
12	35.223899126052856	fix_post	2		12.0	10.0	2.5	/experiments/knapen_aot/videos/R_S_video_inspire_california_catalina_00005.1080-h264.mp4	0.0	108.98121213912964	0.10004687309265137
13	35.32394599914551	fix_pre	0		18.0	11.0	2.5	/experiments/knapen_aot/videos/R_S_yt-31yLemkW42Q_111.mp4	0.0	109.08125901222229	0.15003609657287598
13	35.46581315994263	response	0	2		11.0	2.5	/experiments/knapen_aot/videos/R_S_yt-31yLemkW42Q_111.mp4	0.0	109.22312617301941	
13	35.473982095718384	movie	1		301.0	11.0	2.5	/experiments/knapen_aot/videos/R_S_yt-31yLemkW42Q_111.mp4	0.0	109.23129510879517	2.508315086364746
13	37.98229718208313	fix_post	2		12.0	11.0	2.5	/experiments/knapen_aot/videos/R_S_yt-31yLemkW42Q_111.mp4	0.0	111.73961019515991	0.09992694854736328
14	38.08222413063049	fix_pre	0		24.0	12.0	2.5	/experiments/knapen_aot/videos/R_S_yt-Xs7TCzdnUJQ_79.mp4	0.0	111.83953714370728	0.20003199577331543
14	38.27408814430237	response	0	2		12.0	2.5	/experiments/knapen_aot/videos/R_S_yt-Xs7TCzdnUJQ_79.mp4	0.0	112.03140115737915	
14	38.28225612640381	movie	1		301.0	12.0	2.5	/experiments/knapen_aot/videos/R_S_yt-Xs7TCzdnUJQ_79.mp4	0.0	112.03956913948059	2.5083799362182617
14	40.79063606262207	fix_post	2		12.0	12.0	2.5	/experiments/knapen_aot/videos/R_S_yt-Xs7TCzdnUJQ_79.mp4	0.0	114.54794907569885	0.09997797012329102
15	40.89061403274536	fix_pre	0		25.0	13.0	2.5	blank	1.0	114.64792704582214	0.20833706855773926
15	41.09072804450989	response	0	2		13.0	2.5	blank	1.0	114.84804105758667	
15	41.0989511013031	movie	1		301.0	13.0	2.5	blank	1.0	114.85626411437988	2.508344888687134
15	43.607295989990234	fix_post	2		12.0	13.0	2.5	blank	1.0	117.36460900306702	0.10025501251220703
16	43.70755100250244	fix_pre	0		90.0	14.0	2.5	/experiments/knapen_aot/videos/S_yt-CEQnXB0LxQU_278.mp4	0.0	117.46486401557922	0.7499570846557617
16	44.4491240978241	response	0	2		14.0	2.5	/experiments/knapen_aot/videos/S_yt-CEQnXB0LxQU_278.mp4	0.0	118.20643711090088	
16	44.4575080871582	movie	1		301.0	14.0	2.5	/experiments/knapen_aot/videos/S_yt-CEQnXB0LxQU_278.mp4	0.0	118.21482110023499	2.508090019226074
16	46.96559810638428	fix_post	2		12.0	14.0	2.5	/experiments/knapen_aot/videos/S_yt-CEQnXB0LxQU_278.mp4	0.0	120.72291111946106	0.10004305839538574
17	47.06564116477966	fix_pre	0		53.0	15.0	2.5	/experiments/knapen_aot/videos/S_yt-RWN5qOIgqec_25.mp4	0.0	120.82295417785645	0.44161391258239746
17	47.4990119934082	response	0	2		15.0	2.5	/experiments/knapen_aot/videos/S_yt-RWN5qOIgqec_25.mp4	0.0	121.25632500648499	
17	47.50725507736206	movie	1		301.0	15.0	2.5	/experiments/knapen_aot/videos/S_yt-RWN5qOIgqec_25.mp4	0.0	121.26456809043884	2.5083138942718506
17	50.01556897163391	fix_post	2		12.0	15.0	2.5	/experiments/knapen_aot/videos/S_yt-RWN5qOIgqec_25.mp4	0.0	123.7728819847107	0.10000300407409668
18	50.11557197570801	fix_pre	0		36.0	16.0	2.5	/experiments/knapen_aot/videos/R_S_yt-s-J3C6e5A3Q_18.mp4	0.0	123.87288498878479	0.30019521713256836
18	50.39985203742981	response	0	2		16.0	2.5	/experiments/knapen_aot/videos/R_S_yt-s-J3C6e5A3Q_18.mp4	0.0	124.15716505050659	
18	50.415767192840576	movie	1		300.0	16.0	2.5	/experiments/knapen_aot/videos/R_S_yt-s-J3C6e5A3Q_18.mp4	0.0	124.17308020591736	2.5081379413604736
18	52.92390513420105	fix_post	2		12.0	16.0	2.5	/experiments/knapen_aot/videos/R_S_yt-s-J3C6e5A3Q_18.mp4	0.0	126.68121814727783	0.10001397132873535
19	53.023919105529785	fix_pre	0		43.0	17.0	2.5	/experiments/knapen_aot/videos/R_S_ILSVRC2015_train_00551000.mp4	0.0	126.78123211860657	0.35829687118530273
19	53.37409520149231	response	0	2		17.0	2.5	/experiments/knapen_aot/videos/R_S_ILSVRC2015_train_00551000.mp4	0.0	127.13140821456909	
19	53.38221597671509	movie	1		301.0	17.0	2.5	/experiments/knapen_aot/videos/R_S_ILSVRC2015_train_00551000.mp4	0.0	127.13952898979187	2.50835919380188
19	55.89057517051697	fix_post	2		12.0	17.0	2.5	/experiments/knapen_aot/videos/R_S_ILSVRC2015_train_00551000.mp4	0.0	129.64788818359375	0.10002803802490234
20	55.99060320854187	fix_pre	0		34.0	18.0	2.5	/experiments/knapen_aot/videos/R_S_yt-VQtbKGzI9SE_431.mp4	0.0	129.74791622161865	0.2832059860229492
20	56.26571202278137	response	0	2		18.0	2.5	/experiments/knapen_aot/videos/R_S_yt-VQtbKGzI9SE_431.mp4	0.0	130.02302503585815	
20	56.27380919456482	movie	1		298.0	18.0	2.5	/experiments/knapen_aot/videos/R_S_yt-VQtbKGzI9SE_431.mp4	0.0	130.0311222076416	2.508474826812744
20	58.78228402137756	fix_post	2		12.0	18.0	2.5	/experiments/knapen_aot/videos/R_S_yt-VQtbKGzI9SE_431.mp4	0.0	132.53959703445435	0.09997010231018066
21	58.882254123687744	fix_pre	0		27.0	19.0	2.5	/experiments/knapen_aot/videos/R_S_ILSVRC2015_train_00572000.mp4	0.0	132.63956713676453	0.22499489784240723
21	59.09905409812927	response	0	2		19.0	2.5	/experiments/knapen_aot/videos/R_S_ILSVRC2015_train_00572000.mp4	0.0	132.85636711120605	
21	59.10724902153015	movie	1		301.0	19.0	2.5	/experiments/knapen_aot/videos/R_S_ILSVRC2015_train_00572000.mp4	0.0	132.86456203460693	2.5083820819854736
21	61.615631103515625	fix_post	2		12.0	19.0	2.5	/experiments/knapen_aot/videos/R_S_ILSVRC2015_train_00572000.mp4	0.0	135.3729441165924	0.09994006156921387
22	61.71557116508484	fix_pre	0		30.0	20.0	2.5	blank	1.0	135.47288417816162	0.2500269412994385
22	61.95742106437683	response	0	2		20.0	2.5	blank	1.0	135.7147340774536	
22	61.96559810638428	movie	1		301.0	20.0	2.5	blank	1.0	135.72291111946106	2.508298873901367
22	63.66570210456848	response	1	2		20.0	2.5	blank	1.0	137.42301511764526	
22	64.47389698028564	fix_post	2		12.0	20.0	2.5	blank	1.0	138.23120999336243	0.09996318817138672
23	64.57386016845703	fix_pre	0		77.0	21.0	2.5	/experiments/knapen_aot/videos/S_ILSVRC2015_train_00324000.mp4	0.0	138.3311731815338	0.6416728496551514
23	65.20733404159546	response	0	2		21.0	2.5	/experiments/knapen_aot/videos/S_ILSVRC2015_train_00324000.mp4	0.0	138.96464705467224	
23	65.21553301811218	movie	1		301.0	21.0	2.5	/experiments/knapen_aot/videos/S_ILSVRC2015_train_00324000.mp4	0.0	138.97284603118896	2.508212089538574
23	67.72374510765076	fix_post	2		12.0	21.0	2.5	/experiments/knapen_aot/videos/S_ILSVRC2015_train_00324000.mp4	0.0	141.48105812072754	0.10009407997131348
24	67.82383918762207	fix_pre	0		26.0	22.0	2.5	/experiments/knapen_aot/videos/R_S_yt-OdTWn1U1mO4_68.mp4	0.0	141.58115220069885	0.21680998802185059
24	68.03219103813171	response	0	2		22.0	2.5	/experiments/knapen_aot/videos/R_S_yt-OdTWn1U1mO4_68.mp4	0.0	141.7895040512085	
24	68.04064917564392	movie	1		301.0	22.0	2.5	/experiments/knapen_aot/videos/R_S_yt-OdTWn1U1mO4_68.mp4	0.0	141.7979621887207	2.5081989765167236
24	70.54884815216064	fix_post	2		12.0	22.0	2.5	/experiments/knapen_aot/videos/R_S_yt-OdTWn1U1mO4_68.mp4	0.0	144.30616116523743	0.10002684593200684
25	70.64887499809265	fix_pre	0		26.0	23.0	2.5	/experiments/knapen_aot/videos/S_production_ID_4997166.mp4	0.0	144.40618801116943	0.21667098999023438
25	70.85733008384705	response	0	2		23.0	2.5	/experiments/knapen_aot/videos/S_production_ID_4997166.mp4	0.0	144.61464309692383	
25	70.86554598808289	movie	1		163.0	23.0	2.5	/experiments/knapen_aot/videos/S_production_ID_4997166.mp4	0.0	144.62285900115967	2.508397102355957
25	73.37394309043884	fix_post	2		12.0	23.0	2.5	/experiments/knapen_aot/videos/S_production_ID_4997166.mp4	0.0	147.13125610351562	0.09977102279663086
26	73.47371411323547	fix_pre	0		36.0	24.0	2.5	/experiments/knapen_aot/videos/R_S_yt-xSGPe0KemD4_384.mp4	0.0	147.23102712631226	0.3000669479370117
26	73.76563906669617	response	0	2		24.0	2.5	/experiments/knapen_aot/videos/R_S_yt-xSGPe0KemD4_384.mp4	0.0	147.52295207977295	
26	73.77378106117249	movie	1		301.0	24.0	2.5	/experiments/knapen_aot/videos/R_S_yt-xSGPe0KemD4_384.mp4	0.0	147.53109407424927	2.5083489418029785
26	76.28213000297546	fix_post	2		12.0	24.0	2.5	/experiments/knapen_aot/videos/R_S_yt-xSGPe0KemD4_384.mp4	0.0	150.03944301605225	0.10003519058227539
27	76.38216519355774	fix_pre	0		931.0	25.0	2.5	/experiments/knapen_aot/videos/R_S_yt-83nimFMNhrM_131.mp4	0.0	150.13947820663452	7.7582337856292725
27	84.13219499588013	response	0	2		25.0	2.5	/experiments/knapen_aot/videos/R_S_yt-83nimFMNhrM_131.mp4	0.0	157.8895080089569	
27	84.14039897918701	movie	1		301.0	25.0	2.5	/experiments/knapen_aot/videos/R_S_yt-83nimFMNhrM_131.mp4	0.0	157.8977119922638	2.5083861351013184
27	86.64878511428833	fix_post	2		12.0	25.0	2.5	/experiments/knapen_aot/videos/R_S_yt-83nimFMNhrM_131.mp4	0.0	160.4060981273651	0.10008597373962402
28	86.74887108802795	fix_pre	0		52.0	26.0	2.5	/experiments/knapen_aot/videos/S_yt-YykKZWKmLnQ_386.mp4	0.0	160.50618410110474	0.4331839084625244
28	87.17386102676392	response	0	2		26.0	2.5	/experiments/knapen_aot/videos/S_yt-YykKZWKmLnQ_386.mp4	0.0	160.9311740398407	
28	87.18205499649048	movie	1		301.0	26.0	2.5	/experiments/knapen_aot/videos/S_yt-YykKZWKmLnQ_386.mp4	0.0	160.93936800956726	2.5083720684051514
28	89.69042706489563	fix_post	2		12.0	26.0	2.5	/experiments/knapen_aot/videos/S_yt-YykKZWKmLnQ_386.mp4	0.0	163.4477400779724	0.10012698173522949
29	89.79055404663086	fix_pre	0		37.0	27.0	2.5	/experiments/knapen_aot/videos/R_S_yt-YeT4acsbqok_210.mp4	0.0	163.54786705970764	0.30818700790405273
29	90.09046912193298	response	0	2		27.0	2.5	/experiments/knapen_aot/videos/R_S_yt-YeT4acsbqok_210.mp4	0.0	163.84778213500977	
29	90.09874105453491	movie	1		301.0	27.0	2.5	/experiments/knapen_aot/videos/R_S_yt-YeT4acsbqok_210.mp4	0.0	163.8560540676117	2.5083560943603516
29	92.60709714889526	fix_post	2		12.0	27.0	2.5	/experiments/knapen_aot/videos/R_S_yt-YeT4acsbqok_210.mp4	0.0	166.36441016197205	0.1000058650970459
30	92.70710301399231	fix_pre	0		17.0	28.0	2.5	blank	1.0	166.4644160270691	0.14165997505187988
30	92.84055519104004	response	0	2		28.0	2.5	blank	1.0	166.59786820411682	
30	92.84876298904419	movie	1		301.0	28.0	2.5	blank	1.0	166.60607600212097	2.508316993713379
30	95.35707998275757	fix_post	2		12.0	28.0	2.5	blank	1.0	169.11439299583435	0.10002517700195312
31	95.45710515975952	fix_pre	0		37.0	29.0	2.5	/experiments/knapen_aot/videos/R_S_yt-738MRS0yI6g_177.mp4	0.0	169.2144181728363	0.30829286575317383
31	95.74962615966797	response	0	2		29.0	2.5	/experiments/knapen_aot/videos/R_S_yt-738MRS0yI6g_177.mp4	0.0	169.50693917274475	
31	95.7653980255127	movie	1		301.0	29.0	2.5	/experiments/knapen_aot/videos/R_S_yt-738MRS0yI6g_177.mp4	0.0	169.52271103858948	2.508275032043457
31	98.27367305755615	fix_post	2		12.0	29.0	2.5	/experiments/knapen_aot/videos/R_S_yt-738MRS0yI6g_177.mp4	0.0	172.03098607063293	0.10001301765441895
32	98.37368607521057	fix_pre	0		9.0	30.0	2.5	/experiments/knapen_aot/videos/R_S_yt-kRR0CluqaX4_130.mp4	0.0	172.13099908828735	0.07637691497802734
32	98.44071412086487	response	0	2		30.0	2.5	/experiments/knapen_aot/videos/R_S_yt-kRR0CluqaX4_130.mp4	0.0	172.19802713394165	
32	98.4500629901886	movie	1		301.0	30.0	2.5	/experiments/knapen_aot/videos/R_S_yt-kRR0CluqaX4_130.mp4	0.0	172.20737600326538	2.507016181945801
32	100.9570791721344	fix_post	2		12.0	30.0	2.5	/experiments/knapen_aot/videos/R_S_yt-kRR0CluqaX4_130.mp4	0.0	174.71439218521118	0.09996986389160156
33	101.057049036026	fix_pre	0		56.0	31.0	2.5	/experiments/knapen_aot/videos/R_S_b2-2.mp4	0.0	174.81436204910278	0.4666450023651123
33	101.5155200958252	response	0	2		31.0	2.5	/experiments/knapen_aot/videos/R_S_b2-2.mp4	0.0	175.27283310890198	
33	101.52369403839111	movie	1		179.0	31.0	2.5	/experiments/knapen_aot/videos/R_S_b2-2.mp4	0.0	175.2810070514679	2.508420944213867
33	104.03211498260498	fix_post	2		12.0	31.0	2.5	/experiments/knapen_aot/videos/R_S_b2-2.mp4	0.0	177.78942799568176	0.09990906715393066
34	104.13202404975891	fix_pre	0		29.0	32.0	2.5	/experiments/knapen_aot/videos/S_ILSVRC2015_train_00682000.mp4	0.0	177.8893370628357	0.24169611930847168
34	104.35788917541504	response	0	2		32.0	2.5	/experiments/knapen_aot/videos/S_ILSVRC2015_train_00682000.mp4	0.0	178.11520218849182	
34	104.37372016906738	movie	1		301.0	32.0	2.5	/experiments/knapen_aot/videos/S_ILSVRC2015_train_00682000.mp4	0.0	178.13103318214417	2.5082478523254395
34	106.88196802139282	fix_post	2		12.0	32.0	2.5	/experiments/knapen_aot/videos/S_ILSVRC2015_train_00682000.mp4	0.0	180.6392810344696	0.10001301765441895
35	106.98198103904724	fix_pre	0		106.0	33.0	2.5	/experiments/knapen_aot/videos/S_yt-y6JsUW0eSW8_32.mp4	0.0	180.73929405212402	0.8833200931549072
35	107.8571400642395	response	0	2		33.0	2.5	/experiments/knapen_aot/videos/S_yt-y6JsUW0eSW8_32.mp4	0.0	181.61445307731628	
35	107.86530113220215	movie	1		301.0	33.0	2.5	/experiments/knapen_aot/videos/S_yt-y6JsUW0eSW8_32.mp4	0.0	181.62261414527893	2.5083649158477783
35	110.37366604804993	fix_post	2		12.0	33.0	2.5	/experiments/knapen_aot/videos/S_yt-y6JsUW0eSW8_32.mp4	0.0	184.1309790611267	0.0999300479888916
36	110.47359609603882	fix_pre	0		77.0	34.0	2.5	/experiments/knapen_aot/videos/R_S_yt-C0INfEJ4Awk_53.mp4	0.0	184.2309091091156	0.6417191028594971
36	111.0996961593628	response	0	2		34.0	2.5	/experiments/knapen_aot/videos/R_S_yt-C0INfEJ4Awk_53.mp4	0.0	184.85700917243958	
36	111.11531519889832	movie	1		301.0	34.0	2.5	/experiments/knapen_aot/videos/R_S_yt-C0INfEJ4Awk_53.mp4	0.0	184.8726282119751	2.508349895477295
36	113.62366509437561	fix_post	2		12.0	34.0	2.5	/experiments/knapen_aot/videos/R_S_yt-C0INfEJ4Awk_53.mp4	0.0	187.3809781074524	0.10001802444458008
37	113.72368311882019	fix_pre	0		210.0	35.0	2.5	blank	1.0	187.48099613189697	1.7498939037322998
37	115.4654951095581	response	0	2		35.0	2.5	blank	1.0	189.2228081226349	
37	115.47357702255249	movie	1		301.0	35.0	2.5	blank	1.0	189.23089003562927	2.5083751678466797
37	117.98195219039917	fix_post	2		12.0	35.0	2.5	blank	1.0	191.73926520347595	0.09998393058776855
38	118.08193612098694	fix_pre	0		39.0	36.0	2.5	/experiments/knapen_aot/videos/S_yt-dkBlyE3igk0_44.mp4	0.0	191.83924913406372	0.32501792907714844
38	118.39874815940857	response	0	2		36.0	2.5	/experiments/knapen_aot/videos/S_yt-dkBlyE3igk0_44.mp4	0.0	192.15606117248535	
38	118.40695405006409	movie	1		301.0	36.0	2.5	/experiments/knapen_aot/videos/S_yt-dkBlyE3igk0_44.mp4	0.0	192.16426706314087	2.5084030628204346
38	120.91535711288452	fix_post	2		12.0	36.0	2.5	/experiments/knapen_aot/videos/S_yt-dkBlyE3igk0_44.mp4	0.0	194.6726701259613	0.09996986389160156
39	121.01532697677612	fix_pre	0		29.0	37.0	2.5	/experiments/knapen_aot/videos/S_production_ID_5146014.mp4	0.0	194.7726399898529	0.24164319038391113
39	121.2488100528717	response	0	2		37.0	2.5	/experiments/knapen_aot/videos/S_production_ID_5146014.mp4	0.0	195.0061230659485	
39	121.25697016716003	movie	1		185.0	37.0	2.5	/experiments/knapen_aot/videos/S_production_ID_5146014.mp4	0.0	195.01428318023682	2.508431911468506
39	123.76540207862854	fix_post	2		12.0	37.0	2.5	/experiments/knapen_aot/videos/S_production_ID_5146014.mp4	0.0	197.52271509170532	0.09983992576599121
40	123.86524200439453	fix_pre	0		104.0	38.0	2.5	/experiments/knapen_aot/videos/R_S_yt-JH6qCYAnX-I_70.mp4	0.0	197.6225550174713	0.8666460514068604
40	124.72372913360596	response	0	2		38.0	2.5	/experiments/knapen_aot/videos/R_S_yt-JH6qCYAnX-I_70.mp4	0.0	198.48104214668274	
40	124.73188805580139	movie	1		301.0	38.0	2.5	/experiments/knapen_aot/videos/R_S_yt-JH6qCYAnX-I_70.mp4	0.0	198.48920106887817	2.508363962173462
40	127.24025201797485	fix_post	2		12.0	38.0	2.5	/experiments/knapen_aot/videos/R_S_yt-JH6qCYAnX-I_70.mp4	0.0	200.99756503105164	0.10005712509155273
41	127.3403091430664	fix_pre	0		30.0	39.0	2.5	/experiments/knapen_aot/videos/R_S_yt-ycQy_fHCK-U_8.mp4	0.0	201.0976221561432	0.24996399879455566
41	127.58202910423279	response	0	2		39.0	2.5	/experiments/knapen_aot/videos/R_S_yt-ycQy_fHCK-U_8.mp4	0.0	201.33934211730957	
41	127.59027314186096	movie	1		301.0	39.0	2.5	/experiments/knapen_aot/videos/R_S_yt-ycQy_fHCK-U_8.mp4	0.0	201.34758615493774	2.5083348751068115
41	130.09860801696777	fix_post	2		12.0	39.0	2.5	/experiments/knapen_aot/videos/R_S_yt-ycQy_fHCK-U_8.mp4	0.0	203.85592103004456	0.09999299049377441
42	130.19860100746155	fix_pre	0		49.0	40.0	2.5	/experiments/knapen_aot/videos/R_S_yt-s73Xqkcq9Js_285.mp4	0.0	203.95591402053833	0.40829896926879883
42	130.5987410545349	response	0	2		40.0	2.5	/experiments/knapen_aot/videos/R_S_yt-s73Xqkcq9Js_285.mp4	0.0	204.3560540676117	
42	130.60689997673035	movie	1		301.0	40.0	2.5	/experiments/knapen_aot/videos/R_S_yt-s73Xqkcq9Js_285.mp4	0.0	204.36421298980713	2.5082550048828125
42	133.11515498161316	fix_post	2		12.0	40.0	2.5	/experiments/knapen_aot/videos/R_S_yt-s73Xqkcq9Js_285.mp4	0.0	206.87246799468994	0.10008716583251953
43	133.21524214744568	fix_pre	0		173.0	41.0	2.5	/experiments/knapen_aot/videos/R_S_production_ID_5146014.mp4	0.0	206.97255516052246	1.4428248405456543
43	134.64870619773865	response	0	2		41.0	2.5	/experiments/knapen_aot/videos/R_S_production_ID_5146014.mp4	0.0	208.40601921081543	
43	134.65806698799133	movie	1		165.0	41.0	2.5	/experiments/knapen_aot/videos/R_S_production_ID_5146014.mp4	0.0	208.41538000106812	2.5071520805358887
43	137.16521906852722	fix_post	2		12.0	41.0	2.5	/experiments/knapen_aot/videos/R_S_production_ID_5146014.mp4	0.0	210.922532081604	0.09999203681945801
44	137.26521110534668	fix_pre	0		45.0	42.0	2.5	blank	1.0	211.02252411842346	0.3749809265136719
44	137.63204312324524	response	0	2		42.0	2.5	blank	1.0	211.38935613632202	
44	137.64019203186035	movie	1		301.0	42.0	2.5	blank	1.0	211.39750504493713	2.5083510875701904
44	140.14854311943054	fix_post	2		12.0	42.0	2.5	blank	1.0	213.90585613250732	0.10001206398010254
45	140.24855518341064	fix_pre	0		60.0	43.0	2.5	/experiments/knapen_aot/videos/S_pexels-cottonbro-5310858.mp4	0.0	214.00586819648743	0.4999978542327881
45	140.74029207229614	response	0	2		43.0	2.5	/experiments/knapen_aot/videos/S_pexels-cottonbro-5310858.mp4	0.0	214.49760508537292	
45	140.74855303764343	movie	1		164.0	43.0	2.5	/experiments/knapen_aot/videos/S_pexels-cottonbro-5310858.mp4	0.0	214.50586605072021	2.5082950592041016
45	143.25684809684753	fix_post	2		12.0	43.0	2.5	/experiments/knapen_aot/videos/S_pexels-cottonbro-5310858.mp4	0.0	217.01416110992432	0.1001729965209961
46	143.35702109336853	fix_pre	0		10.0	44.0	2.5	/experiments/knapen_aot/videos/S_yt-7lULOC_rSE0_747.mp4	0.0	217.1143341064453	0.08316993713378906
46	143.43194913864136	response	0	2		44.0	2.5	/experiments/knapen_aot/videos/S_yt-7lULOC_rSE0_747.mp4	0.0	217.18926215171814	
46	143.44019103050232	movie	1		301.0	44.0	2.5	/experiments/knapen_aot/videos/S_yt-7lULOC_rSE0_747.mp4	0.0	217.1975040435791	2.5083680152893066
46	145.94855904579163	fix_post	2		12.0	44.0	2.5	/experiments/knapen_aot/videos/S_yt-7lULOC_rSE0_747.mp4	0.0	219.7058720588684	0.09995508193969727
47	146.04851412773132	fix_pre	0		115.0	45.0	2.5	/experiments/knapen_aot/videos/R_S_yt-CEQnXB0LxQU_278.mp4	0.0	219.8058271408081	0.9582910537719727
47	146.9986732006073	response	0	2		45.0	2.5	/experiments/knapen_aot/videos/R_S_yt-CEQnXB0LxQU_278.mp4	0.0	220.75598621368408	
47	147.0068051815033	movie	1		301.0	45.0	2.5	/experiments/knapen_aot/videos/R_S_yt-CEQnXB0LxQU_278.mp4	0.0	220.76411819458008	2.5083398818969727
47	149.51514506340027	fix_post	2		12.0	45.0	2.5	/experiments/knapen_aot/videos/R_S_yt-CEQnXB0LxQU_278.mp4	0.0	223.27245807647705	0.0999751091003418
48	149.6151201725006	fix_pre	0		1640.0	46.0	2.5	/experiments/knapen_aot/videos/S_S005_C015_SDR_2K_AVC.mp4	0.0	223.3724331855774	13.667603969573975
48	163.27358198165894	response	0	2		46.0	2.5	/experiments/knapen_aot/videos/S_S005_C015_SDR_2K_AVC.mp4	0.0	237.03089499473572	
48	163.28272414207458	movie	1		167.0	46.0	2.5	/experiments/knapen_aot/videos/S_S005_C015_SDR_2K_AVC.mp4	0.0	237.04003715515137	2.5074448585510254
48	165.7901690006256	fix_post	2		12.0	46.0	2.5	/experiments/knapen_aot/videos/S_S005_C015_SDR_2K_AVC.mp4	0.0	239.5474820137024	0.09997010231018066
49	165.8901391029358	fix_pre	0		79.0	47.0	2.5	/experiments/knapen_aot/videos/S_yt-BW6jWEVbxxk_4.mp4	0.0	239.64745211601257	0.6582479476928711
49	166.5327000617981	response	0	2		47.0	2.5	/experiments/knapen_aot/videos/S_yt-BW6jWEVbxxk_4.mp4	0.0	240.29001307487488	
49	166.54838705062866	movie	1		301.0	47.0	2.5	/experiments/knapen_aot/videos/S_yt-BW6jWEVbxxk_4.mp4	0.0	240.30570006370544	2.5083250999450684
49	169.05671215057373	fix_post	2		12.0	47.0	2.5	/experiments/knapen_aot/videos/S_yt-BW6jWEVbxxk_4.mp4	0.0	242.8140251636505	0.0999898910522461
50	169.15670204162598	fix_pre	0		610.0	48.0	2.5	blank	1.0	242.91401505470276	5.084346055984497
50	174.23184514045715	response	0	2		48.0	2.5	blank	1.0	247.98915815353394	
50	174.24104809761047	movie	1		301.0	48.0	2.5	blank	1.0	247.99836111068726	2.507323980331421
50	176.7483720779419	fix_post	2		12.0	48.0	2.5	blank	1.0	250.50568509101868	0.10001301765441895
51	176.8483850955963	fix_pre	0		55.0	49.0	2.5	/experiments/knapen_aot/videos/S_pexels-mikhail-nilov-8410084.mp4	0.0	250.6056981086731	0.4582839012145996
51	177.29850697517395	response	0	2		49.0	2.5	/experiments/knapen_aot/videos/S_pexels-mikhail-nilov-8410084.mp4	0.0	251.05581998825073	
51	177.3066689968109	movie	1		165.0	49.0	2.5	/experiments/knapen_aot/videos/S_pexels-mikhail-nilov-8410084.mp4	0.0	251.0639820098877	2.508376121520996
51	179.8150451183319	fix_post	2		12.0	49.0	2.5	/experiments/knapen_aot/videos/S_pexels-mikhail-nilov-8410084.mp4	0.0	253.5723581314087	0.10004806518554688
52	179.91509318351746	fix_pre	0		40.0	50.0	2.5	/experiments/knapen_aot/videos/S_comp_C004_C003_PS_v01_SDR_PS_20180925_SDR_2K_AVC.mp4	0.0	253.67240619659424	0.33330678939819336
52	180.2401831150055	response	0	2		50.0	2.5	/experiments/knapen_aot/videos/S_comp_C004_C003_PS_v01_SDR_PS_20180925_SDR_2K_AVC.mp4	0.0	253.99749612808228	
52	180.24839997291565	movie	1		169.0	50.0	2.5	/experiments/knapen_aot/videos/S_comp_C004_C003_PS_v01_SDR_PS_20180925_SDR_2K_AVC.mp4	0.0	254.00571298599243	2.5083200931549072
52	182.75672006607056	fix_post	2		12.0	50.0	2.5	/experiments/knapen_aot/videos/S_comp_C004_C003_PS_v01_SDR_PS_20180925_SDR_2K_AVC.mp4	0.0	256.51403307914734	0.09990906715393066
53	182.8566291332245	fix_pre	0		124.0	51.0	2.5	/experiments/knapen_aot/videos/R_S_yt-0Zze3Ff12Ys_58.mp4	0.0	256.61394214630127	1.0333640575408936
53	183.88177013397217	response	0	2		51.0	2.5	/experiments/knapen_aot/videos/R_S_yt-0Zze3Ff12Ys_58.mp4	0.0	257.63908314704895	
53	183.88999319076538	movie	1		301.0	51.0	2.5	/experiments/knapen_aot/videos/R_S_yt-0Zze3Ff12Ys_58.mp4	0.0	257.64730620384216	2.50836181640625
53	186.39835500717163	fix_post	2		12.0	51.0	2.5	/experiments/knapen_aot/videos/R_S_yt-0Zze3Ff12Ys_58.mp4	0.0	260.1556680202484	0.09995317459106445
54	186.4983081817627	fix_pre	0		252.0	52.0	2.5	/experiments/knapen_aot/videos/S_yt-9EnchawJ3pA_90.mp4	0.0	260.2556211948395	2.100045919418335
54	188.5901391506195	response	0	2		52.0	2.5	/experiments/knapen_aot/videos/S_yt-9EnchawJ3pA_90.mp4	0.0	262.3474521636963	
54	188.59835410118103	movie	1		301.0	52.0	2.5	/experiments/knapen_aot/videos/S_yt-9EnchawJ3pA_90.mp4	0.0	262.3556671142578	2.5083439350128174
54	191.10669803619385	fix_post	2		12.0	52.0	2.5	/experiments/knapen_aot/videos/S_yt-9EnchawJ3pA_90.mp4	0.0	264.86401104927063	0.0998690128326416
55	191.2065670490265	fix_pre	0		59.0	53.0	2.5	/experiments/knapen_aot/videos/S_yt-x7NWmdlvVIQ_183.mp4	0.0	264.96388006210327	0.49260711669921875
55	191.6901261806488	response	0	2		53.0	2.5	/experiments/knapen_aot/videos/S_yt-x7NWmdlvVIQ_183.mp4	0.0	265.4474391937256	
55	191.6991741657257	movie	1		301.0	53.0	2.5	/experiments/knapen_aot/videos/S_yt-x7NWmdlvVIQ_183.mp4	0.0	265.4564871788025	2.5074620246887207
55	194.20663619041443	fix_post	2		12.0	53.0	2.5	/experiments/knapen_aot/videos/S_yt-x7NWmdlvVIQ_183.mp4	0.0	267.9639492034912	0.09998297691345215
56	194.30661916732788	fix_pre	0		64.0	54.0	2.5	blank	1.0	268.06393218040466	0.5333068370819092
56	194.83172011375427	response	0	2		54.0	2.5	blank	1.0	268.58903312683105	
56	194.8399260044098	movie	1		301.0	54.0	2.5	blank	1.0	268.5972390174866	2.508385181427002
56	197.3483111858368	fix_post	2		12.0	54.0	2.5	blank	1.0	271.1056241989136	0.09988188743591309
57	197.4481930732727	fix_pre	0		34.0	55.0	2.5	/experiments/knapen_aot/videos/S_pexels-tima-miroshnichenko-6077718.mp4	0.0	271.2055060863495	0.2834279537200928
57	197.72334098815918	response	0	2		55.0	2.5	/experiments/knapen_aot/videos/S_pexels-tima-miroshnichenko-6077718.mp4	0.0	271.48065400123596	
57	197.7316210269928	movie	1		167.0	55.0	2.5	/experiments/knapen_aot/videos/S_pexels-tima-miroshnichenko-6077718.mp4	0.0	271.4889340400696	2.5083401203155518
57	200.23996114730835	fix_post	2		12.0	55.0	2.5	/experiments/knapen_aot/videos/S_pexels-tima-miroshnichenko-6077718.mp4	0.0	273.99727416038513	0.09997105598449707
58	200.33993220329285	fix_pre	0		38.0	56.0	2.5	/experiments/knapen_aot/videos/R_S_Xq0a2BWE3zA_53.mp4	0.0	274.09724521636963	0.3174409866333008
58	200.6483850479126	response	0	2		56.0	2.5	/experiments/knapen_aot/videos/R_S_Xq0a2BWE3zA_53.mp4	0.0	274.4056980609894	
58	200.65737318992615	movie	1		301.0	56.0	2.5	/experiments/knapen_aot/videos/R_S_Xq0a2BWE3zA_53.mp4	0.0	274.41468620300293	2.5075178146362305
58	203.16489100456238	fix_post	2		12.0	56.0	2.5	/experiments/knapen_aot/videos/R_S_Xq0a2BWE3zA_53.mp4	0.0	276.92220401763916	0.09998917579650879
59	203.2648801803589	fix_pre	0		68.0	57.0	2.5	/experiments/knapen_aot/videos/S_yt-Dwgpjoikt84_71.mp4	0.0	277.02219319343567	0.5666828155517578
59	203.82343411445618	response	0	2		57.0	2.5	/experiments/knapen_aot/videos/S_yt-Dwgpjoikt84_71.mp4	0.0	277.58074712753296	
59	203.83156299591064	movie	1		301.0	57.0	2.5	/experiments/knapen_aot/videos/S_yt-Dwgpjoikt84_71.mp4	0.0	277.5888760089874	2.5083770751953125
59	206.33994007110596	fix_post	2		12.0	57.0	2.5	/experiments/knapen_aot/videos/S_yt-Dwgpjoikt84_71.mp4	0.0	280.09725308418274	0.09998798370361328
60	206.43992805480957	fix_pre	0		47.0	58.0	2.5	/experiments/knapen_aot/videos/R_S_yt-ujdFTAUE8rc_34.mp4	0.0	280.19724106788635	0.3916740417480469
60	206.82342410087585	response	0	2		58.0	2.5	/experiments/knapen_aot/videos/R_S_yt-ujdFTAUE8rc_34.mp4	0.0	280.58073711395264	
60	206.83160209655762	movie	1		301.0	58.0	2.5	/experiments/knapen_aot/videos/R_S_yt-ujdFTAUE8rc_34.mp4	0.0	280.5889151096344	2.5083260536193848
60	209.339928150177	fix_post	2		12.0	58.0	2.5	/experiments/knapen_aot/videos/R_S_yt-ujdFTAUE8rc_34.mp4	0.0	283.0972411632538	0.09993505477905273
61	209.43986320495605	fix_pre	0		49.0	59.0	2.5	/experiments/knapen_aot/videos/S_yt-83nimFMNhrM_131.mp4	0.0	283.19717621803284	0.40834498405456543
61	209.84008812904358	response	0	2		59.0	2.5	/experiments/knapen_aot/videos/S_yt-83nimFMNhrM_131.mp4	0.0	283.59740114212036	
61	209.84820818901062	movie	1		301.0	59.0	2.5	/experiments/knapen_aot/videos/S_yt-83nimFMNhrM_131.mp4	0.0	283.6055212020874	2.5083699226379395
61	212.35657811164856	fix_post	2		12.0	59.0	2.5	/experiments/knapen_aot/videos/S_yt-83nimFMNhrM_131.mp4	0.0	286.11389112472534	0.1000359058380127
62	212.45661401748657	fix_pre	0		113.0	60.0	2.5	/experiments/knapen_aot/videos/S_pexels-rodnae-productions-5544703.mp4	0.0	286.21392703056335	0.9416170120239258
62	213.39006805419922	response	0	2		60.0	2.5	/experiments/knapen_aot/videos/S_pexels-rodnae-productions-5544703.mp4	0.0	287.147381067276	
62	213.3982310295105	movie	1		168.0	60.0	2.5	/experiments/knapen_aot/videos/S_pexels-rodnae-productions-5544703.mp4	0.0	287.1555440425873	2.5083420276641846
62	215.90657305717468	fix_post	2		12.0	60.0	2.5	/experiments/knapen_aot/videos/S_pexels-rodnae-productions-5544703.mp4	0.0	289.66388607025146	0.0999910831451416
63	216.00656414031982	fix_pre	0		87.0	61.0	2.5	/experiments/knapen_aot/videos/R_S_yt-LYnwnfi1JJ4_120.mp4	0.0	289.7638771533966	0.724992036819458
63	216.72334218025208	response	0	2		61.0	2.5	/experiments/knapen_aot/videos/R_S_yt-LYnwnfi1JJ4_120.mp4	0.0	290.48065519332886	
63	216.73155617713928	movie	1		301.0	61.0	2.5	/experiments/knapen_aot/videos/R_S_yt-LYnwnfi1JJ4_120.mp4	0.0	290.48886919021606	2.508333921432495
63	219.23989009857178	fix_post	2		12.0	61.0	2.5	/experiments/knapen_aot/videos/R_S_yt-LYnwnfi1JJ4_120.mp4	0.0	292.99720311164856	0.10001587867736816
64	219.33990597724915	fix_pre	0		47.0	62.0	2.5	/experiments/knapen_aot/videos/S_pexels-mikhail-nilov-8410084.mp4	0.0	293.0972189903259	0.39164209365844727
64	219.72328805923462	response	0	2		62.0	2.5	/experiments/knapen_aot/videos/S_pexels-mikhail-nilov-8410084.mp4	0.0	293.4806010723114	
64	219.7315480709076	movie	1		168.0	62.0	2.5	/experiments/knapen_aot/videos/S_pexels-mikhail-nilov-8410084.mp4	0.0	293.4888610839844	2.5082409381866455
64	222.23978900909424	fix_post	2		12.0	62.0	2.5	/experiments/knapen_aot/videos/S_pexels-mikhail-nilov-8410084.mp4	0.0	295.997102022171	0.10003805160522461
65	222.33982706069946	fix_pre	0		18.0	63.0	2.5	blank	1.0	296.09714007377625	0.15082812309265137
65	222.48163318634033	response	0	2		63.0	2.5	blank	1.0	296.2389461994171	
65	222.49065518379211	movie	1		301.0	63.0	2.5	blank	1.0	296.2479681968689	2.5075089931488037
65	224.99816417694092	fix_post	2		12.0	63.0	2.5	blank	1.0	298.7554771900177	0.0999448299407959
66	225.0981090068817	fix_pre	0		38.0	64.0	2.5	/experiments/knapen_aot/videos/R_S_yt-dkBlyE3igk0_44.mp4	0.0	298.8554220199585	0.3167250156402588
66	225.4066460132599	response	0	2		64.0	2.5	/experiments/knapen_aot/videos/R_S_yt-dkBlyE3igk0_44.mp4	0.0	299.16395902633667	
66	225.41483402252197	movie	1		301.0	64.0	2.5	/experiments/knapen_aot/videos/R_S_yt-dkBlyE3igk0_44.mp4	0.0	299.17214703559875	2.5083420276641846
66	227.92317605018616	fix_post	2		12.0	64.0	2.5	/experiments/knapen_aot/videos/R_S_yt-dkBlyE3igk0_44.mp4	0.0	301.68048906326294	0.10004806518554688
67	228.0232241153717	fix_pre	0		47.0	65.0	2.5	/experiments/knapen_aot/videos/S_yt-2l6VKd94eAI_151.mp4	0.0	301.7805371284485	0.3915979862213135
67	228.40665817260742	response	0	2		65.0	2.5	/experiments/knapen_aot/videos/S_yt-2l6VKd94eAI_151.mp4	0.0	302.1639711856842	
67	228.41482210159302	movie	1		300.0	65.0	2.5	/experiments/knapen_aot/videos/S_yt-2l6VKd94eAI_151.mp4	0.0	302.1721351146698	2.508225917816162
67	230.92304801940918	fix_post	2		12.0	65.0	2.5	/experiments/knapen_aot/videos/S_yt-2l6VKd94eAI_151.mp4	0.0	304.68036103248596	0.10009407997131348
68	231.0231420993805	fix_pre	0		118.0	66.0	2.5	/experiments/knapen_aot/videos/S_yt-q9kT_c9QjbQ_34.mp4	0.0	304.7804551124573	0.983299970626831
68	231.99074006080627	response	0	2		66.0	2.5	/experiments/knapen_aot/videos/S_yt-q9kT_c9QjbQ_34.mp4	0.0	305.74805307388306	
68	232.00644207000732	movie	1		301.0	66.0	2.5	/experiments/knapen_aot/videos/S_yt-q9kT_c9QjbQ_34.mp4	0.0	305.7637550830841	2.508315086364746
68	234.51475715637207	fix_post	2		12.0	66.0	2.5	/experiments/knapen_aot/videos/S_yt-q9kT_c9QjbQ_34.mp4	0.0	308.27207016944885	0.1000218391418457
69	234.61477899551392	fix_pre	0		57.0	67.0	2.5	/experiments/knapen_aot/videos/R_S_S005_C015_SDR_2K_AVC.mp4	0.0	308.3720920085907	0.47501707077026367
69	235.08157515525818	response	0	2		67.0	2.5	/experiments/knapen_aot/videos/R_S_S005_C015_SDR_2K_AVC.mp4	0.0	308.83888816833496	
69	235.08979606628418	movie	1		171.0	67.0	2.5	/experiments/knapen_aot/videos/R_S_S005_C015_SDR_2K_AVC.mp4	0.0	308.84710907936096	2.5083389282226562
69	237.59813499450684	fix_post	2		12.0	67.0	2.5	/experiments/knapen_aot/videos/R_S_S005_C015_SDR_2K_AVC.mp4	0.0	311.3554480075836	0.09998416900634766
70	237.69811916351318	fix_pre	0		41.0	68.0	2.5	/experiments/knapen_aot/videos/R_S_yt-Jo6PxivsTOg_247.mp4	0.0	311.45543217658997	0.34161996841430664
70	238.03152418136597	response	0	2		68.0	2.5	/experiments/knapen_aot/videos/R_S_yt-Jo6PxivsTOg_247.mp4	0.0	311.78883719444275	
70	238.0397391319275	movie	1		299.0	68.0	2.5	/experiments/knapen_aot/videos/R_S_yt-Jo6PxivsTOg_247.mp4	0.0	311.7970521450043	2.508312940597534
70	240.54805207252502	fix_post	2		12.0	68.0	2.5	/experiments/knapen_aot/videos/R_S_yt-Jo6PxivsTOg_247.mp4	0.0	314.3053650856018	0.10003900527954102
71	240.64809107780457	fix_pre	0		17.0	69.0	2.5	/experiments/knapen_aot/videos/S_yt-Xs-YKSogfak_24.mp4	0.0	314.40540409088135	0.14164090156555176
71	240.78150510787964	response	0	2		69.0	2.5	/experiments/knapen_aot/videos/S_yt-Xs-YKSogfak_24.mp4	0.0	314.5388181209564	
71	240.78973197937012	movie	1		301.0	69.0	2.5	/experiments/knapen_aot/videos/S_yt-Xs-YKSogfak_24.mp4	0.0	314.5470449924469	2.508316993713379
71	243.2980489730835	fix_post	2		12.0	69.0	2.5	/experiments/knapen_aot/videos/S_yt-Xs-YKSogfak_24.mp4	0.0	317.0553619861603	0.10005021095275879
72	243.39809918403625	fix_pre	0		31.0	70.0	2.5	blank	1.0	317.15541219711304	0.25898289680480957
72	243.64824414253235	response	0	2		70.0	2.5	blank	1.0	317.40555715560913	
72	243.65708208084106	movie	1		301.0	70.0	2.5	blank	1.0	317.41439509391785	2.507654905319214
72	246.16473698616028	fix_post	2		12.0	70.0	2.5	blank	1.0	319.92204999923706	0.09995913505554199
73	246.26469612121582	fix_pre	0		36.0	71.0	2.5	/experiments/knapen_aot/videos/R_S_yt-JtR6WZXT2kU_8.mp4	0.0	320.0220091342926	0.30003786087036133
73	246.5564570426941	response	0	2		71.0	2.5	/experiments/knapen_aot/videos/R_S_yt-JtR6WZXT2kU_8.mp4	0.0	320.3137700557709	
73	246.56473398208618	movie	1		301.0	71.0	2.5	/experiments/knapen_aot/videos/R_S_yt-JtR6WZXT2kU_8.mp4	0.0	320.32204699516296	2.50832200050354
73	249.07305598258972	fix_post	2		12.0	71.0	2.5	/experiments/knapen_aot/videos/R_S_yt-JtR6WZXT2kU_8.mp4	0.0	322.8303689956665	0.10000014305114746
74	249.17305612564087	fix_pre	0		31.0	72.0	2.5	/experiments/knapen_aot/videos/S_ILSVRC2015_train_00572000.mp4	0.0	322.93036913871765	0.2583808898925781
74	249.42317605018616	response	0	2		72.0	2.5	/experiments/knapen_aot/videos/S_ILSVRC2015_train_00572000.mp4	0.0	323.18048906326294	
74	249.43143701553345	movie	1		301.0	72.0	2.5	/experiments/knapen_aot/videos/S_ILSVRC2015_train_00572000.mp4	0.0	323.18875002861023	2.508275032043457
74	251.9397120475769	fix_post	2		12.0	72.0	2.5	/experiments/knapen_aot/videos/S_ILSVRC2015_train_00572000.mp4	0.0	325.6970250606537	0.09999608993530273
75	252.0397081375122	fix_pre	0		33.0	73.0	2.5	/experiments/knapen_aot/videos/S_yt-c5_SFS4aaJI_1102.mp4	0.0	325.797021150589	0.27497196197509766
75	252.30656003952026	response	0	2		73.0	2.5	/experiments/knapen_aot/videos/S_yt-c5_SFS4aaJI_1102.mp4	0.0	326.06387305259705	
75	252.3146800994873	movie	1		301.0	73.0	2.5	/experiments/knapen_aot/videos/S_yt-c5_SFS4aaJI_1102.mp4	0.0	326.0719931125641	2.5083160400390625
75	254.82299613952637	fix_post	2		12.0	73.0	2.5	/experiments/knapen_aot/videos/S_yt-c5_SFS4aaJI_1102.mp4	0.0	328.58030915260315	0.10002684593200684
76	254.92302298545837	fix_pre	0		132.0	74.0	2.5	/experiments/knapen_aot/videos/R_S_yt-Pinnv3-3GFU_452.mp4	0.0	328.68033599853516	1.0999760627746582
76	256.0148591995239	response	0	2		74.0	2.5	/experiments/knapen_aot/videos/R_S_yt-Pinnv3-3GFU_452.mp4	0.0	329.7721722126007	
76	256.02299904823303	movie	1		301.0	74.0	2.5	/experiments/knapen_aot/videos/R_S_yt-Pinnv3-3GFU_452.mp4	0.0	329.7803120613098	2.5083389282226562
76	258.5313379764557	fix_post	2		12.0	74.0	2.5	/experiments/knapen_aot/videos/R_S_yt-Pinnv3-3GFU_452.mp4	0.0	332.28865098953247	0.1000070571899414
77	258.63134503364563	fix_pre	0		27.0	75.0	2.5	/experiments/knapen_aot/videos/S_b2-2.mp4	0.0	332.3886580467224	0.2249910831451416
77	258.84818816185	response	0	2		75.0	2.5	/experiments/knapen_aot/videos/S_b2-2.mp4	0.0	332.60550117492676	
77	258.85633611679077	movie	1		171.0	75.0	2.5	/experiments/knapen_aot/videos/S_b2-2.mp4	0.0	332.61364912986755	2.5082859992980957
77	261.36462211608887	fix_post	2		12.0	75.0	2.5	/experiments/knapen_aot/videos/S_b2-2.mp4	0.0	335.12193512916565	0.10007905960083008
78	261.4647011756897	fix_pre	0		33.0	76.0	2.5	blank	1.0	335.2220141887665	0.2755239009857178
78	261.73145818710327	response	0	2		76.0	2.5	blank	1.0	335.48877120018005	
78	261.7402250766754	movie	1		301.0	76.0	2.5	blank	1.0	335.4975380897522	2.5077719688415527
78	264.24799704551697	fix_post	2		12.0	76.0	2.5	blank	1.0	338.00531005859375	0.09996795654296875
79	264.34796500205994	fix_pre	0		52.0	77.0	2.5	/experiments/knapen_aot/videos/R_S_OdxWh1oU8e8_1.mp4	0.0	338.1052780151367	0.4339160919189453
79	264.7731029987335	response	0	2		77.0	2.5	/experiments/knapen_aot/videos/R_S_OdxWh1oU8e8_1.mp4	0.0	338.5304160118103	
79	264.7818810939789	movie	1		299.0	77.0	2.5	/experiments/knapen_aot/videos/R_S_OdxWh1oU8e8_1.mp4	0.0	338.53919410705566	2.507786989212036
79	267.2896680831909	fix_post	2		12.0	77.0	2.5	/experiments/knapen_aot/videos/R_S_OdxWh1oU8e8_1.mp4	0.0	341.0469810962677	0.09996509552001953
80	267.38963317871094	fix_pre	0		27.0	78.0	2.5	/experiments/knapen_aot/videos/S_yt-s-J3C6e5A3Q_18.mp4	0.0	341.1469461917877	0.22546887397766113
80	267.60648703575134	response	0	2		78.0	2.5	/experiments/knapen_aot/videos/S_yt-s-J3C6e5A3Q_18.mp4	0.0	341.3638000488281	
80	267.6151020526886	movie	1		301.0	78.0	2.5	/experiments/knapen_aot/videos/S_yt-s-J3C6e5A3Q_18.mp4	0.0	341.3724150657654	2.5078229904174805
80	270.1229250431061	fix_post	2		12.0	78.0	2.5	/experiments/knapen_aot/videos/S_yt-s-J3C6e5A3Q_18.mp4	0.0	343.88023805618286	0.10006594657897949
81	270.22299098968506	fix_pre	0		24.0	79.0	2.5	/experiments/knapen_aot/videos/R_S_production_ID_4122384.mp4	0.0	343.98030400276184	0.19994020462036133
81	270.41468811035156	response	0	2		79.0	2.5	/experiments/knapen_aot/videos/R_S_production_ID_4122384.mp4	0.0	344.17200112342834	
81	270.4229311943054	movie	1		168.0	79.0	2.5	/experiments/knapen_aot/videos/R_S_production_ID_4122384.mp4	0.0	344.1802442073822	2.5083608627319336
81	272.93129205703735	fix_post	2		12.0	79.0	2.5	/experiments/knapen_aot/videos/R_S_production_ID_4122384.mp4	0.0	346.68860507011414	0.10059094429016113
82	273.0318830013275	fix_pre	0		22.0	80.0	2.5	/experiments/knapen_aot/videos/S_yt--wYgjXsc1XQ_106.mp4	0.0	346.7891960144043	0.18274998664855957
82	273.20640897750854	response	0	2		80.0	2.5	/experiments/knapen_aot/videos/S_yt--wYgjXsc1XQ_106.mp4	0.0	346.9637219905853	
82	273.2146329879761	movie	1		299.0	80.0	2.5	/experiments/knapen_aot/videos/S_yt--wYgjXsc1XQ_106.mp4	0.0	346.97194600105286	2.508327007293701
82	275.7229599952698	fix_post	2		12.0	80.0	2.5	/experiments/knapen_aot/videos/S_yt--wYgjXsc1XQ_106.mp4	0.0	349.48027300834656	0.10041999816894531
83	275.8233799934387	fix_pre	0		27.0	81.0	2.5	/experiments/knapen_aot/videos/S_yt-YMI27rk5qUQ_117.mp4	0.0	349.5806930065155	0.2245311737060547
83	276.03976106643677	response	0	2		81.0	2.5	/experiments/knapen_aot/videos/S_yt-YMI27rk5qUQ_117.mp4	0.0	349.79707407951355	
83	276.0479111671448	movie	1		301.0	81.0	2.5	/experiments/knapen_aot/videos/S_yt-YMI27rk5qUQ_117.mp4	0.0	349.80522418022156	2.5083730220794678
83	278.55628418922424	fix_post	2		12.0	81.0	2.5	/experiments/knapen_aot/videos/S_yt-YMI27rk5qUQ_117.mp4	0.0	352.313597202301	0.10048389434814453
84	278.6567680835724	fix_pre	0		26.0	82.0	2.5	/experiments/knapen_aot/videos/S_ILSVRC2015_train_00682007.mp4	0.0	352.41408109664917	0.22443795204162598
84	278.873083114624	response	0	2		82.0	2.5	/experiments/knapen_aot/videos/S_ILSVRC2015_train_00682007.mp4	0.0	352.6303961277008	
84	278.881206035614	movie	1		301.0	82.0	2.5	/experiments/knapen_aot/videos/S_ILSVRC2015_train_00682007.mp4	0.0	352.6385190486908	2.508439064025879
84	281.3896450996399	fix_post	2		12.0	82.0	2.5	/experiments/knapen_aot/videos/S_ILSVRC2015_train_00682007.mp4	0.0	355.1469581127167	0.10041689872741699
85	281.4900619983673	fix_pre	0		32.0	83.0	2.5	blank	1.0	355.2473750114441	0.2662181854248047
85	281.7405061721802	response	0	2		83.0	2.5	blank	1.0	355.49781918525696	
85	281.7562801837921	movie	1		301.0	83.0	2.5	blank	1.0	355.5135931968689	2.5083467960357666
85	284.2646269798279	fix_post	2		12.0	83.0	2.5	blank	1.0	358.02193999290466	0.1003720760345459
87	284.3649990558624	stim	0		399.0					358.1223120689392	3.326349973678589
87	287.6858789920807	response	0	space						361.44319200515747	
