trial_nr	onset	event_type	phase	response	nr_frames	movie_index	movie_duration	movie_file	blank	onset_abs	duration
0	0.13315200805664062	stim	0		28.0					54.61773610115051	0.2332170009613037
0	0.35884594917297363	response	0	space						54.843430042266846	
1	0.36636900901794434	stim	0		121.0					54.850953102111816	1.008173942565918
1	0.7582099437713623	response	0	space						55.242794036865234	
1	1.025367021560669	response	0	space						55.50995111465454	
1	1.3745429515838623	stim	1		120.0					55.859127044677734	0.9998838901519775
1	1.4494919776916504	response	1	space						55.93407607078552	
1	1.5780467987060547	response	1	2						56.06263089179993	
1	1.904613971710205	response	1	space						56.38919806480408	
1	2.358027935028076	response	1	space						56.84261202812195	
2	2.37442684173584	fix_pre	0		47.0	0.0	2.5	/experiments/knapen_aot/oldvideos/S_yt-l_ioasf6yHg_44.mp4	0.0	56.85901093482971	0.39164209365844727
2	2.757802963256836	response	0	space		0.0	2.5	/experiments/knapen_aot/oldvideos/S_yt-l_ioasf6yHg_44.mp4	0.0	57.24238705635071	
2	2.766068935394287	movie	1		301.0	0.0	2.5	/experiments/knapen_aot/oldvideos/S_yt-l_ioasf6yHg_44.mp4	0.0	57.25065302848816	2.5083839893341064
2	5.2744529247283936	fix_post	2		12.0	0.0	2.5	/experiments/knapen_aot/oldvideos/S_yt-l_ioasf6yHg_44.mp4	0.0	59.759037017822266	0.09999799728393555
3	5.374450922012329	fix_pre	0		26.0	1.0	2.5	/experiments/knapen_aot/oldvideos/R_S_ILSVRC2015_train_00756000.mp4	0.0	59.8590350151062	0.2197558879852295
3	5.585953950881958	response	0	2		1.0	2.5	/experiments/knapen_aot/oldvideos/R_S_ILSVRC2015_train_00756000.mp4	0.0	60.07053804397583	
3	5.594206809997559	movie	1		300.0	1.0	2.5	/experiments/knapen_aot/oldvideos/R_S_ILSVRC2015_train_00756000.mp4	0.0	60.07879090309143	2.505230188369751
3	8.09943699836731	fix_post	2		12.0	1.0	2.5	/experiments/knapen_aot/oldvideos/R_S_ILSVRC2015_train_00756000.mp4	0.0	62.58402109146118	0.10001778602600098
4	8.19945478439331	fix_pre	0		28.0	2.0	2.5	/experiments/knapen_aot/oldvideos/S_yt-5AI_SyK5sg8_112.mp4	0.0	62.68403887748718	0.23340201377868652
4	8.424603939056396	response	0	2		2.0	2.5	/experiments/knapen_aot/oldvideos/S_yt-5AI_SyK5sg8_112.mp4	0.0	62.90918803215027	
4	8.432856798171997	movie	1		301.0	2.0	2.5	/experiments/knapen_aot/oldvideos/S_yt-5AI_SyK5sg8_112.mp4	0.0	62.91744089126587	2.5081682205200195
4	10.941025018692017	fix_post	2		12.0	2.0	2.5	/experiments/knapen_aot/oldvideos/S_yt-5AI_SyK5sg8_112.mp4	0.0	65.42560911178589	0.10006284713745117
5	11.041087865829468	fix_pre	0		40.0	3.0	2.5	/experiments/knapen_aot/oldvideos/S_yt-5AI_SyK5sg8_112.mp4	0.0	65.52567195892334	0.3332700729370117
5	11.35868501663208	response	0	2		3.0	2.5	/experiments/knapen_aot/oldvideos/S_yt-5AI_SyK5sg8_112.mp4	0.0	65.84326910972595	
5	11.37435793876648	movie	1		301.0	3.0	2.5	/experiments/knapen_aot/oldvideos/S_yt-5AI_SyK5sg8_112.mp4	0.0	65.85894203186035	2.5084688663482666
5	13.882826805114746	fix_post	2		12.0	3.0	2.5	/experiments/knapen_aot/oldvideos/S_yt-5AI_SyK5sg8_112.mp4	0.0	68.36741089820862	0.09996819496154785
6	13.982795000076294	fix_pre	0		26.0	4.0	2.5	/experiments/knapen_aot/oldvideos/R_S_ILSVRC2015_train_00219004.mp4	0.0	68.46737909317017	0.21658992767333984
6	14.191197872161865	response	0	2		4.0	2.5	/experiments/knapen_aot/oldvideos/R_S_ILSVRC2015_train_00219004.mp4	0.0	68.67578196525574	
6	14.199384927749634	movie	1		301.0	4.0	2.5	/experiments/knapen_aot/oldvideos/R_S_ILSVRC2015_train_00219004.mp4	0.0	68.6839690208435	2.5084049701690674
6	16.7077898979187	fix_post	2		12.0	4.0	2.5	/experiments/knapen_aot/oldvideos/R_S_ILSVRC2015_train_00219004.mp4	0.0	71.19237399101257	0.09988093376159668
7	16.807670831680298	fix_pre	0		4.0	5.0	2.5	/experiments/knapen_aot/oldvideos/S_yt-XBAU3cq0rZs_150.mp4	0.0	71.29225492477417	0.03337502479553223
7	16.832884788513184	response	0	2		5.0	2.5	/experiments/knapen_aot/oldvideos/S_yt-XBAU3cq0rZs_150.mp4	0.0	71.31746888160706	
7	16.84104585647583	movie	1		301.0	5.0	2.5	/experiments/knapen_aot/oldvideos/S_yt-XBAU3cq0rZs_150.mp4	0.0	71.3256299495697	2.5083701610565186
7	19.34941601753235	fix_post	2		12.0	5.0	2.5	/experiments/knapen_aot/oldvideos/S_yt-XBAU3cq0rZs_150.mp4	0.0	73.83400011062622	0.09996700286865234
8	19.449383020401	fix_pre	0		9.0	6.0	2.5	/experiments/knapen_aot/oldvideos/R_S_yt-C0INfEJ4Awk_53.mp4	0.0	73.93396711349487	0.07526779174804688
8	19.516183853149414	response	0	2		6.0	2.5	/experiments/knapen_aot/oldvideos/R_S_yt-C0INfEJ4Awk_53.mp4	0.0	74.00076794624329	
8	19.524650812149048	movie	1		301.0	6.0	2.5	/experiments/knapen_aot/oldvideos/R_S_yt-C0INfEJ4Awk_53.mp4	0.0	74.00923490524292	2.5080840587615967
8	21.67445182800293	response	1	2		6.0	2.5	/experiments/knapen_aot/oldvideos/R_S_yt-C0INfEJ4Awk_53.mp4	0.0	76.1590359210968	
8	22.00780487060547	response	1	2		6.0	2.5	/experiments/knapen_aot/oldvideos/R_S_yt-C0INfEJ4Awk_53.mp4	0.0	76.49238896369934	
8	22.032734870910645	fix_post	2		12.0	6.0	2.5	/experiments/knapen_aot/oldvideos/R_S_yt-C0INfEJ4Awk_53.mp4	0.0	76.51731896400452	0.10018706321716309
9	22.132921934127808	fix_pre	0		19.0	7.0	2.5	blank	1.0	76.61750602722168	0.15807604789733887
9	22.282866954803467	response	0	2		7.0	2.5	blank	1.0	76.76745104789734	
9	22.290997982025146	movie	1		301.0	7.0	2.5	blank	1.0	76.77558207511902	2.508760929107666
9	24.799758911132812	fix_post	2		12.0	7.0	2.5	blank	1.0	79.28434300422668	0.10021400451660156
10	24.899972915649414	fix_pre	0		22.0	8.0	2.5	/experiments/knapen_aot/oldvideos/S_yt-jUGt_Byqczw_599.mp4	0.0	79.38455700874329	0.18272709846496582
10	25.074471950531006	response	0	2		8.0	2.5	/experiments/knapen_aot/oldvideos/S_yt-jUGt_Byqczw_599.mp4	0.0	79.55905604362488	
10	25.08270001411438	movie	1		301.0	8.0	2.5	/experiments/knapen_aot/oldvideos/S_yt-jUGt_Byqczw_599.mp4	0.0	79.56728410720825	2.5083630084991455
10	27.591063022613525	fix_post	2		12.0	8.0	2.5	/experiments/knapen_aot/oldvideos/S_yt-jUGt_Byqczw_599.mp4	0.0	82.0756471157074	0.10013198852539062
11	27.691195011138916	fix_pre	0		26.0	9.0	2.5	/experiments/knapen_aot/oldvideos/S_8amznWxLS04_212.mp4	0.0	82.17577910423279	0.21655797958374023
11	27.899479866027832	response	0	2		9.0	2.5	/experiments/knapen_aot/oldvideos/S_8amznWxLS04_212.mp4	0.0	82.3840639591217	
11	27.907752990722656	movie	1		301.0	9.0	2.5	/experiments/knapen_aot/oldvideos/S_8amznWxLS04_212.mp4	0.0	82.39233708381653	2.5083370208740234
11	30.41609001159668	fix_post	2		12.0	9.0	2.5	/experiments/knapen_aot/oldvideos/S_8amznWxLS04_212.mp4	0.0	84.90067410469055	0.09988880157470703
12	30.515978813171387	fix_pre	0		29.0	10.0	2.5	/experiments/knapen_aot/oldvideos/S_yt-X6ivH9SqGu8_306.mp4	0.0	85.00056290626526	0.24169611930847168
12	30.749395847320557	response	0	2		10.0	2.5	/experiments/knapen_aot/oldvideos/S_yt-X6ivH9SqGu8_306.mp4	0.0	85.23397994041443	
12	30.75767493247986	movie	1		301.0	10.0	2.5	/experiments/knapen_aot/oldvideos/S_yt-X6ivH9SqGu8_306.mp4	0.0	85.24225902557373	2.5083210468292236
12	33.26599597930908	fix_post	2		12.0	10.0	2.5	/experiments/knapen_aot/oldvideos/S_yt-X6ivH9SqGu8_306.mp4	0.0	87.75058007240295	0.10003280639648438
13	33.366028785705566	fix_pre	0		23.0	11.0	2.5	/experiments/knapen_aot/oldvideos/R_S_yt-vY49oIv_dWg_73.mp4	0.0	87.85061287879944	0.19162201881408691
13	33.54946780204773	response	0	2		11.0	2.5	/experiments/knapen_aot/oldvideos/R_S_yt-vY49oIv_dWg_73.mp4	0.0	88.0340518951416	
13	33.55765080451965	movie	1		301.0	11.0	2.5	/experiments/knapen_aot/oldvideos/R_S_yt-vY49oIv_dWg_73.mp4	0.0	88.04223489761353	2.509007215499878
13	36.06665802001953	fix_post	2		12.0	11.0	2.5	/experiments/knapen_aot/oldvideos/R_S_yt-vY49oIv_dWg_73.mp4	0.0	90.5512421131134	0.09934782981872559
14	36.16600584983826	fix_pre	0		11.0	12.0	2.5	/experiments/knapen_aot/oldvideos/S_pexels-anna-tarazevich-6189268.mp4	0.0	90.65058994293213	0.0916600227355957
14	36.24185085296631	response	0	2		12.0	2.5	/experiments/knapen_aot/oldvideos/S_pexels-anna-tarazevich-6189268.mp4	0.0	90.72643494606018	
14	36.25766587257385	movie	1		216.0	12.0	2.5	/experiments/knapen_aot/oldvideos/S_pexels-anna-tarazevich-6189268.mp4	0.0	90.74224996566772	2.5084340572357178
14	38.76609992980957	fix_post	2		12.0	12.0	2.5	/experiments/knapen_aot/oldvideos/S_pexels-anna-tarazevich-6189268.mp4	0.0	93.25068402290344	0.10012698173522949
15	38.8662269115448	fix_pre	0		3.0	13.0	2.5	blank	1.0	93.35081100463867	0.024718046188354492
15	38.875242948532104	response	0	2		13.0	2.5	blank	1.0	93.35982704162598	
15	38.890944957733154	movie	1		301.0	13.0	2.5	blank	1.0	93.37552905082703	2.508535861968994
15	41.39948081970215	fix_post	2		12.0	13.0	2.5	blank	1.0	95.88406491279602	0.09998106956481934
16	41.49946188926697	fix_pre	0		18.0	14.0	2.5	/experiments/knapen_aot/oldvideos/R_S_ILSVRC2015_train_00369002.mp4	0.0	95.98404598236084	0.14998197555541992
16	41.64106583595276	response	0	2		14.0	2.5	/experiments/knapen_aot/oldvideos/R_S_ILSVRC2015_train_00369002.mp4	0.0	96.12564992904663	
16	41.64944386482239	movie	1		301.0	14.0	2.5	/experiments/knapen_aot/oldvideos/R_S_ILSVRC2015_train_00369002.mp4	0.0	96.13402795791626	2.508208990097046
16	44.157652854919434	fix_post	2		12.0	14.0	2.5	/experiments/knapen_aot/oldvideos/R_S_ILSVRC2015_train_00369002.mp4	0.0	98.6422369480133	0.09992694854736328
17	44.2575798034668	fix_pre	0		11.0	15.0	2.5	/experiments/knapen_aot/oldvideos/S_yt-Nnt51ug6NF8_53.mp4	0.0	98.74216389656067	0.09163212776184082
17	44.34106492996216	response	0	2		15.0	2.5	/experiments/knapen_aot/oldvideos/S_yt-Nnt51ug6NF8_53.mp4	0.0	98.82564902305603	
17	44.34921193122864	movie	1		301.0	15.0	2.5	/experiments/knapen_aot/oldvideos/S_yt-Nnt51ug6NF8_53.mp4	0.0	98.83379602432251	2.508466958999634
17	46.799378871917725	response	1	2		15.0	2.5	/experiments/knapen_aot/oldvideos/S_yt-Nnt51ug6NF8_53.mp4	0.0	101.2839629650116	
17	46.85767889022827	fix_post	2		12.0	15.0	2.5	/experiments/knapen_aot/oldvideos/S_yt-Nnt51ug6NF8_53.mp4	0.0	101.34226298332214	0.09989404678344727
18	46.95757293701172	fix_pre	0		14.0	16.0	2.5	/experiments/knapen_aot/oldvideos/S_yt-lCb_efvJcdE_5.mp4	0.0	101.44215703010559	0.11668586730957031
18	47.066067934036255	response	0	2		16.0	2.5	/experiments/knapen_aot/oldvideos/S_yt-lCb_efvJcdE_5.mp4	0.0	101.55065202713013	
18	47.07425880432129	movie	1		301.0	16.0	2.5	/experiments/knapen_aot/oldvideos/S_yt-lCb_efvJcdE_5.mp4	0.0	101.55884289741516	2.5083980560302734
18	49.58265686035156	fix_post	2		12.0	16.0	2.5	/experiments/knapen_aot/oldvideos/S_yt-lCb_efvJcdE_5.mp4	0.0	104.06724095344543	0.10002398490905762
19	49.68268084526062	fix_pre	0		20.0	17.0	2.5	/experiments/knapen_aot/oldvideos/S_comp_DB_D011_C010_PSNK_DENOISE_v19_SDR_PS_20180914_SDR_2K_AVC.mp4	0.0	104.16726493835449	0.1665661334991455
19	49.841110944747925	response	0	2		17.0	2.5	/experiments/knapen_aot/oldvideos/S_comp_DB_D011_C010_PSNK_DENOISE_v19_SDR_PS_20180914_SDR_2K_AVC.mp4	0.0	104.3256950378418	
19	49.849246978759766	movie	1		165.0	17.0	2.5	/experiments/knapen_aot/oldvideos/S_comp_DB_D011_C010_PSNK_DENOISE_v19_SDR_PS_20180914_SDR_2K_AVC.mp4	0.0	104.33383107185364	2.5085198879241943
19	52.3160297870636	response	1	2		17.0	2.5	/experiments/knapen_aot/oldvideos/S_comp_DB_D011_C010_PSNK_DENOISE_v19_SDR_PS_20180914_SDR_2K_AVC.mp4	0.0	106.80061388015747	
19	52.35776686668396	fix_post	2		12.0	17.0	2.5	/experiments/knapen_aot/oldvideos/S_comp_DB_D011_C010_PSNK_DENOISE_v19_SDR_PS_20180914_SDR_2K_AVC.mp4	0.0	106.84235095977783	0.09995412826538086
20	52.45772099494934	fix_pre	0		18.0	18.0	2.5	/experiments/knapen_aot/oldvideos/S_yt-iHmshS63rBc_329.mp4	0.0	106.94230508804321	0.14996981620788574
20	52.599363803863525	response	0	2		18.0	2.5	/experiments/knapen_aot/oldvideos/S_yt-iHmshS63rBc_329.mp4	0.0	107.0839478969574	
20	52.60769081115723	movie	1		301.0	18.0	2.5	/experiments/knapen_aot/oldvideos/S_yt-iHmshS63rBc_329.mp4	0.0	107.0922749042511	2.5083320140838623
20	55.11602282524109	fix_post	2		12.0	18.0	2.5	/experiments/knapen_aot/oldvideos/S_yt-iHmshS63rBc_329.mp4	0.0	109.60060691833496	0.10002017021179199
21	55.21604299545288	fix_pre	0		22.0	19.0	2.5	/experiments/knapen_aot/oldvideos/R_S_yt-WTxvvlP8xnw_113.mp4	0.0	109.70062708854675	0.18329501152038574
21	55.39102482795715	response	0	2		19.0	2.5	/experiments/knapen_aot/oldvideos/R_S_yt-WTxvvlP8xnw_113.mp4	0.0	109.87560892105103	
21	55.39933800697327	movie	1		301.0	19.0	2.5	/experiments/knapen_aot/oldvideos/R_S_yt-WTxvvlP8xnw_113.mp4	0.0	109.88392210006714	2.508286952972412
21	57.90762495994568	fix_post	2		12.0	19.0	2.5	/experiments/knapen_aot/oldvideos/R_S_yt-WTxvvlP8xnw_113.mp4	0.0	112.39220905303955	0.09991693496704102
21	57.97435998916626	response	2	2		19.0	2.5	/experiments/knapen_aot/oldvideos/R_S_yt-WTxvvlP8xnw_113.mp4	0.0	112.45894408226013	
22	58.00754189491272	fix_pre	0		44.0	20.0	2.5	/experiments/knapen_aot/oldvideos/S_pexels-cottonbro-10640532.mp4	0.0	112.49212598800659	0.3667011260986328
22	58.36601781845093	response	0	2		20.0	2.5	/experiments/knapen_aot/oldvideos/S_pexels-cottonbro-10640532.mp4	0.0	112.8506019115448	
22	58.37424302101135	movie	1		205.0	20.0	2.5	/experiments/knapen_aot/oldvideos/S_pexels-cottonbro-10640532.mp4	0.0	112.85882711410522	2.5083489418029785
22	60.88259196281433	fix_post	2		12.0	20.0	2.5	/experiments/knapen_aot/oldvideos/S_pexels-cottonbro-10640532.mp4	0.0	115.3671760559082	0.10000991821289062
23	60.98260188102722	fix_pre	0		12.0	21.0	2.5	blank	1.0	115.4671859741211	0.09996294975280762
23	61.07434582710266	response	0	2		21.0	2.5	blank	1.0	115.55892992019653	
23	61.08256483078003	movie	1		301.0	21.0	2.5	blank	1.0	115.5671489238739	2.5083541870117188
23	63.59091901779175	fix_post	2		12.0	21.0	2.5	blank	1.0	118.07550311088562	0.10006880760192871
24	63.69098782539368	fix_pre	0		17.0	22.0	2.5	/experiments/knapen_aot/oldvideos/R_S_yt-tfHCqgH1guY_235.mp4	0.0	118.17557191848755	0.1415550708770752
24	63.824339866638184	response	0	2		22.0	2.5	/experiments/knapen_aot/oldvideos/R_S_yt-tfHCqgH1guY_235.mp4	0.0	118.30892395973206	
24	63.83254289627075	movie	1		300.0	22.0	2.5	/experiments/knapen_aot/oldvideos/R_S_yt-tfHCqgH1guY_235.mp4	0.0	118.31712698936462	2.508341073989868
24	66.34088397026062	fix_post	2		12.0	22.0	2.5	/experiments/knapen_aot/oldvideos/R_S_yt-tfHCqgH1guY_235.mp4	0.0	120.82546806335449	0.10003995895385742
25	66.44092392921448	fix_pre	0		17.0	23.0	2.5	/experiments/knapen_aot/oldvideos/R_S_yt-zQnaVApUPH0_14.mp4	0.0	120.92550802230835	0.14160799980163574
25	66.574373960495	response	0	2		23.0	2.5	/experiments/knapen_aot/oldvideos/R_S_yt-zQnaVApUPH0_14.mp4	0.0	121.05895805358887	
25	66.58253192901611	movie	1		301.0	23.0	2.5	/experiments/knapen_aot/oldvideos/R_S_yt-zQnaVApUPH0_14.mp4	0.0	121.06711602210999	2.5085630416870117
25	69.09109497070312	fix_post	2		12.0	23.0	2.5	/experiments/knapen_aot/oldvideos/R_S_yt-zQnaVApUPH0_14.mp4	0.0	123.575679063797	0.09974002838134766
26	69.19083499908447	fix_pre	0		14.0	24.0	2.5	/experiments/knapen_aot/oldvideos/R_S_yt-QI6k6mhpxLo_453.mp4	0.0	123.67541909217834	0.11668801307678223
26	69.29926681518555	response	0	2		24.0	2.5	/experiments/knapen_aot/oldvideos/R_S_yt-QI6k6mhpxLo_453.mp4	0.0	123.78385090827942	
26	69.30752301216125	movie	1		301.0	24.0	2.5	/experiments/knapen_aot/oldvideos/R_S_yt-QI6k6mhpxLo_453.mp4	0.0	123.79210710525513	2.5083978176116943
26	71.81592082977295	fix_post	2		12.0	24.0	2.5	/experiments/knapen_aot/oldvideos/R_S_yt-QI6k6mhpxLo_453.mp4	0.0	126.30050492286682	0.0999460220336914
27	71.91586685180664	fix_pre	0		46.0	25.0	2.5	/experiments/knapen_aot/oldvideos/S_yt-XF0fyyFEgWo_280.mp4	0.0	126.40045094490051	0.383303165435791
27	72.29097294807434	response	0	2		25.0	2.5	/experiments/knapen_aot/oldvideos/S_yt-XF0fyyFEgWo_280.mp4	0.0	126.77555704116821	
27	72.29917001724243	movie	1		301.0	25.0	2.5	/experiments/knapen_aot/oldvideos/S_yt-XF0fyyFEgWo_280.mp4	0.0	126.7837541103363	2.508342981338501
27	74.80751299858093	fix_post	2		12.0	25.0	2.5	/experiments/knapen_aot/oldvideos/S_yt-XF0fyyFEgWo_280.mp4	0.0	129.2920970916748	0.09999489784240723
28	74.90750789642334	fix_pre	0		14.0	26.0	2.5	blank	1.0	129.3920919895172	0.11667394638061523
28	75.015949010849	response	0	2		26.0	2.5	blank	1.0	129.50053310394287	
28	75.02418184280396	movie	1		301.0	26.0	2.5	blank	1.0	129.50876593589783	2.5083000659942627
28	77.53248190879822	fix_post	2		12.0	26.0	2.5	blank	1.0	132.0170660018921	0.09988594055175781
29	77.63236784934998	fix_pre	0		15.0	27.0	2.5	/experiments/knapen_aot/oldvideos/S_yt-HwEfWfFJhRo_73.mp4	0.0	132.11695194244385	0.125014066696167
29	77.74921679496765	response	0	2		27.0	2.5	/experiments/knapen_aot/oldvideos/S_yt-HwEfWfFJhRo_73.mp4	0.0	132.23380088806152	
29	77.75738191604614	movie	1		301.0	27.0	2.5	/experiments/knapen_aot/oldvideos/S_yt-HwEfWfFJhRo_73.mp4	0.0	132.24196600914001	2.5084590911865234
29	80.26584100723267	fix_post	2		12.0	27.0	2.5	/experiments/knapen_aot/oldvideos/S_yt-HwEfWfFJhRo_73.mp4	0.0	134.75042510032654	0.09992289543151855
30	80.36576390266418	fix_pre	0		34.0	28.0	2.5	/experiments/knapen_aot/oldvideos/R_S_yt-fCjjH_4i8Fg_115.mp4	0.0	134.85034799575806	0.28331589698791504
30	80.640949010849	response	0	2		28.0	2.5	/experiments/knapen_aot/oldvideos/R_S_yt-fCjjH_4i8Fg_115.mp4	0.0	135.12553310394287	
30	80.6490797996521	movie	1		301.0	28.0	2.5	/experiments/knapen_aot/oldvideos/R_S_yt-fCjjH_4i8Fg_115.mp4	0.0	135.13366389274597	2.508439064025879
30	83.15751886367798	fix_post	2		12.0	28.0	2.5	/experiments/knapen_aot/oldvideos/R_S_yt-fCjjH_4i8Fg_115.mp4	0.0	137.64210295677185	0.09994792938232422
31	83.2574667930603	fix_pre	0		21.0	29.0	2.5	/experiments/knapen_aot/oldvideos/R_S_yt-rbJOb1spY9M_16.mp4	0.0	137.74205088615417	0.1750340461730957
31	83.42425084114075	response	0	2		29.0	2.5	/experiments/knapen_aot/oldvideos/R_S_yt-rbJOb1spY9M_16.mp4	0.0	137.90883493423462	
31	83.4325008392334	movie	1		301.0	29.0	2.5	/experiments/knapen_aot/oldvideos/R_S_yt-rbJOb1spY9M_16.mp4	0.0	137.91708493232727	2.5083720684051514
31	85.94087290763855	fix_post	2		12.0	29.0	2.5	/experiments/knapen_aot/oldvideos/R_S_yt-rbJOb1spY9M_16.mp4	0.0	140.42545700073242	0.09995198249816895
32	86.04082489013672	fix_pre	0		13.0	30.0	2.5	/experiments/knapen_aot/oldvideos/S_wc-0SAXOWjdNVGC_8.mp4	0.0	140.5254089832306	0.10830092430114746
32	86.14096283912659	response	0	2		30.0	2.5	/experiments/knapen_aot/oldvideos/S_wc-0SAXOWjdNVGC_8.mp4	0.0	140.62554693222046	
32	86.14912581443787	movie	1		164.0	30.0	2.5	/experiments/knapen_aot/oldvideos/S_wc-0SAXOWjdNVGC_8.mp4	0.0	140.63370990753174	2.5083820819854736
32	88.65750789642334	fix_post	2		12.0	30.0	2.5	/experiments/knapen_aot/oldvideos/S_wc-0SAXOWjdNVGC_8.mp4	0.0	143.1420919895172	0.09993600845336914
33	88.75744390487671	fix_pre	0		21.0	31.0	2.5	/experiments/knapen_aot/oldvideos/R_S_yt-wnQFgNEnHUI_109.mp4	0.0	143.24202799797058	0.17502307891845703
33	88.92430686950684	response	0	2		31.0	2.5	/experiments/knapen_aot/oldvideos/R_S_yt-wnQFgNEnHUI_109.mp4	0.0	143.4088909626007	
33	88.93246698379517	movie	1		301.0	31.0	2.5	/experiments/knapen_aot/oldvideos/R_S_yt-wnQFgNEnHUI_109.mp4	0.0	143.41705107688904	2.5082809925079346
33	91.39103198051453	response	1	2		31.0	2.5	/experiments/knapen_aot/oldvideos/R_S_yt-wnQFgNEnHUI_109.mp4	0.0	145.8756160736084	
33	91.4407479763031	fix_post	2		12.0	31.0	2.5	/experiments/knapen_aot/oldvideos/R_S_yt-wnQFgNEnHUI_109.mp4	0.0	145.92533206939697	0.09997892379760742
34	91.54072690010071	fix_pre	0		21.0	32.0	2.5	/experiments/knapen_aot/oldvideos/S_meta-11482036_235.mp4	0.0	146.02531099319458	0.1749730110168457
34	91.70740580558777	response	0	2		32.0	2.5	/experiments/knapen_aot/oldvideos/S_meta-11482036_235.mp4	0.0	146.19198989868164	
34	91.71569991111755	movie	1		301.0	32.0	2.5	/experiments/knapen_aot/oldvideos/S_meta-11482036_235.mp4	0.0	146.20028400421143	2.508359909057617
34	94.22405982017517	fix_post	2		12.0	32.0	2.5	/experiments/knapen_aot/oldvideos/S_meta-11482036_235.mp4	0.0	148.70864391326904	0.10019898414611816
35	94.32425880432129	fix_pre	0		12.0	33.0	2.5	blank	1.0	148.80884289741516	0.09984612464904785
35	94.4158718585968	response	0	2		33.0	2.5	blank	1.0	148.90045595169067	
35	94.42410492897034	movie	1		301.0	33.0	2.5	blank	1.0	148.9086890220642	2.5085930824279785
35	96.93269801139832	fix_post	2		12.0	33.0	2.5	blank	1.0	151.4172821044922	0.09987688064575195
36	97.03257489204407	fix_pre	0		34.0	34.0	2.5	/experiments/knapen_aot/oldvideos/R_S_yt-H-qQ0oE1kwM_6.mp4	0.0	151.51715898513794	0.28305506706237793
36	97.3075008392334	response	0	2		34.0	2.5	/experiments/knapen_aot/oldvideos/R_S_yt-H-qQ0oE1kwM_6.mp4	0.0	151.79208493232727	
36	97.31562995910645	movie	1		301.0	34.0	2.5	/experiments/knapen_aot/oldvideos/R_S_yt-H-qQ0oE1kwM_6.mp4	0.0	151.80021405220032	2.5084919929504395
36	99.82412195205688	fix_post	2		12.0	34.0	2.5	/experiments/knapen_aot/oldvideos/R_S_yt-H-qQ0oE1kwM_6.mp4	0.0	154.30870604515076	0.09993600845336914
37	99.92405796051025	fix_pre	0		33.0	35.0	2.5	/experiments/knapen_aot/oldvideos/S_ILSVRC2015_train_00756000.mp4	0.0	154.40864205360413	0.27495503425598145
37	100.1909339427948	response	0	2		35.0	2.5	/experiments/knapen_aot/oldvideos/S_ILSVRC2015_train_00756000.mp4	0.0	154.67551803588867	
37	100.19901299476624	movie	1		301.0	35.0	2.5	/experiments/knapen_aot/oldvideos/S_ILSVRC2015_train_00756000.mp4	0.0	154.6835970878601	2.5083889961242676
37	102.7074019908905	fix_post	2		12.0	35.0	2.5	/experiments/knapen_aot/oldvideos/S_ILSVRC2015_train_00756000.mp4	0.0	157.19198608398438	0.09995889663696289
38	102.80736088752747	fix_pre	0		16.0	36.0	2.5	/experiments/knapen_aot/oldvideos/S_b6-4.mp4	0.0	157.29194498062134	0.13327503204345703
38	102.93248581886292	response	0	2		36.0	2.5	/experiments/knapen_aot/oldvideos/S_b6-4.mp4	0.0	157.4170699119568	
38	102.94063591957092	movie	1		165.0	36.0	2.5	/experiments/knapen_aot/oldvideos/S_b6-4.mp4	0.0	157.4252200126648	2.5085721015930176
38	105.44920802116394	fix_post	2		12.0	36.0	2.5	/experiments/knapen_aot/oldvideos/S_b6-4.mp4	0.0	159.9337921142578	0.09975481033325195
39	105.54896283149719	fix_pre	0		23.0	37.0	2.5	/experiments/knapen_aot/oldvideos/R_S_yt-jy96-k8drRE_1.mp4	0.0	160.03354692459106	0.1917121410369873
39	105.73240780830383	response	0	2		37.0	2.5	/experiments/knapen_aot/oldvideos/R_S_yt-jy96-k8drRE_1.mp4	0.0	160.2169919013977	
39	105.74067497253418	movie	1		301.0	37.0	2.5	/experiments/knapen_aot/oldvideos/R_S_yt-jy96-k8drRE_1.mp4	0.0	160.22525906562805	2.5084469318389893
39	108.24912190437317	fix_post	2		12.0	37.0	2.5	/experiments/knapen_aot/oldvideos/R_S_yt-jy96-k8drRE_1.mp4	0.0	162.73370599746704	0.09988594055175781
40	108.34900784492493	fix_pre	0		13.0	38.0	2.5	/experiments/knapen_aot/oldvideos/S_yt-BLmwmX-mni8_56.mp4	0.0	162.8335919380188	0.10832095146179199
40	108.44911694526672	response	0	2		38.0	2.5	/experiments/knapen_aot/oldvideos/S_yt-BLmwmX-mni8_56.mp4	0.0	162.9337010383606	
40	108.45732879638672	movie	1		301.0	38.0	2.5	/experiments/knapen_aot/oldvideos/S_yt-BLmwmX-mni8_56.mp4	0.0	162.9419128894806	2.5087389945983887
40	110.96606779098511	fix_post	2		12.0	38.0	2.5	/experiments/knapen_aot/oldvideos/S_yt-BLmwmX-mni8_56.mp4	0.0	165.45065188407898	0.09957504272460938
41	111.06564283370972	fix_pre	0		13.0	39.0	2.5	/experiments/knapen_aot/oldvideos/S_yt-iHmshS63rBc_329.mp4	0.0	165.5502269268036	0.10825610160827637
41	111.16576981544495	response	0	2		39.0	2.5	/experiments/knapen_aot/oldvideos/S_yt-iHmshS63rBc_329.mp4	0.0	165.65035390853882	
41	111.173898935318	movie	1		301.0	39.0	2.5	/experiments/knapen_aot/oldvideos/S_yt-iHmshS63rBc_329.mp4	0.0	165.65848302841187	2.5084218978881836
41	113.68232083320618	fix_post	2		12.0	39.0	2.5	/experiments/knapen_aot/oldvideos/S_yt-iHmshS63rBc_329.mp4	0.0	168.16690492630005	0.10008096694946289
42	113.78240180015564	fix_pre	0		16.0	40.0	2.5	/experiments/knapen_aot/oldvideos/R_S_ILSVRC2015_train_00652001.mp4	0.0	168.2669858932495	0.13324308395385742
42	113.89991784095764	response	0	2		40.0	2.5	/experiments/knapen_aot/oldvideos/R_S_ILSVRC2015_train_00652001.mp4	0.0	168.3845019340515	
42	113.9156448841095	movie	1		301.0	40.0	2.5	/experiments/knapen_aot/oldvideos/R_S_ILSVRC2015_train_00652001.mp4	0.0	168.40022897720337	2.5083279609680176
42	116.42397284507751	fix_post	2		12.0	40.0	2.5	/experiments/knapen_aot/oldvideos/R_S_ILSVRC2015_train_00652001.mp4	0.0	170.9085569381714	0.10001301765441895
43	116.52398586273193	fix_pre	0		29.0	41.0	2.5	blank	1.0	171.0085699558258	0.24160313606262207
43	116.7574520111084	response	0	2		41.0	2.5	blank	1.0	171.24203610420227	
43	116.76558899879456	movie	1		301.0	41.0	2.5	blank	1.0	171.25017309188843	2.5083909034729004
43	119.27397990226746	fix_post	2		12.0	41.0	2.5	blank	1.0	173.75856399536133	0.09990596771240234
43	119.3656690120697	response	2	2		41.0	2.5	blank	1.0	173.85025310516357	
44	119.37388586997986	fix_pre	0		32.0	42.0	2.5	/experiments/knapen_aot/oldvideos/R_S_yt-wLylWnZs3z0_27.mp4	0.0	173.85846996307373	0.26671314239501953
44	119.63237690925598	response	0	2		42.0	2.5	/experiments/knapen_aot/oldvideos/R_S_yt-wLylWnZs3z0_27.mp4	0.0	174.11696100234985	
44	119.64059901237488	movie	1		301.0	42.0	2.5	/experiments/knapen_aot/oldvideos/R_S_yt-wLylWnZs3z0_27.mp4	0.0	174.12518310546875	2.5083608627319336
44	122.14895987510681	fix_post	2		12.0	42.0	2.5	/experiments/knapen_aot/oldvideos/R_S_yt-wLylWnZs3z0_27.mp4	0.0	176.63354396820068	0.10007309913635254
44	122.19160485267639	response	2	2		42.0	2.5	/experiments/knapen_aot/oldvideos/R_S_yt-wLylWnZs3z0_27.mp4	0.0	176.67618894577026	
45	122.24903297424316	fix_pre	0		31.0	43.0	2.5	/experiments/knapen_aot/oldvideos/S_yt-ibDaDIEazxg_3.mp4	0.0	176.73361706733704	0.2582838535308838
45	122.49154591560364	response	0	2		43.0	2.5	/experiments/knapen_aot/oldvideos/S_yt-ibDaDIEazxg_3.mp4	0.0	176.9761300086975	
45	122.50731682777405	movie	1		301.0	43.0	2.5	/experiments/knapen_aot/oldvideos/S_yt-ibDaDIEazxg_3.mp4	0.0	176.99190092086792	2.5082831382751465
45	125.0155999660492	fix_post	2		12.0	43.0	2.5	/experiments/knapen_aot/oldvideos/S_yt-ibDaDIEazxg_3.mp4	0.0	179.50018405914307	0.10004091262817383
46	125.11564087867737	fix_pre	0		7.0	44.0	2.5	/experiments/knapen_aot/oldvideos/S_yt-rPYBHkUEwwc_10.mp4	0.0	179.60022497177124	0.05824708938598633
46	125.16566896438599	response	0	2		44.0	2.5	/experiments/knapen_aot/oldvideos/S_yt-rPYBHkUEwwc_10.mp4	0.0	179.65025305747986	
46	125.17388796806335	movie	1		301.0	44.0	2.5	/experiments/knapen_aot/oldvideos/S_yt-rPYBHkUEwwc_10.mp4	0.0	179.65847206115723	2.5083718299865723
46	127.68225979804993	fix_post	2		12.0	44.0	2.5	/experiments/knapen_aot/oldvideos/S_yt-rPYBHkUEwwc_10.mp4	0.0	182.1668438911438	0.09998106956481934
47	127.78224086761475	fix_pre	0		13.0	45.0	2.5	/experiments/knapen_aot/oldvideos/R_S_yt-6xXEMHBQ08A_28.mp4	0.0	182.26682496070862	0.10942411422729492
47	127.88233590126038	response	0	2		45.0	2.5	/experiments/knapen_aot/oldvideos/R_S_yt-6xXEMHBQ08A_28.mp4	0.0	182.36691999435425	
47	127.89166498184204	movie	1		301.0	45.0	2.5	/experiments/knapen_aot/oldvideos/R_S_yt-6xXEMHBQ08A_28.mp4	0.0	182.3762490749359	2.507262945175171
47	130.3989279270172	fix_post	2		12.0	45.0	2.5	/experiments/knapen_aot/oldvideos/R_S_yt-6xXEMHBQ08A_28.mp4	0.0	184.88351202011108	0.09999799728393555
48	130.49892592430115	fix_pre	0		16.0	46.0	2.5	/experiments/knapen_aot/oldvideos/R_S_yt-JmmyeMOFpII_29.mp4	0.0	184.98351001739502	0.13328790664672852
48	130.62405586242676	response	0	2		46.0	2.5	/experiments/knapen_aot/oldvideos/R_S_yt-JmmyeMOFpII_29.mp4	0.0	185.10863995552063	
48	130.63221383094788	movie	1		301.0	46.0	2.5	/experiments/knapen_aot/oldvideos/R_S_yt-JmmyeMOFpII_29.mp4	0.0	185.11679792404175	2.5083510875701904
48	133.14056491851807	fix_post	2		12.0	46.0	2.5	/experiments/knapen_aot/oldvideos/R_S_yt-JmmyeMOFpII_29.mp4	0.0	187.62514901161194	0.09996294975280762
49	133.24052786827087	fix_pre	0		10.0	47.0	2.5	/experiments/knapen_aot/oldvideos/R_S_ILSVRC2015_train_00363000.mp4	0.0	187.72511196136475	0.08336305618286133
49	133.31565499305725	response	0	2		47.0	2.5	/experiments/knapen_aot/oldvideos/R_S_ILSVRC2015_train_00363000.mp4	0.0	187.80023908615112	
49	133.32389092445374	movie	1		301.0	47.0	2.5	/experiments/knapen_aot/oldvideos/R_S_ILSVRC2015_train_00363000.mp4	0.0	187.8084750175476	2.508538007736206
49	135.83242893218994	fix_post	2		12.0	47.0	2.5	/experiments/knapen_aot/oldvideos/R_S_ILSVRC2015_train_00363000.mp4	0.0	190.3170130252838	0.09982991218566895
50	135.9322588443756	fix_pre	0		19.0	48.0	2.5	blank	1.0	190.41684293746948	0.1582961082458496
50	136.08232593536377	response	0	2		48.0	2.5	blank	1.0	190.56691002845764	
50	136.09055495262146	movie	1		301.0	48.0	2.5	blank	1.0	190.57513904571533	2.5083670616149902
50	138.59892201423645	fix_post	2		12.0	48.0	2.5	blank	1.0	193.08350610733032	0.10000085830688477
51	138.69892287254333	fix_pre	0		20.0	49.0	2.5	/experiments/knapen_aot/oldvideos/R_S_yt-Q9fI2ar05IE_77.mp4	0.0	193.1835069656372	0.1666579246520996
51	138.85735392570496	response	0	2		49.0	2.5	/experiments/knapen_aot/oldvideos/R_S_yt-Q9fI2ar05IE_77.mp4	0.0	193.34193801879883	
51	138.86558079719543	movie	1		301.0	49.0	2.5	/experiments/knapen_aot/oldvideos/R_S_yt-Q9fI2ar05IE_77.mp4	0.0	193.3501648902893	2.508355140686035
51	141.37393593788147	fix_post	2		12.0	49.0	2.5	/experiments/knapen_aot/oldvideos/R_S_yt-Q9fI2ar05IE_77.mp4	0.0	195.85852003097534	0.09996700286865234
52	141.47390294075012	fix_pre	0		22.0	50.0	2.5	/experiments/knapen_aot/oldvideos/R_S_ILSVRC2015_train_00743006.mp4	0.0	195.958487033844	0.1833329200744629
52	141.6490659713745	response	0	2		50.0	2.5	/experiments/knapen_aot/oldvideos/R_S_ILSVRC2015_train_00743006.mp4	0.0	196.13365006446838	
52	141.65723586082458	movie	1		301.0	50.0	2.5	/experiments/knapen_aot/oldvideos/R_S_ILSVRC2015_train_00743006.mp4	0.0	196.14181995391846	2.508331060409546
52	143.50734996795654	response	1	2		50.0	2.5	/experiments/knapen_aot/oldvideos/R_S_ILSVRC2015_train_00743006.mp4	0.0	197.99193406105042	
52	144.0406849384308	response	1	2		50.0	2.5	/experiments/knapen_aot/oldvideos/R_S_ILSVRC2015_train_00743006.mp4	0.0	198.52526903152466	
52	144.16556692123413	fix_post	2		12.0	50.0	2.5	/experiments/knapen_aot/oldvideos/R_S_ILSVRC2015_train_00743006.mp4	0.0	198.650151014328	0.09999895095825195
53	144.26556587219238	fix_pre	0		1.0	51.0	2.5	/experiments/knapen_aot/oldvideos/R_S_yt-2kPrGwVmRfE_169.mp4	0.0	198.75014996528625	0.008289098739624023
53	144.2671549320221	response	0	2		51.0	2.5	/experiments/knapen_aot/oldvideos/R_S_yt-2kPrGwVmRfE_169.mp4	0.0	198.75173902511597	
53	144.273854970932	movie	1		301.0	51.0	2.5	/experiments/knapen_aot/oldvideos/R_S_yt-2kPrGwVmRfE_169.mp4	0.0	198.75843906402588	2.5083470344543457
53	146.78220200538635	fix_post	2		12.0	51.0	2.5	/experiments/knapen_aot/oldvideos/R_S_yt-2kPrGwVmRfE_169.mp4	0.0	201.26678609848022	0.10002493858337402
54	146.88222694396973	fix_pre	0		70.0	52.0	2.5	/experiments/knapen_aot/oldvideos/S_pexels-cottonbro-6789228.mp4	0.0	201.3668110370636	0.5832748413085938
54	147.44981789588928	response	0	4		52.0	2.5	/experiments/knapen_aot/oldvideos/S_pexels-cottonbro-6789228.mp4	0.0	201.93440198898315	
54	147.46550178527832	movie	1		209.0	52.0	2.5	/experiments/knapen_aot/oldvideos/S_pexels-cottonbro-6789228.mp4	0.0	201.9500858783722	2.5084691047668457
54	147.55555891990662	response	1	4		52.0	2.5	/experiments/knapen_aot/oldvideos/S_pexels-cottonbro-6789228.mp4	0.0	202.0401430130005	
54	149.97397089004517	fix_post	2		12.0	52.0	2.5	/experiments/knapen_aot/oldvideos/S_pexels-cottonbro-6789228.mp4	0.0	204.45855498313904	0.09990596771240234
55	150.07387685775757	fix_pre	0		8.0	53.0	2.5	/experiments/knapen_aot/oldvideos/S_yt-jUGt_Byqczw_599.mp4	0.0	204.55846095085144	0.06779813766479492
55	150.13234400749207	response	0	4		53.0	2.5	/experiments/knapen_aot/oldvideos/S_yt-jUGt_Byqczw_599.mp4	0.0	204.61692810058594	
55	150.14167499542236	movie	1		301.0	53.0	2.5	/experiments/knapen_aot/oldvideos/S_yt-jUGt_Byqczw_599.mp4	0.0	204.62625908851624	2.5072128772735596
55	152.64888787269592	fix_post	2		12.0	53.0	2.5	/experiments/knapen_aot/oldvideos/S_yt-jUGt_Byqczw_599.mp4	0.0	207.1334719657898	0.10000991821289062
56	152.7488977909088	fix_pre	0		13.0	54.0	2.5	/experiments/knapen_aot/oldvideos/R_S_comp_A001_C001_120530_v04_SDR_FINAL_20180706_SDR_2K_AVC.mp4	0.0	207.23348188400269	0.1083061695098877
56	152.84900188446045	response	0	4		54.0	2.5	/experiments/knapen_aot/oldvideos/R_S_comp_A001_C001_120530_v04_SDR_FINAL_20180706_SDR_2K_AVC.mp4	0.0	207.33358597755432	
56	152.8572039604187	movie	1		168.0	54.0	2.5	/experiments/knapen_aot/oldvideos/R_S_comp_A001_C001_120530_v04_SDR_FINAL_20180706_SDR_2K_AVC.mp4	0.0	207.34178805351257	2.5085089206695557
56	155.36571288108826	fix_post	2		12.0	54.0	2.5	/experiments/knapen_aot/oldvideos/R_S_comp_A001_C001_120530_v04_SDR_FINAL_20180706_SDR_2K_AVC.mp4	0.0	209.85029697418213	0.09980893135070801
57	155.46552181243896	fix_pre	0		284.0	55.0	2.5	/experiments/knapen_aot/oldvideos/S_yt-xBwq6sHHF5M_21.mp4	0.0	209.95010590553284	2.3665990829467773
57	157.82391595840454	response	0	4		55.0	2.5	/experiments/knapen_aot/oldvideos/S_yt-xBwq6sHHF5M_21.mp4	0.0	212.3085000514984	
57	157.83212089538574	movie	1		301.0	55.0	2.5	/experiments/knapen_aot/oldvideos/S_yt-xBwq6sHHF5M_21.mp4	0.0	212.31670498847961	2.5083999633789062
57	160.34052085876465	fix_post	2		12.0	55.0	2.5	/experiments/knapen_aot/oldvideos/S_yt-xBwq6sHHF5M_21.mp4	0.0	214.82510495185852	0.09999394416809082
58	160.44051480293274	fix_pre	0		11.0	56.0	2.5	blank	1.0	214.9250988960266	0.0916290283203125
58	160.51638388633728	response	0	4		56.0	2.5	blank	1.0	215.00096797943115	
58	160.53214383125305	movie	1		301.0	56.0	2.5	blank	1.0	215.01672792434692	2.5083751678466797
58	163.04051899909973	fix_post	2		12.0	56.0	2.5	blank	1.0	217.5251030921936	0.09996700286865234
59	163.14048600196838	fix_pre	0		19.0	57.0	2.5	/experiments/knapen_aot/oldvideos/S_yt-BG-G7m5wLZ4_94.mp4	0.0	217.62507009506226	0.15829801559448242
59	163.29057383537292	response	0	4		57.0	2.5	/experiments/knapen_aot/oldvideos/S_yt-BG-G7m5wLZ4_94.mp4	0.0	217.7751579284668	
59	163.29878401756287	movie	1		301.0	57.0	2.5	/experiments/knapen_aot/oldvideos/S_yt-BG-G7m5wLZ4_94.mp4	0.0	217.78336811065674	2.508366823196411
59	165.80715084075928	fix_post	2		12.0	57.0	2.5	/experiments/knapen_aot/oldvideos/S_yt-BG-G7m5wLZ4_94.mp4	0.0	220.29173493385315	0.10002398490905762
60	165.90717482566833	fix_pre	0		4.0	58.0	2.5	/experiments/knapen_aot/oldvideos/S_ILSVRC2015_train_00652001.mp4	0.0	220.3917589187622	0.03327202796936035
60	165.93231892585754	response	0	4		58.0	2.5	/experiments/knapen_aot/oldvideos/S_ILSVRC2015_train_00652001.mp4	0.0	220.41690301895142	
60	165.9404468536377	movie	1		301.0	58.0	2.5	/experiments/knapen_aot/oldvideos/S_ILSVRC2015_train_00652001.mp4	0.0	220.42503094673157	2.50850510597229
60	168.44895195960999	fix_post	2		12.0	58.0	2.5	/experiments/knapen_aot/oldvideos/S_ILSVRC2015_train_00652001.mp4	0.0	222.93353605270386	0.09985804557800293
61	168.548810005188	fix_pre	0		25.0	59.0	2.5	/experiments/knapen_aot/oldvideos/S_yt-6xXEMHBQ08A_28.mp4	0.0	223.03339409828186	0.20838594436645508
61	168.7488889694214	response	0	4		59.0	2.5	/experiments/knapen_aot/oldvideos/S_yt-6xXEMHBQ08A_28.mp4	0.0	223.23347306251526	
61	168.75719594955444	movie	1		301.0	59.0	2.5	/experiments/knapen_aot/oldvideos/S_yt-6xXEMHBQ08A_28.mp4	0.0	223.24178004264832	2.5082218647003174
61	171.26541781425476	fix_post	2		12.0	59.0	2.5	/experiments/knapen_aot/oldvideos/S_yt-6xXEMHBQ08A_28.mp4	0.0	225.75000190734863	0.10002017021179199
62	171.36543798446655	fix_pre	0		15.0	60.0	2.5	/experiments/knapen_aot/oldvideos/R_S_G007_C004_UHD_SDR_2K_AVC.mp4	0.0	225.85002207756042	0.1249089241027832
62	171.47463393211365	response	0	4		60.0	2.5	/experiments/knapen_aot/oldvideos/R_S_G007_C004_UHD_SDR_2K_AVC.mp4	0.0	225.95921802520752	
62	171.49034690856934	movie	1		168.0	60.0	2.5	/experiments/knapen_aot/oldvideos/R_S_G007_C004_UHD_SDR_2K_AVC.mp4	0.0	225.9749310016632	2.508574962615967
62	173.9989218711853	fix_post	2		12.0	60.0	2.5	/experiments/knapen_aot/oldvideos/R_S_G007_C004_UHD_SDR_2K_AVC.mp4	0.0	228.48350596427917	0.09977197647094727
62	174.01553678512573	response	2	4		60.0	2.5	/experiments/knapen_aot/oldvideos/R_S_G007_C004_UHD_SDR_2K_AVC.mp4	0.0	228.5001208782196	
63	174.09869384765625	fix_pre	0		31.0	61.0	2.5	blank	1.0	228.58327794075012	0.25838208198547363
63	174.3488109111786	response	0	4		61.0	2.5	blank	1.0	228.83339500427246	
63	174.35707592964172	movie	1		301.0	61.0	2.5	blank	1.0	228.8416600227356	2.5083019733428955
63	176.86537790298462	fix_post	2		12.0	61.0	2.5	blank	1.0	231.3499619960785	0.10007810592651367
64	176.96545600891113	fix_pre	0		18.0	62.0	2.5	/experiments/knapen_aot/oldvideos/S_yt-Ojy5TMPX8_Q_165.mp4	0.0	231.450040102005	0.1498558521270752
64	177.09976601600647	response	0	4		62.0	2.5	/experiments/knapen_aot/oldvideos/S_yt-Ojy5TMPX8_Q_165.mp4	0.0	231.58435010910034	
64	177.1153118610382	movie	1		301.0	62.0	2.5	/experiments/knapen_aot/oldvideos/S_yt-Ojy5TMPX8_Q_165.mp4	0.0	231.59989595413208	2.5083930492401123
64	179.62370491027832	fix_post	2		12.0	62.0	2.5	/experiments/knapen_aot/oldvideos/S_yt-Ojy5TMPX8_Q_165.mp4	0.0	234.1082890033722	0.0999610424041748
65	179.7236659526825	fix_pre	0		39.0	63.0	2.5	/experiments/knapen_aot/oldvideos/S_production_ID_3923518.mp4	0.0	234.20825004577637	0.32520389556884766
65	180.04056787490845	response	0	4		63.0	2.5	/experiments/knapen_aot/oldvideos/S_production_ID_3923518.mp4	0.0	234.52515196800232	
65	180.04886984825134	movie	1		164.0	63.0	2.5	/experiments/knapen_aot/oldvideos/S_production_ID_3923518.mp4	0.0	234.53345394134521	2.5081980228424072
65	182.55706787109375	fix_post	2		12.0	63.0	2.5	/experiments/knapen_aot/oldvideos/S_production_ID_3923518.mp4	0.0	237.04165196418762	0.0999300479888916
66	182.65699791908264	fix_pre	0		53.0	64.0	2.5	/experiments/knapen_aot/oldvideos/R_S_yt-BLmwmX-mni8_56.mp4	0.0	237.1415820121765	0.44245004653930664
66	183.0904757976532	response	0	4		64.0	2.5	/experiments/knapen_aot/oldvideos/R_S_yt-BLmwmX-mni8_56.mp4	0.0	237.57505989074707	
66	183.09944796562195	movie	1		301.0	64.0	2.5	/experiments/knapen_aot/oldvideos/R_S_yt-BLmwmX-mni8_56.mp4	0.0	237.58403205871582	2.507558822631836
66	185.60700678825378	fix_post	2		12.0	64.0	2.5	/experiments/knapen_aot/oldvideos/R_S_yt-BLmwmX-mni8_56.mp4	0.0	240.09159088134766	0.10025620460510254
67	185.7072629928589	fix_pre	0		3.0	65.0	2.5	/experiments/knapen_aot/oldvideos/S_yt-aQfM-NhNSsA_136.mp4	0.0	240.19184708595276	0.024815797805786133
67	185.72381401062012	response	0	4		65.0	2.5	/experiments/knapen_aot/oldvideos/S_yt-aQfM-NhNSsA_136.mp4	0.0	240.208398103714	
67	185.73207879066467	movie	1		301.0	65.0	2.5	/experiments/knapen_aot/oldvideos/S_yt-aQfM-NhNSsA_136.mp4	0.0	240.21666288375854	2.5083630084991455
67	188.24044179916382	fix_post	2		12.0	65.0	2.5	/experiments/knapen_aot/oldvideos/S_yt-aQfM-NhNSsA_136.mp4	0.0	242.7250258922577	0.09989714622497559
68	188.3403389453888	fix_pre	0		12.0	66.0	2.5	/experiments/knapen_aot/oldvideos/S_ILSVRC2015_train_00354001.mp4	0.0	242.82492303848267	0.09999394416809082
68	188.43212389945984	response	0	4		66.0	2.5	/experiments/knapen_aot/oldvideos/S_ILSVRC2015_train_00354001.mp4	0.0	242.9167079925537	
68	188.44033288955688	movie	1		301.0	66.0	2.5	/experiments/knapen_aot/oldvideos/S_ILSVRC2015_train_00354001.mp4	0.0	242.92491698265076	2.508368968963623
68	190.9487018585205	fix_post	2		12.0	66.0	2.5	/experiments/knapen_aot/oldvideos/S_ILSVRC2015_train_00354001.mp4	0.0	245.43328595161438	0.09992814064025879
69	191.04862999916077	fix_pre	0		40.0	67.0	2.5	/experiments/knapen_aot/oldvideos/R_S_yt-SRozDkhwx28_1463.mp4	0.0	245.53321409225464	0.333331823348999
69	191.37373280525208	response	0	4		67.0	2.5	/experiments/knapen_aot/oldvideos/R_S_yt-SRozDkhwx28_1463.mp4	0.0	245.85831689834595	
69	191.38196182250977	movie	1		301.0	67.0	2.5	/experiments/knapen_aot/oldvideos/R_S_yt-SRozDkhwx28_1463.mp4	0.0	245.86654591560364	2.508362054824829
69	193.8903238773346	fix_post	2		12.0	67.0	2.5	/experiments/knapen_aot/oldvideos/R_S_yt-SRozDkhwx28_1463.mp4	0.0	248.37490797042847	0.10019111633300781
70	193.9905149936676	fix_pre	0		12.0	68.0	2.5	blank	1.0	248.47509908676147	0.09981393814086914
70	194.0746088027954	response	0	4		68.0	2.5	blank	1.0	248.55919289588928	
70	194.09032893180847	movie	1		301.0	68.0	2.5	blank	1.0	248.57491302490234	2.5083770751953125
70	196.59870600700378	fix_post	2		12.0	68.0	2.5	blank	1.0	251.08329010009766	0.09998297691345215
71	196.69868898391724	fix_pre	0		29.0	69.0	2.5	/experiments/knapen_aot/oldvideos/S_yt-tfHCqgH1guY_235.mp4	0.0	251.1832730770111	0.24156403541564941
71	196.93213081359863	response	0	4		69.0	2.5	/experiments/knapen_aot/oldvideos/S_yt-tfHCqgH1guY_235.mp4	0.0	251.4167149066925	
71	196.94025301933289	movie	1		301.0	69.0	2.5	/experiments/knapen_aot/oldvideos/S_yt-tfHCqgH1guY_235.mp4	0.0	251.42483711242676	2.508392810821533
71	199.44864583015442	fix_post	2		12.0	69.0	2.5	/experiments/knapen_aot/oldvideos/S_yt-tfHCqgH1guY_235.mp4	0.0	253.9332299232483	0.09998202323913574
72	199.54862785339355	fix_pre	0		24.0	70.0	2.5	/experiments/knapen_aot/oldvideos/R_S_ILSVRC2015_train_00369002.mp4	0.0	254.03321194648743	0.19999194145202637
72	199.74037384986877	response	0	4		70.0	2.5	/experiments/knapen_aot/oldvideos/R_S_ILSVRC2015_train_00369002.mp4	0.0	254.22495794296265	
72	199.74861979484558	movie	1		301.0	70.0	2.5	/experiments/knapen_aot/oldvideos/R_S_ILSVRC2015_train_00369002.mp4	0.0	254.23320388793945	2.5083541870117188
72	202.2569739818573	fix_post	2		12.0	70.0	2.5	/experiments/knapen_aot/oldvideos/R_S_ILSVRC2015_train_00369002.mp4	0.0	256.7415580749512	0.09995293617248535
73	202.35692691802979	fix_pre	0		26.0	71.0	2.5	/experiments/knapen_aot/oldvideos/S_yt-2dRSJcaJIXw_32.mp4	0.0	256.84151101112366	0.2166280746459961
73	202.56538486480713	response	0	4		71.0	2.5	/experiments/knapen_aot/oldvideos/S_yt-2dRSJcaJIXw_32.mp4	0.0	257.049968957901	
73	202.57355499267578	movie	1		301.0	71.0	2.5	/experiments/knapen_aot/oldvideos/S_yt-2dRSJcaJIXw_32.mp4	0.0	257.05813908576965	2.508436918258667
73	205.08199191093445	fix_post	2		12.0	71.0	2.5	/experiments/knapen_aot/oldvideos/S_yt-2dRSJcaJIXw_32.mp4	0.0	259.5665760040283	0.10002589225769043
74	205.18201780319214	fix_pre	0		32.0	72.0	2.5	/experiments/knapen_aot/oldvideos/R_S_yt-2LCHVTVwJ5E_235.mp4	0.0	259.666601896286	0.2664811611175537
74	205.44040393829346	response	0	4		72.0	2.5	/experiments/knapen_aot/oldvideos/R_S_yt-2LCHVTVwJ5E_235.mp4	0.0	259.92498803138733	
74	205.4484989643097	movie	1		301.0	72.0	2.5	/experiments/knapen_aot/oldvideos/R_S_yt-2LCHVTVwJ5E_235.mp4	0.0	259.93308305740356	2.508417844772339
74	207.95691680908203	fix_post	2		12.0	72.0	2.5	/experiments/knapen_aot/oldvideos/R_S_yt-2LCHVTVwJ5E_235.mp4	0.0	262.4415009021759	0.09996199607849121
75	208.05687880516052	fix_pre	0		11.0	73.0	2.5	/experiments/knapen_aot/oldvideos/R_S_yt-CR86bVrRwfo_13.mp4	0.0	262.5414628982544	0.09169912338256836
75	208.1404058933258	response	0	4		73.0	2.5	/experiments/knapen_aot/oldvideos/R_S_yt-CR86bVrRwfo_13.mp4	0.0	262.6249899864197	
75	208.1485779285431	movie	1		301.0	73.0	2.5	/experiments/knapen_aot/oldvideos/R_S_yt-CR86bVrRwfo_13.mp4	0.0	262.63316202163696	2.508734941482544
75	210.65731287002563	fix_post	2		12.0	73.0	2.5	/experiments/knapen_aot/oldvideos/R_S_yt-CR86bVrRwfo_13.mp4	0.0	265.1418969631195	0.09976696968078613
76	210.75707983970642	fix_pre	0		2.0	74.0	2.5	/experiments/knapen_aot/oldvideos/S_yt-H-qQ0oE1kwM_6.mp4	0.0	265.2416639328003	0.01648402214050293
76	210.7666368484497	response	0	4		74.0	2.5	/experiments/knapen_aot/oldvideos/S_yt-H-qQ0oE1kwM_6.mp4	0.0	265.2512209415436	
76	210.77356386184692	movie	1		301.0	74.0	2.5	/experiments/knapen_aot/oldvideos/S_yt-H-qQ0oE1kwM_6.mp4	0.0	265.2581479549408	2.5084381103515625
76	213.2820019721985	fix_post	2		12.0	74.0	2.5	/experiments/knapen_aot/oldvideos/S_yt-H-qQ0oE1kwM_6.mp4	0.0	267.76658606529236	0.09978389739990234
76	213.29030990600586	response	2	4		74.0	2.5	/experiments/knapen_aot/oldvideos/S_yt-H-qQ0oE1kwM_6.mp4	0.0	267.77489399909973	
77	213.3817858695984	fix_pre	0		21.0	75.0	2.5	blank	1.0	267.86636996269226	0.1758251190185547
77	213.54857087135315	response	0	4		75.0	2.5	blank	1.0	268.033154964447	
77	213.55761098861694	movie	1		301.0	75.0	2.5	blank	1.0	268.0421950817108	2.5076048374176025
77	216.06521582603455	fix_post	2		12.0	75.0	2.5	blank	1.0	270.5497999191284	0.10008096694946289
78	216.165296792984	fix_pre	0		19.0	76.0	2.5	/experiments/knapen_aot/oldvideos/R_S_video-5.mp4	0.0	270.6498808860779	0.15820813179016113
78	216.3152949810028	response	0	4		76.0	2.5	/experiments/knapen_aot/oldvideos/R_S_video-5.mp4	0.0	270.7998790740967	
78	216.32350492477417	movie	1		176.0	76.0	2.5	/experiments/knapen_aot/oldvideos/R_S_video-5.mp4	0.0	270.80808901786804	2.5083608627319336
78	218.790344953537	response	1	4		76.0	2.5	/experiments/knapen_aot/oldvideos/R_S_video-5.mp4	0.0	273.27492904663086	
78	218.8318657875061	fix_post	2		12.0	76.0	2.5	/experiments/knapen_aot/oldvideos/R_S_video-5.mp4	0.0	273.3164498806	0.10001206398010254
79	218.9318778514862	fix_pre	0		31.0	77.0	2.5	/experiments/knapen_aot/oldvideos/S_pexels-koolshooters-7327412.mp4	0.0	273.4164619445801	0.25832605361938477
79	219.18191194534302	response	0	4		77.0	2.5	/experiments/knapen_aot/oldvideos/S_pexels-koolshooters-7327412.mp4	0.0	273.6664960384369	
79	219.1902039051056	movie	1		168.0	77.0	2.5	/experiments/knapen_aot/oldvideos/S_pexels-koolshooters-7327412.mp4	0.0	273.67478799819946	2.5083351135253906
79	221.69853901863098	fix_post	2		12.0	77.0	2.5	/experiments/knapen_aot/oldvideos/S_pexels-koolshooters-7327412.mp4	0.0	276.18312311172485	0.09994983673095703
79	221.74043679237366	response	2	4		77.0	2.5	/experiments/knapen_aot/oldvideos/S_pexels-koolshooters-7327412.mp4	0.0	276.22502088546753	
80	221.79848885536194	fix_pre	0		26.0	78.0	2.5	/experiments/knapen_aot/oldvideos/R_S_pexels-koolshooters-7327412.mp4	0.0	276.2830729484558	0.21740412712097168
80	222.00691390037537	response	0	4		78.0	2.5	/experiments/knapen_aot/oldvideos/R_S_pexels-koolshooters-7327412.mp4	0.0	276.49149799346924	
80	222.0158929824829	movie	1		165.0	78.0	2.5	/experiments/knapen_aot/oldvideos/R_S_pexels-koolshooters-7327412.mp4	0.0	276.5004770755768	2.507650852203369
80	224.139014005661	response	1	4		78.0	2.5	/experiments/knapen_aot/oldvideos/R_S_pexels-koolshooters-7327412.mp4	0.0	278.6235980987549	
80	224.39866995811462	response	1	4		78.0	2.5	/experiments/knapen_aot/oldvideos/R_S_pexels-koolshooters-7327412.mp4	0.0	278.8832540512085	
80	224.39874482154846	response	1	2		78.0	2.5	/experiments/knapen_aot/oldvideos/R_S_pexels-koolshooters-7327412.mp4	0.0	278.88332891464233	
80	224.52354383468628	fix_post	2		12.0	78.0	2.5	/experiments/knapen_aot/oldvideos/R_S_pexels-koolshooters-7327412.mp4	0.0	279.00812792778015	0.09989809989929199
80	224.60691380500793	response	2	4		78.0	2.5	/experiments/knapen_aot/oldvideos/R_S_pexels-koolshooters-7327412.mp4	0.0	279.0914978981018	
80	224.6152629852295	response	2	2		78.0	2.5	/experiments/knapen_aot/oldvideos/R_S_pexels-koolshooters-7327412.mp4	0.0	279.09984707832336	
81	224.62344193458557	fix_pre	0		47.0	79.0	2.5	/experiments/knapen_aot/oldvideos/R_S_yt-jYSri2JVUqo_1036.mp4	0.0	279.10802602767944	0.39242005348205566
81	225.00689101219177	response	0	4		79.0	2.5	/experiments/knapen_aot/oldvideos/R_S_yt-jYSri2JVUqo_1036.mp4	0.0	279.49147510528564	
81	225.01586198806763	movie	1		301.0	79.0	2.5	/experiments/knapen_aot/oldvideos/R_S_yt-jYSri2JVUqo_1036.mp4	0.0	279.5004460811615	2.5076019763946533
81	227.52346396446228	fix_post	2		12.0	79.0	2.5	/experiments/knapen_aot/oldvideos/R_S_yt-jYSri2JVUqo_1036.mp4	0.0	282.00804805755615	0.10007786750793457
82	227.62354183197021	fix_pre	0		8.0	80.0	2.5	/experiments/knapen_aot/oldvideos/R_S_production_ID_4101242.mp4	0.0	282.1081259250641	0.06675314903259277
82	227.6819109916687	response	0	4		80.0	2.5	/experiments/knapen_aot/oldvideos/R_S_production_ID_4101242.mp4	0.0	282.1664950847626	
82	227.6902949810028	movie	1		194.0	80.0	2.5	/experiments/knapen_aot/oldvideos/R_S_production_ID_4101242.mp4	0.0	282.1748790740967	2.5082759857177734
82	230.19857096672058	fix_post	2		12.0	80.0	2.5	/experiments/knapen_aot/oldvideos/R_S_production_ID_4101242.mp4	0.0	284.68315505981445	0.10014700889587402
83	230.29871797561646	fix_pre	0		8.0	81.0	2.5	/experiments/knapen_aot/oldvideos/R_S_yt-ayx4rU9bJrU_179.mp4	0.0	284.7833020687103	0.06634688377380371
83	230.35696983337402	response	0	4		81.0	2.5	/experiments/knapen_aot/oldvideos/R_S_yt-ayx4rU9bJrU_179.mp4	0.0	284.8415539264679	
83	230.36506485939026	movie	1		301.0	81.0	2.5	/experiments/knapen_aot/oldvideos/R_S_yt-ayx4rU9bJrU_179.mp4	0.0	284.84964895248413	2.5084779262542725
83	232.87354278564453	fix_post	2		12.0	81.0	2.5	/experiments/knapen_aot/oldvideos/R_S_yt-ayx4rU9bJrU_179.mp4	0.0	287.3581268787384	0.10006308555603027
84	232.97360587120056	fix_pre	0		7.0	82.0	2.5	blank	1.0	287.45818996429443	0.058258056640625
84	233.02354884147644	response	0	4		82.0	2.5	blank	1.0	287.5081329345703	
84	233.0318639278412	movie	1		301.0	82.0	2.5	blank	1.0	287.51644802093506	2.5083179473876953
84	235.54018187522888	fix_post	2		12.0	82.0	2.5	blank	1.0	290.02476596832275	0.10057306289672852
85	235.6407549381256	fix_pre	0		21.0	83.0	2.5	/experiments/knapen_aot/oldvideos/R_S_yt-Ojy5TMPX8_Q_165.mp4	0.0	290.1253390312195	0.17442107200622559
85	235.79942679405212	response	0	4		83.0	2.5	/experiments/knapen_aot/oldvideos/R_S_yt-Ojy5TMPX8_Q_165.mp4	0.0	290.284010887146	
85	235.81517601013184	movie	1		301.0	83.0	2.5	/experiments/knapen_aot/oldvideos/R_S_yt-Ojy5TMPX8_Q_165.mp4	0.0	290.2997601032257	2.5083088874816895
85	238.31527495384216	response	1	4		83.0	2.5	/experiments/knapen_aot/oldvideos/R_S_yt-Ojy5TMPX8_Q_165.mp4	0.0	292.79985904693604	
85	238.32348489761353	fix_post	2		12.0	83.0	2.5	/experiments/knapen_aot/oldvideos/R_S_yt-Ojy5TMPX8_Q_165.mp4	0.0	292.8080689907074	0.10001707077026367
87	238.4235019683838	stim	0		151.0					292.90808606147766	1.2588119506835938
87	238.58190488815308	response	0	4						293.06648898124695	
87	239.6751229763031	response	0	space						294.159707069397	
