trial_nr	onset	event_type	phase	response	nr_frames	movie_index	movie_duration	movie_file	blank	onset_abs	duration
0	0.12494897842407227	stim	0		66.0					161.25078082084656	0.5497770309448242
0	0.6668519973754883	response	0	space						161.79268383979797	
1	0.6747260093688965	stim	0		121.0					161.80055785179138	1.0079591274261475
1	1.0665462017059326	response	0	space						162.19237804412842	
1	1.266484022140503	response	0	space						162.392315864563	
1	1.4744701385498047	response	0	space						162.6003019809723	
1	1.6660912036895752	response	0	space						162.79192304611206	
1	1.682685136795044	stim	1		120.0					162.80851697921753	1.0000879764556885
1	1.8578062057495117	response	1	space						162.983638048172	
1	2.0578081607818604	response	1	space						163.18364000320435	
1	2.4994900226593018	response	1	space						163.6253218650818	
1	2.5203371047973633	response	1	4						163.64616894721985	
2	2.6827731132507324	fix_pre	0		33.0	0.0	2.5	/experiments/knapen_aot/videos/S_yt-FLMdajcbjcg_35.mp4	0.0	163.80860495567322	0.275115966796875
2	2.9533121585845947	response	0	space		0.0	2.5	/experiments/knapen_aot/videos/S_yt-FLMdajcbjcg_35.mp4	0.0	164.07914400100708	
2	2.9578890800476074	movie	1		294.0	0.0	2.5	/experiments/knapen_aot/videos/S_yt-FLMdajcbjcg_35.mp4	0.0	164.0837209224701	2.508147954940796
2	5.466037034988403	fix_post	2		12.0	0.0	2.5	/experiments/knapen_aot/videos/S_yt-FLMdajcbjcg_35.mp4	0.0	166.5918688774109	0.09995794296264648
3	5.56599497795105	fix_pre	0		70.0	1.0	2.5	/experiments/knapen_aot/videos/S_4_D1iUb87uE_15.mp4	0.0	166.69182682037354	0.5863490104675293
3	6.14621114730835	response	0	4		1.0	2.5	/experiments/knapen_aot/videos/S_4_D1iUb87uE_15.mp4	0.0	167.27204298973083	
3	6.152343988418579	movie	1		299.0	1.0	2.5	/experiments/knapen_aot/videos/S_4_D1iUb87uE_15.mp4	0.0	167.27817583084106	2.5053861141204834
3	8.657730102539062	fix_post	2		12.0	1.0	2.5	/experiments/knapen_aot/videos/S_4_D1iUb87uE_15.mp4	0.0	169.78356194496155	0.09992289543151855
4	8.757652997970581	fix_pre	0		34.0	2.0	2.5	/experiments/knapen_aot/videos/S_yt-6mRpmfIvdew_1435.mp4	0.0	169.88348484039307	0.2837212085723877
4	9.032905101776123	response	0	4		2.0	2.5	/experiments/knapen_aot/videos/S_yt-6mRpmfIvdew_1435.mp4	0.0	170.1587369441986	
4	9.041374206542969	movie	1		301.0	2.0	2.5	/experiments/knapen_aot/videos/S_yt-6mRpmfIvdew_1435.mp4	0.0	170.16720604896545	2.5079779624938965
4	11.549352169036865	fix_post	2		12.0	2.0	2.5	/experiments/knapen_aot/videos/S_yt-6mRpmfIvdew_1435.mp4	0.0	172.67518401145935	0.09997892379760742
5	11.649331092834473	fix_pre	0		39.0	3.0	2.5	/experiments/knapen_aot/videos/S_OdxWh1oU8e8_1.mp4	0.0	172.77516293525696	0.32499194145202637
5	11.966142177581787	response	0	4		3.0	2.5	/experiments/knapen_aot/videos/S_OdxWh1oU8e8_1.mp4	0.0	173.09197402000427	
5	11.974323034286499	movie	1		301.0	3.0	2.5	/experiments/knapen_aot/videos/S_OdxWh1oU8e8_1.mp4	0.0	173.10015487670898	2.5084450244903564
5	14.041221141815186	response	1	4		3.0	2.5	/experiments/knapen_aot/videos/S_OdxWh1oU8e8_1.mp4	0.0	175.16705298423767	
5	14.482768058776855	fix_post	2		12.0	3.0	2.5	/experiments/knapen_aot/videos/S_OdxWh1oU8e8_1.mp4	0.0	175.60859990119934	0.10013103485107422
6	14.58289909362793	fix_pre	0		35.0	4.0	2.5	/experiments/knapen_aot/videos/S_yt-6B69qmkEdTI_1.mp4	0.0	175.70873093605042	0.29158711433410645
6	14.866131067276001	response	0	4		4.0	2.5	/experiments/knapen_aot/videos/S_yt-6B69qmkEdTI_1.mp4	0.0	175.9919629096985	
6	14.874486207962036	movie	1		301.0	4.0	2.5	/experiments/knapen_aot/videos/S_yt-6B69qmkEdTI_1.mp4	0.0	176.00031805038452	2.508237838745117
6	17.382724046707153	fix_post	2		12.0	4.0	2.5	/experiments/knapen_aot/videos/S_yt-6B69qmkEdTI_1.mp4	0.0	178.50855588912964	0.10004210472106934
7	17.482766151428223	fix_pre	0		48.0	5.0	2.5	blank	1.0	178.6085979938507	0.3999660015106201
7	17.86692714691162	response	0	4		5.0	2.5	blank	1.0	178.9927589893341	
7	17.882732152938843	movie	1		301.0	5.0	2.5	blank	1.0	179.00856399536133	2.5083839893341064
7	20.274566173553467	response	1	4		5.0	2.5	blank	1.0	181.40039801597595	
7	20.39111614227295	fix_post	2		12.0	5.0	2.5	blank	1.0	181.51694798469543	0.10002684593200684
8	20.491142988204956	fix_pre	0		25.0	6.0	2.5	/experiments/knapen_aot/videos/R_S_yt-Ojy5TMPX8_Q_165.mp4	0.0	181.61697483062744	0.20834612846374512
8	20.691287994384766	response	0	4		6.0	2.5	/experiments/knapen_aot/videos/R_S_yt-Ojy5TMPX8_Q_165.mp4	0.0	181.81711983680725	
8	20.6994891166687	movie	1		301.0	6.0	2.5	/experiments/knapen_aot/videos/R_S_yt-Ojy5TMPX8_Q_165.mp4	0.0	181.8253209590912	2.5084638595581055
8	23.207952976226807	fix_post	2		12.0	6.0	2.5	/experiments/knapen_aot/videos/R_S_yt-Ojy5TMPX8_Q_165.mp4	0.0	184.3337848186493	0.09990620613098145
9	23.307859182357788	fix_pre	0		33.0	7.0	2.5	/experiments/knapen_aot/videos/R_S_yt-2dRSJcaJIXw_32.mp4	0.0	184.43369102478027	0.2750718593597412
9	23.57462215423584	response	0	4		7.0	2.5	/experiments/knapen_aot/videos/R_S_yt-2dRSJcaJIXw_32.mp4	0.0	184.70045399665833	
9	23.58293104171753	movie	1		301.0	7.0	2.5	/experiments/knapen_aot/videos/R_S_yt-2dRSJcaJIXw_32.mp4	0.0	184.70876288414001	2.508289098739624
9	26.091220140457153	fix_post	2		12.0	7.0	2.5	/experiments/knapen_aot/videos/R_S_yt-2dRSJcaJIXw_32.mp4	0.0	187.21705198287964	0.09992289543151855
10	26.191143035888672	fix_pre	0		38.0	8.0	2.5	/experiments/knapen_aot/videos/R_S_yt-8fQ9LaF8U10_382.mp4	0.0	187.31697487831116	0.31672096252441406
10	26.499653100967407	response	0	4		8.0	2.5	/experiments/knapen_aot/videos/R_S_yt-8fQ9LaF8U10_382.mp4	0.0	187.6254849433899	
10	26.507863998413086	movie	1		301.0	8.0	2.5	/experiments/knapen_aot/videos/R_S_yt-8fQ9LaF8U10_382.mp4	0.0	187.63369584083557	2.508289098739624
10	29.01615309715271	fix_post	2		12.0	8.0	2.5	/experiments/knapen_aot/videos/R_S_yt-8fQ9LaF8U10_382.mp4	0.0	190.1419849395752	0.10004711151123047
11	29.11620020866394	fix_pre	0		43.0	9.0	2.5	/experiments/knapen_aot/videos/S_pexels-artem-podrez-5457692.mp4	0.0	190.24203205108643	0.3583087921142578
11	29.45877718925476	response	0	4		9.0	2.5	/experiments/knapen_aot/videos/S_pexels-artem-podrez-5457692.mp4	0.0	190.58460903167725	
11	29.4745090007782	movie	1		164.0	9.0	2.5	/experiments/knapen_aot/videos/S_pexels-artem-podrez-5457692.mp4	0.0	190.60034084320068	2.508334159851074
11	31.982843160629272	fix_post	2		12.0	9.0	2.5	/experiments/knapen_aot/videos/S_pexels-artem-podrez-5457692.mp4	0.0	193.10867500305176	0.10007381439208984
12	32.08291697502136	fix_pre	0		28.0	10.0	2.5	/experiments/knapen_aot/videos/R_S_yt-cG2qDR5ka5w_119.mp4	0.0	193.20874881744385	0.23337817192077637
12	32.30793619155884	response	0	4		10.0	2.5	/experiments/knapen_aot/videos/R_S_yt-cG2qDR5ka5w_119.mp4	0.0	193.43376803398132	
12	32.31629514694214	movie	1		301.0	10.0	2.5	/experiments/knapen_aot/videos/R_S_yt-cG2qDR5ka5w_119.mp4	0.0	193.44212698936462	2.5081980228424072
12	34.824493169784546	fix_post	2		12.0	10.0	2.5	/experiments/knapen_aot/videos/R_S_yt-cG2qDR5ka5w_119.mp4	0.0	195.95032501220703	0.09994101524353027
13	34.924434185028076	fix_pre	0		65.0	11.0	2.5	/experiments/knapen_aot/videos/S_ILSVRC2015_train_00251005.mp4	0.0	196.05026602745056	0.5417118072509766
13	35.45799803733826	response	0	4		11.0	2.5	/experiments/knapen_aot/videos/S_ILSVRC2015_train_00251005.mp4	0.0	196.58382987976074	
13	35.46614599227905	movie	1		301.0	11.0	2.5	/experiments/knapen_aot/videos/S_ILSVRC2015_train_00251005.mp4	0.0	196.59197783470154	2.5083301067352295
13	37.97447609901428	fix_post	2		12.0	11.0	2.5	/experiments/knapen_aot/videos/S_ILSVRC2015_train_00251005.mp4	0.0	199.10030794143677	0.09991002082824707
14	38.07438611984253	fix_pre	0		29.0	12.0	2.5	/experiments/knapen_aot/videos/S_yt-3aTDYxyF6bc_35.mp4	0.0	199.20021796226501	0.24172687530517578
14	38.30802798271179	response	0	4		12.0	2.5	/experiments/knapen_aot/videos/S_yt-3aTDYxyF6bc_35.mp4	0.0	199.43385982513428	
14	38.316112995147705	movie	1		301.0	12.0	2.5	/experiments/knapen_aot/videos/S_yt-3aTDYxyF6bc_35.mp4	0.0	199.4419448375702	2.5083260536193848
14	40.82443904876709	fix_post	2		12.0	12.0	2.5	/experiments/knapen_aot/videos/S_yt-3aTDYxyF6bc_35.mp4	0.0	201.95027089118958	0.10001611709594727
15	40.92445516586304	fix_pre	0		16.0	13.0	2.5	/experiments/knapen_aot/videos/R_S_yt--C2DDZ7LOQA_95.mp4	0.0	202.05028700828552	0.13332796096801758
15	41.04958701133728	response	0	4		13.0	2.5	/experiments/knapen_aot/videos/R_S_yt--C2DDZ7LOQA_95.mp4	0.0	202.17541885375977	
15	41.057783126831055	movie	1		301.0	13.0	2.5	/experiments/knapen_aot/videos/R_S_yt--C2DDZ7LOQA_95.mp4	0.0	202.18361496925354	2.508427858352661
15	42.659263134002686	response	1	4		13.0	2.5	/experiments/knapen_aot/videos/R_S_yt--C2DDZ7LOQA_95.mp4	0.0	203.78509497642517	
15	43.566210985183716	fix_post	2		12.0	13.0	2.5	/experiments/knapen_aot/videos/R_S_yt--C2DDZ7LOQA_95.mp4	0.0	204.6920428276062	0.09991002082824707
16	43.66612100601196	fix_pre	0		531.0	14.0	2.5	blank	1.0	204.79195284843445	4.424906969070435
16	48.08291006088257	response	0	4		14.0	2.5	blank	1.0	209.20874190330505	
16	48.0910279750824	movie	1		301.0	14.0	2.5	blank	1.0	209.21685981750488	2.508371114730835
16	50.16618514060974	response	1	4		14.0	2.5	blank	1.0	211.29201698303223	
16	50.59939908981323	fix_post	2		12.0	14.0	2.5	blank	1.0	211.72523093223572	0.10001206398010254
17	50.699411153793335	fix_pre	0		110.0	15.0	2.5	/experiments/knapen_aot/videos/S_yt-JTVyt-eu4VI_1.mp4	0.0	211.82524299621582	0.9166610240936279
17	51.607861042022705	response	0	4		15.0	2.5	/experiments/knapen_aot/videos/S_yt-JTVyt-eu4VI_1.mp4	0.0	212.7336928844452	
17	51.61607217788696	movie	1		301.0	15.0	2.5	/experiments/knapen_aot/videos/S_yt-JTVyt-eu4VI_1.mp4	0.0	212.74190402030945	2.508396863937378
17	54.12446904182434	fix_post	2		12.0	15.0	2.5	/experiments/knapen_aot/videos/S_yt-JTVyt-eu4VI_1.mp4	0.0	215.25030088424683	0.09999608993530273
18	54.224465131759644	fix_pre	0		249.0	16.0	2.5	/experiments/knapen_aot/videos/R_S_yt-urJgH6tpfkU_204.mp4	0.0	215.35029697418213	2.074955940246582
18	56.291232109069824	response	0	4		16.0	2.5	/experiments/knapen_aot/videos/R_S_yt-urJgH6tpfkU_204.mp4	0.0	217.4170639514923	
18	56.299421072006226	movie	1		301.0	16.0	2.5	/experiments/knapen_aot/videos/R_S_yt-urJgH6tpfkU_204.mp4	0.0	217.4252529144287	2.508336067199707
18	58.725093126297	response	1	4		16.0	2.5	/experiments/knapen_aot/videos/R_S_yt-urJgH6tpfkU_204.mp4	0.0	219.85092496871948	
18	58.80775713920593	fix_post	2		12.0	16.0	2.5	/experiments/knapen_aot/videos/R_S_yt-urJgH6tpfkU_204.mp4	0.0	219.93358898162842	0.10000491142272949
19	58.90776205062866	fix_pre	0		38.0	17.0	2.5	/experiments/knapen_aot/videos/S_pexels-diva-plavalaguna-6985395_1.mp4	0.0	220.03359389305115	0.31664204597473145
19	59.21620798110962	response	0	4		17.0	2.5	/experiments/knapen_aot/videos/S_pexels-diva-plavalaguna-6985395_1.mp4	0.0	220.3420398235321	
19	59.224404096603394	movie	1		164.0	17.0	2.5	/experiments/knapen_aot/videos/S_pexels-diva-plavalaguna-6985395_1.mp4	0.0	220.35023593902588	2.508357048034668
19	61.73276114463806	fix_post	2		12.0	17.0	2.5	/experiments/knapen_aot/videos/S_pexels-diva-plavalaguna-6985395_1.mp4	0.0	222.85859298706055	0.09998893737792969
20	61.83275008201599	fix_pre	0		22.0	18.0	2.5	/experiments/knapen_aot/videos/R_S_yt-ZE8Af60eNsI_15.mp4	0.0	222.95858192443848	0.18332600593566895
20	62.00796318054199	response	0	4		18.0	2.5	/experiments/knapen_aot/videos/R_S_yt-ZE8Af60eNsI_15.mp4	0.0	223.13379502296448	
20	62.01607608795166	movie	1		301.0	18.0	2.5	/experiments/knapen_aot/videos/R_S_yt-ZE8Af60eNsI_15.mp4	0.0	223.14190793037415	2.508233070373535
20	64.5243091583252	fix_post	2		12.0	18.0	2.5	/experiments/knapen_aot/videos/R_S_yt-ZE8Af60eNsI_15.mp4	0.0	225.65014100074768	0.10005593299865723
20	64.55845212936401	response	2	4		18.0	2.5	/experiments/knapen_aot/videos/R_S_yt-ZE8Af60eNsI_15.mp4	0.0	225.6842839717865	
21	64.62436509132385	fix_pre	0		44.0	19.0	2.5	blank	1.0	225.75019693374634	0.36665797233581543
21	64.9827651977539	response	0	4		19.0	2.5	blank	1.0	226.1085970401764	
21	64.99102306365967	movie	1		301.0	19.0	2.5	blank	1.0	226.11685490608215	2.508345127105713
21	67.49936819076538	fix_post	2		12.0	19.0	2.5	blank	1.0	228.62520003318787	0.09995293617248535
22	67.59932112693787	fix_pre	0		80.0	20.0	2.5	/experiments/knapen_aot/videos/S_yt-SRozDkhwx28_1463.mp4	0.0	228.72515296936035	0.666640043258667
22	68.25777506828308	response	0	4		20.0	2.5	/experiments/knapen_aot/videos/S_yt-SRozDkhwx28_1463.mp4	0.0	229.38360691070557	
22	68.26596117019653	movie	1		301.0	20.0	2.5	/experiments/knapen_aot/videos/S_yt-SRozDkhwx28_1463.mp4	0.0	229.39179301261902	2.5083439350128174
22	70.77430510520935	fix_post	2		12.0	20.0	2.5	/experiments/knapen_aot/videos/S_yt-SRozDkhwx28_1463.mp4	0.0	231.90013694763184	0.10001397132873535
23	70.87431907653809	fix_pre	0		4.0	21.0	2.5	/experiments/knapen_aot/videos/R_S_yt-Wf-RauSbVgA_56.mp4	0.0	232.00015091896057	0.04169511795043945
23	70.892009973526	response	0	4		21.0	2.5	/experiments/knapen_aot/videos/R_S_yt-Wf-RauSbVgA_56.mp4	0.0	232.0178418159485	
23	70.91601419448853	movie	1		300.0	21.0	2.5	/experiments/knapen_aot/videos/R_S_yt-Wf-RauSbVgA_56.mp4	0.0	232.041846036911	2.5000298023223877
23	73.41604399681091	fix_post	2		12.0	21.0	2.5	/experiments/knapen_aot/videos/R_S_yt-Wf-RauSbVgA_56.mp4	0.0	234.5418758392334	0.09991812705993652
24	73.51596212387085	fix_pre	0		37.0	22.0	2.5	/experiments/knapen_aot/videos/R_S_yt-EZCX42e_bkc_78.mp4	0.0	234.64179396629333	0.3084259033203125
24	73.80872011184692	response	0	4		22.0	2.5	/experiments/knapen_aot/videos/R_S_yt-EZCX42e_bkc_78.mp4	0.0	234.9345519542694	
24	73.82438802719116	movie	1		301.0	22.0	2.5	/experiments/knapen_aot/videos/R_S_yt-EZCX42e_bkc_78.mp4	0.0	234.95021986961365	2.5082621574401855
24	76.33265018463135	fix_post	2		12.0	22.0	2.5	/experiments/knapen_aot/videos/R_S_yt-EZCX42e_bkc_78.mp4	0.0	237.45848202705383	0.09993481636047363
25	76.43258500099182	fix_pre	0		116.0	23.0	2.5	/experiments/knapen_aot/videos/R_S_yt-_Hnr82bYGEQ_103.mp4	0.0	237.5584168434143	0.9666850566864014
25	77.39110517501831	response	0	4		23.0	2.5	/experiments/knapen_aot/videos/R_S_yt-_Hnr82bYGEQ_103.mp4	0.0	238.5169370174408	
25	77.39927005767822	movie	1		301.0	23.0	2.5	/experiments/knapen_aot/videos/R_S_yt-_Hnr82bYGEQ_103.mp4	0.0	238.5251019001007	2.508316993713379
25	79.9075870513916	fix_post	2		12.0	23.0	2.5	/experiments/knapen_aot/videos/R_S_yt-_Hnr82bYGEQ_103.mp4	0.0	241.0334188938141	0.10009193420410156
26	80.0076789855957	fix_pre	0		456.0	24.0	2.5	/experiments/knapen_aot/videos/R_S_yt-_Hnr82bYGEQ_103.mp4	0.0	241.1335108280182	3.799901008605957
26	83.79935598373413	response	0	4		24.0	2.5	/experiments/knapen_aot/videos/R_S_yt-_Hnr82bYGEQ_103.mp4	0.0	244.92518782615662	
26	83.80757999420166	movie	1		298.0	24.0	2.5	/experiments/knapen_aot/videos/R_S_yt-_Hnr82bYGEQ_103.mp4	0.0	244.93341183662415	2.5083370208740234
26	86.2910270690918	response	1	4		24.0	2.5	/experiments/knapen_aot/videos/R_S_yt-_Hnr82bYGEQ_103.mp4	0.0	247.41685891151428	
26	86.31591701507568	fix_post	2		12.0	24.0	2.5	/experiments/knapen_aot/videos/R_S_yt-_Hnr82bYGEQ_103.mp4	0.0	247.44174885749817	0.0999760627746582
27	86.41589307785034	fix_pre	0		40.0	25.0	2.5	/experiments/knapen_aot/videos/S_yt-tX3slAQb9yY_13.mp4	0.0	247.54172492027283	0.33334803581237793
27	86.74102210998535	response	0	4		25.0	2.5	/experiments/knapen_aot/videos/S_yt-tX3slAQb9yY_13.mp4	0.0	247.86685395240784	
27	86.74924111366272	movie	1		301.0	25.0	2.5	/experiments/knapen_aot/videos/S_yt-tX3slAQb9yY_13.mp4	0.0	247.8750729560852	2.508357048034668
27	88.93271708488464	response	1	4		25.0	2.5	/experiments/knapen_aot/videos/S_yt-tX3slAQb9yY_13.mp4	0.0	250.05854892730713	
27	89.25759816169739	fix_post	2		12.0	25.0	2.5	/experiments/knapen_aot/videos/S_yt-tX3slAQb9yY_13.mp4	0.0	250.38343000411987	0.0999758243560791
28	89.35757398605347	fix_pre	0		17.0	26.0	2.5	/experiments/knapen_aot/videos/R_S_comp_A013_C012_0122D6_CC_v01_SDR_PS_FINAL_20180709_SDR_2K_AVC.mp4	0.0	250.48340582847595	0.14165520668029785
28	89.48349714279175	response	0	4		26.0	2.5	/experiments/knapen_aot/videos/R_S_comp_A013_C012_0122D6_CC_v01_SDR_PS_FINAL_20180709_SDR_2K_AVC.mp4	0.0	250.60932898521423	
28	89.49922919273376	movie	1		174.0	26.0	2.5	/experiments/knapen_aot/videos/R_S_comp_A013_C012_0122D6_CC_v01_SDR_PS_FINAL_20180709_SDR_2K_AVC.mp4	0.0	250.62506103515625	2.5083539485931396
28	92.0075831413269	fix_post	2		12.0	26.0	2.5	/experiments/knapen_aot/videos/R_S_comp_A013_C012_0122D6_CC_v01_SDR_PS_FINAL_20180709_SDR_2K_AVC.mp4	0.0	253.1334149837494	0.10001301765441895
29	92.10759615898132	fix_pre	0		61.0	27.0	2.5	blank	1.0	253.2334280014038	0.5082659721374512
29	92.60766100883484	response	0	4		27.0	2.5	blank	1.0	253.73349285125732	
29	92.61586213111877	movie	1		301.0	27.0	2.5	blank	1.0	253.74169397354126	2.5083770751953125
29	95.12423920631409	fix_post	2		12.0	27.0	2.5	blank	1.0	256.2500710487366	0.10005879402160645
30	95.2242980003357	fix_pre	0		11.0	28.0	2.5	/experiments/knapen_aot/videos/R_S_Pz_NXxhQCJc_70.mp4	0.0	256.3501298427582	0.09155702590942383
30	95.30007600784302	response	0	4		28.0	2.5	/experiments/knapen_aot/videos/R_S_Pz_NXxhQCJc_70.mp4	0.0	256.4259078502655	
30	95.31585502624512	movie	1		301.0	28.0	2.5	/experiments/knapen_aot/videos/R_S_Pz_NXxhQCJc_70.mp4	0.0	256.4416868686676	2.5083839893341064
30	97.82423901557922	fix_post	2		12.0	28.0	2.5	/experiments/knapen_aot/videos/R_S_Pz_NXxhQCJc_70.mp4	0.0	258.9500708580017	0.09997105598449707
31	97.92421007156372	fix_pre	0		36.0	29.0	2.5	/experiments/knapen_aot/videos/R_S_4_D1iUb87uE_15.mp4	0.0	259.0500419139862	0.3000049591064453
31	98.21599698066711	response	0	4		29.0	2.5	/experiments/knapen_aot/videos/R_S_4_D1iUb87uE_15.mp4	0.0	259.3418288230896	
31	98.22421503067017	movie	1		301.0	29.0	2.5	/experiments/knapen_aot/videos/R_S_4_D1iUb87uE_15.mp4	0.0	259.35004687309265	2.5083110332489014
31	99.8493959903717	response	1	4		29.0	2.5	/experiments/knapen_aot/videos/R_S_4_D1iUb87uE_15.mp4	0.0	260.9752278327942	
31	100.73252606391907	fix_post	2		12.0	29.0	2.5	/experiments/knapen_aot/videos/R_S_4_D1iUb87uE_15.mp4	0.0	261.85835790634155	0.09998798370361328
32	100.83251404762268	fix_pre	0		55.0	30.0	2.5	/experiments/knapen_aot/videos/S_comp_A013_C012_0122D6_CC_v01_SDR_PS_FINAL_20180709_SDR_2K_AVC.mp4	0.0	261.95834589004517	0.458280086517334
32	101.28263115882874	response	0	4		30.0	2.5	/experiments/knapen_aot/videos/S_comp_A013_C012_0122D6_CC_v01_SDR_PS_FINAL_20180709_SDR_2K_AVC.mp4	0.0	262.4084630012512	
32	101.29079413414001	movie	1		170.0	30.0	2.5	/experiments/knapen_aot/videos/S_comp_A013_C012_0122D6_CC_v01_SDR_PS_FINAL_20180709_SDR_2K_AVC.mp4	0.0	262.4166259765625	2.508488893508911
32	103.79928302764893	fix_post	2		12.0	30.0	2.5	/experiments/knapen_aot/videos/S_comp_A013_C012_0122D6_CC_v01_SDR_PS_FINAL_20180709_SDR_2K_AVC.mp4	0.0	264.9251148700714	0.09990811347961426
33	103.89919114112854	fix_pre	0		181.0	31.0	2.5	/experiments/knapen_aot/videos/S_production_ID_5199636.mp4	0.0	265.025022983551	1.5094189643859863
33	105.39927911758423	response	0	4		31.0	2.5	/experiments/knapen_aot/videos/S_production_ID_5199636.mp4	0.0	266.5251109600067	
33	105.40861010551453	movie	1		162.0	31.0	2.5	/experiments/knapen_aot/videos/S_production_ID_5199636.mp4	0.0	266.534441947937	2.507261037826538
33	105.72433400154114	response	1	4		31.0	2.5	/experiments/knapen_aot/videos/S_production_ID_5199636.mp4	0.0	266.8501658439636	
33	106.32437205314636	response	1	4		31.0	2.5	/experiments/knapen_aot/videos/S_production_ID_5199636.mp4	0.0	267.45020389556885	
33	107.73511099815369	response	1	4		31.0	2.5	/experiments/knapen_aot/videos/S_production_ID_5199636.mp4	0.0	268.8609428405762	
33	107.91587114334106	fix_post	2		12.0	31.0	2.5	/experiments/knapen_aot/videos/S_production_ID_5199636.mp4	0.0	269.04170298576355	0.1000359058380127
34	108.01590704917908	fix_pre	0		29.0	32.0	2.5	/experiments/knapen_aot/videos/S_yt-lzXao6Reec4_14.mp4	0.0	269.14173889160156	0.24161005020141602
34	108.24930214881897	response	0	4		32.0	2.5	/experiments/knapen_aot/videos/S_yt-lzXao6Reec4_14.mp4	0.0	269.37513399124146	
34	108.2575170993805	movie	1		301.0	32.0	2.5	/experiments/knapen_aot/videos/S_yt-lzXao6Reec4_14.mp4	0.0	269.383348941803	2.508341073989868
34	108.79933309555054	response	1	4		32.0	2.5	/experiments/knapen_aot/videos/S_yt-lzXao6Reec4_14.mp4	0.0	269.925164937973	
34	110.76585817337036	fix_post	2		12.0	32.0	2.5	/experiments/knapen_aot/videos/S_yt-lzXao6Reec4_14.mp4	0.0	271.89169001579285	0.10001087188720703
35	110.86586904525757	fix_pre	0		35.0	33.0	2.5	/experiments/knapen_aot/videos/R_S_yt-O6FS0xnF0CU_106.mp4	0.0	271.99170088768005	0.29267096519470215
35	111.14932417869568	response	0	4		33.0	2.5	/experiments/knapen_aot/videos/R_S_yt-O6FS0xnF0CU_106.mp4	0.0	272.27515602111816	
35	111.15854001045227	movie	1		301.0	33.0	2.5	/experiments/knapen_aot/videos/R_S_yt-O6FS0xnF0CU_106.mp4	0.0	272.28437185287476	2.5072100162506104
35	113.66575002670288	fix_post	2		12.0	33.0	2.5	/experiments/knapen_aot/videos/R_S_yt-O6FS0xnF0CU_106.mp4	0.0	274.79158186912537	0.10003113746643066
36	113.76578116416931	fix_pre	0		56.0	34.0	2.5	/experiments/knapen_aot/videos/R_S_yt-oT4Bq8zYN4E_42.mp4	0.0	274.8916130065918	0.4666109085083008
36	114.2168300151825	response	0	4		34.0	2.5	/experiments/knapen_aot/videos/R_S_yt-oT4Bq8zYN4E_42.mp4	0.0	275.342661857605	
36	114.23239207267761	movie	1		301.0	34.0	2.5	/experiments/knapen_aot/videos/R_S_yt-oT4Bq8zYN4E_42.mp4	0.0	275.3582239151001	2.50838303565979
36	115.0825309753418	response	1	4		34.0	2.5	/experiments/knapen_aot/videos/R_S_yt-oT4Bq8zYN4E_42.mp4	0.0	276.2083628177643	
36	115.95367407798767	response	1	4		34.0	2.5	/experiments/knapen_aot/videos/R_S_yt-oT4Bq8zYN4E_42.mp4	0.0	277.07950592041016	
36	116.51593613624573	response	1	4		34.0	2.5	/experiments/knapen_aot/videos/R_S_yt-oT4Bq8zYN4E_42.mp4	0.0	277.6417679786682	
36	116.7407751083374	fix_post	2		12.0	34.0	2.5	/experiments/knapen_aot/videos/R_S_yt-oT4Bq8zYN4E_42.mp4	0.0	277.8666069507599	0.10003805160522461
37	116.84081315994263	fix_pre	0		10.0	35.0	2.5	blank	1.0	277.9666450023651	0.08324503898620605
37	116.91588020324707	response	0	4		35.0	2.5	blank	1.0	278.04171204566956	
37	116.92405819892883	movie	1		301.0	35.0	2.5	blank	1.0	278.0498900413513	2.5084099769592285
37	119.43246817588806	fix_post	2		12.0	35.0	2.5	blank	1.0	280.55830001831055	0.09993791580200195
38	119.53240609169006	fix_pre	0		54.0	36.0	2.5	/experiments/knapen_aot/videos/R_S_yt-4r-oovk9JWg_85.mp4	0.0	280.65823793411255	0.45000696182250977
38	119.97428917884827	response	0	4		36.0	2.5	/experiments/knapen_aot/videos/R_S_yt-4r-oovk9JWg_85.mp4	0.0	281.10012102127075	
38	119.98241305351257	movie	1		301.0	36.0	2.5	/experiments/knapen_aot/videos/R_S_yt-4r-oovk9JWg_85.mp4	0.0	281.10824489593506	2.508384943008423
38	122.490797996521	fix_post	2		12.0	36.0	2.5	/experiments/knapen_aot/videos/R_S_yt-4r-oovk9JWg_85.mp4	0.0	283.6166298389435	0.09998011589050293
39	122.5907781124115	fix_pre	0		69.0	37.0	2.5	/experiments/knapen_aot/videos/S_yt-Gc1p5CnDbDY_22.mp4	0.0	283.716609954834	0.5750579833984375
39	123.15758013725281	response	0	4		37.0	2.5	/experiments/knapen_aot/videos/S_yt-Gc1p5CnDbDY_22.mp4	0.0	284.2834119796753	
39	123.16583609580994	movie	1		301.0	37.0	2.5	/experiments/knapen_aot/videos/S_yt-Gc1p5CnDbDY_22.mp4	0.0	284.2916679382324	2.508236885070801
39	124.10999202728271	response	1	4		37.0	2.5	/experiments/knapen_aot/videos/S_yt-Gc1p5CnDbDY_22.mp4	0.0	285.2358238697052	
39	125.67407298088074	fix_post	2		12.0	37.0	2.5	/experiments/knapen_aot/videos/S_yt-Gc1p5CnDbDY_22.mp4	0.0	286.7999048233032	0.09998822212219238
40	125.77406120300293	fix_pre	0		49.0	38.0	2.5	/experiments/knapen_aot/videos/S_pexels-rodnae-productions-5993671.mp4	0.0	286.8998930454254	0.4083669185638428
40	126.17424607276917	response	0	4		38.0	2.5	/experiments/knapen_aot/videos/S_pexels-rodnae-productions-5993671.mp4	0.0	287.30007791519165	
40	126.18242812156677	movie	1		164.0	38.0	2.5	/experiments/knapen_aot/videos/S_pexels-rodnae-productions-5993671.mp4	0.0	287.30825996398926	2.5083229541778564
40	127.59925699234009	response	1	4		38.0	2.5	/experiments/knapen_aot/videos/S_pexels-rodnae-productions-5993671.mp4	0.0	288.7250888347626	
40	128.69075107574463	fix_post	2		12.0	38.0	2.5	/experiments/knapen_aot/videos/S_pexels-rodnae-productions-5993671.mp4	0.0	289.8165829181671	0.09999299049377441
41	128.7907440662384	fix_pre	0		25.0	39.0	2.5	/experiments/knapen_aot/videos/R_S_ILSVRC2015_train_00569006.mp4	0.0	289.9165759086609	0.20833492279052734
41	128.990905046463	response	0	4		39.0	2.5	/experiments/knapen_aot/videos/R_S_ILSVRC2015_train_00569006.mp4	0.0	290.1167368888855	
41	128.99907898902893	movie	1		301.0	39.0	2.5	/experiments/knapen_aot/videos/R_S_ILSVRC2015_train_00569006.mp4	0.0	290.1249108314514	2.5083560943603516
41	130.6024031639099	response	1	4		39.0	2.5	/experiments/knapen_aot/videos/R_S_ILSVRC2015_train_00569006.mp4	0.0	291.7282350063324	
41	131.24915099143982	response	1	4		39.0	2.5	/experiments/knapen_aot/videos/R_S_ILSVRC2015_train_00569006.mp4	0.0	292.3749828338623	
41	131.50743508338928	fix_post	2		12.0	39.0	2.5	/experiments/knapen_aot/videos/R_S_ILSVRC2015_train_00569006.mp4	0.0	292.63326692581177	0.10000491142272949
42	131.607439994812	fix_pre	0		130.0	40.0	2.5	/experiments/knapen_aot/videos/R_S_1y-EvnfGO9Y_70.mp4	0.0	292.7332718372345	1.083294153213501
42	132.68249201774597	response	0	4		40.0	2.5	/experiments/knapen_aot/videos/R_S_1y-EvnfGO9Y_70.mp4	0.0	293.80832386016846	
42	132.6907341480255	movie	1		301.0	40.0	2.5	/experiments/knapen_aot/videos/R_S_1y-EvnfGO9Y_70.mp4	0.0	293.816565990448	2.508354902267456
42	135.19908905029297	fix_post	2		12.0	40.0	2.5	/experiments/knapen_aot/videos/R_S_1y-EvnfGO9Y_70.mp4	0.0	296.32492089271545	0.09999608993530273
43	135.29908514022827	fix_pre	0		37.0	41.0	2.5	blank	1.0	296.42491698265076	0.30830883979797363
43	135.5991461277008	response	0	4		41.0	2.5	blank	1.0	296.7249779701233	
43	135.60739398002625	movie	1		301.0	41.0	2.5	blank	1.0	296.73322582244873	2.5083391666412354
43	137.8491141796112	response	1	4		41.0	2.5	blank	1.0	298.9749460220337	
43	138.11573314666748	fix_post	2		12.0	41.0	2.5	blank	1.0	299.24156498908997	0.09997892379760742
44	138.2157120704651	fix_pre	0		95.0	42.0	2.5	/experiments/knapen_aot/videos/R_S_yt-yJmHtBFyhH4_15.mp4	0.0	299.3415439128876	0.7916369438171387
44	138.9991171360016	response	0	4		42.0	2.5	/experiments/knapen_aot/videos/R_S_yt-yJmHtBFyhH4_15.mp4	0.0	300.1249489784241	
44	139.00734901428223	movie	1		301.0	42.0	2.5	/experiments/knapen_aot/videos/R_S_yt-yJmHtBFyhH4_15.mp4	0.0	300.1331808567047	2.5083401203155518
44	140.5158610343933	response	1	4		42.0	2.5	/experiments/knapen_aot/videos/R_S_yt-yJmHtBFyhH4_15.mp4	0.0	301.6416928768158	
44	141.51568913459778	fix_post	2		12.0	42.0	2.5	/experiments/knapen_aot/videos/R_S_yt-yJmHtBFyhH4_15.mp4	0.0	302.64152097702026	0.09999704360961914
45	141.6156861782074	fix_pre	0		12.0	43.0	2.5	/experiments/knapen_aot/videos/S_yt--jzScB82vKI_90.mp4	0.0	302.7415180206299	0.09995889663696289
45	141.70749497413635	response	0	4		43.0	2.5	/experiments/knapen_aot/videos/S_yt--jzScB82vKI_90.mp4	0.0	302.83332681655884	
45	141.71564507484436	movie	1		301.0	43.0	2.5	/experiments/knapen_aot/videos/S_yt--jzScB82vKI_90.mp4	0.0	302.84147691726685	2.508394956588745
45	144.2240400314331	fix_post	2		12.0	43.0	2.5	/experiments/knapen_aot/videos/S_yt--jzScB82vKI_90.mp4	0.0	305.3498718738556	0.10000205039978027
46	144.32404208183289	fix_pre	0		19.0	44.0	2.5	/experiments/knapen_aot/videos/S_production_ID_5020960.mp4	0.0	305.44987392425537	0.15825605392456055
46	144.474102973938	response	0	4		44.0	2.5	/experiments/knapen_aot/videos/S_production_ID_5020960.mp4	0.0	305.5999348163605	
46	144.48229813575745	movie	1		183.0	44.0	2.5	/experiments/knapen_aot/videos/S_production_ID_5020960.mp4	0.0	305.60812997817993	2.5083858966827393
46	145.6158311367035	response	1	4		44.0	2.5	/experiments/knapen_aot/videos/S_production_ID_5020960.mp4	0.0	306.741662979126	
46	146.99068403244019	fix_post	2		12.0	44.0	2.5	/experiments/knapen_aot/videos/S_production_ID_5020960.mp4	0.0	308.11651587486267	0.09998703002929688
47	147.09067106246948	fix_pre	0		30.0	45.0	2.5	/experiments/knapen_aot/videos/R_S_ILSVRC2015_train_00572001.mp4	0.0	308.21650290489197	0.25000691413879395
47	147.3324739933014	response	0	4		45.0	2.5	/experiments/knapen_aot/videos/R_S_ILSVRC2015_train_00572001.mp4	0.0	308.4583058357239	
47	147.34067797660828	movie	1		301.0	45.0	2.5	/experiments/knapen_aot/videos/R_S_ILSVRC2015_train_00572001.mp4	0.0	308.46650981903076	2.5083630084991455
47	148.8574571609497	response	1	4		45.0	2.5	/experiments/knapen_aot/videos/R_S_ILSVRC2015_train_00572001.mp4	0.0	309.9832890033722	
47	149.84904098510742	fix_post	2		12.0	45.0	2.5	/experiments/knapen_aot/videos/R_S_ILSVRC2015_train_00572001.mp4	0.0	310.9748728275299	0.10001611709594727
48	149.94905710220337	fix_pre	0		47.0	46.0	2.5	/experiments/knapen_aot/videos/R_S_yt-BAQ3Xhm_PPE_23.mp4	0.0	311.07488894462585	0.3915688991546631
48	150.3324191570282	response	0	4		46.0	2.5	/experiments/knapen_aot/videos/R_S_yt-BAQ3Xhm_PPE_23.mp4	0.0	311.4582509994507	
48	150.34062600135803	movie	1		300.0	46.0	2.5	/experiments/knapen_aot/videos/R_S_yt-BAQ3Xhm_PPE_23.mp4	0.0	311.4664578437805	2.5083210468292236
48	151.37420511245728	response	1	4		46.0	2.5	/experiments/knapen_aot/videos/R_S_yt-BAQ3Xhm_PPE_23.mp4	0.0	312.50003695487976	
48	152.84894704818726	fix_post	2		12.0	46.0	2.5	/experiments/knapen_aot/videos/R_S_yt-BAQ3Xhm_PPE_23.mp4	0.0	313.97477889060974	0.10003304481506348
49	152.94898009300232	fix_pre	0		13.0	47.0	2.5	/experiments/knapen_aot/videos/R_S_yt-EZCX42e_bkc_78.mp4	0.0	314.0748119354248	0.1083378791809082
49	153.04905700683594	response	0	4		47.0	2.5	/experiments/knapen_aot/videos/R_S_yt-EZCX42e_bkc_78.mp4	0.0	314.1748888492584	
49	153.05731797218323	movie	1		301.0	47.0	2.5	/experiments/knapen_aot/videos/R_S_yt-EZCX42e_bkc_78.mp4	0.0	314.1831498146057	2.508498191833496
49	155.56581616401672	fix_post	2		12.0	47.0	2.5	/experiments/knapen_aot/videos/R_S_yt-EZCX42e_bkc_78.mp4	0.0	316.6916480064392	0.09983587265014648
50	155.66565203666687	fix_pre	0		229.0	48.0	2.5	/experiments/knapen_aot/videos/R_S_yt-osz-TXlRdXs_2.mp4	0.0	316.79148387908936	1.9091219902038574
50	157.5657479763031	response	0	4		48.0	2.5	/experiments/knapen_aot/videos/R_S_yt-osz-TXlRdXs_2.mp4	0.0	318.6915798187256	
50	157.57477402687073	movie	1		301.0	48.0	2.5	/experiments/knapen_aot/videos/R_S_yt-osz-TXlRdXs_2.mp4	0.0	318.7006058692932	2.5075910091400146
50	160.08236503601074	fix_post	2		12.0	48.0	2.5	/experiments/knapen_aot/videos/R_S_yt-osz-TXlRdXs_2.mp4	0.0	321.2081968784332	0.09996509552001953
51	160.18233013153076	fix_pre	0		9.0	49.0	2.5	blank	1.0	321.30816197395325	0.07502102851867676
51	160.24911618232727	response	0	4		49.0	2.5	blank	1.0	321.37494802474976	
51	160.25735116004944	movie	1		301.0	49.0	2.5	blank	1.0	321.3831830024719	2.508288860321045
51	162.76564002037048	fix_post	2		12.0	49.0	2.5	blank	1.0	323.89147186279297	0.09998512268066406
52	162.86562514305115	fix_pre	0		22.0	50.0	2.5	/experiments/knapen_aot/videos/S_yt-HFiRYTnMZxE_338.mp4	0.0	323.99145698547363	0.1833178997039795
52	163.03320002555847	response	0	4		50.0	2.5	/experiments/knapen_aot/videos/S_yt-HFiRYTnMZxE_338.mp4	0.0	324.15903186798096	
52	163.04894304275513	movie	1		301.0	50.0	2.5	/experiments/knapen_aot/videos/S_yt-HFiRYTnMZxE_338.mp4	0.0	324.1747748851776	2.5083580017089844
52	165.5573010444641	fix_post	2		12.0	50.0	2.5	/experiments/knapen_aot/videos/S_yt-HFiRYTnMZxE_338.mp4	0.0	326.6831328868866	0.09995794296264648
53	165.65725898742676	fix_pre	0		376.0	51.0	2.5	/experiments/knapen_aot/videos/S_ILSVRC2015_train_00524001.mp4	0.0	326.78309082984924	3.1332991123199463
53	168.78239798545837	response	0	4		51.0	2.5	/experiments/knapen_aot/videos/S_ILSVRC2015_train_00524001.mp4	0.0	329.90822982788086	
53	168.7905580997467	movie	1		300.0	51.0	2.5	/experiments/knapen_aot/videos/S_ILSVRC2015_train_00524001.mp4	0.0	329.9163899421692	2.508357048034668
53	170.70735597610474	response	1	4		51.0	2.5	/experiments/knapen_aot/videos/S_ILSVRC2015_train_00524001.mp4	0.0	331.8331878185272	
53	171.29891514778137	fix_post	2		12.0	51.0	2.5	/experiments/knapen_aot/videos/S_ILSVRC2015_train_00524001.mp4	0.0	332.42474699020386	0.09993886947631836
54	171.3988540172577	fix_pre	0		103.0	52.0	2.5	/experiments/knapen_aot/videos/R_S_pexels-polina-tankilevitch-8203088.mp4	0.0	332.5246858596802	0.8583450317382812
54	172.24904417991638	response	0	4		52.0	2.5	/experiments/knapen_aot/videos/R_S_pexels-polina-tankilevitch-8203088.mp4	0.0	333.37487602233887	
54	172.25719904899597	movie	1		166.0	52.0	2.5	/experiments/knapen_aot/videos/R_S_pexels-polina-tankilevitch-8203088.mp4	0.0	333.38303089141846	2.5083799362182617
54	174.76557898521423	fix_post	2		12.0	52.0	2.5	/experiments/knapen_aot/videos/R_S_pexels-polina-tankilevitch-8203088.mp4	0.0	335.8914108276367	0.10000419616699219
55	174.86558318138123	fix_pre	0		77.0	53.0	2.5	/experiments/knapen_aot/videos/R_S_yt-8y7Xhp2_2e0_168.mp4	0.0	335.9914150238037	0.6416280269622803
55	175.49899816513062	response	0	4		53.0	2.5	/experiments/knapen_aot/videos/R_S_yt-8y7Xhp2_2e0_168.mp4	0.0	336.6248300075531	
55	175.5072112083435	movie	1		301.0	53.0	2.5	/experiments/knapen_aot/videos/R_S_yt-8y7Xhp2_2e0_168.mp4	0.0	336.633043050766	2.5083508491516113
55	177.62809014320374	response	1	4		53.0	2.5	/experiments/knapen_aot/videos/R_S_yt-8y7Xhp2_2e0_168.mp4	0.0	338.7539219856262	
55	178.01556205749512	fix_post	2		12.0	53.0	2.5	/experiments/knapen_aot/videos/R_S_yt-8y7Xhp2_2e0_168.mp4	0.0	339.1413938999176	0.10011696815490723
56	178.11567902565002	fix_pre	0		50.0	54.0	2.5	blank	1.0	339.2415108680725	0.4172201156616211
56	178.5239520072937	response	0	4		54.0	2.5	blank	1.0	339.6497838497162	
56	178.53289914131165	movie	1		301.0	54.0	2.5	blank	1.0	339.65873098373413	2.5076239109039307
56	181.04052305221558	fix_post	2		12.0	54.0	2.5	blank	1.0	342.16635489463806	0.09990596771240234
57	181.14042901992798	fix_pre	0		29.0	55.0	2.5	/experiments/knapen_aot/videos/R_S_yt-6KJ_yZR-Jco_14.mp4	0.0	342.26626086235046	0.2417430877685547
57	181.37408208847046	response	0	4		55.0	2.5	/experiments/knapen_aot/videos/R_S_yt-6KJ_yZR-Jco_14.mp4	0.0	342.49991393089294	
57	181.38217210769653	movie	1		301.0	55.0	2.5	/experiments/knapen_aot/videos/R_S_yt-6KJ_yZR-Jco_14.mp4	0.0	342.508003950119	2.508352041244507
57	183.89052414894104	fix_post	2		12.0	55.0	2.5	/experiments/knapen_aot/videos/R_S_yt-6KJ_yZR-Jco_14.mp4	0.0	345.0163559913635	0.09998393058776855
58	183.9905080795288	fix_pre	0		45.0	56.0	2.5	/experiments/knapen_aot/videos/R_S_Pexels_Videos_2786546.mp4	0.0	345.1163399219513	0.3756139278411865
58	184.357360124588	response	0	4		56.0	2.5	/experiments/knapen_aot/videos/R_S_Pexels_Videos_2786546.mp4	0.0	345.4831919670105	
58	184.36612200737	movie	1		164.0	56.0	2.5	/experiments/knapen_aot/videos/R_S_Pexels_Videos_2786546.mp4	0.0	345.4919538497925	2.5077450275421143
58	185.856103181839	response	1	4		56.0	2.5	/experiments/knapen_aot/videos/R_S_Pexels_Videos_2786546.mp4	0.0	346.9819350242615	
58	186.77395510673523	response	1	4		56.0	2.5	/experiments/knapen_aot/videos/R_S_Pexels_Videos_2786546.mp4	0.0	347.8997869491577	
58	186.8738670349121	fix_post	2		12.0	56.0	2.5	/experiments/knapen_aot/videos/R_S_Pexels_Videos_2786546.mp4	0.0	347.9996988773346	0.10000014305114746
59	186.97386717796326	fix_pre	0		84.0	57.0	2.5	/experiments/knapen_aot/videos/R_S_yt-4sSV4iIs8gQ_55.mp4	0.0	348.09969902038574	0.6999359130859375
59	187.66563510894775	response	0	4		57.0	2.5	/experiments/knapen_aot/videos/R_S_yt-4sSV4iIs8gQ_55.mp4	0.0	348.79146695137024	
59	187.6738030910492	movie	1		297.0	57.0	2.5	/experiments/knapen_aot/videos/R_S_yt-4sSV4iIs8gQ_55.mp4	0.0	348.7996349334717	2.5083720684051514
59	190.18217515945435	fix_post	2		12.0	57.0	2.5	/experiments/knapen_aot/videos/R_S_yt-4sSV4iIs8gQ_55.mp4	0.0	351.30800700187683	0.10002303123474121
60	190.2821981906891	fix_pre	0		8.0	58.0	2.5	/experiments/knapen_aot/videos/S_yt-cjndulbUtRc_51.mp4	0.0	351.4080300331116	0.06665897369384766
60	190.34058904647827	response	0	4		58.0	2.5	/experiments/knapen_aot/videos/S_yt-cjndulbUtRc_51.mp4	0.0	351.46642088890076	
60	190.34885716438293	movie	1		301.0	58.0	2.5	/experiments/knapen_aot/videos/S_yt-cjndulbUtRc_51.mp4	0.0	351.4746890068054	2.5083508491516113
60	192.85720801353455	fix_post	2		12.0	58.0	2.5	/experiments/knapen_aot/videos/S_yt-cjndulbUtRc_51.mp4	0.0	353.98303985595703	0.0999751091003418
61	192.9571831226349	fix_pre	0		18.0	59.0	2.5	/experiments/knapen_aot/videos/S_yt-pB9w3AA-woE_37.mp4	0.0	354.0830149650574	0.149932861328125
61	193.0990071296692	response	0	4		59.0	2.5	/experiments/knapen_aot/videos/S_yt-pB9w3AA-woE_37.mp4	0.0	354.2248389720917	
61	193.107115983963	movie	1		301.0	59.0	2.5	/experiments/knapen_aot/videos/S_yt-pB9w3AA-woE_37.mp4	0.0	354.2329478263855	2.50834321975708
61	195.5739221572876	response	1	4		59.0	2.5	/experiments/knapen_aot/videos/S_yt-pB9w3AA-woE_37.mp4	0.0	356.6997539997101	
61	195.6154592037201	fix_post	2		12.0	59.0	2.5	/experiments/knapen_aot/videos/S_yt-pB9w3AA-woE_37.mp4	0.0	356.7412910461426	0.09999394416809082
62	195.71545314788818	fix_pre	0		62.0	60.0	2.5	/experiments/knapen_aot/videos/S_yt-nQu-PAXBv2g_5.mp4	0.0	356.84128499031067	0.516679048538208
62	196.22397708892822	response	0	4		60.0	2.5	/experiments/knapen_aot/videos/S_yt-nQu-PAXBv2g_5.mp4	0.0	357.3498089313507	
62	196.2321321964264	movie	1		301.0	60.0	2.5	/experiments/knapen_aot/videos/S_yt-nQu-PAXBv2g_5.mp4	0.0	357.3579640388489	2.508331775665283
62	198.0989110469818	response	1	4		60.0	2.5	/experiments/knapen_aot/videos/S_yt-nQu-PAXBv2g_5.mp4	0.0	359.2247428894043	
62	198.74046397209167	fix_post	2		12.0	60.0	2.5	/experiments/knapen_aot/videos/S_yt-nQu-PAXBv2g_5.mp4	0.0	359.86629581451416	0.09999322891235352
63	198.84045720100403	fix_pre	0		40.0	61.0	2.5	/experiments/knapen_aot/videos/S_yt-SgiTZNjCPCo_19.mp4	0.0	359.9662890434265	0.3333017826080322
63	199.1655080318451	response	0	4		61.0	2.5	/experiments/knapen_aot/videos/S_yt-SgiTZNjCPCo_19.mp4	0.0	360.2913398742676	
63	199.17375898361206	movie	1		298.0	61.0	2.5	/experiments/knapen_aot/videos/S_yt-SgiTZNjCPCo_19.mp4	0.0	360.29959082603455	2.5084152221679688
63	201.68217420578003	fix_post	2		12.0	61.0	2.5	/experiments/knapen_aot/videos/S_yt-SgiTZNjCPCo_19.mp4	0.0	362.8080060482025	0.10001182556152344
64	201.78218603134155	fix_pre	0		61.0	62.0	2.5	blank	1.0	362.90801787376404	0.5083210468292236
64	202.2822461128235	response	0	4		62.0	2.5	blank	1.0	363.408077955246	
64	202.29050707817078	movie	1		301.0	62.0	2.5	blank	1.0	363.41633892059326	2.508296012878418
64	204.7988030910492	fix_post	2		12.0	62.0	2.5	blank	1.0	365.9246349334717	0.10003304481506348
65	204.89883613586426	fix_pre	0		16.0	63.0	2.5	/experiments/knapen_aot/videos/R_S_yt-VQtbKGzI9SE_431.mp4	0.0	366.02466797828674	0.13384294509887695
65	205.0240511894226	response	0	4		63.0	2.5	/experiments/knapen_aot/videos/R_S_yt-VQtbKGzI9SE_431.mp4	0.0	366.1498830318451	
65	205.03267908096313	movie	1		301.0	63.0	2.5	/experiments/knapen_aot/videos/R_S_yt-VQtbKGzI9SE_431.mp4	0.0	366.1585109233856	2.5077779293060303
65	207.42396306991577	response	1	4		63.0	2.5	/experiments/knapen_aot/videos/R_S_yt-VQtbKGzI9SE_431.mp4	0.0	368.54979491233826	
65	207.54045701026917	fix_post	2		12.0	63.0	2.5	/experiments/knapen_aot/videos/R_S_yt-VQtbKGzI9SE_431.mp4	0.0	368.66628885269165	0.10000109672546387
66	207.64045810699463	fix_pre	0		74.0	64.0	2.5	/experiments/knapen_aot/videos/R_S_yt-t8NfuFA7OlM_26.mp4	0.0	368.7662899494171	0.6166350841522217
66	208.2490131855011	response	0	4		64.0	2.5	/experiments/knapen_aot/videos/R_S_yt-t8NfuFA7OlM_26.mp4	0.0	369.3748450279236	
66	208.25709319114685	movie	1		301.0	64.0	2.5	/experiments/knapen_aot/videos/R_S_yt-t8NfuFA7OlM_26.mp4	0.0	369.38292503356934	2.5083789825439453
66	210.7654721736908	fix_post	2		12.0	64.0	2.5	/experiments/knapen_aot/videos/R_S_yt-t8NfuFA7OlM_26.mp4	0.0	371.8913040161133	0.10005784034729004
67	210.8655300140381	fix_pre	0		51.0	65.0	2.5	/experiments/knapen_aot/videos/S_video_inspire_uk_edinburgh_arthursseat_010.1080-h264.mp4	0.0	371.99136185646057	0.4249081611633301
67	211.28225111961365	response	0	4		65.0	2.5	/experiments/knapen_aot/videos/S_video_inspire_uk_edinburgh_arthursseat_010.1080-h264.mp4	0.0	372.40808296203613	
67	211.29043817520142	movie	1		174.0	65.0	2.5	/experiments/knapen_aot/videos/S_video_inspire_uk_edinburgh_arthursseat_010.1080-h264.mp4	0.0	372.4162700176239	2.5083298683166504
67	212.38936519622803	response	1	4		65.0	2.5	/experiments/knapen_aot/videos/S_video_inspire_uk_edinburgh_arthursseat_010.1080-h264.mp4	0.0	373.5151970386505	
67	213.79876804351807	fix_post	2		12.0	65.0	2.5	/experiments/knapen_aot/videos/S_video_inspire_uk_edinburgh_arthursseat_010.1080-h264.mp4	0.0	374.92459988594055	0.09998703002929688
68	213.89875507354736	fix_pre	0		4.0	66.0	2.5	/experiments/knapen_aot/videos/R_S_yt-9NV8zv2Sdq4_30.mp4	0.0	375.02458691596985	0.033323049545288086
68	213.92395615577698	response	0	4		66.0	2.5	/experiments/knapen_aot/videos/R_S_yt-9NV8zv2Sdq4_30.mp4	0.0	375.04978799819946	
68	213.93207812309265	movie	1		301.0	66.0	2.5	/experiments/knapen_aot/videos/R_S_yt-9NV8zv2Sdq4_30.mp4	0.0	375.05790996551514	2.508380889892578
68	216.44045901298523	fix_post	2		12.0	66.0	2.5	/experiments/knapen_aot/videos/R_S_yt-9NV8zv2Sdq4_30.mp4	0.0	377.5662908554077	0.09996414184570312
69	216.54042315483093	fix_pre	0		41.0	67.0	2.5	/experiments/knapen_aot/videos/S_production_ID_4540332.mp4	0.0	377.6662549972534	0.34160685539245605
69	216.87391304969788	response	0	4		67.0	2.5	/experiments/knapen_aot/videos/S_production_ID_4540332.mp4	0.0	377.99974489212036	
69	216.8820300102234	movie	1		168.0	67.0	2.5	/experiments/knapen_aot/videos/S_production_ID_4540332.mp4	0.0	378.0078618526459	2.508388042449951
69	219.17957019805908	response	1	4		67.0	2.5	/experiments/knapen_aot/videos/S_production_ID_4540332.mp4	0.0	380.30540204048157	
69	219.39041805267334	fix_post	2		12.0	67.0	2.5	/experiments/knapen_aot/videos/S_production_ID_4540332.mp4	0.0	380.5162498950958	0.1000070571899414
70	219.49042510986328	fix_pre	0		110.0	68.0	2.5	/experiments/knapen_aot/videos/R_S_Pexels_Videos_2795736.mp4	0.0	380.61625695228577	0.9170820713043213
70	220.39889001846313	response	0	4		68.0	2.5	/experiments/knapen_aot/videos/R_S_Pexels_Videos_2795736.mp4	0.0	381.5247218608856	
70	220.4075071811676	movie	1		163.0	68.0	2.5	/experiments/knapen_aot/videos/R_S_Pexels_Videos_2795736.mp4	0.0	381.5333390235901	2.507772922515869
70	222.91528010368347	fix_post	2		12.0	68.0	2.5	/experiments/knapen_aot/videos/R_S_Pexels_Videos_2795736.mp4	0.0	384.04111194610596	0.10005903244018555
71	223.01533913612366	fix_pre	0		30.0	69.0	2.5	blank	1.0	384.14117097854614	0.2584049701690674
71	223.25798320770264	response	0	4		69.0	2.5	blank	1.0	384.3838150501251	
71	223.27374410629272	movie	1		301.0	69.0	2.5	blank	1.0	384.3995759487152	2.5082108974456787
71	225.7819550037384	fix_post	2		12.0	69.0	2.5	blank	1.0	386.9077868461609	0.10000109672546387
72	225.88195610046387	fix_pre	0		44.0	70.0	2.5	/experiments/knapen_aot/videos/S_yt-VTNBCfQxnsk_59.mp4	0.0	387.00778794288635	0.3666238784790039
72	226.24047899246216	response	0	4		70.0	2.5	/experiments/knapen_aot/videos/S_yt-VTNBCfQxnsk_59.mp4	0.0	387.36631083488464	
72	226.24857997894287	movie	1		301.0	70.0	2.5	/experiments/knapen_aot/videos/S_yt-VTNBCfQxnsk_59.mp4	0.0	387.37441182136536	2.508385181427002
72	228.75696516036987	fix_post	2		12.0	70.0	2.5	/experiments/knapen_aot/videos/S_yt-VTNBCfQxnsk_59.mp4	0.0	389.88279700279236	0.10006189346313477
73	228.857027053833	fix_pre	0		63.0	71.0	2.5	/experiments/knapen_aot/videos/S_yt-0Zze3Ff12Ys_58.mp4	0.0	389.9828588962555	0.5249040126800537
73	229.3738031387329	response	0	4		71.0	2.5	/experiments/knapen_aot/videos/S_yt-0Zze3Ff12Ys_58.mp4	0.0	390.4996349811554	
73	229.38193106651306	movie	1		301.0	71.0	2.5	/experiments/knapen_aot/videos/S_yt-0Zze3Ff12Ys_58.mp4	0.0	390.50776290893555	2.5083320140838623
73	231.54875707626343	response	1	4		71.0	2.5	/experiments/knapen_aot/videos/S_yt-0Zze3Ff12Ys_58.mp4	0.0	392.6745889186859	
73	231.89026308059692	fix_post	2		12.0	71.0	2.5	/experiments/knapen_aot/videos/S_yt-0Zze3Ff12Ys_58.mp4	0.0	393.0160949230194	0.10012292861938477
74	231.9903860092163	fix_pre	0		32.0	72.0	2.5	/experiments/knapen_aot/videos/R_S_yt-SgiTZNjCPCo_19.mp4	0.0	393.1162178516388	0.2665541172027588
74	232.2487461566925	response	0	4		72.0	2.5	/experiments/knapen_aot/videos/R_S_yt-SgiTZNjCPCo_19.mp4	0.0	393.374577999115	
74	232.25694012641907	movie	1		300.0	72.0	2.5	/experiments/knapen_aot/videos/R_S_yt-SgiTZNjCPCo_19.mp4	0.0	393.38277196884155	2.5083670616149902
74	234.63205313682556	response	1	4		72.0	2.5	/experiments/knapen_aot/videos/R_S_yt-SgiTZNjCPCo_19.mp4	0.0	395.75788497924805	
74	234.76530718803406	fix_post	2		12.0	72.0	2.5	/experiments/knapen_aot/videos/R_S_yt-SgiTZNjCPCo_19.mp4	0.0	395.89113903045654	0.10041594505310059
75	234.86572313308716	fix_pre	0		50.0	73.0	2.5	/experiments/knapen_aot/videos/R_S_yt-pB9w3AA-woE_37.mp4	0.0	395.99155497550964	0.41660499572753906
75	235.2737181186676	response	0	4		73.0	2.5	/experiments/knapen_aot/videos/R_S_yt-pB9w3AA-woE_37.mp4	0.0	396.3995499610901	
75	235.2823281288147	movie	1		301.0	73.0	2.5	/experiments/knapen_aot/videos/R_S_yt-pB9w3AA-woE_37.mp4	0.0	396.4081599712372	2.507969856262207
75	237.7902979850769	fix_post	2		12.0	73.0	2.5	/experiments/knapen_aot/videos/R_S_yt-pB9w3AA-woE_37.mp4	0.0	398.9161298274994	0.10003399848937988
76	237.89033198356628	fix_pre	0		67.0	74.0	2.5	/experiments/knapen_aot/videos/R_S_pexels-diva-plavalaguna-6985395_1.mp4	0.0	399.01616382598877	0.5586950778961182
76	238.44040417671204	response	0	4		74.0	2.5	/experiments/knapen_aot/videos/R_S_pexels-diva-plavalaguna-6985395_1.mp4	0.0	399.5662360191345	
76	238.4490270614624	movie	1		162.0	74.0	2.5	/experiments/knapen_aot/videos/R_S_pexels-diva-plavalaguna-6985395_1.mp4	0.0	399.5748589038849	2.507857084274292
76	240.67381119728088	response	1	4		74.0	2.5	/experiments/knapen_aot/videos/R_S_pexels-diva-plavalaguna-6985395_1.mp4	0.0	401.79964303970337	
76	240.9568841457367	fix_post	2		12.0	74.0	2.5	/experiments/knapen_aot/videos/R_S_pexels-diva-plavalaguna-6985395_1.mp4	0.0	402.0827159881592	0.10004091262817383
77	241.05692505836487	fix_pre	0		34.0	75.0	2.5	blank	1.0	402.18275690078735	0.283250093460083
77	241.33200001716614	response	0	4		75.0	2.5	blank	1.0	402.4578318595886	
77	241.34017515182495	movie	1		301.0	75.0	2.5	blank	1.0	402.46600699424744	2.508410930633545
77	243.8485860824585	fix_post	2		12.0	75.0	2.5	blank	1.0	404.974417924881	0.1000211238861084
78	243.9486072063446	fix_pre	0		29.0	76.0	2.5	/experiments/knapen_aot/videos/S_yt-0xzYSBvVfYM_197.mp4	0.0	405.0744390487671	0.2416529655456543
78	244.18200612068176	response	0	4		76.0	2.5	/experiments/knapen_aot/videos/S_yt-0xzYSBvVfYM_197.mp4	0.0	405.30783796310425	
78	244.19026017189026	movie	1		301.0	76.0	2.5	/experiments/knapen_aot/videos/S_yt-0xzYSBvVfYM_197.mp4	0.0	405.31609201431274	2.5083439350128174
78	246.69860410690308	fix_post	2		12.0	76.0	2.5	/experiments/knapen_aot/videos/S_yt-0xzYSBvVfYM_197.mp4	0.0	407.82443594932556	0.09992599487304688
79	246.79853010177612	fix_pre	0		57.0	77.0	2.5	/experiments/knapen_aot/videos/R_S_yt-hZxbKZ1WCVg_24.mp4	0.0	407.9243619441986	0.4749619960784912
79	247.2653841972351	response	0	4		77.0	2.5	/experiments/knapen_aot/videos/R_S_yt-hZxbKZ1WCVg_24.mp4	0.0	408.3912160396576	
79	247.27349209785461	movie	1		301.0	77.0	2.5	/experiments/knapen_aot/videos/R_S_yt-hZxbKZ1WCVg_24.mp4	0.0	408.3993239402771	2.5083649158477783
79	249.7818570137024	fix_post	2		12.0	77.0	2.5	/experiments/knapen_aot/videos/R_S_yt-hZxbKZ1WCVg_24.mp4	0.0	410.9076888561249	0.10002613067626953
80	249.88188314437866	fix_pre	0		26.0	78.0	2.5	/experiments/knapen_aot/videos/R_S_yt-OFbbvxTLrtM_132.mp4	0.0	411.00771498680115	0.21672487258911133
80	250.090350151062	response	0	4		78.0	2.5	/experiments/knapen_aot/videos/R_S_yt-OFbbvxTLrtM_132.mp4	0.0	411.2161819934845	
80	250.09860801696777	movie	1		300.0	78.0	2.5	/experiments/knapen_aot/videos/R_S_yt-OFbbvxTLrtM_132.mp4	0.0	411.22443985939026	2.508296012878418
80	251.73364400863647	response	1	4		78.0	2.5	/experiments/knapen_aot/videos/R_S_yt-OFbbvxTLrtM_132.mp4	0.0	412.85947585105896	
80	252.6069040298462	fix_post	2		12.0	78.0	2.5	/experiments/knapen_aot/videos/R_S_yt-OFbbvxTLrtM_132.mp4	0.0	413.7327358722687	0.10000896453857422
81	252.70691299438477	fix_pre	0		332.0	79.0	2.5	/experiments/knapen_aot/videos/S_pexels-tima-miroshnichenko-8724308.mp4	0.0	413.83274483680725	2.7665979862213135
81	255.46536016464233	response	0	4		79.0	2.5	/experiments/knapen_aot/videos/S_pexels-tima-miroshnichenko-8724308.mp4	0.0	416.5911920070648	
81	255.47351098060608	movie	1		195.0	79.0	2.5	/experiments/knapen_aot/videos/S_pexels-tima-miroshnichenko-8724308.mp4	0.0	416.59934282302856	2.508380174636841
81	257.9818911552429	fix_post	2		12.0	79.0	2.5	/experiments/knapen_aot/videos/S_pexels-tima-miroshnichenko-8724308.mp4	0.0	419.1077229976654	0.0999898910522461
82	258.08188104629517	fix_pre	0		66.0	80.0	2.5	/experiments/knapen_aot/videos/R_S_pexels-polina-tankilevitch-8203088.mp4	0.0	419.20771288871765	0.5499999523162842
82	258.62370705604553	response	0	4		80.0	2.5	/experiments/knapen_aot/videos/R_S_pexels-polina-tankilevitch-8203088.mp4	0.0	419.749538898468	
82	258.63188099861145	movie	1		185.0	80.0	2.5	/experiments/knapen_aot/videos/R_S_pexels-polina-tankilevitch-8203088.mp4	0.0	419.75771284103394	2.508219003677368
82	261.1401000022888	fix_post	2		12.0	80.0	2.5	/experiments/knapen_aot/videos/R_S_pexels-polina-tankilevitch-8203088.mp4	0.0	422.2659318447113	0.10037016868591309
83	261.24047017097473	fix_pre	0		138.0	81.0	2.5	/experiments/knapen_aot/videos/S_yt-I2n2eo2zoZs_94.mp4	0.0	422.3663020133972	1.1496999263763428
83	262.3819770812988	response	0	4		81.0	2.5	/experiments/knapen_aot/videos/S_yt-I2n2eo2zoZs_94.mp4	0.0	423.5078089237213	
83	262.3901700973511	movie	1		301.0	81.0	2.5	/experiments/knapen_aot/videos/S_yt-I2n2eo2zoZs_94.mp4	0.0	423.51600193977356	2.508384943008423
83	262.8517060279846	response	1	4		81.0	2.5	/experiments/knapen_aot/videos/S_yt-I2n2eo2zoZs_94.mp4	0.0	423.9775378704071	
83	264.8985550403595	fix_post	2		12.0	81.0	2.5	/experiments/knapen_aot/videos/S_yt-I2n2eo2zoZs_94.mp4	0.0	426.024386882782	0.10004115104675293
84	264.99859619140625	fix_pre	0		17.0	82.0	2.5	blank	1.0	426.12442803382874	0.14159584045410156
84	265.1319420337677	response	0	4		82.0	2.5	blank	1.0	426.2577738761902	
84	265.14019203186035	movie	1		301.0	82.0	2.5	blank	1.0	426.26602387428284	2.5083401203155518
84	267.6485321521759	fix_post	2		12.0	82.0	2.5	blank	1.0	428.7743639945984	0.09999489784240723
85	267.7485270500183	fix_pre	0		37.0	83.0	2.5	/experiments/knapen_aot/videos/R_S_yt--jzScB82vKI_90.mp4	0.0	428.8743588924408	0.30829811096191406
85	268.0486001968384	response	0	4		83.0	2.5	/experiments/knapen_aot/videos/R_S_yt--jzScB82vKI_90.mp4	0.0	429.17443203926086	
85	268.0568251609802	movie	1		301.0	83.0	2.5	/experiments/knapen_aot/videos/R_S_yt--jzScB82vKI_90.mp4	0.0	429.1826570034027	2.5083630084991455
85	270.56518816947937	fix_post	2		12.0	83.0	2.5	/experiments/knapen_aot/videos/R_S_yt--jzScB82vKI_90.mp4	0.0	431.69102001190186	0.10002493858337402
87	270.66521310806274	stim	0		123.0					431.79104495048523	1.0267059803009033
87	270.99852108955383	response	0	4						432.1243529319763	
87	271.68015003204346	response	0	space						432.80598187446594	
