trial_nr	onset	event_type	phase	response	nr_frames	movie_index	movie_duration	movie_file	blank	onset_abs	duration
0	0.1253359317779541	stim	0		231.0					74.90951895713806	1.921118974685669
0	2.0309929847717285	response	0	space						76.81517601013184	
1	2.046454906463623	stim	0		121.0					76.83063793182373	1.0082950592041016
1	3.0547499656677246	stim	1		120.0					77.83893299102783	1.0003130435943604
1	3.6299350261688232	response	1	space						78.41411805152893	
2	4.055063009262085	fix_pre	0		57.0	0.0	2.5	/experiments/knapen_aot/videos/R_S_yt-w_e3sxIzepA_27.mp4	0.0	78.83924603462219	0.47461795806884766
2	4.521559953689575	response	0	space		0.0	2.5	/experiments/knapen_aot/videos/R_S_yt-w_e3sxIzepA_27.mp4	0.0	79.30574297904968	
2	4.529680967330933	movie	1		300.0	0.0	2.5	/experiments/knapen_aot/videos/R_S_yt-w_e3sxIzepA_27.mp4	0.0	79.31386399269104	2.5083749294281006
2	7.038055896759033	fix_post	2		12.0	0.0	2.5	/experiments/knapen_aot/videos/R_S_yt-w_e3sxIzepA_27.mp4	0.0	81.82223892211914	0.10001111030578613
3	7.138067007064819	fix_pre	0		122.0	1.0	2.5	/experiments/knapen_aot/videos/R_S_video_inspire_oregon_portland_00064.1080-h264.mp4	0.0	81.92225003242493	1.0211989879608154
3	8.151408910751343	response	0	2		1.0	2.5	/experiments/knapen_aot/videos/R_S_video_inspire_oregon_portland_00064.1080-h264.mp4	0.0	82.93559193611145	
3	8.159265995025635	movie	1		168.0	1.0	2.5	/experiments/knapen_aot/videos/R_S_video_inspire_oregon_portland_00064.1080-h264.mp4	0.0	82.94344902038574	2.5038349628448486
3	10.663100957870483	fix_post	2		12.0	1.0	2.5	/experiments/knapen_aot/videos/R_S_video_inspire_oregon_portland_00064.1080-h264.mp4	0.0	85.44728398323059	0.10025405883789062
4	10.763355016708374	fix_pre	0		135.0	2.0	2.5	/experiments/knapen_aot/videos/S_yt-2XRGfGc0q44_37.mp4	0.0	85.54753804206848	1.1249828338623047
4	11.879923820495605	response	0	2		2.0	2.5	/experiments/knapen_aot/videos/S_yt-2XRGfGc0q44_37.mp4	0.0	86.66410684585571	
4	11.888337850570679	movie	1		301.0	2.0	2.5	/experiments/knapen_aot/videos/S_yt-2XRGfGc0q44_37.mp4	0.0	86.67252087593079	2.5080881118774414
4	14.39642596244812	fix_post	2		12.0	2.0	2.5	/experiments/knapen_aot/videos/S_yt-2XRGfGc0q44_37.mp4	0.0	89.18060898780823	0.09999895095825195
5	14.496424913406372	fix_pre	0		60.0	3.0	2.5	/experiments/knapen_aot/videos/S_yt-qjg6kRxNXK8_217.mp4	0.0	89.28060793876648	0.4999690055847168
5	14.988209009170532	response	0	2		3.0	2.5	/experiments/knapen_aot/videos/S_yt-qjg6kRxNXK8_217.mp4	0.0	89.77239203453064	
5	14.996393918991089	movie	1		301.0	3.0	2.5	/experiments/knapen_aot/videos/S_yt-qjg6kRxNXK8_217.mp4	0.0	89.7805769443512	2.508249044418335
5	17.504642963409424	fix_post	2		12.0	3.0	2.5	/experiments/knapen_aot/videos/S_yt-qjg6kRxNXK8_217.mp4	0.0	92.28882598876953	0.10006594657897949
6	17.604708909988403	fix_pre	0		75.0	4.0	2.5	/experiments/knapen_aot/videos/S_pexels-roman-odintsov-8233166.mp4	0.0	92.38889193534851	0.6249871253967285
6	18.221513032913208	response	0	2		4.0	2.5	/experiments/knapen_aot/videos/S_pexels-roman-odintsov-8233166.mp4	0.0	93.00569605827332	
6	18.229696035385132	movie	1		200.0	4.0	2.5	/experiments/knapen_aot/videos/S_pexels-roman-odintsov-8233166.mp4	0.0	93.01387906074524	2.5083467960357666
6	20.7380428314209	fix_post	2		12.0	4.0	2.5	/experiments/knapen_aot/videos/S_pexels-roman-odintsov-8233166.mp4	0.0	95.522225856781	0.09988903999328613
7	20.837931871414185	fix_pre	0		90.0	5.0	2.5	/experiments/knapen_aot/videos/S_yt-M8wvzt_BMXM_173.mp4	0.0	95.62211489677429	0.7500841617584229
7	21.579866886138916	response	0	2		5.0	2.5	/experiments/knapen_aot/videos/S_yt-M8wvzt_BMXM_173.mp4	0.0	96.36404991149902	
7	21.588016033172607	movie	1		301.0	5.0	2.5	/experiments/knapen_aot/videos/S_yt-M8wvzt_BMXM_173.mp4	0.0	96.37219905853271	2.5085577964782715
7	24.09657382965088	fix_post	2		12.0	5.0	2.5	/experiments/knapen_aot/videos/S_yt-M8wvzt_BMXM_173.mp4	0.0	98.88075685501099	0.0997781753540039
8	24.196352005004883	fix_pre	0		42.0	6.0	2.5	/experiments/knapen_aot/videos/R_S_ILSVRC2015_train_00394000.mp4	0.0	98.98053503036499	0.3499438762664795
8	24.538180828094482	response	0	2		6.0	2.5	/experiments/knapen_aot/videos/R_S_ILSVRC2015_train_00394000.mp4	0.0	99.32236385345459	
8	24.546295881271362	movie	1		301.0	6.0	2.5	/experiments/knapen_aot/videos/R_S_ILSVRC2015_train_00394000.mp4	0.0	99.33047890663147	2.508634090423584
8	26.74646282196045	response	1	2		6.0	2.5	/experiments/knapen_aot/videos/R_S_ILSVRC2015_train_00394000.mp4	0.0	101.53064584732056	
8	27.054929971694946	fix_post	2		12.0	6.0	2.5	/experiments/knapen_aot/videos/R_S_ILSVRC2015_train_00394000.mp4	0.0	101.83911299705505	0.09970593452453613
9	27.154635906219482	fix_pre	0		115.0	7.0	2.5	blank	1.0	101.93881893157959	0.9582679271697998
9	28.104804039001465	response	0	2		7.0	2.5	blank	1.0	102.88898706436157	
9	28.112903833389282	movie	1		301.0	7.0	2.5	blank	1.0	102.89708685874939	2.508327007293701
9	30.621230840682983	fix_post	2		12.0	7.0	2.5	blank	1.0	105.40541386604309	0.10025310516357422
10	30.721483945846558	fix_pre	0		2.0	8.0	2.5	/experiments/knapen_aot/videos/R_S_yt-XtzmBXKYEWk_60.mp4	0.0	105.50566697120667	0.016475915908813477
10	30.729777812957764	response	0	2		8.0	2.5	/experiments/knapen_aot/videos/R_S_yt-XtzmBXKYEWk_60.mp4	0.0	105.51396083831787	
10	30.73795986175537	movie	1		301.0	8.0	2.5	/experiments/knapen_aot/videos/R_S_yt-XtzmBXKYEWk_60.mp4	0.0	105.52214288711548	2.5083680152893066
10	33.24632787704468	fix_post	2		12.0	8.0	2.5	/experiments/knapen_aot/videos/R_S_yt-XtzmBXKYEWk_60.mp4	0.0	108.03051090240479	0.10016012191772461
11	33.3464879989624	fix_pre	0		86.0	9.0	2.5	/experiments/knapen_aot/videos/R_S_flickr-51283549@N02-23064904264_16.mp4	0.0	108.13067102432251	0.7163770198822021
11	34.054771900177	response	0	2		9.0	2.5	/experiments/knapen_aot/videos/R_S_flickr-51283549@N02-23064904264_16.mp4	0.0	108.83895492553711	
11	34.062865018844604	movie	1		163.0	9.0	2.5	/experiments/knapen_aot/videos/R_S_flickr-51283549@N02-23064904264_16.mp4	0.0	108.84704804420471	2.508384943008423
11	36.57124996185303	fix_post	2		12.0	9.0	2.5	/experiments/knapen_aot/videos/R_S_flickr-51283549@N02-23064904264_16.mp4	0.0	111.35543298721313	0.09993100166320801
12	36.671180963516235	fix_pre	0		100.0	10.0	2.5	/experiments/knapen_aot/videos/S_yt-K7viJXt9vX8_143.mp4	0.0	111.45536398887634	0.8334040641784668
12	37.496405839920044	response	0	2		10.0	2.5	/experiments/knapen_aot/videos/S_yt-K7viJXt9vX8_143.mp4	0.0	112.28058886528015	
12	37.5045850276947	movie	1		300.0	10.0	2.5	/experiments/knapen_aot/videos/S_yt-K7viJXt9vX8_143.mp4	0.0	112.28876805305481	2.5083608627319336
12	40.012945890426636	fix_post	2		12.0	10.0	2.5	/experiments/knapen_aot/videos/S_yt-K7viJXt9vX8_143.mp4	0.0	114.79712891578674	0.0999901294708252
13	40.11293601989746	fix_pre	0		217.0	11.0	2.5	/experiments/knapen_aot/videos/S_yt-M8wvzt_BMXM_173.mp4	0.0	114.89711904525757	1.808290958404541
13	41.91306495666504	response	0	2		11.0	2.5	/experiments/knapen_aot/videos/S_yt-M8wvzt_BMXM_173.mp4	0.0	116.69724798202515	
13	41.921226978302	movie	1		301.0	11.0	2.5	/experiments/knapen_aot/videos/S_yt-M8wvzt_BMXM_173.mp4	0.0	116.70541000366211	2.5085599422454834
13	44.429786920547485	fix_post	2		12.0	11.0	2.5	/experiments/knapen_aot/videos/S_yt-M8wvzt_BMXM_173.mp4	0.0	119.21396994590759	0.09981513023376465
14	44.52960205078125	fix_pre	0		277.0	12.0	2.5	blank	1.0	119.31378507614136	2.3082778453826904
14	46.82973790168762	response	0	2		12.0	2.5	blank	1.0	121.61392092704773	
14	46.83787989616394	movie	1		301.0	12.0	2.5	blank	1.0	121.62206292152405	2.5084519386291504
14	49.34633183479309	fix_post	2		12.0	12.0	2.5	blank	1.0	124.1305148601532	0.09988903999328613
15	49.44622087478638	fix_pre	0		589.0	13.0	2.5	/experiments/knapen_aot/videos/S_yt-z5rxY-WhFNw_15.mp4	0.0	124.23040390014648	4.9166271686553955
15	54.35459494590759	response	0	2		13.0	2.5	/experiments/knapen_aot/videos/S_yt-z5rxY-WhFNw_15.mp4	0.0	129.1387779712677	
15	54.36284804344177	movie	1		301.0	13.0	2.5	/experiments/knapen_aot/videos/S_yt-z5rxY-WhFNw_15.mp4	0.0	129.14703106880188	2.508368968963623
15	56.871217012405396	fix_post	2		12.0	13.0	2.5	/experiments/knapen_aot/videos/S_yt-z5rxY-WhFNw_15.mp4	0.0	131.6554000377655	0.10003995895385742
16	56.97125697135925	fix_pre	0		69.0	14.0	2.5	/experiments/knapen_aot/videos/R_S_yt-44ip3uFe4YM_30.mp4	0.0	131.75543999671936	0.5749490261077881
16	57.53798484802246	response	0	2		14.0	2.5	/experiments/knapen_aot/videos/R_S_yt-44ip3uFe4YM_30.mp4	0.0	132.32216787338257	
16	57.54620599746704	movie	1		301.0	14.0	2.5	/experiments/knapen_aot/videos/R_S_yt-44ip3uFe4YM_30.mp4	0.0	132.33038902282715	2.50836181640625
16	60.05456781387329	fix_post	2		12.0	14.0	2.5	/experiments/knapen_aot/videos/R_S_yt-44ip3uFe4YM_30.mp4	0.0	134.8387508392334	0.1000070571899414
17	60.15457487106323	fix_pre	0		34.0	15.0	2.5	/experiments/knapen_aot/videos/S_yt-bmGWhOCsvJo_128.mp4	0.0	134.93875789642334	0.2832469940185547
17	60.42965388298035	response	0	2		15.0	2.5	/experiments/knapen_aot/videos/S_yt-bmGWhOCsvJo_128.mp4	0.0	135.21383690834045	
17	60.43782186508179	movie	1		301.0	15.0	2.5	/experiments/knapen_aot/videos/S_yt-bmGWhOCsvJo_128.mp4	0.0	135.2220048904419	2.5083200931549072
17	62.946141958236694	fix_post	2		12.0	15.0	2.5	/experiments/knapen_aot/videos/S_yt-bmGWhOCsvJo_128.mp4	0.0	137.7303249835968	0.10004496574401855
18	63.04618692398071	fix_pre	0		139.0	16.0	2.5	/experiments/knapen_aot/videos/S_yt-1uk2k3PnTNw_37.0.mp4	0.0	137.83036994934082	1.1582839488983154
18	64.19634699821472	response	0	2		16.0	2.5	/experiments/knapen_aot/videos/S_yt-1uk2k3PnTNw_37.0.mp4	0.0	138.98053002357483	
18	64.20447087287903	movie	1		301.0	16.0	2.5	/experiments/knapen_aot/videos/S_yt-1uk2k3PnTNw_37.0.mp4	0.0	138.98865389823914	2.5084240436553955
18	66.71289491653442	fix_post	2		12.0	16.0	2.5	/experiments/knapen_aot/videos/S_yt-1uk2k3PnTNw_37.0.mp4	0.0	141.49707794189453	0.09992504119873047
19	66.81281995773315	fix_pre	0		123.0	17.0	2.5	/experiments/knapen_aot/videos/S_bing-www_msn_com_en-us_video_news_tommy-lasorda-salutes-national-league-champs_vp-AAtLThQ_4.mp4	0.0	141.59700298309326	1.0263869762420654
19	67.82976794242859	response	0	2		17.0	2.5	/experiments/knapen_aot/videos/S_bing-www_msn_com_en-us_video_news_tommy-lasorda-salutes-national-league-champs_vp-AAtLThQ_4.mp4	0.0	142.6139509677887	
19	67.83920693397522	movie	1		164.0	17.0	2.5	/experiments/knapen_aot/videos/S_bing-www_msn_com_en-us_video_news_tommy-lasorda-salutes-national-league-champs_vp-AAtLThQ_4.mp4	0.0	142.62338995933533	2.5070080757141113
19	70.34621500968933	fix_post	2		12.0	17.0	2.5	/experiments/knapen_aot/videos/S_bing-www_msn_com_en-us_video_news_tommy-lasorda-salutes-national-league-champs_vp-AAtLThQ_4.mp4	0.0	145.13039803504944	0.09996795654296875
20	70.4461829662323	fix_pre	0		277.0	18.0	2.5	/experiments/knapen_aot/videos/R_S_comp_H004_C007_PS_v02_SDR_PS_20180925_SDR_2K_AVC.mp4	0.0	145.2303659915924	2.3096349239349365
20	72.74629092216492	response	0	2		18.0	2.5	/experiments/knapen_aot/videos/R_S_comp_H004_C007_PS_v02_SDR_PS_20180925_SDR_2K_AVC.mp4	0.0	147.53047394752502	
20	72.75581789016724	movie	1		177.0	18.0	2.5	/experiments/knapen_aot/videos/R_S_comp_H004_C007_PS_v02_SDR_PS_20180925_SDR_2K_AVC.mp4	0.0	147.54000091552734	2.506974935531616
20	75.26279282569885	fix_post	2		12.0	18.0	2.5	/experiments/knapen_aot/videos/R_S_comp_H004_C007_PS_v02_SDR_PS_20180925_SDR_2K_AVC.mp4	0.0	150.04697585105896	0.10002017021179199
21	75.36281299591064	fix_pre	0		307.0	19.0	2.5	/experiments/knapen_aot/videos/S_yt-2cwARrUMj40_67.mp4	0.0	150.14699602127075	2.5596020221710205
21	77.91298294067383	response	0	2		19.0	2.5	/experiments/knapen_aot/videos/S_yt-2cwARrUMj40_67.mp4	0.0	152.69716596603394	
21	77.92241501808167	movie	1		300.0	19.0	2.5	/experiments/knapen_aot/videos/S_yt-2cwARrUMj40_67.mp4	0.0	152.70659804344177	2.506964921951294
21	80.42937994003296	fix_post	2		12.0	19.0	2.5	/experiments/knapen_aot/videos/S_yt-2cwARrUMj40_67.mp4	0.0	155.21356296539307	0.10007095336914062
22	80.5294508934021	fix_pre	0		92.0	20.0	2.5	blank	1.0	155.3136339187622	0.766664981842041
22	81.28793001174927	response	0	2		20.0	2.5	blank	1.0	156.07211303710938	
22	81.29611587524414	movie	1		301.0	20.0	2.5	blank	1.0	156.08029890060425	2.508319139480591
22	83.80443501472473	fix_post	2		12.0	20.0	2.5	blank	1.0	158.58861804008484	0.09997987747192383
23	83.90441489219666	fix_pre	0		7.0	21.0	2.5	/experiments/knapen_aot/videos/S_wc-NzEeGIXLxvwp_19.mp4	0.0	158.68859791755676	0.059632062911987305
23	83.9545738697052	response	0	2		21.0	2.5	/experiments/knapen_aot/videos/S_wc-NzEeGIXLxvwp_19.mp4	0.0	158.7387568950653	
23	83.96404695510864	movie	1		164.0	21.0	2.5	/experiments/knapen_aot/videos/S_wc-NzEeGIXLxvwp_19.mp4	0.0	158.74822998046875	2.5070340633392334
23	86.47108101844788	fix_post	2		12.0	21.0	2.5	/experiments/knapen_aot/videos/S_wc-NzEeGIXLxvwp_19.mp4	0.0	161.25526404380798	0.09993481636047363
24	86.57101583480835	fix_pre	0		62.0	22.0	2.5	/experiments/knapen_aot/videos/R_S_yt-pPIHiIYSjW8_653.mp4	0.0	161.35519886016846	0.5333571434020996
24	87.0963408946991	response	0	2		22.0	2.5	/experiments/knapen_aot/videos/R_S_yt-pPIHiIYSjW8_653.mp4	0.0	161.8805239200592	
24	87.10437297821045	movie	1		301.0	22.0	2.5	/experiments/knapen_aot/videos/R_S_yt-pPIHiIYSjW8_653.mp4	0.0	161.88855600357056	2.50832200050354
24	89.61269497871399	fix_post	2		12.0	22.0	2.5	/experiments/knapen_aot/videos/R_S_yt-pPIHiIYSjW8_653.mp4	0.0	164.3968780040741	0.10001993179321289
25	89.7127149105072	fix_pre	0		100.0	23.0	2.5	/experiments/knapen_aot/videos/R_S_comp_L004_C011_PS_v01_SDR_PS_20180925_SDR_2K_AVC.mp4	0.0	164.4968979358673	0.8346190452575684
25	90.53794002532959	response	0	2		23.0	2.5	/experiments/knapen_aot/videos/R_S_comp_L004_C011_PS_v01_SDR_PS_20180925_SDR_2K_AVC.mp4	0.0	165.3221230506897	
25	90.54733395576477	movie	1		169.0	23.0	2.5	/experiments/knapen_aot/videos/R_S_comp_L004_C011_PS_v01_SDR_PS_20180925_SDR_2K_AVC.mp4	0.0	165.33151698112488	2.507054090499878
25	93.05438804626465	fix_post	2		12.0	23.0	2.5	/experiments/knapen_aot/videos/R_S_comp_L004_C011_PS_v01_SDR_PS_20180925_SDR_2K_AVC.mp4	0.0	167.83857107162476	0.10000300407409668
26	93.15439105033875	fix_pre	0		81.0	24.0	2.5	/experiments/knapen_aot/videos/R_S_ILSVRC2015_train_00507000.mp4	0.0	167.93857407569885	0.6749269962310791
26	93.82123589515686	response	0	2		24.0	2.5	/experiments/knapen_aot/videos/R_S_ILSVRC2015_train_00507000.mp4	0.0	168.60541892051697	
26	93.82931804656982	movie	1		301.0	24.0	2.5	/experiments/knapen_aot/videos/R_S_ILSVRC2015_train_00507000.mp4	0.0	168.61350107192993	2.5084078311920166
26	96.33772587776184	fix_post	2		12.0	24.0	2.5	/experiments/knapen_aot/videos/R_S_ILSVRC2015_train_00507000.mp4	0.0	171.12190890312195	0.09998703002929688
27	96.43771290779114	fix_pre	0		105.0	25.0	2.5	/experiments/knapen_aot/videos/S_yt-RHPOCG1mII0_138.mp4	0.0	171.22189593315125	0.8749849796295166
27	97.30466890335083	response	0	2		25.0	2.5	/experiments/knapen_aot/videos/S_yt-RHPOCG1mII0_138.mp4	0.0	172.08885192871094	
27	97.31269788742065	movie	1		301.0	25.0	2.5	/experiments/knapen_aot/videos/S_yt-RHPOCG1mII0_138.mp4	0.0	172.09688091278076	2.5082590579986572
27	99.82095694541931	fix_post	2		12.0	25.0	2.5	/experiments/knapen_aot/videos/S_yt-RHPOCG1mII0_138.mp4	0.0	174.60513997077942	0.10004997253417969
28	99.92100691795349	fix_pre	0		48.0	26.0	2.5	/experiments/knapen_aot/videos/S_BO_A014_C023_SDR_20190717_F240F3709_SDR_2K_AVC.mp4	0.0	174.7051899433136	0.40000200271606445
28	100.31279397010803	response	0	2		26.0	2.5	/experiments/knapen_aot/videos/S_BO_A014_C023_SDR_20190717_F240F3709_SDR_2K_AVC.mp4	0.0	175.09697699546814	
28	100.32100892066956	movie	1		167.0	26.0	2.5	/experiments/knapen_aot/videos/S_BO_A014_C023_SDR_20190717_F240F3709_SDR_2K_AVC.mp4	0.0	175.10519194602966	2.508384943008423
28	102.82939386367798	fix_post	2		12.0	26.0	2.5	/experiments/knapen_aot/videos/S_BO_A014_C023_SDR_20190717_F240F3709_SDR_2K_AVC.mp4	0.0	177.6135768890381	0.10011506080627441
29	102.92950892448425	fix_pre	0		108.0	27.0	2.5	/experiments/knapen_aot/videos/R_S_yt-lADkWM79teI_18.mp4	0.0	177.71369194984436	0.8999218940734863
29	103.82122898101807	response	0	2		27.0	2.5	/experiments/knapen_aot/videos/R_S_yt-lADkWM79teI_18.mp4	0.0	178.60541200637817	
29	103.82943081855774	movie	1		301.0	27.0	2.5	/experiments/knapen_aot/videos/R_S_yt-lADkWM79teI_18.mp4	0.0	178.61361384391785	2.5082321166992188
29	106.33766293525696	fix_post	2		12.0	27.0	2.5	/experiments/knapen_aot/videos/R_S_yt-lADkWM79teI_18.mp4	0.0	181.12184596061707	0.10004401206970215
30	106.43770694732666	fix_pre	0		78.0	28.0	2.5	blank	1.0	181.22188997268677	0.6499910354614258
30	107.07948589324951	response	0	2		28.0	2.5	blank	1.0	181.86366891860962	
30	107.08769798278809	movie	1		301.0	28.0	2.5	blank	1.0	181.8718810081482	2.508291006088257
30	109.59598898887634	fix_post	2		12.0	28.0	2.5	blank	1.0	184.38017201423645	0.09993791580200195
31	109.69592690467834	fix_pre	0		41.0	29.0	2.5	/experiments/knapen_aot/videos/R_S_ILSVRC2015_train_00396000.mp4	0.0	184.48010993003845	0.34174394607543945
31	110.02942991256714	response	0	2		29.0	2.5	/experiments/knapen_aot/videos/R_S_ILSVRC2015_train_00396000.mp4	0.0	184.81361293792725	
31	110.03767085075378	movie	1		301.0	29.0	2.5	/experiments/knapen_aot/videos/R_S_ILSVRC2015_train_00396000.mp4	0.0	184.8218538761139	2.5083210468292236
31	112.54599189758301	fix_post	2		12.0	29.0	2.5	/experiments/knapen_aot/videos/R_S_ILSVRC2015_train_00396000.mp4	0.0	187.33017492294312	0.09992504119873047
32	112.64591693878174	fix_pre	0		104.0	30.0	2.5	/experiments/knapen_aot/videos/R_S_yt-RWN5qOIgqec_25.mp4	0.0	187.43009996414185	0.8666810989379883
32	113.50438094139099	response	0	2		30.0	2.5	/experiments/knapen_aot/videos/R_S_yt-RWN5qOIgqec_25.mp4	0.0	188.2885639667511	
32	113.51259803771973	movie	1		301.0	30.0	2.5	/experiments/knapen_aot/videos/R_S_yt-RWN5qOIgqec_25.mp4	0.0	188.29678106307983	2.5083489418029785
32	116.0209469795227	fix_post	2		12.0	30.0	2.5	/experiments/knapen_aot/videos/R_S_yt-RWN5qOIgqec_25.mp4	0.0	190.8051300048828	0.09999990463256836
33	116.12094688415527	fix_pre	0		49.0	31.0	2.5	/experiments/knapen_aot/videos/S_yt-CR86bVrRwfo_13.mp4	0.0	190.90512990951538	0.40833497047424316
33	116.5211169719696	response	0	2		31.0	2.5	/experiments/knapen_aot/videos/S_yt-CR86bVrRwfo_13.mp4	0.0	191.3052999973297	
33	116.52928185462952	movie	1		301.0	31.0	2.5	/experiments/knapen_aot/videos/S_yt-CR86bVrRwfo_13.mp4	0.0	191.31346487998962	2.5082650184631348
33	119.03754687309265	fix_post	2		12.0	31.0	2.5	/experiments/knapen_aot/videos/S_yt-CR86bVrRwfo_13.mp4	0.0	193.82172989845276	0.10006499290466309
34	119.13761186599731	fix_pre	0		65.0	32.0	2.5	/experiments/knapen_aot/videos/S_m-aeoYPMqfg_185.mp4	0.0	193.92179489135742	0.541607141494751
34	119.67111086845398	response	0	2		32.0	2.5	/experiments/knapen_aot/videos/S_m-aeoYPMqfg_185.mp4	0.0	194.4552938938141	
34	119.67921900749207	movie	1		298.0	32.0	2.5	/experiments/knapen_aot/videos/S_m-aeoYPMqfg_185.mp4	0.0	194.46340203285217	2.508462905883789
34	122.18768191337585	fix_post	2		12.0	32.0	2.5	/experiments/knapen_aot/videos/S_m-aeoYPMqfg_185.mp4	0.0	196.97186493873596	0.09990310668945312
35	122.28758502006531	fix_pre	0		77.0	33.0	2.5	blank	1.0	197.07176804542542	0.6416640281677246
35	122.92105102539062	response	0	2		33.0	2.5	blank	1.0	197.70523405075073	
35	122.92924904823303	movie	1		301.0	33.0	2.5	blank	1.0	197.71343207359314	2.5083398818969727
35	124.37100481987	response	1	2		33.0	2.5	blank	1.0	199.1551878452301	
35	125.43758893013	fix_post	2		12.0	33.0	2.5	blank	1.0	200.2217719554901	0.09997797012329102
36	125.5375669002533	fix_pre	0		28.0	34.0	2.5	/experiments/knapen_aot/videos/R_S_yt-lzXao6Reec4_14.mp4	0.0	200.3217499256134	0.2333221435546875
36	125.76272988319397	response	0	2		34.0	2.5	/experiments/knapen_aot/videos/R_S_yt-lzXao6Reec4_14.mp4	0.0	200.54691290855408	
36	125.77088904380798	movie	1		301.0	34.0	2.5	/experiments/knapen_aot/videos/R_S_yt-lzXao6Reec4_14.mp4	0.0	200.5550720691681	2.50830078125
36	128.27918982505798	fix_post	2		12.0	34.0	2.5	/experiments/knapen_aot/videos/R_S_yt-lzXao6Reec4_14.mp4	0.0	203.0633728504181	0.10006213188171387
37	128.3792519569397	fix_pre	0		59.0	35.0	2.5	/experiments/knapen_aot/videos/S_yt-G_eNNzNB-hU_1.mp4	0.0	203.1634349822998	0.4916970729827881
37	128.86270999908447	response	0	2		35.0	2.5	/experiments/knapen_aot/videos/S_yt-G_eNNzNB-hU_1.mp4	0.0	203.64689302444458	
37	128.87094902992249	movie	1		301.0	35.0	2.5	/experiments/knapen_aot/videos/S_yt-G_eNNzNB-hU_1.mp4	0.0	203.6551320552826	2.508305788040161
37	131.37925481796265	fix_post	2		12.0	35.0	2.5	/experiments/knapen_aot/videos/S_yt-G_eNNzNB-hU_1.mp4	0.0	206.16343784332275	0.09998202323913574
38	131.47923684120178	fix_pre	0		65.0	36.0	2.5	/experiments/knapen_aot/videos/R_S_ILSVRC2015_train_00517000.mp4	0.0	206.2634198665619	0.5416882038116455
38	132.01271891593933	response	0	2		36.0	2.5	/experiments/knapen_aot/videos/R_S_ILSVRC2015_train_00517000.mp4	0.0	206.79690194129944	
38	132.02092504501343	movie	1		301.0	36.0	2.5	/experiments/knapen_aot/videos/R_S_ILSVRC2015_train_00517000.mp4	0.0	206.80510807037354	2.508319854736328
38	134.52924489974976	fix_post	2		12.0	36.0	2.5	/experiments/knapen_aot/videos/R_S_ILSVRC2015_train_00517000.mp4	0.0	209.31342792510986	0.09991598129272461
39	134.62916088104248	fix_pre	0		58.0	37.0	2.5	/experiments/knapen_aot/videos/S_yt-d5jBQ-LOW2I_17.mp4	0.0	209.4133439064026	0.48334312438964844
39	135.10431289672852	response	0	2		37.0	2.5	/experiments/knapen_aot/videos/S_yt-d5jBQ-LOW2I_17.mp4	0.0	209.88849592208862	
39	135.11250400543213	movie	1		301.0	37.0	2.5	/experiments/knapen_aot/videos/S_yt-d5jBQ-LOW2I_17.mp4	0.0	209.89668703079224	2.508366823196411
39	137.62087082862854	fix_post	2		12.0	37.0	2.5	/experiments/knapen_aot/videos/S_yt-d5jBQ-LOW2I_17.mp4	0.0	212.40505385398865	0.09992718696594238
40	137.72079801559448	fix_pre	0		83.0	38.0	2.5	/experiments/knapen_aot/videos/S_yt-7e6Z9QQieAk_183.mp4	0.0	212.5049810409546	0.6917188167572021
40	138.40433883666992	response	0	2		38.0	2.5	/experiments/knapen_aot/videos/S_yt-7e6Z9QQieAk_183.mp4	0.0	213.18852186203003	
40	138.41251683235168	movie	1		301.0	38.0	2.5	/experiments/knapen_aot/videos/S_yt-7e6Z9QQieAk_183.mp4	0.0	213.1966998577118	2.5083630084991455
40	140.92087984085083	fix_post	2		12.0	38.0	2.5	/experiments/knapen_aot/videos/S_yt-7e6Z9QQieAk_183.mp4	0.0	215.70506286621094	0.09993720054626465
41	141.0208170413971	fix_pre	0		297.0	39.0	2.5	/experiments/knapen_aot/videos/S_yt-mmvWYAttrIw_2.mp4	0.0	215.8050000667572	2.4749999046325684
41	143.4877049922943	response	0	2		39.0	2.5	/experiments/knapen_aot/videos/S_yt-mmvWYAttrIw_2.mp4	0.0	218.27188801765442	
41	143.49581694602966	movie	1		301.0	39.0	2.5	/experiments/knapen_aot/videos/S_yt-mmvWYAttrIw_2.mp4	0.0	218.27999997138977	2.5082759857177734
41	146.00409293174744	fix_post	2		12.0	39.0	2.5	/experiments/knapen_aot/videos/S_yt-mmvWYAttrIw_2.mp4	0.0	220.78827595710754	0.10004496574401855
42	146.10413789749146	fix_pre	0		81.0	40.0	2.5	/experiments/knapen_aot/videos/R_S_yt-RHPOCG1mII0_138.mp4	0.0	220.88832092285156	0.6750011444091797
42	146.77101302146912	response	0	2		40.0	2.5	/experiments/knapen_aot/videos/R_S_yt-RHPOCG1mII0_138.mp4	0.0	221.55519604682922	
42	146.77913904190063	movie	1		301.0	40.0	2.5	/experiments/knapen_aot/videos/R_S_yt-RHPOCG1mII0_138.mp4	0.0	221.56332206726074	2.5083138942718506
42	149.28745293617249	fix_post	2		12.0	40.0	2.5	/experiments/knapen_aot/videos/R_S_yt-RHPOCG1mII0_138.mp4	0.0	224.0716359615326	0.10004711151123047
43	149.38750004768372	fix_pre	0		105.0	41.0	2.5	/experiments/knapen_aot/videos/R_S_yt-xqjVM0Vj4mI_161.mp4	0.0	224.17168307304382	0.8749699592590332
43	150.25427198410034	response	0	2		41.0	2.5	/experiments/knapen_aot/videos/R_S_yt-xqjVM0Vj4mI_161.mp4	0.0	225.03845500946045	
43	150.26247000694275	movie	1		301.0	41.0	2.5	/experiments/knapen_aot/videos/R_S_yt-xqjVM0Vj4mI_161.mp4	0.0	225.04665303230286	2.508354902267456
43	152.7708249092102	fix_post	2		12.0	41.0	2.5	/experiments/knapen_aot/videos/R_S_yt-xqjVM0Vj4mI_161.mp4	0.0	227.5550079345703	0.09997391700744629
44	152.87079882621765	fix_pre	0		219.0	42.0	2.5	blank	1.0	227.65498185157776	1.8249762058258057
44	154.68008089065552	response	0	2		42.0	2.5	blank	1.0	229.46426391601562	
44	154.69577503204346	movie	1		301.0	42.0	2.5	blank	1.0	229.47995805740356	2.508368968963623
44	157.04592895507812	response	1	2		42.0	2.5	blank	1.0	231.83011198043823	
44	157.20414400100708	fix_post	2		12.0	42.0	2.5	blank	1.0	231.9883270263672	0.09997797012329102
45	157.30412197113037	fix_pre	0		63.0	43.0	2.5	/experiments/knapen_aot/videos/S_yt-PyO8-WsbaLU_43.mp4	0.0	232.08830499649048	0.5249660015106201
45	157.82087993621826	response	0	2		43.0	2.5	/experiments/knapen_aot/videos/S_yt-PyO8-WsbaLU_43.mp4	0.0	232.60506296157837	
45	157.829087972641	movie	1		301.0	43.0	2.5	/experiments/knapen_aot/videos/S_yt-PyO8-WsbaLU_43.mp4	0.0	232.6132709980011	2.5083630084991455
45	160.33745098114014	fix_post	2		12.0	43.0	2.5	/experiments/knapen_aot/videos/S_yt-PyO8-WsbaLU_43.mp4	0.0	235.12163400650024	0.10002994537353516
46	160.43748092651367	fix_pre	0		108.0	44.0	2.5	/experiments/knapen_aot/videos/R_S_yt-4-u4Fw_J_q8_45.mp4	0.0	235.22166395187378	0.9008679389953613
46	161.32925391197205	response	0	2		44.0	2.5	/experiments/knapen_aot/videos/R_S_yt-4-u4Fw_J_q8_45.mp4	0.0	236.11343693733215	
46	161.33834886550903	movie	1		301.0	44.0	2.5	/experiments/knapen_aot/videos/R_S_yt-4-u4Fw_J_q8_45.mp4	0.0	236.12253189086914	2.507423162460327
46	163.84577202796936	fix_post	2		12.0	44.0	2.5	/experiments/knapen_aot/videos/R_S_yt-4-u4Fw_J_q8_45.mp4	0.0	238.62995505332947	0.09999585151672363
47	163.94576787948608	fix_pre	0		54.0	45.0	2.5	/experiments/knapen_aot/videos/R_S_comp_GMT110_112NC_364D_1054_AURORA_ANTARTICA__COMP_FINAL_v34_PS_SDR_20181107_SDR_2K_AVC.mp4	0.0	238.7299509048462	0.4499931335449219
47	164.38755989074707	response	0	2		45.0	2.5	/experiments/knapen_aot/videos/R_S_comp_GMT110_112NC_364D_1054_AURORA_ANTARTICA__COMP_FINAL_v34_PS_SDR_20181107_SDR_2K_AVC.mp4	0.0	239.17174291610718	
47	164.395761013031	movie	1		164.0	45.0	2.5	/experiments/knapen_aot/videos/R_S_comp_GMT110_112NC_364D_1054_AURORA_ANTARTICA__COMP_FINAL_v34_PS_SDR_20181107_SDR_2K_AVC.mp4	0.0	239.1799440383911	2.508340835571289
47	166.84585404396057	response	1	2		45.0	2.5	/experiments/knapen_aot/videos/R_S_comp_GMT110_112NC_364D_1054_AURORA_ANTARTICA__COMP_FINAL_v34_PS_SDR_20181107_SDR_2K_AVC.mp4	0.0	241.63003706932068	
47	166.9041018486023	fix_post	2		12.0	45.0	2.5	/experiments/knapen_aot/videos/R_S_comp_GMT110_112NC_364D_1054_AURORA_ANTARTICA__COMP_FINAL_v34_PS_SDR_20181107_SDR_2K_AVC.mp4	0.0	241.6882848739624	0.0999290943145752
48	167.00403094291687	fix_pre	0		65.0	46.0	2.5	/experiments/knapen_aot/videos/R_S_yt-gC3my54_ChQ_58.mp4	0.0	241.78821396827698	0.5425889492034912
48	167.53759384155273	response	0	2		46.0	2.5	/experiments/knapen_aot/videos/R_S_yt-gC3my54_ChQ_58.mp4	0.0	242.32177686691284	
48	167.54661989212036	movie	1		301.0	46.0	2.5	/experiments/knapen_aot/videos/R_S_yt-gC3my54_ChQ_58.mp4	0.0	242.33080291748047	2.50748610496521
48	170.05410599708557	fix_post	2		12.0	46.0	2.5	/experiments/knapen_aot/videos/R_S_yt-gC3my54_ChQ_58.mp4	0.0	244.83828902244568	0.09985804557800293
49	170.15396404266357	fix_pre	0		30.0	47.0	2.5	/experiments/knapen_aot/videos/S_yt-44ip3uFe4YM_30.mp4	0.0	244.93814706802368	0.25006890296936035
49	170.39582586288452	response	0	2		47.0	2.5	/experiments/knapen_aot/videos/S_yt-44ip3uFe4YM_30.mp4	0.0	245.18000888824463	
49	170.40403294563293	movie	1		301.0	47.0	2.5	/experiments/knapen_aot/videos/S_yt-44ip3uFe4YM_30.mp4	0.0	245.18821597099304	2.508384943008423
49	172.91241788864136	fix_post	2		12.0	47.0	2.5	/experiments/knapen_aot/videos/S_yt-44ip3uFe4YM_30.mp4	0.0	247.69660091400146	0.09992408752441406
50	173.01234197616577	fix_pre	0		66.0	48.0	2.5	blank	1.0	247.79652500152588	0.5500960350036621
50	173.55422687530518	response	0	2		48.0	2.5	blank	1.0	248.33840990066528	
50	173.56243801116943	movie	1		301.0	48.0	2.5	blank	1.0	248.34662103652954	2.508204936981201
50	175.2041130065918	response	1	2		48.0	2.5	blank	1.0	249.9882960319519	
50	176.07064294815063	fix_post	2		12.0	48.0	2.5	blank	1.0	250.85482597351074	0.10010504722595215
51	176.1707479953766	fix_pre	0		57.0	49.0	2.5	/experiments/knapen_aot/videos/R_S_yt-_HuBzj8EPBc_62.mp4	0.0	250.9549310207367	0.47493982315063477
51	176.63749504089355	response	0	2		49.0	2.5	/experiments/knapen_aot/videos/R_S_yt-_HuBzj8EPBc_62.mp4	0.0	251.42167806625366	
51	176.64568781852722	movie	1		301.0	49.0	2.5	/experiments/knapen_aot/videos/R_S_yt-_HuBzj8EPBc_62.mp4	0.0	251.42987084388733	2.5083611011505127
51	179.15404891967773	fix_post	2		12.0	49.0	2.5	/experiments/knapen_aot/videos/R_S_yt-_HuBzj8EPBc_62.mp4	0.0	253.93823194503784	0.10014700889587402
52	179.2541959285736	fix_pre	0		60.0	50.0	2.5	/experiments/knapen_aot/videos/R_S_yt-PyO8-WsbaLU_43.mp4	0.0	254.03837895393372	0.5006248950958252
52	179.74583387374878	response	0	2		50.0	2.5	/experiments/knapen_aot/videos/R_S_yt-PyO8-WsbaLU_43.mp4	0.0	254.5300168991089	
52	179.75482082366943	movie	1		300.0	50.0	2.5	/experiments/knapen_aot/videos/R_S_yt-PyO8-WsbaLU_43.mp4	0.0	254.53900384902954	2.507552146911621
52	182.26237297058105	fix_post	2		12.0	50.0	2.5	/experiments/knapen_aot/videos/R_S_yt-PyO8-WsbaLU_43.mp4	0.0	257.04655599594116	0.10000300407409668
53	182.36237597465515	fix_pre	0		48.0	51.0	2.5	/experiments/knapen_aot/videos/R_S_yt-Nnt51ug6NF8_53.mp4	0.0	257.14655900001526	0.399932861328125
53	182.74661993980408	response	0	2		51.0	2.5	/experiments/knapen_aot/videos/R_S_yt-Nnt51ug6NF8_53.mp4	0.0	257.5308029651642	
53	182.76230883598328	movie	1		301.0	51.0	2.5	/experiments/knapen_aot/videos/R_S_yt-Nnt51ug6NF8_53.mp4	0.0	257.5464918613434	2.508291006088257
53	185.27059984207153	fix_post	2		12.0	51.0	2.5	/experiments/knapen_aot/videos/R_S_yt-Nnt51ug6NF8_53.mp4	0.0	260.05478286743164	0.10011816024780273
54	185.37071800231934	fix_pre	0		117.0	52.0	2.5	/experiments/knapen_aot/videos/S_yt-GFcuvjHJmS4_86.mp4	0.0	260.15490102767944	0.9749569892883301
54	186.33749985694885	response	0	2		52.0	2.5	/experiments/knapen_aot/videos/S_yt-GFcuvjHJmS4_86.mp4	0.0	261.12168288230896	
54	186.34567499160767	movie	1		301.0	52.0	2.5	/experiments/knapen_aot/videos/S_yt-GFcuvjHJmS4_86.mp4	0.0	261.1298580169678	2.508314847946167
54	188.85398983955383	fix_post	2		12.0	52.0	2.5	/experiments/knapen_aot/videos/S_yt-GFcuvjHJmS4_86.mp4	0.0	263.63817286491394	0.09993720054626465
55	188.9539270401001	fix_pre	0		29.0	53.0	2.5	/experiments/knapen_aot/videos/R_S_yt-lzXao6Reec4_14.mp4	0.0	263.7381100654602	0.2416830062866211
55	189.18752193450928	response	0	2		53.0	2.5	/experiments/knapen_aot/videos/R_S_yt-lzXao6Reec4_14.mp4	0.0	263.9717049598694	
55	189.19561004638672	movie	1		299.0	53.0	2.5	/experiments/knapen_aot/videos/R_S_yt-lzXao6Reec4_14.mp4	0.0	263.9797930717468	2.5084068775177
55	191.70401692390442	fix_post	2		12.0	53.0	2.5	/experiments/knapen_aot/videos/R_S_yt-lzXao6Reec4_14.mp4	0.0	266.4881999492645	0.09998393058776855
56	191.8040008544922	fix_pre	0		257.0	54.0	2.5	/experiments/knapen_aot/videos/S_yt-8gCfc-o3pyk_85.mp4	0.0	266.5881838798523	2.1415860652923584
56	193.93742203712463	response	0	2		54.0	2.5	/experiments/knapen_aot/videos/S_yt-8gCfc-o3pyk_85.mp4	0.0	268.72160506248474	
56	193.94558691978455	movie	1		301.0	54.0	2.5	/experiments/knapen_aot/videos/S_yt-8gCfc-o3pyk_85.mp4	0.0	268.72976994514465	2.5083250999450684
56	196.45391201972961	fix_post	2		12.0	54.0	2.5	/experiments/knapen_aot/videos/S_yt-8gCfc-o3pyk_85.mp4	0.0	271.2380950450897	0.10002994537353516
57	196.55394196510315	fix_pre	0		71.0	55.0	2.5	blank	1.0	271.33812499046326	0.5915770530700684
57	197.13744401931763	response	0	2		55.0	2.5	blank	1.0	271.92162704467773	
57	197.14551901817322	movie	1		301.0	55.0	2.5	blank	1.0	271.9297020435333	2.508378028869629
57	199.21237897872925	response	1	2		55.0	2.5	blank	1.0	273.99656200408936	
57	199.65389704704285	fix_post	2		12.0	55.0	2.5	blank	1.0	274.43808007240295	0.1000678539276123
58	199.75396490097046	fix_pre	0		33.0	56.0	2.5	/experiments/knapen_aot/videos/R_S_comp_LA_A005_C009_PSNK_ALT_v09_SDR_PS_201809134_SDR_2K_AVC.mp4	0.0	274.53814792633057	0.2749631404876709
58	200.02074694633484	response	0	2		56.0	2.5	/experiments/knapen_aot/videos/R_S_comp_LA_A005_C009_PSNK_ALT_v09_SDR_PS_201809134_SDR_2K_AVC.mp4	0.0	274.80492997169495	
58	200.02892804145813	movie	1		165.0	56.0	2.5	/experiments/knapen_aot/videos/R_S_comp_LA_A005_C009_PSNK_ALT_v09_SDR_PS_201809134_SDR_2K_AVC.mp4	0.0	274.81311106681824	2.508382797241211
58	202.53731083869934	fix_post	2		12.0	56.0	2.5	/experiments/knapen_aot/videos/R_S_comp_LA_A005_C009_PSNK_ALT_v09_SDR_PS_201809134_SDR_2K_AVC.mp4	0.0	277.32149386405945	0.09998416900634766
59	202.6372950077057	fix_pre	0		151.0	57.0	2.5	/experiments/knapen_aot/videos/S_pexels-artem-podrez-5457692.mp4	0.0	277.4214780330658	1.2582728862762451
59	203.88736701011658	response	0	2		57.0	2.5	/experiments/knapen_aot/videos/S_pexels-artem-podrez-5457692.mp4	0.0	278.6715500354767	
59	203.89556789398193	movie	1		166.0	57.0	2.5	/experiments/knapen_aot/videos/S_pexels-artem-podrez-5457692.mp4	0.0	278.67975091934204	2.5082900524139404
59	206.40385794639587	fix_post	2		12.0	57.0	2.5	/experiments/knapen_aot/videos/S_pexels-artem-podrez-5457692.mp4	0.0	281.188040971756	0.10011601448059082
60	206.50397396087646	fix_pre	0		42.0	58.0	2.5	/experiments/knapen_aot/videos/S_yt-4-u4Fw_J_q8_45.mp4	0.0	281.2881569862366	0.34996891021728516
60	206.84569883346558	response	0	2		58.0	2.5	/experiments/knapen_aot/videos/S_yt-4-u4Fw_J_q8_45.mp4	0.0	281.6298818588257	
60	206.85394287109375	movie	1		301.0	58.0	2.5	/experiments/knapen_aot/videos/S_yt-4-u4Fw_J_q8_45.mp4	0.0	281.63812589645386	2.508294105529785
60	209.36223697662354	fix_post	2		12.0	58.0	2.5	/experiments/knapen_aot/videos/S_yt-4-u4Fw_J_q8_45.mp4	0.0	284.14642000198364	0.09994292259216309
61	209.4621798992157	fix_pre	0		64.0	59.0	2.5	/experiments/knapen_aot/videos/S_yt-Uv0dt_-fWJU_40.mp4	0.0	284.2463629245758	0.5333020687103271
61	209.98739004135132	response	0	2		59.0	2.5	/experiments/knapen_aot/videos/S_yt-Uv0dt_-fWJU_40.mp4	0.0	284.7715730667114	
61	209.99548196792603	movie	1		301.0	59.0	2.5	/experiments/knapen_aot/videos/S_yt-Uv0dt_-fWJU_40.mp4	0.0	284.77966499328613	2.5083038806915283
61	212.50378584861755	fix_post	2		12.0	59.0	2.5	/experiments/knapen_aot/videos/S_yt-Uv0dt_-fWJU_40.mp4	0.0	287.28796887397766	0.10007214546203613
62	212.6038579940796	fix_pre	0		257.0	60.0	2.5	/experiments/knapen_aot/videos/S_yt-YLcmfyfIokU_64.mp4	0.0	287.3880410194397	2.141695976257324
62	214.73736381530762	response	0	2		60.0	2.5	/experiments/knapen_aot/videos/S_yt-YLcmfyfIokU_64.mp4	0.0	289.5215468406677	
62	214.7455539703369	movie	1		301.0	60.0	2.5	/experiments/knapen_aot/videos/S_yt-YLcmfyfIokU_64.mp4	0.0	289.529736995697	2.508301019668579
62	217.2538549900055	fix_post	2		12.0	60.0	2.5	/experiments/knapen_aot/videos/S_yt-YLcmfyfIokU_64.mp4	0.0	292.0380380153656	0.1000058650970459
63	217.35386085510254	fix_pre	0		52.0	61.0	2.5	/experiments/knapen_aot/videos/S_bing-www_nytimes_com_video_dining_1247468118505_grilled-chicken-breasts-with-herb-butter_html_132.mp4	0.0	292.13804388046265	0.4332900047302246
63	217.77899885177612	response	0	2		61.0	2.5	/experiments/knapen_aot/videos/S_bing-www_nytimes_com_video_dining_1247468118505_grilled-chicken-breasts-with-herb-butter_html_132.mp4	0.0	292.56318187713623	
63	217.78715085983276	movie	1		167.0	61.0	2.5	/experiments/knapen_aot/videos/S_bing-www_nytimes_com_video_dining_1247468118505_grilled-chicken-breasts-with-herb-butter_html_132.mp4	0.0	292.57133388519287	2.508268117904663
63	220.29541897773743	fix_post	2		12.0	61.0	2.5	/experiments/knapen_aot/videos/S_bing-www_nytimes_com_video_dining_1247468118505_grilled-chicken-breasts-with-herb-butter_html_132.mp4	0.0	295.07960200309753	0.1000978946685791
64	220.395516872406	fix_pre	0		51.0	62.0	2.5	blank	1.0	295.1796998977661	0.42497897148132324
64	220.81235098838806	response	0	2		62.0	2.5	blank	1.0	295.59653401374817	
64	220.82049584388733	movie	1		301.0	62.0	2.5	blank	1.0	295.60467886924744	2.5083751678466797
64	223.2788758277893	response	1	2		62.0	2.5	blank	1.0	298.0630588531494	
64	223.328871011734	fix_post	2		12.0	62.0	2.5	blank	1.0	298.1130540370941	0.10000181198120117
65	223.4288728237152	fix_pre	0		53.0	63.0	2.5	/experiments/knapen_aot/videos/R_S_ILSVRC2015_train_00743001.mp4	0.0	298.2130558490753	0.4416811466217041
65	223.8547170162201	response	0	2		63.0	2.5	/experiments/knapen_aot/videos/R_S_ILSVRC2015_train_00743001.mp4	0.0	298.6389000415802	
65	223.8705539703369	movie	1		301.0	63.0	2.5	/experiments/knapen_aot/videos/R_S_ILSVRC2015_train_00743001.mp4	0.0	298.654736995697	2.5082340240478516
65	226.37878799438477	fix_post	2		12.0	63.0	2.5	/experiments/knapen_aot/videos/R_S_ILSVRC2015_train_00743001.mp4	0.0	301.1629710197449	0.10001301765441895
66	226.47880101203918	fix_pre	0		48.0	64.0	2.5	/experiments/knapen_aot/videos/R_S_production_ID_4802710.mp4	0.0	301.2629840373993	0.4005908966064453
66	226.87061882019043	response	0	2		64.0	2.5	/experiments/knapen_aot/videos/R_S_production_ID_4802710.mp4	0.0	301.65480184555054	
66	226.87939190864563	movie	1		168.0	64.0	2.5	/experiments/knapen_aot/videos/R_S_production_ID_4802710.mp4	0.0	301.66357493400574	2.5077121257781982
66	229.38710403442383	fix_post	2		12.0	64.0	2.5	/experiments/knapen_aot/videos/R_S_production_ID_4802710.mp4	0.0	304.17128705978394	0.10006499290466309
67	229.4871690273285	fix_pre	0		58.0	65.0	2.5	/experiments/knapen_aot/videos/S_yt-Dwgpjoikt84_71.mp4	0.0	304.2713520526886	0.4832630157470703
67	229.9622459411621	response	0	2		65.0	2.5	/experiments/knapen_aot/videos/S_yt-Dwgpjoikt84_71.mp4	0.0	304.7464289665222	
67	229.97043204307556	movie	1		301.0	65.0	2.5	/experiments/knapen_aot/videos/S_yt-Dwgpjoikt84_71.mp4	0.0	304.75461506843567	2.5083329677581787
67	232.47876501083374	fix_post	2		12.0	65.0	2.5	/experiments/knapen_aot/videos/S_yt-Dwgpjoikt84_71.mp4	0.0	307.26294803619385	0.10006499290466309
68	232.5788300037384	fix_pre	0		87.0	66.0	2.5	/experiments/knapen_aot/videos/S_yt-CH4HfNRC1hY_40.mp4	0.0	307.3630130290985	0.7248728275299072
68	233.2956109046936	response	0	2		66.0	2.5	/experiments/knapen_aot/videos/S_yt-CH4HfNRC1hY_40.mp4	0.0	308.0797939300537	
68	233.3037028312683	movie	1		301.0	66.0	2.5	/experiments/knapen_aot/videos/S_yt-CH4HfNRC1hY_40.mp4	0.0	308.0878858566284	2.5083441734313965
68	235.8120470046997	fix_post	2		12.0	66.0	2.5	/experiments/knapen_aot/videos/S_yt-CH4HfNRC1hY_40.mp4	0.0	310.5962300300598	0.10006284713745117
69	235.91210985183716	fix_pre	0		80.0	67.0	2.5	/experiments/knapen_aot/videos/R_S_yt-etQaTgGOhR4_69.mp4	0.0	310.69629287719727	0.6666920185089111
69	236.57063603401184	response	0	2		67.0	2.5	/experiments/knapen_aot/videos/R_S_yt-etQaTgGOhR4_69.mp4	0.0	311.35481905937195	
69	236.57880187034607	movie	1		301.0	67.0	2.5	/experiments/knapen_aot/videos/R_S_yt-etQaTgGOhR4_69.mp4	0.0	311.3629848957062	2.5083351135253906
69	239.08713698387146	fix_post	2		12.0	67.0	2.5	/experiments/knapen_aot/videos/R_S_yt-etQaTgGOhR4_69.mp4	0.0	313.87132000923157	0.09997391700744629
70	239.1871109008789	fix_pre	0		74.0	68.0	2.5	blank	1.0	313.971293926239	0.6166589260101318
70	239.79564499855042	response	0	2		68.0	2.5	blank	1.0	314.5798280239105	
70	239.80376982688904	movie	1		301.0	68.0	2.5	blank	1.0	314.58795285224915	2.5083301067352295
70	242.01213693618774	response	1	2		68.0	2.5	blank	1.0	316.79631996154785	
70	242.31209993362427	fix_post	2		12.0	68.0	2.5	blank	1.0	317.0962829589844	0.10004997253417969
71	242.41214990615845	fix_pre	0		41.0	69.0	2.5	/experiments/knapen_aot/videos/R_S_yt-9qXwehMoX7o_50.mp4	0.0	317.19633293151855	0.3420541286468506
71	242.74560499191284	response	0	2		69.0	2.5	/experiments/knapen_aot/videos/R_S_yt-9qXwehMoX7o_50.mp4	0.0	317.52978801727295	
71	242.7542040348053	movie	1		301.0	69.0	2.5	/experiments/knapen_aot/videos/R_S_yt-9qXwehMoX7o_50.mp4	0.0	317.5383870601654	2.5078608989715576
71	245.26206493377686	fix_post	2		12.0	69.0	2.5	/experiments/knapen_aot/videos/R_S_yt-9qXwehMoX7o_50.mp4	0.0	320.04624795913696	0.10001897811889648
72	245.36208391189575	fix_pre	0		57.0	70.0	2.5	/experiments/knapen_aot/videos/R_S_yt-w5lh_rKyKtE_21.mp4	0.0	320.14626693725586	0.475445032119751
72	245.8289089202881	response	0	2		70.0	2.5	/experiments/knapen_aot/videos/R_S_yt-w5lh_rKyKtE_21.mp4	0.0	320.6130919456482	
72	245.8375289440155	movie	1		300.0	70.0	2.5	/experiments/knapen_aot/videos/R_S_yt-w5lh_rKyKtE_21.mp4	0.0	320.6217119693756	2.5078389644622803
72	248.34536790847778	fix_post	2		12.0	70.0	2.5	/experiments/knapen_aot/videos/R_S_yt-w5lh_rKyKtE_21.mp4	0.0	323.1295509338379	0.1000370979309082
73	248.4454050064087	fix_pre	0		87.0	71.0	2.5	/experiments/knapen_aot/videos/S_yt-H-qQ0oE1kwM_6.mp4	0.0	323.2295880317688	0.7254598140716553
73	249.16237592697144	response	0	2		71.0	2.5	/experiments/knapen_aot/videos/S_yt-H-qQ0oE1kwM_6.mp4	0.0	323.94655895233154	
73	249.17086482048035	movie	1		301.0	71.0	2.5	/experiments/knapen_aot/videos/S_yt-H-qQ0oE1kwM_6.mp4	0.0	323.95504784584045	2.5078301429748535
73	251.6786949634552	fix_post	2		12.0	71.0	2.5	/experiments/knapen_aot/videos/S_yt-H-qQ0oE1kwM_6.mp4	0.0	326.4628779888153	0.10001087188720703
74	251.7787058353424	fix_pre	0		231.0	72.0	2.5	/experiments/knapen_aot/videos/R_S_comp_GMT329_113NC_396B_1105_ITALY_v03_SDR_FINAL_20180706_SDR_2K_AVC.mp4	0.0	326.5628888607025	1.9249951839447021
74	253.68798804283142	response	0	2		72.0	2.5	/experiments/knapen_aot/videos/R_S_comp_GMT329_113NC_396B_1105_ITALY_v03_SDR_FINAL_20180706_SDR_2K_AVC.mp4	0.0	328.4721710681915	
74	253.7037010192871	movie	1		168.0	72.0	2.5	/experiments/knapen_aot/videos/R_S_comp_GMT329_113NC_396B_1105_ITALY_v03_SDR_FINAL_20180706_SDR_2K_AVC.mp4	0.0	328.4878840446472	2.508356809616089
74	256.2120578289032	fix_post	2		12.0	72.0	2.5	/experiments/knapen_aot/videos/R_S_comp_GMT329_113NC_396B_1105_ITALY_v03_SDR_FINAL_20180706_SDR_2K_AVC.mp4	0.0	330.9962408542633	0.09989309310913086
75	256.31195092201233	fix_pre	0		151.0	73.0	2.5	/experiments/knapen_aot/videos/R_S_wc-NzEeGIXLxvwp_19.mp4	0.0	331.09613394737244	1.2583699226379395
75	257.5621359348297	response	0	2		73.0	2.5	/experiments/knapen_aot/videos/R_S_wc-NzEeGIXLxvwp_19.mp4	0.0	332.3463189601898	
75	257.57032084465027	movie	1		164.0	73.0	2.5	/experiments/knapen_aot/videos/R_S_wc-NzEeGIXLxvwp_19.mp4	0.0	332.3545038700104	2.508402109146118
75	260.0787229537964	fix_post	2		12.0	73.0	2.5	/experiments/knapen_aot/videos/R_S_wc-NzEeGIXLxvwp_19.mp4	0.0	334.8629059791565	0.09999489784240723
76	260.1787178516388	fix_pre	0		156.0	74.0	2.5	/experiments/knapen_aot/videos/S_yt-tqxZlasEvZA_43.mp4	0.0	334.9629008769989	1.299942970275879
76	261.47050285339355	response	0	2		74.0	2.5	/experiments/knapen_aot/videos/S_yt-tqxZlasEvZA_43.mp4	0.0	336.25468587875366	
76	261.4786608219147	movie	1		301.0	74.0	2.5	/experiments/knapen_aot/videos/S_yt-tqxZlasEvZA_43.mp4	0.0	336.2628438472748	2.5084590911865234
76	263.9871199131012	fix_post	2		12.0	74.0	2.5	/experiments/knapen_aot/videos/S_yt-tqxZlasEvZA_43.mp4	0.0	338.7713029384613	0.1002960205078125
77	264.087415933609	fix_pre	0		94.0	75.0	2.5	/experiments/knapen_aot/videos/S_yt-r7PeFd-hIp0_378.mp4	0.0	338.8715989589691	0.7829010486602783
77	264.86218190193176	response	0	2		75.0	2.5	/experiments/knapen_aot/videos/S_yt-r7PeFd-hIp0_378.mp4	0.0	339.64636492729187	
77	264.8703169822693	movie	1		301.0	75.0	2.5	/experiments/knapen_aot/videos/S_yt-r7PeFd-hIp0_378.mp4	0.0	339.6545000076294	2.5084009170532227
77	267.3787178993225	fix_post	2		12.0	75.0	2.5	/experiments/knapen_aot/videos/S_yt-r7PeFd-hIp0_378.mp4	0.0	342.1629009246826	0.09998393058776855
78	267.4787018299103	fix_pre	0		74.0	76.0	2.5	/experiments/knapen_aot/videos/R_S_yt-ObT9gF8E_tU_250.mp4	0.0	342.2628848552704	0.6165590286254883
78	268.0871150493622	response	0	2		76.0	2.5	/experiments/knapen_aot/videos/R_S_yt-ObT9gF8E_tU_250.mp4	0.0	342.8712980747223	
78	268.09526085853577	movie	1		300.0	76.0	2.5	/experiments/knapen_aot/videos/R_S_yt-ObT9gF8E_tU_250.mp4	0.0	342.8794438838959	2.508385181427002
78	270.60364603996277	fix_post	2		12.0	76.0	2.5	/experiments/knapen_aot/videos/R_S_yt-ObT9gF8E_tU_250.mp4	0.0	345.3878290653229	0.10004496574401855
79	270.7036910057068	fix_pre	0		70.0	77.0	2.5	blank	1.0	345.4878740310669	0.5833289623260498
79	271.278795003891	response	0	2		77.0	2.5	blank	1.0	346.0629780292511	
79	271.28701996803284	movie	1		301.0	77.0	2.5	blank	1.0	346.07120299339294	2.5082929134368896
79	272.78714299201965	response	1	2		77.0	2.5	blank	1.0	347.57132601737976	
79	273.7953128814697	fix_post	2		12.0	77.0	2.5	blank	1.0	348.57949590682983	0.1000370979309082
80	273.89534997940063	fix_pre	0		57.0	78.0	2.5	/experiments/knapen_aot/videos/S_ILSVRC2015_train_00394000.mp4	0.0	348.67953300476074	0.47490406036376953
80	274.36208295822144	response	0	2		78.0	2.5	/experiments/knapen_aot/videos/S_ILSVRC2015_train_00394000.mp4	0.0	349.14626598358154	
80	274.3702540397644	movie	1		301.0	78.0	2.5	/experiments/knapen_aot/videos/S_ILSVRC2015_train_00394000.mp4	0.0	349.1544370651245	2.508392810821533
80	276.87864685058594	fix_post	2		12.0	78.0	2.5	/experiments/knapen_aot/videos/S_ILSVRC2015_train_00394000.mp4	0.0	351.66282987594604	0.09997916221618652
81	276.9786260128021	fix_pre	0		89.0	79.0	2.5	/experiments/knapen_aot/videos/R_S_Pexels_Videos_2795171.mp4	0.0	351.76280903816223	0.7416558265686035
81	277.71212697029114	response	0	2		79.0	2.5	/experiments/knapen_aot/videos/R_S_Pexels_Videos_2795171.mp4	0.0	352.49630999565125	
81	277.7202818393707	movie	1		166.0	79.0	2.5	/experiments/knapen_aot/videos/R_S_Pexels_Videos_2795171.mp4	0.0	352.50446486473083	2.508371114730835
81	280.22865295410156	fix_post	2		12.0	79.0	2.5	/experiments/knapen_aot/videos/R_S_Pexels_Videos_2795171.mp4	0.0	355.01283597946167	0.09995388984680176
82	280.32860684394836	fix_pre	0		69.0	80.0	2.5	/experiments/knapen_aot/videos/S_DV6V38rplag_215.mp4	0.0	355.1127898693085	0.5749790668487549
82	280.88787603378296	response	0	2		80.0	2.5	/experiments/knapen_aot/videos/S_DV6V38rplag_215.mp4	0.0	355.67205905914307	
82	280.9035859107971	movie	1		301.0	80.0	2.5	/experiments/knapen_aot/videos/S_DV6V38rplag_215.mp4	0.0	355.6877689361572	2.508376121520996
82	283.4119620323181	fix_post	2		12.0	80.0	2.5	/experiments/knapen_aot/videos/S_DV6V38rplag_215.mp4	0.0	358.1961450576782	0.10000085830688477
83	283.511962890625	fix_pre	0		101.0	81.0	2.5	/experiments/knapen_aot/videos/S_yt-OTNdgakSIJE_97.mp4	0.0	358.2961459159851	0.8416690826416016
83	284.3454120159149	response	0	2		81.0	2.5	/experiments/knapen_aot/videos/S_yt-OTNdgakSIJE_97.mp4	0.0	359.129595041275	
83	284.3536319732666	movie	1		301.0	81.0	2.5	/experiments/knapen_aot/videos/S_yt-OTNdgakSIJE_97.mp4	0.0	359.1378149986267	2.5083320140838623
83	286.86196398735046	fix_post	2		12.0	81.0	2.5	/experiments/knapen_aot/videos/S_yt-OTNdgakSIJE_97.mp4	0.0	361.64614701271057	0.10023903846740723
84	286.96220302581787	fix_pre	0		62.0	82.0	2.5	blank	1.0	361.746386051178	0.516359806060791
84	287.4704418182373	response	0	2		82.0	2.5	blank	1.0	362.2546248435974	
84	287.47856283187866	movie	1		301.0	82.0	2.5	blank	1.0	362.26274585723877	2.5083022117614746
84	289.98686504364014	fix_post	2		12.0	82.0	2.5	blank	1.0	364.77104806900024	0.10003399848937988
85	290.0868990421295	fix_pre	0		36.0	83.0	2.5	/experiments/knapen_aot/videos/R_S_wc-0SAXOWjdNVGC_8.mp4	0.0	364.8710820674896	0.3000478744506836
85	290.3786599636078	response	0	2		83.0	2.5	/experiments/knapen_aot/videos/R_S_wc-0SAXOWjdNVGC_8.mp4	0.0	365.1628429889679	
85	290.3869469165802	movie	1		165.0	83.0	2.5	/experiments/knapen_aot/videos/R_S_wc-0SAXOWjdNVGC_8.mp4	0.0	365.1711299419403	2.5083041191101074
85	292.8952510356903	fix_post	2		12.0	83.0	2.5	/experiments/knapen_aot/videos/R_S_wc-0SAXOWjdNVGC_8.mp4	0.0	367.6794340610504	0.10003495216369629
87	292.995285987854	stim	0		581.0					367.7794690132141	4.841778993606567
87	296.18697595596313	response	0	2						370.97115898132324	
87	297.8314678668976	response	0	space						372.6156508922577	
