trial_nr	onset	event_type	phase	response	nr_frames	movie_index	movie_duration	movie_file	blank	onset_abs	duration
0	0.12489008903503418	stim	0		43.0					55.2323260307312	0.35685181617736816
0	0.4738609790802002	response	0	space						55.58129692077637	
1	0.48174190521240234	stim	0		120.0					55.58917784690857	1.0080180168151855
1	1.1981959342956543	response	0	space						56.30563187599182	
1	1.489759922027588	stim	1		120.0					56.597195863723755	1.000035047531128
1	1.5149269104003906	response	1	space						56.62236285209656	
2	2.489794969558716	fix_pre	0		30.0	0.0	2.5	/experiments/knapen_aot/videos/S_wc-_W9iefBXz8bi_23.mp4	0.0	57.59723091125488	0.24995994567871094
2	2.7241718769073486	response	0	space		0.0	2.5	/experiments/knapen_aot/videos/S_wc-_W9iefBXz8bi_23.mp4	0.0	57.831607818603516	
2	2.7397549152374268	movie	1		163.0	0.0	2.5	/experiments/knapen_aot/videos/S_wc-_W9iefBXz8bi_23.mp4	0.0	57.847190856933594	2.5084240436553955
2	5.248178958892822	fix_post	2		12.0	0.0	2.5	/experiments/knapen_aot/videos/S_wc-_W9iefBXz8bi_23.mp4	0.0	60.35561490058899	0.09999299049377441
3	5.348171949386597	fix_pre	0		119.0	1.0	2.5	/experiments/knapen_aot/videos/R_S_ILSVRC2015_train_00521000.mp4	0.0	60.455607891082764	0.9916589260101318
3	6.332000017166138	response	0	2		1.0	2.5	/experiments/knapen_aot/videos/R_S_ILSVRC2015_train_00521000.mp4	0.0	61.439435958862305	
3	6.3398308753967285	movie	1		301.0	1.0	2.5	/experiments/knapen_aot/videos/R_S_ILSVRC2015_train_00521000.mp4	0.0	61.447266817092896	2.508254051208496
3	8.848084926605225	fix_post	2		12.0	1.0	2.5	/experiments/knapen_aot/videos/R_S_ILSVRC2015_train_00521000.mp4	0.0	63.95552086830139	0.09996509552001953
4	8.948050022125244	fix_pre	0		78.0	2.0	2.5	/experiments/knapen_aot/videos/R_S_yt-YFl_NAWBFAw_166.mp4	0.0	64.05548596382141	0.650040864944458
4	9.589876890182495	response	0	2		2.0	2.5	/experiments/knapen_aot/videos/R_S_yt-YFl_NAWBFAw_166.mp4	0.0	64.69731283187866	
4	9.598090887069702	movie	1		301.0	2.0	2.5	/experiments/knapen_aot/videos/R_S_yt-YFl_NAWBFAw_166.mp4	0.0	64.70552682876587	2.5083510875701904
4	12.106441974639893	fix_post	2		12.0	2.0	2.5	/experiments/knapen_aot/videos/R_S_yt-YFl_NAWBFAw_166.mp4	0.0	67.21387791633606	0.09998798370361328
5	12.206429958343506	fix_pre	0		128.0	3.0	2.5	/experiments/knapen_aot/videos/R_S_yt-JVhfcpV7OaY_71.mp4	0.0	67.31386590003967	1.0749850273132324
5	13.273221969604492	response	0	2		3.0	2.5	/experiments/knapen_aot/videos/R_S_yt-JVhfcpV7OaY_71.mp4	0.0	68.38065791130066	
5	13.281414985656738	movie	1		301.0	3.0	2.5	/experiments/knapen_aot/videos/R_S_yt-JVhfcpV7OaY_71.mp4	0.0	68.3888509273529	2.5083260536193848
5	15.789741039276123	fix_post	2		12.0	3.0	2.5	/experiments/knapen_aot/videos/R_S_yt-JVhfcpV7OaY_71.mp4	0.0	70.89717698097229	0.10000991821289062
6	15.889750957489014	fix_pre	0		114.0	4.0	2.5	/experiments/knapen_aot/videos/S_ILSVRC2015_train_00369002.mp4	0.0	70.99718689918518	0.9499399662017822
6	16.831650972366333	response	0	2		4.0	2.5	/experiments/knapen_aot/videos/S_ILSVRC2015_train_00369002.mp4	0.0	71.9390869140625	
6	16.839690923690796	movie	1		301.0	4.0	2.5	/experiments/knapen_aot/videos/S_ILSVRC2015_train_00369002.mp4	0.0	71.94712686538696	2.508345127105713
6	19.34803605079651	fix_post	2		12.0	4.0	2.5	/experiments/knapen_aot/videos/S_ILSVRC2015_train_00369002.mp4	0.0	74.45547199249268	0.09996795654296875
7	19.448004007339478	fix_pre	0		115.0	5.0	2.5	/experiments/knapen_aot/videos/S_comp_N008_C009_PS_v01_SDR_PS_20180925_SDR_2K_AVC.mp4	0.0	74.55543994903564	0.9583439826965332
7	20.398231983184814	response	0	2		5.0	2.5	/experiments/knapen_aot/videos/S_comp_N008_C009_PS_v01_SDR_PS_20180925_SDR_2K_AVC.mp4	0.0	75.50566792488098	
7	20.40634799003601	movie	1		165.0	5.0	2.5	/experiments/knapen_aot/videos/S_comp_N008_C009_PS_v01_SDR_PS_20180925_SDR_2K_AVC.mp4	0.0	75.51378393173218	2.5083329677581787
7	22.91468095779419	fix_post	2		12.0	5.0	2.5	/experiments/knapen_aot/videos/S_comp_N008_C009_PS_v01_SDR_PS_20180925_SDR_2K_AVC.mp4	0.0	78.02211689949036	0.1000220775604248
8	23.014703035354614	fix_pre	0		108.0	6.0	2.5	blank	1.0	78.12213897705078	0.8999478816986084
8	23.90651798248291	response	0	2		6.0	2.5	blank	1.0	79.01395392417908	
8	23.914650917053223	movie	1		301.0	6.0	2.5	blank	1.0	79.02208685874939	2.5083541870117188
8	26.42300510406494	fix_post	2		12.0	6.0	2.5	blank	1.0	81.53044104576111	0.09993386268615723
9	26.5229389667511	fix_pre	0		115.0	7.0	2.5	/experiments/knapen_aot/videos/R_S_yt-HFiRYTnMZxE_338.mp4	0.0	81.63037490844727	0.958420991897583
9	27.473121881484985	response	0	2		7.0	2.5	/experiments/knapen_aot/videos/R_S_yt-HFiRYTnMZxE_338.mp4	0.0	82.58055782318115	
9	27.48135995864868	movie	1		301.0	7.0	2.5	/experiments/knapen_aot/videos/R_S_yt-HFiRYTnMZxE_338.mp4	0.0	82.58879590034485	2.508273124694824
9	29.989633083343506	fix_post	2		12.0	7.0	2.5	/experiments/knapen_aot/videos/R_S_yt-HFiRYTnMZxE_338.mp4	0.0	85.09706902503967	0.10003995895385742
10	30.089673042297363	fix_pre	0		117.0	8.0	2.5	/experiments/knapen_aot/videos/S_ILSVRC2015_train_00768000.mp4	0.0	85.19710898399353	0.9749188423156738
10	31.056500911712646	response	0	2		8.0	2.5	/experiments/knapen_aot/videos/S_ILSVRC2015_train_00768000.mp4	0.0	86.16393685340881	
10	31.064591884613037	movie	1		301.0	8.0	2.5	/experiments/knapen_aot/videos/S_ILSVRC2015_train_00768000.mp4	0.0	86.1720278263092	2.5084080696105957
10	33.57299995422363	fix_post	2		12.0	8.0	2.5	/experiments/knapen_aot/videos/S_ILSVRC2015_train_00768000.mp4	0.0	88.6804358959198	0.10000991821289062
11	33.67300987243652	fix_pre	0		129.0	9.0	2.5	/experiments/knapen_aot/videos/S_yt-YOLaQ53ooks_195.mp4	0.0	88.78044581413269	1.076207160949707
11	34.739845991134644	response	0	2		9.0	2.5	/experiments/knapen_aot/videos/S_yt-YOLaQ53ooks_195.mp4	0.0	89.84728193283081	
11	34.74921703338623	movie	1		301.0	9.0	2.5	/experiments/knapen_aot/videos/S_yt-YOLaQ53ooks_195.mp4	0.0	89.8566529750824	2.50704288482666
11	37.25625991821289	fix_post	2		12.0	9.0	2.5	/experiments/knapen_aot/videos/S_yt-YOLaQ53ooks_195.mp4	0.0	92.36369585990906	0.10002708435058594
12	37.35628700256348	fix_pre	0		136.0	10.0	2.5	/experiments/knapen_aot/videos/R_S_production_ID_4360158.mp4	0.0	92.46372294425964	1.1333560943603516
12	38.48145604133606	response	0	2		10.0	2.5	/experiments/knapen_aot/videos/R_S_production_ID_4360158.mp4	0.0	93.58889198303223	
12	38.48964309692383	movie	1		164.0	10.0	2.5	/experiments/knapen_aot/videos/R_S_production_ID_4360158.mp4	0.0	93.59707903862	2.5082859992980957
12	40.997929096221924	fix_post	2		12.0	10.0	2.5	/experiments/knapen_aot/videos/R_S_production_ID_4360158.mp4	0.0	96.10536503791809	0.09998679161071777
13	41.09791588783264	fix_pre	0		108.0	11.0	2.5	/experiments/knapen_aot/videos/S_pexels-tima-miroshnichenko-6077718.mp4	0.0	96.20535182952881	0.9012811183929443
13	41.98982095718384	response	0	2		11.0	2.5	/experiments/knapen_aot/videos/S_pexels-tima-miroshnichenko-6077718.mp4	0.0	97.09725689888	
13	41.999197006225586	movie	1		169.0	11.0	2.5	/experiments/knapen_aot/videos/S_pexels-tima-miroshnichenko-6077718.mp4	0.0	97.10663294792175	2.5070838928222656
13	44.50628089904785	fix_post	2		12.0	11.0	2.5	/experiments/knapen_aot/videos/S_pexels-tima-miroshnichenko-6077718.mp4	0.0	99.61371684074402	0.09998798370361328
14	44.606268882751465	fix_pre	0		109.0	12.0	2.5	/experiments/knapen_aot/videos/S_yt-w5lh_rKyKtE_21.mp4	0.0	99.71370482444763	0.9082801342010498
14	45.50637602806091	response	0	2		12.0	2.5	/experiments/knapen_aot/videos/S_yt-w5lh_rKyKtE_21.mp4	0.0	100.61381196975708	
14	45.514549016952515	movie	1		301.0	12.0	2.5	/experiments/knapen_aot/videos/S_yt-w5lh_rKyKtE_21.mp4	0.0	100.62198495864868	2.508368968963623
14	48.02291798591614	fix_post	2		12.0	12.0	2.5	/experiments/knapen_aot/videos/S_yt-w5lh_rKyKtE_21.mp4	0.0	103.1303539276123	0.0999751091003418
15	48.12289309501648	fix_pre	0		111.0	13.0	2.5	blank	1.0	103.23032903671265	0.9250040054321289
15	49.039730072021484	response	0	2		13.0	2.5	blank	1.0	104.14716601371765	
15	49.04789710044861	movie	1		301.0	13.0	2.5	blank	1.0	104.15533304214478	2.5083398818969727
15	51.55623698234558	fix_post	2		12.0	13.0	2.5	blank	1.0	106.66367292404175	0.09999203681945801
16	51.65622901916504	fix_pre	0		101.0	14.0	2.5	/experiments/knapen_aot/videos/R_S_yt-UmLeGNcqouI_718.mp4	0.0	106.7636649608612	0.8429160118103027
16	52.48967409133911	response	0	2		14.0	2.5	/experiments/knapen_aot/videos/R_S_yt-UmLeGNcqouI_718.mp4	0.0	107.59711003303528	
16	52.49914503097534	movie	1		301.0	14.0	2.5	/experiments/knapen_aot/videos/R_S_yt-UmLeGNcqouI_718.mp4	0.0	107.60658097267151	2.5071089267730713
16	55.00625395774841	fix_post	2		12.0	14.0	2.5	/experiments/knapen_aot/videos/R_S_yt-UmLeGNcqouI_718.mp4	0.0	110.11368989944458	0.09994006156921387
17	55.10619401931763	fix_pre	0		117.0	15.0	2.5	/experiments/knapen_aot/videos/S_yt-VinOD6g7xEc_135.mp4	0.0	110.2136299610138	0.9762070178985596
17	56.072999000549316	response	0	2		15.0	2.5	/experiments/knapen_aot/videos/S_yt-VinOD6g7xEc_135.mp4	0.0	111.18043494224548	
17	56.08240103721619	movie	1		300.0	15.0	2.5	/experiments/knapen_aot/videos/S_yt-VinOD6g7xEc_135.mp4	0.0	111.18983697891235	2.5071699619293213
17	58.58957099914551	fix_post	2		12.0	15.0	2.5	/experiments/knapen_aot/videos/S_yt-VinOD6g7xEc_135.mp4	0.0	113.69700694084167	0.09998703002929688
18	58.689558029174805	fix_pre	0		144.0	16.0	2.5	/experiments/knapen_aot/videos/R_S_video-9.mp4	0.0	113.79699397087097	1.199936866760254
18	59.881465911865234	response	0	2		16.0	2.5	/experiments/knapen_aot/videos/R_S_video-9.mp4	0.0	114.9889018535614	
18	59.88949489593506	movie	1		198.0	16.0	2.5	/experiments/knapen_aot/videos/R_S_video-9.mp4	0.0	114.99693083763123	2.508294105529785
18	62.397789001464844	fix_post	2		12.0	16.0	2.5	/experiments/knapen_aot/videos/R_S_video-9.mp4	0.0	117.50522494316101	0.10002589225769043
19	62.497814893722534	fix_pre	0		101.0	17.0	2.5	/experiments/knapen_aot/videos/R_S_ILSVRC2015_train_00574004.mp4	0.0	117.6052508354187	0.8416709899902344
19	63.33138108253479	response	0	2		17.0	2.5	/experiments/knapen_aot/videos/R_S_ILSVRC2015_train_00574004.mp4	0.0	118.43881702423096	
19	63.33948588371277	movie	1		301.0	17.0	2.5	/experiments/knapen_aot/videos/R_S_ILSVRC2015_train_00574004.mp4	0.0	118.44692182540894	2.5083529949188232
19	65.84783887863159	fix_post	2		12.0	17.0	2.5	/experiments/knapen_aot/videos/R_S_ILSVRC2015_train_00574004.mp4	0.0	120.95527482032776	0.10001420974731445
20	65.9478530883789	fix_pre	0		105.0	18.0	2.5	/experiments/knapen_aot/videos/R_S_yt-GjFQxAklviE_25.mp4	0.0	121.05528903007507	0.8749678134918213
20	66.81459307670593	response	0	2		18.0	2.5	/experiments/knapen_aot/videos/R_S_yt-GjFQxAklviE_25.mp4	0.0	121.9220290184021	
20	66.82282090187073	movie	1		301.0	18.0	2.5	/experiments/knapen_aot/videos/R_S_yt-GjFQxAklviE_25.mp4	0.0	121.9302568435669	2.5083701610565186
20	69.33119106292725	fix_post	2		12.0	18.0	2.5	/experiments/knapen_aot/videos/R_S_yt-GjFQxAklviE_25.mp4	0.0	124.43862700462341	0.09995794296264648
21	69.43114900588989	fix_pre	0		143.0	19.0	2.5	/experiments/knapen_aot/videos/R_S_yt-GO26QIueqRw_385.mp4	0.0	124.53858494758606	1.1927800178527832
21	70.61462497711182	response	0	2		19.0	2.5	/experiments/knapen_aot/videos/R_S_yt-GO26QIueqRw_385.mp4	0.0	125.72206091880798	
21	70.62392902374268	movie	1		301.0	19.0	2.5	/experiments/knapen_aot/videos/R_S_yt-GO26QIueqRw_385.mp4	0.0	125.73136496543884	2.507232904434204
21	73.13116192817688	fix_post	2		12.0	19.0	2.5	/experiments/knapen_aot/videos/R_S_yt-GO26QIueqRw_385.mp4	0.0	128.23859786987305	0.1000370979309082
22	73.23119902610779	fix_pre	0		101.0	20.0	2.5	/experiments/knapen_aot/videos/R_S_yt-hyZEDFkh49w_196.mp4	0.0	128.33863496780396	0.8416378498077393
22	74.06462407112122	response	0	2		20.0	2.5	/experiments/knapen_aot/videos/R_S_yt-hyZEDFkh49w_196.mp4	0.0	129.17206001281738	
22	74.07283687591553	movie	1		301.0	20.0	2.5	/experiments/knapen_aot/videos/R_S_yt-hyZEDFkh49w_196.mp4	0.0	129.1802728176117	2.5083541870117188
22	76.58119106292725	fix_post	2		12.0	20.0	2.5	/experiments/knapen_aot/videos/R_S_yt-hyZEDFkh49w_196.mp4	0.0	131.6886270046234	0.10001087188720703
23	76.68120193481445	fix_pre	0		53.0	21.0	2.5	blank	1.0	131.78863787651062	0.4415910243988037
23	77.11463689804077	response	0	2		21.0	2.5	blank	1.0	132.22207283973694	
23	77.12279295921326	movie	1		301.0	21.0	2.5	blank	1.0	132.23022890090942	2.508324146270752
23	79.63111710548401	fix_post	2		12.0	21.0	2.5	blank	1.0	134.73855304718018	0.1000218391418457
24	79.73113894462585	fix_pre	0		72.0	22.0	2.5	/experiments/knapen_aot/videos/S_ILSVRC2015_train_00324002.mp4	0.0	134.83857488632202	0.601020097732544
24	80.32293009757996	response	0	2		22.0	2.5	/experiments/knapen_aot/videos/S_ILSVRC2015_train_00324002.mp4	0.0	135.43036603927612	
24	80.3321590423584	movie	1		301.0	22.0	2.5	/experiments/knapen_aot/videos/S_ILSVRC2015_train_00324002.mp4	0.0	135.43959498405457	2.5072238445281982
24	82.8393828868866	fix_post	2		12.0	22.0	2.5	/experiments/knapen_aot/videos/S_ILSVRC2015_train_00324002.mp4	0.0	137.94681882858276	0.10004901885986328
25	82.93943190574646	fix_pre	0		122.0	23.0	2.5	/experiments/knapen_aot/videos/R_S_production_ID_5182928.mp4	0.0	138.04686784744263	1.0176570415496826
25	83.94789004325867	response	0	2		23.0	2.5	/experiments/knapen_aot/videos/R_S_production_ID_5182928.mp4	0.0	139.05532598495483	
25	83.95708894729614	movie	1		172.0	23.0	2.5	/experiments/knapen_aot/videos/R_S_production_ID_5182928.mp4	0.0	139.0645248889923	2.5072951316833496
25	86.46438407897949	fix_post	2		12.0	23.0	2.5	/experiments/knapen_aot/videos/R_S_production_ID_5182928.mp4	0.0	141.57182002067566	0.10004281997680664
26	86.5644268989563	fix_pre	0		95.0	24.0	2.5	/experiments/knapen_aot/videos/S_comp_GMT329_113NC_396B_1105_CHINA_v04_SDR_FINAL_20180706_F900F2700_SDR_2K_AVC.mp4	0.0	141.67186284065247	0.7916359901428223
26	87.34778904914856	response	0	2		24.0	2.5	/experiments/knapen_aot/videos/S_comp_GMT329_113NC_396B_1105_CHINA_v04_SDR_FINAL_20180706_F900F2700_SDR_2K_AVC.mp4	0.0	142.45522499084473	
26	87.35606288909912	movie	1		165.0	24.0	2.5	/experiments/knapen_aot/videos/S_comp_GMT329_113NC_396B_1105_CHINA_v04_SDR_FINAL_20180706_F900F2700_SDR_2K_AVC.mp4	0.0	142.4634988307953	2.5083401203155518
26	89.86440300941467	fix_post	2		12.0	24.0	2.5	/experiments/knapen_aot/videos/S_comp_GMT329_113NC_396B_1105_CHINA_v04_SDR_FINAL_20180706_F900F2700_SDR_2K_AVC.mp4	0.0	144.97183895111084	0.09998893737792969
27	89.9643919467926	fix_pre	0		87.0	25.0	2.5	/experiments/knapen_aot/videos/S_yt-lADkWM79teI_18.mp4	0.0	145.07182788848877	0.7249729633331299
27	90.68123888969421	response	0	2		25.0	2.5	/experiments/knapen_aot/videos/S_yt-lADkWM79teI_18.mp4	0.0	145.78867483139038	
27	90.68936491012573	movie	1		301.0	25.0	2.5	/experiments/knapen_aot/videos/S_yt-lADkWM79teI_18.mp4	0.0	145.7968008518219	2.5083529949188232
27	93.19771790504456	fix_post	2		12.0	25.0	2.5	/experiments/knapen_aot/videos/S_yt-lADkWM79teI_18.mp4	0.0	148.30515384674072	0.0999760627746582
28	93.29769396781921	fix_pre	0		98.0	26.0	2.5	/experiments/knapen_aot/videos/S_yt-isJga8ec5UM_32.mp4	0.0	148.40512990951538	0.816601037979126
28	94.10621309280396	response	0	2		26.0	2.5	/experiments/knapen_aot/videos/S_yt-isJga8ec5UM_32.mp4	0.0	149.21364903450012	
28	94.11429500579834	movie	1		301.0	26.0	2.5	/experiments/knapen_aot/videos/S_yt-isJga8ec5UM_32.mp4	0.0	149.2217309474945	2.5083670616149902
28	96.62266206741333	fix_post	2		12.0	26.0	2.5	/experiments/knapen_aot/videos/S_yt-isJga8ec5UM_32.mp4	0.0	151.7300980091095	0.10006284713745117
29	96.72272491455078	fix_pre	0		78.0	27.0	2.5	/experiments/knapen_aot/videos/S_pexels-rodnae-productions-5617905.mp4	0.0	151.83016085624695	0.6509451866149902
29	97.36456394195557	response	0	2		27.0	2.5	/experiments/knapen_aot/videos/S_pexels-rodnae-productions-5617905.mp4	0.0	152.47199988365173	
29	97.37367010116577	movie	1		164.0	27.0	2.5	/experiments/knapen_aot/videos/S_pexels-rodnae-productions-5617905.mp4	0.0	152.48110604286194	2.5073118209838867
29	99.88098192214966	fix_post	2		12.0	27.0	2.5	/experiments/knapen_aot/videos/S_pexels-rodnae-productions-5617905.mp4	0.0	154.98841786384583	0.09999704360961914
30	99.98097896575928	fix_pre	0		150.0	28.0	2.5	blank	1.0	155.08841490745544	1.2499909400939941
30	101.222904920578	response	0	2		28.0	2.5	blank	1.0	156.33034086227417	
30	101.23096990585327	movie	1		301.0	28.0	2.5	blank	1.0	156.33840584754944	2.5084211826324463
30	103.73939108848572	fix_post	2		12.0	28.0	2.5	blank	1.0	158.84682703018188	0.09997987747192383
31	103.83937096595764	fix_pre	0		74.0	29.0	2.5	/experiments/knapen_aot/videos/S_yt-xqHrTtvFFIs_3.mp4	0.0	158.9468069076538	0.6175920963287354
31	104.44777989387512	response	0	2		29.0	2.5	/experiments/knapen_aot/videos/S_yt-xqHrTtvFFIs_3.mp4	0.0	159.5552158355713	
31	104.45696306228638	movie	1		301.0	29.0	2.5	/experiments/knapen_aot/videos/S_yt-xqHrTtvFFIs_3.mp4	0.0	159.56439900398254	2.507405996322632
31	106.96436905860901	fix_post	2		12.0	29.0	2.5	/experiments/knapen_aot/videos/S_yt-xqHrTtvFFIs_3.mp4	0.0	162.07180500030518	0.10004687309265137
32	107.06441593170166	fix_pre	0		130.0	30.0	2.5	/experiments/knapen_aot/videos/S_yt-FoO02U39gy4_398.mp4	0.0	162.17185187339783	1.083219051361084
32	108.13949298858643	response	0	2		30.0	2.5	/experiments/knapen_aot/videos/S_yt-FoO02U39gy4_398.mp4	0.0	163.2469289302826	
32	108.14763498306274	movie	1		301.0	30.0	2.5	/experiments/knapen_aot/videos/S_yt-FoO02U39gy4_398.mp4	0.0	163.2550709247589	2.5083820819854736
32	110.65601706504822	fix_post	2		12.0	30.0	2.5	/experiments/knapen_aot/videos/S_yt-FoO02U39gy4_398.mp4	0.0	165.76345300674438	0.09995198249816895
33	110.75596904754639	fix_pre	0		99.0	31.0	2.5	/experiments/knapen_aot/videos/R_S_yt-BAwvfRmE1LU_79.mp4	0.0	165.86340498924255	0.8258838653564453
33	111.57282090187073	response	0	2		31.0	2.5	/experiments/knapen_aot/videos/R_S_yt-BAwvfRmE1LU_79.mp4	0.0	166.6802568435669	
33	111.58185291290283	movie	1		301.0	31.0	2.5	/experiments/knapen_aot/videos/R_S_yt-BAwvfRmE1LU_79.mp4	0.0	166.689288854599	2.507452964782715
33	114.08930587768555	fix_post	2		12.0	31.0	2.5	/experiments/knapen_aot/videos/R_S_yt-BAwvfRmE1LU_79.mp4	0.0	169.1967418193817	0.10001921653747559
34	114.18932509422302	fix_pre	0		98.0	32.0	2.5	/experiments/knapen_aot/videos/S_yt-gaCbT4RR9Tw_191.mp4	0.0	169.2967610359192	0.8166379928588867
34	114.99777698516846	response	0	2		32.0	2.5	/experiments/knapen_aot/videos/S_yt-gaCbT4RR9Tw_191.mp4	0.0	170.10521292686462	
34	115.00596308708191	movie	1		301.0	32.0	2.5	/experiments/knapen_aot/videos/S_yt-gaCbT4RR9Tw_191.mp4	0.0	170.11339902877808	2.5083389282226562
34	117.51430201530457	fix_post	2		12.0	32.0	2.5	/experiments/knapen_aot/videos/S_yt-gaCbT4RR9Tw_191.mp4	0.0	172.62173795700073	0.09996986389160156
35	117.61427187919617	fix_pre	0		112.0	33.0	2.5	/experiments/knapen_aot/videos/S_yt-bZfmqTZ-d2k_112.mp4	0.0	172.72170782089233	0.9333591461181641
35	118.53939390182495	response	0	2		33.0	2.5	/experiments/knapen_aot/videos/S_yt-bZfmqTZ-d2k_112.mp4	0.0	173.64682984352112	
35	118.54763102531433	movie	1		301.0	33.0	2.5	/experiments/knapen_aot/videos/S_yt-bZfmqTZ-d2k_112.mp4	0.0	173.6550669670105	2.5083658695220947
35	121.05599689483643	fix_post	2		12.0	33.0	2.5	/experiments/knapen_aot/videos/S_yt-bZfmqTZ-d2k_112.mp4	0.0	176.1634328365326	0.09999299049377441
36	121.1559898853302	fix_pre	0		121.0	34.0	2.5	/experiments/knapen_aot/videos/R_S_yt-ph1AkIToO4E_46.mp4	0.0	176.26342582702637	1.0090630054473877
36	122.15608501434326	response	0	2		34.0	2.5	/experiments/knapen_aot/videos/R_S_yt-ph1AkIToO4E_46.mp4	0.0	177.26352095603943	
36	122.16505289077759	movie	1		301.0	34.0	2.5	/experiments/knapen_aot/videos/R_S_yt-ph1AkIToO4E_46.mp4	0.0	177.27248883247375	2.5075690746307373
36	124.67262196540833	fix_post	2		12.0	34.0	2.5	/experiments/knapen_aot/videos/R_S_yt-ph1AkIToO4E_46.mp4	0.0	179.7800579071045	0.09999608993530273
37	124.77261805534363	fix_pre	0		136.0	35.0	2.5	blank	1.0	179.8800539970398	1.133293867111206
37	125.89771389961243	response	0	2		35.0	2.5	blank	1.0	181.0051498413086	
37	125.90591192245483	movie	1		301.0	35.0	2.5	blank	1.0	181.013347864151	2.508315086364746
37	128.41422700881958	fix_post	2		12.0	35.0	2.5	blank	1.0	183.52166295051575	0.10008502006530762
38	128.5143120288849	fix_pre	0		68.0	36.0	2.5	/experiments/knapen_aot/videos/S_yt-BAwvfRmE1LU_79.mp4	0.0	183.62174797058105	0.5674118995666504
38	129.07272291183472	response	0	2		36.0	2.5	/experiments/knapen_aot/videos/S_yt-BAwvfRmE1LU_79.mp4	0.0	184.18015885353088	
38	129.08172392845154	movie	1		301.0	36.0	2.5	/experiments/knapen_aot/videos/S_yt-BAwvfRmE1LU_79.mp4	0.0	184.1891598701477	2.507526159286499
38	131.58925008773804	fix_post	2		11.0	36.0	2.5	/experiments/knapen_aot/videos/S_yt-BAwvfRmE1LU_79.mp4	0.0	186.6966860294342	0.09998679161071777
39	131.68923687934875	fix_pre	0		110.0	37.0	2.5	/experiments/knapen_aot/videos/R_S_yt-IX6uxR5DSKk_2.mp4	0.0	186.79667282104492	0.9166240692138672
39	132.59773206710815	response	0	2		37.0	2.5	/experiments/knapen_aot/videos/R_S_yt-IX6uxR5DSKk_2.mp4	0.0	187.70516800880432	
39	132.60586094856262	movie	1		301.0	37.0	2.5	/experiments/knapen_aot/videos/R_S_yt-IX6uxR5DSKk_2.mp4	0.0	187.7132968902588	2.5084099769592285
39	135.11427092552185	fix_post	2		12.0	37.0	2.5	/experiments/knapen_aot/videos/R_S_yt-IX6uxR5DSKk_2.mp4	0.0	190.22170686721802	0.0999300479888916
40	135.21420097351074	fix_pre	0		132.0	38.0	2.5	/experiments/knapen_aot/videos/R_S_yt-D_f3_HIXG2g_87.mp4	0.0	190.3216369152069	1.0999650955200195
40	136.3059630393982	response	0	2		38.0	2.5	/experiments/knapen_aot/videos/R_S_yt-D_f3_HIXG2g_87.mp4	0.0	191.41339898109436	
40	136.31416606903076	movie	1		301.0	38.0	2.5	/experiments/knapen_aot/videos/R_S_yt-D_f3_HIXG2g_87.mp4	0.0	191.42160201072693	2.508391857147217
40	138.82255792617798	fix_post	2		12.0	38.0	2.5	/experiments/knapen_aot/videos/R_S_yt-D_f3_HIXG2g_87.mp4	0.0	193.92999386787415	0.10002398490905762
41	138.92258191108704	fix_pre	0		105.0	39.0	2.5	/experiments/knapen_aot/videos/R_S_yt-gaCbT4RR9Tw_191.mp4	0.0	194.0300178527832	0.8749010562896729
41	139.7893660068512	response	0	2		39.0	2.5	/experiments/knapen_aot/videos/R_S_yt-gaCbT4RR9Tw_191.mp4	0.0	194.89680194854736	
41	139.7974829673767	movie	1		301.0	39.0	2.5	/experiments/knapen_aot/videos/R_S_yt-gaCbT4RR9Tw_191.mp4	0.0	194.90491890907288	2.5083301067352295
41	142.30581307411194	fix_post	2		12.0	39.0	2.5	/experiments/knapen_aot/videos/R_S_yt-gaCbT4RR9Tw_191.mp4	0.0	197.4132490158081	0.09996795654296875
42	142.4057810306549	fix_pre	0		111.0	40.0	2.5	/experiments/knapen_aot/videos/S_production_ID_4101309.mp4	0.0	197.51321697235107	0.9257838726043701
42	143.32263207435608	response	0	2		40.0	2.5	/experiments/knapen_aot/videos/S_production_ID_4101309.mp4	0.0	198.43006801605225	
42	143.33156490325928	movie	1		194.0	40.0	2.5	/experiments/knapen_aot/videos/S_production_ID_4101309.mp4	0.0	198.43900084495544	2.5075900554656982
42	145.83915495872498	fix_post	2		12.0	40.0	2.5	/experiments/knapen_aot/videos/S_production_ID_4101309.mp4	0.0	200.94659090042114	0.10000109672546387
43	145.93915605545044	fix_pre	0		104.0	41.0	2.5	/experiments/knapen_aot/videos/S_yt-wVMhACNFF-M_154.mp4	0.0	201.0465919971466	0.8665838241577148
43	146.7976429462433	response	0	2		41.0	2.5	/experiments/knapen_aot/videos/S_yt-wVMhACNFF-M_154.mp4	0.0	201.90507888793945	
43	146.80573987960815	movie	1		301.0	41.0	2.5	/experiments/knapen_aot/videos/S_yt-wVMhACNFF-M_154.mp4	0.0	201.91317582130432	2.5083351135253906
43	149.31407499313354	fix_post	2		12.0	41.0	2.5	/experiments/knapen_aot/videos/S_yt-wVMhACNFF-M_154.mp4	0.0	204.4215109348297	0.10005307197570801
44	149.41412806510925	fix_pre	0		99.0	42.0	2.5	blank	1.0	204.52156400680542	0.8251059055328369
44	150.22341895103455	response	0	2		42.0	2.5	blank	1.0	205.3308548927307	
44	150.2392339706421	movie	1		301.0	42.0	2.5	blank	1.0	205.34666991233826	2.508213996887207
44	152.7474479675293	fix_post	2		12.0	42.0	2.5	blank	1.0	207.85488390922546	0.0999760627746582
45	152.84742403030396	fix_pre	0		83.0	43.0	2.5	/experiments/knapen_aot/videos/S_yt-5fZZrdwkFx0_28.mp4	0.0	207.95485997200012	0.6924059391021729
45	153.5309329032898	response	0	2		43.0	2.5	/experiments/knapen_aot/videos/S_yt-5fZZrdwkFx0_28.mp4	0.0	208.63836884498596	
45	153.53982996940613	movie	1		300.0	43.0	2.5	/experiments/knapen_aot/videos/S_yt-5fZZrdwkFx0_28.mp4	0.0	208.6472659111023	2.5076799392700195
45	156.04750990867615	fix_post	2		12.0	43.0	2.5	/experiments/knapen_aot/videos/S_yt-5fZZrdwkFx0_28.mp4	0.0	211.15494585037231	0.09995317459106445
46	156.1474630832672	fix_pre	0		122.0	44.0	2.5	/experiments/knapen_aot/videos/S_yt-7lULOC_rSE0_747.mp4	0.0	211.25489902496338	1.017298936843872
46	157.15589904785156	response	0	2		44.0	2.5	/experiments/knapen_aot/videos/S_yt-7lULOC_rSE0_747.mp4	0.0	212.26333498954773	
46	157.16476202011108	movie	1		301.0	44.0	2.5	/experiments/knapen_aot/videos/S_yt-7lULOC_rSE0_747.mp4	0.0	212.27219796180725	2.507668972015381
46	159.67243099212646	fix_post	2		12.0	44.0	2.5	/experiments/knapen_aot/videos/S_yt-7lULOC_rSE0_747.mp4	0.0	214.77986693382263	0.10002899169921875
47	159.77245998382568	fix_pre	0		119.0	45.0	2.5	/experiments/knapen_aot/videos/R_S_yt-VTNBCfQxnsk_59.mp4	0.0	214.87989592552185	0.9915390014648438
47	160.75593495368958	response	0	2		45.0	2.5	/experiments/knapen_aot/videos/R_S_yt-VTNBCfQxnsk_59.mp4	0.0	215.86337089538574	
47	160.76399898529053	movie	1		301.0	45.0	2.5	/experiments/knapen_aot/videos/R_S_yt-VTNBCfQxnsk_59.mp4	0.0	215.8714349269867	2.508430004119873
47	163.2724289894104	fix_post	2		12.0	45.0	2.5	/experiments/knapen_aot/videos/R_S_yt-VTNBCfQxnsk_59.mp4	0.0	218.37986493110657	0.09994101524353027
48	163.37237000465393	fix_pre	0		86.0	46.0	2.5	/experiments/knapen_aot/videos/R_S_ILSVRC2015_train_00601000.mp4	0.0	218.4798059463501	0.716670036315918
48	164.08082103729248	response	0	2		46.0	2.5	/experiments/knapen_aot/videos/R_S_ILSVRC2015_train_00601000.mp4	0.0	219.18825697898865	
48	164.08904004096985	movie	1		301.0	46.0	2.5	/experiments/knapen_aot/videos/R_S_ILSVRC2015_train_00601000.mp4	0.0	219.19647598266602	2.5083558559417725
48	166.59739589691162	fix_post	2		12.0	46.0	2.5	/experiments/knapen_aot/videos/R_S_ILSVRC2015_train_00601000.mp4	0.0	221.7048318386078	0.10002517700195312
49	166.69742107391357	fix_pre	0		101.0	47.0	2.5	/experiments/knapen_aot/videos/S_yt-be7r-ha8BpA_1045.mp4	0.0	221.80485701560974	0.8422210216522217
49	167.53089499473572	response	0	2		47.0	2.5	/experiments/knapen_aot/videos/S_yt-be7r-ha8BpA_1045.mp4	0.0	222.63833093643188	
49	167.5396420955658	movie	1		301.0	47.0	2.5	/experiments/knapen_aot/videos/S_yt-be7r-ha8BpA_1045.mp4	0.0	222.64707803726196	2.507739782333374
49	170.04738187789917	fix_post	2		12.0	47.0	2.5	/experiments/knapen_aot/videos/S_yt-be7r-ha8BpA_1045.mp4	0.0	225.15481781959534	0.09994316101074219
50	170.1473250389099	fix_pre	0		89.0	48.0	2.5	blank	1.0	225.25476098060608	0.7416880130767822
50	170.88077187538147	response	0	2		48.0	2.5	blank	1.0	225.98820781707764	
50	170.8890130519867	movie	1		301.0	48.0	2.5	blank	1.0	225.99644899368286	2.508363962173462
50	173.39737701416016	fix_post	2		12.0	48.0	2.5	blank	1.0	228.50481295585632	0.09998607635498047
51	173.49736309051514	fix_pre	0		55.0	49.0	2.5	/experiments/knapen_aot/videos/R_S_G009_C003_UHD_SDR_2K_AVC.mp4	0.0	228.6047990322113	0.45887088775634766
51	173.94750595092773	response	0	2		49.0	2.5	/experiments/knapen_aot/videos/R_S_G009_C003_UHD_SDR_2K_AVC.mp4	0.0	229.0549418926239	
51	173.95623397827148	movie	1		168.0	49.0	2.5	/experiments/knapen_aot/videos/R_S_G009_C003_UHD_SDR_2K_AVC.mp4	0.0	229.06366991996765	2.5078229904174805
51	176.46405696868896	fix_post	2		12.0	49.0	2.5	/experiments/knapen_aot/videos/R_S_G009_C003_UHD_SDR_2K_AVC.mp4	0.0	231.57149291038513	0.09998011589050293
52	176.56403708457947	fix_pre	0		99.0	50.0	2.5	/experiments/knapen_aot/videos/R_S_yt-fGN7sGPy8BA_13.mp4	0.0	231.67147302627563	0.8249428272247314
52	177.38083600997925	response	0	2		50.0	2.5	/experiments/knapen_aot/videos/R_S_yt-fGN7sGPy8BA_13.mp4	0.0	232.48827195167542	
52	177.3889799118042	movie	1		299.0	50.0	2.5	/experiments/knapen_aot/videos/R_S_yt-fGN7sGPy8BA_13.mp4	0.0	232.49641585350037	2.5083770751953125
52	179.8973569869995	fix_post	2		12.0	50.0	2.5	/experiments/knapen_aot/videos/R_S_yt-fGN7sGPy8BA_13.mp4	0.0	235.00479292869568	0.10003995895385742
53	179.99739694595337	fix_pre	0		113.0	51.0	2.5	/experiments/knapen_aot/videos/R_S_yt-N1ZrWT4xyzc_85.mp4	0.0	235.10483288764954	0.9415569305419922
53	180.93084287643433	response	0	2		51.0	2.5	/experiments/knapen_aot/videos/R_S_yt-N1ZrWT4xyzc_85.mp4	0.0	236.0382788181305	
53	180.93895387649536	movie	1		301.0	51.0	2.5	/experiments/knapen_aot/videos/R_S_yt-N1ZrWT4xyzc_85.mp4	0.0	236.04638981819153	2.508345127105713
53	183.44729900360107	fix_post	2		12.0	51.0	2.5	/experiments/knapen_aot/videos/R_S_yt-N1ZrWT4xyzc_85.mp4	0.0	238.55473494529724	0.10002899169921875
54	183.5473279953003	fix_pre	0		151.0	52.0	2.5	/experiments/knapen_aot/videos/R_S_yt-CINajD_PVjQ_494.mp4	0.0	238.65476393699646	1.2583448886871338
54	184.7974889278412	response	0	2		52.0	2.5	/experiments/knapen_aot/videos/R_S_yt-CINajD_PVjQ_494.mp4	0.0	239.90492486953735	
54	184.80567288398743	movie	1		301.0	52.0	2.5	/experiments/knapen_aot/videos/R_S_yt-CINajD_PVjQ_494.mp4	0.0	239.9131088256836	2.508216142654419
54	187.31388902664185	fix_post	2		11.0	52.0	2.5	/experiments/knapen_aot/videos/R_S_yt-CINajD_PVjQ_494.mp4	0.0	242.421324968338	0.10010194778442383
55	187.41399097442627	fix_pre	0		77.0	53.0	2.5	/experiments/knapen_aot/videos/R_S_yt-3ohvpS42xug_184.mp4	0.0	242.52142691612244	0.6416680812835693
55	188.04744601249695	response	0	2		53.0	2.5	/experiments/knapen_aot/videos/R_S_yt-3ohvpS42xug_184.mp4	0.0	243.15488195419312	
55	188.05565905570984	movie	1		301.0	53.0	2.5	/experiments/knapen_aot/videos/R_S_yt-3ohvpS42xug_184.mp4	0.0	243.163094997406	2.508293867111206
55	190.56395292282104	fix_post	2		12.0	53.0	2.5	/experiments/knapen_aot/videos/R_S_yt-3ohvpS42xug_184.mp4	0.0	245.6713888645172	0.0999751091003418
56	190.6639280319214	fix_pre	0		127.0	54.0	2.5	blank	1.0	245.77136397361755	1.0583949089050293
56	191.71417498588562	response	0	2		54.0	2.5	blank	1.0	246.8216109275818	
56	191.72232294082642	movie	1		301.0	54.0	2.5	blank	1.0	246.82975888252258	2.508334159851074
56	194.2306571006775	fix_post	2		12.0	54.0	2.5	blank	1.0	249.33809304237366	0.10001897811889648
57	194.3306760787964	fix_pre	0		37.0	55.0	2.5	/experiments/knapen_aot/videos/S_production_ID_4510883.mp4	0.0	249.43811202049255	0.30829787254333496
57	194.63092589378357	response	0	2		55.0	2.5	/experiments/knapen_aot/videos/S_production_ID_4510883.mp4	0.0	249.73836183547974	
57	194.63897395133972	movie	1		164.0	55.0	2.5	/experiments/knapen_aot/videos/S_production_ID_4510883.mp4	0.0	249.7464098930359	2.5082390308380127
57	197.14721298217773	fix_post	2		12.0	55.0	2.5	/experiments/knapen_aot/videos/S_production_ID_4510883.mp4	0.0	252.2546489238739	0.10002303123474121
58	197.24723601341248	fix_pre	0		111.0	56.0	2.5	/experiments/knapen_aot/videos/R_S_yt-4ouMuGUuPHI_193.mp4	0.0	252.35467195510864	0.9249708652496338
58	198.16408705711365	response	0	2		56.0	2.5	/experiments/knapen_aot/videos/R_S_yt-4ouMuGUuPHI_193.mp4	0.0	253.27152299880981	
58	198.1722068786621	movie	1		301.0	56.0	2.5	/experiments/knapen_aot/videos/R_S_yt-4ouMuGUuPHI_193.mp4	0.0	253.27964282035828	2.508388042449951
58	200.68059492111206	fix_post	2		12.0	56.0	2.5	/experiments/knapen_aot/videos/R_S_yt-4ouMuGUuPHI_193.mp4	0.0	255.78803086280823	0.10001301765441895
59	200.78060793876648	fix_pre	0		108.0	57.0	2.5	/experiments/knapen_aot/videos/R_S_yt-RWN5qOIgqec_25.mp4	0.0	255.88804388046265	0.8999700546264648
59	201.67242193222046	response	0	2		57.0	2.5	/experiments/knapen_aot/videos/R_S_yt-RWN5qOIgqec_25.mp4	0.0	256.7798578739166	
59	201.68057799339294	movie	1		301.0	57.0	2.5	/experiments/knapen_aot/videos/R_S_yt-RWN5qOIgqec_25.mp4	0.0	256.7880139350891	2.5083370208740234
59	204.18891501426697	fix_post	2		12.0	57.0	2.5	/experiments/knapen_aot/videos/R_S_yt-RWN5qOIgqec_25.mp4	0.0	259.29635095596313	0.10001897811889648
60	204.28893399238586	fix_pre	0		127.0	58.0	2.5	/experiments/knapen_aot/videos/R_S_yt-FsylDeYfcxU_24.mp4	0.0	259.39636993408203	1.0582969188690186
60	205.33903789520264	response	0	2		58.0	2.5	/experiments/knapen_aot/videos/R_S_yt-FsylDeYfcxU_24.mp4	0.0	260.4464738368988	
60	205.34723091125488	movie	1		301.0	58.0	2.5	/experiments/knapen_aot/videos/R_S_yt-FsylDeYfcxU_24.mp4	0.0	260.45466685295105	2.5085721015930176
60	207.8558030128479	fix_post	2		12.0	58.0	2.5	/experiments/knapen_aot/videos/R_S_yt-FsylDeYfcxU_24.mp4	0.0	262.96323895454407	0.09975504875183105
61	207.95555806159973	fix_pre	0		158.0	59.0	2.5	/experiments/knapen_aot/videos/S_Pexels_Videos_278654_1.mp4	0.0	263.0629940032959	1.3166959285736084
61	209.26398587226868	response	0	2		59.0	2.5	/experiments/knapen_aot/videos/S_Pexels_Videos_278654_1.mp4	0.0	264.37142181396484	
61	209.27225399017334	movie	1		163.0	59.0	2.5	/experiments/knapen_aot/videos/S_Pexels_Videos_278654_1.mp4	0.0	264.3796899318695	2.5083470344543457
61	211.78060102462769	fix_post	2		12.0	59.0	2.5	/experiments/knapen_aot/videos/S_Pexels_Videos_278654_1.mp4	0.0	266.88803696632385	0.09996795654296875
62	211.88056898117065	fix_pre	0		91.0	60.0	2.5	/experiments/knapen_aot/videos/S_yt-Xegmd8whqBs_230.mp4	0.0	266.9880049228668	0.7583069801330566
62	212.63065004348755	response	0	2		60.0	2.5	/experiments/knapen_aot/videos/S_yt-Xegmd8whqBs_230.mp4	0.0	267.7380859851837	
62	212.6388759613037	movie	1		301.0	60.0	2.5	/experiments/knapen_aot/videos/S_yt-Xegmd8whqBs_230.mp4	0.0	267.7463119029999	2.5083580017089844
62	215.1472339630127	fix_post	2		12.0	60.0	2.5	/experiments/knapen_aot/videos/S_yt-Xegmd8whqBs_230.mp4	0.0	270.25466990470886	0.10036110877990723
63	215.2475950717926	fix_pre	0		186.0	61.0	2.5	/experiments/knapen_aot/videos/S_yt-w5lh_rKyKtE_21.mp4	0.0	270.35503101348877	1.5495879650115967
63	216.7890179157257	response	0	2		61.0	2.5	/experiments/knapen_aot/videos/S_yt-w5lh_rKyKtE_21.mp4	0.0	271.8964538574219	
63	216.7971830368042	movie	1		301.0	61.0	2.5	/experiments/knapen_aot/videos/S_yt-w5lh_rKyKtE_21.mp4	0.0	271.90461897850037	2.5083329677581787
63	219.30551600456238	fix_post	2		12.0	61.0	2.5	/experiments/knapen_aot/videos/S_yt-w5lh_rKyKtE_21.mp4	0.0	274.41295194625854	0.09993290901184082
64	219.40544891357422	fix_pre	0		123.0	62.0	2.5	blank	1.0	274.5128848552704	1.0249841213226318
64	220.42231488227844	response	0	2		62.0	2.5	blank	1.0	275.5297508239746	
64	220.43043303489685	movie	1		301.0	62.0	2.5	blank	1.0	275.537868976593	2.508419990539551
64	222.9388530254364	fix_post	2		12.0	62.0	2.5	blank	1.0	278.04628896713257	0.09995603561401367
65	223.03880906105042	fix_pre	0		57.0	63.0	2.5	/experiments/knapen_aot/videos/R_S_yt-dESxu60Cl10_24.mp4	0.0	278.1462450027466	0.4750199317932129
65	223.49803805351257	response	0	2		63.0	2.5	/experiments/knapen_aot/videos/R_S_yt-dESxu60Cl10_24.mp4	0.0	278.60547399520874	
65	223.51382899284363	movie	1		300.0	63.0	2.5	/experiments/knapen_aot/videos/R_S_yt-dESxu60Cl10_24.mp4	0.0	278.6212649345398	2.5083799362182617
65	226.0222089290619	fix_post	2		12.0	63.0	2.5	/experiments/knapen_aot/videos/R_S_yt-dESxu60Cl10_24.mp4	0.0	281.12964487075806	0.10008597373962402
66	226.1222949028015	fix_pre	0		147.0	64.0	2.5	/experiments/knapen_aot/videos/R_S_yt-3TF_RGo9cLs_541.mp4	0.0	281.2297308444977	1.2247982025146484
66	227.33899307250977	response	0	2		64.0	2.5	/experiments/knapen_aot/videos/R_S_yt-3TF_RGo9cLs_541.mp4	0.0	282.44642901420593	
66	227.34709310531616	movie	1		301.0	64.0	2.5	/experiments/knapen_aot/videos/R_S_yt-3TF_RGo9cLs_541.mp4	0.0	282.45452904701233	2.50836181640625
66	229.8554549217224	fix_post	2		12.0	64.0	2.5	/experiments/knapen_aot/videos/R_S_yt-3TF_RGo9cLs_541.mp4	0.0	284.9628908634186	0.1003561019897461
67	229.95581102371216	fix_pre	0		130.0	65.0	2.5	/experiments/knapen_aot/videos/R_S_ILSVRC2015_train_00661001.mp4	0.0	285.0632469654083	1.0832090377807617
67	231.0231819152832	response	0	2		65.0	2.5	/experiments/knapen_aot/videos/R_S_ILSVRC2015_train_00661001.mp4	0.0	286.13061785697937	
67	231.03902006149292	movie	1		301.0	65.0	2.5	/experiments/knapen_aot/videos/R_S_ILSVRC2015_train_00661001.mp4	0.0	286.1464560031891	2.5080718994140625
67	233.54709196090698	fix_post	2		12.0	65.0	2.5	/experiments/knapen_aot/videos/R_S_ILSVRC2015_train_00661001.mp4	0.0	288.65452790260315	0.10005307197570801
68	233.6471450328827	fix_pre	0		76.0	66.0	2.5	/experiments/knapen_aot/videos/R_S_yt-BCFGCganiuE_8.mp4	0.0	288.75458097457886	0.6333029270172119
68	234.27220106124878	response	0	2		66.0	2.5	/experiments/knapen_aot/videos/R_S_yt-BCFGCganiuE_8.mp4	0.0	289.37963700294495	
68	234.2804479598999	movie	1		298.0	66.0	2.5	/experiments/knapen_aot/videos/R_S_yt-BCFGCganiuE_8.mp4	0.0	289.38788390159607	2.508244037628174
68	236.78869199752808	fix_post	2		12.0	66.0	2.5	/experiments/knapen_aot/videos/R_S_yt-BCFGCganiuE_8.mp4	0.0	291.89612793922424	0.10007691383361816
69	236.8887689113617	fix_pre	0		108.0	67.0	2.5	/experiments/knapen_aot/videos/R_S_yt-fja6A_3ys_w_116.mp4	0.0	291.99620485305786	0.9001941680908203
69	237.780513048172	response	0	2		67.0	2.5	/experiments/knapen_aot/videos/R_S_yt-fja6A_3ys_w_116.mp4	0.0	292.88794898986816	
69	237.78896307945251	movie	1		301.0	67.0	2.5	/experiments/knapen_aot/videos/R_S_yt-fja6A_3ys_w_116.mp4	0.0	292.8963990211487	2.508117914199829
69	240.29708099365234	fix_post	2		12.0	67.0	2.5	/experiments/knapen_aot/videos/R_S_yt-fja6A_3ys_w_116.mp4	0.0	295.4045169353485	0.09998607635498047
70	240.39706707000732	fix_pre	0		78.0	68.0	2.5	/experiments/knapen_aot/videos/R_S_production_ID_4325516.mp4	0.0	295.5045030117035	0.6499769687652588
70	241.03881907463074	response	0	2		68.0	2.5	/experiments/knapen_aot/videos/R_S_production_ID_4325516.mp4	0.0	296.1462550163269	
70	241.04704403877258	movie	1		207.0	68.0	2.5	/experiments/knapen_aot/videos/R_S_production_ID_4325516.mp4	0.0	296.15447998046875	2.508301019668579
70	243.55534505844116	fix_post	2		12.0	68.0	2.5	/experiments/knapen_aot/videos/R_S_production_ID_4325516.mp4	0.0	298.66278100013733	0.10007786750793457
71	243.6554229259491	fix_pre	0		86.0	69.0	2.5	/experiments/knapen_aot/videos/S_yt-BQixB0mumIk_169.mp4	0.0	298.76285886764526	0.7168519496917725
71	244.36385488510132	response	0	2		69.0	2.5	/experiments/knapen_aot/videos/S_yt-BQixB0mumIk_169.mp4	0.0	299.4712908267975	
71	244.37227487564087	movie	1		301.0	69.0	2.5	/experiments/knapen_aot/videos/S_yt-BQixB0mumIk_169.mp4	0.0	299.47971081733704	2.5081231594085693
71	246.88039803504944	fix_post	2		12.0	69.0	2.5	/experiments/knapen_aot/videos/S_yt-BQixB0mumIk_169.mp4	0.0	301.9878339767456	0.09994196891784668
72	246.98034000396729	fix_pre	0		66.0	70.0	2.5	blank	1.0	302.08777594566345	0.5499870777130127
72	247.52222990989685	response	0	2		70.0	2.5	blank	1.0	302.629665851593	
72	247.5303270816803	movie	1		301.0	70.0	2.5	blank	1.0	302.63776302337646	2.508558988571167
72	250.03888607025146	fix_post	2		12.0	70.0	2.5	blank	1.0	305.14632201194763	0.0998380184173584
73	250.13872408866882	fix_pre	0		55.0	71.0	2.5	/experiments/knapen_aot/videos/R_S_yt-EuyfT0PuOoQ_91.mp4	0.0	305.246160030365	0.45830798149108887
73	250.58884501457214	response	0	2		71.0	2.5	/experiments/knapen_aot/videos/R_S_yt-EuyfT0PuOoQ_91.mp4	0.0	305.6962809562683	
73	250.5970320701599	movie	1		301.0	71.0	2.5	/experiments/knapen_aot/videos/R_S_yt-EuyfT0PuOoQ_91.mp4	0.0	305.7044680118561	2.508417844772339
73	253.10544991493225	fix_post	2		12.0	71.0	2.5	/experiments/knapen_aot/videos/R_S_yt-EuyfT0PuOoQ_91.mp4	0.0	308.2128858566284	0.10003995895385742
74	253.2054898738861	fix_pre	0		107.0	72.0	2.5	/experiments/knapen_aot/videos/S_yt-rlEPywo5BEQ_36.mp4	0.0	308.3129258155823	0.8915581703186035
74	254.0814139842987	response	0	2		72.0	2.5	/experiments/knapen_aot/videos/S_yt-rlEPywo5BEQ_36.mp4	0.0	309.1888499259949	
74	254.0970480442047	movie	1		299.0	72.0	2.5	/experiments/knapen_aot/videos/S_yt-rlEPywo5BEQ_36.mp4	0.0	309.2044839859009	2.5083298683166504
74	256.60537791252136	fix_post	2		12.0	72.0	2.5	/experiments/knapen_aot/videos/S_yt-rlEPywo5BEQ_36.mp4	0.0	311.71281385421753	0.10017514228820801
75	256.70555305480957	fix_pre	0		139.0	73.0	2.5	/experiments/knapen_aot/videos/R_S_yt-kuzdrmHa-W0_39.mp4	0.0	311.81298899650574	1.158154010772705
75	257.8554708957672	response	0	2		73.0	2.5	/experiments/knapen_aot/videos/R_S_yt-kuzdrmHa-W0_39.mp4	0.0	312.9629068374634	
75	257.8637070655823	movie	1		301.0	73.0	2.5	/experiments/knapen_aot/videos/R_S_yt-kuzdrmHa-W0_39.mp4	0.0	312.97114300727844	2.5084588527679443
75	260.3721659183502	fix_post	2		12.0	73.0	2.5	/experiments/knapen_aot/videos/R_S_yt-kuzdrmHa-W0_39.mp4	0.0	315.4796018600464	0.09987401962280273
76	260.472039937973	fix_pre	0		106.0	74.0	2.5	/experiments/knapen_aot/videos/R_S_yt-kuzdrmHa-W0_39.mp4	0.0	315.5794758796692	0.8832719326019287
76	261.3471930027008	response	0	2		74.0	2.5	/experiments/knapen_aot/videos/R_S_yt-kuzdrmHa-W0_39.mp4	0.0	316.454628944397	
76	261.35531187057495	movie	1		301.0	74.0	2.5	/experiments/knapen_aot/videos/R_S_yt-kuzdrmHa-W0_39.mp4	0.0	316.4627478122711	2.5084140300750732
76	263.86372590065	fix_post	2		12.0	74.0	2.5	/experiments/knapen_aot/videos/R_S_yt-kuzdrmHa-W0_39.mp4	0.0	318.9711618423462	0.09998416900634766
77	263.9637100696564	fix_pre	0		87.0	75.0	2.5	/experiments/knapen_aot/videos/S_yt-Pinnv3-3GFU_452.mp4	0.0	319.07114601135254	0.724949836730957
77	264.6805229187012	response	0	2		75.0	2.5	/experiments/knapen_aot/videos/S_yt-Pinnv3-3GFU_452.mp4	0.0	319.78795886039734	
77	264.68865990638733	movie	1		301.0	75.0	2.5	/experiments/knapen_aot/videos/S_yt-Pinnv3-3GFU_452.mp4	0.0	319.7960958480835	2.508291006088257
77	267.1969509124756	fix_post	2		12.0	75.0	2.5	/experiments/knapen_aot/videos/S_yt-Pinnv3-3GFU_452.mp4	0.0	322.30438685417175	0.09997797012329102
78	267.2969288825989	fix_pre	0		110.0	76.0	2.5	/experiments/knapen_aot/videos/S_yt-BAwvfRmE1LU_79.mp4	0.0	322.40436482429504	0.9167170524597168
78	268.19801592826843	response	0	2		76.0	2.5	/experiments/knapen_aot/videos/S_yt-BAwvfRmE1LU_79.mp4	0.0	323.3054518699646	
78	268.2136459350586	movie	1		301.0	76.0	2.5	/experiments/knapen_aot/videos/S_yt-BAwvfRmE1LU_79.mp4	0.0	323.32108187675476	2.5083179473876953
78	270.7219638824463	fix_post	2		12.0	76.0	2.5	/experiments/knapen_aot/videos/S_yt-BAwvfRmE1LU_79.mp4	0.0	325.82939982414246	0.09999203681945801
79	270.82195591926575	fix_pre	0		117.0	77.0	2.5	blank	1.0	325.9293918609619	0.9749271869659424
79	271.7887930870056	response	0	2		77.0	2.5	blank	1.0	326.8962290287018	
79	271.7968831062317	movie	1		301.0	77.0	2.5	blank	1.0	326.90431904792786	2.5084218978881836
79	274.3053050041199	fix_post	2		12.0	77.0	2.5	blank	1.0	329.41274094581604	0.10000491142272949
80	274.4053099155426	fix_pre	0		44.0	78.0	2.5	/experiments/knapen_aot/videos/R_S_yt-RlHmMGUjT9E_130.mp4	0.0	329.51274585723877	0.36663317680358887
80	274.76372599601746	response	0	2		78.0	2.5	/experiments/knapen_aot/videos/R_S_yt-RlHmMGUjT9E_130.mp4	0.0	329.8711619377136	
80	274.7719430923462	movie	1		299.0	78.0	2.5	/experiments/knapen_aot/videos/R_S_yt-RlHmMGUjT9E_130.mp4	0.0	329.87937903404236	2.508286952972412
80	277.2802300453186	fix_post	2		12.0	78.0	2.5	/experiments/knapen_aot/videos/R_S_yt-RlHmMGUjT9E_130.mp4	0.0	332.38766598701477	0.10010504722595215
81	277.38033509254456	fix_pre	0		88.0	79.0	2.5	/experiments/knapen_aot/videos/R_S_yt-FzMLLmcD1mE_19.mp4	0.0	332.4877710342407	0.7332777976989746
81	278.105416059494	response	0	2		79.0	2.5	/experiments/knapen_aot/videos/R_S_yt-FzMLLmcD1mE_19.mp4	0.0	333.2128520011902	
81	278.11361289024353	movie	1		301.0	79.0	2.5	/experiments/knapen_aot/videos/R_S_yt-FzMLLmcD1mE_19.mp4	0.0	333.2210488319397	2.5084609985351562
81	280.6220738887787	fix_post	2		12.0	79.0	2.5	/experiments/knapen_aot/videos/R_S_yt-FzMLLmcD1mE_19.mp4	0.0	335.72950983047485	0.09986114501953125
82	280.7219350337982	fix_pre	0		34.0	80.0	2.5	/experiments/knapen_aot/videos/S_G010_C026_UHD_SDR_v02_2K_AVC.mp4	0.0	335.8293709754944	0.2833058834075928
82	280.9970660209656	response	0	2		80.0	2.5	/experiments/knapen_aot/videos/S_G010_C026_UHD_SDR_v02_2K_AVC.mp4	0.0	336.10450196266174	
82	281.0052409172058	movie	1		170.0	80.0	2.5	/experiments/knapen_aot/videos/S_G010_C026_UHD_SDR_v02_2K_AVC.mp4	0.0	336.112676858902	2.508305072784424
82	283.51354598999023	fix_post	2		12.0	80.0	2.5	/experiments/knapen_aot/videos/S_G010_C026_UHD_SDR_v02_2K_AVC.mp4	0.0	338.6209819316864	0.1000509262084961
83	283.61359691619873	fix_pre	0		86.0	81.0	2.5	/experiments/knapen_aot/videos/S_yt-CINajD_PVjQ_494.mp4	0.0	338.7210328578949	0.7166421413421631
83	284.32202100753784	response	0	2		81.0	2.5	/experiments/knapen_aot/videos/S_yt-CINajD_PVjQ_494.mp4	0.0	339.429456949234	
83	284.3302390575409	movie	1		301.0	81.0	2.5	/experiments/knapen_aot/videos/S_yt-CINajD_PVjQ_494.mp4	0.0	339.43767499923706	2.5083248615264893
83	286.8385639190674	fix_post	2		12.0	81.0	2.5	/experiments/knapen_aot/videos/S_yt-CINajD_PVjQ_494.mp4	0.0	341.94599986076355	0.09999513626098633
84	286.93855905532837	fix_pre	0		91.0	82.0	2.5	/experiments/knapen_aot/videos/S_yt-_6j2NXrB-zE_28.mp4	0.0	342.04599499702454	0.7596850395202637
84	287.6886959075928	response	0	2		82.0	2.5	/experiments/knapen_aot/videos/S_yt-_6j2NXrB-zE_28.mp4	0.0	342.79613184928894	
84	287.69824409484863	movie	1		301.0	82.0	2.5	/experiments/knapen_aot/videos/S_yt-_6j2NXrB-zE_28.mp4	0.0	342.8056800365448	2.506941795349121
84	290.20518589019775	fix_post	2		12.0	82.0	2.5	/experiments/knapen_aot/videos/S_yt-_6j2NXrB-zE_28.mp4	0.0	345.3126218318939	0.09996199607849121
85	290.30514788627625	fix_pre	0		64.0	83.0	2.5	blank	1.0	345.4125838279724	0.5333130359649658
85	290.82279109954834	response	0	2		83.0	2.5	blank	1.0	345.9302270412445	
85	290.8384609222412	movie	1		301.0	83.0	2.5	blank	1.0	345.9458968639374	2.508380174636841
85	293.34684109687805	fix_post	2		12.0	83.0	2.5	blank	1.0	348.4542770385742	0.10000300407409668
87	293.44684410095215	stim	0		76.0					348.5542800426483	0.6333448886871338
87	294.06888794898987	response	0	space						349.17632389068604	
