trial_nr	onset	event_type	phase	response	nr_frames	movie_index	movie_duration	movie_file	blank	onset_abs	duration
0	0.13336491584777832	stim	0		46.0					239.2485499382019	0.38478612899780273
0	0.5086789131164551	response	0	space						239.62386393547058	
1	0.518151044845581	stim	0		121.0					239.6333360671997	1.0070209503173828
1	1.5251719951629639	stim	1		120.0					240.6403570175171	0.999622106552124
1	2.1997439861297607	response	1	space						241.3149290084839	
2	2.524794101715088	fix_pre	0		98.0	0.0	2.5	/experiments/knapen_aot/videos/R_S_yt-_6j2NXrB-zE_28.mp4	0.0	241.6399791240692	0.8164007663726807
2	3.3330140113830566	response	0	space		0.0	2.5	/experiments/knapen_aot/videos/R_S_yt-_6j2NXrB-zE_28.mp4	0.0	242.44819903373718	
2	3.3411948680877686	movie	1		300.0	0.0	2.5	/experiments/knapen_aot/videos/R_S_yt-_6j2NXrB-zE_28.mp4	0.0	242.4563798904419	2.508355140686035
2	5.849550008773804	fix_post	2		12.0	0.0	2.5	/experiments/knapen_aot/videos/R_S_yt-_6j2NXrB-zE_28.mp4	0.0	244.96473503112793	0.1001579761505127
3	5.949707984924316	fix_pre	0		184.0	1.0	2.5	/experiments/knapen_aot/videos/R_S_yt-35i8UeYXjGw_47.mp4	0.0	245.06489300727844	1.5333890914916992
3	7.477789878845215	response	0	2		1.0	2.5	/experiments/knapen_aot/videos/R_S_yt-35i8UeYXjGw_47.mp4	0.0	246.59297490119934	
3	7.483097076416016	movie	1		297.0	1.0	2.5	/experiments/knapen_aot/videos/R_S_yt-35i8UeYXjGw_47.mp4	0.0	246.59828209877014	2.5081558227539062
3	9.991252899169922	fix_post	2		12.0	1.0	2.5	/experiments/knapen_aot/videos/R_S_yt-35i8UeYXjGw_47.mp4	0.0	249.10643792152405	0.0999610424041748
4	10.091213941574097	fix_pre	0		58.0	2.0	2.5	/experiments/knapen_aot/videos/R_S_yt-IC62JSYpq9w_71.mp4	0.0	249.20639896392822	0.48335909843444824
4	10.566329956054688	response	0	2		2.0	2.5	/experiments/knapen_aot/videos/R_S_yt-IC62JSYpq9w_71.mp4	0.0	249.6815149784088	
4	10.574573040008545	movie	1		301.0	2.0	2.5	/experiments/knapen_aot/videos/R_S_yt-IC62JSYpq9w_71.mp4	0.0	249.68975806236267	2.508302927017212
4	13.082875967025757	fix_post	2		12.0	2.0	2.5	/experiments/knapen_aot/videos/R_S_yt-IC62JSYpq9w_71.mp4	0.0	252.19806098937988	0.10002708435058594
5	13.182903051376343	fix_pre	0		40.0	3.0	2.5	/experiments/knapen_aot/videos/R_S_WCwb-DeQOSg_85.mp4	0.0	252.29808807373047	0.33324098587036133
5	13.50796890258789	response	0	2		3.0	2.5	/experiments/knapen_aot/videos/R_S_WCwb-DeQOSg_85.mp4	0.0	252.62315392494202	
5	13.516144037246704	movie	1		301.0	3.0	2.5	/experiments/knapen_aot/videos/R_S_WCwb-DeQOSg_85.mp4	0.0	252.63132905960083	2.508646011352539
5	16.024790048599243	fix_post	2		12.0	3.0	2.5	/experiments/knapen_aot/videos/R_S_WCwb-DeQOSg_85.mp4	0.0	255.13997507095337	0.09981083869934082
6	16.124600887298584	fix_pre	0		34.0	4.0	2.5	/experiments/knapen_aot/videos/S_yt-8N5UuN5WQcY_72.mp4	0.0	255.2397859096527	0.2832520008087158
6	16.399713039398193	response	0	2		4.0	2.5	/experiments/knapen_aot/videos/S_yt-8N5UuN5WQcY_72.mp4	0.0	255.51489806175232	
6	16.4078528881073	movie	1		301.0	4.0	2.5	/experiments/knapen_aot/videos/S_yt-8N5UuN5WQcY_72.mp4	0.0	255.52303791046143	2.5083141326904297
6	18.91616702079773	fix_post	2		12.0	4.0	2.5	/experiments/knapen_aot/videos/S_yt-8N5UuN5WQcY_72.mp4	0.0	258.03135204315186	0.09991192817687988
7	19.01607894897461	fix_pre	0		449.0	5.0	2.5	/experiments/knapen_aot/videos/S_yt-r7brAHgxZSU_248.mp4	0.0	258.13126397132874	3.741713047027588
7	22.749522924423218	response	0	2		5.0	2.5	/experiments/knapen_aot/videos/S_yt-r7brAHgxZSU_248.mp4	0.0	261.86470794677734	
7	22.757791996002197	movie	1		297.0	5.0	2.5	/experiments/knapen_aot/videos/S_yt-r7brAHgxZSU_248.mp4	0.0	261.8729770183563	2.508415937423706
7	25.266207933425903	fix_post	2		12.0	5.0	2.5	/experiments/knapen_aot/videos/S_yt-r7brAHgxZSU_248.mp4	0.0	264.38139295578003	0.09993600845336914
8	25.366143941879272	fix_pre	0		26.0	6.0	2.5	blank	1.0	264.4813289642334	0.2166450023651123
8	25.574562072753906	response	0	2		6.0	2.5	blank	1.0	264.68974709510803	
8	25.582788944244385	movie	1		301.0	6.0	2.5	blank	1.0	264.6979739665985	2.508366107940674
8	27.23292088508606	response	1	2		6.0	2.5	blank	1.0	266.3481059074402	
8	28.09115505218506	fix_post	2		12.0	6.0	2.5	blank	1.0	267.2063400745392	0.10004091262817383
9	28.191195964813232	fix_pre	0		27.0	7.0	2.5	/experiments/knapen_aot/videos/R_S_yt-ZYrQIw9VUok_111.mp4	0.0	267.30638098716736	0.2249159812927246
9	28.407912015914917	response	0	2		7.0	2.5	/experiments/knapen_aot/videos/R_S_yt-ZYrQIw9VUok_111.mp4	0.0	267.52309703826904	
9	28.416111946105957	movie	1		301.0	7.0	2.5	/experiments/knapen_aot/videos/R_S_yt-ZYrQIw9VUok_111.mp4	0.0	267.5312969684601	2.508368968963623
9	30.92448091506958	fix_post	2		12.0	7.0	2.5	/experiments/knapen_aot/videos/R_S_yt-ZYrQIw9VUok_111.mp4	0.0	270.0396659374237	0.10005497932434082
10	31.02453589439392	fix_pre	0		32.0	8.0	2.5	/experiments/knapen_aot/videos/R_S_ILSVRC2015_train_00042003.mp4	0.0	270.13972091674805	0.26664113998413086
10	31.28301191329956	response	0	2		8.0	2.5	/experiments/knapen_aot/videos/R_S_ILSVRC2015_train_00042003.mp4	0.0	270.3981969356537	
10	31.29117703437805	movie	1		301.0	8.0	2.5	/experiments/knapen_aot/videos/R_S_ILSVRC2015_train_00042003.mp4	0.0	270.4063620567322	2.5083048343658447
10	33.7994818687439	fix_post	2		12.0	8.0	2.5	/experiments/knapen_aot/videos/R_S_ILSVRC2015_train_00042003.mp4	0.0	272.914666891098	0.10010218620300293
11	33.8995840549469	fix_pre	0		113.0	9.0	2.5	/experiments/knapen_aot/videos/R_S_ILSVRC2015_train_00547001.mp4	0.0	273.014769077301	0.9415018558502197
11	34.825356006622314	response	0	2		9.0	2.5	/experiments/knapen_aot/videos/R_S_ILSVRC2015_train_00547001.mp4	0.0	273.94054102897644	
11	34.84108591079712	movie	1		301.0	9.0	2.5	/experiments/knapen_aot/videos/R_S_ILSVRC2015_train_00547001.mp4	0.0	273.95627093315125	2.5083580017089844
11	37.3494439125061	fix_post	2		12.0	9.0	2.5	/experiments/knapen_aot/videos/R_S_ILSVRC2015_train_00547001.mp4	0.0	276.46462893486023	0.10003900527954102
12	37.449482917785645	fix_pre	0		222.0	10.0	2.5	/experiments/knapen_aot/videos/S_ILSVRC2015_train_00185002.mp4	0.0	276.56466794013977	1.8498921394348145
12	39.291264057159424	response	0	2		10.0	2.5	/experiments/knapen_aot/videos/S_ILSVRC2015_train_00185002.mp4	0.0	278.40644907951355	
12	39.29937505722046	movie	1		301.0	10.0	2.5	/experiments/knapen_aot/videos/S_ILSVRC2015_train_00185002.mp4	0.0	278.4145600795746	2.5084149837493896
12	41.80779004096985	fix_post	2		12.0	10.0	2.5	/experiments/knapen_aot/videos/S_ILSVRC2015_train_00185002.mp4	0.0	280.922975063324	0.0999908447265625
13	41.90778088569641	fix_pre	0		155.0	11.0	2.5	/experiments/knapen_aot/videos/S_pexels-mikhail-nilov-8410088.mp4	0.0	281.02296590805054	1.2916409969329834
13	43.19123888015747	response	0	2		11.0	2.5	/experiments/knapen_aot/videos/S_pexels-mikhail-nilov-8410088.mp4	0.0	282.3064239025116	
13	43.199421882629395	movie	1		162.0	11.0	2.5	/experiments/knapen_aot/videos/S_pexels-mikhail-nilov-8410088.mp4	0.0	282.3146069049835	2.5083320140838623
13	45.70775389671326	fix_post	2		12.0	11.0	2.5	/experiments/knapen_aot/videos/S_pexels-mikhail-nilov-8410088.mp4	0.0	284.8229389190674	0.09997105598449707
14	45.807724952697754	fix_pre	0		38.0	12.0	2.5	blank	1.0	284.9229099750519	0.3166160583496094
14	46.11617994308472	response	0	2		12.0	2.5	blank	1.0	285.23136496543884	
14	46.12434101104736	movie	1		301.0	12.0	2.5	blank	1.0	285.2395260334015	2.508394956588745
14	48.63273596763611	fix_post	2		12.0	12.0	2.5	blank	1.0	287.74792098999023	0.09995603561401367
15	48.73269200325012	fix_pre	0		106.0	13.0	2.5	/experiments/knapen_aot/videos/S_yt-82O1uT8dmv8_12.mp4	0.0	287.84787702560425	0.8833298683166504
15	49.6079158782959	response	0	2		13.0	2.5	/experiments/knapen_aot/videos/S_yt-82O1uT8dmv8_12.mp4	0.0	288.72310090065	
15	49.61602187156677	movie	1		300.0	13.0	2.5	/experiments/knapen_aot/videos/S_yt-82O1uT8dmv8_12.mp4	0.0	288.7312068939209	2.508378028869629
15	52.1243999004364	fix_post	2		12.0	13.0	2.5	/experiments/knapen_aot/videos/S_yt-82O1uT8dmv8_12.mp4	0.0	291.2395849227905	0.10009217262268066
16	52.22449207305908	fix_pre	0		35.0	14.0	2.5	/experiments/knapen_aot/videos/R_S_wc-oyG6AjP_W2EL_15.mp4	0.0	291.3396770954132	0.2915358543395996
16	52.507834911346436	response	0	2		14.0	2.5	/experiments/knapen_aot/videos/R_S_wc-oyG6AjP_W2EL_15.mp4	0.0	291.62301993370056	
16	52.51602792739868	movie	1		298.0	14.0	2.5	/experiments/knapen_aot/videos/R_S_wc-oyG6AjP_W2EL_15.mp4	0.0	291.6312129497528	2.5083351135253906
16	55.02436304092407	fix_post	2		12.0	14.0	2.5	/experiments/knapen_aot/videos/R_S_wc-oyG6AjP_W2EL_15.mp4	0.0	294.1395480632782	0.09988999366760254
17	55.124253034591675	fix_pre	0		204.0	15.0	2.5	/experiments/knapen_aot/videos/S_yt-hDYtYKUsVE4_120.mp4	0.0	294.2394380569458	1.700049877166748
17	56.81618690490723	response	0	2		15.0	2.5	/experiments/knapen_aot/videos/S_yt-hDYtYKUsVE4_120.mp4	0.0	295.93137192726135	
17	56.82430291175842	movie	1		301.0	15.0	2.5	/experiments/knapen_aot/videos/S_yt-hDYtYKUsVE4_120.mp4	0.0	295.93948793411255	2.5085439682006836
17	59.332846879959106	fix_post	2		12.0	15.0	2.5	/experiments/knapen_aot/videos/S_yt-hDYtYKUsVE4_120.mp4	0.0	298.44803190231323	0.09987521171569824
18	59.432722091674805	fix_pre	0		40.0	16.0	2.5	/experiments/knapen_aot/videos/R_S_ILSVRC2015_train_00373001.mp4	0.0	298.54790711402893	0.3332819938659668
18	59.75781798362732	response	0	2		16.0	2.5	/experiments/knapen_aot/videos/R_S_ILSVRC2015_train_00373001.mp4	0.0	298.87300300598145	
18	59.76600408554077	movie	1		299.0	16.0	2.5	/experiments/knapen_aot/videos/R_S_ILSVRC2015_train_00373001.mp4	0.0	298.8811891078949	2.508356809616089
18	62.27436089515686	fix_post	2		12.0	16.0	2.5	/experiments/knapen_aot/videos/R_S_ILSVRC2015_train_00373001.mp4	0.0	301.389545917511	0.09995603561401367
19	62.374316930770874	fix_pre	0		171.0	17.0	2.5	/experiments/knapen_aot/videos/R_S_yt-8y7Xhp2_2e0_168.mp4	0.0	301.489501953125	1.4249701499938965
19	63.79105806350708	response	0	2		17.0	2.5	/experiments/knapen_aot/videos/R_S_yt-8y7Xhp2_2e0_168.mp4	0.0	302.9062430858612	
19	63.79928708076477	movie	1		301.0	17.0	2.5	/experiments/knapen_aot/videos/R_S_yt-8y7Xhp2_2e0_168.mp4	0.0	302.9144721031189	2.5083749294281006
19	66.30766201019287	fix_post	2		12.0	17.0	2.5	/experiments/knapen_aot/videos/R_S_yt-8y7Xhp2_2e0_168.mp4	0.0	305.422847032547	0.10005998611450195
20	66.40772199630737	fix_pre	0		35.0	18.0	2.5	/experiments/knapen_aot/videos/R_S_yt-146gReE6xKw_379.mp4	0.0	305.5229070186615	0.2915520668029785
20	66.69112586975098	response	0	2		18.0	2.5	/experiments/knapen_aot/videos/R_S_yt-146gReE6xKw_379.mp4	0.0	305.8063108921051	
20	66.69927406311035	movie	1		301.0	18.0	2.5	/experiments/knapen_aot/videos/R_S_yt-146gReE6xKw_379.mp4	0.0	305.8144590854645	2.5083799362182617
20	69.20765399932861	fix_post	2		12.0	18.0	2.5	/experiments/knapen_aot/videos/R_S_yt-146gReE6xKw_379.mp4	0.0	308.32283902168274	0.09993290901184082
21	69.30758690834045	fix_pre	0		29.0	19.0	2.5	blank	1.0	308.4227719306946	0.2416529655456543
21	69.5411159992218	response	0	2		19.0	2.5	blank	1.0	308.6563010215759	
21	69.54923987388611	movie	1		301.0	19.0	2.5	blank	1.0	308.66442489624023	2.5084221363067627
21	72.05766201019287	fix_post	2		12.0	19.0	2.5	blank	1.0	311.172847032547	0.09995007514953613
22	72.15761208534241	fix_pre	0		125.0	20.0	2.5	/experiments/knapen_aot/videos/S_yt-iO0efV_PV-k_102.mp4	0.0	311.27279710769653	1.0416579246520996
22	73.1911289691925	response	0	2		20.0	2.5	/experiments/knapen_aot/videos/S_yt-iO0efV_PV-k_102.mp4	0.0	312.30631399154663	
22	73.1992700099945	movie	1		301.0	20.0	2.5	/experiments/knapen_aot/videos/S_yt-iO0efV_PV-k_102.mp4	0.0	312.31445503234863	2.5083470344543457
22	75.70761704444885	fix_post	2		12.0	20.0	2.5	/experiments/knapen_aot/videos/S_yt-iO0efV_PV-k_102.mp4	0.0	314.822802066803	0.10026693344116211
23	75.80788397789001	fix_pre	0		166.0	21.0	2.5	/experiments/knapen_aot/videos/R_S_yt-ikhlUegH24c_552.mp4	0.0	314.92306900024414	1.3830389976501465
23	77.18273401260376	response	0	2		21.0	2.5	/experiments/knapen_aot/videos/R_S_yt-ikhlUegH24c_552.mp4	0.0	316.2979190349579	
23	77.19092297554016	movie	1		301.0	21.0	2.5	/experiments/knapen_aot/videos/R_S_yt-ikhlUegH24c_552.mp4	0.0	316.3061079978943	2.5082919597625732
23	79.69921493530273	fix_post	2		12.0	21.0	2.5	/experiments/knapen_aot/videos/R_S_yt-ikhlUegH24c_552.mp4	0.0	318.81439995765686	0.10001516342163086
24	79.79923009872437	fix_pre	0		222.0	22.0	2.5	/experiments/knapen_aot/videos/R_S_yt-4x2eUikn9rw_212.mp4	0.0	318.9144151210785	1.84999680519104
24	81.64107608795166	response	0	2		22.0	2.5	/experiments/knapen_aot/videos/R_S_yt-4x2eUikn9rw_212.mp4	0.0	320.7562611103058	
24	81.6492269039154	movie	1		301.0	22.0	2.5	/experiments/knapen_aot/videos/R_S_yt-4x2eUikn9rw_212.mp4	0.0	320.76441192626953	2.508345127105713
24	84.15757203102112	fix_post	2		12.0	22.0	2.5	/experiments/knapen_aot/videos/R_S_yt-4x2eUikn9rw_212.mp4	0.0	323.27275705337524	0.10002493858337402
25	84.25759696960449	fix_pre	0		69.0	23.0	2.5	/experiments/knapen_aot/videos/R_S_ILSVRC2015_train_00654000.mp4	0.0	323.3727819919586	0.5749650001525879
25	84.82438206672668	response	0	2		23.0	2.5	/experiments/knapen_aot/videos/R_S_ILSVRC2015_train_00654000.mp4	0.0	323.9395670890808	
25	84.83256196975708	movie	1		299.0	23.0	2.5	/experiments/knapen_aot/videos/R_S_ILSVRC2015_train_00654000.mp4	0.0	323.9477469921112	2.5084049701690674
25	87.34096693992615	fix_post	2		12.0	23.0	2.5	/experiments/knapen_aot/videos/R_S_ILSVRC2015_train_00654000.mp4	0.0	326.4561519622803	0.09990096092224121
26	87.44086790084839	fix_pre	0		278.0	24.0	2.5	/experiments/knapen_aot/videos/R_S_ILSVRC2015_train_00441000.mp4	0.0	326.5560529232025	2.3166329860687256
26	89.74934196472168	response	0	2		24.0	2.5	/experiments/knapen_aot/videos/R_S_ILSVRC2015_train_00441000.mp4	0.0	328.8645269870758	
26	89.75750088691711	movie	1		301.0	24.0	2.5	/experiments/knapen_aot/videos/R_S_ILSVRC2015_train_00441000.mp4	0.0	328.87268590927124	2.50829815864563
26	92.26579904556274	fix_post	2		12.0	24.0	2.5	/experiments/knapen_aot/videos/R_S_ILSVRC2015_train_00441000.mp4	0.0	331.38098406791687	0.1001279354095459
27	92.36592698097229	fix_pre	0		45.0	25.0	2.5	/experiments/knapen_aot/videos/R_S_pexels-anastasia-shuraeva-601407_2.mp4	0.0	331.4811120033264	0.37484312057495117
27	92.73266005516052	response	0	2		25.0	2.5	/experiments/knapen_aot/videos/R_S_pexels-anastasia-shuraeva-601407_2.mp4	0.0	331.84784507751465	
27	92.74077010154724	movie	1		190.0	25.0	2.5	/experiments/knapen_aot/videos/R_S_pexels-anastasia-shuraeva-601407_2.mp4	0.0	331.85595512390137	2.5083799362182617
27	95.2491500377655	fix_post	2		12.0	25.0	2.5	/experiments/knapen_aot/videos/R_S_pexels-anastasia-shuraeva-601407_2.mp4	0.0	334.36433506011963	0.10125994682312012
28	95.35040998458862	fix_pre	0		27.0	26.0	2.5	/experiments/knapen_aot/videos/S_yt-be7r-ha8BpA_1045.mp4	0.0	334.46559500694275	0.223768949508667
28	95.56592392921448	response	0	2		26.0	2.5	/experiments/knapen_aot/videos/S_yt-be7r-ha8BpA_1045.mp4	0.0	334.6811089515686	
28	95.57417893409729	movie	1		301.0	26.0	2.5	/experiments/knapen_aot/videos/S_yt-be7r-ha8BpA_1045.mp4	0.0	334.6893639564514	2.508307933807373
28	98.08248686790466	fix_post	2		12.0	26.0	2.5	/experiments/knapen_aot/videos/S_yt-be7r-ha8BpA_1045.mp4	0.0	337.1976718902588	0.10003018379211426
29	98.18251705169678	fix_pre	0		322.0	27.0	2.5	blank	1.0	337.2977020740509	2.683234930038452
29	100.85762190818787	response	0	2		27.0	2.5	blank	1.0	339.972806930542	
29	100.86575198173523	movie	1		301.0	27.0	2.5	blank	1.0	339.98093700408936	2.5083630084991455
29	103.37411499023438	fix_post	2		12.0	27.0	2.5	blank	1.0	342.4893000125885	0.1012730598449707
30	103.47538805007935	fix_pre	0		42.0	28.0	2.5	/experiments/knapen_aot/videos/S_yt-_6j2NXrB-zE_28.mp4	0.0	342.5905730724335	0.3487379550933838
30	103.81600689888	response	0	2		28.0	2.5	/experiments/knapen_aot/videos/S_yt-_6j2NXrB-zE_28.mp4	0.0	342.93119192123413	
30	103.82412600517273	movie	1		301.0	28.0	2.5	/experiments/knapen_aot/videos/S_yt-_6j2NXrB-zE_28.mp4	0.0	342.93931102752686	2.5083699226379395
30	106.33249592781067	fix_post	2		12.0	28.0	2.5	/experiments/knapen_aot/videos/S_yt-_6j2NXrB-zE_28.mp4	0.0	345.4476809501648	0.10000109672546387
31	106.43249702453613	fix_pre	0		146.0	29.0	2.5	/experiments/knapen_aot/videos/R_S_yt-BQixB0mumIk_169.mp4	0.0	345.54768204689026	1.216609001159668
31	107.64088892936707	response	0	2		29.0	2.5	/experiments/knapen_aot/videos/R_S_yt-BQixB0mumIk_169.mp4	0.0	346.7560739517212	
31	107.6491060256958	movie	1		301.0	29.0	2.5	/experiments/knapen_aot/videos/R_S_yt-BQixB0mumIk_169.mp4	0.0	346.7642910480499	2.5083980560302734
31	110.15750408172607	fix_post	2		12.0	29.0	2.5	/experiments/knapen_aot/videos/R_S_yt-BQixB0mumIk_169.mp4	0.0	349.2726891040802	0.09996390342712402
32	110.2574679851532	fix_pre	0		44.0	30.0	2.5	/experiments/knapen_aot/videos/R_S_video-11.mp4	0.0	349.3726530075073	0.36660289764404297
32	110.61589288711548	response	0	2		30.0	2.5	/experiments/knapen_aot/videos/R_S_video-11.mp4	0.0	349.7310779094696	
32	110.62407088279724	movie	1		178.0	30.0	2.5	/experiments/knapen_aot/videos/R_S_video-11.mp4	0.0	349.73925590515137	2.5084102153778076
32	113.13248109817505	fix_post	2		12.0	30.0	2.5	/experiments/knapen_aot/videos/R_S_video-11.mp4	0.0	352.2476661205292	0.10003900527954102
33	113.23252010345459	fix_pre	0		169.0	31.0	2.5	/experiments/knapen_aot/videos/S_yt-DmlSN7mzczI_62.mp4	0.0	352.3477051258087	1.409329891204834
33	114.6249930858612	response	0	2		31.0	2.5	/experiments/knapen_aot/videos/S_yt-DmlSN7mzczI_62.mp4	0.0	353.74017810821533	
33	114.64184999465942	movie	1		301.0	31.0	2.5	/experiments/knapen_aot/videos/S_yt-DmlSN7mzczI_62.mp4	0.0	353.75703501701355	2.507288932800293
33	117.14913892745972	fix_post	2		12.0	31.0	2.5	/experiments/knapen_aot/videos/S_yt-DmlSN7mzczI_62.mp4	0.0	356.26432394981384	0.10001897811889648
34	117.24915790557861	fix_pre	0		180.0	32.0	2.5	/experiments/knapen_aot/videos/S_yt-BQixB0mumIk_169.mp4	0.0	356.36434292793274	1.4999561309814453
34	118.74107098579407	response	0	2		32.0	2.5	/experiments/knapen_aot/videos/S_yt-BQixB0mumIk_169.mp4	0.0	357.8562560081482	
34	118.74911403656006	movie	1		300.0	32.0	2.5	/experiments/knapen_aot/videos/S_yt-BQixB0mumIk_169.mp4	0.0	357.8642990589142	2.5084290504455566
34	121.25754308700562	fix_post	2		12.0	32.0	2.5	/experiments/knapen_aot/videos/S_yt-BQixB0mumIk_169.mp4	0.0	360.37272810935974	0.09988999366760254
35	121.35743308067322	fix_pre	0		67.0	33.0	2.5	/experiments/knapen_aot/videos/R_S_ILSVRC2015_train_00654000.mp4	0.0	360.47261810302734	0.5583009719848633
35	121.90754508972168	response	0	2		33.0	2.5	/experiments/knapen_aot/videos/R_S_ILSVRC2015_train_00654000.mp4	0.0	361.0227301120758	
35	121.91573405265808	movie	1		301.0	33.0	2.5	/experiments/knapen_aot/videos/R_S_ILSVRC2015_train_00654000.mp4	0.0	361.0309190750122	2.508358955383301
35	124.42409300804138	fix_post	2		12.0	33.0	2.5	/experiments/knapen_aot/videos/R_S_ILSVRC2015_train_00654000.mp4	0.0	363.5392780303955	0.0999748706817627
36	124.52406787872314	fix_pre	0		331.0	34.0	2.5	/experiments/knapen_aot/videos/R_S_bing-www_dailymotion_com_video_x64c56w_164.mp4	0.0	363.63925290107727	2.758273124694824
36	127.27413988113403	response	0	2		34.0	2.5	/experiments/knapen_aot/videos/R_S_bing-www_dailymotion_com_video_x64c56w_164.mp4	0.0	366.38932490348816	
36	127.28234100341797	movie	1		166.0	34.0	2.5	/experiments/knapen_aot/videos/R_S_bing-www_dailymotion_com_video_x64c56w_164.mp4	0.0	366.3975260257721	2.5083529949188232
36	129.7906939983368	fix_post	2		12.0	34.0	2.5	/experiments/knapen_aot/videos/R_S_bing-www_dailymotion_com_video_x64c56w_164.mp4	0.0	368.9058790206909	0.09992694854736328
37	129.89062094688416	fix_pre	0		119.0	35.0	2.5	blank	1.0	369.0058059692383	0.9917500019073486
37	130.8741910457611	response	0	2		35.0	2.5	blank	1.0	369.98937606811523	
37	130.8823709487915	movie	1		301.0	35.0	2.5	blank	1.0	369.99755597114563	2.508249044418335
37	133.39061999320984	fix_post	2		12.0	35.0	2.5	blank	1.0	372.50580501556396	0.10008788108825684
38	133.4907078742981	fix_pre	0		121.0	36.0	2.5	/experiments/knapen_aot/videos/R_S_yt--jzScB82vKI_90.mp4	0.0	372.6058928966522	1.008315086364746
38	134.48326587677002	response	0	2		36.0	2.5	/experiments/knapen_aot/videos/R_S_yt--jzScB82vKI_90.mp4	0.0	373.59845089912415	
38	134.49902296066284	movie	1		300.0	36.0	2.5	/experiments/knapen_aot/videos/R_S_yt--jzScB82vKI_90.mp4	0.0	373.61420798301697	2.508357048034668
38	137.0073800086975	fix_post	2		12.0	36.0	2.5	/experiments/knapen_aot/videos/R_S_yt--jzScB82vKI_90.mp4	0.0	376.12256503105164	0.10008001327514648
39	137.10746002197266	fix_pre	0		426.0	37.0	2.5	/experiments/knapen_aot/videos/R_S_pexels-kampus-production-5991896.mp4	0.0	376.2226450443268	3.549823045730591
39	140.6491138935089	response	0	2		37.0	2.5	/experiments/knapen_aot/videos/R_S_pexels-kampus-production-5991896.mp4	0.0	379.76429891586304	
39	140.65728306770325	movie	1		165.0	37.0	2.5	/experiments/knapen_aot/videos/R_S_pexels-kampus-production-5991896.mp4	0.0	379.7724680900574	2.508391857147217
39	143.16567492485046	fix_post	2		12.0	37.0	2.5	/experiments/knapen_aot/videos/R_S_pexels-kampus-production-5991896.mp4	0.0	382.2808599472046	0.10006999969482422
40	143.2657449245453	fix_pre	0		34.0	38.0	2.5	/experiments/knapen_aot/videos/S_yt-5doJmCcFL7s_3.mp4	0.0	382.3809299468994	0.2832319736480713
40	143.54077196121216	response	0	2		38.0	2.5	/experiments/knapen_aot/videos/S_yt-5doJmCcFL7s_3.mp4	0.0	382.6559569835663	
40	143.54897689819336	movie	1		301.0	38.0	2.5	/experiments/knapen_aot/videos/S_yt-5doJmCcFL7s_3.mp4	0.0	382.6641619205475	2.508392095565796
40	146.05736899375916	fix_post	2		12.0	38.0	2.5	/experiments/knapen_aot/videos/S_yt-5doJmCcFL7s_3.mp4	0.0	385.1725540161133	0.10003805160522461
41	146.15740704536438	fix_pre	0		466.0	39.0	2.5	/experiments/knapen_aot/videos/S_wc-Mf8SQpviaD6D_17.mp4	0.0	385.2725920677185	3.8831779956817627
41	150.03238892555237	response	0	2		39.0	2.5	/experiments/knapen_aot/videos/S_wc-Mf8SQpviaD6D_17.mp4	0.0	389.1475739479065	
41	150.04058504104614	movie	1		167.0	39.0	2.5	/experiments/knapen_aot/videos/S_wc-Mf8SQpviaD6D_17.mp4	0.0	389.15577006340027	2.508314847946167
41	152.5488998889923	fix_post	2		12.0	39.0	2.5	/experiments/knapen_aot/videos/S_wc-Mf8SQpviaD6D_17.mp4	0.0	391.66408491134644	0.10001707077026367
42	152.64891695976257	fix_pre	0		178.0	40.0	2.5	blank	1.0	391.7641019821167	1.4833369255065918
42	154.12404489517212	response	0	2		40.0	2.5	blank	1.0	393.23922991752625	
42	154.13225388526917	movie	1		301.0	40.0	2.5	blank	1.0	393.2474389076233	2.5083651542663574
42	156.08238291740417	response	1	2		40.0	2.5	blank	1.0	395.1975679397583	
42	156.64061903953552	fix_post	2		12.0	40.0	2.5	blank	1.0	395.75580406188965	0.09998583793640137
43	156.74060487747192	fix_pre	0		47.0	41.0	2.5	/experiments/knapen_aot/videos/S_yt--jzScB82vKI_90.mp4	0.0	395.85578989982605	0.39162302017211914
43	157.12407207489014	response	0	2		41.0	2.5	/experiments/knapen_aot/videos/S_yt--jzScB82vKI_90.mp4	0.0	396.23925709724426	
43	157.13222789764404	movie	1		301.0	41.0	2.5	/experiments/knapen_aot/videos/S_yt--jzScB82vKI_90.mp4	0.0	396.24741291999817	2.5083789825439453
43	159.640606880188	fix_post	2		12.0	41.0	2.5	/experiments/knapen_aot/videos/S_yt--jzScB82vKI_90.mp4	0.0	398.7557919025421	0.09989118576049805
44	159.7404980659485	fix_pre	0		76.0	42.0	2.5	/experiments/knapen_aot/videos/R_S_yt-be7r-ha8BpA_1045.mp4	0.0	398.8556830883026	0.6333749294281006
44	160.365709066391	response	0	2		42.0	2.5	/experiments/knapen_aot/videos/R_S_yt-be7r-ha8BpA_1045.mp4	0.0	399.4808940887451	
44	160.3738729953766	movie	1		300.0	42.0	2.5	/experiments/knapen_aot/videos/R_S_yt-be7r-ha8BpA_1045.mp4	0.0	399.4890580177307	2.5083630084991455
44	162.88223600387573	fix_post	2		12.0	42.0	2.5	/experiments/knapen_aot/videos/R_S_yt-be7r-ha8BpA_1045.mp4	0.0	401.99742102622986	0.09989190101623535
45	162.98212790489197	fix_pre	0		319.0	43.0	2.5	/experiments/knapen_aot/videos/S_ILSVRC2015_train_00087003.mp4	0.0	402.0973129272461	2.6591429710388184
45	165.63245487213135	response	0	2		43.0	2.5	/experiments/knapen_aot/videos/S_ILSVRC2015_train_00087003.mp4	0.0	404.7476398944855	
45	165.6412708759308	movie	1		301.0	43.0	2.5	/experiments/knapen_aot/videos/S_ILSVRC2015_train_00087003.mp4	0.0	404.7564558982849	2.5075860023498535
45	168.14885687828064	fix_post	2		12.0	43.0	2.5	/experiments/knapen_aot/videos/S_ILSVRC2015_train_00087003.mp4	0.0	407.26404190063477	0.1000370979309082
46	168.24889397621155	fix_pre	0		44.0	44.0	2.5	/experiments/knapen_aot/videos/R_S_Y004_C015_SDR_2K_AVC.mp4	0.0	407.3640789985657	0.3666219711303711
46	168.60728287696838	response	0	2		44.0	2.5	/experiments/knapen_aot/videos/R_S_Y004_C015_SDR_2K_AVC.mp4	0.0	407.7224678993225	
46	168.61551594734192	movie	1		169.0	44.0	2.5	/experiments/knapen_aot/videos/R_S_Y004_C015_SDR_2K_AVC.mp4	0.0	407.73070096969604	2.5083651542663574
46	171.12388110160828	fix_post	2		12.0	44.0	2.5	/experiments/knapen_aot/videos/R_S_Y004_C015_SDR_2K_AVC.mp4	0.0	410.2390661239624	0.10096478462219238
47	171.22484588623047	fix_pre	0		261.0	45.0	2.5	/experiments/knapen_aot/videos/S_video-9.mp4	0.0	410.3400309085846	2.173945188522339
47	173.39057207107544	response	0	2		45.0	2.5	/experiments/knapen_aot/videos/S_video-9.mp4	0.0	412.50575709342957	
47	173.3987910747528	movie	1		200.0	45.0	2.5	/experiments/knapen_aot/videos/S_video-9.mp4	0.0	412.51397609710693	2.5084328651428223
47	175.90722393989563	fix_post	2		12.0	45.0	2.5	/experiments/knapen_aot/videos/S_video-9.mp4	0.0	415.02240896224976	0.10008406639099121
48	176.00730800628662	fix_pre	0		215.0	46.0	2.5	/experiments/knapen_aot/videos/R_S_pexels-ron-lach-8071987.mp4	0.0	415.12249302864075	1.7915608882904053
48	177.7906460762024	response	0	2		46.0	2.5	/experiments/knapen_aot/videos/R_S_pexels-ron-lach-8071987.mp4	0.0	416.9058310985565	
48	177.79886889457703	movie	1		192.0	46.0	2.5	/experiments/knapen_aot/videos/R_S_pexels-ron-lach-8071987.mp4	0.0	416.91405391693115	2.5083529949188232
48	180.30722188949585	fix_post	2		12.0	46.0	2.5	/experiments/knapen_aot/videos/R_S_pexels-ron-lach-8071987.mp4	0.0	419.42240691185	0.09998512268066406
49	180.4072070121765	fix_pre	0		271.0	47.0	2.5	blank	1.0	419.52239203453064	2.2581799030303955
49	182.65735507011414	response	0	2		47.0	2.5	blank	1.0	421.77254009246826	
49	182.6653869152069	movie	1		301.0	47.0	2.5	blank	1.0	421.78057193756104	2.508435010910034
49	185.17382192611694	fix_post	2		12.0	47.0	2.5	blank	1.0	424.28900694847107	0.10007500648498535
50	185.27389693260193	fix_pre	0		206.0	48.0	2.5	/experiments/knapen_aot/videos/S_production_ID_4122384.mp4	0.0	424.38908195495605	1.7165169715881348
50	186.9823760986328	response	0	2		48.0	2.5	/experiments/knapen_aot/videos/S_production_ID_4122384.mp4	0.0	426.09756112098694	
50	186.99041390419006	movie	1		166.0	48.0	2.5	/experiments/knapen_aot/videos/S_production_ID_4122384.mp4	0.0	426.1055989265442	2.508411169052124
50	189.4988250732422	fix_post	2		12.0	48.0	2.5	/experiments/knapen_aot/videos/S_production_ID_4122384.mp4	0.0	428.6140100955963	0.10078191757202148
51	189.5996069908142	fix_pre	0		158.0	49.0	2.5	/experiments/knapen_aot/videos/S_yt-JkKOG9Fxykc_94.mp4	0.0	428.71479201316833	1.3158409595489502
51	190.90730595588684	response	0	2		49.0	2.5	/experiments/knapen_aot/videos/S_yt-JkKOG9Fxykc_94.mp4	0.0	430.02249097824097	
51	190.91544795036316	movie	1		301.0	49.0	2.5	/experiments/knapen_aot/videos/S_yt-JkKOG9Fxykc_94.mp4	0.0	430.0306329727173	2.508289098739624
51	193.42373704910278	fix_post	2		12.0	49.0	2.5	/experiments/knapen_aot/videos/S_yt-JkKOG9Fxykc_94.mp4	0.0	432.5389220714569	0.10009288787841797
52	193.5238299369812	fix_pre	0		727.0	50.0	2.5	/experiments/knapen_aot/videos/S_yt-aD-EAuBdpUo_163.mp4	0.0	432.6390149593353	6.0581560134887695
52	199.57385301589966	response	0	2		50.0	2.5	/experiments/knapen_aot/videos/S_yt-aD-EAuBdpUo_163.mp4	0.0	438.6890380382538	
52	199.58198595046997	movie	1		301.0	50.0	2.5	/experiments/knapen_aot/videos/S_yt-aD-EAuBdpUo_163.mp4	0.0	438.6971709728241	2.5083601474761963
52	202.09034609794617	fix_post	2		12.0	50.0	2.5	/experiments/knapen_aot/videos/S_yt-aD-EAuBdpUo_163.mp4	0.0	441.2055311203003	0.10008478164672852
53	202.1904308795929	fix_pre	0		76.0	51.0	2.5	/experiments/knapen_aot/videos/S_yt-IigHVUksnw8_7.mp4	0.0	441.305615901947	0.6333122253417969
53	202.81563210487366	response	0	2		51.0	2.5	/experiments/knapen_aot/videos/S_yt-IigHVUksnw8_7.mp4	0.0	441.9308171272278	
53	202.8237431049347	movie	1		301.0	51.0	2.5	/experiments/knapen_aot/videos/S_yt-IigHVUksnw8_7.mp4	0.0	441.9389281272888	2.508297920227051
53	205.33204102516174	fix_post	2		12.0	51.0	2.5	/experiments/knapen_aot/videos/S_yt-IigHVUksnw8_7.mp4	0.0	444.44722604751587	0.09999299049377441
54	205.43203401565552	fix_pre	0		134.0	52.0	2.5	/experiments/knapen_aot/videos/S_yt-Tt_LkR4iAt4_11.mp4	0.0	444.54721903800964	1.1165690422058105
54	206.54053401947021	response	0	2		52.0	2.5	/experiments/knapen_aot/videos/S_yt-Tt_LkR4iAt4_11.mp4	0.0	445.65571904182434	
54	206.54860305786133	movie	1		301.0	52.0	2.5	/experiments/knapen_aot/videos/S_yt-Tt_LkR4iAt4_11.mp4	0.0	445.66378808021545	2.508481025695801
54	209.05708408355713	fix_post	2		12.0	52.0	2.5	/experiments/knapen_aot/videos/S_yt-Tt_LkR4iAt4_11.mp4	0.0	448.17226910591125	0.09991192817687988
55	209.156996011734	fix_pre	0		36.0	53.0	2.5	/experiments/knapen_aot/videos/R_S_DL_B002_C011_SDR_20191122_SDR_2K_AVC.mp4	0.0	448.27218103408813	0.3000168800354004
55	209.44878506660461	response	0	2		53.0	2.5	/experiments/knapen_aot/videos/R_S_DL_B002_C011_SDR_20191122_SDR_2K_AVC.mp4	0.0	448.56397008895874	
55	209.4570128917694	movie	1		165.0	53.0	2.5	/experiments/knapen_aot/videos/R_S_DL_B002_C011_SDR_20191122_SDR_2K_AVC.mp4	0.0	448.57219791412354	2.5083742141723633
55	211.96538710594177	fix_post	2		12.0	53.0	2.5	/experiments/knapen_aot/videos/R_S_DL_B002_C011_SDR_20191122_SDR_2K_AVC.mp4	0.0	451.0805721282959	0.09989094734191895
56	212.0652780532837	fix_pre	0		600.0	54.0	2.5	blank	1.0	451.1804630756378	4.99997091293335
56	217.05711793899536	response	0	2		54.0	2.5	blank	1.0	456.1723029613495	
56	217.06524896621704	movie	1		301.0	54.0	2.5	blank	1.0	456.18043398857117	2.5083329677581787
56	219.57358193397522	fix_post	2		12.0	54.0	2.5	blank	1.0	458.68876695632935	0.10010600090026855
57	219.6736879348755	fix_pre	0		40.0	55.0	2.5	/experiments/knapen_aot/videos/S_b4-3.mp4	0.0	458.7888729572296	0.3333151340484619
57	219.99872994422913	response	0	2		55.0	2.5	/experiments/knapen_aot/videos/S_b4-3.mp4	0.0	459.11391496658325	
57	220.00700306892395	movie	1		164.0	55.0	2.5	/experiments/knapen_aot/videos/S_b4-3.mp4	0.0	459.1221880912781	2.5083038806915283
57	222.51530694961548	fix_post	2		12.0	55.0	2.5	/experiments/knapen_aot/videos/S_b4-3.mp4	0.0	461.6304919719696	0.10000109672546387
58	222.61530804634094	fix_pre	0		666.0	56.0	2.5	/experiments/knapen_aot/videos/S_yt-GWlwb2QsxIA_48.mp4	0.0	461.73049306869507	5.549954891204834
58	228.15708708763123	response	0	2		56.0	2.5	/experiments/knapen_aot/videos/S_yt-GWlwb2QsxIA_48.mp4	0.0	467.27227210998535	
58	228.16526293754578	movie	1		301.0	56.0	2.5	/experiments/knapen_aot/videos/S_yt-GWlwb2QsxIA_48.mp4	0.0	467.2804479598999	2.5083839893341064
58	230.67364692687988	fix_post	2		12.0	56.0	2.5	/experiments/knapen_aot/videos/S_yt-GWlwb2QsxIA_48.mp4	0.0	469.788831949234	0.09994101524353027
59	230.7735879421234	fix_pre	0		124.0	57.0	2.5	/experiments/knapen_aot/videos/R_S_yt-bWXohhodbjg_98.mp4	0.0	469.88877296447754	1.0338129997253418
59	231.79876399040222	response	0	2		57.0	2.5	/experiments/knapen_aot/videos/R_S_yt-bWXohhodbjg_98.mp4	0.0	470.91394901275635	
59	231.80740094184875	movie	1		300.0	57.0	2.5	/experiments/knapen_aot/videos/R_S_yt-bWXohhodbjg_98.mp4	0.0	470.9225859642029	2.5078179836273193
59	234.31521892547607	fix_post	2		12.0	57.0	2.5	/experiments/knapen_aot/videos/R_S_yt-bWXohhodbjg_98.mp4	0.0	473.4304039478302	0.09992599487304688
60	234.41514492034912	fix_pre	0		125.0	58.0	2.5	/experiments/knapen_aot/videos/S_yt-4x2eUikn9rw_212.mp4	0.0	473.53032994270325	1.0418260097503662
60	235.44872093200684	response	0	2		58.0	2.5	/experiments/knapen_aot/videos/S_yt-4x2eUikn9rw_212.mp4	0.0	474.56390595436096	
60	235.4569709300995	movie	1		301.0	58.0	2.5	/experiments/knapen_aot/videos/S_yt-4x2eUikn9rw_212.mp4	0.0	474.5721559524536	2.508294105529785
60	237.96526503562927	fix_post	2		12.0	58.0	2.5	/experiments/knapen_aot/videos/S_yt-4x2eUikn9rw_212.mp4	0.0	477.0804500579834	0.09997391700744629
61	238.06523895263672	fix_pre	0		40.0	59.0	2.5	/experiments/knapen_aot/videos/S_pexels-mikhail-nilov-8410088.mp4	0.0	477.18042397499084	0.3333590030670166
61	238.3903660774231	response	0	2		59.0	2.5	/experiments/knapen_aot/videos/S_pexels-mikhail-nilov-8410088.mp4	0.0	477.5055510997772	
61	238.39859795570374	movie	1		164.0	59.0	2.5	/experiments/knapen_aot/videos/S_pexels-mikhail-nilov-8410088.mp4	0.0	477.51378297805786	2.50816011428833
61	240.90675806999207	fix_post	2		12.0	59.0	2.5	/experiments/knapen_aot/videos/S_pexels-mikhail-nilov-8410088.mp4	0.0	480.0219430923462	0.10019183158874512
62	241.0069499015808	fix_pre	0		144.0	60.0	2.5	/experiments/knapen_aot/videos/R_S_yt-YTQXM5ZjRgg_116.mp4	0.0	480.12213492393494	1.199902057647705
62	242.19867587089539	response	0	2		60.0	2.5	/experiments/knapen_aot/videos/R_S_yt-YTQXM5ZjRgg_116.mp4	0.0	481.3138608932495	
62	242.20685195922852	movie	1		301.0	60.0	2.5	/experiments/knapen_aot/videos/R_S_yt-YTQXM5ZjRgg_116.mp4	0.0	481.32203698158264	2.5082790851593018
62	244.71513104438782	fix_post	2		12.0	60.0	2.5	/experiments/knapen_aot/videos/R_S_yt-YTQXM5ZjRgg_116.mp4	0.0	483.83031606674194	0.10003089904785156
63	244.81516194343567	fix_pre	0		193.0	61.0	2.5	blank	1.0	483.9303469657898	1.60829496383667
63	246.4153389930725	response	0	2		61.0	2.5	blank	1.0	485.53052401542664	
63	246.42345690727234	movie	1		301.0	61.0	2.5	blank	1.0	485.53864192962646	2.5083701610565186
63	248.93182706832886	fix_post	2		12.0	61.0	2.5	blank	1.0	488.047012090683	0.10003995895385742
64	249.03186702728271	fix_pre	0		169.0	62.0	2.5	/experiments/knapen_aot/videos/S_ILSVRC2015_train_00460000.mp4	0.0	488.14705204963684	1.4082598686218262
64	250.4319429397583	response	0	2		62.0	2.5	/experiments/knapen_aot/videos/S_ILSVRC2015_train_00460000.mp4	0.0	489.5471279621124	
64	250.44012689590454	movie	1		299.0	62.0	2.5	/experiments/knapen_aot/videos/S_ILSVRC2015_train_00460000.mp4	0.0	489.55531191825867	2.5084099769592285
64	252.94853687286377	fix_post	2		12.0	62.0	2.5	/experiments/knapen_aot/videos/S_ILSVRC2015_train_00460000.mp4	0.0	492.0637218952179	0.09996318817138672
65	253.04850006103516	fix_pre	0		160.0	63.0	2.5	/experiments/knapen_aot/videos/R_S_yt-xgqx7tH92-c_6.mp4	0.0	492.1636850833893	1.3332948684692383
65	254.37364602088928	response	0	2		63.0	2.5	/experiments/knapen_aot/videos/R_S_yt-xgqx7tH92-c_6.mp4	0.0	493.4888310432434	
65	254.3817949295044	movie	1		301.0	63.0	2.5	/experiments/knapen_aot/videos/R_S_yt-xgqx7tH92-c_6.mp4	0.0	493.4969799518585	2.5083601474761963
65	256.8901550769806	fix_post	2		12.0	63.0	2.5	/experiments/knapen_aot/videos/R_S_yt-xgqx7tH92-c_6.mp4	0.0	496.0053400993347	0.10008382797241211
66	256.990238904953	fix_pre	0		428.0	64.0	2.5	/experiments/knapen_aot/videos/S_yt-rZA9zXR-A6s_426.mp4	0.0	496.10542392730713	3.566812038421631
66	260.54859495162964	response	0	2		64.0	2.5	/experiments/knapen_aot/videos/S_yt-rZA9zXR-A6s_426.mp4	0.0	499.66377997398376	
66	260.55705094337463	movie	1		301.0	64.0	2.5	/experiments/knapen_aot/videos/S_yt-rZA9zXR-A6s_426.mp4	0.0	499.67223596572876	2.508028984069824
66	263.06507992744446	fix_post	2		12.0	64.0	2.5	/experiments/knapen_aot/videos/S_yt-rZA9zXR-A6s_426.mp4	0.0	502.1802649497986	0.09996294975280762
67	263.16504287719727	fix_pre	0		405.0	65.0	2.5	/experiments/knapen_aot/videos/R_S_I003_C008_SDR_2K_AVC.mp4	0.0	502.2802278995514	3.3781142234802246
67	266.53192591667175	response	0	2		65.0	2.5	/experiments/knapen_aot/videos/R_S_I003_C008_SDR_2K_AVC.mp4	0.0	505.6471109390259	
67	266.5431571006775	movie	1		171.0	65.0	2.5	/experiments/knapen_aot/videos/R_S_I003_C008_SDR_2K_AVC.mp4	0.0	505.6583421230316	2.5053088665008545
67	269.04846596717834	fix_post	2		12.0	65.0	2.5	/experiments/knapen_aot/videos/R_S_I003_C008_SDR_2K_AVC.mp4	0.0	508.16365098953247	0.10002803802490234
68	269.14849400520325	fix_pre	0		246.0	66.0	2.5	/experiments/knapen_aot/videos/S_yt-11VGDAOVEag_8.mp4	0.0	508.2636790275574	2.049865961074829
68	271.1902070045471	response	0	2		66.0	2.5	/experiments/knapen_aot/videos/S_yt-11VGDAOVEag_8.mp4	0.0	510.30539202690125	
68	271.1983599662781	movie	1		301.0	66.0	2.5	/experiments/knapen_aot/videos/S_yt-11VGDAOVEag_8.mp4	0.0	510.3135449886322	2.5083670616149902
68	273.70672702789307	fix_post	2		12.0	66.0	2.5	/experiments/knapen_aot/videos/S_yt-11VGDAOVEag_8.mp4	0.0	512.8219120502472	0.1000518798828125
69	273.8067789077759	fix_pre	0		40.0	67.0	2.5	/experiments/knapen_aot/videos/R_S_pexels-yaroslav-shuraev-8091356.mp4	0.0	512.92196393013	0.33353614807128906
69	274.13191390037537	response	0	2		67.0	2.5	/experiments/knapen_aot/videos/R_S_pexels-yaroslav-shuraev-8091356.mp4	0.0	513.2470989227295	
69	274.14031505584717	movie	1		194.0	67.0	2.5	/experiments/knapen_aot/videos/R_S_pexels-yaroslav-shuraev-8091356.mp4	0.0	513.2555000782013	2.508112907409668
69	276.64842796325684	fix_post	2		12.0	67.0	2.5	/experiments/knapen_aot/videos/R_S_pexels-yaroslav-shuraev-8091356.mp4	0.0	515.763612985611	0.0999300479888916
70	276.7483580112457	fix_pre	0		470.0	68.0	2.5	/experiments/knapen_aot/videos/S_ILSVRC2015_train_00373001.mp4	0.0	515.8635430335999	3.9166860580444336
70	280.65687894821167	response	0	2		68.0	2.5	/experiments/knapen_aot/videos/S_ILSVRC2015_train_00373001.mp4	0.0	519.7720639705658	
70	280.66504406929016	movie	1		300.0	68.0	2.5	/experiments/knapen_aot/videos/S_ILSVRC2015_train_00373001.mp4	0.0	519.7802290916443	2.508358955383301
70	283.17340302467346	fix_post	2		12.0	68.0	2.5	/experiments/knapen_aot/videos/S_ILSVRC2015_train_00373001.mp4	0.0	522.2885880470276	0.09999585151672363
71	283.2733988761902	fix_pre	0		144.0	69.0	2.5	/experiments/knapen_aot/videos/S_yt-PK-Eip9wFr0_24.mp4	0.0	522.3885838985443	1.2001590728759766
71	284.4651679992676	response	0	2		69.0	2.5	/experiments/knapen_aot/videos/S_yt-PK-Eip9wFr0_24.mp4	0.0	523.5803530216217	
71	284.47355794906616	movie	1		301.0	69.0	2.5	/experiments/knapen_aot/videos/S_yt-PK-Eip9wFr0_24.mp4	0.0	523.5887429714203	2.508146047592163
71	286.9817039966583	fix_post	2		12.0	69.0	2.5	/experiments/knapen_aot/videos/S_yt-PK-Eip9wFr0_24.mp4	0.0	526.0968890190125	0.09996294975280762
72	287.08166694641113	fix_pre	0		147.0	70.0	2.5	blank	1.0	526.1968519687653	1.225208044052124
72	288.2984778881073	response	0	2		70.0	2.5	blank	1.0	527.4136629104614	
72	288.30687499046326	movie	1		301.0	70.0	2.5	blank	1.0	527.4220600128174	2.5082859992980957
72	290.81516098976135	fix_post	2		12.0	70.0	2.5	blank	1.0	529.9303460121155	0.09980392456054688
73	290.9149649143219	fix_pre	0		48.0	71.0	2.5	/experiments/knapen_aot/videos/S_yt-s2tZ2NIQrxg_175.mp4	0.0	530.030149936676	0.39997196197509766
73	291.30679297447205	response	0	2		71.0	2.5	/experiments/knapen_aot/videos/S_yt-s2tZ2NIQrxg_175.mp4	0.0	530.4219779968262	
73	291.314936876297	movie	1		301.0	71.0	2.5	/experiments/knapen_aot/videos/S_yt-s2tZ2NIQrxg_175.mp4	0.0	530.4301218986511	2.508427143096924
73	293.8233640193939	fix_post	2		12.0	71.0	2.5	/experiments/knapen_aot/videos/S_yt-s2tZ2NIQrxg_175.mp4	0.0	532.938549041748	0.10001301765441895
74	293.92337703704834	fix_pre	0		150.0	72.0	2.5	/experiments/knapen_aot/videos/R_S_yt-4wYTkhggZNM_90.mp4	0.0	533.0385620594025	1.2498979568481445
74	295.1651129722595	response	0	2		72.0	2.5	/experiments/knapen_aot/videos/R_S_yt-4wYTkhggZNM_90.mp4	0.0	534.2802979946136	
74	295.1732749938965	movie	1		301.0	72.0	2.5	/experiments/knapen_aot/videos/R_S_yt-4wYTkhggZNM_90.mp4	0.0	534.2884600162506	2.5084428787231445
74	297.68171787261963	fix_post	2		12.0	72.0	2.5	/experiments/knapen_aot/videos/R_S_yt-4wYTkhggZNM_90.mp4	0.0	536.7969028949738	0.09988212585449219
75	297.7815999984741	fix_pre	0		58.0	73.0	2.5	/experiments/knapen_aot/videos/S_yt-4rwBpRuHg-c_1308.mp4	0.0	536.8967850208282	0.483428955078125
75	298.25679302215576	response	0	2		73.0	2.5	/experiments/knapen_aot/videos/S_yt-4rwBpRuHg-c_1308.mp4	0.0	537.3719780445099	
75	298.26502895355225	movie	1		301.0	73.0	2.5	/experiments/knapen_aot/videos/S_yt-4rwBpRuHg-c_1308.mp4	0.0	537.3802139759064	2.508273124694824
75	300.77330207824707	fix_post	2		12.0	73.0	2.5	/experiments/knapen_aot/videos/S_yt-4rwBpRuHg-c_1308.mp4	0.0	539.8884871006012	0.09995079040527344
76	300.87325286865234	fix_pre	0		126.0	74.0	2.5	/experiments/knapen_aot/videos/R_S_DV6V38rplag_215.mp4	0.0	539.9884378910065	1.0499842166900635
76	301.9150800704956	response	0	2		74.0	2.5	/experiments/knapen_aot/videos/R_S_DV6V38rplag_215.mp4	0.0	541.0302650928497	
76	301.9232370853424	movie	1		300.0	74.0	2.5	/experiments/knapen_aot/videos/R_S_DV6V38rplag_215.mp4	0.0	541.0384221076965	2.5085508823394775
76	304.4317879676819	fix_post	2		12.0	74.0	2.5	/experiments/knapen_aot/videos/R_S_DV6V38rplag_215.mp4	0.0	543.546972990036	0.0998849868774414
77	304.5316729545593	fix_pre	0		119.0	75.0	2.5	/experiments/knapen_aot/videos/S_yt-xgqx7tH92-c_6.mp4	0.0	543.6468579769135	0.9915900230407715
77	305.51505494117737	response	0	2		75.0	2.5	/experiments/knapen_aot/videos/S_yt-xgqx7tH92-c_6.mp4	0.0	544.6302399635315	
77	305.5232629776001	movie	1		301.0	75.0	2.5	/experiments/knapen_aot/videos/S_yt-xgqx7tH92-c_6.mp4	0.0	544.6384479999542	2.50839900970459
77	308.0316619873047	fix_post	2		12.0	75.0	2.5	/experiments/knapen_aot/videos/S_yt-xgqx7tH92-c_6.mp4	0.0	547.1468470096588	0.09999489784240723
78	308.1316568851471	fix_pre	0		283.0	76.0	2.5	/experiments/knapen_aot/videos/R_S_video-9.mp4	0.0	547.2468419075012	2.358218193054199
78	310.4741590023041	response	0	2		76.0	2.5	/experiments/knapen_aot/videos/R_S_video-9.mp4	0.0	549.5893440246582	
78	310.4898750782013	movie	1		195.0	76.0	2.5	/experiments/knapen_aot/videos/R_S_video-9.mp4	0.0	549.6050601005554	2.508370876312256
78	312.99824595451355	fix_post	2		12.0	76.0	2.5	/experiments/knapen_aot/videos/R_S_video-9.mp4	0.0	552.1134309768677	0.09998798370361328
79	313.09823393821716	fix_pre	0		195.0	77.0	2.5	blank	1.0	552.2134189605713	1.6249840259552002
79	314.7150490283966	response	0	2		77.0	2.5	blank	1.0	553.8302340507507	
79	314.72321796417236	movie	1		301.0	77.0	2.5	blank	1.0	553.8384029865265	2.508357048034668
79	317.23157501220703	fix_post	2		12.0	77.0	2.5	blank	1.0	556.3467600345612	0.09999704360961914
80	317.33157205581665	fix_pre	0		35.0	78.0	2.5	/experiments/knapen_aot/videos/R_S_pexels-kampus-production-5991896.mp4	0.0	556.4467570781708	0.2916748523712158
80	317.607449054718	response	0	2		78.0	2.5	/experiments/knapen_aot/videos/R_S_pexels-kampus-production-5991896.mp4	0.0	556.7226340770721	
80	317.62324690818787	movie	1		165.0	78.0	2.5	/experiments/knapen_aot/videos/R_S_pexels-kampus-production-5991896.mp4	0.0	556.738431930542	2.5083250999450684
80	320.13157200813293	fix_post	2		12.0	78.0	2.5	/experiments/knapen_aot/videos/R_S_pexels-kampus-production-5991896.mp4	0.0	559.2467570304871	0.09998202323913574
81	320.23155403137207	fix_pre	0		269.0	79.0	2.5	/experiments/knapen_aot/videos/S_wc-rs31_SV1Opy__6.mp4	0.0	559.3467390537262	2.2416069507598877
81	322.46500301361084	response	0	2		79.0	2.5	/experiments/knapen_aot/videos/S_wc-rs31_SV1Opy__6.mp4	0.0	561.580188035965	
81	322.47316098213196	movie	1		164.0	79.0	2.5	/experiments/knapen_aot/videos/S_wc-rs31_SV1Opy__6.mp4	0.0	561.5883460044861	2.5083930492401123
81	324.98155403137207	fix_post	2		12.0	79.0	2.5	/experiments/knapen_aot/videos/S_wc-rs31_SV1Opy__6.mp4	0.0	564.0967390537262	0.0999748706817627
82	325.08152890205383	fix_pre	0		331.0	80.0	2.5	/experiments/knapen_aot/videos/S_yt-GWlwb2QsxIA_48.mp4	0.0	564.196713924408	2.7596161365509033
82	327.8317139148712	response	0	2		80.0	2.5	/experiments/knapen_aot/videos/S_yt-GWlwb2QsxIA_48.mp4	0.0	566.9468989372253	
82	327.84114503860474	movie	1		301.0	80.0	2.5	/experiments/knapen_aot/videos/S_yt-GWlwb2QsxIA_48.mp4	0.0	566.9563300609589	2.5070700645446777
82	330.3482151031494	fix_post	2		12.0	80.0	2.5	/experiments/knapen_aot/videos/S_yt-GWlwb2QsxIA_48.mp4	0.0	569.4634001255035	0.09991884231567383
83	330.4481339454651	fix_pre	0		283.0	81.0	2.5	/experiments/knapen_aot/videos/S_comp_GMT308_139K_142NC_CARIBBEAN_DAY_v09_SDR_FINAL_22062018_SDR_2K_AVC.mp4	0.0	569.5633189678192	2.358323097229004
83	332.79819202423096	response	0	2		81.0	2.5	/experiments/knapen_aot/videos/S_comp_GMT308_139K_142NC_CARIBBEAN_DAY_v09_SDR_FINAL_22062018_SDR_2K_AVC.mp4	0.0	571.9133770465851	
83	332.8064570426941	movie	1		167.0	81.0	2.5	/experiments/knapen_aot/videos/S_comp_GMT308_139K_142NC_CARIBBEAN_DAY_v09_SDR_FINAL_22062018_SDR_2K_AVC.mp4	0.0	571.9216420650482	2.5084049701690674
83	335.31486201286316	fix_post	2		12.0	81.0	2.5	/experiments/knapen_aot/videos/S_comp_GMT308_139K_142NC_CARIBBEAN_DAY_v09_SDR_FINAL_22062018_SDR_2K_AVC.mp4	0.0	574.4300470352173	0.10006189346313477
84	335.4149239063263	fix_pre	0		24.0	82.0	2.5	/experiments/knapen_aot/videos/S_yt-54kx8P3L1ns_6.mp4	0.0	574.5301089286804	0.19993805885314941
84	335.5992078781128	response	0	2		82.0	2.5	/experiments/knapen_aot/videos/S_yt-54kx8P3L1ns_6.mp4	0.0	574.7143929004669	
84	335.61486196517944	movie	1		301.0	82.0	2.5	/experiments/knapen_aot/videos/S_yt-54kx8P3L1ns_6.mp4	0.0	574.7300469875336	2.5082550048828125
84	338.12311697006226	fix_post	2		12.0	82.0	2.5	/experiments/knapen_aot/videos/S_yt-54kx8P3L1ns_6.mp4	0.0	577.2383019924164	0.09998297691345215
85	338.2230999469757	fix_pre	0		229.0	83.0	2.5	blank	1.0	577.3382849693298	1.9083349704742432
85	340.1232349872589	response	0	2		83.0	2.5	blank	1.0	579.238420009613	
85	340.13143491744995	movie	1		301.0	83.0	2.5	blank	1.0	579.2466199398041	2.508331060409546
85	342.6397659778595	fix_post	2		12.0	83.0	2.5	blank	1.0	581.7549510002136	0.10001111030578613
87	342.7397770881653	stim	0		84.0					581.8549621105194	0.7000010013580322
87	343.4360918998718	response	0	space						582.551276922226	
