trial_nr	onset	event_type	phase	response	nr_frames	movie_index	movie_duration	movie_file	blank	onset_abs	duration
0	0.12501311302185059	stim	0		46.0					141.2181680202484	0.38260602951049805
0	0.49918413162231445	response	0	space						141.59233903884888	
1	0.5076191425323486	stim	0		121.0					141.6007740497589	1.0080759525299072
1	1.365576982498169	response	0	space						142.45873188972473	
1	1.5156950950622559	stim	1		120.0					142.60885000228882	0.9997539520263672
1	1.7987730503082275	response	1	space						142.8919279575348	
1	2.3071160316467285	response	1	space						143.4002709388733	
2	2.515449047088623	fix_pre	0		27.0	0.0	2.5	/experiments/knapen_aot/videos/S_yt-8RmEimCI80g_35.mp4	0.0	143.60860395431519	0.22481703758239746
2	2.7321810722351074	response	0	space		0.0	2.5	/experiments/knapen_aot/videos/S_yt-8RmEimCI80g_35.mp4	0.0	143.82533597946167	
2	2.7402660846710205	movie	1		300.0	0.0	2.5	/experiments/knapen_aot/videos/S_yt-8RmEimCI80g_35.mp4	0.0	143.83342099189758	2.508344888687134
2	5.248610973358154	fix_post	2		12.0	0.0	2.5	/experiments/knapen_aot/videos/S_yt-8RmEimCI80g_35.mp4	0.0	146.34176588058472	0.10009217262268066
3	5.348703145980835	fix_pre	0		15.0	1.0	2.5	/experiments/knapen_aot/videos/R_S_DV6V38rplag_215.mp4	0.0	146.4418580532074	0.12492799758911133
3	5.466354131698608	response	0	2		1.0	2.5	/experiments/knapen_aot/videos/R_S_DV6V38rplag_215.mp4	0.0	146.55950903892517	
3	5.473631143569946	movie	1		301.0	1.0	2.5	/experiments/knapen_aot/videos/R_S_DV6V38rplag_215.mp4	0.0	146.5667860507965	2.5083818435668945
3	7.982012987136841	fix_post	2		12.0	1.0	2.5	/experiments/knapen_aot/videos/R_S_DV6V38rplag_215.mp4	0.0	149.0751678943634	0.09993195533752441
4	8.081944942474365	fix_pre	0		11.0	2.0	2.5	/experiments/knapen_aot/videos/R_S_ILSVRC2015_train_00079001.mp4	0.0	149.17509984970093	0.09164118766784668
4	8.16539716720581	response	0	2		2.0	2.5	/experiments/knapen_aot/videos/R_S_ILSVRC2015_train_00079001.mp4	0.0	149.25855207443237	
4	8.173586130142212	movie	1		301.0	2.0	2.5	/experiments/knapen_aot/videos/R_S_ILSVRC2015_train_00079001.mp4	0.0	149.26674103736877	2.508368968963623
4	10.681955099105835	fix_post	2		12.0	2.0	2.5	/experiments/knapen_aot/videos/R_S_ILSVRC2015_train_00079001.mp4	0.0	151.7751100063324	0.09995293617248535
4	10.757095098495483	response	2	2		2.0	2.5	/experiments/knapen_aot/videos/R_S_ILSVRC2015_train_00079001.mp4	0.0	151.85025000572205	
5	10.78190803527832	fix_pre	0		53.0	3.0	2.5	/experiments/knapen_aot/videos/R_S_yt-VMUSo8E_Fj8_171.mp4	0.0	151.87506294250488	0.44166994094848633
5	11.215336084365845	response	0	2		3.0	2.5	/experiments/knapen_aot/videos/R_S_yt-VMUSo8E_Fj8_171.mp4	0.0	152.3084909915924	
5	11.223577976226807	movie	1		301.0	3.0	2.5	/experiments/knapen_aot/videos/R_S_yt-VMUSo8E_Fj8_171.mp4	0.0	152.31673288345337	2.5083670616149902
5	13.731945037841797	fix_post	2		12.0	3.0	2.5	/experiments/knapen_aot/videos/R_S_yt-VMUSo8E_Fj8_171.mp4	0.0	154.82509994506836	0.10098099708557129
5	13.823661088943481	response	2	2		3.0	2.5	/experiments/knapen_aot/videos/R_S_yt-VMUSo8E_Fj8_171.mp4	0.0	154.91681599617004	
6	13.832926034927368	fix_pre	0		33.0	4.0	2.5	/experiments/knapen_aot/videos/R_S_yt-PCSXJ5YB_AE_3.mp4	0.0	154.92608094215393	0.27396392822265625
6	14.098588943481445	response	0	2		4.0	2.5	/experiments/knapen_aot/videos/R_S_yt-PCSXJ5YB_AE_3.mp4	0.0	155.191743850708	
6	14.106889963150024	movie	1		301.0	4.0	2.5	/experiments/knapen_aot/videos/R_S_yt-PCSXJ5YB_AE_3.mp4	0.0	155.2000448703766	2.5083529949188232
6	16.615242958068848	fix_post	2		12.0	4.0	2.5	/experiments/knapen_aot/videos/R_S_yt-PCSXJ5YB_AE_3.mp4	0.0	157.7083978652954	0.09996604919433594
6	16.674596071243286	response	2	2		4.0	2.5	/experiments/knapen_aot/videos/R_S_yt-PCSXJ5YB_AE_3.mp4	0.0	157.76775097846985	
7	16.715209007263184	fix_pre	0		60.0	5.0	2.5	blank	1.0	157.80836391448975	0.5000131130218506
7	17.206984043121338	response	0	2		5.0	2.5	blank	1.0	158.3001389503479	
7	17.215222120285034	movie	1		301.0	5.0	2.5	blank	1.0	158.3083770275116	2.5083558559417725
7	19.723577976226807	fix_post	2		12.0	5.0	2.5	blank	1.0	160.81673288345337	0.10002613067626953
8	19.823604106903076	fix_pre	0		19.0	6.0	2.5	/experiments/knapen_aot/videos/R_S_yt-11VGDAOVEag_8.mp4	0.0	160.91675901412964	0.15829706192016602
8	19.97360396385193	response	0	2		6.0	2.5	/experiments/knapen_aot/videos/R_S_yt-11VGDAOVEag_8.mp4	0.0	161.0667588710785	
8	19.981901168823242	movie	1		301.0	6.0	2.5	/experiments/knapen_aot/videos/R_S_yt-11VGDAOVEag_8.mp4	0.0	161.0750560760498	2.50832200050354
8	22.490223169326782	fix_post	2		12.0	6.0	2.5	/experiments/knapen_aot/videos/R_S_yt-11VGDAOVEag_8.mp4	0.0	163.58337807655334	0.10001778602600098
9	22.590240955352783	fix_pre	0		3.0	7.0	2.5	/experiments/knapen_aot/videos/S_yt-3NMDWrZr1Z4_255.mp4	0.0	163.68339586257935	0.024960994720458984
9	22.607036113739014	response	0	2		7.0	2.5	/experiments/knapen_aot/videos/S_yt-3NMDWrZr1Z4_255.mp4	0.0	163.70019102096558	
9	22.615201950073242	movie	1		301.0	7.0	2.5	/experiments/knapen_aot/videos/S_yt-3NMDWrZr1Z4_255.mp4	0.0	163.7083568572998	2.508350133895874
9	25.123552083969116	fix_post	2		12.0	7.0	2.5	/experiments/knapen_aot/videos/S_yt-3NMDWrZr1Z4_255.mp4	0.0	166.21670699119568	0.09999203681945801
10	25.223544120788574	fix_pre	0		6.0	8.0	2.5	/experiments/knapen_aot/videos/R_S_comp_A105_C002_v06_SDR_FINAL_25062018_SDR_2K_AVC.mp4	0.0	166.31669902801514	0.05001187324523926
10	25.265301942825317	response	0	2		8.0	2.5	/experiments/knapen_aot/videos/R_S_comp_A105_C002_v06_SDR_FINAL_25062018_SDR_2K_AVC.mp4	0.0	166.35845685005188	
10	25.273555994033813	movie	1		165.0	8.0	2.5	/experiments/knapen_aot/videos/R_S_comp_A105_C002_v06_SDR_FINAL_25062018_SDR_2K_AVC.mp4	0.0	166.36671090126038	2.5082621574401855
10	27.781818151474	fix_post	2		12.0	8.0	2.5	/experiments/knapen_aot/videos/R_S_comp_A105_C002_v06_SDR_FINAL_25062018_SDR_2K_AVC.mp4	0.0	168.87497305870056	0.10006999969482422
11	27.881888151168823	fix_pre	0		5.0	9.0	2.5	/experiments/knapen_aot/videos/S_yt-aiWUhl8MCto_71.mp4	0.0	168.97504305839539	0.041629791259765625
11	27.915302991867065	response	0	2		9.0	2.5	/experiments/knapen_aot/videos/S_yt-aiWUhl8MCto_71.mp4	0.0	169.00845789909363	
11	27.92351794242859	movie	1		301.0	9.0	2.5	/experiments/knapen_aot/videos/S_yt-aiWUhl8MCto_71.mp4	0.0	169.01667284965515	2.5083541870117188
11	29.79116415977478	response	1	2		9.0	2.5	/experiments/knapen_aot/videos/S_yt-aiWUhl8MCto_71.mp4	0.0	170.88431906700134	
11	30.215364933013916	response	1	2		9.0	2.5	/experiments/knapen_aot/videos/S_yt-aiWUhl8MCto_71.mp4	0.0	171.30851984024048	
11	30.431872129440308	fix_post	2		12.0	9.0	2.5	/experiments/knapen_aot/videos/S_yt-aiWUhl8MCto_71.mp4	0.0	171.52502703666687	0.09994387626647949
12	30.531816005706787	fix_pre	0		18.0	10.0	2.5	/experiments/knapen_aot/videos/R_S_ILSVRC2015_train_00324002.mp4	0.0	171.62497091293335	0.15001797676086426
12	30.67360806465149	response	0	2		10.0	2.5	/experiments/knapen_aot/videos/R_S_ILSVRC2015_train_00324002.mp4	0.0	171.76676297187805	
12	30.68183398246765	movie	1		301.0	10.0	2.5	/experiments/knapen_aot/videos/R_S_ILSVRC2015_train_00324002.mp4	0.0	171.7749888896942	2.508471965789795
12	33.190305948257446	fix_post	2		12.0	10.0	2.5	/experiments/knapen_aot/videos/R_S_ILSVRC2015_train_00324002.mp4	0.0	174.283460855484	0.09989500045776367
13	33.29020094871521	fix_pre	0		7.0	11.0	2.5	/experiments/knapen_aot/videos/R_S_yt-SgiTZNjCPCo_19.mp4	0.0	174.38335585594177	0.05829310417175293
13	33.340309143066406	response	0	2		11.0	2.5	/experiments/knapen_aot/videos/R_S_yt-SgiTZNjCPCo_19.mp4	0.0	174.43346405029297	
13	33.34849405288696	movie	1		301.0	11.0	2.5	/experiments/knapen_aot/videos/R_S_yt-SgiTZNjCPCo_19.mp4	0.0	174.44164896011353	2.5083470344543457
13	35.44859600067139	response	1	2		11.0	2.5	/experiments/knapen_aot/videos/R_S_yt-SgiTZNjCPCo_19.mp4	0.0	176.54175090789795	
13	35.78192400932312	response	1	2		11.0	2.5	/experiments/knapen_aot/videos/R_S_yt-SgiTZNjCPCo_19.mp4	0.0	176.87507891654968	
13	35.85684108734131	fix_post	2		12.0	11.0	2.5	/experiments/knapen_aot/videos/R_S_yt-SgiTZNjCPCo_19.mp4	0.0	176.94999599456787	0.10000300407409668
14	35.956844091415405	fix_pre	0		24.0	12.0	2.5	/experiments/knapen_aot/videos/R_S_video.mp4	0.0	177.04999899864197	0.19996190071105957
14	36.1485960483551	response	0	2		12.0	2.5	/experiments/knapen_aot/videos/R_S_video.mp4	0.0	177.24175095558167	
14	36.156805992126465	movie	1		167.0	12.0	2.5	/experiments/knapen_aot/videos/R_S_video.mp4	0.0	177.24996089935303	2.5084080696105957
14	38.66521406173706	fix_post	2		12.0	12.0	2.5	/experiments/knapen_aot/videos/R_S_video.mp4	0.0	179.75836896896362	0.09999990463256836
14	38.66792011260986	response	2	2		12.0	2.5	/experiments/knapen_aot/videos/R_S_video.mp4	0.0	179.76107501983643	
15	38.76521396636963	fix_pre	0		24.0	13.0	2.5	blank	1.0	179.8583688735962	0.19995903968811035
15	38.956939935684204	response	0	2		13.0	2.5	blank	1.0	180.05009484291077	
15	38.96517300605774	movie	1		301.0	13.0	2.5	blank	1.0	180.0583279132843	2.5083179473876953
15	41.473490953445435	fix_post	2		12.0	13.0	2.5	blank	1.0	182.566645860672	0.10005617141723633
16	41.57354712486267	fix_pre	0		8.0	14.0	2.5	/experiments/knapen_aot/videos/R_S_yt-rlEPywo5BEQ_36.mp4	0.0	182.66670203208923	0.06660699844360352
16	41.63187313079834	response	0	2		14.0	2.5	/experiments/knapen_aot/videos/R_S_yt-rlEPywo5BEQ_36.mp4	0.0	182.7250280380249	
16	41.640154123306274	movie	1		301.0	14.0	2.5	/experiments/knapen_aot/videos/R_S_yt-rlEPywo5BEQ_36.mp4	0.0	182.73330903053284	2.508349895477295
16	44.14850401878357	fix_post	2		12.0	14.0	2.5	/experiments/knapen_aot/videos/R_S_yt-rlEPywo5BEQ_36.mp4	0.0	185.24165892601013	0.09998703002929688
16	44.150323152542114	response	2	2		14.0	2.5	/experiments/knapen_aot/videos/R_S_yt-rlEPywo5BEQ_36.mp4	0.0	185.24347805976868	
17	44.248491048812866	fix_pre	0		21.0	15.0	2.5	/experiments/knapen_aot/videos/R_S_g201_TH_803_A001_8_SDR_20191031_SDR_2K_AVC.mp4	0.0	185.34164595603943	0.17498397827148438
17	44.415234088897705	response	0	2		15.0	2.5	/experiments/knapen_aot/videos/R_S_g201_TH_803_A001_8_SDR_20191031_SDR_2K_AVC.mp4	0.0	185.50838899612427	
17	44.42347502708435	movie	1		167.0	15.0	2.5	/experiments/knapen_aot/videos/R_S_g201_TH_803_A001_8_SDR_20191031_SDR_2K_AVC.mp4	0.0	185.5166299343109	2.508319139480591
17	46.75333499908447	response	1	2		15.0	2.5	/experiments/knapen_aot/videos/R_S_g201_TH_803_A001_8_SDR_20191031_SDR_2K_AVC.mp4	0.0	187.84648990631104	
17	46.93179416656494	fix_post	2		12.0	15.0	2.5	/experiments/knapen_aot/videos/R_S_g201_TH_803_A001_8_SDR_20191031_SDR_2K_AVC.mp4	0.0	188.0249490737915	0.09999680519104004
18	47.03179097175598	fix_pre	0		9.0	16.0	2.5	/experiments/knapen_aot/videos/S_yt-l_pvPAznG1A_20.mp4	0.0	188.12494587898254	0.0749671459197998
18	47.098525047302246	response	0	2		16.0	2.5	/experiments/knapen_aot/videos/S_yt-l_pvPAznG1A_20.mp4	0.0	188.1916799545288	
18	47.10675811767578	movie	1		300.0	16.0	2.5	/experiments/knapen_aot/videos/S_yt-l_pvPAznG1A_20.mp4	0.0	188.19991302490234	2.5083799362182617
18	49.090299129486084	response	1	2		16.0	2.5	/experiments/knapen_aot/videos/S_yt-l_pvPAznG1A_20.mp4	0.0	190.18345403671265	
18	49.44015097618103	response	1	2		16.0	2.5	/experiments/knapen_aot/videos/S_yt-l_pvPAznG1A_20.mp4	0.0	190.5333058834076	
18	49.61513805389404	fix_post	2		12.0	16.0	2.5	/experiments/knapen_aot/videos/S_yt-l_pvPAznG1A_20.mp4	0.0	190.7082929611206	0.0999610424041748
19	49.71509909629822	fix_pre	0		10.0	17.0	2.5	/experiments/knapen_aot/videos/S_yt-Iu2ZPHLqXuY_32.mp4	0.0	190.80825400352478	0.08330202102661133
19	49.79021096229553	response	0	2		17.0	2.5	/experiments/knapen_aot/videos/S_yt-Iu2ZPHLqXuY_32.mp4	0.0	190.8833658695221	
19	49.79840111732483	movie	1		301.0	17.0	2.5	/experiments/knapen_aot/videos/S_yt-Iu2ZPHLqXuY_32.mp4	0.0	190.8915560245514	2.5084388256073
19	52.231887102127075	response	1	2		17.0	2.5	/experiments/knapen_aot/videos/S_yt-Iu2ZPHLqXuY_32.mp4	0.0	193.32504200935364	
19	52.30683994293213	fix_post	2		12.0	17.0	2.5	/experiments/knapen_aot/videos/S_yt-Iu2ZPHLqXuY_32.mp4	0.0	193.3999948501587	0.09997820854187012
20	52.406818151474	fix_pre	0		19.0	18.0	2.5	/experiments/knapen_aot/videos/S_yt-FsXOl6JjzSY_15.mp4	0.0	193.49997305870056	0.15822696685791016
20	52.55674505233765	response	0	2		18.0	2.5	/experiments/knapen_aot/videos/S_yt-FsXOl6JjzSY_15.mp4	0.0	193.6498999595642	
20	52.56504511833191	movie	1		301.0	18.0	2.5	/experiments/knapen_aot/videos/S_yt-FsXOl6JjzSY_15.mp4	0.0	193.65820002555847	2.5083909034729004
20	55.07343602180481	fix_post	2		12.0	18.0	2.5	/experiments/knapen_aot/videos/S_yt-FsXOl6JjzSY_15.mp4	0.0	196.16659092903137	0.10018301010131836
21	55.17361903190613	fix_pre	0		10.0	19.0	2.5	/experiments/knapen_aot/videos/S_yt-wz2opOBqClo_14.mp4	0.0	196.2667739391327	0.08312201499938965
21	55.24101996421814	response	0	2		19.0	2.5	/experiments/knapen_aot/videos/S_yt-wz2opOBqClo_14.mp4	0.0	196.3341748714447	
21	55.25674104690552	movie	1		301.0	19.0	2.5	/experiments/knapen_aot/videos/S_yt-wz2opOBqClo_14.mp4	0.0	196.34989595413208	2.5083041191101074
21	57.765045166015625	fix_post	2		12.0	19.0	2.5	/experiments/knapen_aot/videos/S_yt-wz2opOBqClo_14.mp4	0.0	198.8582000732422	0.10008788108825684
22	57.86513304710388	fix_pre	0		27.0	20.0	2.5	blank	1.0	198.95828795433044	0.224931001663208
22	58.0818030834198	response	0	2		20.0	2.5	blank	1.0	199.17495799064636	
22	58.09006404876709	movie	1		301.0	20.0	2.5	blank	1.0	199.18321895599365	2.5082550048828125
22	60.5983190536499	fix_post	2		12.0	20.0	2.5	blank	1.0	201.69147396087646	0.10008907318115234
23	60.698408126831055	fix_pre	0		14.0	21.0	2.5	/experiments/knapen_aot/videos/R_S_yt-GWO7FHN1Jb4_142.mp4	0.0	201.79156303405762	0.1166219711303711
23	60.80686712265015	response	0	2		21.0	2.5	/experiments/knapen_aot/videos/R_S_yt-GWO7FHN1Jb4_142.mp4	0.0	201.9000220298767	
23	60.815030097961426	movie	1		301.0	21.0	2.5	/experiments/knapen_aot/videos/R_S_yt-GWO7FHN1Jb4_142.mp4	0.0	201.908185005188	2.5086259841918945
23	63.32365608215332	fix_post	2		12.0	21.0	2.5	/experiments/knapen_aot/videos/R_S_yt-GWO7FHN1Jb4_142.mp4	0.0	204.41681098937988	0.09972500801086426
24	63.423381090164185	fix_pre	0		17.0	22.0	2.5	/experiments/knapen_aot/videos/S_yt-EApB0DJ3ECg_119.mp4	0.0	204.51653599739075	0.14163589477539062
24	63.5568311214447	response	0	2		22.0	2.5	/experiments/knapen_aot/videos/S_yt-EApB0DJ3ECg_119.mp4	0.0	204.64998602867126	
24	63.565016984939575	movie	1		301.0	22.0	2.5	/experiments/knapen_aot/videos/S_yt-EApB0DJ3ECg_119.mp4	0.0	204.65817189216614	2.50839900970459
24	66.07341599464417	fix_post	2		12.0	22.0	2.5	/experiments/knapen_aot/videos/S_yt-EApB0DJ3ECg_119.mp4	0.0	207.16657090187073	0.09989094734191895
25	66.17330694198608	fix_pre	0		28.0	23.0	2.5	/experiments/knapen_aot/videos/S_yt-CeOZeB1LXwE_79.mp4	0.0	207.26646184921265	0.2333531379699707
25	66.39091801643372	response	0	2		23.0	2.5	/experiments/knapen_aot/videos/S_yt-CeOZeB1LXwE_79.mp4	0.0	207.48407292366028	
25	66.40666007995605	movie	1		301.0	23.0	2.5	/experiments/knapen_aot/videos/S_yt-CeOZeB1LXwE_79.mp4	0.0	207.49981498718262	2.50839900970459
25	68.91505908966064	fix_post	2		12.0	23.0	2.5	/experiments/knapen_aot/videos/S_yt-CeOZeB1LXwE_79.mp4	0.0	210.0082139968872	0.0999898910522461
26	69.01504898071289	fix_pre	0		4.0	24.0	2.5	/experiments/knapen_aot/videos/S_yt-tNCrkObhB6c_17.mp4	0.0	210.10820388793945	0.03324604034423828
26	69.04026198387146	response	0	2		24.0	2.5	/experiments/knapen_aot/videos/S_yt-tNCrkObhB6c_17.mp4	0.0	210.13341689109802	
26	69.04829502105713	movie	1		301.0	24.0	2.5	/experiments/knapen_aot/videos/S_yt-tNCrkObhB6c_17.mp4	0.0	210.1414499282837	2.508453130722046
26	71.55674815177917	fix_post	2		12.0	24.0	2.5	/experiments/knapen_aot/videos/S_yt-tNCrkObhB6c_17.mp4	0.0	212.64990305900574	0.09990787506103516
27	71.65665602684021	fix_pre	0		9.0	25.0	2.5	/experiments/knapen_aot/videos/R_S_yt-9EnchawJ3pA_90.mp4	0.0	212.74981093406677	0.07508611679077148
27	71.72338914871216	response	0	2		25.0	2.5	/experiments/knapen_aot/videos/R_S_yt-9EnchawJ3pA_90.mp4	0.0	212.81654405593872	
27	71.73174214363098	movie	1		301.0	25.0	2.5	/experiments/knapen_aot/videos/R_S_yt-9EnchawJ3pA_90.mp4	0.0	212.82489705085754	2.5082859992980957
27	74.24002814292908	fix_post	2		12.0	25.0	2.5	/experiments/knapen_aot/videos/R_S_yt-9EnchawJ3pA_90.mp4	0.0	215.33318305015564	0.09996581077575684
28	74.33999395370483	fix_pre	0		30.0	26.0	2.5	blank	1.0	215.4331488609314	0.2500190734863281
28	74.57427906990051	response	0	2		26.0	2.5	blank	1.0	215.66743397712708	
28	74.59001302719116	movie	1		301.0	26.0	2.5	blank	1.0	215.68316793441772	2.508384943008423
28	77.09839797019958	fix_post	2		12.0	26.0	2.5	blank	1.0	218.19155287742615	0.1002511978149414
29	77.19864916801453	fix_pre	0		30.0	27.0	2.5	/experiments/knapen_aot/videos/R_S_ILSVRC2015_train_00463000.mp4	0.0	218.2918040752411	0.24961590766906738
29	77.44003915786743	response	0	2		27.0	2.5	/experiments/knapen_aot/videos/R_S_ILSVRC2015_train_00463000.mp4	0.0	218.533194065094	
29	77.4482650756836	movie	1		301.0	27.0	2.5	/experiments/knapen_aot/videos/R_S_ILSVRC2015_train_00463000.mp4	0.0	218.54141998291016	2.508435010910034
29	79.95670008659363	fix_post	2		12.0	27.0	2.5	/experiments/knapen_aot/videos/R_S_ILSVRC2015_train_00463000.mp4	0.0	221.0498549938202	0.09985494613647461
30	80.0565550327301	fix_pre	0		21.0	28.0	2.5	/experiments/knapen_aot/videos/S_yt-bH4nJibL4Jo_164.mp4	0.0	221.14970993995667	0.1750659942626953
30	80.22329902648926	response	0	2		28.0	2.5	/experiments/knapen_aot/videos/S_yt-bH4nJibL4Jo_164.mp4	0.0	221.31645393371582	
30	80.2316210269928	movie	1		301.0	28.0	2.5	/experiments/knapen_aot/videos/S_yt-bH4nJibL4Jo_164.mp4	0.0	221.32477593421936	2.5083389282226562
30	82.73995995521545	fix_post	2		12.0	28.0	2.5	/experiments/knapen_aot/videos/S_yt-bH4nJibL4Jo_164.mp4	0.0	223.83311486244202	0.09997916221618652
31	82.83993911743164	fix_pre	0		16.0	29.0	2.5	/experiments/knapen_aot/videos/S_comp_L004_C011_PS_v01_SDR_PS_20180925_SDR_2K_AVC.mp4	0.0	223.9330940246582	0.1332378387451172
31	82.96506714820862	response	0	2		29.0	2.5	/experiments/knapen_aot/videos/S_comp_L004_C011_PS_v01_SDR_PS_20180925_SDR_2K_AVC.mp4	0.0	224.05822205543518	
31	82.97317695617676	movie	1		162.0	29.0	2.5	/experiments/knapen_aot/videos/S_comp_L004_C011_PS_v01_SDR_PS_20180925_SDR_2K_AVC.mp4	0.0	224.06633186340332	2.5086381435394287
31	85.48181509971619	fix_post	2		12.0	29.0	2.5	/experiments/knapen_aot/videos/S_comp_L004_C011_PS_v01_SDR_PS_20180925_SDR_2K_AVC.mp4	0.0	226.57497000694275	0.0998070240020752
32	85.58162212371826	fix_pre	0		9.0	30.0	2.5	/experiments/knapen_aot/videos/R_S_video_inspire_oregon_lone-ranch-beach_00001.1080-h264.mp4	0.0	226.67477703094482	0.07498288154602051
32	85.64835715293884	response	0	2		30.0	2.5	/experiments/knapen_aot/videos/R_S_video_inspire_oregon_lone-ranch-beach_00001.1080-h264.mp4	0.0	226.7415120601654	
32	85.65660500526428	movie	1		167.0	30.0	2.5	/experiments/knapen_aot/videos/R_S_video_inspire_oregon_lone-ranch-beach_00001.1080-h264.mp4	0.0	226.74975991249084	2.5084290504455566
32	88.16503405570984	fix_post	2		12.0	30.0	2.5	/experiments/knapen_aot/videos/R_S_video_inspire_oregon_lone-ranch-beach_00001.1080-h264.mp4	0.0	229.2581889629364	0.09989404678344727
33	88.26492810249329	fix_pre	0		6.0	31.0	2.5	/experiments/knapen_aot/videos/S_ILSVRC2015_train_00463000.mp4	0.0	229.35808300971985	0.04996490478515625
33	88.29920506477356	response	0	2		31.0	2.5	/experiments/knapen_aot/videos/S_ILSVRC2015_train_00463000.mp4	0.0	229.39235997200012	
33	88.31489300727844	movie	1		301.0	31.0	2.5	/experiments/knapen_aot/videos/S_ILSVRC2015_train_00463000.mp4	0.0	229.408047914505	2.508329153060913
33	90.82322216033936	fix_post	2		12.0	31.0	2.5	/experiments/knapen_aot/videos/S_ILSVRC2015_train_00463000.mp4	0.0	231.91637706756592	0.10001587867736816
34	90.92323803901672	fix_pre	0		13.0	32.0	2.5	/experiments/knapen_aot/videos/S_yt-2kPrGwVmRfE_169.mp4	0.0	232.0163929462433	0.10831308364868164
34	91.02326011657715	response	0	2		32.0	2.5	/experiments/knapen_aot/videos/S_yt-2kPrGwVmRfE_169.mp4	0.0	232.1164150238037	
34	91.0315511226654	movie	1		301.0	32.0	2.5	/experiments/knapen_aot/videos/S_yt-2kPrGwVmRfE_169.mp4	0.0	232.12470602989197	2.5083999633789062
34	93.53995108604431	fix_post	2		12.0	32.0	2.5	/experiments/knapen_aot/videos/S_yt-2kPrGwVmRfE_169.mp4	0.0	234.63310599327087	0.10009098052978516
35	93.6400420665741	fix_pre	0		20.0	33.0	2.5	blank	1.0	234.73319697380066	0.16656708717346191
35	93.79835796356201	response	0	2		33.0	2.5	blank	1.0	234.89151287078857	
35	93.80660915374756	movie	1		301.0	33.0	2.5	blank	1.0	234.89976406097412	2.50837779045105
35	96.31498694419861	fix_post	2		12.0	33.0	2.5	blank	1.0	237.40814185142517	0.09989500045776367
36	96.41488194465637	fix_pre	0		23.0	34.0	2.5	/experiments/knapen_aot/videos/S_flickr-csgzs-8144064966_10.mp4	0.0	237.50803685188293	0.1916651725769043
36	96.5907850265503	response	0	2		34.0	2.5	/experiments/knapen_aot/videos/S_flickr-csgzs-8144064966_10.mp4	0.0	237.68393993377686	
36	96.60654711723328	movie	1		301.0	34.0	2.5	/experiments/knapen_aot/videos/S_flickr-csgzs-8144064966_10.mp4	0.0	237.69970202445984	2.5083749294281006
36	99.11492204666138	fix_post	2		12.0	34.0	2.5	/experiments/knapen_aot/videos/S_flickr-csgzs-8144064966_10.mp4	0.0	240.20807695388794	0.09991312026977539
37	99.21483516693115	fix_pre	0		19.0	35.0	2.5	/experiments/knapen_aot/videos/R_S_yt-hdZEAsVBEEM_19.mp4	0.0	240.30799007415771	0.15886282920837402
37	99.36497497558594	response	0	2		35.0	2.5	/experiments/knapen_aot/videos/R_S_yt-hdZEAsVBEEM_19.mp4	0.0	240.4581298828125	
37	99.37369799613953	movie	1		301.0	35.0	2.5	/experiments/knapen_aot/videos/R_S_yt-hdZEAsVBEEM_19.mp4	0.0	240.4668529033661	2.5078821182250977
37	101.88158011436462	fix_post	2		12.0	35.0	2.5	/experiments/knapen_aot/videos/R_S_yt-hdZEAsVBEEM_19.mp4	0.0	242.9747350215912	0.10019302368164062
38	101.98177313804626	fix_pre	0		23.0	36.0	2.5	/experiments/knapen_aot/videos/S_video_inspire_sanfrancisco_castro_005.1080-h264.mp4	0.0	243.07492804527283	0.19143080711364746
38	102.16490817070007	response	0	2		36.0	2.5	/experiments/knapen_aot/videos/S_video_inspire_sanfrancisco_castro_005.1080-h264.mp4	0.0	243.25806307792664	
38	102.17320394515991	movie	1		167.0	36.0	2.5	/experiments/knapen_aot/videos/S_video_inspire_sanfrancisco_castro_005.1080-h264.mp4	0.0	243.26635885238647	2.5083651542663574
38	104.68156909942627	fix_post	2		12.0	36.0	2.5	/experiments/knapen_aot/videos/S_video_inspire_sanfrancisco_castro_005.1080-h264.mp4	0.0	245.77472400665283	0.09999585151672363
39	104.781564950943	fix_pre	0		10.0	37.0	2.5	/experiments/knapen_aot/videos/R_S_yt-dWF89kq2JIA_13.mp4	0.0	245.87471985816956	0.08322620391845703
39	104.85680603981018	response	0	2		37.0	2.5	/experiments/knapen_aot/videos/R_S_yt-dWF89kq2JIA_13.mp4	0.0	245.94996094703674	
39	104.86479115486145	movie	1		301.0	37.0	2.5	/experiments/knapen_aot/videos/R_S_yt-dWF89kq2JIA_13.mp4	0.0	245.957946062088	2.50839900970459
39	107.37319016456604	fix_post	2		12.0	37.0	2.5	/experiments/knapen_aot/videos/R_S_yt-dWF89kq2JIA_13.mp4	0.0	248.4663450717926	0.10010695457458496
40	107.47329711914062	fix_pre	0		15.0	38.0	2.5	/experiments/knapen_aot/videos/R_S_yt-UBqUhu-GEVg_6.mp4	0.0	248.5664520263672	0.12487196922302246
40	107.58995509147644	response	0	2		38.0	2.5	/experiments/knapen_aot/videos/R_S_yt-UBqUhu-GEVg_6.mp4	0.0	248.683109998703	
40	107.59816908836365	movie	1		301.0	38.0	2.5	/experiments/knapen_aot/videos/R_S_yt-UBqUhu-GEVg_6.mp4	0.0	248.6913239955902	2.5083398818969727
40	110.10650897026062	fix_post	2		12.0	38.0	2.5	/experiments/knapen_aot/videos/R_S_yt-UBqUhu-GEVg_6.mp4	0.0	251.19966387748718	0.09998416900634766
41	110.20649313926697	fix_pre	0		10.0	39.0	2.5	/experiments/knapen_aot/videos/R_S_yt-x7TqP8l4lCA_39.mp4	0.0	251.29964804649353	0.08375883102416992
41	110.28161001205444	response	0	2		39.0	2.5	/experiments/knapen_aot/videos/R_S_yt-x7TqP8l4lCA_39.mp4	0.0	251.374764919281	
41	110.29025197029114	movie	1		301.0	39.0	2.5	/experiments/knapen_aot/videos/R_S_yt-x7TqP8l4lCA_39.mp4	0.0	251.3834068775177	2.5079121589660645
41	112.7981641292572	fix_post	2		12.0	39.0	2.5	/experiments/knapen_aot/videos/R_S_yt-x7TqP8l4lCA_39.mp4	0.0	253.89131903648376	0.10000300407409668
42	112.8981671333313	fix_pre	0		22.0	40.0	2.5	/experiments/knapen_aot/videos/R_S_yt-pB9w3AA-woE_37.mp4	0.0	253.99132204055786	0.18395090103149414
42	113.0732650756836	response	0	2		40.0	2.5	/experiments/knapen_aot/videos/R_S_yt-pB9w3AA-woE_37.mp4	0.0	254.16641998291016	
42	113.0821180343628	movie	1		301.0	40.0	2.5	/experiments/knapen_aot/videos/R_S_yt-pB9w3AA-woE_37.mp4	0.0	254.17527294158936	2.507681131362915
42	115.58979916572571	fix_post	2		12.0	40.0	2.5	/experiments/knapen_aot/videos/R_S_yt-pB9w3AA-woE_37.mp4	0.0	256.68295407295227	0.09999585151672363
43	115.68979501724243	fix_pre	0		16.0	41.0	2.5	blank	1.0	256.782949924469	0.1333310604095459
43	115.81486916542053	response	0	2		41.0	2.5	blank	1.0	256.9080240726471	
43	115.82312607765198	movie	1		301.0	41.0	2.5	blank	1.0	256.91628098487854	2.508418083190918
43	118.3315441608429	fix_post	2		12.0	41.0	2.5	blank	1.0	259.42469906806946	0.1001138687133789
44	118.43165802955627	fix_pre	0		51.0	42.0	2.5	/experiments/knapen_aot/videos/R_S_yt--5ls65Ue1RA_52.mp4	0.0	259.52481293678284	0.424731969833374
44	118.84823298454285	response	0	2		42.0	2.5	/experiments/knapen_aot/videos/R_S_yt--5ls65Ue1RA_52.mp4	0.0	259.9413878917694	
44	118.85638999938965	movie	1		301.0	42.0	2.5	/experiments/knapen_aot/videos/R_S_yt--5ls65Ue1RA_52.mp4	0.0	259.9495449066162	2.50858211517334
44	121.36497211456299	fix_post	2		12.0	42.0	2.5	/experiments/knapen_aot/videos/R_S_yt--5ls65Ue1RA_52.mp4	0.0	262.45812702178955	0.0998380184173584
45	121.46481013298035	fix_pre	0		3.0	43.0	2.5	/experiments/knapen_aot/videos/R_S_comp_DB_D011_D009_SIGNCMP_v15_6Mbps.mp4	0.0	262.5579650402069	0.02676987648010254
45	121.48160815238953	response	0	2		43.0	2.5	/experiments/knapen_aot/videos/R_S_comp_DB_D011_D009_SIGNCMP_v15_6Mbps.mp4	0.0	262.5747630596161	
45	121.49158000946045	movie	1		168.0	43.0	2.5	/experiments/knapen_aot/videos/R_S_comp_DB_D011_D009_SIGNCMP_v15_6Mbps.mp4	0.0	262.584734916687	2.5065300464630127
45	123.99811005592346	fix_post	2		12.0	43.0	2.5	/experiments/knapen_aot/videos/R_S_comp_DB_D011_D009_SIGNCMP_v15_6Mbps.mp4	0.0	265.09126496315	0.09997701644897461
46	124.09808707237244	fix_pre	0		11.0	44.0	2.5	/experiments/knapen_aot/videos/S_yt-wz2opOBqClo_14.mp4	0.0	265.191241979599	0.09164094924926758
46	124.1739649772644	response	0	2		44.0	2.5	/experiments/knapen_aot/videos/S_yt-wz2opOBqClo_14.mp4	0.0	265.26711988449097	
46	124.1897280216217	movie	1		301.0	44.0	2.5	/experiments/knapen_aot/videos/S_yt-wz2opOBqClo_14.mp4	0.0	265.28288292884827	2.508492946624756
46	126.69822096824646	fix_post	2		12.0	44.0	2.5	/experiments/knapen_aot/videos/S_yt-wz2opOBqClo_14.mp4	0.0	267.791375875473	0.1000211238861084
47	126.79824209213257	fix_pre	0		18.0	45.0	2.5	/experiments/knapen_aot/videos/S_pexels-koolshooters-7327412.mp4	0.0	267.89139699935913	0.14980697631835938
47	126.9398820400238	response	0	2		45.0	2.5	/experiments/knapen_aot/videos/S_pexels-koolshooters-7327412.mp4	0.0	268.03303694725037	
47	126.94804906845093	movie	1		163.0	45.0	2.5	/experiments/knapen_aot/videos/S_pexels-koolshooters-7327412.mp4	0.0	268.0412039756775	2.5085549354553223
47	129.45660400390625	fix_post	2		12.0	45.0	2.5	/experiments/knapen_aot/videos/S_pexels-koolshooters-7327412.mp4	0.0	270.5497589111328	0.09975004196166992
47	129.54808497428894	response	2	2		45.0	2.5	/experiments/knapen_aot/videos/S_pexels-koolshooters-7327412.mp4	0.0	270.6412398815155	
48	129.55635404586792	fix_pre	0		47.0	46.0	2.5	/experiments/knapen_aot/videos/S_production_ID_4122384.mp4	0.0	270.6495089530945	0.3916599750518799
48	129.9398500919342	response	0	2		46.0	2.5	/experiments/knapen_aot/videos/S_production_ID_4122384.mp4	0.0	271.03300499916077	
48	129.9480140209198	movie	1		167.0	46.0	2.5	/experiments/knapen_aot/videos/S_production_ID_4122384.mp4	0.0	271.04116892814636	2.5084099769592285
48	132.45642399787903	fix_post	2		12.0	46.0	2.5	/experiments/knapen_aot/videos/S_production_ID_4122384.mp4	0.0	273.5495789051056	0.09993815422058105
48	132.48150610923767	response	2	2		46.0	2.5	/experiments/knapen_aot/videos/S_production_ID_4122384.mp4	0.0	273.57466101646423	
49	132.5563621520996	fix_pre	0		51.0	47.0	2.5	/experiments/knapen_aot/videos/S_wc-PqINyFk_ku4u_18.mp4	0.0	273.6495170593262	0.4250059127807617
49	132.97317504882812	response	0	2		47.0	2.5	/experiments/knapen_aot/videos/S_wc-PqINyFk_ku4u_18.mp4	0.0	274.0663299560547	
49	132.98136806488037	movie	1		162.0	47.0	2.5	/experiments/knapen_aot/videos/S_wc-PqINyFk_ku4u_18.mp4	0.0	274.07452297210693	2.508415937423706
49	135.48978400230408	fix_post	2		12.0	47.0	2.5	/experiments/knapen_aot/videos/S_wc-PqINyFk_ku4u_18.mp4	0.0	276.58293890953064	0.09989094734191895
49	135.58150100708008	response	2	2		47.0	2.5	/experiments/knapen_aot/videos/S_wc-PqINyFk_ku4u_18.mp4	0.0	276.67465591430664	
50	135.589674949646	fix_pre	0		46.0	48.0	2.5	/experiments/knapen_aot/videos/R_S_yt-tNCrkObhB6c_17.mp4	0.0	276.68282985687256	0.3833479881286621
50	135.9647979736328	response	0	2		48.0	2.5	/experiments/knapen_aot/videos/R_S_yt-tNCrkObhB6c_17.mp4	0.0	277.0579528808594	
50	135.97302293777466	movie	1		301.0	48.0	2.5	/experiments/knapen_aot/videos/R_S_yt-tNCrkObhB6c_17.mp4	0.0	277.0661778450012	2.508334159851074
50	138.48135709762573	fix_post	2		12.0	48.0	2.5	/experiments/knapen_aot/videos/R_S_yt-tNCrkObhB6c_17.mp4	0.0	279.5745120048523	0.1001138687133789
50	138.52320504188538	response	2	2		48.0	2.5	/experiments/knapen_aot/videos/R_S_yt-tNCrkObhB6c_17.mp4	0.0	279.61635994911194	
51	138.5814709663391	fix_pre	0		45.0	49.0	2.5	blank	1.0	279.6746258735657	0.3753011226654053
51	138.9481520652771	response	0	2		49.0	2.5	blank	1.0	280.04130697250366	
51	138.95677208900452	movie	1		301.0	49.0	2.5	blank	1.0	280.0499269962311	2.50785493850708
51	141.4646270275116	fix_post	2		12.0	49.0	2.5	blank	1.0	282.55778193473816	0.10011911392211914
52	141.56474614143372	fix_pre	0		35.0	50.0	2.5	/experiments/knapen_aot/videos/S_yt-VMUSo8E_Fj8_171.mp4	0.0	282.6579010486603	0.29155397415161133
52	141.84064507484436	response	0	2		50.0	2.5	/experiments/knapen_aot/videos/S_yt-VMUSo8E_Fj8_171.mp4	0.0	282.9337999820709	
52	141.85630011558533	movie	1		301.0	50.0	2.5	/experiments/knapen_aot/videos/S_yt-VMUSo8E_Fj8_171.mp4	0.0	282.9494550228119	2.5083730220794678
52	144.3646731376648	fix_post	2		12.0	50.0	2.5	/experiments/knapen_aot/videos/S_yt-VMUSo8E_Fj8_171.mp4	0.0	285.45782804489136	0.10001587867736816
53	144.46468901634216	fix_pre	0		5.0	51.0	2.5	/experiments/knapen_aot/videos/S_yt-bhiGMKSAz2g_370.mp4	0.0	285.5578439235687	0.04162001609802246
53	144.49868416786194	response	0	2		51.0	2.5	/experiments/knapen_aot/videos/S_yt-bhiGMKSAz2g_370.mp4	0.0	285.5918390750885	
53	144.50630903244019	movie	1		301.0	51.0	2.5	/experiments/knapen_aot/videos/S_yt-bhiGMKSAz2g_370.mp4	0.0	285.59946393966675	2.5083839893341064
53	147.0146930217743	fix_post	2		12.0	51.0	2.5	/experiments/knapen_aot/videos/S_yt-bhiGMKSAz2g_370.mp4	0.0	288.10784792900085	0.09999895095825195
54	147.11469197273254	fix_pre	0		9.0	52.0	2.5	/experiments/knapen_aot/videos/S_yt-MTo50ReVNmU_2.mp4	0.0	288.2078468799591	0.07492518424987793
54	147.1814000606537	response	0	2		52.0	2.5	/experiments/knapen_aot/videos/S_yt-MTo50ReVNmU_2.mp4	0.0	288.27455496788025	
54	147.18961715698242	movie	1		301.0	52.0	2.5	/experiments/knapen_aot/videos/S_yt-MTo50ReVNmU_2.mp4	0.0	288.282772064209	2.508403778076172
54	149.6980209350586	fix_post	2		12.0	52.0	2.5	/experiments/knapen_aot/videos/S_yt-MTo50ReVNmU_2.mp4	0.0	290.79117584228516	0.10004210472106934
55	149.79806303977966	fix_pre	0		10.0	53.0	2.5	/experiments/knapen_aot/videos/S_yt-ZzC953ahaxs_195.mp4	0.0	290.8912179470062	0.08334994316101074
55	149.87315607070923	response	0	2		53.0	2.5	/experiments/knapen_aot/videos/S_yt-ZzC953ahaxs_195.mp4	0.0	290.9663109779358	
55	149.88141298294067	movie	1		301.0	53.0	2.5	/experiments/knapen_aot/videos/S_yt-ZzC953ahaxs_195.mp4	0.0	290.97456789016724	2.508219003677368
55	152.38963198661804	fix_post	2		12.0	53.0	2.5	/experiments/knapen_aot/videos/S_yt-ZzC953ahaxs_195.mp4	0.0	293.4827868938446	0.10005497932434082
56	152.48968696594238	fix_pre	0		7.0	54.0	2.5	/experiments/knapen_aot/videos/R_S_Y004_C015_SDR_2K_AVC.mp4	0.0	293.58284187316895	0.0583341121673584
56	152.53978610038757	response	0	2		54.0	2.5	/experiments/knapen_aot/videos/R_S_Y004_C015_SDR_2K_AVC.mp4	0.0	293.63294100761414	
56	152.54802107810974	movie	1		170.0	54.0	2.5	/experiments/knapen_aot/videos/R_S_Y004_C015_SDR_2K_AVC.mp4	0.0	293.6411759853363	2.5083119869232178
56	155.05633306503296	fix_post	2		12.0	54.0	2.5	/experiments/knapen_aot/videos/R_S_Y004_C015_SDR_2K_AVC.mp4	0.0	296.1494879722595	0.09999203681945801
56	155.08977103233337	response	2	2		54.0	2.5	/experiments/knapen_aot/videos/R_S_Y004_C015_SDR_2K_AVC.mp4	0.0	296.18292593955994	
57	155.15632510185242	fix_pre	0		32.0	55.0	2.5	/experiments/knapen_aot/videos/S_yt-UBqUhu-GEVg_6.mp4	0.0	296.249480009079	0.2666740417480469
57	155.41492104530334	response	0	2		55.0	2.5	/experiments/knapen_aot/videos/S_yt-UBqUhu-GEVg_6.mp4	0.0	296.5080759525299	
57	155.42299914360046	movie	1		300.0	55.0	2.5	/experiments/knapen_aot/videos/S_yt-UBqUhu-GEVg_6.mp4	0.0	296.516154050827	2.508312940597534
57	157.931312084198	fix_post	2		12.0	55.0	2.5	/experiments/knapen_aot/videos/S_yt-UBqUhu-GEVg_6.mp4	0.0	299.02446699142456	0.09999489784240723
58	158.0313069820404	fix_pre	0		5.0	56.0	2.5	blank	1.0	299.12446188926697	0.04164600372314453
58	158.05752515792847	response	0	2		56.0	2.5	blank	1.0	299.15068006515503	
58	158.07295298576355	movie	1		301.0	56.0	2.5	blank	1.0	299.1661078929901	2.5085670948028564
58	160.5815200805664	fix_post	2		12.0	56.0	2.5	blank	1.0	301.67467498779297	0.09980297088623047
59	160.68132305145264	fix_pre	0		18.0	57.0	2.5	/experiments/knapen_aot/videos/R_S_wc-Mf8SQpviaD6D_17.mp4	0.0	301.7744779586792	0.1501150131225586
59	160.82305812835693	response	0	2		57.0	2.5	/experiments/knapen_aot/videos/R_S_wc-Mf8SQpviaD6D_17.mp4	0.0	301.9162130355835	
59	160.8314380645752	movie	1		172.0	57.0	2.5	/experiments/knapen_aot/videos/R_S_wc-Mf8SQpviaD6D_17.mp4	0.0	301.92459297180176	2.50811505317688
59	163.33137011528015	response	1	2		57.0	2.5	/experiments/knapen_aot/videos/R_S_wc-Mf8SQpviaD6D_17.mp4	0.0	304.4245250225067	
59	163.33955311775208	fix_post	2		12.0	57.0	2.5	/experiments/knapen_aot/videos/R_S_wc-Mf8SQpviaD6D_17.mp4	0.0	304.43270802497864	0.10008883476257324
60	163.43964195251465	fix_pre	0		33.0	58.0	2.5	/experiments/knapen_aot/videos/S_yt-wnQFgNEnHUI_109.mp4	0.0	304.5327968597412	0.27488112449645996
60	163.70634198188782	response	0	2		58.0	2.5	/experiments/knapen_aot/videos/S_yt-wnQFgNEnHUI_109.mp4	0.0	304.7994968891144	
60	163.7145230770111	movie	1		301.0	58.0	2.5	/experiments/knapen_aot/videos/S_yt-wnQFgNEnHUI_109.mp4	0.0	304.80767798423767	2.5083980560302734
60	166.22292113304138	fix_post	2		12.0	58.0	2.5	/experiments/knapen_aot/videos/S_yt-wnQFgNEnHUI_109.mp4	0.0	307.31607604026794	0.09999203681945801
61	166.32291316986084	fix_pre	0		10.0	59.0	2.5	/experiments/knapen_aot/videos/S_ILSVRC2015_train_00434000.mp4	0.0	307.4160680770874	0.08327794075012207
61	166.39805006980896	response	0	2		59.0	2.5	/experiments/knapen_aot/videos/S_ILSVRC2015_train_00434000.mp4	0.0	307.4912049770355	
61	166.40619111061096	movie	1		301.0	59.0	2.5	/experiments/knapen_aot/videos/S_ILSVRC2015_train_00434000.mp4	0.0	307.4993460178375	2.5084269046783447
61	168.9146180152893	fix_post	2		12.0	59.0	2.5	/experiments/knapen_aot/videos/S_ILSVRC2015_train_00434000.mp4	0.0	310.00777292251587	0.09992313385009766
62	169.0145411491394	fix_pre	0		14.0	60.0	2.5	/experiments/knapen_aot/videos/R_S_yt-gmiyqQDGN78_7.mp4	0.0	310.10769605636597	0.11661601066589355
62	169.12292909622192	response	0	2		60.0	2.5	/experiments/knapen_aot/videos/R_S_yt-gmiyqQDGN78_7.mp4	0.0	310.2160840034485	
62	169.1311571598053	movie	1		301.0	60.0	2.5	/experiments/knapen_aot/videos/R_S_yt-gmiyqQDGN78_7.mp4	0.0	310.22431206703186	2.5083978176116943
62	171.639554977417	fix_post	2		12.0	60.0	2.5	/experiments/knapen_aot/videos/R_S_yt-gmiyqQDGN78_7.mp4	0.0	312.73270988464355	0.10021018981933594
63	171.73976516723633	fix_pre	0		10.0	61.0	2.5	/experiments/knapen_aot/videos/S_yt-PCSXJ5YB_AE_3.mp4	0.0	312.8329200744629	0.08307099342346191
63	171.81468296051025	response	0	2		61.0	2.5	/experiments/knapen_aot/videos/S_yt-PCSXJ5YB_AE_3.mp4	0.0	312.9078378677368	
63	171.8228361606598	movie	1		301.0	61.0	2.5	/experiments/knapen_aot/videos/S_yt-PCSXJ5YB_AE_3.mp4	0.0	312.91599106788635	2.5084848403930664
63	174.33132100105286	fix_post	2		12.0	61.0	2.5	/experiments/knapen_aot/videos/S_yt-PCSXJ5YB_AE_3.mp4	0.0	315.4244759082794	0.09985995292663574
64	174.4311809539795	fix_pre	0		8.0	62.0	2.5	/experiments/knapen_aot/videos/S_yt-2i53vKte7SA_117.mp4	0.0	315.52433586120605	0.06678199768066406
64	174.48961806297302	response	0	2		62.0	2.5	/experiments/knapen_aot/videos/S_yt-2i53vKte7SA_117.mp4	0.0	315.5827729701996	
64	174.49796295166016	movie	1		301.0	62.0	2.5	/experiments/knapen_aot/videos/S_yt-2i53vKte7SA_117.mp4	0.0	315.5911178588867	2.5082030296325684
64	177.00616598129272	fix_post	2		12.0	62.0	2.5	/experiments/knapen_aot/videos/S_yt-2i53vKte7SA_117.mp4	0.0	318.0993208885193	0.10003113746643066
65	177.10619711875916	fix_pre	0		3.0	63.0	2.5	blank	1.0	318.1993520259857	0.025009870529174805
65	177.12306308746338	response	0	2		63.0	2.5	blank	1.0	318.21621799468994	
65	177.13120698928833	movie	1		301.0	63.0	2.5	blank	1.0	318.2243618965149	2.508380174636841
65	179.63958716392517	fix_post	2		12.0	63.0	2.5	blank	1.0	320.73274207115173	0.09993481636047363
66	179.73952198028564	fix_pre	0		22.0	64.0	2.5	/experiments/knapen_aot/videos/S_wc-7ugQ0V4lxYkJ_131.mp4	0.0	320.8326768875122	0.18325400352478027
66	179.91469812393188	response	0	4		64.0	2.5	/experiments/knapen_aot/videos/S_wc-7ugQ0V4lxYkJ_131.mp4	0.0	321.00785303115845	
66	179.92277598381042	movie	1		301.0	64.0	2.5	/experiments/knapen_aot/videos/S_wc-7ugQ0V4lxYkJ_131.mp4	0.0	321.015930891037	2.508587121963501
66	182.43136310577393	fix_post	2		12.0	64.0	2.5	/experiments/knapen_aot/videos/S_wc-7ugQ0V4lxYkJ_131.mp4	0.0	323.5245180130005	0.09996604919433594
67	182.53132915496826	fix_pre	0		14.0	65.0	2.5	/experiments/knapen_aot/videos/R_S_yt-osdlC1buTaM_4.mp4	0.0	323.6244840621948	0.11645293235778809
67	182.6321041584015	response	0	4		65.0	2.5	/experiments/knapen_aot/videos/R_S_yt-osdlC1buTaM_4.mp4	0.0	323.72525906562805	
67	182.64778208732605	movie	1		301.0	65.0	2.5	/experiments/knapen_aot/videos/R_S_yt-osdlC1buTaM_4.mp4	0.0	323.7409369945526	2.508288860321045
67	185.1560709476471	fix_post	2		12.0	65.0	2.5	/experiments/knapen_aot/videos/R_S_yt-osdlC1buTaM_4.mp4	0.0	326.24922585487366	0.10008716583251953
68	185.25615811347961	fix_pre	0		32.0	66.0	2.5	/experiments/knapen_aot/videos/R_S_yt-EApB0DJ3ECg_119.mp4	0.0	326.3493130207062	0.2665739059448242
68	185.51454615592957	response	0	4		66.0	2.5	/experiments/knapen_aot/videos/R_S_yt-EApB0DJ3ECg_119.mp4	0.0	326.6077010631561	
68	185.52273201942444	movie	1		301.0	66.0	2.5	/experiments/knapen_aot/videos/R_S_yt-EApB0DJ3ECg_119.mp4	0.0	326.615886926651	2.508413076400757
68	188.0311450958252	fix_post	2		12.0	66.0	2.5	/experiments/knapen_aot/videos/R_S_yt-EApB0DJ3ECg_119.mp4	0.0	329.12430000305176	0.09998488426208496
69	188.13112998008728	fix_pre	0		7.0	67.0	2.5	/experiments/knapen_aot/videos/R_S_production_ID_4325509.mp4	0.0	329.22428488731384	0.05830812454223633
69	188.18118906021118	response	0	4		67.0	2.5	/experiments/knapen_aot/videos/R_S_production_ID_4325509.mp4	0.0	329.27434396743774	
69	188.18943810462952	movie	1		198.0	67.0	2.5	/experiments/knapen_aot/videos/R_S_production_ID_4325509.mp4	0.0	329.2825930118561	2.5083630084991455
69	190.69780111312866	fix_post	2		12.0	67.0	2.5	/experiments/knapen_aot/videos/R_S_production_ID_4325509.mp4	0.0	331.7909560203552	0.0999748706817627
70	190.79777598381042	fix_pre	0		21.0	68.0	2.5	/experiments/knapen_aot/videos/S_flickr-clarkstonscamp-4863427159_1.mp4	0.0	331.890930891037	0.17499995231628418
70	190.96456813812256	response	0	4		68.0	2.5	/experiments/knapen_aot/videos/S_flickr-clarkstonscamp-4863427159_1.mp4	0.0	332.0577230453491	
70	190.9727759361267	movie	1		301.0	68.0	2.5	/experiments/knapen_aot/videos/S_flickr-clarkstonscamp-4863427159_1.mp4	0.0	332.06593084335327	2.5083720684051514
70	193.48114800453186	fix_post	2		12.0	68.0	2.5	/experiments/knapen_aot/videos/S_flickr-clarkstonscamp-4863427159_1.mp4	0.0	334.5743029117584	0.1000831127166748
71	193.58123111724854	fix_pre	0		17.0	69.0	2.5	blank	1.0	334.6743860244751	0.14151692390441895
71	193.70700216293335	response	0	4		69.0	2.5	blank	1.0	334.8001570701599	
71	193.72274804115295	movie	1		301.0	69.0	2.5	blank	1.0	334.8159029483795	2.508378028869629
71	196.23112607002258	fix_post	2		12.0	69.0	2.5	blank	1.0	337.32428097724915	0.10007095336914062
72	196.33119702339172	fix_pre	0		17.0	70.0	2.5	/experiments/knapen_aot/videos/S_pexels-kindel-media-8164443.mp4	0.0	337.4243519306183	0.1415691375732422
72	196.4569971561432	response	0	4		70.0	2.5	/experiments/knapen_aot/videos/S_pexels-kindel-media-8164443.mp4	0.0	337.55015206336975	
72	196.47276616096497	movie	1		166.0	70.0	2.5	/experiments/knapen_aot/videos/S_pexels-kindel-media-8164443.mp4	0.0	337.5659210681915	2.5083978176116943
72	198.98116397857666	fix_post	2		12.0	70.0	2.5	/experiments/knapen_aot/videos/S_pexels-kindel-media-8164443.mp4	0.0	340.0743188858032	0.0998990535736084
73	199.08106303215027	fix_pre	0		9.0	71.0	2.5	/experiments/knapen_aot/videos/R_S_flickr-hapanine-31880782705_22.mp4	0.0	340.17421793937683	0.07508111000061035
73	199.14786100387573	response	0	4		71.0	2.5	/experiments/knapen_aot/videos/R_S_flickr-hapanine-31880782705_22.mp4	0.0	340.2410159111023	
73	199.15614414215088	movie	1		167.0	71.0	2.5	/experiments/knapen_aot/videos/R_S_flickr-hapanine-31880782705_22.mp4	0.0	340.24929904937744	2.5083158016204834
73	201.66445994377136	fix_post	2		12.0	71.0	2.5	/experiments/knapen_aot/videos/R_S_flickr-hapanine-31880782705_22.mp4	0.0	342.7576148509979	0.09996414184570312
74	201.76442408561707	fix_pre	0		7.0	72.0	2.5	/experiments/knapen_aot/videos/S_yt-LdHRVIb4nIE_6.mp4	0.0	342.8575789928436	0.05830693244934082
74	201.81454610824585	response	0	4		72.0	2.5	/experiments/knapen_aot/videos/S_yt-LdHRVIb4nIE_6.mp4	0.0	342.9077010154724	
74	201.8227310180664	movie	1		301.0	72.0	2.5	/experiments/knapen_aot/videos/S_yt-LdHRVIb4nIE_6.mp4	0.0	342.91588592529297	2.50833797454834
74	204.33106899261475	fix_post	2		12.0	72.0	2.5	/experiments/knapen_aot/videos/S_yt-LdHRVIb4nIE_6.mp4	0.0	345.4242238998413	0.10007309913635254
75	204.4311420917511	fix_pre	0		16.0	73.0	2.5	/experiments/knapen_aot/videos/S_yt-VMUSo8E_Fj8_171.mp4	0.0	345.52429699897766	0.1332099437713623
75	204.55615210533142	response	0	4		73.0	2.5	/experiments/knapen_aot/videos/S_yt-VMUSo8E_Fj8_171.mp4	0.0	345.649307012558	
75	204.56435203552246	movie	1		301.0	73.0	2.5	/experiments/knapen_aot/videos/S_yt-VMUSo8E_Fj8_171.mp4	0.0	345.657506942749	2.508405923843384
75	207.07275795936584	fix_post	2		12.0	73.0	2.5	/experiments/knapen_aot/videos/S_yt-VMUSo8E_Fj8_171.mp4	0.0	348.1659128665924	0.09989809989929199
76	207.17265605926514	fix_pre	0		4.0	74.0	2.5	/experiments/knapen_aot/videos/R_S_yt-uE9XoCLZlFo_1.mp4	0.0	348.2658109664917	0.033390045166015625
76	207.19785809516907	response	0	4		74.0	2.5	/experiments/knapen_aot/videos/R_S_yt-uE9XoCLZlFo_1.mp4	0.0	348.29101300239563	
76	207.20604610443115	movie	1		301.0	74.0	2.5	/experiments/knapen_aot/videos/R_S_yt-uE9XoCLZlFo_1.mp4	0.0	348.2992010116577	2.508314847946167
76	209.71436095237732	fix_post	2		12.0	74.0	2.5	/experiments/knapen_aot/videos/R_S_yt-uE9XoCLZlFo_1.mp4	0.0	350.8075158596039	0.09998321533203125
77	209.81434416770935	fix_pre	0		9.0	75.0	2.5	/experiments/knapen_aot/videos/S_yt-dWF89kq2JIA_13.mp4	0.0	350.9074990749359	0.07495594024658203
77	209.8811900615692	response	0	4		75.0	2.5	/experiments/knapen_aot/videos/S_yt-dWF89kq2JIA_13.mp4	0.0	350.9743449687958	
77	209.88930010795593	movie	1		301.0	75.0	2.5	/experiments/knapen_aot/videos/S_yt-dWF89kq2JIA_13.mp4	0.0	350.9824550151825	2.5085809230804443
77	212.39788103103638	fix_post	2		12.0	75.0	2.5	/experiments/knapen_aot/videos/S_yt-dWF89kq2JIA_13.mp4	0.0	353.49103593826294	0.09984302520751953
78	212.4977240562439	fix_pre	0		11.0	76.0	2.5	blank	1.0	353.59087896347046	0.09169507026672363
78	212.58116698265076	response	0	4		76.0	2.5	blank	1.0	353.6743218898773	
78	212.58941912651062	movie	1		301.0	76.0	2.5	blank	1.0	353.6825740337372	2.5082788467407227
78	215.09769797325134	fix_post	2		12.0	76.0	2.5	blank	1.0	356.1908528804779	0.09992003440856934
79	215.1976180076599	fix_pre	0		25.0	77.0	2.5	/experiments/knapen_aot/videos/R_S_yt-tEzCpMrjOHs_24.mp4	0.0	356.2907729148865	0.20839500427246094
79	215.39769005775452	response	0	4		77.0	2.5	/experiments/knapen_aot/videos/R_S_yt-tEzCpMrjOHs_24.mp4	0.0	356.4908449649811	
79	215.40601301193237	movie	1		301.0	77.0	2.5	/experiments/knapen_aot/videos/R_S_yt-tEzCpMrjOHs_24.mp4	0.0	356.49916791915894	2.50874400138855
79	217.91475701332092	fix_post	2		12.0	77.0	2.5	/experiments/knapen_aot/videos/R_S_yt-tEzCpMrjOHs_24.mp4	0.0	359.0079119205475	0.09981107711791992
80	218.01456809043884	fix_pre	0		12.0	78.0	2.5	/experiments/knapen_aot/videos/R_S_video.mp4	0.0	359.1077229976654	0.09972906112670898
80	218.10613203048706	response	0	4		78.0	2.5	/experiments/knapen_aot/videos/R_S_video.mp4	0.0	359.1992869377136	
80	218.11429715156555	movie	1		167.0	78.0	2.5	/experiments/knapen_aot/videos/R_S_video.mp4	0.0	359.2074520587921	2.5083389282226562
80	220.6226360797882	fix_post	2		12.0	78.0	2.5	/experiments/knapen_aot/videos/R_S_video.mp4	0.0	361.71579098701477	0.10004186630249023
81	220.7226779460907	fix_pre	0		13.0	79.0	2.5	/experiments/knapen_aot/videos/R_S_production_ID_4101307.mp4	0.0	361.81583285331726	0.10829305648803711
81	220.82272005081177	response	0	4		79.0	2.5	/experiments/knapen_aot/videos/R_S_production_ID_4101307.mp4	0.0	361.91587495803833	
81	220.83097100257874	movie	1		207.0	79.0	2.5	/experiments/knapen_aot/videos/R_S_production_ID_4101307.mp4	0.0	361.9241259098053	2.508275032043457
81	223.3392460346222	fix_post	2		12.0	79.0	2.5	/experiments/knapen_aot/videos/R_S_production_ID_4101307.mp4	0.0	364.43240094184875	0.10007095336914062
81	223.36442804336548	response	2	4		79.0	2.5	/experiments/knapen_aot/videos/R_S_production_ID_4101307.mp4	0.0	364.45758295059204	
82	223.43931698799133	fix_pre	0		45.0	80.0	2.5	/experiments/knapen_aot/videos/S_comp_A007_C017_01156B_v02_SDR_PS_20180925_SDR_2K_AVC.mp4	0.0	364.5324718952179	0.3749401569366455
82	223.8060381412506	response	0	4		80.0	2.5	/experiments/knapen_aot/videos/S_comp_A007_C017_01156B_v02_SDR_PS_20180925_SDR_2K_AVC.mp4	0.0	364.8991930484772	
82	223.81425714492798	movie	1		166.0	80.0	2.5	/experiments/knapen_aot/videos/S_comp_A007_C017_01156B_v02_SDR_PS_20180925_SDR_2K_AVC.mp4	0.0	364.90741205215454	2.508445978164673
82	226.32270312309265	fix_post	2		12.0	80.0	2.5	/experiments/knapen_aot/videos/S_comp_A007_C017_01156B_v02_SDR_PS_20180925_SDR_2K_AVC.mp4	0.0	367.4158580303192	0.09984993934631348
83	226.42255306243896	fix_pre	0		11.0	81.0	2.5	/experiments/knapen_aot/videos/S_comp_N013_C004_PS_v01_SDR_PS_20180925_F1970F7193_SDR_2K_AVC.mp4	0.0	367.5157079696655	0.09169697761535645
83	226.50621700286865	response	0	4		81.0	2.5	/experiments/knapen_aot/videos/S_comp_N013_C004_PS_v01_SDR_PS_20180925_F1970F7193_SDR_2K_AVC.mp4	0.0	367.5993719100952	
83	226.51425004005432	movie	1		170.0	81.0	2.5	/experiments/knapen_aot/videos/S_comp_N013_C004_PS_v01_SDR_PS_20180925_F1970F7193_SDR_2K_AVC.mp4	0.0	367.6074049472809	2.50833797454834
83	229.02258801460266	fix_post	2		12.0	81.0	2.5	/experiments/knapen_aot/videos/S_comp_N013_C004_PS_v01_SDR_PS_20180925_F1970F7193_SDR_2K_AVC.mp4	0.0	370.1157429218292	0.10003495216369629
83	229.09771609306335	response	2	4		81.0	2.5	/experiments/knapen_aot/videos/S_comp_N013_C004_PS_v01_SDR_PS_20180925_F1970F7193_SDR_2K_AVC.mp4	0.0	370.1908710002899	
84	229.12262296676636	fix_pre	0		44.0	82.0	2.5	blank	1.0	370.2157778739929	0.3666870594024658
84	229.4810709953308	response	0	4		82.0	2.5	blank	1.0	370.5742259025574	
84	229.48931002616882	movie	1		301.0	82.0	2.5	blank	1.0	370.5824649333954	2.5082919597625732
84	231.9976019859314	fix_post	2		12.0	82.0	2.5	blank	1.0	373.09075689315796	0.10007309913635254
85	232.09767508506775	fix_pre	0		18.0	83.0	2.5	/experiments/knapen_aot/videos/S_yt-iHmshS63rBc_329.mp4	0.0	373.1908299922943	0.14986705780029297
85	232.23932909965515	response	0	4		83.0	2.5	/experiments/knapen_aot/videos/S_yt-iHmshS63rBc_329.mp4	0.0	373.3324840068817	
85	232.24754214286804	movie	1		301.0	83.0	2.5	/experiments/knapen_aot/videos/S_yt-iHmshS63rBc_329.mp4	0.0	373.3406970500946	2.5083320140838623
85	234.7558741569519	fix_post	2		12.0	83.0	2.5	/experiments/knapen_aot/videos/S_yt-iHmshS63rBc_329.mp4	0.0	375.84902906417847	0.10006093978881836
87	234.85593509674072	stim	0		148.0					375.9490900039673	1.233280897140503
87	234.97265696525574	response	0	4						376.0658118724823	
87	236.0856430530548	response	0	space						377.1787979602814	
