trial_nr	onset	event_type	phase	response	nr_frames	movie_index	movie_duration	movie_file	blank	onset_abs	duration
0	0.13331222534179688	stim	0		17.0					93.33588123321533	0.1415708065032959
0	0.2668311595916748	response	0	space						93.46940016746521	
1	0.2748830318450928	stim	0		121.0					93.47745203971863	1.0085041522979736
1	0.7501480579376221	response	0	space						93.95271706581116	
1	1.2001030445098877	response	0	space						94.40267205238342	
1	1.2833871841430664	stim	1		120.0					94.4859561920166	0.9995958805084229
1	1.57501220703125	response	1	space						94.77758121490479	
1	1.874683141708374	response	1	space						95.07725214958191	
2	2.2829830646514893	fix_pre	0		4.0	0.0	2.5	/experiments/knapen_aot/oldvideos/R_S_yt-4NjyKFnwHBo_13.mp4	0.0	95.48555207252502	0.0333559513092041
2	2.3081471920013428	response	0	space		0.0	2.5	/experiments/knapen_aot/oldvideos/R_S_yt-4NjyKFnwHBo_13.mp4	0.0	95.51071619987488	
2	2.3163390159606934	movie	1		299.0	0.0	2.5	/experiments/knapen_aot/oldvideos/R_S_yt-4NjyKFnwHBo_13.mp4	0.0	95.51890802383423	2.508613109588623
2	2.6152920722961426	response	1	2		0.0	2.5	/experiments/knapen_aot/oldvideos/R_S_yt-4NjyKFnwHBo_13.mp4	0.0	95.81786108016968	
2	4.824952125549316	fix_post	2		12.0	0.0	2.5	/experiments/knapen_aot/oldvideos/R_S_yt-4NjyKFnwHBo_13.mp4	0.0	98.02752113342285	0.09971189498901367
3	4.92466402053833	fix_pre	0		13.0	1.0	2.5	/experiments/knapen_aot/oldvideos/S_yt-V35ubrbe8gA_86.mp4	0.0	98.12723302841187	0.10936903953552246
3	5.024780035018921	response	0	2		1.0	2.5	/experiments/knapen_aot/oldvideos/S_yt-V35ubrbe8gA_86.mp4	0.0	98.22734904289246	
3	5.0340330600738525	movie	1		301.0	1.0	2.5	/experiments/knapen_aot/oldvideos/S_yt-V35ubrbe8gA_86.mp4	0.0	98.23660206794739	2.507272958755493
3	6.2081310749053955	response	1	2		1.0	2.5	/experiments/knapen_aot/oldvideos/S_yt-V35ubrbe8gA_86.mp4	0.0	99.41070008277893	
3	7.541306018829346	fix_post	2		12.0	1.0	2.5	/experiments/knapen_aot/oldvideos/S_yt-V35ubrbe8gA_86.mp4	0.0	100.74387502670288	0.10000801086425781
4	7.6413140296936035	fix_pre	0		20.0	2.0	2.5	/experiments/knapen_aot/oldvideos/S_comp_H005_C012_PS_v01_SDR_PS_20180925_SDR_2K_AVC.mp4	0.0	100.84388303756714	0.1666121482849121
4	7.7998270988464355	response	0	2		2.0	2.5	/experiments/knapen_aot/oldvideos/S_comp_H005_C012_PS_v01_SDR_PS_20180925_SDR_2K_AVC.mp4	0.0	101.00239610671997	
4	7.807926177978516	movie	1		166.0	2.0	2.5	/experiments/knapen_aot/oldvideos/S_comp_H005_C012_PS_v01_SDR_PS_20180925_SDR_2K_AVC.mp4	0.0	101.01049518585205	2.508579969406128
4	9.848611116409302	response	1	2		2.0	2.5	/experiments/knapen_aot/oldvideos/S_comp_H005_C012_PS_v01_SDR_PS_20180925_SDR_2K_AVC.mp4	0.0	103.05118012428284	
4	10.316506147384644	fix_post	2		12.0	2.0	2.5	/experiments/knapen_aot/oldvideos/S_comp_H005_C012_PS_v01_SDR_PS_20180925_SDR_2K_AVC.mp4	0.0	103.51907515525818	0.09978795051574707
5	10.41629409790039	fix_pre	0		87.0	3.0	2.5	/experiments/knapen_aot/oldvideos/S_-vPHq-7BJ70_15.mp4	0.0	103.61886310577393	0.7249970436096191
5	11.13316011428833	response	0	2		3.0	2.5	/experiments/knapen_aot/oldvideos/S_-vPHq-7BJ70_15.mp4	0.0	104.33572912216187	
5	11.14129114151001	movie	1		301.0	3.0	2.5	/experiments/knapen_aot/oldvideos/S_-vPHq-7BJ70_15.mp4	0.0	104.34386014938354	2.5083398818969727
5	13.649631023406982	fix_post	2		12.0	3.0	2.5	/experiments/knapen_aot/oldvideos/S_-vPHq-7BJ70_15.mp4	0.0	106.85220003128052	0.10002613067626953
6	13.749657154083252	fix_pre	0		10.0	4.0	2.5	/experiments/knapen_aot/oldvideos/R_S_yt-V4Oosy-ZtGY_193.mp4	0.0	106.95222616195679	0.08326601982116699
6	13.824656009674072	response	0	2		4.0	2.5	/experiments/knapen_aot/oldvideos/R_S_yt-V4Oosy-ZtGY_193.mp4	0.0	107.02722501754761	
6	13.832923173904419	movie	1		301.0	4.0	2.5	/experiments/knapen_aot/oldvideos/R_S_yt-V4Oosy-ZtGY_193.mp4	0.0	107.03549218177795	2.508394956588745
6	16.341318130493164	fix_post	2		12.0	4.0	2.5	/experiments/knapen_aot/oldvideos/R_S_yt-V4Oosy-ZtGY_193.mp4	0.0	109.5438871383667	0.09995603561401367
7	16.441274166107178	fix_pre	0		4.0	5.0	2.5	blank	1.0	109.64384317398071	0.03330683708190918
7	16.466336011886597	response	0	2		5.0	2.5	blank	1.0	109.66890501976013	
7	16.474581003189087	movie	1		301.0	5.0	2.5	blank	1.0	109.67715001106262	2.5083401203155518
7	18.98292112350464	fix_post	2		12.0	5.0	2.5	blank	1.0	112.18549013137817	0.1000370979309082
8	19.082958221435547	fix_pre	0		18.0	6.0	2.5	/experiments/knapen_aot/oldvideos/S_yt-XY1n_Oze1kQ_9.mp4	0.0	112.28552722930908	0.14989089965820312
8	19.224626064300537	response	0	2		6.0	2.5	/experiments/knapen_aot/oldvideos/S_yt-XY1n_Oze1kQ_9.mp4	0.0	112.42719507217407	
8	19.23284912109375	movie	1		301.0	6.0	2.5	/experiments/knapen_aot/oldvideos/S_yt-XY1n_Oze1kQ_9.mp4	0.0	112.43541812896729	2.5085349082946777
8	21.741384029388428	fix_post	2		12.0	6.0	2.5	/experiments/knapen_aot/oldvideos/S_yt-XY1n_Oze1kQ_9.mp4	0.0	114.94395303726196	0.0998830795288086
9	21.841267108917236	fix_pre	0		13.0	7.0	2.5	/experiments/knapen_aot/oldvideos/S_flickr-lamujuri-10653517683_4.mp4	0.0	115.04383611679077	0.10922694206237793
9	21.94138503074646	response	0	2		7.0	2.5	/experiments/knapen_aot/oldvideos/S_flickr-lamujuri-10653517683_4.mp4	0.0	115.14395403862	
9	21.950494050979614	movie	1		164.0	7.0	2.5	/experiments/knapen_aot/oldvideos/S_flickr-lamujuri-10653517683_4.mp4	0.0	115.15306305885315	2.5075700283050537
9	24.458064079284668	fix_post	2		12.0	7.0	2.5	/experiments/knapen_aot/oldvideos/S_flickr-lamujuri-10653517683_4.mp4	0.0	117.6606330871582	0.09984111785888672
10	24.557905197143555	fix_pre	0		12.0	8.0	2.5	/experiments/knapen_aot/oldvideos/R_S_production_ID_5199636.mp4	0.0	117.76047420501709	0.10096096992492676
10	24.649620056152344	response	0	2		8.0	2.5	/experiments/knapen_aot/oldvideos/R_S_production_ID_5199636.mp4	0.0	117.85218906402588	
10	24.65886616706848	movie	1		162.0	8.0	2.5	/experiments/knapen_aot/oldvideos/R_S_production_ID_5199636.mp4	0.0	117.86143517494202	2.5074880123138428
10	27.166354179382324	fix_post	2		12.0	8.0	2.5	/experiments/knapen_aot/oldvideos/R_S_production_ID_5199636.mp4	0.0	120.36892318725586	0.09997892379760742
11	27.26633310317993	fix_pre	0		4.0	9.0	2.5	/experiments/knapen_aot/oldvideos/R_S_yt-i3-YlGenYmk_411.mp4	0.0	120.46890211105347	0.03319501876831055
11	27.291393041610718	response	0	2		9.0	2.5	/experiments/knapen_aot/oldvideos/R_S_yt-i3-YlGenYmk_411.mp4	0.0	120.49396204948425	
11	27.299528121948242	movie	1		301.0	9.0	2.5	/experiments/knapen_aot/oldvideos/R_S_yt-i3-YlGenYmk_411.mp4	0.0	120.50209712982178	2.508368968963623
11	29.807897090911865	fix_post	2		12.0	9.0	2.5	/experiments/knapen_aot/oldvideos/R_S_yt-i3-YlGenYmk_411.mp4	0.0	123.0104660987854	0.09999513626098633
12	29.90789222717285	fix_pre	0		19.0	10.0	2.5	/experiments/knapen_aot/oldvideos/R_S_yt-PYHK810V_n8_1375.mp4	0.0	123.11046123504639	0.1582939624786377
12	30.05795121192932	response	0	2		10.0	2.5	/experiments/knapen_aot/oldvideos/R_S_yt-PYHK810V_n8_1375.mp4	0.0	123.26052021980286	
12	30.06618618965149	movie	1		301.0	10.0	2.5	/experiments/knapen_aot/oldvideos/R_S_yt-PYHK810V_n8_1375.mp4	0.0	123.26875519752502	2.508370876312256
12	32.574557065963745	fix_post	2		12.0	10.0	2.5	/experiments/knapen_aot/oldvideos/R_S_yt-PYHK810V_n8_1375.mp4	0.0	125.77712607383728	0.09999513626098633
13	32.67455220222473	fix_pre	0		16.0	11.0	2.5	/experiments/knapen_aot/oldvideos/S_yt-IlW1U39Dga4_5.mp4	0.0	125.87712121009827	0.13331079483032227
13	32.79212713241577	response	0	2		11.0	2.5	/experiments/knapen_aot/oldvideos/S_yt-IlW1U39Dga4_5.mp4	0.0	125.9946961402893	
13	32.807862997055054	movie	1		301.0	11.0	2.5	/experiments/knapen_aot/oldvideos/S_yt-IlW1U39Dga4_5.mp4	0.0	126.01043200492859	2.508392095565796
13	35.31625509262085	fix_post	2		12.0	11.0	2.5	/experiments/knapen_aot/oldvideos/S_yt-IlW1U39Dga4_5.mp4	0.0	128.51882410049438	0.1001279354095459
14	35.416383028030396	fix_pre	0		21.0	12.0	2.5	blank	1.0	128.61895203590393	0.17473912239074707
14	35.58296513557434	response	0	2		12.0	2.5	blank	1.0	128.78553414344788	
14	35.59112215042114	movie	1		301.0	12.0	2.5	blank	1.0	128.79369115829468	2.5084068775177
14	38.09952902793884	fix_post	2		12.0	12.0	2.5	blank	1.0	131.30209803581238	0.10016417503356934
15	38.19969320297241	fix_pre	0		26.0	13.0	2.5	/experiments/knapen_aot/oldvideos/S_yt-9mWz93En7Gw_97.mp4	0.0	131.40226221084595	0.21642088890075684
15	38.4080331325531	response	0	2		13.0	2.5	/experiments/knapen_aot/oldvideos/S_yt-9mWz93En7Gw_97.mp4	0.0	131.61060214042664	
15	38.41611409187317	movie	1		301.0	13.0	2.5	/experiments/knapen_aot/oldvideos/S_yt-9mWz93En7Gw_97.mp4	0.0	131.6186830997467	2.5084071159362793
15	40.92452120780945	fix_post	2		12.0	13.0	2.5	/experiments/knapen_aot/oldvideos/S_yt-9mWz93En7Gw_97.mp4	0.0	134.12709021568298	0.09998798370361328
16	41.02450919151306	fix_pre	0		11.0	14.0	2.5	/experiments/knapen_aot/oldvideos/R_S_yt-JQOHHL30Y54_101.mp4	0.0	134.2270781993866	0.09259986877441406
16	41.107858180999756	response	0	2		14.0	2.5	/experiments/knapen_aot/oldvideos/R_S_yt-JQOHHL30Y54_101.mp4	0.0	134.3104271888733	
16	41.117109060287476	movie	1		301.0	14.0	2.5	/experiments/knapen_aot/oldvideos/R_S_yt-JQOHHL30Y54_101.mp4	0.0	134.319678068161	2.5077741146087646
16	43.62488317489624	fix_post	2		12.0	14.0	2.5	/experiments/knapen_aot/oldvideos/R_S_yt-JQOHHL30Y54_101.mp4	0.0	136.82745218276978	0.09978485107421875
17	43.72466802597046	fix_pre	0		16.0	15.0	2.5	/experiments/knapen_aot/oldvideos/R_S_yt-IlW1U39Dga4_5.mp4	0.0	136.927237033844	0.133134126663208
17	43.84965705871582	response	0	2		15.0	2.5	/experiments/knapen_aot/oldvideos/R_S_yt-IlW1U39Dga4_5.mp4	0.0	137.05222606658936	
17	43.85780215263367	movie	1		301.0	15.0	2.5	/experiments/knapen_aot/oldvideos/R_S_yt-IlW1U39Dga4_5.mp4	0.0	137.0603711605072	2.508388042449951
17	46.36619019508362	fix_post	2		12.0	15.0	2.5	/experiments/knapen_aot/oldvideos/R_S_yt-IlW1U39Dga4_5.mp4	0.0	139.56875920295715	0.10006499290466309
18	46.46625518798828	fix_pre	0		13.0	16.0	2.5	/experiments/knapen_aot/oldvideos/R_S_flickr-lamujuri-10653517683_4.mp4	0.0	139.66882419586182	0.10910701751708984
18	46.56624102592468	response	0	2		16.0	2.5	/experiments/knapen_aot/oldvideos/R_S_flickr-lamujuri-10653517683_4.mp4	0.0	139.76881003379822	
18	46.57536220550537	movie	1		167.0	16.0	2.5	/experiments/knapen_aot/oldvideos/R_S_flickr-lamujuri-10653517683_4.mp4	0.0	139.7779312133789	2.5074398517608643
18	49.082802057266235	fix_post	2		12.0	16.0	2.5	/experiments/knapen_aot/oldvideos/R_S_flickr-lamujuri-10653517683_4.mp4	0.0	142.28537106513977	0.0999610424041748
19	49.18276309967041	fix_pre	0		5.0	17.0	2.5	/experiments/knapen_aot/oldvideos/R_S_production_ID_5199636.mp4	0.0	142.38533210754395	0.04164910316467285
19	49.21624422073364	response	0	2		17.0	2.5	/experiments/knapen_aot/oldvideos/R_S_production_ID_5199636.mp4	0.0	142.41881322860718	
19	49.22441220283508	movie	1		164.0	17.0	2.5	/experiments/knapen_aot/oldvideos/R_S_production_ID_5199636.mp4	0.0	142.42698121070862	2.508445978164673
19	51.732858180999756	fix_post	2		12.0	17.0	2.5	/experiments/knapen_aot/oldvideos/R_S_production_ID_5199636.mp4	0.0	144.9354271888733	0.09993696212768555
20	51.83279514312744	fix_pre	0		6.0	18.0	2.5	/experiments/knapen_aot/oldvideos/R_S_yt-gOoDjhfSPj0_162.mp4	0.0	145.03536415100098	0.049989938735961914
20	51.874596118927	response	0	2		18.0	2.5	/experiments/knapen_aot/oldvideos/R_S_yt-gOoDjhfSPj0_162.mp4	0.0	145.07716512680054	
20	51.8827850818634	movie	1		301.0	18.0	2.5	/experiments/knapen_aot/oldvideos/R_S_yt-gOoDjhfSPj0_162.mp4	0.0	145.08535408973694	2.5083141326904297
20	54.39109921455383	fix_post	2		12.0	18.0	2.5	/experiments/knapen_aot/oldvideos/R_S_yt-gOoDjhfSPj0_162.mp4	0.0	147.59366822242737	0.10002589225769043
21	54.49112510681152	fix_pre	0		7.0	19.0	2.5	/experiments/knapen_aot/oldvideos/R_S_yt-PaxmJhMoP3w_87.mp4	0.0	147.69369411468506	0.058294057846069336
21	54.53380513191223	response	0	2		19.0	2.5	/experiments/knapen_aot/oldvideos/R_S_yt-PaxmJhMoP3w_87.mp4	0.0	147.73637413978577	
21	54.54941916465759	movie	1		301.0	19.0	2.5	/experiments/knapen_aot/oldvideos/R_S_yt-PaxmJhMoP3w_87.mp4	0.0	147.75198817253113	2.5083439350128174
21	57.05776309967041	fix_post	2		12.0	19.0	2.5	/experiments/knapen_aot/oldvideos/R_S_yt-PaxmJhMoP3w_87.mp4	0.0	150.26033210754395	0.09998703002929688
22	57.15775012969971	fix_pre	0		16.0	20.0	2.5	blank	1.0	150.36031913757324	0.13327598571777344
22	57.28287315368652	response	0	2		20.0	2.5	blank	1.0	150.48544216156006	
22	57.29102611541748	movie	1		301.0	20.0	2.5	blank	1.0	150.49359512329102	2.5083398818969727
22	59.79936599731445	fix_post	2		12.0	20.0	2.5	blank	1.0	153.001935005188	0.10008716583251953
23	59.89945316314697	fix_pre	0		26.0	21.0	2.5	/experiments/knapen_aot/oldvideos/S_ILSVRC2015_train_00569004.mp4	0.0	153.1020221710205	0.21734189987182617
23	60.10024118423462	response	0	2		21.0	2.5	/experiments/knapen_aot/oldvideos/S_ILSVRC2015_train_00569004.mp4	0.0	153.30281019210815	
23	60.1167950630188	movie	1		301.0	21.0	2.5	/experiments/knapen_aot/oldvideos/S_ILSVRC2015_train_00569004.mp4	0.0	153.31936407089233	2.507578134536743
23	62.62437319755554	fix_post	2		12.0	21.0	2.5	/experiments/knapen_aot/oldvideos/S_ILSVRC2015_train_00569004.mp4	0.0	155.82694220542908	0.1000218391418457
24	62.72439503669739	fix_pre	0		26.0	22.0	2.5	/experiments/knapen_aot/oldvideos/S_yt--C2DDZ7LOQA_95.mp4	0.0	155.92696404457092	0.2166600227355957
24	62.9328670501709	response	0	2		22.0	2.5	/experiments/knapen_aot/oldvideos/S_yt--C2DDZ7LOQA_95.mp4	0.0	156.13543605804443	
24	62.94105505943298	movie	1		301.0	22.0	2.5	/experiments/knapen_aot/oldvideos/S_yt--C2DDZ7LOQA_95.mp4	0.0	156.14362406730652	2.5083301067352295
24	65.44938516616821	fix_post	2		12.0	22.0	2.5	/experiments/knapen_aot/oldvideos/S_yt--C2DDZ7LOQA_95.mp4	0.0	158.65195417404175	0.10000300407409668
25	65.54938817024231	fix_pre	0		22.0	23.0	2.5	/experiments/knapen_aot/oldvideos/S_yt-STL3ejY9u_Q_73.mp4	0.0	158.75195717811584	0.18330693244934082
25	65.72453212738037	response	0	2		23.0	2.5	/experiments/knapen_aot/oldvideos/S_yt-STL3ejY9u_Q_73.mp4	0.0	158.9271011352539	
25	65.73269510269165	movie	1		301.0	23.0	2.5	/experiments/knapen_aot/oldvideos/S_yt-STL3ejY9u_Q_73.mp4	0.0	158.93526411056519	2.508347988128662
25	68.24104309082031	fix_post	2		12.0	23.0	2.5	/experiments/knapen_aot/oldvideos/S_yt-STL3ejY9u_Q_73.mp4	0.0	161.44361209869385	0.09992599487304688
26	68.34096908569336	fix_pre	0		12.0	24.0	2.5	/experiments/knapen_aot/oldvideos/S_yt-1Xbcf0BPT-g_57.mp4	0.0	161.5435380935669	0.10851812362670898
26	68.43269109725952	response	0	2		24.0	2.5	/experiments/knapen_aot/oldvideos/S_yt-1Xbcf0BPT-g_57.mp4	0.0	161.63526010513306	
26	68.44948720932007	movie	1		300.0	24.0	2.5	/experiments/knapen_aot/oldvideos/S_yt-1Xbcf0BPT-g_57.mp4	0.0	161.6520562171936	2.5000088214874268
26	70.9494960308075	fix_post	2		12.0	24.0	2.5	/experiments/knapen_aot/oldvideos/S_yt-1Xbcf0BPT-g_57.mp4	0.0	164.15206503868103	0.09992718696594238
27	71.04942321777344	fix_pre	0		23.0	25.0	2.5	/experiments/knapen_aot/oldvideos/S_yt-i3-YlGenYmk_411.mp4	0.0	164.25199222564697	0.19225692749023438
27	71.23278522491455	response	0	2		25.0	2.5	/experiments/knapen_aot/oldvideos/S_yt-i3-YlGenYmk_411.mp4	0.0	164.4353542327881	
27	71.24168014526367	movie	1		301.0	25.0	2.5	/experiments/knapen_aot/oldvideos/S_yt-i3-YlGenYmk_411.mp4	0.0	164.4442491531372	2.5077130794525146
27	73.74939322471619	fix_post	2		12.0	25.0	2.5	/experiments/knapen_aot/oldvideos/S_yt-i3-YlGenYmk_411.mp4	0.0	166.95196223258972	0.1000068187713623
28	73.84940004348755	fix_pre	0		11.0	26.0	2.5	/experiments/knapen_aot/oldvideos/S_yt-b29VtKvlnWE_430.mp4	0.0	167.05196905136108	0.09156107902526855
28	73.92530512809753	response	0	2		26.0	2.5	/experiments/knapen_aot/oldvideos/S_yt-b29VtKvlnWE_430.mp4	0.0	167.12787413597107	
28	73.94096112251282	movie	1		301.0	26.0	2.5	/experiments/knapen_aot/oldvideos/S_yt-b29VtKvlnWE_430.mp4	0.0	167.14353013038635	2.508594036102295
28	76.44955515861511	fix_post	2		12.0	26.0	2.5	/experiments/knapen_aot/oldvideos/S_yt-b29VtKvlnWE_430.mp4	0.0	169.65212416648865	0.09978103637695312
29	76.54933619499207	fix_pre	0		11.0	27.0	2.5	/experiments/knapen_aot/oldvideos/S_yt-lfDIg8kaXhA_169.mp4	0.0	169.7519052028656	0.09162497520446777
29	76.63279318809509	response	0	2		27.0	2.5	/experiments/knapen_aot/oldvideos/S_yt-lfDIg8kaXhA_169.mp4	0.0	169.83536219596863	
29	76.64096117019653	movie	1		301.0	27.0	2.5	/experiments/knapen_aot/oldvideos/S_yt-lfDIg8kaXhA_169.mp4	0.0	169.84353017807007	2.508373975753784
29	79.14933514595032	fix_post	2		12.0	27.0	2.5	/experiments/knapen_aot/oldvideos/S_yt-lfDIg8kaXhA_169.mp4	0.0	172.35190415382385	0.10000085830688477
29	79.21703219413757	response	2	2		27.0	2.5	/experiments/knapen_aot/oldvideos/S_yt-lfDIg8kaXhA_169.mp4	0.0	172.4196012020111	
30	79.2493360042572	fix_pre	0		69.0	28.0	2.5	blank	1.0	172.45190501213074	0.5757601261138916
30	79.81597304344177	response	0	2		28.0	2.5	blank	1.0	173.0185420513153	
30	79.8250961303711	movie	1		301.0	28.0	2.5	blank	1.0	173.02766513824463	2.507567882537842
30	82.33266401290894	fix_post	2		12.0	28.0	2.5	blank	1.0	175.53523302078247	0.10005307197570801
31	82.43271708488464	fix_pre	0		19.0	29.0	2.5	/experiments/knapen_aot/oldvideos/S_g201_AK_A003_C014_SDR_20191113_SDR_2K_AVC.mp4	0.0	175.63528609275818	0.15819406509399414
31	82.57535004615784	response	0	2		29.0	2.5	/experiments/knapen_aot/oldvideos/S_g201_AK_A003_C014_SDR_20191113_SDR_2K_AVC.mp4	0.0	175.77791905403137	
31	82.59091114997864	movie	1		163.0	29.0	2.5	/experiments/knapen_aot/oldvideos/S_g201_AK_A003_C014_SDR_20191113_SDR_2K_AVC.mp4	0.0	175.79348015785217	2.508610963821411
31	84.7151210308075	response	1	2		29.0	2.5	/experiments/knapen_aot/oldvideos/S_g201_AK_A003_C014_SDR_20191113_SDR_2K_AVC.mp4	0.0	177.91769003868103	
31	84.99107503890991	response	1	2		29.0	2.5	/experiments/knapen_aot/oldvideos/S_g201_AK_A003_C014_SDR_20191113_SDR_2K_AVC.mp4	0.0	178.19364404678345	
31	85.09952211380005	fix_post	2		12.0	29.0	2.5	/experiments/knapen_aot/oldvideos/S_g201_AK_A003_C014_SDR_20191113_SDR_2K_AVC.mp4	0.0	178.30209112167358	0.09991002082824707
32	85.1994321346283	fix_pre	0		27.0	30.0	2.5	/experiments/knapen_aot/oldvideos/S_g201_AK_A003_C014_SDR_20191113_SDR_2K_AVC.mp4	0.0	178.40200114250183	0.22479701042175293
32	85.41598701477051	response	0	2		30.0	2.5	/experiments/knapen_aot/oldvideos/S_g201_AK_A003_C014_SDR_20191113_SDR_2K_AVC.mp4	0.0	178.61855602264404	
32	85.42422914505005	movie	1		163.0	30.0	2.5	/experiments/knapen_aot/oldvideos/S_g201_AK_A003_C014_SDR_20191113_SDR_2K_AVC.mp4	0.0	178.62679815292358	2.508558988571167
32	87.53157305717468	response	1	2		30.0	2.5	/experiments/knapen_aot/oldvideos/S_g201_AK_A003_C014_SDR_20191113_SDR_2K_AVC.mp4	0.0	180.73414206504822	
32	87.84104609489441	response	1	2		30.0	2.5	/experiments/knapen_aot/oldvideos/S_g201_AK_A003_C014_SDR_20191113_SDR_2K_AVC.mp4	0.0	181.04361510276794	
32	87.93278813362122	fix_post	2		12.0	30.0	2.5	/experiments/knapen_aot/oldvideos/S_g201_AK_A003_C014_SDR_20191113_SDR_2K_AVC.mp4	0.0	181.13535714149475	0.09979796409606934
33	88.03258609771729	fix_pre	0		8.0	31.0	2.5	/experiments/knapen_aot/oldvideos/S_ILSVRC2015_train_00572001.mp4	0.0	181.23515510559082	0.06666898727416992
33	88.09104418754578	response	0	2		31.0	2.5	/experiments/knapen_aot/oldvideos/S_ILSVRC2015_train_00572001.mp4	0.0	181.2936131954193	
33	88.09925508499146	movie	1		301.0	31.0	2.5	/experiments/knapen_aot/oldvideos/S_ILSVRC2015_train_00572001.mp4	0.0	181.301824092865	2.5084540843963623
33	90.60770916938782	fix_post	2		12.0	31.0	2.5	/experiments/knapen_aot/oldvideos/S_ILSVRC2015_train_00572001.mp4	0.0	183.81027817726135	0.09989595413208008
34	90.7076051235199	fix_pre	0		6.0	32.0	2.5	/experiments/knapen_aot/oldvideos/R_S_yt-7VVzNnp36DM_62.mp4	0.0	183.91017413139343	0.049928903579711914
34	90.74940013885498	response	0	2		32.0	2.5	/experiments/knapen_aot/oldvideos/R_S_yt-7VVzNnp36DM_62.mp4	0.0	183.95196914672852	
34	90.75753402709961	movie	1		301.0	32.0	2.5	/experiments/knapen_aot/oldvideos/R_S_yt-7VVzNnp36DM_62.mp4	0.0	183.96010303497314	2.508388042449951
34	92.22758221626282	response	1	2		32.0	2.5	/experiments/knapen_aot/oldvideos/R_S_yt-7VVzNnp36DM_62.mp4	0.0	185.43015122413635	
34	93.26592206954956	fix_post	2		12.0	32.0	2.5	/experiments/knapen_aot/oldvideos/R_S_yt-7VVzNnp36DM_62.mp4	0.0	186.4684910774231	0.10060906410217285
35	93.36653113365173	fix_pre	0		11.0	33.0	2.5	/experiments/knapen_aot/oldvideos/R_S_ILSVRC2015_train_00323000.mp4	0.0	186.56910014152527	0.0910179615020752
35	93.44940519332886	response	0	2		33.0	2.5	/experiments/knapen_aot/oldvideos/R_S_ILSVRC2015_train_00323000.mp4	0.0	186.6519742012024	
35	93.45754909515381	movie	1		301.0	33.0	2.5	/experiments/knapen_aot/oldvideos/R_S_ILSVRC2015_train_00323000.mp4	0.0	186.66011810302734	2.5083730220794678
35	95.96592211723328	fix_post	2		12.0	33.0	2.5	/experiments/knapen_aot/oldvideos/R_S_ILSVRC2015_train_00323000.mp4	0.0	189.1684911251068	0.09996604919433594
36	96.06588816642761	fix_pre	0		3.0	34.0	2.5	/experiments/knapen_aot/oldvideos/S_ILSVRC2015_train_00572000.mp4	0.0	189.26845717430115	0.025027990341186523
36	96.08266711235046	response	0	2		34.0	2.5	/experiments/knapen_aot/oldvideos/S_ILSVRC2015_train_00572000.mp4	0.0	189.285236120224	
36	96.0909161567688	movie	1		301.0	34.0	2.5	/experiments/knapen_aot/oldvideos/S_ILSVRC2015_train_00572000.mp4	0.0	189.29348516464233	2.508570909500122
36	98.59948706626892	fix_post	2		12.0	34.0	2.5	/experiments/knapen_aot/oldvideos/S_ILSVRC2015_train_00572000.mp4	0.0	191.80205607414246	0.09977102279663086
37	98.69925808906555	fix_pre	0		10.0	35.0	2.5	blank	1.0	191.9018270969391	0.08391499519348145
37	98.77439999580383	response	0	2		35.0	2.5	blank	1.0	191.97696900367737	
37	98.78317308425903	movie	1		301.0	35.0	2.5	blank	1.0	191.98574209213257	2.507707118988037
37	101.29088020324707	fix_post	2		12.0	35.0	2.5	blank	1.0	194.4934492111206	0.09997797012329102
38	101.39085817337036	fix_pre	0		29.0	36.0	2.5	/experiments/knapen_aot/oldvideos/S_yt-kiEFK7bDssE_14.mp4	0.0	194.5934271812439	0.24174904823303223
38	101.62434601783752	response	0	2		36.0	2.5	/experiments/knapen_aot/oldvideos/S_yt-kiEFK7bDssE_14.mp4	0.0	194.82691502571106	
38	101.6326072216034	movie	1		301.0	36.0	2.5	/experiments/knapen_aot/oldvideos/S_yt-kiEFK7bDssE_14.mp4	0.0	194.83517622947693	2.5082569122314453
38	104.14086413383484	fix_post	2		12.0	36.0	2.5	/experiments/knapen_aot/oldvideos/S_yt-kiEFK7bDssE_14.mp4	0.0	197.34343314170837	0.10003805160522461
39	104.24090218544006	fix_pre	0		14.0	37.0	2.5	/experiments/knapen_aot/oldvideos/R_S_yt-GWlwb2QsxIA_48.mp4	0.0	197.4434711933136	0.11658501625061035
39	104.34934616088867	response	0	2		37.0	2.5	/experiments/knapen_aot/oldvideos/R_S_yt-GWlwb2QsxIA_48.mp4	0.0	197.5519151687622	
39	104.35748720169067	movie	1		301.0	37.0	2.5	/experiments/knapen_aot/oldvideos/R_S_yt-GWlwb2QsxIA_48.mp4	0.0	197.5600562095642	2.508415937423706
39	106.86590313911438	fix_post	2		12.0	37.0	2.5	/experiments/knapen_aot/oldvideos/R_S_yt-GWlwb2QsxIA_48.mp4	0.0	200.06847214698792	0.09995603561401367
40	106.9658591747284	fix_pre	0		8.0	38.0	2.5	/experiments/knapen_aot/oldvideos/S_yt-7Fyu2vr7zbA_31.mp4	0.0	200.16842818260193	0.06719183921813965
40	107.02429008483887	response	0	2		38.0	2.5	/experiments/knapen_aot/oldvideos/S_yt-7Fyu2vr7zbA_31.mp4	0.0	200.2268590927124	
40	107.03305101394653	movie	1		301.0	38.0	2.5	/experiments/knapen_aot/oldvideos/S_yt-7Fyu2vr7zbA_31.mp4	0.0	200.23562002182007	2.507824182510376
40	109.54087519645691	fix_post	2		12.0	38.0	2.5	/experiments/knapen_aot/oldvideos/S_yt-7Fyu2vr7zbA_31.mp4	0.0	202.74344420433044	0.09993600845336914
41	109.64081120491028	fix_pre	0		19.0	39.0	2.5	/experiments/knapen_aot/oldvideos/R_S_yt-QD74nNliDvI_10.mp4	0.0	202.8433802127838	0.15836000442504883
41	109.79097318649292	response	0	2		39.0	2.5	/experiments/knapen_aot/oldvideos/R_S_yt-QD74nNliDvI_10.mp4	0.0	202.99354219436646	
41	109.79917120933533	movie	1		301.0	39.0	2.5	/experiments/knapen_aot/oldvideos/R_S_yt-QD74nNliDvI_10.mp4	0.0	203.00174021720886	2.5085079669952393
41	112.30767917633057	fix_post	2		12.0	39.0	2.5	/experiments/knapen_aot/oldvideos/R_S_yt-QD74nNliDvI_10.mp4	0.0	205.5102481842041	0.10036802291870117
42	112.40804719924927	fix_pre	0		4.0	40.0	2.5	/experiments/knapen_aot/oldvideos/R_S_yt-LYnwnfi1JJ4_120.mp4	0.0	205.6106162071228	0.032753944396972656
42	112.43264508247375	response	0	2		40.0	2.5	/experiments/knapen_aot/oldvideos/R_S_yt-LYnwnfi1JJ4_120.mp4	0.0	205.6352140903473	
42	112.44080114364624	movie	1		301.0	40.0	2.5	/experiments/knapen_aot/oldvideos/R_S_yt-LYnwnfi1JJ4_120.mp4	0.0	205.64337015151978	2.5083580017089844
42	114.94915914535522	fix_post	2		12.0	40.0	2.5	/experiments/knapen_aot/oldvideos/R_S_yt-LYnwnfi1JJ4_120.mp4	0.0	208.15172815322876	0.09999203681945801
43	115.04915118217468	fix_pre	0		9.0	41.0	2.5	/experiments/knapen_aot/oldvideos/R_S_yt-QXsedpZh800_275.mp4	0.0	208.25172019004822	0.07500004768371582
43	115.11584711074829	response	0	2		41.0	2.5	/experiments/knapen_aot/oldvideos/R_S_yt-QXsedpZh800_275.mp4	0.0	208.31841611862183	
43	115.1241512298584	movie	1		301.0	41.0	2.5	/experiments/knapen_aot/oldvideos/R_S_yt-QXsedpZh800_275.mp4	0.0	208.32672023773193	2.5083107948303223
43	117.63246202468872	fix_post	2		12.0	41.0	2.5	/experiments/knapen_aot/oldvideos/R_S_yt-QXsedpZh800_275.mp4	0.0	210.83503103256226	0.10000300407409668
44	117.73246502876282	fix_pre	0		20.0	42.0	2.5	blank	1.0	210.93503403663635	0.1667160987854004
44	117.89094805717468	response	0	2		42.0	2.5	blank	1.0	211.09351706504822	
44	117.89918112754822	movie	1		301.0	42.0	2.5	blank	1.0	211.10175013542175	2.5086441040039062
44	120.40782523155212	fix_post	2		12.0	42.0	2.5	blank	1.0	213.61039423942566	0.09965085983276367
45	120.50747609138489	fix_pre	0		21.0	43.0	2.5	/experiments/knapen_aot/oldvideos/R_S_yt-M8wvzt_BMXM_173.mp4	0.0	213.71004509925842	0.1751389503479004
45	120.67425107955933	response	0	2		43.0	2.5	/experiments/knapen_aot/oldvideos/R_S_yt-M8wvzt_BMXM_173.mp4	0.0	213.87682008743286	
45	120.68261504173279	movie	1		301.0	43.0	2.5	/experiments/knapen_aot/oldvideos/R_S_yt-M8wvzt_BMXM_173.mp4	0.0	213.88518404960632	2.5082271099090576
45	123.19084215164185	fix_post	2		12.0	43.0	2.5	/experiments/knapen_aot/oldvideos/R_S_yt-M8wvzt_BMXM_173.mp4	0.0	216.39341115951538	0.09984207153320312
45	123.28276419639587	response	2	2		43.0	2.5	/experiments/knapen_aot/oldvideos/R_S_yt-M8wvzt_BMXM_173.mp4	0.0	216.4853332042694	
46	123.29068422317505	fix_pre	0		51.0	44.0	2.5	/experiments/knapen_aot/oldvideos/R_S_video_inspire_sanfrancisco_castro_005.1080-h264.mp4	0.0	216.49325323104858	0.42510294914245605
46	123.70754218101501	response	0	2		44.0	2.5	/experiments/knapen_aot/oldvideos/R_S_video_inspire_sanfrancisco_castro_005.1080-h264.mp4	0.0	216.91011118888855	
46	123.7157871723175	movie	1		166.0	44.0	2.5	/experiments/knapen_aot/oldvideos/R_S_video_inspire_sanfrancisco_castro_005.1080-h264.mp4	0.0	216.91835618019104	2.508694887161255
46	126.22448205947876	fix_post	2		12.0	44.0	2.5	/experiments/knapen_aot/oldvideos/R_S_video_inspire_sanfrancisco_castro_005.1080-h264.mp4	0.0	219.4270510673523	0.09967303276062012
46	126.25757622718811	response	2	2		44.0	2.5	/experiments/knapen_aot/oldvideos/R_S_video_inspire_sanfrancisco_castro_005.1080-h264.mp4	0.0	219.46014523506165	
47	126.32415509223938	fix_pre	0		26.0	45.0	2.5	/experiments/knapen_aot/oldvideos/R_S_yt-xrPrnzvWUkY_7.mp4	0.0	219.52672410011292	0.21657204627990723
47	126.53263306617737	response	0	2		45.0	2.5	/experiments/knapen_aot/oldvideos/R_S_yt-xrPrnzvWUkY_7.mp4	0.0	219.7352020740509	
47	126.54072713851929	movie	1		301.0	45.0	2.5	/experiments/knapen_aot/oldvideos/R_S_yt-xrPrnzvWUkY_7.mp4	0.0	219.74329614639282	2.508586883544922
47	129.0493140220642	fix_post	2		12.0	45.0	2.5	/experiments/knapen_aot/oldvideos/R_S_yt-xrPrnzvWUkY_7.mp4	0.0	222.25188302993774	0.09980416297912598
48	129.14911818504333	fix_pre	0		10.0	46.0	2.5	/experiments/knapen_aot/oldvideos/R_S_bing-www_yahoo_com_entertainment_anastasia-karanikolaou-chantel-jeffries-discuss-182400502_html_9.mp4	0.0	222.35168719291687	0.08330583572387695
48	129.22428703308105	response	0	2		46.0	2.5	/experiments/knapen_aot/oldvideos/R_S_bing-www_yahoo_com_entertainment_anastasia-karanikolaou-chantel-jeffries-discuss-182400502_html_9.mp4	0.0	222.4268560409546	
48	129.2324240207672	movie	1		163.0	46.0	2.5	/experiments/knapen_aot/oldvideos/R_S_bing-www_yahoo_com_entertainment_anastasia-karanikolaou-chantel-jeffries-discuss-182400502_html_9.mp4	0.0	222.43499302864075	2.5084991455078125
48	131.74092316627502	fix_post	2		12.0	46.0	2.5	/experiments/knapen_aot/oldvideos/R_S_bing-www_yahoo_com_entertainment_anastasia-karanikolaou-chantel-jeffries-discuss-182400502_html_9.mp4	0.0	224.94349217414856	0.09989595413208008
49	131.8408191204071	fix_pre	0		4.0	47.0	2.5	/experiments/knapen_aot/oldvideos/R_S_yt-y3tyx6cZjmA_412.mp4	0.0	225.04338812828064	0.03325605392456055
49	131.86654710769653	response	0	2		47.0	2.5	/experiments/knapen_aot/oldvideos/R_S_yt-y3tyx6cZjmA_412.mp4	0.0	225.06911611557007	
49	131.87407517433167	movie	1		301.0	47.0	2.5	/experiments/knapen_aot/oldvideos/R_S_yt-y3tyx6cZjmA_412.mp4	0.0	225.0766441822052	2.5083048343658447
49	134.3823800086975	fix_post	2		12.0	47.0	2.5	/experiments/knapen_aot/oldvideos/R_S_yt-y3tyx6cZjmA_412.mp4	0.0	227.58494901657104	0.10003519058227539
50	134.48241519927979	fix_pre	0		5.0	48.0	2.5	blank	1.0	227.68498420715332	0.041690826416015625
50	134.51590204238892	response	0	2		48.0	2.5	blank	1.0	227.71847105026245	
50	134.5241060256958	movie	1		301.0	48.0	2.5	blank	1.0	227.72667503356934	2.5082859992980957
50	137.0323920249939	fix_post	2		12.0	48.0	2.5	blank	1.0	230.23496103286743	0.10007715225219727
51	137.1324691772461	fix_pre	0		22.0	49.0	2.5	/experiments/knapen_aot/oldvideos/S_MEX_A006_C008_SDR_20190923_SDR_2K_AVC.mp4	0.0	230.33503818511963	0.18317484855651855
51	137.30748200416565	response	0	2		49.0	2.5	/experiments/knapen_aot/oldvideos/S_MEX_A006_C008_SDR_20190923_SDR_2K_AVC.mp4	0.0	230.51005101203918	
51	137.3156440258026	movie	1		166.0	49.0	2.5	/experiments/knapen_aot/oldvideos/S_MEX_A006_C008_SDR_20190923_SDR_2K_AVC.mp4	0.0	230.51821303367615	2.508423089981079
51	139.8240671157837	fix_post	2		12.0	49.0	2.5	/experiments/knapen_aot/oldvideos/S_MEX_A006_C008_SDR_20190923_SDR_2K_AVC.mp4	0.0	233.02663612365723	0.09993910789489746
52	139.9240062236786	fix_pre	0		15.0	50.0	2.5	/experiments/knapen_aot/oldvideos/S_yt-7K5X1G7Cpls_965.mp4	0.0	233.12657523155212	0.12500882148742676
52	140.04080200195312	response	0	2		50.0	2.5	/experiments/knapen_aot/oldvideos/S_yt-7K5X1G7Cpls_965.mp4	0.0	233.24337100982666	
52	140.04901504516602	movie	1		301.0	50.0	2.5	/experiments/knapen_aot/oldvideos/S_yt-7K5X1G7Cpls_965.mp4	0.0	233.25158405303955	2.508471965789795
52	142.1541450023651	response	1	2		50.0	2.5	/experiments/knapen_aot/oldvideos/S_yt-7K5X1G7Cpls_965.mp4	0.0	235.35671401023865	
52	142.5574870109558	fix_post	2		12.0	50.0	2.5	/experiments/knapen_aot/oldvideos/S_yt-7K5X1G7Cpls_965.mp4	0.0	235.76005601882935	0.10028219223022461
53	142.65776920318604	fix_pre	0		5.0	51.0	2.5	/experiments/knapen_aot/oldvideos/R_S_yt-XYULt48onn4_6.mp4	0.0	235.86033821105957	0.041563987731933594
53	142.6907901763916	response	0	2		51.0	2.5	/experiments/knapen_aot/oldvideos/R_S_yt-XYULt48onn4_6.mp4	0.0	235.89335918426514	
53	142.69933319091797	movie	1		301.0	51.0	2.5	/experiments/knapen_aot/oldvideos/R_S_yt-XYULt48onn4_6.mp4	0.0	235.9019021987915	2.5080549716949463
53	145.20738816261292	fix_post	2		12.0	51.0	2.5	/experiments/knapen_aot/oldvideos/R_S_yt-XYULt48onn4_6.mp4	0.0	238.40995717048645	0.09996294975280762
54	145.30735111236572	fix_pre	0		14.0	52.0	2.5	/experiments/knapen_aot/oldvideos/S_yt-ycfVJyrFgB4_15.mp4	0.0	238.50992012023926	0.11661100387573242
54	145.41585302352905	response	0	2		52.0	2.5	/experiments/knapen_aot/oldvideos/S_yt-ycfVJyrFgB4_15.mp4	0.0	238.6184220314026	
54	145.42396211624146	movie	1		301.0	52.0	2.5	/experiments/knapen_aot/oldvideos/S_yt-ycfVJyrFgB4_15.mp4	0.0	238.626531124115	2.5083980560302734
54	147.93236017227173	fix_post	2		12.0	52.0	2.5	/experiments/knapen_aot/oldvideos/S_yt-ycfVJyrFgB4_15.mp4	0.0	241.13492918014526	0.10037684440612793
55	148.03273701667786	fix_pre	0		29.0	53.0	2.5	/experiments/knapen_aot/oldvideos/R_S_yt-GWlwb2QsxIA_48.mp4	0.0	241.2353060245514	0.24130606651306152
55	148.26580119132996	response	0	2		53.0	2.5	/experiments/knapen_aot/oldvideos/R_S_yt-GWlwb2QsxIA_48.mp4	0.0	241.4683701992035	
55	148.27404308319092	movie	1		301.0	53.0	2.5	/experiments/knapen_aot/oldvideos/R_S_yt-GWlwb2QsxIA_48.mp4	0.0	241.47661209106445	2.5083770751953125
55	150.78242015838623	fix_post	2		12.0	53.0	2.5	/experiments/knapen_aot/oldvideos/R_S_yt-GWlwb2QsxIA_48.mp4	0.0	243.98498916625977	0.0999748706817627
56	150.882395029068	fix_pre	0		16.0	54.0	2.5	blank	1.0	244.08496403694153	0.1332261562347412
56	151.00747799873352	response	0	2		54.0	2.5	blank	1.0	244.21004700660706	
56	151.01562118530273	movie	1		301.0	54.0	2.5	blank	1.0	244.21819019317627	2.508352041244507
56	153.52397322654724	fix_post	2		12.0	54.0	2.5	blank	1.0	246.72654223442078	0.10001087188720703
57	153.62398409843445	fix_pre	0		22.0	55.0	2.5	/experiments/knapen_aot/oldvideos/R_S_yt-QXsedpZh800_275.mp4	0.0	246.82655310630798	0.18332791328430176
57	153.79908418655396	response	0	2		55.0	2.5	/experiments/knapen_aot/oldvideos/R_S_yt-QXsedpZh800_275.mp4	0.0	247.0016531944275	
57	153.80731201171875	movie	1		301.0	55.0	2.5	/experiments/knapen_aot/oldvideos/R_S_yt-QXsedpZh800_275.mp4	0.0	247.00988101959229	2.5083601474761963
57	156.31567215919495	fix_post	2		12.0	55.0	2.5	/experiments/knapen_aot/oldvideos/R_S_yt-QXsedpZh800_275.mp4	0.0	249.51824116706848	0.09997200965881348
58	156.41564416885376	fix_pre	0		20.0	56.0	2.5	/experiments/knapen_aot/oldvideos/S_yt-2IN85w8ptmM_51.mp4	0.0	249.6182131767273	0.16660690307617188
58	156.5741150379181	response	0	2		56.0	2.5	/experiments/knapen_aot/oldvideos/S_yt-2IN85w8ptmM_51.mp4	0.0	249.77668404579163	
58	156.58225107192993	movie	1		301.0	56.0	2.5	/experiments/knapen_aot/oldvideos/S_yt-2IN85w8ptmM_51.mp4	0.0	249.78482007980347	2.5084140300750732
58	159.090665102005	fix_post	2		12.0	56.0	2.5	/experiments/knapen_aot/oldvideos/S_yt-2IN85w8ptmM_51.mp4	0.0	252.29323410987854	0.09998202323913574
59	159.19064712524414	fix_pre	0		19.0	57.0	2.5	/experiments/knapen_aot/oldvideos/S_yt-fQgLKiz2tuM_14.mp4	0.0	252.39321613311768	0.15821599960327148
59	159.34071111679077	response	0	2		57.0	2.5	/experiments/knapen_aot/oldvideos/S_yt-fQgLKiz2tuM_14.mp4	0.0	252.5432801246643	
59	159.3488631248474	movie	1		301.0	57.0	2.5	/experiments/knapen_aot/oldvideos/S_yt-fQgLKiz2tuM_14.mp4	0.0	252.55143213272095	2.5084190368652344
59	161.85728216171265	fix_post	2		12.0	57.0	2.5	/experiments/knapen_aot/oldvideos/S_yt-fQgLKiz2tuM_14.mp4	0.0	255.05985116958618	0.10002493858337402
60	161.95730710029602	fix_pre	0		13.0	58.0	2.5	/experiments/knapen_aot/oldvideos/S_yt-OLDm2slgfA4_3.mp4	0.0	255.15987610816956	0.10830092430114746
60	162.04991507530212	response	0	2		58.0	2.5	/experiments/knapen_aot/oldvideos/S_yt-OLDm2slgfA4_3.mp4	0.0	255.25248408317566	
60	162.06560802459717	movie	1		301.0	58.0	2.5	/experiments/knapen_aot/oldvideos/S_yt-OLDm2slgfA4_3.mp4	0.0	255.2681770324707	2.5084540843963623
60	164.57406210899353	fix_post	2		12.0	58.0	2.5	/experiments/knapen_aot/oldvideos/S_yt-OLDm2slgfA4_3.mp4	0.0	257.77663111686707	0.09991693496704102
61	164.67397904396057	fix_pre	0		19.0	59.0	2.5	/experiments/knapen_aot/oldvideos/S_pexels-roman-odintsov-8232443.mp4	0.0	257.8765480518341	0.15831804275512695
61	164.824068069458	response	0	2		59.0	2.5	/experiments/knapen_aot/oldvideos/S_pexels-roman-odintsov-8232443.mp4	0.0	258.02663707733154	
61	164.8322970867157	movie	1		207.0	59.0	2.5	/experiments/knapen_aot/oldvideos/S_pexels-roman-odintsov-8232443.mp4	0.0	258.03486609458923	2.5083680152893066
61	167.340665102005	fix_post	2		12.0	59.0	2.5	/experiments/knapen_aot/oldvideos/S_pexels-roman-odintsov-8232443.mp4	0.0	260.54323410987854	0.09998297691345215
62	167.44064807891846	fix_pre	0		9.0	60.0	2.5	/experiments/knapen_aot/oldvideos/R_S_yt-nfDPFHUDq8g_136.mp4	0.0	260.643217086792	0.07495903968811035
62	167.5074372291565	response	0	2		60.0	2.5	/experiments/knapen_aot/oldvideos/R_S_yt-nfDPFHUDq8g_136.mp4	0.0	260.71000623703003	
62	167.51560711860657	movie	1		301.0	60.0	2.5	/experiments/knapen_aot/oldvideos/R_S_yt-nfDPFHUDq8g_136.mp4	0.0	260.7181761264801	2.5083260536193848
62	170.02393317222595	fix_post	2		12.0	60.0	2.5	/experiments/knapen_aot/oldvideos/R_S_yt-nfDPFHUDq8g_136.mp4	0.0	263.2265021800995	0.09998583793640137
63	170.12391901016235	fix_pre	0		8.0	61.0	2.5	/experiments/knapen_aot/oldvideos/S_yt-fk-z6WCvjjA_3.mp4	0.0	263.3264880180359	0.0667722225189209
63	170.182373046875	response	0	2		61.0	2.5	/experiments/knapen_aot/oldvideos/S_yt-fk-z6WCvjjA_3.mp4	0.0	263.38494205474854	
63	170.19069123268127	movie	1		301.0	61.0	2.5	/experiments/knapen_aot/oldvideos/S_yt-fk-z6WCvjjA_3.mp4	0.0	263.3932602405548	2.5082309246063232
63	172.6989221572876	fix_post	2		12.0	61.0	2.5	/experiments/knapen_aot/oldvideos/S_yt-fk-z6WCvjjA_3.mp4	0.0	265.90149116516113	0.10026884078979492
64	172.7991909980774	fix_pre	0		9.0	62.0	2.5	blank	1.0	266.0017600059509	0.07460618019104004
64	172.86567521095276	response	0	2		62.0	2.5	blank	1.0	266.0682442188263	
64	172.87379717826843	movie	1		301.0	62.0	2.5	blank	1.0	266.07636618614197	2.5083889961242676
64	175.3821861743927	fix_post	2		12.0	62.0	2.5	blank	1.0	268.58475518226624	0.10008502006530762
65	175.482271194458	fix_pre	0		20.0	63.0	2.5	/experiments/knapen_aot/oldvideos/R_S_yt-z16pdVTZK1o_3.mp4	0.0	268.68484020233154	0.16660189628601074
65	175.6405951976776	response	0	2		63.0	2.5	/experiments/knapen_aot/oldvideos/R_S_yt-z16pdVTZK1o_3.mp4	0.0	268.84316420555115	
65	175.64887309074402	movie	1		301.0	63.0	2.5	/experiments/knapen_aot/oldvideos/R_S_yt-z16pdVTZK1o_3.mp4	0.0	268.85144209861755	2.5083980560302734
65	178.1572711467743	fix_post	2		12.0	63.0	2.5	/experiments/knapen_aot/oldvideos/R_S_yt-z16pdVTZK1o_3.mp4	0.0	271.3598401546478	0.10003399848937988
66	178.25730514526367	fix_pre	0		8.0	64.0	2.5	/experiments/knapen_aot/oldvideos/R_S_P007_C027_UHD_SDR_2K_AVC.mp4	0.0	271.4598741531372	0.06685400009155273
66	178.31557512283325	response	0	2		64.0	2.5	/experiments/knapen_aot/oldvideos/R_S_P007_C027_UHD_SDR_2K_AVC.mp4	0.0	271.5181441307068	
66	178.32415914535522	movie	1		169.0	64.0	2.5	/experiments/knapen_aot/oldvideos/R_S_P007_C027_UHD_SDR_2K_AVC.mp4	0.0	271.52672815322876	2.508028984069824
66	180.83218812942505	fix_post	2		12.0	64.0	2.5	/experiments/knapen_aot/oldvideos/R_S_P007_C027_UHD_SDR_2K_AVC.mp4	0.0	274.0347571372986	0.10001993179321289
66	180.8989222049713	response	2	2		64.0	2.5	/experiments/knapen_aot/oldvideos/R_S_P007_C027_UHD_SDR_2K_AVC.mp4	0.0	274.10149121284485	
67	180.93220806121826	fix_pre	0		35.0	65.0	2.5	/experiments/knapen_aot/oldvideos/R_S_ILSVRC2015_train_00415003.mp4	0.0	274.1347770690918	0.2916431427001953
67	181.21556901931763	response	0	2		65.0	2.5	/experiments/knapen_aot/oldvideos/R_S_ILSVRC2015_train_00415003.mp4	0.0	274.41813802719116	
67	181.22385120391846	movie	1		301.0	65.0	2.5	/experiments/knapen_aot/oldvideos/R_S_ILSVRC2015_train_00415003.mp4	0.0	274.426420211792	2.5083298683166504
67	183.7321810722351	fix_post	2		12.0	65.0	2.5	/experiments/knapen_aot/oldvideos/R_S_ILSVRC2015_train_00415003.mp4	0.0	276.93475008010864	0.10000801086425781
68	183.83218908309937	fix_pre	0		3.0	66.0	2.5	/experiments/knapen_aot/oldvideos/S_yt-rY_ra5Tb9XU_51.mp4	0.0	277.0347580909729	0.02498006820678711
68	183.84893608093262	response	0	2		66.0	2.5	/experiments/knapen_aot/oldvideos/S_yt-rY_ra5Tb9XU_51.mp4	0.0	277.05150508880615	
68	183.85716915130615	movie	1		301.0	66.0	2.5	/experiments/knapen_aot/oldvideos/S_yt-rY_ra5Tb9XU_51.mp4	0.0	277.0597381591797	2.508488893508911
68	186.36565804481506	fix_post	2		12.0	66.0	2.5	/experiments/knapen_aot/oldvideos/S_yt-rY_ra5Tb9XU_51.mp4	0.0	279.5682270526886	0.09985017776489258
69	186.46550822257996	fix_pre	0		13.0	67.0	2.5	/experiments/knapen_aot/oldvideos/R_S_yt-lfDIg8kaXhA_169.mp4	0.0	279.6680772304535	0.10839986801147461
69	186.55807399749756	response	0	2		67.0	2.5	/experiments/knapen_aot/oldvideos/R_S_yt-lfDIg8kaXhA_169.mp4	0.0	279.7606430053711	
69	186.57390809059143	movie	1		301.0	67.0	2.5	/experiments/knapen_aot/oldvideos/R_S_yt-lfDIg8kaXhA_169.mp4	0.0	279.77647709846497	2.508281946182251
69	189.08219003677368	fix_post	2		12.0	67.0	2.5	/experiments/knapen_aot/oldvideos/R_S_yt-lfDIg8kaXhA_169.mp4	0.0	282.2847590446472	0.0999760627746582
70	189.18216609954834	fix_pre	0		13.0	68.0	2.5	/experiments/knapen_aot/oldvideos/R_S_yt-pO5SVq-9EhU_114.mp4	0.0	282.3847351074219	0.1083519458770752
70	189.28226017951965	response	0	2		68.0	2.5	/experiments/knapen_aot/oldvideos/R_S_yt-pO5SVq-9EhU_114.mp4	0.0	282.4848291873932	
70	189.29051804542542	movie	1		301.0	68.0	2.5	/experiments/knapen_aot/oldvideos/R_S_yt-pO5SVq-9EhU_114.mp4	0.0	282.49308705329895	2.5083110332489014
70	191.79882907867432	fix_post	2		12.0	68.0	2.5	/experiments/knapen_aot/oldvideos/R_S_yt-pO5SVq-9EhU_114.mp4	0.0	285.00139808654785	0.10001397132873535
71	191.89884305000305	fix_pre	0		21.0	69.0	2.5	blank	1.0	285.1014120578766	0.1750631332397461
71	192.0656042098999	response	0	2		69.0	2.5	blank	1.0	285.26817321777344	
71	192.0739061832428	movie	1		301.0	69.0	2.5	blank	1.0	285.27647519111633	2.5082600116729736
71	194.58216619491577	fix_post	2		12.0	69.0	2.5	blank	1.0	287.7847352027893	0.1000068187713623
72	194.68217301368713	fix_pre	0		56.0	70.0	2.5	/experiments/knapen_aot/oldvideos/S_yt-M8wvzt_BMXM_173.mp4	0.0	287.88474202156067	0.46657800674438477
72	195.14054322242737	response	0	2		70.0	2.5	/experiments/knapen_aot/oldvideos/S_yt-M8wvzt_BMXM_173.mp4	0.0	288.3431122303009	
72	195.14875102043152	movie	1		301.0	70.0	2.5	/experiments/knapen_aot/oldvideos/S_yt-M8wvzt_BMXM_173.mp4	0.0	288.35132002830505	2.5085179805755615
72	197.65726900100708	fix_post	2		12.0	70.0	2.5	/experiments/knapen_aot/oldvideos/S_yt-M8wvzt_BMXM_173.mp4	0.0	290.8598380088806	0.09988617897033691
73	197.75715517997742	fix_pre	0		21.0	71.0	2.5	/experiments/knapen_aot/oldvideos/S_yt-eoASPwIAiHY_244.mp4	0.0	290.95972418785095	0.17489194869995117
73	197.92388319969177	response	0	2		71.0	2.5	/experiments/knapen_aot/oldvideos/S_yt-eoASPwIAiHY_244.mp4	0.0	291.1264522075653	
73	197.93204712867737	movie	1		301.0	71.0	2.5	/experiments/knapen_aot/oldvideos/S_yt-eoASPwIAiHY_244.mp4	0.0	291.1346161365509	2.5083789825439453
73	200.4404261112213	fix_post	2		12.0	71.0	2.5	/experiments/knapen_aot/oldvideos/S_yt-eoASPwIAiHY_244.mp4	0.0	293.64299511909485	0.10022091865539551
74	200.5406470298767	fix_pre	0		31.0	72.0	2.5	/experiments/knapen_aot/oldvideos/S_P007_C027_UHD_SDR_2K_AVC.mp4	0.0	293.74321603775024	0.2581181526184082
74	200.79055309295654	response	0	2		72.0	2.5	/experiments/knapen_aot/oldvideos/S_P007_C027_UHD_SDR_2K_AVC.mp4	0.0	293.9931221008301	
74	200.79876518249512	movie	1		169.0	72.0	2.5	/experiments/knapen_aot/oldvideos/S_P007_C027_UHD_SDR_2K_AVC.mp4	0.0	294.00133419036865	2.5083398818969727
74	203.3071050643921	fix_post	2		12.0	72.0	2.5	/experiments/knapen_aot/oldvideos/S_P007_C027_UHD_SDR_2K_AVC.mp4	0.0	296.5096740722656	0.10023212432861328
75	203.4073371887207	fix_pre	0		2.0	73.0	2.5	/experiments/knapen_aot/oldvideos/S_WCwb-DeQOSg_85.mp4	0.0	296.60990619659424	0.016438961029052734
75	203.41556000709534	response	0	2		73.0	2.5	/experiments/knapen_aot/oldvideos/S_WCwb-DeQOSg_85.mp4	0.0	296.6181290149689	
75	203.42377614974976	movie	1		301.0	73.0	2.5	/experiments/knapen_aot/oldvideos/S_WCwb-DeQOSg_85.mp4	0.0	296.6263451576233	2.5083329677581787
75	205.93210911750793	fix_post	2		12.0	73.0	2.5	/experiments/knapen_aot/oldvideos/S_WCwb-DeQOSg_85.mp4	0.0	299.13467812538147	0.10005497932434082
76	206.03216409683228	fix_pre	0		22.0	74.0	2.5	/experiments/knapen_aot/oldvideos/S_flickr-lamujuri-10653517683_4.mp4	0.0	299.2347331047058	0.1832599639892578
76	206.20723819732666	response	0	2		74.0	2.5	/experiments/knapen_aot/oldvideos/S_flickr-lamujuri-10653517683_4.mp4	0.0	299.4098072052002	
76	206.21542406082153	movie	1		166.0	74.0	2.5	/experiments/knapen_aot/oldvideos/S_flickr-lamujuri-10653517683_4.mp4	0.0	299.41799306869507	2.50832200050354
76	208.72374606132507	fix_post	2		12.0	74.0	2.5	/experiments/knapen_aot/oldvideos/S_flickr-lamujuri-10653517683_4.mp4	0.0	301.9263150691986	0.10001611709594727
77	208.82376217842102	fix_pre	0		4.0	75.0	2.5	/experiments/knapen_aot/oldvideos/S_ILSVRC2015_train_00524001.mp4	0.0	302.02633118629456	0.03332185745239258
77	208.8488872051239	response	0	2		75.0	2.5	/experiments/knapen_aot/oldvideos/S_ILSVRC2015_train_00524001.mp4	0.0	302.05145621299744	
77	208.8570840358734	movie	1		301.0	75.0	2.5	/experiments/knapen_aot/oldvideos/S_ILSVRC2015_train_00524001.mp4	0.0	302.05965304374695	2.5083510875701904
77	211.3654351234436	fix_post	2		12.0	75.0	2.5	/experiments/knapen_aot/oldvideos/S_ILSVRC2015_train_00524001.mp4	0.0	304.56800413131714	0.09992194175720215
78	211.4653570652008	fix_pre	0		18.0	76.0	2.5	blank	1.0	304.66792607307434	0.15007996559143066
78	211.5996332168579	response	0	2		76.0	2.5	blank	1.0	304.80220222473145	
78	211.61543703079224	movie	1		301.0	76.0	2.5	blank	1.0	304.81800603866577	2.5082881450653076
78	214.12372517585754	fix_post	2		12.0	76.0	2.5	blank	1.0	307.3262941837311	0.1000819206237793
79	214.22380709648132	fix_pre	0		53.0	77.0	2.5	/experiments/knapen_aot/oldvideos/S_ILSVRC2015_train_00411001.mp4	0.0	307.42637610435486	0.4416029453277588
79	214.65719509124756	response	0	2		77.0	2.5	/experiments/knapen_aot/oldvideos/S_ILSVRC2015_train_00411001.mp4	0.0	307.8597640991211	
79	214.66541004180908	movie	1		301.0	77.0	2.5	/experiments/knapen_aot/oldvideos/S_ILSVRC2015_train_00411001.mp4	0.0	307.8679790496826	2.5083320140838623
79	217.17374205589294	fix_post	2		12.0	77.0	2.5	/experiments/knapen_aot/oldvideos/S_ILSVRC2015_train_00411001.mp4	0.0	310.3763110637665	0.10007596015930176
80	217.27381801605225	fix_pre	0		15.0	78.0	2.5	/experiments/knapen_aot/oldvideos/R_S_yt-PYHK810V_n8_1375.mp4	0.0	310.4763870239258	0.1248631477355957
80	217.39046502113342	response	0	2		78.0	2.5	/experiments/knapen_aot/oldvideos/R_S_yt-PYHK810V_n8_1375.mp4	0.0	310.59303402900696	
80	217.39868116378784	movie	1		301.0	78.0	2.5	/experiments/knapen_aot/oldvideos/R_S_yt-PYHK810V_n8_1375.mp4	0.0	310.6012501716614	2.508370876312256
80	219.9070520401001	fix_post	2		12.0	78.0	2.5	/experiments/knapen_aot/oldvideos/R_S_yt-PYHK810V_n8_1375.mp4	0.0	313.10962104797363	0.09998297691345215
81	220.00703501701355	fix_pre	0		18.0	79.0	2.5	/experiments/knapen_aot/oldvideos/S_yt-savE5_jePKQ_25.mp4	0.0	313.2096040248871	0.14997506141662598
81	220.14872908592224	response	0	2		79.0	2.5	/experiments/knapen_aot/oldvideos/S_yt-savE5_jePKQ_25.mp4	0.0	313.3512980937958	
81	220.15701007843018	movie	1		301.0	79.0	2.5	/experiments/knapen_aot/oldvideos/S_yt-savE5_jePKQ_25.mp4	0.0	313.3595790863037	2.5083980560302734
81	222.66540813446045	fix_post	2		12.0	79.0	2.5	/experiments/knapen_aot/oldvideos/S_yt-savE5_jePKQ_25.mp4	0.0	315.867977142334	0.09996509552001953
82	222.76537322998047	fix_pre	0		9.0	80.0	2.5	/experiments/knapen_aot/oldvideos/S_yt--C2DDZ7LOQA_95.mp4	0.0	315.967942237854	0.0750279426574707
82	222.8321590423584	response	0	2		80.0	2.5	/experiments/knapen_aot/oldvideos/S_yt--C2DDZ7LOQA_95.mp4	0.0	316.03472805023193	
82	222.84040117263794	movie	1		301.0	80.0	2.5	/experiments/knapen_aot/oldvideos/S_yt--C2DDZ7LOQA_95.mp4	0.0	316.0429701805115	2.508298873901367
82	225.3487000465393	fix_post	2		12.0	80.0	2.5	/experiments/knapen_aot/oldvideos/S_yt--C2DDZ7LOQA_95.mp4	0.0	318.55126905441284	0.09998703002929688
83	225.4486870765686	fix_pre	0		20.0	81.0	2.5	/experiments/knapen_aot/oldvideos/S_yt-MhW2fU45JK8_544.mp4	0.0	318.65125608444214	0.1666550636291504
83	225.60712718963623	response	0	2		81.0	2.5	/experiments/knapen_aot/oldvideos/S_yt-MhW2fU45JK8_544.mp4	0.0	318.80969619750977	
83	225.61534214019775	movie	1		301.0	81.0	2.5	/experiments/knapen_aot/oldvideos/S_yt-MhW2fU45JK8_544.mp4	0.0	318.8179111480713	2.508272886276245
83	228.123615026474	fix_post	2		12.0	81.0	2.5	/experiments/knapen_aot/oldvideos/S_yt-MhW2fU45JK8_544.mp4	0.0	321.32618403434753	0.1000661849975586
84	228.22368121147156	fix_pre	0		13.0	82.0	2.5	/experiments/knapen_aot/oldvideos/S_pexels-roman-odintsov-8232443.mp4	0.0	321.4262502193451	0.10830187797546387
84	228.32378005981445	response	0	2		82.0	2.5	/experiments/knapen_aot/oldvideos/S_pexels-roman-odintsov-8232443.mp4	0.0	321.526349067688	
84	228.33198308944702	movie	1		209.0	82.0	2.5	/experiments/knapen_aot/oldvideos/S_pexels-roman-odintsov-8232443.mp4	0.0	321.53455209732056	2.508307933807373
84	230.8402910232544	fix_post	2		12.0	82.0	2.5	/experiments/knapen_aot/oldvideos/S_pexels-roman-odintsov-8232443.mp4	0.0	324.04286003112793	0.10010504722595215
85	230.94039607048035	fix_pre	0		15.0	83.0	2.5	blank	1.0	324.1429650783539	0.12500500679016113
85	231.05717301368713	response	0	2		83.0	2.5	blank	1.0	324.25974202156067	
85	231.0654010772705	movie	1		301.0	83.0	2.5	blank	1.0	324.26797008514404	2.508234977722168
85	233.57363605499268	fix_post	2		12.0	83.0	2.5	blank	1.0	326.7762050628662	0.10012412071228027
87	233.67376017570496	stim	0		375.0					326.8763291835785	3.1248350143432617
87	233.82477402687073	response	0	2						327.02734303474426	
87	236.79363012313843	response	0	space						329.99619913101196	
