trial_nr	onset	event_type	phase	response	nr_frames	movie_index	movie_duration	movie_file	blank	onset_abs	duration
0	0.12697196006774902	stim	0		57.0					78.4302499294281	0.4723780155181885
0	0.5911397933959961	response	0	space						78.89441776275635	
1	0.5993499755859375	stim	0		121.0					78.90262794494629	1.0082340240478516
1	1.607583999633789	stim	1		120.0					79.91086196899414	0.9996860027313232
1	1.6494548320770264	response	1	space						79.95273280143738	
1	2.123987913131714	response	1	space						80.42726588249207	
2	2.6072700023651123	fix_pre	0		3.0	0.0	2.5	/experiments/knapen_aot/videos/S_wc-6or3Gl2Fif0m_13.mp4	0.0	80.91054797172546	0.02634286880493164
2	2.624069929122925	response	0	space		0.0	2.5	/experiments/knapen_aot/videos/S_wc-6or3Gl2Fif0m_13.mp4	0.0	80.92734789848328	
2	2.633612871170044	movie	1		163.0	0.0	2.5	/experiments/knapen_aot/videos/S_wc-6or3Gl2Fif0m_13.mp4	0.0	80.9368908405304	2.5070409774780273
2	5.140653848648071	fix_post	2		12.0	0.0	2.5	/experiments/knapen_aot/videos/S_wc-6or3Gl2Fif0m_13.mp4	0.0	83.44393181800842	0.09999895095825195
3	5.240652799606323	fix_pre	0		22.0	1.0	2.5	/experiments/knapen_aot/videos/R_S_yt-vQ-rd-1gwH4_238.mp4	0.0	83.54393076896667	0.18474221229553223
3	5.413183927536011	response	0	2		1.0	2.5	/experiments/knapen_aot/videos/R_S_yt-vQ-rd-1gwH4_238.mp4	0.0	83.71646189689636	
3	5.4253950119018555	movie	1		298.0	1.0	2.5	/experiments/knapen_aot/videos/R_S_yt-vQ-rd-1gwH4_238.mp4	0.0	83.7286729812622	2.5068888664245605
3	7.932283878326416	fix_post	2		12.0	1.0	2.5	/experiments/knapen_aot/videos/R_S_yt-vQ-rd-1gwH4_238.mp4	0.0	86.23556184768677	0.09998703002929688
4	8.032270908355713	fix_pre	0		9.0	2.0	2.5	/experiments/knapen_aot/videos/S_ILSVRC2015_train_00549001.mp4	0.0	86.33554887771606	0.07496905326843262
4	8.099048852920532	response	0	2		2.0	2.5	/experiments/knapen_aot/videos/S_ILSVRC2015_train_00549001.mp4	0.0	86.40232682228088	
4	8.107239961624146	movie	1		301.0	2.0	2.5	/experiments/knapen_aot/videos/S_ILSVRC2015_train_00549001.mp4	0.0	86.4105179309845	2.5083580017089844
4	10.61559796333313	fix_post	2		12.0	2.0	2.5	/experiments/knapen_aot/videos/S_ILSVRC2015_train_00549001.mp4	0.0	88.91887593269348	0.09993290901184082
5	10.71553087234497	fix_pre	0		16.0	3.0	2.5	/experiments/knapen_aot/videos/S_pexels-kampus-production-6022792.mp4	0.0	89.01880884170532	0.1332700252532959
5	10.840717792510986	response	0	2		3.0	2.5	/experiments/knapen_aot/videos/S_pexels-kampus-production-6022792.mp4	0.0	89.14399576187134	
5	10.848800897598267	movie	1		165.0	3.0	2.5	/experiments/knapen_aot/videos/S_pexels-kampus-production-6022792.mp4	0.0	89.15207886695862	2.5083439350128174
5	13.357144832611084	fix_post	2		12.0	3.0	2.5	/experiments/knapen_aot/videos/S_pexels-kampus-production-6022792.mp4	0.0	91.66042280197144	0.10002613067626953
6	13.457170963287354	fix_pre	0		24.0	4.0	2.5	/experiments/knapen_aot/videos/R_S_pexels-cottonbro-5780808.mp4	0.0	91.7604489326477	0.20000791549682617
6	13.64901089668274	response	0	2		4.0	2.5	/experiments/knapen_aot/videos/R_S_pexels-cottonbro-5780808.mp4	0.0	91.95228886604309	
6	13.65717887878418	movie	1		165.0	4.0	2.5	/experiments/knapen_aot/videos/R_S_pexels-cottonbro-5780808.mp4	0.0	91.96045684814453	2.508347988128662
6	16.165526866912842	fix_post	2		12.0	4.0	2.5	/experiments/knapen_aot/videos/R_S_pexels-cottonbro-5780808.mp4	0.0	94.4688048362732	0.09998607635498047
7	16.265512943267822	fix_pre	0		18.0	5.0	2.5	blank	1.0	94.56879091262817	0.14997291564941406
7	16.40734100341797	response	0	2		5.0	2.5	blank	1.0	94.71061897277832	
7	16.415485858917236	movie	1		301.0	5.0	2.5	blank	1.0	94.71876382827759	2.508352041244507
7	18.923837900161743	fix_post	2		12.0	5.0	2.5	blank	1.0	97.2271158695221	0.10008597373962402
8	19.023923873901367	fix_pre	0		28.0	6.0	2.5	/experiments/knapen_aot/videos/R_S_yt-t-wpKypNysg_27.mp4	0.0	97.32720184326172	0.23451709747314453
8	19.248998880386353	response	0	2		6.0	2.5	/experiments/knapen_aot/videos/R_S_yt-t-wpKypNysg_27.mp4	0.0	97.5522768497467	
8	19.25844097137451	movie	1		298.0	6.0	2.5	/experiments/knapen_aot/videos/R_S_yt-t-wpKypNysg_27.mp4	0.0	97.56171894073486	2.5071299076080322
8	21.765570878982544	fix_post	2		12.0	6.0	2.5	/experiments/knapen_aot/videos/R_S_yt-t-wpKypNysg_27.mp4	0.0	100.0688488483429	0.09997892379760742
9	21.86554980278015	fix_pre	0		14.0	7.0	2.5	/experiments/knapen_aot/videos/S_yt-8vm83GUgYxI_1.mp4	0.0	100.1688277721405	0.11659002304077148
9	21.97396993637085	response	0	2		7.0	2.5	/experiments/knapen_aot/videos/S_yt-8vm83GUgYxI_1.mp4	0.0	100.2772479057312	
9	21.982139825820923	movie	1		301.0	7.0	2.5	/experiments/knapen_aot/videos/S_yt-8vm83GUgYxI_1.mp4	0.0	100.28541779518127	2.508418083190918
9	24.49055790901184	fix_post	2		12.0	7.0	2.5	/experiments/knapen_aot/videos/S_yt-8vm83GUgYxI_1.mp4	0.0	102.79383587837219	0.09999608993530273
10	24.590553998947144	fix_pre	0		12.0	8.0	2.5	/experiments/knapen_aot/videos/R_S_yt-8vm83GUgYxI_1.mp4	0.0	102.8938319683075	0.09999585151672363
10	24.68235683441162	response	0	2		8.0	2.5	/experiments/knapen_aot/videos/R_S_yt-8vm83GUgYxI_1.mp4	0.0	102.98563480377197	
10	24.690549850463867	movie	1		301.0	8.0	2.5	/experiments/knapen_aot/videos/R_S_yt-8vm83GUgYxI_1.mp4	0.0	102.99382781982422	2.508273124694824
10	27.19882297515869	fix_post	2		12.0	8.0	2.5	/experiments/knapen_aot/videos/R_S_yt-8vm83GUgYxI_1.mp4	0.0	105.50210094451904	0.10004687309265137
11	27.298869848251343	fix_pre	0		28.0	9.0	2.5	/experiments/knapen_aot/videos/S_ILSVRC2015_train_00652001.mp4	0.0	105.6021478176117	0.23332500457763672
11	27.524008989334106	response	0	2		9.0	2.5	/experiments/knapen_aot/videos/S_ILSVRC2015_train_00652001.mp4	0.0	105.82728695869446	
11	27.53219485282898	movie	1		299.0	9.0	2.5	/experiments/knapen_aot/videos/S_ILSVRC2015_train_00652001.mp4	0.0	105.83547282218933	2.5082759857177734
11	30.040470838546753	fix_post	2		12.0	9.0	2.5	/experiments/knapen_aot/videos/S_ILSVRC2015_train_00652001.mp4	0.0	108.3437488079071	0.10005903244018555
12	30.14052987098694	fix_pre	0		23.0	10.0	2.5	/experiments/knapen_aot/videos/S_ILSVRC2015_train_00745000.mp4	0.0	108.44380784034729	0.1915740966796875
12	30.323961973190308	response	0	2		10.0	2.5	/experiments/knapen_aot/videos/S_ILSVRC2015_train_00745000.mp4	0.0	108.62723994255066	
12	30.332103967666626	movie	1		301.0	10.0	2.5	/experiments/knapen_aot/videos/S_ILSVRC2015_train_00745000.mp4	0.0	108.63538193702698	2.5083119869232178
12	32.840415954589844	fix_post	2		12.0	10.0	2.5	/experiments/knapen_aot/videos/S_ILSVRC2015_train_00745000.mp4	0.0	111.1436939239502	0.10004591941833496
13	32.94046187400818	fix_pre	0		11.0	11.0	2.5	/experiments/knapen_aot/videos/S_yt-iT6jsSikmGM_4.mp4	0.0	111.24373984336853	0.0916290283203125
13	33.02397799491882	response	0	2		11.0	2.5	/experiments/knapen_aot/videos/S_yt-iT6jsSikmGM_4.mp4	0.0	111.32725596427917	
13	33.03209090232849	movie	1		301.0	11.0	2.5	/experiments/knapen_aot/videos/S_yt-iT6jsSikmGM_4.mp4	0.0	111.33536887168884	2.508394956588745
13	35.540485858917236	fix_post	2		12.0	11.0	2.5	/experiments/knapen_aot/videos/S_yt-iT6jsSikmGM_4.mp4	0.0	113.84376382827759	0.09998703002929688
14	35.64047288894653	fix_pre	0		10.0	12.0	2.5	/experiments/knapen_aot/videos/S_pexels-c-technical-5771610.mp4	0.0	113.94375085830688	0.08335089683532715
14	35.715555906295776	response	0	2		12.0	2.5	/experiments/knapen_aot/videos/S_pexels-c-technical-5771610.mp4	0.0	114.01883387565613	
14	35.72382378578186	movie	1		208.0	12.0	2.5	/experiments/knapen_aot/videos/S_pexels-c-technical-5771610.mp4	0.0	114.02710175514221	2.508331060409546
14	38.232154846191406	fix_post	2		12.0	12.0	2.5	/experiments/knapen_aot/videos/S_pexels-c-technical-5771610.mp4	0.0	116.53543281555176	0.10001111030578613
15	38.33216595649719	fix_pre	0		26.0	13.0	2.5	blank	1.0	116.63544392585754	0.21648788452148438
15	38.54052996635437	response	0	2		13.0	2.5	blank	1.0	116.84380793571472	
15	38.54865384101868	movie	1		301.0	13.0	2.5	blank	1.0	116.85193181037903	2.508486032485962
15	41.05713987350464	fix_post	2		12.0	13.0	2.5	blank	1.0	119.36041784286499	0.0999300479888916
16	41.15706992149353	fix_pre	0		18.0	14.0	2.5	/experiments/knapen_aot/videos/R_S_yt-lEPoNlKWibA_1.mp4	0.0	119.46034789085388	0.15000605583190918
16	41.29890584945679	response	0	2		14.0	2.5	/experiments/knapen_aot/videos/R_S_yt-lEPoNlKWibA_1.mp4	0.0	119.60218381881714	
16	41.30707597732544	movie	1		301.0	14.0	2.5	/experiments/knapen_aot/videos/R_S_yt-lEPoNlKWibA_1.mp4	0.0	119.61035394668579	2.5083258152008057
16	43.815401792526245	fix_post	2		12.0	14.0	2.5	/experiments/knapen_aot/videos/R_S_yt-lEPoNlKWibA_1.mp4	0.0	122.1186797618866	0.10003399848937988
17	43.915435791015625	fix_pre	0		9.0	15.0	2.5	/experiments/knapen_aot/videos/R_S_ILSVRC2015_train_00708000.mp4	0.0	122.21871376037598	0.0749671459197998
17	43.9823579788208	response	0	2		15.0	2.5	/experiments/knapen_aot/videos/R_S_ILSVRC2015_train_00708000.mp4	0.0	122.28563594818115	
17	43.990402936935425	movie	1		301.0	15.0	2.5	/experiments/knapen_aot/videos/R_S_ILSVRC2015_train_00708000.mp4	0.0	122.29368090629578	2.508394956588745
17	46.49879789352417	fix_post	2		12.0	15.0	2.5	/experiments/knapen_aot/videos/R_S_ILSVRC2015_train_00708000.mp4	0.0	124.80207586288452	0.09996700286865234
18	46.59876489639282	fix_pre	0		60.0	16.0	2.5	/experiments/knapen_aot/videos/S_yt-BFA07F4L4S0_22.mp4	0.0	124.90204286575317	0.5000109672546387
18	47.090555906295776	response	0	2		16.0	2.5	/experiments/knapen_aot/videos/S_yt-BFA07F4L4S0_22.mp4	0.0	125.39383387565613	
18	47.09877586364746	movie	1		301.0	16.0	2.5	/experiments/knapen_aot/videos/S_yt-BFA07F4L4S0_22.mp4	0.0	125.40205383300781	2.50833797454834
18	49.6071138381958	fix_post	2		12.0	16.0	2.5	/experiments/knapen_aot/videos/S_yt-BFA07F4L4S0_22.mp4	0.0	127.91039180755615	0.09998798370361328
19	49.707101821899414	fix_pre	0		20.0	17.0	2.5	/experiments/knapen_aot/videos/R_S_ILSVRC2015_train_00457000.mp4	0.0	128.01037979125977	0.166640043258667
19	49.8655788898468	response	0	2		17.0	2.5	/experiments/knapen_aot/videos/R_S_ILSVRC2015_train_00457000.mp4	0.0	128.16885685920715	
19	49.87374186515808	movie	1		300.0	17.0	2.5	/experiments/knapen_aot/videos/R_S_ILSVRC2015_train_00457000.mp4	0.0	128.17701983451843	2.5082719326019287
19	52.38201379776001	fix_post	2		12.0	17.0	2.5	/experiments/knapen_aot/videos/R_S_ILSVRC2015_train_00457000.mp4	0.0	130.68529176712036	0.09999203681945801
20	52.48200583457947	fix_pre	0		16.0	18.0	2.5	/experiments/knapen_aot/videos/S_pexels-rodnae-productions-5993671.mp4	0.0	130.78528380393982	0.13348698616027832
20	52.59967398643494	response	0	2		18.0	2.5	/experiments/knapen_aot/videos/S_pexels-rodnae-productions-5993671.mp4	0.0	130.9029519557953	
20	52.615492820739746	movie	1		164.0	18.0	2.5	/experiments/knapen_aot/videos/S_pexels-rodnae-productions-5993671.mp4	0.0	130.9187707901001	2.508229970932007
20	55.12372279167175	fix_post	2		12.0	18.0	2.5	/experiments/knapen_aot/videos/S_pexels-rodnae-productions-5993671.mp4	0.0	133.4270007610321	0.09994816780090332
21	55.223670959472656	fix_pre	0		11.0	19.0	2.5	blank	1.0	133.526948928833	0.09161806106567383
21	55.30716896057129	response	0	2		19.0	2.5	blank	1.0	133.61044692993164	
21	55.31528902053833	movie	1		301.0	19.0	2.5	blank	1.0	133.61856698989868	2.508392810821533
21	57.82368183135986	fix_post	2		12.0	19.0	2.5	blank	1.0	136.12695980072021	0.100006103515625
22	57.92368793487549	fix_pre	0		39.0	20.0	2.5	/experiments/knapen_aot/videos/S_yt-Wf-RauSbVgA_56.mp4	0.0	136.22696590423584	0.32497406005859375
22	58.24051785469055	response	0	2		20.0	2.5	/experiments/knapen_aot/videos/S_yt-Wf-RauSbVgA_56.mp4	0.0	136.5437958240509	
22	58.24866199493408	movie	1		301.0	20.0	2.5	/experiments/knapen_aot/videos/S_yt-Wf-RauSbVgA_56.mp4	0.0	136.55193996429443	2.5083389282226562
22	60.75700092315674	fix_post	2		12.0	20.0	2.5	/experiments/knapen_aot/videos/S_yt-Wf-RauSbVgA_56.mp4	0.0	139.0602788925171	0.09997892379760742
23	60.856979846954346	fix_pre	0		20.0	21.0	2.5	/experiments/knapen_aot/videos/S_g201_CA_A016_C002_SDR_20191114_SDR_2K_AVC.mp4	0.0	139.1602578163147	0.16665315628051758
23	61.01549792289734	response	0	2		21.0	2.5	/experiments/knapen_aot/videos/S_g201_CA_A016_C002_SDR_20191114_SDR_2K_AVC.mp4	0.0	139.3187758922577	
23	61.02363300323486	movie	1		166.0	21.0	2.5	/experiments/knapen_aot/videos/S_g201_CA_A016_C002_SDR_20191114_SDR_2K_AVC.mp4	0.0	139.32691097259521	2.5083417892456055
23	63.53197479248047	fix_post	2		12.0	21.0	2.5	/experiments/knapen_aot/videos/S_g201_CA_A016_C002_SDR_20191114_SDR_2K_AVC.mp4	0.0	141.83525276184082	0.0999300479888916
24	63.63190484046936	fix_pre	0		35.0	22.0	2.5	/experiments/knapen_aot/videos/S_yt-EBuE7GbFw7U_180.mp4	0.0	141.9351828098297	0.29279112815856934
24	63.91552400588989	response	0	2		22.0	2.5	/experiments/knapen_aot/videos/S_yt-EBuE7GbFw7U_180.mp4	0.0	142.21880197525024	
24	63.92469596862793	movie	1		301.0	22.0	2.5	/experiments/knapen_aot/videos/S_yt-EBuE7GbFw7U_180.mp4	0.0	142.22797393798828	2.507201910018921
24	66.43189787864685	fix_post	2		12.0	22.0	2.5	/experiments/knapen_aot/videos/S_yt-EBuE7GbFw7U_180.mp4	0.0	144.7351758480072	0.10015392303466797
25	66.53205180168152	fix_pre	0		47.0	23.0	2.5	/experiments/knapen_aot/videos/R_S_1y-EvnfGO9Y_70.mp4	0.0	144.83532977104187	0.3926231861114502
25	66.91550588607788	response	0	2		23.0	2.5	/experiments/knapen_aot/videos/R_S_1y-EvnfGO9Y_70.mp4	0.0	145.21878385543823	
25	66.92467498779297	movie	1		301.0	23.0	2.5	/experiments/knapen_aot/videos/R_S_1y-EvnfGO9Y_70.mp4	0.0	145.22795295715332	2.507352828979492
25	69.43202781677246	fix_post	2		12.0	23.0	2.5	/experiments/knapen_aot/videos/R_S_1y-EvnfGO9Y_70.mp4	0.0	147.7353057861328	0.10000300407409668
26	69.53203082084656	fix_pre	0		18.0	24.0	2.5	/experiments/knapen_aot/videos/R_S_yt-dWF89kq2JIA_13.mp4	0.0	147.8353087902069	0.1583261489868164
26	69.67382884025574	response	0	2		24.0	2.5	/experiments/knapen_aot/videos/R_S_yt-dWF89kq2JIA_13.mp4	0.0	147.9771068096161	
26	69.69035696983337	movie	1		300.0	24.0	2.5	/experiments/knapen_aot/videos/R_S_yt-dWF89kq2JIA_13.mp4	0.0	147.99363493919373	2.4999778270721436
26	72.19033479690552	fix_post	2		12.0	24.0	2.5	/experiments/knapen_aot/videos/R_S_yt-dWF89kq2JIA_13.mp4	0.0	150.49361276626587	0.09993815422058105
27	72.2902729511261	fix_pre	0		25.0	25.0	2.5	/experiments/knapen_aot/videos/S_yt-QQPv17nfR_E_2.mp4	0.0	150.59355092048645	0.2083418369293213
27	72.49040579795837	response	0	2		25.0	2.5	/experiments/knapen_aot/videos/S_yt-QQPv17nfR_E_2.mp4	0.0	150.79368376731873	
27	72.49861478805542	movie	1		301.0	25.0	2.5	/experiments/knapen_aot/videos/S_yt-QQPv17nfR_E_2.mp4	0.0	150.80189275741577	2.5083370208740234
27	75.00695180892944	fix_post	2		12.0	25.0	2.5	/experiments/knapen_aot/videos/S_yt-QQPv17nfR_E_2.mp4	0.0	153.3102297782898	0.09999608993530273
28	75.10694789886475	fix_pre	0		97.0	26.0	2.5	/experiments/knapen_aot/videos/R_S_yt-3DM_SqT4RII_10.mp4	0.0	153.4102258682251	0.8083300590515137
28	75.90715885162354	response	0	2		26.0	2.5	/experiments/knapen_aot/videos/R_S_yt-3DM_SqT4RII_10.mp4	0.0	154.2104368209839	
28	75.91527795791626	movie	1		301.0	26.0	2.5	/experiments/knapen_aot/videos/R_S_yt-3DM_SqT4RII_10.mp4	0.0	154.2185559272766	2.508452892303467
28	78.42373085021973	fix_post	2		12.0	26.0	2.5	/experiments/knapen_aot/videos/R_S_yt-3DM_SqT4RII_10.mp4	0.0	156.72700881958008	0.09987497329711914
29	78.52360582351685	fix_pre	0		263.0	27.0	2.5	/experiments/knapen_aot/videos/R_S_ILSVRC2015_train_00067005.mp4	0.0	156.8268837928772	2.192641019821167
29	80.70707583427429	response	0	2		27.0	2.5	/experiments/knapen_aot/videos/R_S_ILSVRC2015_train_00067005.mp4	0.0	159.01035380363464	
29	80.71624684333801	movie	1		298.0	27.0	2.5	/experiments/knapen_aot/videos/R_S_ILSVRC2015_train_00067005.mp4	0.0	159.01952481269836	2.5074210166931152
29	83.22366786003113	fix_post	2		12.0	27.0	2.5	/experiments/knapen_aot/videos/R_S_ILSVRC2015_train_00067005.mp4	0.0	161.52694582939148	0.09992003440856934
30	83.3235878944397	fix_pre	0		150.0	28.0	2.5	blank	1.0	161.62686586380005	1.2499959468841553
30	84.55787491798401	response	0	2		28.0	2.5	blank	1.0	162.86115288734436	
30	84.57358384132385	movie	1		301.0	28.0	2.5	blank	1.0	162.8768618106842	2.508347988128662
30	87.08193182945251	fix_post	2		12.0	28.0	2.5	blank	1.0	165.38520979881287	0.10000801086425781
31	87.18193984031677	fix_pre	0		28.0	29.0	2.5	/experiments/knapen_aot/videos/R_S_yt-3EZOeAbiMQE_10.mp4	0.0	165.48521780967712	0.23325610160827637
31	87.40701198577881	response	0	2		29.0	2.5	/experiments/knapen_aot/videos/R_S_yt-3EZOeAbiMQE_10.mp4	0.0	165.71028995513916	
31	87.41519594192505	movie	1		301.0	29.0	2.5	/experiments/knapen_aot/videos/R_S_yt-3EZOeAbiMQE_10.mp4	0.0	165.7184739112854	2.5083930492401123
31	89.92358899116516	fix_post	2		12.0	29.0	2.5	/experiments/knapen_aot/videos/R_S_yt-3EZOeAbiMQE_10.mp4	0.0	168.2268669605255	0.09991598129272461
32	90.02350497245789	fix_pre	0		22.0	30.0	2.5	/experiments/knapen_aot/videos/S_yt--v_iMUMMX6g_39.mp4	0.0	168.32678294181824	0.18330788612365723
32	90.19872689247131	response	0	2		30.0	2.5	/experiments/knapen_aot/videos/S_yt--v_iMUMMX6g_39.mp4	0.0	168.50200486183167	
32	90.20681285858154	movie	1		301.0	30.0	2.5	/experiments/knapen_aot/videos/S_yt--v_iMUMMX6g_39.mp4	0.0	168.5100908279419	2.5084080696105957
32	92.71522092819214	fix_post	2		12.0	30.0	2.5	/experiments/knapen_aot/videos/S_yt--v_iMUMMX6g_39.mp4	0.0	171.0184988975525	0.10001397132873535
33	92.81523489952087	fix_pre	0		69.0	31.0	2.5	/experiments/knapen_aot/videos/R_S_yt-feTWuKPZA_k_34.mp4	0.0	171.11851286888123	0.5749340057373047
33	93.38206791877747	response	0	2		31.0	2.5	/experiments/knapen_aot/videos/R_S_yt-feTWuKPZA_k_34.mp4	0.0	171.68534588813782	
33	93.39016890525818	movie	1		301.0	31.0	2.5	/experiments/knapen_aot/videos/R_S_yt-feTWuKPZA_k_34.mp4	0.0	171.69344687461853	2.5083630084991455
33	95.89853191375732	fix_post	2		12.0	31.0	2.5	/experiments/knapen_aot/videos/R_S_yt-feTWuKPZA_k_34.mp4	0.0	174.20180988311768	0.0999898910522461
34	95.99852180480957	fix_pre	0		58.0	32.0	2.5	/experiments/knapen_aot/videos/R_S_ILSVRC2015_train_00587000.mp4	0.0	174.30179977416992	0.48334217071533203
34	96.47368788719177	response	0	2		32.0	2.5	/experiments/knapen_aot/videos/R_S_ILSVRC2015_train_00587000.mp4	0.0	174.77696585655212	
34	96.4818639755249	movie	1		301.0	32.0	2.5	/experiments/knapen_aot/videos/R_S_ILSVRC2015_train_00587000.mp4	0.0	174.78514194488525	2.5083580017089844
34	98.99022197723389	fix_post	2		12.0	32.0	2.5	/experiments/knapen_aot/videos/R_S_ILSVRC2015_train_00587000.mp4	0.0	177.29349994659424	0.09986186027526855
35	99.09008383750916	fix_pre	0		89.0	33.0	2.5	blank	1.0	177.3933618068695	0.7417850494384766
35	99.82357382774353	response	0	2		33.0	2.5	blank	1.0	178.12685179710388	
35	99.83186888694763	movie	1		301.0	33.0	2.5	blank	1.0	178.13514685630798	2.5083351135253906
35	102.34020400047302	fix_post	2		12.0	33.0	2.5	blank	1.0	180.64348196983337	0.09997892379760742
36	102.44018292427063	fix_pre	0		30.0	34.0	2.5	/experiments/knapen_aot/videos/R_S_yt-fk-z6WCvjjA_3.mp4	0.0	180.74346089363098	0.24995708465576172
36	102.68187379837036	response	0	2		34.0	2.5	/experiments/knapen_aot/videos/R_S_yt-fk-z6WCvjjA_3.mp4	0.0	180.9851517677307	
36	102.69014000892639	movie	1		301.0	34.0	2.5	/experiments/knapen_aot/videos/R_S_yt-fk-z6WCvjjA_3.mp4	0.0	180.99341797828674	2.5083529949188232
36	105.19849300384521	fix_post	2		12.0	34.0	2.5	/experiments/knapen_aot/videos/R_S_yt-fk-z6WCvjjA_3.mp4	0.0	183.50177097320557	0.10010099411010742
37	105.29859399795532	fix_pre	0		19.0	35.0	2.5	/experiments/knapen_aot/videos/R_S_yt-GbL63AmOIss_116.mp4	0.0	183.60187196731567	0.15822291374206543
37	105.44866585731506	response	0	2		35.0	2.5	/experiments/knapen_aot/videos/R_S_yt-GbL63AmOIss_116.mp4	0.0	183.75194382667542	
37	105.45681691169739	movie	1		298.0	35.0	2.5	/experiments/knapen_aot/videos/R_S_yt-GbL63AmOIss_116.mp4	0.0	183.76009488105774	2.5083420276641846
37	107.96515893936157	fix_post	2		12.0	35.0	2.5	/experiments/knapen_aot/videos/R_S_yt-GbL63AmOIss_116.mp4	0.0	186.26843690872192	0.09997296333312988
38	108.0651319026947	fix_pre	0		116.0	36.0	2.5	/experiments/knapen_aot/videos/S_yt-1RVw8p6Dw2Q_20.mp4	0.0	186.36840987205505	0.9666879177093506
38	109.02365899085999	response	0	2		36.0	2.5	/experiments/knapen_aot/videos/S_yt-1RVw8p6Dw2Q_20.mp4	0.0	187.32693696022034	
38	109.03181982040405	movie	1		301.0	36.0	2.5	/experiments/knapen_aot/videos/S_yt-1RVw8p6Dw2Q_20.mp4	0.0	187.3350977897644	2.508378028869629
38	111.54019784927368	fix_post	2		12.0	36.0	2.5	/experiments/knapen_aot/videos/S_yt-1RVw8p6Dw2Q_20.mp4	0.0	189.84347581863403	0.09990596771240234
39	111.64010381698608	fix_pre	0		56.0	37.0	2.5	/experiments/knapen_aot/videos/R_S_ILSVRC2015_train_00425000.mp4	0.0	189.94338178634644	0.46674299240112305
39	112.09863591194153	response	0	2		37.0	2.5	/experiments/knapen_aot/videos/R_S_ILSVRC2015_train_00425000.mp4	0.0	190.40191388130188	
39	112.1068468093872	movie	1		300.0	37.0	2.5	/experiments/knapen_aot/videos/R_S_ILSVRC2015_train_00425000.mp4	0.0	190.41012477874756	2.5084590911865234
39	112.19019484519958	response	1	2		37.0	2.5	/experiments/knapen_aot/videos/R_S_ILSVRC2015_train_00425000.mp4	0.0	190.49347281455994	
39	114.61530590057373	fix_post	2		12.0	37.0	2.5	/experiments/knapen_aot/videos/R_S_ILSVRC2015_train_00425000.mp4	0.0	192.91858386993408	0.10061001777648926
40	114.71591591835022	fix_pre	0		47.0	38.0	2.5	/experiments/knapen_aot/videos/S_ILSVRC2015_train_00457000.mp4	0.0	193.01919388771057	0.39086198806762695
40	115.09862184524536	response	0	2		38.0	2.5	/experiments/knapen_aot/videos/S_ILSVRC2015_train_00457000.mp4	0.0	193.4018998146057	
40	115.10677790641785	movie	1		300.0	38.0	2.5	/experiments/knapen_aot/videos/S_ILSVRC2015_train_00457000.mp4	0.0	193.4100558757782	2.508344888687134
40	117.61512279510498	fix_post	2		12.0	38.0	2.5	/experiments/knapen_aot/videos/S_ILSVRC2015_train_00457000.mp4	0.0	195.91840076446533	0.10074305534362793
41	117.71586585044861	fix_pre	0		15.0	39.0	2.5	/experiments/knapen_aot/videos/S_yt-2y6A9DJPsDU_65.mp4	0.0	196.01914381980896	0.12500214576721191
41	117.83195781707764	response	0	2		39.0	2.5	/experiments/knapen_aot/videos/S_yt-2y6A9DJPsDU_65.mp4	0.0	196.135235786438	
41	117.84086799621582	movie	1		301.0	39.0	2.5	/experiments/knapen_aot/videos/S_yt-2y6A9DJPsDU_65.mp4	0.0	196.14414596557617	2.507572889328003
41	120.34844088554382	fix_post	2		12.0	39.0	2.5	/experiments/knapen_aot/videos/S_yt-2y6A9DJPsDU_65.mp4	0.0	198.65171885490417	0.09999704360961914
42	120.44843792915344	fix_pre	0		62.0	40.0	2.5	/experiments/knapen_aot/videos/R_S_yt-VxTTEZNJWjs_110.mp4	0.0	198.7517158985138	0.5173940658569336
42	120.95695090293884	response	0	2		40.0	2.5	/experiments/knapen_aot/videos/R_S_yt-VxTTEZNJWjs_110.mp4	0.0	199.2602288722992	
42	120.96583199501038	movie	1		301.0	40.0	2.5	/experiments/knapen_aot/videos/R_S_yt-VxTTEZNJWjs_110.mp4	0.0	199.26910996437073	2.50761079788208
42	123.47344279289246	fix_post	2		12.0	40.0	2.5	/experiments/knapen_aot/videos/R_S_yt-VxTTEZNJWjs_110.mp4	0.0	201.7767207622528	0.10002803802490234
43	123.57347083091736	fix_pre	0		111.0	41.0	2.5	/experiments/knapen_aot/videos/S_pexels-kampus-production-6022792.mp4	0.0	201.8767488002777	0.9249701499938965
43	124.49022889137268	response	0	2		41.0	2.5	/experiments/knapen_aot/videos/S_pexels-kampus-production-6022792.mp4	0.0	202.79350686073303	
43	124.49844098091125	movie	1		164.0	41.0	2.5	/experiments/knapen_aot/videos/S_pexels-kampus-production-6022792.mp4	0.0	202.8017189502716	2.508288860321045
43	127.0067298412323	fix_post	2		12.0	41.0	2.5	/experiments/knapen_aot/videos/S_pexels-kampus-production-6022792.mp4	0.0	205.31000781059265	0.10005497932434082
44	127.10678482055664	fix_pre	0		112.0	42.0	2.5	blank	1.0	205.410062789917	0.9332811832427979
44	128.031968832016	response	0	2		42.0	2.5	blank	1.0	206.33524680137634	
44	128.04006600379944	movie	1		301.0	42.0	2.5	blank	1.0	206.3433439731598	2.508293867111206
44	130.54835987091064	fix_post	2		12.0	42.0	2.5	blank	1.0	208.851637840271	0.10004210472106934
45	130.6484019756317	fix_pre	0		31.0	43.0	2.5	/experiments/knapen_aot/videos/S_yt-o_CT2MjZ9fA_216.mp4	0.0	208.95167994499207	0.2583169937133789
45	130.8985288143158	response	0	2		43.0	2.5	/experiments/knapen_aot/videos/S_yt-o_CT2MjZ9fA_216.mp4	0.0	209.20180678367615	
45	130.9067189693451	movie	1		301.0	43.0	2.5	/experiments/knapen_aot/videos/S_yt-o_CT2MjZ9fA_216.mp4	0.0	209.20999693870544	2.5083279609680176
45	133.4150469303131	fix_post	2		12.0	43.0	2.5	/experiments/knapen_aot/videos/S_yt-o_CT2MjZ9fA_216.mp4	0.0	211.71832489967346	0.10001993179321289
46	133.51506686210632	fix_pre	0		37.0	44.0	2.5	/experiments/knapen_aot/videos/R_S_yt-C0iWlRWU21o_5.mp4	0.0	211.81834483146667	0.3083169460296631
46	133.8152039051056	response	0	2		44.0	2.5	/experiments/knapen_aot/videos/R_S_yt-C0iWlRWU21o_5.mp4	0.0	212.11848187446594	
46	133.823383808136	movie	1		301.0	44.0	2.5	/experiments/knapen_aot/videos/R_S_yt-C0iWlRWU21o_5.mp4	0.0	212.12666177749634	2.5082931518554688
46	136.33167695999146	fix_post	2		12.0	44.0	2.5	/experiments/knapen_aot/videos/R_S_yt-C0iWlRWU21o_5.mp4	0.0	214.6349549293518	0.10000896453857422
47	136.43168592453003	fix_pre	0		43.0	45.0	2.5	/experiments/knapen_aot/videos/S_ILSVRC2015_train_00610000.mp4	0.0	214.73496389389038	0.35829687118530273
47	136.7818419933319	response	0	2		45.0	2.5	/experiments/knapen_aot/videos/S_ILSVRC2015_train_00610000.mp4	0.0	215.08511996269226	
47	136.78998279571533	movie	1		301.0	45.0	2.5	/experiments/knapen_aot/videos/S_ILSVRC2015_train_00610000.mp4	0.0	215.09326076507568	2.508474111557007
47	139.29845690727234	fix_post	2		12.0	45.0	2.5	/experiments/knapen_aot/videos/S_ILSVRC2015_train_00610000.mp4	0.0	217.6017348766327	0.09989809989929199
48	139.39835500717163	fix_pre	0		12.0	46.0	2.5	/experiments/knapen_aot/videos/S_pexels-mart-production-7698693.mp4	0.0	217.70163297653198	0.1000068187713623
48	139.49011397361755	response	0	2		46.0	2.5	/experiments/knapen_aot/videos/S_pexels-mart-production-7698693.mp4	0.0	217.7933919429779	
48	139.498361825943	movie	1		190.0	46.0	2.5	/experiments/knapen_aot/videos/S_pexels-mart-production-7698693.mp4	0.0	217.80163979530334	2.508342981338501
48	142.0067048072815	fix_post	2		12.0	46.0	2.5	/experiments/knapen_aot/videos/S_pexels-mart-production-7698693.mp4	0.0	220.30998277664185	0.1000211238861084
49	142.1067259311676	fix_pre	0		17.0	47.0	2.5	blank	1.0	220.41000390052795	0.14166998863220215
49	142.24024987220764	response	0	2		47.0	2.5	blank	1.0	220.543527841568	
49	142.2483959197998	movie	1		301.0	47.0	2.5	blank	1.0	220.55167388916016	2.5082828998565674
49	144.75667881965637	fix_post	2		12.0	47.0	2.5	blank	1.0	223.05995678901672	0.10001802444458008
50	144.85669684410095	fix_pre	0		90.0	48.0	2.5	/experiments/knapen_aot/videos/S_ILSVRC2015_train_00079001.mp4	0.0	223.1599748134613	0.7499771118164062
50	145.59848284721375	response	0	2		48.0	2.5	/experiments/knapen_aot/videos/S_ILSVRC2015_train_00079001.mp4	0.0	223.9017608165741	
50	145.60667395591736	movie	1		301.0	48.0	2.5	/experiments/knapen_aot/videos/S_ILSVRC2015_train_00079001.mp4	0.0	223.9099519252777	2.508333921432495
50	148.11500787734985	fix_post	2		12.0	48.0	2.5	/experiments/knapen_aot/videos/S_ILSVRC2015_train_00079001.mp4	0.0	226.4182858467102	0.09998512268066406
51	148.21499300003052	fix_pre	0		18.0	49.0	2.5	/experiments/knapen_aot/videos/S_yt--JnTDuElzXQ_121.mp4	0.0	226.51827096939087	0.1499478816986084
51	148.35675692558289	response	0	2		49.0	2.5	/experiments/knapen_aot/videos/S_yt--JnTDuElzXQ_121.mp4	0.0	226.66003489494324	
51	148.36494088172913	movie	1		301.0	49.0	2.5	/experiments/knapen_aot/videos/S_yt--JnTDuElzXQ_121.mp4	0.0	226.66821885108948	2.508345127105713
51	150.87328600883484	fix_post	2		12.0	49.0	2.5	/experiments/knapen_aot/videos/S_yt--JnTDuElzXQ_121.mp4	0.0	229.1765639781952	0.10008478164672852
52	150.97337079048157	fix_pre	0		16.0	50.0	2.5	/experiments/knapen_aot/videos/S_FZ0hLmjCR0s_26.mp4	0.0	229.27664875984192	0.13318610191345215
52	151.09843587875366	response	0	2		50.0	2.5	/experiments/knapen_aot/videos/S_FZ0hLmjCR0s_26.mp4	0.0	229.401713848114	
52	151.10655689239502	movie	1		301.0	50.0	2.5	/experiments/knapen_aot/videos/S_FZ0hLmjCR0s_26.mp4	0.0	229.40983486175537	2.50833797454834
52	153.61489486694336	fix_post	2		12.0	50.0	2.5	/experiments/knapen_aot/videos/S_FZ0hLmjCR0s_26.mp4	0.0	231.9181728363037	0.10008692741394043
53	153.7149817943573	fix_pre	0		23.0	51.0	2.5	/experiments/knapen_aot/videos/S_video.mp4	0.0	232.01825976371765	0.1915881633758545
53	153.89841890335083	response	0	2		51.0	2.5	/experiments/knapen_aot/videos/S_video.mp4	0.0	232.20169687271118	
53	153.90656995773315	movie	1		167.0	51.0	2.5	/experiments/knapen_aot/videos/S_video.mp4	0.0	232.2098479270935	2.508445978164673
53	156.41501593589783	fix_post	2		12.0	51.0	2.5	/experiments/knapen_aot/videos/S_video.mp4	0.0	234.71829390525818	0.09987902641296387
54	156.5148949623108	fix_pre	0		8.0	52.0	2.5	/experiments/knapen_aot/videos/R_S_yt-wnQFgNEnHUI_109.mp4	0.0	234.81817293167114	0.06672286987304688
54	156.5736219882965	response	0	2		52.0	2.5	/experiments/knapen_aot/videos/R_S_yt-wnQFgNEnHUI_109.mp4	0.0	234.87689995765686	
54	156.58161783218384	movie	1		301.0	52.0	2.5	/experiments/knapen_aot/videos/R_S_yt-wnQFgNEnHUI_109.mp4	0.0	234.8848958015442	2.508342981338501
54	159.08996081352234	fix_post	2		12.0	52.0	2.5	/experiments/knapen_aot/videos/R_S_yt-wnQFgNEnHUI_109.mp4	0.0	237.3932387828827	0.09993314743041992
55	159.18989396095276	fix_pre	0		6.0	53.0	2.5	/experiments/knapen_aot/videos/R_S_yt-mHLTJkMrkZI_143.mp4	0.0	237.4931719303131	0.05001688003540039
55	159.23178601264954	response	0	2		53.0	2.5	/experiments/knapen_aot/videos/R_S_yt-mHLTJkMrkZI_143.mp4	0.0	237.5350639820099	
55	159.23991084098816	movie	1		301.0	53.0	2.5	/experiments/knapen_aot/videos/R_S_yt-mHLTJkMrkZI_143.mp4	0.0	237.5431888103485	2.5082900524139404
55	161.7482008934021	fix_post	2		12.0	53.0	2.5	/experiments/knapen_aot/videos/R_S_yt-mHLTJkMrkZI_143.mp4	0.0	240.05147886276245	0.10005712509155273
56	161.84825801849365	fix_pre	0		12.0	54.0	2.5	blank	1.0	240.151535987854	0.09990978240966797
56	161.94010186195374	response	0	2		54.0	2.5	blank	1.0	240.2433798313141	
56	161.94816780090332	movie	1		301.0	54.0	2.5	blank	1.0	240.25144577026367	2.5083091259002686
56	164.4564769268036	fix_post	2		12.0	54.0	2.5	blank	1.0	242.75975489616394	0.10005688667297363
57	164.55653381347656	fix_pre	0		31.0	55.0	2.5	/experiments/knapen_aot/videos/R_S_comp_A009_C001_010181A_v09_SDR_PS_FINAL_20180725_SDR_2K_AVC.mp4	0.0	242.8598117828369	0.25840210914611816
57	164.80667996406555	response	0	2		55.0	2.5	/experiments/knapen_aot/videos/R_S_comp_A009_C001_010181A_v09_SDR_PS_FINAL_20180725_SDR_2K_AVC.mp4	0.0	243.1099579334259	
57	164.81493592262268	movie	1		166.0	55.0	2.5	/experiments/knapen_aot/videos/R_S_comp_A009_C001_010181A_v09_SDR_PS_FINAL_20180725_SDR_2K_AVC.mp4	0.0	243.11821389198303	2.5082578659057617
57	167.32319378852844	fix_post	2		12.0	55.0	2.5	/experiments/knapen_aot/videos/R_S_comp_A009_C001_010181A_v09_SDR_PS_FINAL_20180725_SDR_2K_AVC.mp4	0.0	245.6264717578888	0.10006022453308105
58	167.42325401306152	fix_pre	0		14.0	56.0	2.5	/experiments/knapen_aot/videos/R_S_ILSVRC2015_train_00469000.mp4	0.0	245.72653198242188	0.11658978462219238
58	167.5316939353943	response	0	2		56.0	2.5	/experiments/knapen_aot/videos/R_S_ILSVRC2015_train_00469000.mp4	0.0	245.83497190475464	
58	167.53984379768372	movie	1		301.0	56.0	2.5	/experiments/knapen_aot/videos/R_S_ILSVRC2015_train_00469000.mp4	0.0	245.84312176704407	2.5083160400390625
58	170.04815983772278	fix_post	2		12.0	56.0	2.5	/experiments/knapen_aot/videos/R_S_ILSVRC2015_train_00469000.mp4	0.0	248.35143780708313	0.10003495216369629
59	170.14819478988647	fix_pre	0		11.0	57.0	2.5	/experiments/knapen_aot/videos/R_S_yt-yPl8LcgSMjo_32.mp4	0.0	248.45147275924683	0.0916900634765625
59	170.23161602020264	response	0	2		57.0	2.5	/experiments/knapen_aot/videos/R_S_yt-yPl8LcgSMjo_32.mp4	0.0	248.534893989563	
59	170.23988485336304	movie	1		299.0	57.0	2.5	/experiments/knapen_aot/videos/R_S_yt-yPl8LcgSMjo_32.mp4	0.0	248.5431628227234	2.508319139480591
59	172.74820399284363	fix_post	2		12.0	57.0	2.5	/experiments/knapen_aot/videos/R_S_yt-yPl8LcgSMjo_32.mp4	0.0	251.05148196220398	0.09991884231567383
60	172.8481228351593	fix_pre	0		12.0	58.0	2.5	/experiments/knapen_aot/videos/R_S_BO_A014_C023_SDR_20190717_F240F3709_SDR_2K_AVC.mp4	0.0	251.15140080451965	0.10004901885986328
60	172.9399859905243	response	0	2		58.0	2.5	/experiments/knapen_aot/videos/R_S_BO_A014_C023_SDR_20190717_F240F3709_SDR_2K_AVC.mp4	0.0	251.24326395988464	
60	172.94817185401917	movie	1		168.0	58.0	2.5	/experiments/knapen_aot/videos/R_S_BO_A014_C023_SDR_20190717_F240F3709_SDR_2K_AVC.mp4	0.0	251.25144982337952	2.508418083190918
60	175.45658993721008	fix_post	2		12.0	58.0	2.5	/experiments/knapen_aot/videos/R_S_BO_A014_C023_SDR_20190717_F240F3709_SDR_2K_AVC.mp4	0.0	253.75986790657043	0.1001279354095459
61	175.55671787261963	fix_pre	0		9.0	59.0	2.5	/experiments/knapen_aot/videos/S_ILSVRC2015_train_00568000.mp4	0.0	253.85999584197998	0.0752871036529541
61	175.62337279319763	response	0	2		59.0	2.5	/experiments/knapen_aot/videos/S_ILSVRC2015_train_00568000.mp4	0.0	253.92665076255798	
61	175.63200497627258	movie	1		301.0	59.0	2.5	/experiments/knapen_aot/videos/S_ILSVRC2015_train_00568000.mp4	0.0	253.93528294563293	2.507974863052368
61	178.13997983932495	fix_post	2		12.0	59.0	2.5	/experiments/knapen_aot/videos/S_ILSVRC2015_train_00568000.mp4	0.0	256.4432578086853	0.09991598129272461
62	178.23989582061768	fix_pre	0		11.0	60.0	2.5	/experiments/knapen_aot/videos/S_yt-T7RmOAme5dU_213.mp4	0.0	256.543173789978	0.09168004989624023
62	178.32336688041687	response	0	2		60.0	2.5	/experiments/knapen_aot/videos/S_yt-T7RmOAme5dU_213.mp4	0.0	256.6266448497772	
62	178.33157587051392	movie	1		301.0	60.0	2.5	/experiments/knapen_aot/videos/S_yt-T7RmOAme5dU_213.mp4	0.0	256.63485383987427	2.5083110332489014
62	180.83988690376282	fix_post	2		12.0	60.0	2.5	/experiments/knapen_aot/videos/S_yt-T7RmOAme5dU_213.mp4	0.0	259.14316487312317	0.10002803802490234
63	180.93991494178772	fix_pre	0		22.0	61.0	2.5	blank	1.0	259.24319291114807	0.18333792686462402
63	181.1150188446045	response	0	2		61.0	2.5	blank	1.0	259.41829681396484	
63	181.12325286865234	movie	1		301.0	61.0	2.5	blank	1.0	259.4265308380127	2.5082759857177734
63	183.63152885437012	fix_post	2		12.0	61.0	2.5	blank	1.0	261.93480682373047	0.09999203681945801
64	183.73152089118958	fix_pre	0		23.0	62.0	2.5	/experiments/knapen_aot/videos/R_S_yt-vQ-rd-1gwH4_238.mp4	0.0	262.0347988605499	0.19210004806518555
64	183.91492295265198	response	0	2		62.0	2.5	/experiments/knapen_aot/videos/R_S_yt-vQ-rd-1gwH4_238.mp4	0.0	262.21820092201233	
64	183.92362093925476	movie	1		300.0	62.0	2.5	/experiments/knapen_aot/videos/R_S_yt-vQ-rd-1gwH4_238.mp4	0.0	262.2268989086151	2.507884979248047
64	186.4315059185028	fix_post	2		12.0	62.0	2.5	/experiments/knapen_aot/videos/R_S_yt-vQ-rd-1gwH4_238.mp4	0.0	264.73478388786316	0.09995508193969727
65	186.5314610004425	fix_pre	0		12.0	63.0	2.5	/experiments/knapen_aot/videos/R_S_comp_DB_D001_C005_COMP_PSNK_v12_SDR_PS_20180912_SDR_2K_AVC.mp4	0.0	264.83473896980286	0.10039186477661133
65	186.62332201004028	response	0	2		63.0	2.5	/experiments/knapen_aot/videos/R_S_comp_DB_D001_C005_COMP_PSNK_v12_SDR_PS_20180912_SDR_2K_AVC.mp4	0.0	264.92659997940063	
65	186.63185286521912	movie	1		169.0	63.0	2.5	/experiments/knapen_aot/videos/R_S_comp_DB_D001_C005_COMP_PSNK_v12_SDR_PS_20180912_SDR_2K_AVC.mp4	0.0	264.93513083457947	2.5079519748687744
65	189.1398048400879	fix_post	2		12.0	63.0	2.5	/experiments/knapen_aot/videos/R_S_comp_DB_D001_C005_COMP_PSNK_v12_SDR_PS_20180912_SDR_2K_AVC.mp4	0.0	267.44308280944824	0.09991002082824707
66	189.23971486091614	fix_pre	0		1.0	64.0	2.5	/experiments/knapen_aot/videos/S_yt-1UFhynm5g6Y_266.mp4	0.0	267.5429928302765	0.010621070861816406
66	189.2413468360901	response	0	2		64.0	2.5	/experiments/knapen_aot/videos/S_yt-1UFhynm5g6Y_266.mp4	0.0	267.54462480545044	
66	189.25033593177795	movie	1		301.0	64.0	2.5	/experiments/knapen_aot/videos/S_yt-1UFhynm5g6Y_266.mp4	0.0	267.5536139011383	2.506093978881836
66	191.7564299106598	fix_post	2		12.0	64.0	2.5	/experiments/knapen_aot/videos/S_yt-1UFhynm5g6Y_266.mp4	0.0	270.05970788002014	0.10002994537353516
67	191.85645985603333	fix_pre	0		75.0	65.0	2.5	/experiments/knapen_aot/videos/S_yt-FR_Y1Mm8BwQ_53.mp4	0.0	270.1597378253937	0.6249821186065674
67	192.47326278686523	response	0	2		65.0	2.5	/experiments/knapen_aot/videos/S_yt-FR_Y1Mm8BwQ_53.mp4	0.0	270.7765407562256	
67	192.4814419746399	movie	1		301.0	65.0	2.5	/experiments/knapen_aot/videos/S_yt-FR_Y1Mm8BwQ_53.mp4	0.0	270.78471994400024	2.5083539485931396
67	194.90657496452332	response	1	2		65.0	2.5	/experiments/knapen_aot/videos/S_yt-FR_Y1Mm8BwQ_53.mp4	0.0	273.20985293388367	
67	194.98979592323303	fix_post	2		12.0	65.0	2.5	/experiments/knapen_aot/videos/S_yt-FR_Y1Mm8BwQ_53.mp4	0.0	273.2930738925934	0.09997200965881348
68	195.08976793289185	fix_pre	0		25.0	66.0	2.5	/experiments/knapen_aot/videos/S_yt-waWM9vAfsIw_116.mp4	0.0	273.3930459022522	0.2086648941040039
68	195.28988790512085	response	0	2		66.0	2.5	/experiments/knapen_aot/videos/S_yt-waWM9vAfsIw_116.mp4	0.0	273.5931658744812	
68	195.29843282699585	movie	1		301.0	66.0	2.5	/experiments/knapen_aot/videos/S_yt-waWM9vAfsIw_116.mp4	0.0	273.6017107963562	2.5080320835113525
68	197.8064649105072	fix_post	2		12.0	66.0	2.5	/experiments/knapen_aot/videos/S_yt-waWM9vAfsIw_116.mp4	0.0	276.10974287986755	0.09990692138671875
69	197.90637183189392	fix_pre	0		12.0	67.0	2.5	/experiments/knapen_aot/videos/S_ILSVRC2015_train_00087003.mp4	0.0	276.2096498012543	0.1003561019897461
69	197.99823093414307	response	0	2		67.0	2.5	/experiments/knapen_aot/videos/S_ILSVRC2015_train_00087003.mp4	0.0	276.3015089035034	
69	198.00672793388367	movie	1		298.0	67.0	2.5	/experiments/knapen_aot/videos/S_ILSVRC2015_train_00087003.mp4	0.0	276.310005903244	2.5080299377441406
69	200.5147578716278	fix_post	2		12.0	67.0	2.5	/experiments/knapen_aot/videos/S_ILSVRC2015_train_00087003.mp4	0.0	278.81803584098816	0.10001397132873535
70	200.61477184295654	fix_pre	0		16.0	68.0	2.5	/experiments/knapen_aot/videos/S_yt-n2PnABmSpxI_115.mp4	0.0	278.9180498123169	0.13328194618225098
70	200.73231983184814	response	0	2		68.0	2.5	/experiments/knapen_aot/videos/S_yt-n2PnABmSpxI_115.mp4	0.0	279.0355978012085	
70	200.7480537891388	movie	1		301.0	68.0	2.5	/experiments/knapen_aot/videos/S_yt-n2PnABmSpxI_115.mp4	0.0	279.05133175849915	2.508406162261963
70	203.25645995140076	fix_post	2		12.0	68.0	2.5	/experiments/knapen_aot/videos/S_yt-n2PnABmSpxI_115.mp4	0.0	281.5597379207611	0.09998703002929688
71	203.35644698143005	fix_pre	0		92.0	69.0	2.5	/experiments/knapen_aot/videos/R_S_production_ID_4510883.mp4	0.0	281.6597249507904	0.7666518688201904
71	204.1148338317871	response	0	2		69.0	2.5	/experiments/knapen_aot/videos/R_S_production_ID_4510883.mp4	0.0	282.41811180114746	
71	204.12309885025024	movie	1		165.0	69.0	2.5	/experiments/knapen_aot/videos/R_S_production_ID_4510883.mp4	0.0	282.4263768196106	2.5083420276641846
71	206.63144087791443	fix_post	2		12.0	69.0	2.5	/experiments/knapen_aot/videos/R_S_production_ID_4510883.mp4	0.0	284.9347188472748	0.09998607635498047
72	206.7314269542694	fix_pre	0		72.0	70.0	2.5	blank	1.0	285.03470492362976	0.5999958515167236
72	207.32314586639404	response	0	2		70.0	2.5	blank	1.0	285.6264238357544	
72	207.33142280578613	movie	1		301.0	70.0	2.5	blank	1.0	285.6347007751465	2.5083260536193848
72	209.83974885940552	fix_post	2		12.0	70.0	2.5	blank	1.0	288.14302682876587	0.09995794296264648
73	209.93970680236816	fix_pre	0		41.0	71.0	2.5	/experiments/knapen_aot/videos/R_S_production_ID_4428752.mp4	0.0	288.2429847717285	0.34168410301208496
73	210.27310800552368	response	0	2		71.0	2.5	/experiments/knapen_aot/videos/R_S_production_ID_4428752.mp4	0.0	288.57638597488403	
73	210.28139090538025	movie	1		164.0	71.0	2.5	/experiments/knapen_aot/videos/R_S_production_ID_4428752.mp4	0.0	288.5846688747406	2.5083398818969727
73	212.78973078727722	fix_post	2		12.0	71.0	2.5	/experiments/knapen_aot/videos/R_S_production_ID_4428752.mp4	0.0	291.0930087566376	0.09999799728393555
74	212.88972878456116	fix_pre	0		22.0	72.0	2.5	/experiments/knapen_aot/videos/R_S_pexels-nkem-6237382.mp4	0.0	291.1930067539215	0.18330717086791992
74	213.064857006073	response	0	2		72.0	2.5	/experiments/knapen_aot/videos/R_S_pexels-nkem-6237382.mp4	0.0	291.36813497543335	
74	213.07303595542908	movie	1		164.0	72.0	2.5	/experiments/knapen_aot/videos/R_S_pexels-nkem-6237382.mp4	0.0	291.37631392478943	2.508358955383301
74	215.58139491081238	fix_post	2		12.0	72.0	2.5	/experiments/knapen_aot/videos/R_S_pexels-nkem-6237382.mp4	0.0	293.88467288017273	0.09994101524353027
75	215.6813359260559	fix_pre	0		13.0	73.0	2.5	/experiments/knapen_aot/videos/R_S_yt-STL3ejY9u_Q_73.mp4	0.0	293.98461389541626	0.108367919921875
75	215.78148579597473	response	0	2		73.0	2.5	/experiments/knapen_aot/videos/R_S_yt-STL3ejY9u_Q_73.mp4	0.0	294.0847637653351	
75	215.78970384597778	movie	1		301.0	73.0	2.5	/experiments/knapen_aot/videos/R_S_yt-STL3ejY9u_Q_73.mp4	0.0	294.09298181533813	2.5085091590881348
75	218.29821300506592	fix_post	2		12.0	73.0	2.5	/experiments/knapen_aot/videos/R_S_yt-STL3ejY9u_Q_73.mp4	0.0	296.60149097442627	0.09984183311462402
76	218.39805483818054	fix_pre	0		16.0	74.0	2.5	/experiments/knapen_aot/videos/R_S_yt-SCzpSxzt0TA_46.mp4	0.0	296.7013328075409	0.1333141326904297
76	218.52317595481873	response	0	2		74.0	2.5	/experiments/knapen_aot/videos/R_S_yt-SCzpSxzt0TA_46.mp4	0.0	296.8264539241791	
76	218.53136897087097	movie	1		300.0	74.0	2.5	/experiments/knapen_aot/videos/R_S_yt-SCzpSxzt0TA_46.mp4	0.0	296.8346469402313	2.508314847946167
76	221.03968381881714	fix_post	2		12.0	74.0	2.5	/experiments/knapen_aot/videos/R_S_yt-SCzpSxzt0TA_46.mp4	0.0	299.3429617881775	0.10005617141723633
77	221.13973999023438	fix_pre	0		20.0	75.0	2.5	/experiments/knapen_aot/videos/S_yt-Ojy5TMPX8_Q_165.mp4	0.0	299.4430179595947	0.16659092903137207
77	221.29814195632935	response	0	2		75.0	2.5	/experiments/knapen_aot/videos/S_yt-Ojy5TMPX8_Q_165.mp4	0.0	299.6014199256897	
77	221.30633091926575	movie	1		301.0	75.0	2.5	/experiments/knapen_aot/videos/S_yt-Ojy5TMPX8_Q_165.mp4	0.0	299.6096088886261	2.5084550380706787
77	223.81478595733643	fix_post	2		12.0	75.0	2.5	/experiments/knapen_aot/videos/S_yt-Ojy5TMPX8_Q_165.mp4	0.0	302.1180639266968	0.09990692138671875
78	223.91469287872314	fix_pre	0		12.0	76.0	2.5	/experiments/knapen_aot/videos/R_S_yt-Tt_LkR4iAt4_11.mp4	0.0	302.2179708480835	0.09998106956481934
78	224.00648188591003	response	0	2		76.0	2.5	/experiments/knapen_aot/videos/R_S_yt-Tt_LkR4iAt4_11.mp4	0.0	302.3097598552704	
78	224.01467394828796	movie	1		301.0	76.0	2.5	/experiments/knapen_aot/videos/R_S_yt-Tt_LkR4iAt4_11.mp4	0.0	302.3179519176483	2.508307933807373
78	226.52298188209534	fix_post	2		12.0	76.0	2.5	/experiments/knapen_aot/videos/R_S_yt-Tt_LkR4iAt4_11.mp4	0.0	304.8262598514557	0.100067138671875
79	226.6230490207672	fix_pre	0		12.0	77.0	2.5	blank	1.0	304.92632699012756	0.10001897811889648
79	226.7148778438568	response	0	2		77.0	2.5	blank	1.0	305.01815581321716	
79	226.7230679988861	movie	1		301.0	77.0	2.5	blank	1.0	305.02634596824646	2.5082919597625732
79	229.23135995864868	fix_post	2		12.0	77.0	2.5	blank	1.0	307.53463792800903	0.10001182556152344
80	229.3313717842102	fix_pre	0		43.0	78.0	2.5	/experiments/knapen_aot/videos/R_S_yt-c-H45QS0CF4_147.mp4	0.0	307.63464975357056	0.35823917388916016
80	229.6814730167389	response	0	2		78.0	2.5	/experiments/knapen_aot/videos/R_S_yt-c-H45QS0CF4_147.mp4	0.0	307.98475098609924	
80	229.68961095809937	movie	1		301.0	78.0	2.5	/experiments/knapen_aot/videos/R_S_yt-c-H45QS0CF4_147.mp4	0.0	307.9928889274597	2.5085229873657227
80	232.1981339454651	fix_post	2		12.0	78.0	2.5	/experiments/knapen_aot/videos/R_S_yt-c-H45QS0CF4_147.mp4	0.0	310.50141191482544	0.10001206398010254
81	232.2981460094452	fix_pre	0		13.0	79.0	2.5	/experiments/knapen_aot/videos/S_yt-QQPv17nfR_E_2.mp4	0.0	310.60142397880554	0.1080939769744873
81	232.39814281463623	response	0	2		79.0	2.5	/experiments/knapen_aot/videos/S_yt-QQPv17nfR_E_2.mp4	0.0	310.7014207839966	
81	232.40623998641968	movie	1		301.0	79.0	2.5	/experiments/knapen_aot/videos/S_yt-QQPv17nfR_E_2.mp4	0.0	310.70951795578003	2.5083959102630615
81	234.91463589668274	fix_post	2		12.0	79.0	2.5	/experiments/knapen_aot/videos/S_yt-QQPv17nfR_E_2.mp4	0.0	313.2179138660431	0.10002303123474121
82	235.01465892791748	fix_pre	0		23.0	80.0	2.5	/experiments/knapen_aot/videos/R_S_wc-8bTJmWfuVyJ4_8.mp4	0.0	313.31793689727783	0.19154691696166992
82	235.19815301895142	response	0	2		80.0	2.5	/experiments/knapen_aot/videos/R_S_wc-8bTJmWfuVyJ4_8.mp4	0.0	313.50143098831177	
82	235.20620584487915	movie	1		161.0	80.0	2.5	/experiments/knapen_aot/videos/R_S_wc-8bTJmWfuVyJ4_8.mp4	0.0	313.5094838142395	2.50852108001709
82	237.71472692489624	fix_post	2		12.0	80.0	2.5	/experiments/knapen_aot/videos/R_S_wc-8bTJmWfuVyJ4_8.mp4	0.0	316.0180048942566	0.09990096092224121
83	237.81462788581848	fix_pre	0		13.0	81.0	2.5	/experiments/knapen_aot/videos/R_S_yt-H45g6700wbc_159.mp4	0.0	316.11790585517883	0.10844993591308594
83	237.9148609638214	response	0	2		81.0	2.5	/experiments/knapen_aot/videos/R_S_yt-H45g6700wbc_159.mp4	0.0	316.21813893318176	
83	237.92307782173157	movie	1		301.0	81.0	2.5	/experiments/knapen_aot/videos/R_S_yt-H45g6700wbc_159.mp4	0.0	316.2263557910919	2.508256196975708
83	240.43133401870728	fix_post	2		12.0	81.0	2.5	/experiments/knapen_aot/videos/R_S_yt-H45g6700wbc_159.mp4	0.0	318.7346119880676	0.09991979598999023
84	240.53125381469727	fix_pre	0		16.0	82.0	2.5	blank	1.0	318.8345317840576	0.1333751678466797
84	240.65640497207642	response	0	2		82.0	2.5	blank	1.0	318.95968294143677	
84	240.66462898254395	movie	1		301.0	82.0	2.5	blank	1.0	318.9679069519043	2.508396863937378
84	243.17302584648132	fix_post	2		12.0	82.0	2.5	blank	1.0	321.4763038158417	0.0999150276184082
85	243.27294087409973	fix_pre	0		22.0	83.0	2.5	/experiments/knapen_aot/videos/S_yt-tX3slAQb9yY_13.mp4	0.0	321.5762188434601	0.18331408500671387
85	243.44801688194275	response	0	2		83.0	2.5	/experiments/knapen_aot/videos/S_yt-tX3slAQb9yY_13.mp4	0.0	321.7512948513031	
85	243.45625495910645	movie	1		301.0	83.0	2.5	/experiments/knapen_aot/videos/S_yt-tX3slAQb9yY_13.mp4	0.0	321.7595329284668	2.508455991744995
85	245.96471095085144	fix_post	2		12.0	83.0	2.5	/experiments/knapen_aot/videos/S_yt-tX3slAQb9yY_13.mp4	0.0	324.2679889202118	0.09984302520751953
87	246.06455397605896	stim	0		57.0					324.3678319454193	0.4765028953552246
87	246.23972082138062	response	0	2						324.54299879074097	
87	246.5346279144287	response	0	space						324.83790588378906	
