trial_nr	onset	event_type	phase	response	nr_frames	movie_index	movie_duration	movie_file	blank	onset_abs	duration
0	0.1253490447998047	stim	0		64.0					57.39874005317688	0.5325150489807129
0	0.6503028869628906	response	0	space						57.923693895339966	
1	0.6578640937805176	stim	0		121.0					57.93125510215759	1.008193016052246
1	1.1910409927368164	response	0	space						58.46443200111389	
1	1.6243739128112793	response	0	space						58.897764921188354	
1	1.6660571098327637	stim	1		120.0					58.93944811820984	0.9999427795410156
1	2.274350881576538	response	1	space						59.54774188995361	
2	2.6659998893737793	fix_pre	0		18.0	0.0	2.5	/experiments/knapen_aot/videos/R_S_yt-ThT8utBaywI_68.mp4	0.0	59.939390897750854	0.1502971649169922
2	2.80776309967041	response	0	space		0.0	2.5	/experiments/knapen_aot/videos/R_S_yt-ThT8utBaywI_68.mp4	0.0	60.081154108047485	
2	2.8162970542907715	movie	1		300.0	0.0	2.5	/experiments/knapen_aot/videos/R_S_yt-ThT8utBaywI_68.mp4	0.0	60.08968806266785	2.5080389976501465
2	5.324336051940918	fix_post	2		12.0	0.0	2.5	/experiments/knapen_aot/videos/R_S_yt-ThT8utBaywI_68.mp4	0.0	62.59772706031799	0.09990191459655762
3	5.424237966537476	fix_pre	0		66.0	1.0	2.5	/experiments/knapen_aot/videos/S_yt-F2x6e7e7cAE_70.mp4	0.0	62.69762897491455	0.5499660968780518
3	5.966238021850586	response	0	2		1.0	2.5	/experiments/knapen_aot/videos/S_yt-F2x6e7e7cAE_70.mp4	0.0	63.23962903022766	
3	5.974204063415527	movie	1		301.0	1.0	2.5	/experiments/knapen_aot/videos/S_yt-F2x6e7e7cAE_70.mp4	0.0	63.2475950717926	2.5085208415985107
3	8.482724905014038	fix_post	2		12.0	1.0	2.5	/experiments/knapen_aot/videos/S_yt-F2x6e7e7cAE_70.mp4	0.0	65.75611591339111	0.09989404678344727
4	8.582618951797485	fix_pre	0		58.0	2.0	2.5	/experiments/knapen_aot/videos/R_S_g201_WH_D004_L014_SDR_20191031_SDR_2K_AVC.mp4	0.0	65.85600996017456	0.4836270809173584
4	9.057729959487915	response	0	2		2.0	2.5	/experiments/knapen_aot/videos/R_S_g201_WH_D004_L014_SDR_20191031_SDR_2K_AVC.mp4	0.0	66.33112096786499	
4	9.066246032714844	movie	1		165.0	2.0	2.5	/experiments/knapen_aot/videos/R_S_g201_WH_D004_L014_SDR_20191031_SDR_2K_AVC.mp4	0.0	66.33963704109192	2.508002996444702
4	11.574249029159546	fix_post	2		12.0	2.0	2.5	/experiments/knapen_aot/videos/R_S_g201_WH_D004_L014_SDR_20191031_SDR_2K_AVC.mp4	0.0	68.84764003753662	0.09991693496704102
5	11.674165964126587	fix_pre	0		74.0	3.0	2.5	/experiments/knapen_aot/videos/S_comp_A007_C017_01156B_v02_SDR_PS_20180925_SDR_2K_AVC.mp4	0.0	68.94755697250366	0.6167049407958984
5	12.282725095748901	response	0	2		3.0	2.5	/experiments/knapen_aot/videos/S_comp_A007_C017_01156B_v02_SDR_PS_20180925_SDR_2K_AVC.mp4	0.0	69.55611610412598	
5	12.290870904922485	movie	1		164.0	3.0	2.5	/experiments/knapen_aot/videos/S_comp_A007_C017_01156B_v02_SDR_PS_20180925_SDR_2K_AVC.mp4	0.0	69.56426191329956	2.5084340572357178
5	14.799304962158203	fix_post	2		12.0	3.0	2.5	/experiments/knapen_aot/videos/S_comp_A007_C017_01156B_v02_SDR_PS_20180925_SDR_2K_AVC.mp4	0.0	72.07269597053528	0.1003260612487793
6	14.899631023406982	fix_pre	0		86.0	4.0	2.5	/experiments/knapen_aot/videos/R_S_yt-e1RAhIW6WAs_535.mp4	0.0	72.17302203178406	0.7161538600921631
6	15.607688903808594	response	0	2		4.0	2.5	/experiments/knapen_aot/videos/R_S_yt-e1RAhIW6WAs_535.mp4	0.0	72.88107991218567	
6	15.615784883499146	movie	1		301.0	4.0	2.5	/experiments/knapen_aot/videos/R_S_yt-e1RAhIW6WAs_535.mp4	0.0	72.88917589187622	2.5083961486816406
6	18.124181032180786	fix_post	2		12.0	4.0	2.5	/experiments/knapen_aot/videos/R_S_yt-e1RAhIW6WAs_535.mp4	0.0	75.39757204055786	0.10004806518554688
7	18.224229097366333	fix_pre	0		51.0	5.0	2.5	/experiments/knapen_aot/videos/R_S_pexels-rodnae-productions-5617905.mp4	0.0	75.49762010574341	0.42525696754455566
7	18.640984058380127	response	0	2		5.0	2.5	/experiments/knapen_aot/videos/R_S_pexels-rodnae-productions-5617905.mp4	0.0	75.9143750667572	
7	18.64948606491089	movie	1		163.0	5.0	2.5	/experiments/knapen_aot/videos/R_S_pexels-rodnae-productions-5617905.mp4	0.0	75.92287707328796	2.508082866668701
7	21.15756893157959	fix_post	2		12.0	5.0	2.5	/experiments/knapen_aot/videos/R_S_pexels-rodnae-productions-5617905.mp4	0.0	78.43095993995667	0.09988808631896973
8	21.25745701789856	fix_pre	0		48.0	6.0	2.5	/experiments/knapen_aot/videos/S_yt-yPl8LcgSMjo_32.mp4	0.0	78.53084802627563	0.40004992485046387
8	21.649379014968872	response	0	2		6.0	2.5	/experiments/knapen_aot/videos/S_yt-yPl8LcgSMjo_32.mp4	0.0	78.92277002334595	
8	21.657506942749023	movie	1		301.0	6.0	2.5	/experiments/knapen_aot/videos/S_yt-yPl8LcgSMjo_32.mp4	0.0	78.9308979511261	2.5083861351013184
8	24.165893077850342	fix_post	2		12.0	6.0	2.5	/experiments/knapen_aot/videos/S_yt-yPl8LcgSMjo_32.mp4	0.0	81.43928408622742	0.09995388984680176
9	24.265846967697144	fix_pre	0		60.0	7.0	2.5	blank	1.0	81.53923797607422	0.49994611740112305
9	24.75764489173889	response	0	2		7.0	2.5	blank	1.0	82.03103590011597	
9	24.765793085098267	movie	1		301.0	7.0	2.5	blank	1.0	82.03918409347534	2.5083999633789062
9	27.274193048477173	fix_post	2		12.0	7.0	2.5	blank	1.0	84.54758405685425	0.09992599487304688
10	27.37411904335022	fix_pre	0		53.0	8.0	2.5	/experiments/knapen_aot/videos/S_yt-wE0cEswyaaM_53.mp4	0.0	84.6475100517273	0.4419100284576416
10	27.807610034942627	response	0	2		8.0	2.5	/experiments/knapen_aot/videos/S_yt-wE0cEswyaaM_53.mp4	0.0	85.0810010433197	
10	27.81602907180786	movie	1		301.0	8.0	2.5	/experiments/knapen_aot/videos/S_yt-wE0cEswyaaM_53.mp4	0.0	85.08942008018494	2.508291006088257
10	30.324320077896118	fix_post	2		12.0	8.0	2.5	/experiments/knapen_aot/videos/S_yt-wE0cEswyaaM_53.mp4	0.0	87.5977110862732	0.09984588623046875
11	30.424165964126587	fix_pre	0		67.0	9.0	2.5	/experiments/knapen_aot/videos/R_S_TYs22gin-EU_57.mp4	0.0	87.69755697250366	0.5585229396820068
11	30.974272966384888	response	0	2		9.0	2.5	/experiments/knapen_aot/videos/R_S_TYs22gin-EU_57.mp4	0.0	88.24766397476196	
11	30.982688903808594	movie	1		301.0	9.0	2.5	/experiments/knapen_aot/videos/R_S_TYs22gin-EU_57.mp4	0.0	88.25607991218567	2.5080950260162354
11	33.49078392982483	fix_post	2		12.0	9.0	2.5	/experiments/knapen_aot/videos/R_S_TYs22gin-EU_57.mp4	0.0	90.7641749382019	0.10003495216369629
12	33.590818881988525	fix_pre	0		63.0	10.0	2.5	/experiments/knapen_aot/videos/R_S_ILSVRC2015_train_00563000.mp4	0.0	90.8642098903656	0.5249550342559814
12	34.107665061950684	response	0	2		10.0	2.5	/experiments/knapen_aot/videos/R_S_ILSVRC2015_train_00563000.mp4	0.0	91.38105607032776	
12	34.11577391624451	movie	1		301.0	10.0	2.5	/experiments/knapen_aot/videos/R_S_ILSVRC2015_train_00563000.mp4	0.0	91.38916492462158	2.508289098739624
12	36.62406301498413	fix_post	2		12.0	10.0	2.5	/experiments/knapen_aot/videos/R_S_ILSVRC2015_train_00563000.mp4	0.0	93.8974540233612	0.10009002685546875
13	36.7241530418396	fix_pre	0		55.0	11.0	2.5	/experiments/knapen_aot/videos/S_yt-3TF_RGo9cLs_541.mp4	0.0	93.99754405021667	0.45824289321899414
13	37.17421197891235	response	0	2		11.0	2.5	/experiments/knapen_aot/videos/S_yt-3TF_RGo9cLs_541.mp4	0.0	94.44760298728943	
13	37.182395935058594	movie	1		301.0	11.0	2.5	/experiments/knapen_aot/videos/S_yt-3TF_RGo9cLs_541.mp4	0.0	94.45578694343567	2.5084030628204346
13	39.69079899787903	fix_post	2		12.0	11.0	2.5	/experiments/knapen_aot/videos/S_yt-3TF_RGo9cLs_541.mp4	0.0	96.9641900062561	0.0999760627746582
14	39.79077506065369	fix_pre	0		47.0	12.0	2.5	blank	1.0	97.06416606903076	0.391603946685791
14	40.1742160320282	response	0	2		12.0	2.5	blank	1.0	97.44760704040527	
14	40.18237900733948	movie	1		301.0	12.0	2.5	blank	1.0	97.45577001571655	2.508657932281494
14	42.69103693962097	fix_post	2		12.0	12.0	2.5	blank	1.0	99.96442794799805	0.09971308708190918
15	42.79075002670288	fix_pre	0		56.0	13.0	2.5	/experiments/knapen_aot/videos/S_yt-GfPep7IhZIU_47.mp4	0.0	100.06414103507996	0.46657490730285645
15	43.24921894073486	response	0	2		13.0	2.5	/experiments/knapen_aot/videos/S_yt-GfPep7IhZIU_47.mp4	0.0	100.52260994911194	
15	43.25732493400574	movie	1		301.0	13.0	2.5	/experiments/knapen_aot/videos/S_yt-GfPep7IhZIU_47.mp4	0.0	100.53071594238281	2.508445978164673
15	45.76577091217041	fix_post	2		12.0	13.0	2.5	/experiments/knapen_aot/videos/S_yt-GfPep7IhZIU_47.mp4	0.0	103.03916192054749	0.09998703002929688
16	45.86575794219971	fix_pre	0		55.0	14.0	2.5	/experiments/knapen_aot/videos/S_ILSVRC2015_train_00404004.mp4	0.0	103.13914895057678	0.45826005935668945
16	46.315895080566406	response	0	2		14.0	2.5	/experiments/knapen_aot/videos/S_ILSVRC2015_train_00404004.mp4	0.0	103.58928608894348	
16	46.3240180015564	movie	1		301.0	14.0	2.5	/experiments/knapen_aot/videos/S_ILSVRC2015_train_00404004.mp4	0.0	103.59740900993347	2.5084691047668457
16	48.83248710632324	fix_post	2		12.0	14.0	2.5	/experiments/knapen_aot/videos/S_ILSVRC2015_train_00404004.mp4	0.0	106.10587811470032	0.0999147891998291
17	48.93240189552307	fix_pre	0		48.0	15.0	2.5	/experiments/knapen_aot/videos/S_yt-mmvWYAttrIw_2.mp4	0.0	106.20579290390015	0.39998817443847656
17	49.324167013168335	response	0	2		15.0	2.5	/experiments/knapen_aot/videos/S_yt-mmvWYAttrIw_2.mp4	0.0	106.59755802154541	
17	49.33239006996155	movie	1		301.0	15.0	2.5	/experiments/knapen_aot/videos/S_yt-mmvWYAttrIw_2.mp4	0.0	106.60578107833862	2.5084078311920166
17	51.840797901153564	fix_post	2		12.0	15.0	2.5	/experiments/knapen_aot/videos/S_yt-mmvWYAttrIw_2.mp4	0.0	109.11418890953064	0.10011410713195801
18	51.94091200828552	fix_pre	0		70.0	16.0	2.5	/experiments/knapen_aot/videos/R_S_yt-wE0cEswyaaM_53.mp4	0.0	109.2143030166626	0.583198070526123
18	52.51582098007202	response	0	2		16.0	2.5	/experiments/knapen_aot/videos/R_S_yt-wE0cEswyaaM_53.mp4	0.0	109.7892119884491	
18	52.524110078811646	movie	1		301.0	16.0	2.5	/experiments/knapen_aot/videos/R_S_yt-wE0cEswyaaM_53.mp4	0.0	109.79750108718872	2.5082459449768066
18	55.03235602378845	fix_post	2		12.0	16.0	2.5	/experiments/knapen_aot/videos/R_S_yt-wE0cEswyaaM_53.mp4	0.0	112.30574703216553	0.10004305839538574
19	55.13239908218384	fix_pre	0		59.0	17.0	2.5	/experiments/knapen_aot/videos/R_S_b6-4.mp4	0.0	112.40579009056091	0.491635799407959
19	55.61572599411011	response	0	2		17.0	2.5	/experiments/knapen_aot/videos/R_S_b6-4.mp4	0.0	112.88911700248718	
19	55.6240348815918	movie	1		168.0	17.0	2.5	/experiments/knapen_aot/videos/R_S_b6-4.mp4	0.0	112.89742588996887	2.5083601474761963
19	58.13239502906799	fix_post	2		12.0	17.0	2.5	/experiments/knapen_aot/videos/R_S_b6-4.mp4	0.0	115.40578603744507	0.10014986991882324
20	58.232544898986816	fix_pre	0		41.0	18.0	2.5	/experiments/knapen_aot/videos/R_S_yt-fjOsq03OC2c_188.mp4	0.0	115.50593590736389	0.34143614768981934
20	58.56574892997742	response	0	2		18.0	2.5	/experiments/knapen_aot/videos/R_S_yt-fjOsq03OC2c_188.mp4	0.0	115.83913993835449	
20	58.573981046676636	movie	1		301.0	18.0	2.5	/experiments/knapen_aot/videos/R_S_yt-fjOsq03OC2c_188.mp4	0.0	115.84737205505371	2.5084710121154785
20	61.082452058792114	fix_post	2		12.0	18.0	2.5	/experiments/knapen_aot/videos/R_S_yt-fjOsq03OC2c_188.mp4	0.0	118.35584306716919	0.09987902641296387
21	61.18233108520508	fix_pre	0		54.0	19.0	2.5	blank	1.0	118.45572209358215	0.44998598098754883
21	61.62414503097534	response	0	2		19.0	2.5	blank	1.0	118.89753603935242	
21	61.63231706619263	movie	1		301.0	19.0	2.5	blank	1.0	118.9057080745697	2.5083649158477783
21	64.1406819820404	fix_post	2		12.0	19.0	2.5	blank	1.0	121.41407299041748	0.10003495216369629
22	64.2407169342041	fix_pre	0		51.0	20.0	2.5	/experiments/knapen_aot/videos/S_yt-g_CLzrCYHoc_7.mp4	0.0	121.51410794258118	0.42493414878845215
22	64.65743088722229	response	0	2		20.0	2.5	/experiments/knapen_aot/videos/S_yt-g_CLzrCYHoc_7.mp4	0.0	121.93082189559937	
22	64.66565108299255	movie	1		301.0	20.0	2.5	/experiments/knapen_aot/videos/S_yt-g_CLzrCYHoc_7.mp4	0.0	121.93904209136963	2.508370876312256
22	67.17402195930481	fix_post	2		12.0	20.0	2.5	/experiments/knapen_aot/videos/S_yt-g_CLzrCYHoc_7.mp4	0.0	124.44741296768188	0.1000969409942627
23	67.27411890029907	fix_pre	0		67.0	21.0	2.5	/experiments/knapen_aot/videos/S_yt-HQQws1Lp_rQ_10.mp4	0.0	124.54750990867615	0.5581331253051758
23	67.82410788536072	response	0	2		21.0	2.5	/experiments/knapen_aot/videos/S_yt-HQQws1Lp_rQ_10.mp4	0.0	125.0974988937378	
23	67.83225202560425	movie	1		301.0	21.0	2.5	/experiments/knapen_aot/videos/S_yt-HQQws1Lp_rQ_10.mp4	0.0	125.10564303398132	2.5084729194641113
23	70.34072494506836	fix_post	2		12.0	21.0	2.5	/experiments/knapen_aot/videos/S_yt-HQQws1Lp_rQ_10.mp4	0.0	127.61411595344543	0.10007715225219727
24	70.44080209732056	fix_pre	0		48.0	22.0	2.5	/experiments/knapen_aot/videos/S_WO9z7lBUvOs_151.mp4	0.0	127.71419310569763	0.3997359275817871
24	70.83242106437683	response	0	2		22.0	2.5	/experiments/knapen_aot/videos/S_WO9z7lBUvOs_151.mp4	0.0	128.1058120727539	
24	70.84053802490234	movie	1		301.0	22.0	2.5	/experiments/knapen_aot/videos/S_WO9z7lBUvOs_151.mp4	0.0	128.11392903327942	2.5084030628204346
24	73.34894108772278	fix_post	2		12.0	22.0	2.5	/experiments/knapen_aot/videos/S_WO9z7lBUvOs_151.mp4	0.0	130.62233209609985	0.09999585151672363
25	73.4489369392395	fix_pre	0		54.0	23.0	2.5	/experiments/knapen_aot/videos/R_S_yt-Iu2ZPHLqXuY_32.mp4	0.0	130.72232794761658	0.44996094703674316
25	73.89076709747314	response	0	2		23.0	2.5	/experiments/knapen_aot/videos/R_S_yt-Iu2ZPHLqXuY_32.mp4	0.0	131.16415810585022	
25	73.89889788627625	movie	1		301.0	23.0	2.5	/experiments/knapen_aot/videos/R_S_yt-Iu2ZPHLqXuY_32.mp4	0.0	131.17228889465332	2.5084171295166016
25	76.40731501579285	fix_post	2		12.0	23.0	2.5	/experiments/knapen_aot/videos/R_S_yt-Iu2ZPHLqXuY_32.mp4	0.0	133.68070602416992	0.09996700286865234
26	76.5072820186615	fix_pre	0		51.0	24.0	2.5	/experiments/knapen_aot/videos/S_ILSVRC2015_train_00469000.mp4	0.0	133.78067302703857	0.4249598979949951
26	76.9240050315857	response	0	2		24.0	2.5	/experiments/knapen_aot/videos/S_ILSVRC2015_train_00469000.mp4	0.0	134.19739603996277	
26	76.9322419166565	movie	1		301.0	24.0	2.5	/experiments/knapen_aot/videos/S_ILSVRC2015_train_00469000.mp4	0.0	134.20563292503357	2.508435010910034
26	79.44067692756653	fix_post	2		12.0	24.0	2.5	/experiments/knapen_aot/videos/S_ILSVRC2015_train_00469000.mp4	0.0	136.7140679359436	0.09992098808288574
27	79.54059791564941	fix_pre	0		57.0	25.0	2.5	/experiments/knapen_aot/videos/R_S_yt-EBuE7GbFw7U_180.mp4	0.0	136.8139889240265	0.4749610424041748
27	79.99986100196838	response	0	2		25.0	2.5	/experiments/knapen_aot/videos/R_S_yt-EBuE7GbFw7U_180.mp4	0.0	137.27325201034546	
27	80.01555895805359	movie	1		301.0	25.0	2.5	/experiments/knapen_aot/videos/R_S_yt-EBuE7GbFw7U_180.mp4	0.0	137.28894996643066	2.508615016937256
27	82.52417397499084	fix_post	2		12.0	25.0	2.5	/experiments/knapen_aot/videos/R_S_yt-EBuE7GbFw7U_180.mp4	0.0	139.79756498336792	0.09970307350158691
28	82.62387704849243	fix_pre	0		32.0	26.0	2.5	/experiments/knapen_aot/videos/R_S_pexels-koolshooters-7689098.mp4	0.0	139.8972680568695	0.26669788360595703
28	82.8823869228363	response	0	2		26.0	2.5	/experiments/knapen_aot/videos/R_S_pexels-koolshooters-7689098.mp4	0.0	140.15577793121338	
28	82.89057493209839	movie	1		164.0	26.0	2.5	/experiments/knapen_aot/videos/R_S_pexels-koolshooters-7689098.mp4	0.0	140.16396594047546	2.5083580017089844
28	85.39893293380737	fix_post	2		12.0	26.0	2.5	/experiments/knapen_aot/videos/R_S_pexels-koolshooters-7689098.mp4	0.0	142.67232394218445	0.10037398338317871
29	85.49930691719055	fix_pre	0		47.0	27.0	2.5	/experiments/knapen_aot/videos/R_S_comp_N003_C006_PS_v01_SDR_PS_20180925_SDR_2K_AVC.mp4	0.0	142.77269792556763	0.39122915267944336
29	85.88231110572815	response	0	2		27.0	2.5	/experiments/knapen_aot/videos/R_S_comp_N003_C006_PS_v01_SDR_PS_20180925_SDR_2K_AVC.mp4	0.0	143.15570211410522	
29	85.89053606987	movie	1		174.0	27.0	2.5	/experiments/knapen_aot/videos/R_S_comp_N003_C006_PS_v01_SDR_PS_20180925_SDR_2K_AVC.mp4	0.0	143.16392707824707	2.508297920227051
29	88.39883399009705	fix_post	2		12.0	27.0	2.5	/experiments/knapen_aot/videos/R_S_comp_N003_C006_PS_v01_SDR_PS_20180925_SDR_2K_AVC.mp4	0.0	145.67222499847412	0.1000521183013916
30	88.49888610839844	fix_pre	0		40.0	28.0	2.5	blank	1.0	145.7722771167755	0.3333289623260498
30	88.82402896881104	response	0	2		28.0	2.5	blank	1.0	146.0974199771881	
30	88.83221507072449	movie	1		301.0	28.0	2.5	blank	1.0	146.10560607910156	2.5083179473876953
30	91.34053301811218	fix_post	2		12.0	28.0	2.5	blank	1.0	148.61392402648926	0.10000491142272949
31	91.44053792953491	fix_pre	0		49.0	29.0	2.5	/experiments/knapen_aot/videos/S_yt-2lnxIdOTxog_157.mp4	0.0	148.713928937912	0.4082810878753662
31	91.8406400680542	response	0	2		29.0	2.5	/experiments/knapen_aot/videos/S_yt-2lnxIdOTxog_157.mp4	0.0	149.11403107643127	
31	91.84881901741028	movie	1		301.0	29.0	2.5	/experiments/knapen_aot/videos/S_yt-2lnxIdOTxog_157.mp4	0.0	149.12221002578735	2.5084710121154785
31	94.35729002952576	fix_post	2		12.0	29.0	2.5	/experiments/knapen_aot/videos/S_yt-2lnxIdOTxog_157.mp4	0.0	151.63068103790283	0.099945068359375
32	94.45723509788513	fix_pre	0		75.0	30.0	2.5	/experiments/knapen_aot/videos/R_S_yt-gzjV6YoK6X0_3.mp4	0.0	151.7306261062622	0.6248459815979004
32	95.07395601272583	response	0	2		30.0	2.5	/experiments/knapen_aot/videos/R_S_yt-gzjV6YoK6X0_3.mp4	0.0	152.3473470211029	
32	95.08208107948303	movie	1		301.0	30.0	2.5	/experiments/knapen_aot/videos/R_S_yt-gzjV6YoK6X0_3.mp4	0.0	152.3554720878601	2.5084068775177
32	97.59048795700073	fix_post	2		12.0	30.0	2.5	/experiments/knapen_aot/videos/R_S_yt-gzjV6YoK6X0_3.mp4	0.0	154.8638789653778	0.10002803802490234
33	97.69051599502563	fix_pre	0		79.0	31.0	2.5	/experiments/knapen_aot/videos/R_S_yt-n2PnABmSpxI_115.mp4	0.0	154.9639070034027	0.6596589088439941
33	98.34075403213501	response	0	2		31.0	2.5	/experiments/knapen_aot/videos/R_S_yt-n2PnABmSpxI_115.mp4	0.0	155.61414504051208	
33	98.35017490386963	movie	1		301.0	31.0	2.5	/experiments/knapen_aot/videos/R_S_yt-n2PnABmSpxI_115.mp4	0.0	155.6235659122467	2.5069711208343506
33	100.85714602470398	fix_post	2		12.0	31.0	2.5	/experiments/knapen_aot/videos/R_S_yt-n2PnABmSpxI_115.mp4	0.0	158.13053703308105	0.0999748706817627
34	100.95712089538574	fix_pre	0		75.0	32.0	2.5	/experiments/knapen_aot/videos/S_yt-NuZy8Rjk4d0_156.mp4	0.0	158.23051190376282	0.6249401569366455
34	101.57398295402527	response	0	2		32.0	2.5	/experiments/knapen_aot/videos/S_yt-NuZy8Rjk4d0_156.mp4	0.0	158.84737396240234	
34	101.58206105232239	movie	1		301.0	32.0	2.5	/experiments/knapen_aot/videos/S_yt-NuZy8Rjk4d0_156.mp4	0.0	158.85545206069946	2.508391857147217
34	104.0904529094696	fix_post	2		12.0	32.0	2.5	/experiments/knapen_aot/videos/S_yt-NuZy8Rjk4d0_156.mp4	0.0	161.36384391784668	0.1002199649810791
35	104.19067287445068	fix_pre	0		57.0	33.0	2.5	/experiments/knapen_aot/videos/S_yt-HoRtvVuuvOs_5.mp4	0.0	161.46406388282776	0.4747650623321533
35	104.65724492073059	response	0	2		33.0	2.5	/experiments/knapen_aot/videos/S_yt-HoRtvVuuvOs_5.mp4	0.0	161.93063592910767	
35	104.66543793678284	movie	1		300.0	33.0	2.5	/experiments/knapen_aot/videos/S_yt-HoRtvVuuvOs_5.mp4	0.0	161.9388289451599	2.5085771083831787
35	107.17401504516602	fix_post	2		12.0	33.0	2.5	/experiments/knapen_aot/videos/S_yt-HoRtvVuuvOs_5.mp4	0.0	164.4474060535431	0.09990406036376953
36	107.27391910552979	fix_pre	0		46.0	34.0	2.5	blank	1.0	164.54731011390686	0.38320183753967285
36	107.64890098571777	response	0	2		34.0	2.5	blank	1.0	164.92229199409485	
36	107.65712094306946	movie	1		301.0	34.0	2.5	blank	1.0	164.93051195144653	2.508286952972412
36	110.16540789604187	fix_post	2		12.0	34.0	2.5	blank	1.0	167.43879890441895	0.10006999969482422
37	110.2654778957367	fix_pre	0		55.0	35.0	2.5	/experiments/knapen_aot/videos/R_S_yt-4oT-2eGhmUo_102.mp4	0.0	167.53886890411377	0.4596140384674072
37	110.71555709838867	response	0	2		35.0	2.5	/experiments/knapen_aot/videos/R_S_yt-4oT-2eGhmUo_102.mp4	0.0	167.98894810676575	
37	110.7250919342041	movie	1		301.0	35.0	2.5	/experiments/knapen_aot/videos/R_S_yt-4oT-2eGhmUo_102.mp4	0.0	167.99848294258118	2.5069949626922607
37	113.23208689689636	fix_post	2		12.0	35.0	2.5	/experiments/knapen_aot/videos/R_S_yt-4oT-2eGhmUo_102.mp4	0.0	170.50547790527344	0.1000361442565918
38	113.33212304115295	fix_pre	0		49.0	36.0	2.5	/experiments/knapen_aot/videos/R_S_yt-n_eO-7KedAE_21.mp4	0.0	170.60551404953003	0.4082789421081543
38	113.73222303390503	response	0	2		36.0	2.5	/experiments/knapen_aot/videos/R_S_yt-n_eO-7KedAE_21.mp4	0.0	171.0056140422821	
38	113.74040198326111	movie	1		301.0	36.0	2.5	/experiments/knapen_aot/videos/R_S_yt-n_eO-7KedAE_21.mp4	0.0	171.01379299163818	2.508557081222534
38	116.24895906448364	fix_post	2		12.0	36.0	2.5	/experiments/knapen_aot/videos/R_S_yt-n_eO-7KedAE_21.mp4	0.0	173.52235007286072	0.09981894493103027
39	116.34877800941467	fix_pre	0		51.0	37.0	2.5	/experiments/knapen_aot/videos/R_S_flickr-hapanine-31880782705_22.mp4	0.0	173.62216901779175	0.4249429702758789
39	116.76548504829407	response	0	2		37.0	2.5	/experiments/knapen_aot/videos/R_S_flickr-hapanine-31880782705_22.mp4	0.0	174.03887605667114	
39	116.77372097969055	movie	1		162.0	37.0	2.5	/experiments/knapen_aot/videos/R_S_flickr-hapanine-31880782705_22.mp4	0.0	174.04711198806763	2.508368968963623
39	119.28208994865417	fix_post	2		12.0	37.0	2.5	/experiments/knapen_aot/videos/R_S_flickr-hapanine-31880782705_22.mp4	0.0	176.55548095703125	0.09997296333312988
40	119.3820629119873	fix_pre	0		67.0	38.0	2.5	/experiments/knapen_aot/videos/R_S_yt-cokedWwwYYs_136.mp4	0.0	176.65545392036438	0.5582730770111084
40	119.9322280883789	response	0	2		38.0	2.5	/experiments/knapen_aot/videos/R_S_yt-cokedWwwYYs_136.mp4	0.0	177.20561909675598	
40	119.94033598899841	movie	1		301.0	38.0	2.5	/experiments/knapen_aot/videos/R_S_yt-cokedWwwYYs_136.mp4	0.0	177.2137269973755	2.5084500312805176
40	122.44878602027893	fix_post	2		12.0	38.0	2.5	/experiments/knapen_aot/videos/R_S_yt-cokedWwwYYs_136.mp4	0.0	179.722177028656	0.09994387626647949
41	122.54872989654541	fix_pre	0		65.0	39.0	2.5	/experiments/knapen_aot/videos/S_DL_B002_C011_SDR_20191122_SDR_2K_AVC.mp4	0.0	179.82212090492249	0.5416531562805176
41	123.08215403556824	response	0	2		39.0	2.5	/experiments/knapen_aot/videos/S_DL_B002_C011_SDR_20191122_SDR_2K_AVC.mp4	0.0	180.3555450439453	
41	123.09038305282593	movie	1		162.0	39.0	2.5	/experiments/knapen_aot/videos/S_DL_B002_C011_SDR_20191122_SDR_2K_AVC.mp4	0.0	180.363774061203	2.5083539485931396
41	125.59873700141907	fix_post	2		12.0	39.0	2.5	/experiments/knapen_aot/videos/S_DL_B002_C011_SDR_20191122_SDR_2K_AVC.mp4	0.0	182.87212800979614	0.10004305839538574
42	125.69878005981445	fix_pre	0		47.0	40.0	2.5	/experiments/knapen_aot/videos/S_ILSVRC2015_train_00322000.mp4	0.0	182.97217106819153	0.39153003692626953
42	126.08213400840759	response	0	2		40.0	2.5	/experiments/knapen_aot/videos/S_ILSVRC2015_train_00322000.mp4	0.0	183.35552501678467	
42	126.09031009674072	movie	1		301.0	40.0	2.5	/experiments/knapen_aot/videos/S_ILSVRC2015_train_00322000.mp4	0.0	183.3637011051178	2.508518934249878
42	128.5988290309906	fix_post	2		12.0	40.0	2.5	/experiments/knapen_aot/videos/S_ILSVRC2015_train_00322000.mp4	0.0	185.87222003936768	0.09985184669494629
43	128.69868087768555	fix_pre	0		54.0	41.0	2.5	blank	1.0	185.97207188606262	0.45018720626831055
43	129.1404309272766	response	0	2		41.0	2.5	blank	1.0	186.4138219356537	
43	129.14886808395386	movie	1		301.0	41.0	2.5	blank	1.0	186.42225909233093	2.508119821548462
43	131.65698790550232	fix_post	2		12.0	41.0	2.5	blank	1.0	188.9303789138794	0.1000361442565918
44	131.7570240497589	fix_pre	0		64.0	42.0	2.5	/experiments/knapen_aot/videos/S_ILSVRC2015_test_00001002.mp4	0.0	189.030415058136	0.5332670211791992
44	132.2821168899536	response	0	2		42.0	2.5	/experiments/knapen_aot/videos/S_ILSVRC2015_test_00001002.mp4	0.0	189.5555078983307	
44	132.2902910709381	movie	1		301.0	42.0	2.5	/experiments/knapen_aot/videos/S_ILSVRC2015_test_00001002.mp4	0.0	189.56368207931519	2.508262872695923
44	134.79855394363403	fix_post	2		12.0	42.0	2.5	/experiments/knapen_aot/videos/S_ILSVRC2015_test_00001002.mp4	0.0	192.0719449520111	0.10008907318115234
45	134.89864301681519	fix_pre	0		62.0	43.0	2.5	/experiments/knapen_aot/videos/R_S_video.mp4	0.0	192.17203402519226	0.5166440010070801
45	135.40708899497986	response	0	2		43.0	2.5	/experiments/knapen_aot/videos/R_S_video.mp4	0.0	192.68048000335693	
45	135.41528701782227	movie	1		168.0	43.0	2.5	/experiments/knapen_aot/videos/R_S_video.mp4	0.0	192.68867802619934	2.508363962173462
45	137.92365097999573	fix_post	2		12.0	43.0	2.5	/experiments/knapen_aot/videos/R_S_video.mp4	0.0	195.1970419883728	0.09995102882385254
46	138.02360200881958	fix_pre	0		46.0	44.0	2.5	/experiments/knapen_aot/videos/R_S_yt-g_CLzrCYHoc_7.mp4	0.0	195.29699301719666	0.38335609436035156
46	138.39120388031006	response	0	2		44.0	2.5	/experiments/knapen_aot/videos/R_S_yt-g_CLzrCYHoc_7.mp4	0.0	195.66459488868713	
46	138.40695810317993	movie	1		301.0	44.0	2.5	/experiments/knapen_aot/videos/R_S_yt-g_CLzrCYHoc_7.mp4	0.0	195.680349111557	2.5084757804870605
46	140.915433883667	fix_post	2		12.0	44.0	2.5	/experiments/knapen_aot/videos/R_S_yt-g_CLzrCYHoc_7.mp4	0.0	198.18882489204407	0.09981608390808105
47	141.01524996757507	fix_pre	0		76.0	45.0	2.5	/experiments/knapen_aot/videos/R_S_yt-3roniRu6w58_10.mp4	0.0	198.28864097595215	0.6332709789276123
47	141.64039707183838	response	0	2		45.0	2.5	/experiments/knapen_aot/videos/R_S_yt-3roniRu6w58_10.mp4	0.0	198.91378808021545	
47	141.64852094650269	movie	1		301.0	45.0	2.5	/experiments/knapen_aot/videos/R_S_yt-3roniRu6w58_10.mp4	0.0	198.92191195487976	2.508347988128662
47	144.15686893463135	fix_post	2		12.0	45.0	2.5	/experiments/knapen_aot/videos/R_S_yt-3roniRu6w58_10.mp4	0.0	201.43025994300842	0.10016512870788574
48	144.25703406333923	fix_pre	0		44.0	46.0	2.5	/experiments/knapen_aot/videos/R_S_yt-HQQws1Lp_rQ_10.mp4	0.0	201.5304250717163	0.3665640354156494
48	144.61538290977478	response	0	2		46.0	2.5	/experiments/knapen_aot/videos/R_S_yt-HQQws1Lp_rQ_10.mp4	0.0	201.88877391815186	
48	144.62359809875488	movie	1		301.0	46.0	2.5	/experiments/knapen_aot/videos/R_S_yt-HQQws1Lp_rQ_10.mp4	0.0	201.89698910713196	2.5085198879241943
48	147.13211798667908	fix_post	2		12.0	46.0	2.5	/experiments/knapen_aot/videos/R_S_yt-HQQws1Lp_rQ_10.mp4	0.0	204.40550899505615	0.09985709190368652
49	147.23197507858276	fix_pre	0		49.0	47.0	2.5	blank	1.0	204.50536608695984	0.40936994552612305
49	147.63219809532166	response	0	2		47.0	2.5	blank	1.0	204.90558910369873	
49	147.6413450241089	movie	1		301.0	47.0	2.5	blank	1.0	204.91473603248596	2.5072648525238037
49	150.1486098766327	fix_post	2		12.0	47.0	2.5	blank	1.0	207.42200088500977	0.10004806518554688
50	150.24865794181824	fix_pre	0		62.0	48.0	2.5	/experiments/knapen_aot/videos/S_yt-QFGyhhr1KSQ_9.mp4	0.0	207.5220489501953	0.5177769660949707
50	150.75699305534363	response	0	2		48.0	2.5	/experiments/knapen_aot/videos/S_yt-QFGyhhr1KSQ_9.mp4	0.0	208.0303840637207	
50	150.7664349079132	movie	1		301.0	48.0	2.5	/experiments/knapen_aot/videos/S_yt-QFGyhhr1KSQ_9.mp4	0.0	208.03982591629028	2.507143020629883
50	153.2735779285431	fix_post	2		12.0	48.0	2.5	/experiments/knapen_aot/videos/S_yt-QFGyhhr1KSQ_9.mp4	0.0	210.54696893692017	0.1000211238861084
51	153.3735990524292	fix_pre	0		61.0	49.0	2.5	/experiments/knapen_aot/videos/S_ILSVRC2015_train_00473000.mp4	0.0	210.64699006080627	0.5082030296325684
51	153.87371802330017	response	0	2		49.0	2.5	/experiments/knapen_aot/videos/S_ILSVRC2015_train_00473000.mp4	0.0	211.14710903167725	
51	153.88180208206177	movie	1		301.0	49.0	2.5	/experiments/knapen_aot/videos/S_ILSVRC2015_train_00473000.mp4	0.0	211.15519309043884	2.508413791656494
51	156.39021587371826	fix_post	2		12.0	49.0	2.5	/experiments/knapen_aot/videos/S_ILSVRC2015_train_00473000.mp4	0.0	213.66360688209534	0.09998703002929688
52	156.49020290374756	fix_pre	0		57.0	50.0	2.5	/experiments/knapen_aot/videos/S_production_ID_4820868.mp4	0.0	213.76359391212463	0.4750092029571533
52	156.95704793930054	response	0	2		50.0	2.5	/experiments/knapen_aot/videos/S_production_ID_4820868.mp4	0.0	214.2304389476776	
52	156.9652121067047	movie	1		165.0	50.0	2.5	/experiments/knapen_aot/videos/S_production_ID_4820868.mp4	0.0	214.2386031150818	2.5082669258117676
52	159.47347903251648	fix_post	2		12.0	50.0	2.5	/experiments/knapen_aot/videos/S_production_ID_4820868.mp4	0.0	216.74687004089355	0.10005402565002441
53	159.5735330581665	fix_pre	0		49.0	51.0	2.5	/experiments/knapen_aot/videos/S_ILSVRC2015_train_00572001.mp4	0.0	216.84692406654358	0.4083750247955322
53	159.966166973114	response	0	2		51.0	2.5	/experiments/knapen_aot/videos/S_ILSVRC2015_train_00572001.mp4	0.0	217.2395579814911	
53	159.98190808296204	movie	1		301.0	51.0	2.5	/experiments/knapen_aot/videos/S_ILSVRC2015_train_00572001.mp4	0.0	217.2552990913391	2.5083208084106445
53	162.49022889137268	fix_post	2		12.0	51.0	2.5	/experiments/knapen_aot/videos/S_ILSVRC2015_train_00572001.mp4	0.0	219.76361989974976	0.0999910831451416
54	162.59021997451782	fix_pre	0		55.0	52.0	2.5	/experiments/knapen_aot/videos/R_S_EFR8AteY59I_15.mp4	0.0	219.8636109828949	0.45828700065612793
54	163.0327730178833	response	0	2		52.0	2.5	/experiments/knapen_aot/videos/R_S_EFR8AteY59I_15.mp4	0.0	220.30616402626038	
54	163.04850697517395	movie	1		301.0	52.0	2.5	/experiments/knapen_aot/videos/R_S_EFR8AteY59I_15.mp4	0.0	220.32189798355103	2.5085740089416504
54	165.5570809841156	fix_post	2		12.0	52.0	2.5	/experiments/knapen_aot/videos/R_S_EFR8AteY59I_15.mp4	0.0	222.83047199249268	0.09978389739990234
55	165.6568648815155	fix_pre	0		54.0	53.0	2.5	/experiments/knapen_aot/videos/S_video_inspire_california_catalina_avalon_00053.1080-h264.mp4	0.0	222.93025588989258	0.44997119903564453
55	166.0986568927765	response	0	2		53.0	2.5	/experiments/knapen_aot/videos/S_video_inspire_california_catalina_avalon_00053.1080-h264.mp4	0.0	223.37204790115356	
55	166.10683608055115	movie	1		168.0	53.0	2.5	/experiments/knapen_aot/videos/S_video_inspire_california_catalina_avalon_00053.1080-h264.mp4	0.0	223.38022708892822	2.508431911468506
55	168.61526799201965	fix_post	2		12.0	53.0	2.5	/experiments/knapen_aot/videos/S_video_inspire_california_catalina_avalon_00053.1080-h264.mp4	0.0	225.88865900039673	0.09994006156921387
56	168.71520805358887	fix_pre	0		65.0	54.0	2.5	blank	1.0	225.98859906196594	0.5415768623352051
56	169.24860405921936	response	0	2		54.0	2.5	blank	1.0	226.52199506759644	
56	169.25678491592407	movie	1		301.0	54.0	2.5	blank	1.0	226.53017592430115	2.5084400177001953
56	171.76522493362427	fix_post	2		12.0	54.0	2.5	blank	1.0	229.03861594200134	0.10000395774841309
57	171.86522889137268	fix_pre	0		61.0	55.0	2.5	/experiments/knapen_aot/videos/R_S_DL_B002_C011_SDR_20191122_SDR_2K_AVC.mp4	0.0	229.13861989974976	0.5082061290740967
57	172.3652811050415	response	0	2		55.0	2.5	/experiments/knapen_aot/videos/R_S_DL_B002_C011_SDR_20191122_SDR_2K_AVC.mp4	0.0	229.63867211341858	
57	172.37343502044678	movie	1		164.0	55.0	2.5	/experiments/knapen_aot/videos/R_S_DL_B002_C011_SDR_20191122_SDR_2K_AVC.mp4	0.0	229.64682602882385	2.508547067642212
57	174.881982088089	fix_post	2		12.0	55.0	2.5	/experiments/knapen_aot/videos/R_S_DL_B002_C011_SDR_20191122_SDR_2K_AVC.mp4	0.0	232.15537309646606	0.0998539924621582
58	174.98183608055115	fix_pre	0		42.0	56.0	2.5	/experiments/knapen_aot/videos/R_S_g201_AK_A003_C014_SDR_20191113_SDR_2K_AVC.mp4	0.0	232.25522708892822	0.3499119281768799
58	175.32348489761353	response	0	2		56.0	2.5	/experiments/knapen_aot/videos/R_S_g201_AK_A003_C014_SDR_20191113_SDR_2K_AVC.mp4	0.0	232.5968759059906	
58	175.33174800872803	movie	1		166.0	56.0	2.5	/experiments/knapen_aot/videos/R_S_g201_AK_A003_C014_SDR_20191113_SDR_2K_AVC.mp4	0.0	232.6051390171051	2.508450984954834
58	177.84019899368286	fix_post	2		12.0	56.0	2.5	/experiments/knapen_aot/videos/R_S_g201_AK_A003_C014_SDR_20191113_SDR_2K_AVC.mp4	0.0	235.11359000205994	0.1001429557800293
59	177.9403419494629	fix_pre	0		58.0	57.0	2.5	/experiments/knapen_aot/videos/R_S_yt-ol2u_-gd0-o_13.mp4	0.0	235.21373295783997	0.48308515548706055
59	178.41527104377747	response	0	2		57.0	2.5	/experiments/knapen_aot/videos/R_S_yt-ol2u_-gd0-o_13.mp4	0.0	235.68866205215454	
59	178.42342710494995	movie	1		301.0	57.0	2.5	/experiments/knapen_aot/videos/R_S_yt-ol2u_-gd0-o_13.mp4	0.0	235.69681811332703	2.508382797241211
59	180.93180990219116	fix_post	2		12.0	57.0	2.5	/experiments/knapen_aot/videos/R_S_yt-ol2u_-gd0-o_13.mp4	0.0	238.20520091056824	0.10000014305114746
60	181.0318100452423	fix_pre	0		43.0	58.0	2.5	/experiments/knapen_aot/videos/S_yt-wqdTPz0bLrM_561.mp4	0.0	238.30520105361938	0.35915398597717285
60	181.38187098503113	response	0	2		58.0	2.5	/experiments/knapen_aot/videos/S_yt-wqdTPz0bLrM_561.mp4	0.0	238.6552619934082	
60	181.39096403121948	movie	1		301.0	58.0	2.5	/experiments/knapen_aot/videos/S_yt-wqdTPz0bLrM_561.mp4	0.0	238.66435503959656	2.5075318813323975
60	183.89849591255188	fix_post	2		12.0	58.0	2.5	/experiments/knapen_aot/videos/S_yt-wqdTPz0bLrM_561.mp4	0.0	241.17188692092896	0.09995603561401367
61	183.9984519481659	fix_pre	0		41.0	59.0	2.5	/experiments/knapen_aot/videos/R_S_g201_AK_A003_C014_SDR_20191113_SDR_2K_AVC.mp4	0.0	241.27184295654297	0.3415720462799072
61	184.33187198638916	response	0	2		59.0	2.5	/experiments/knapen_aot/videos/R_S_g201_AK_A003_C014_SDR_20191113_SDR_2K_AVC.mp4	0.0	241.60526299476624	
61	184.3400239944458	movie	1		163.0	59.0	2.5	/experiments/knapen_aot/videos/R_S_g201_AK_A003_C014_SDR_20191113_SDR_2K_AVC.mp4	0.0	241.61341500282288	2.508563995361328
61	186.84858798980713	fix_post	2		12.0	59.0	2.5	/experiments/knapen_aot/videos/R_S_g201_AK_A003_C014_SDR_20191113_SDR_2K_AVC.mp4	0.0	244.1219789981842	0.09986209869384766
62	186.94845008850098	fix_pre	0		60.0	60.0	2.5	/experiments/knapen_aot/videos/R_S_yt-n2PnABmSpxI_115.mp4	0.0	244.22184109687805	0.49989986419677734
62	187.44020891189575	response	0	2		60.0	2.5	/experiments/knapen_aot/videos/R_S_yt-n2PnABmSpxI_115.mp4	0.0	244.71359992027283	
62	187.44834995269775	movie	1		301.0	60.0	2.5	/experiments/knapen_aot/videos/R_S_yt-n2PnABmSpxI_115.mp4	0.0	244.72174096107483	2.508435010910034
62	189.9567849636078	fix_post	2		12.0	60.0	2.5	/experiments/knapen_aot/videos/R_S_yt-n2PnABmSpxI_115.mp4	0.0	247.23017597198486	0.09991908073425293
63	190.05670404434204	fix_pre	0		56.0	61.0	2.5	/experiments/knapen_aot/videos/R_S_yt-xqHrTtvFFIs_3.mp4	0.0	247.33009505271912	0.46668195724487305
63	190.5076630115509	response	0	2		61.0	2.5	/experiments/knapen_aot/videos/R_S_yt-xqHrTtvFFIs_3.mp4	0.0	247.78105401992798	
63	190.5233860015869	movie	1		301.0	61.0	2.5	/experiments/knapen_aot/videos/R_S_yt-xqHrTtvFFIs_3.mp4	0.0	247.796777009964	2.508543014526367
63	193.03192901611328	fix_post	2		12.0	61.0	2.5	/experiments/knapen_aot/videos/R_S_yt-xqHrTtvFFIs_3.mp4	0.0	250.30532002449036	0.09981608390808105
64	193.13174510002136	fix_pre	0		47.0	62.0	2.5	blank	1.0	250.40513610839844	0.3915879726409912
64	193.51524710655212	response	0	2		62.0	2.5	blank	1.0	250.7886381149292	
64	193.52333307266235	movie	1		301.0	62.0	2.5	blank	1.0	250.79672408103943	2.5085809230804443
64	196.0319139957428	fix_post	2		12.0	62.0	2.5	blank	1.0	253.30530500411987	0.09980106353759766
65	196.1317150592804	fix_pre	0		70.0	63.0	2.5	/experiments/knapen_aot/videos/S_yt-z16pdVTZK1o_3.mp4	0.0	253.40510606765747	0.5833008289337158
65	196.7067470550537	response	0	2		63.0	2.5	/experiments/knapen_aot/videos/S_yt-z16pdVTZK1o_3.mp4	0.0	253.9801380634308	
65	196.7150158882141	movie	1		301.0	63.0	2.5	/experiments/knapen_aot/videos/S_yt-z16pdVTZK1o_3.mp4	0.0	253.9884068965912	2.5083470344543457
65	199.22336292266846	fix_post	2		12.0	63.0	2.5	/experiments/knapen_aot/videos/S_yt-z16pdVTZK1o_3.mp4	0.0	256.49675393104553	0.10000801086425781
66	199.32337093353271	fix_pre	0		64.0	64.0	2.5	/experiments/knapen_aot/videos/S_yt-XBAU3cq0rZs_150.mp4	0.0	256.5967619419098	0.53324294090271
66	199.8486270904541	response	0	2		64.0	2.5	/experiments/knapen_aot/videos/S_yt-XBAU3cq0rZs_150.mp4	0.0	257.1220180988312	
66	199.85661387443542	movie	1		301.0	64.0	2.5	/experiments/knapen_aot/videos/S_yt-XBAU3cq0rZs_150.mp4	0.0	257.1300048828125	2.5083391666412354
66	202.36495304107666	fix_post	2		12.0	64.0	2.5	/experiments/knapen_aot/videos/S_yt-XBAU3cq0rZs_150.mp4	0.0	259.63834404945374	0.10007691383361816
67	202.46502995491028	fix_pre	0		60.0	65.0	2.5	/experiments/knapen_aot/videos/S_Pexels_Videos_278654_1.mp4	0.0	259.73842096328735	0.4999239444732666
67	202.956768989563	response	0	2		65.0	2.5	/experiments/knapen_aot/videos/S_Pexels_Videos_278654_1.mp4	0.0	260.23015999794006	
67	202.96495389938354	movie	1		166.0	65.0	2.5	/experiments/knapen_aot/videos/S_Pexels_Videos_278654_1.mp4	0.0	260.2383449077606	2.508369207382202
67	205.47332310676575	fix_post	2		12.0	65.0	2.5	/experiments/knapen_aot/videos/S_Pexels_Videos_278654_1.mp4	0.0	262.7467141151428	0.09992790222167969
68	205.57325100898743	fix_pre	0		61.0	66.0	2.5	/experiments/knapen_aot/videos/R_S_ILSVRC2015_train_00373000.mp4	0.0	262.8466420173645	0.5084378719329834
68	206.0734190940857	response	0	2		66.0	2.5	/experiments/knapen_aot/videos/R_S_ILSVRC2015_train_00373000.mp4	0.0	263.34681010246277	
68	206.0816888809204	movie	1		301.0	66.0	2.5	/experiments/knapen_aot/videos/R_S_ILSVRC2015_train_00373000.mp4	0.0	263.3550798892975	2.5083181858062744
68	208.59000706672668	fix_post	2		12.0	66.0	2.5	/experiments/knapen_aot/videos/R_S_ILSVRC2015_train_00373000.mp4	0.0	265.86339807510376	0.10003304481506348
69	208.69004011154175	fix_pre	0		47.0	67.0	2.5	/experiments/knapen_aot/videos/S_yt-DmlSN7mzczI_62.mp4	0.0	265.9634311199188	0.3916008472442627
69	209.07332611083984	response	0	2		67.0	2.5	/experiments/knapen_aot/videos/S_yt-DmlSN7mzczI_62.mp4	0.0	266.3467171192169	
69	209.081640958786	movie	1		301.0	67.0	2.5	/experiments/knapen_aot/videos/S_yt-DmlSN7mzczI_62.mp4	0.0	266.3550319671631	2.508350133895874
69	211.58999109268188	fix_post	2		12.0	67.0	2.5	/experiments/knapen_aot/videos/S_yt-DmlSN7mzczI_62.mp4	0.0	268.86338210105896	0.10003781318664551
70	211.69002890586853	fix_pre	0		47.0	68.0	2.5	/experiments/knapen_aot/videos/R_S_yt-rlEPywo5BEQ_36.mp4	0.0	268.9634199142456	0.39159703254699707
70	212.07339596748352	response	0	2		68.0	2.5	/experiments/knapen_aot/videos/R_S_yt-rlEPywo5BEQ_36.mp4	0.0	269.3467869758606	
70	212.08162593841553	movie	1		301.0	68.0	2.5	/experiments/knapen_aot/videos/R_S_yt-rlEPywo5BEQ_36.mp4	0.0	269.3550169467926	2.50826096534729
70	214.58988690376282	fix_post	2		12.0	68.0	2.5	/experiments/knapen_aot/videos/R_S_yt-rlEPywo5BEQ_36.mp4	0.0	271.8632779121399	0.10007715225219727
71	214.68996405601501	fix_pre	0		49.0	69.0	2.5	/experiments/knapen_aot/videos/R_S_WO9z7lBUvOs_151.mp4	0.0	271.9633550643921	0.4089930057525635
71	215.090087890625	response	0	2		69.0	2.5	/experiments/knapen_aot/videos/R_S_WO9z7lBUvOs_151.mp4	0.0	272.3634788990021	
71	215.09895706176758	movie	1		301.0	69.0	2.5	/experiments/knapen_aot/videos/R_S_WO9z7lBUvOs_151.mp4	0.0	272.37234807014465	2.5079338550567627
71	217.60689091682434	fix_post	2		12.0	69.0	2.5	/experiments/knapen_aot/videos/R_S_WO9z7lBUvOs_151.mp4	0.0	274.8802819252014	0.0998079776763916
72	217.70669889450073	fix_pre	0		52.0	70.0	2.5	blank	1.0	274.9800899028778	0.43390703201293945
72	218.1317548751831	response	0	2		70.0	2.5	blank	1.0	275.4051458835602	
72	218.14060592651367	movie	1		301.0	70.0	2.5	blank	1.0	275.41399693489075	2.507657051086426
72	220.6482629776001	fix_post	2		12.0	70.0	2.5	blank	1.0	277.9216539859772	0.10001397132873535
73	220.74827694892883	fix_pre	0		78.0	71.0	2.5	/experiments/knapen_aot/videos/R_S_yt-yPl8LcgSMjo_32.mp4	0.0	278.0216679573059	0.6499490737915039
73	221.39006400108337	response	0	2		71.0	2.5	/experiments/knapen_aot/videos/R_S_yt-yPl8LcgSMjo_32.mp4	0.0	278.66345500946045	
73	221.39822602272034	movie	1		301.0	71.0	2.5	/experiments/knapen_aot/videos/R_S_yt-yPl8LcgSMjo_32.mp4	0.0	278.6716170310974	2.5083770751953125
73	223.90660309791565	fix_post	2		12.0	71.0	2.5	/experiments/knapen_aot/videos/R_S_yt-yPl8LcgSMjo_32.mp4	0.0	281.1799941062927	0.0999598503112793
74	224.00656294822693	fix_pre	0		57.0	72.0	2.5	/experiments/knapen_aot/videos/R_S_yt-nMWqezngycw_10.mp4	0.0	281.279953956604	0.474931001663208
74	224.4733669757843	response	0	2		72.0	2.5	/experiments/knapen_aot/videos/R_S_yt-nMWqezngycw_10.mp4	0.0	281.7467579841614	
74	224.48149394989014	movie	1		301.0	72.0	2.5	/experiments/knapen_aot/videos/R_S_yt-nMWqezngycw_10.mp4	0.0	281.7548849582672	2.5085761547088623
74	226.990070104599	fix_post	2		12.0	72.0	2.5	/experiments/knapen_aot/videos/R_S_yt-nMWqezngycw_10.mp4	0.0	284.2634611129761	0.0998377799987793
75	227.08990788459778	fix_pre	0		78.0	73.0	2.5	/experiments/knapen_aot/videos/R_S_ILSVRC2015_train_00473000.mp4	0.0	284.36329889297485	0.6498911380767822
75	227.73167395591736	response	0	2		73.0	2.5	/experiments/knapen_aot/videos/R_S_ILSVRC2015_train_00473000.mp4	0.0	285.00506496429443	
75	227.73979902267456	movie	1		301.0	73.0	2.5	/experiments/knapen_aot/videos/R_S_ILSVRC2015_train_00473000.mp4	0.0	285.01319003105164	2.5083770751953125
75	230.24817609786987	fix_post	2		12.0	73.0	2.5	/experiments/knapen_aot/videos/R_S_ILSVRC2015_train_00473000.mp4	0.0	287.52156710624695	0.10009288787841797
76	230.3482689857483	fix_pre	0		81.0	74.0	2.5	/experiments/knapen_aot/videos/S_yt--C2DDZ7LOQA_95.mp4	0.0	287.62165999412537	0.6749210357666016
76	231.01498198509216	response	0	2		74.0	2.5	/experiments/knapen_aot/videos/S_yt--C2DDZ7LOQA_95.mp4	0.0	288.28837299346924	
76	231.0231900215149	movie	1		301.0	74.0	2.5	/experiments/knapen_aot/videos/S_yt--C2DDZ7LOQA_95.mp4	0.0	288.29658102989197	2.5085909366607666
76	233.53178095817566	fix_post	2		12.0	74.0	2.5	/experiments/knapen_aot/videos/S_yt--C2DDZ7LOQA_95.mp4	0.0	290.80517196655273	0.09986305236816406
77	233.63164401054382	fix_pre	0		64.0	75.0	2.5	/experiments/knapen_aot/videos/R_S_yt-HoRtvVuuvOs_5.mp4	0.0	290.9050350189209	0.5331940650939941
77	234.15667700767517	response	0	2		75.0	2.5	/experiments/knapen_aot/videos/R_S_yt-HoRtvVuuvOs_5.mp4	0.0	291.43006801605225	
77	234.16483807563782	movie	1		301.0	75.0	2.5	/experiments/knapen_aot/videos/R_S_yt-HoRtvVuuvOs_5.mp4	0.0	291.4382290840149	2.508464813232422
77	236.67330288887024	fix_post	2		12.0	75.0	2.5	/experiments/knapen_aot/videos/R_S_yt-HoRtvVuuvOs_5.mp4	0.0	293.9466938972473	0.09989809989929199
78	236.77320098876953	fix_pre	0		46.0	76.0	2.5	/experiments/knapen_aot/videos/S_yt-ILARvS15SDQ_741.mp4	0.0	294.0465919971466	0.3832590579986572
78	237.14833998680115	response	0	2		76.0	2.5	/experiments/knapen_aot/videos/S_yt-ILARvS15SDQ_741.mp4	0.0	294.4217309951782	
78	237.1564600467682	movie	1		301.0	76.0	2.5	/experiments/knapen_aot/videos/S_yt-ILARvS15SDQ_741.mp4	0.0	294.42985105514526	2.5084259510040283
78	239.66488599777222	fix_post	2		12.0	76.0	2.5	/experiments/knapen_aot/videos/S_yt-ILARvS15SDQ_741.mp4	0.0	296.9382770061493	0.10004711151123047
79	239.76493310928345	fix_pre	0		115.0	77.0	2.5	blank	1.0	297.0383241176605	0.9588057994842529
79	240.7149269580841	response	0	2		77.0	2.5	blank	1.0	297.9883179664612	
79	240.7237389087677	movie	1		301.0	77.0	2.5	blank	1.0	297.9971299171448	2.5077850818634033
79	243.2315239906311	fix_post	2		12.0	77.0	2.5	blank	1.0	300.5049149990082	0.09997701644897461
80	243.33150100708008	fix_pre	0		67.0	78.0	2.5	/experiments/knapen_aot/videos/R_S_pexels-rodnae-productions-5617905.mp4	0.0	300.60489201545715	0.5588369369506836
80	243.88164401054382	response	0	2		78.0	2.5	/experiments/knapen_aot/videos/R_S_pexels-rodnae-productions-5617905.mp4	0.0	301.1550350189209	
80	243.89033794403076	movie	1		167.0	78.0	2.5	/experiments/knapen_aot/videos/R_S_pexels-rodnae-productions-5617905.mp4	0.0	301.16372895240784	2.5078189373016357
80	246.3981568813324	fix_post	2		12.0	78.0	2.5	/experiments/knapen_aot/videos/R_S_pexels-rodnae-productions-5617905.mp4	0.0	303.6715478897095	0.09994101524353027
81	246.49809789657593	fix_pre	0		65.0	79.0	2.5	/experiments/knapen_aot/videos/R_S_yt-zlbtESb7Fcw_28.mp4	0.0	303.771488904953	0.5417940616607666
81	247.03157091140747	response	0	2		79.0	2.5	/experiments/knapen_aot/videos/R_S_yt-zlbtESb7Fcw_28.mp4	0.0	304.30496191978455	
81	247.0398919582367	movie	1		301.0	79.0	2.5	/experiments/knapen_aot/videos/R_S_yt-zlbtESb7Fcw_28.mp4	0.0	304.31328296661377	2.508242130279541
81	249.54813408851624	fix_post	2		12.0	79.0	2.5	/experiments/knapen_aot/videos/R_S_yt-zlbtESb7Fcw_28.mp4	0.0	306.8215250968933	0.09999680519104004
82	249.64813089370728	fix_pre	0		50.0	80.0	2.5	/experiments/knapen_aot/videos/R_S_yt-xNITUMXoU0g_9.mp4	0.0	306.92152190208435	0.41660618782043457
82	250.05661392211914	response	0	2		80.0	2.5	/experiments/knapen_aot/videos/R_S_yt-xNITUMXoU0g_9.mp4	0.0	307.3300049304962	
82	250.0647370815277	movie	1		301.0	80.0	2.5	/experiments/knapen_aot/videos/R_S_yt-xNITUMXoU0g_9.mp4	0.0	307.3381280899048	2.5084798336029053
82	252.57321691513062	fix_post	2		12.0	80.0	2.5	/experiments/knapen_aot/videos/R_S_yt-xNITUMXoU0g_9.mp4	0.0	309.8466079235077	0.09994316101074219
83	252.67316007614136	fix_pre	0		68.0	81.0	2.5	/experiments/knapen_aot/videos/S_yt-HwEfWfFJhRo_126.mp4	0.0	309.94655108451843	0.5665488243103027
83	253.23170495033264	response	0	2		81.0	2.5	/experiments/knapen_aot/videos/S_yt-HwEfWfFJhRo_126.mp4	0.0	310.5050959587097	
83	253.23970890045166	movie	1		301.0	81.0	2.5	/experiments/knapen_aot/videos/S_yt-HwEfWfFJhRo_126.mp4	0.0	310.51309990882874	2.508413076400757
83	255.74812197685242	fix_post	2		12.0	81.0	2.5	/experiments/knapen_aot/videos/S_yt-HwEfWfFJhRo_126.mp4	0.0	313.0215129852295	0.10009908676147461
84	255.8482210636139	fix_pre	0		62.0	82.0	2.5	/experiments/knapen_aot/videos/S_yt-Jro_TRE8NUQ_234.mp4	0.0	313.12161207199097	0.5165359973907471
84	256.34912610054016	response	0	2		82.0	2.5	/experiments/knapen_aot/videos/S_yt-Jro_TRE8NUQ_234.mp4	0.0	313.62251710891724	
84	256.36475706100464	movie	1		301.0	82.0	2.5	/experiments/knapen_aot/videos/S_yt-Jro_TRE8NUQ_234.mp4	0.0	313.6381480693817	2.5084660053253174
84	258.87322306632996	fix_post	2		12.0	82.0	2.5	/experiments/knapen_aot/videos/S_yt-Jro_TRE8NUQ_234.mp4	0.0	316.14661407470703	0.09988093376159668
85	258.97310400009155	fix_pre	0		56.0	83.0	2.5	blank	1.0	316.2464950084686	0.46672797203063965
85	259.4315218925476	response	0	2		83.0	2.5	blank	1.0	316.7049129009247	
85	259.4398319721222	movie	1		301.0	83.0	2.5	blank	1.0	316.71322298049927	2.508328914642334
85	261.9481608867645	fix_post	2		12.0	83.0	2.5	blank	1.0	319.2215518951416	0.10008502006530762
87	262.04824590682983	stim	0		161.0					319.3216369152069	1.3419060707092285
87	263.38503193855286	response	0	space						320.65842294692993	
