trial_nr	onset	event_type	phase	response	nr_frames	movie_index	movie_duration	movie_file	blank	onset_abs	duration
0	0.12162590026855469	stim	0		62.0					61.618592977523804	0.5171890258789062
0	0.6229300498962402	response	0	space						62.11989712715149	
1	0.6388149261474609	stim	0		121.0					62.13578200340271	1.007431983947754
1	1.0381629467010498	response	0	space						62.5351300239563	
1	1.2966408729553223	response	0	space						62.79360795021057	
1	1.571254014968872	response	0	space						63.06822109222412	
1	1.6462469100952148	stim	1		120.0					63.143213987350464	0.9998700618743896
1	1.8046410083770752	response	1	space						63.301608085632324	
1	2.0129568576812744	response	1	space						63.50992393493652	
1	2.312911033630371	response	1	space						63.80987811088562	
2	2.6461169719696045	fix_pre	0		13.0	0.0	2.5	/experiments/knapen_aot/videos/S_yt-aiwDdJm1ek8_90.mp4	0.0	64.14308404922485	0.10836100578308105
2	2.746304988861084	response	0	space		0.0	2.5	/experiments/knapen_aot/videos/S_yt-aiwDdJm1ek8_90.mp4	0.0	64.24327206611633	
2	2.7544779777526855	movie	1		301.0	0.0	2.5	/experiments/knapen_aot/videos/S_yt-aiwDdJm1ek8_90.mp4	0.0	64.25144505500793	2.5083210468292236
2	5.262799024581909	fix_post	2		12.0	0.0	2.5	/experiments/knapen_aot/videos/S_yt-aiwDdJm1ek8_90.mp4	0.0	66.75976610183716	0.10007381439208984
3	5.362872838973999	fix_pre	0		32.0	1.0	2.5	/experiments/knapen_aot/videos/R_S_yt-Ja7d2a6e5xE_279.mp4	0.0	66.85983991622925	0.2687191963195801
3	5.6241559982299805	response	0	2		1.0	2.5	/experiments/knapen_aot/videos/R_S_yt-Ja7d2a6e5xE_279.mp4	0.0	67.12112307548523	
3	5.631592035293579	movie	1		295.0	1.0	2.5	/experiments/knapen_aot/videos/R_S_yt-Ja7d2a6e5xE_279.mp4	0.0	67.12855911254883	2.5063729286193848
3	8.137964963912964	fix_post	2		12.0	1.0	2.5	/experiments/knapen_aot/videos/R_S_yt-Ja7d2a6e5xE_279.mp4	0.0	69.63493204116821	0.09989094734191895
4	8.237855911254883	fix_pre	0		28.0	2.0	2.5	/experiments/knapen_aot/videos/S_yt-YMI27rk5qUQ_117.mp4	0.0	69.73482298851013	0.23406696319580078
4	8.462910890579224	response	0	2		2.0	2.5	/experiments/knapen_aot/videos/S_yt-YMI27rk5qUQ_117.mp4	0.0	69.95987796783447	
4	8.471922874450684	movie	1		301.0	2.0	2.5	/experiments/knapen_aot/videos/S_yt-YMI27rk5qUQ_117.mp4	0.0	69.96888995170593	2.5076260566711426
4	10.979548931121826	fix_post	2		12.0	2.0	2.5	/experiments/knapen_aot/videos/S_yt-YMI27rk5qUQ_117.mp4	0.0	72.47651600837708	0.10005903244018555
5	11.079607963562012	fix_pre	0		26.0	3.0	2.5	/experiments/knapen_aot/videos/S_Y002_C013_SDR_2K_AVC.mp4	0.0	72.57657504081726	0.21651101112365723
5	11.287986993789673	response	0	2		3.0	2.5	/experiments/knapen_aot/videos/S_Y002_C013_SDR_2K_AVC.mp4	0.0	72.78495407104492	
5	11.296118974685669	movie	1		172.0	3.0	2.5	/experiments/knapen_aot/videos/S_Y002_C013_SDR_2K_AVC.mp4	0.0	72.79308605194092	2.5083110332489014
5	13.80443000793457	fix_post	2		12.0	3.0	2.5	/experiments/knapen_aot/videos/S_Y002_C013_SDR_2K_AVC.mp4	0.0	75.30139708518982	0.10024785995483398
6	13.904677867889404	fix_pre	0		17.0	4.0	2.5	/experiments/knapen_aot/videos/S_comp_LA_A006_C004_v01_SDR_FINAL_PS_20180730_SDR_2K_AVC.mp4	0.0	75.40164494514465	0.1414811611175537
6	14.037957906723022	response	0	2		4.0	2.5	/experiments/knapen_aot/videos/S_comp_LA_A006_C004_v01_SDR_FINAL_PS_20180730_SDR_2K_AVC.mp4	0.0	75.53492498397827	
6	14.046159029006958	movie	1		166.0	4.0	2.5	/experiments/knapen_aot/videos/S_comp_LA_A006_C004_v01_SDR_FINAL_PS_20180730_SDR_2K_AVC.mp4	0.0	75.5431261062622	2.5082848072052
6	16.554443836212158	fix_post	2		12.0	4.0	2.5	/experiments/knapen_aot/videos/S_comp_LA_A006_C004_v01_SDR_FINAL_PS_20180730_SDR_2K_AVC.mp4	0.0	78.05141091346741	0.10006403923034668
7	16.654507875442505	fix_pre	0		23.0	5.0	2.5	/experiments/knapen_aot/videos/R_S_yt-aTEGTeQuDWM_93.mp4	0.0	78.15147495269775	0.19232702255249023
7	16.83790683746338	response	0	2		5.0	2.5	/experiments/knapen_aot/videos/R_S_yt-aTEGTeQuDWM_93.mp4	0.0	78.33487391471863	
7	16.846834897994995	movie	1		301.0	5.0	2.5	/experiments/knapen_aot/videos/R_S_yt-aTEGTeQuDWM_93.mp4	0.0	78.34380197525024	2.5076370239257812
7	19.354471921920776	fix_post	2		12.0	5.0	2.5	/experiments/knapen_aot/videos/R_S_yt-aTEGTeQuDWM_93.mp4	0.0	80.85143899917603	0.10013604164123535
8	19.45460796356201	fix_pre	0		39.0	6.0	2.5	/experiments/knapen_aot/videos/S_yt-aSEKRE_FNaI_62.mp4	0.0	80.95157504081726	0.3247840404510498
8	19.763768911361694	response	0	2		6.0	2.5	/experiments/knapen_aot/videos/S_yt-aSEKRE_FNaI_62.mp4	0.0	81.26073598861694	
8	19.77939200401306	movie	1		301.0	6.0	2.5	/experiments/knapen_aot/videos/S_yt-aSEKRE_FNaI_62.mp4	0.0	81.27635908126831	2.508720874786377
8	22.28811287879944	fix_post	2		12.0	6.0	2.5	/experiments/knapen_aot/videos/S_yt-aSEKRE_FNaI_62.mp4	0.0	83.78507995605469	0.09967207908630371
9	22.387784957885742	fix_pre	0		24.0	7.0	2.5	blank	1.0	83.88475203514099	0.1999509334564209
9	22.579653024673462	response	0	2		7.0	2.5	blank	1.0	84.07662010192871	
9	22.587735891342163	movie	1		301.0	7.0	2.5	blank	1.0	84.08470296859741	2.5083539485931396
9	25.096089839935303	fix_post	2		12.0	7.0	2.5	blank	1.0	86.59305691719055	0.10013222694396973
10	25.196222066879272	fix_pre	0		42.0	8.0	2.5	/experiments/knapen_aot/videos/S_wc-sd8_iKx0t7s7_9.mp4	0.0	86.69318914413452	0.34985995292663574
10	25.537837982177734	response	0	2		8.0	2.5	/experiments/knapen_aot/videos/S_wc-sd8_iKx0t7s7_9.mp4	0.0	87.03480505943298	
10	25.546082019805908	movie	1		163.0	8.0	2.5	/experiments/knapen_aot/videos/S_wc-sd8_iKx0t7s7_9.mp4	0.0	87.04304909706116	2.508380889892578
10	28.054462909698486	fix_post	2		12.0	8.0	2.5	/experiments/knapen_aot/videos/S_wc-sd8_iKx0t7s7_9.mp4	0.0	89.55142998695374	0.09997797012329102
11	28.154440879821777	fix_pre	0		51.0	9.0	2.5	/experiments/knapen_aot/videos/S_comp_A103_C002_0205DG_v12_SDR_FINAL_20180706_SDR_2K_AVC.mp4	0.0	89.65140795707703	0.424968957901001
11	28.57128095626831	response	0	2		9.0	2.5	/experiments/knapen_aot/videos/S_comp_A103_C002_0205DG_v12_SDR_FINAL_20180706_SDR_2K_AVC.mp4	0.0	90.06824803352356	
11	28.57940983772278	movie	1		164.0	9.0	2.5	/experiments/knapen_aot/videos/S_comp_A103_C002_0205DG_v12_SDR_FINAL_20180706_SDR_2K_AVC.mp4	0.0	90.07637691497803	2.5084190368652344
11	31.087828874588013	fix_post	2		12.0	9.0	2.5	/experiments/knapen_aot/videos/S_comp_A103_C002_0205DG_v12_SDR_FINAL_20180706_SDR_2K_AVC.mp4	0.0	92.58479595184326	0.1000361442565918
12	31.187865018844604	fix_pre	0		36.0	10.0	2.5	/experiments/knapen_aot/videos/S_yt-QXsedpZh800_275.mp4	0.0	92.68483209609985	0.29996490478515625
12	31.479570865631104	response	0	2		10.0	2.5	/experiments/knapen_aot/videos/S_yt-QXsedpZh800_275.mp4	0.0	92.97653794288635	
12	31.48782992362976	movie	1		301.0	10.0	2.5	/experiments/knapen_aot/videos/S_yt-QXsedpZh800_275.mp4	0.0	92.98479700088501	2.5083141326904297
12	33.99614405632019	fix_post	2		12.0	10.0	2.5	/experiments/knapen_aot/videos/S_yt-QXsedpZh800_275.mp4	0.0	95.49311113357544	0.09986495971679688
13	34.09600901603699	fix_pre	0		45.0	11.0	2.5	/experiments/knapen_aot/videos/R_S_yt-54kx8P3L1ns_6.mp4	0.0	95.59297609329224	0.37560391426086426
13	34.46284484863281	response	0	2		11.0	2.5	/experiments/knapen_aot/videos/R_S_yt-54kx8P3L1ns_6.mp4	0.0	95.95981192588806	
13	34.47161293029785	movie	1		301.0	11.0	2.5	/experiments/knapen_aot/videos/R_S_yt-54kx8P3L1ns_6.mp4	0.0	95.9685800075531	2.5077569484710693
13	36.97936987876892	fix_post	2		12.0	11.0	2.5	/experiments/knapen_aot/videos/R_S_yt-54kx8P3L1ns_6.mp4	0.0	98.47633695602417	0.10004210472106934
14	37.07941198348999	fix_pre	0		28.0	12.0	2.5	/experiments/knapen_aot/videos/S_yt-NQSCGMpo-p8_118.mp4	0.0	98.57637906074524	0.23327994346618652
14	37.296942949295044	response	0	2		12.0	2.5	/experiments/knapen_aot/videos/S_yt-NQSCGMpo-p8_118.mp4	0.0	98.7939100265503	
14	37.31269192695618	movie	1		301.0	12.0	2.5	/experiments/knapen_aot/videos/S_yt-NQSCGMpo-p8_118.mp4	0.0	98.80965900421143	2.508358955383301
14	39.82105088233948	fix_post	2		12.0	12.0	2.5	/experiments/knapen_aot/videos/S_yt-NQSCGMpo-p8_118.mp4	0.0	101.31801795959473	0.09994316101074219
15	39.92099404335022	fix_pre	0		42.0	13.0	2.5	blank	1.0	101.41796112060547	0.35007691383361816
15	40.26284885406494	response	0	2		13.0	2.5	blank	1.0	101.75981593132019	
15	40.27107095718384	movie	1		301.0	13.0	2.5	blank	1.0	101.76803803443909	2.508280038833618
15	42.779350996017456	fix_post	2		12.0	13.0	2.5	blank	1.0	104.2763180732727	0.1000509262084961
16	42.87940192222595	fix_pre	0		26.0	14.0	2.5	/experiments/knapen_aot/videos/S_yt-MEfljVFL0xw_375.mp4	0.0	104.3763689994812	0.21712899208068848
16	43.087799072265625	response	0	2		14.0	2.5	/experiments/knapen_aot/videos/S_yt-MEfljVFL0xw_375.mp4	0.0	104.58476614952087	
16	43.09653091430664	movie	1		301.0	14.0	2.5	/experiments/knapen_aot/videos/S_yt-MEfljVFL0xw_375.mp4	0.0	104.59349799156189	2.5078330039978027
16	45.60436391830444	fix_post	2		12.0	14.0	2.5	/experiments/knapen_aot/videos/S_yt-MEfljVFL0xw_375.mp4	0.0	107.10133099555969	0.10018610954284668
17	45.70455002784729	fix_pre	0		34.0	15.0	2.5	/experiments/knapen_aot/videos/S_yt-QOnORDmVMyU_10.mp4	0.0	107.20151710510254	0.28312182426452637
17	45.97195506095886	response	0	2		15.0	2.5	/experiments/knapen_aot/videos/S_yt-QOnORDmVMyU_10.mp4	0.0	107.46892213821411	
17	45.987671852111816	movie	1		301.0	15.0	2.5	/experiments/knapen_aot/videos/S_yt-QOnORDmVMyU_10.mp4	0.0	107.48463892936707	2.5083630084991455
17	48.49603486061096	fix_post	2		12.0	15.0	2.5	/experiments/knapen_aot/videos/S_yt-QOnORDmVMyU_10.mp4	0.0	109.99300193786621	0.10001897811889648
18	48.59605383872986	fix_pre	0		40.0	16.0	2.5	/experiments/knapen_aot/videos/S_yt-QXsedpZh800_275.mp4	0.0	110.09302091598511	0.3337361812591553
18	48.921061992645264	response	0	2		16.0	2.5	/experiments/knapen_aot/videos/S_yt-QXsedpZh800_275.mp4	0.0	110.41802906990051	
18	48.929790019989014	movie	1		301.0	16.0	2.5	/experiments/knapen_aot/videos/S_yt-QXsedpZh800_275.mp4	0.0	110.42675709724426	2.507884979248047
18	51.43767499923706	fix_post	2		12.0	16.0	2.5	/experiments/knapen_aot/videos/S_yt-QXsedpZh800_275.mp4	0.0	112.93464207649231	0.10002493858337402
19	51.537699937820435	fix_pre	0		82.0	17.0	2.5	/experiments/knapen_aot/videos/R_S_g201_TH_803_A001_8_SDR_20191031_SDR_2K_AVC.mp4	0.0	113.03466701507568	0.6836979389190674
19	52.2128119468689	response	0	2		17.0	2.5	/experiments/knapen_aot/videos/R_S_g201_TH_803_A001_8_SDR_20191031_SDR_2K_AVC.mp4	0.0	113.70977902412415	
19	52.2213978767395	movie	1		166.0	17.0	2.5	/experiments/knapen_aot/videos/R_S_g201_TH_803_A001_8_SDR_20191031_SDR_2K_AVC.mp4	0.0	113.71836495399475	2.507848024368286
19	54.72924590110779	fix_post	2		12.0	17.0	2.5	/experiments/knapen_aot/videos/R_S_g201_TH_803_A001_8_SDR_20191031_SDR_2K_AVC.mp4	0.0	116.22621297836304	0.10014510154724121
20	54.82939100265503	fix_pre	0		206.0	18.0	2.5	/experiments/knapen_aot/videos/R_S_yt-54kx8P3L1ns_6.mp4	0.0	116.32635807991028	1.7165648937225342
20	56.53780698776245	response	0	2		18.0	2.5	/experiments/knapen_aot/videos/R_S_yt-54kx8P3L1ns_6.mp4	0.0	118.0347740650177	
20	56.54595589637756	movie	1		301.0	18.0	2.5	/experiments/knapen_aot/videos/R_S_yt-54kx8P3L1ns_6.mp4	0.0	118.04292297363281	2.5083539485931396
20	58.946040868759155	response	1	2		18.0	2.5	/experiments/knapen_aot/videos/R_S_yt-54kx8P3L1ns_6.mp4	0.0	120.4430079460144	
20	59.0543098449707	fix_post	2		12.0	18.0	2.5	/experiments/knapen_aot/videos/R_S_yt-54kx8P3L1ns_6.mp4	0.0	120.55127692222595	0.10009503364562988
21	59.15440487861633	fix_pre	0		351.0	19.0	2.5	blank	1.0	120.65137195587158	2.9247641563415527
21	62.0711350440979	response	0	2		19.0	2.5	blank	1.0	123.56810212135315	
21	62.079169034957886	movie	1		301.0	19.0	2.5	blank	1.0	123.57613611221313	2.5083868503570557
21	64.58755588531494	fix_post	2		12.0	19.0	2.5	blank	1.0	126.08452296257019	0.10007405281066895
22	64.68762993812561	fix_pre	0		82.0	20.0	2.5	/experiments/knapen_aot/videos/R_S_yt-PREz5XiiXg0_107.mp4	0.0	126.18459701538086	0.683337926864624
22	65.3627610206604	response	0	2		20.0	2.5	/experiments/knapen_aot/videos/R_S_yt-PREz5XiiXg0_107.mp4	0.0	126.85972809791565	
22	65.37096786499023	movie	1		301.0	20.0	2.5	/experiments/knapen_aot/videos/R_S_yt-PREz5XiiXg0_107.mp4	0.0	126.86793494224548	2.5083119869232178
22	67.87927985191345	fix_post	2		12.0	20.0	2.5	/experiments/knapen_aot/videos/R_S_yt-PREz5XiiXg0_107.mp4	0.0	129.3762469291687	0.10000109672546387
23	67.97928094863892	fix_pre	0		129.0	21.0	2.5	/experiments/knapen_aot/videos/R_S_yt-MWX0EtpWIs8_286.mp4	0.0	129.47624802589417	1.0754129886627197
23	69.04589986801147	response	0	2		21.0	2.5	/experiments/knapen_aot/videos/R_S_yt-MWX0EtpWIs8_286.mp4	0.0	130.54286694526672	
23	69.05469393730164	movie	1		301.0	21.0	2.5	/experiments/knapen_aot/videos/R_S_yt-MWX0EtpWIs8_286.mp4	0.0	130.55166101455688	2.5080199241638184
23	71.56271386146545	fix_post	2		12.0	21.0	2.5	/experiments/knapen_aot/videos/R_S_yt-MWX0EtpWIs8_286.mp4	0.0	133.0596809387207	0.09991312026977539
24	71.66262698173523	fix_pre	0		81.0	22.0	2.5	/experiments/knapen_aot/videos/R_S_yt-npaE4fe6A6Y_26.mp4	0.0	133.15959405899048	0.6749899387359619
24	72.32954287528992	response	0	2		22.0	2.5	/experiments/knapen_aot/videos/R_S_yt-npaE4fe6A6Y_26.mp4	0.0	133.82650995254517	
24	72.33761692047119	movie	1		300.0	22.0	2.5	/experiments/knapen_aot/videos/R_S_yt-npaE4fe6A6Y_26.mp4	0.0	133.83458399772644	2.5085220336914062
24	74.8461389541626	fix_post	2		12.0	22.0	2.5	/experiments/knapen_aot/videos/R_S_yt-npaE4fe6A6Y_26.mp4	0.0	136.34310603141785	0.09980106353759766
25	74.9459400177002	fix_pre	0		106.0	23.0	2.5	/experiments/knapen_aot/videos/S_yt-2y6A9DJPsDU_65.mp4	0.0	136.44290709495544	0.8833229541778564
25	75.82108902931213	response	0	2		23.0	2.5	/experiments/knapen_aot/videos/S_yt-2y6A9DJPsDU_65.mp4	0.0	137.31805610656738	
25	75.82926297187805	movie	1		301.0	23.0	2.5	/experiments/knapen_aot/videos/S_yt-2y6A9DJPsDU_65.mp4	0.0	137.3262300491333	2.5083439350128174
25	78.33760690689087	fix_post	2		12.0	23.0	2.5	/experiments/knapen_aot/videos/S_yt-2y6A9DJPsDU_65.mp4	0.0	139.83457398414612	0.09996414184570312
26	78.43757104873657	fix_pre	0		140.0	24.0	2.5	/experiments/knapen_aot/videos/R_S_yt-BiBS8EO5GPc_4.mp4	0.0	139.93453812599182	1.1667089462280273
26	79.59604692459106	response	0	2		24.0	2.5	/experiments/knapen_aot/videos/R_S_yt-BiBS8EO5GPc_4.mp4	0.0	141.0930140018463	
26	79.6042799949646	movie	1		301.0	24.0	2.5	/experiments/knapen_aot/videos/R_S_yt-BiBS8EO5GPc_4.mp4	0.0	141.10124707221985	2.508331060409546
26	82.11261105537415	fix_post	2		12.0	24.0	2.5	/experiments/knapen_aot/videos/R_S_yt-BiBS8EO5GPc_4.mp4	0.0	143.6095781326294	0.10012578964233398
27	82.21273684501648	fix_pre	0		43.0	25.0	2.5	/experiments/knapen_aot/videos/R_S_ILSVRC2015_train_00569003.mp4	0.0	143.70970392227173	0.3581690788269043
27	82.5627110004425	response	0	2		25.0	2.5	/experiments/knapen_aot/videos/R_S_ILSVRC2015_train_00569003.mp4	0.0	144.05967807769775	
27	82.57090592384338	movie	1		301.0	25.0	2.5	/experiments/knapen_aot/videos/R_S_ILSVRC2015_train_00569003.mp4	0.0	144.06787300109863	2.5083649158477783
27	85.07927083969116	fix_post	2		12.0	25.0	2.5	/experiments/knapen_aot/videos/R_S_ILSVRC2015_train_00569003.mp4	0.0	146.5762379169464	0.10024619102478027
28	85.17951703071594	fix_pre	0		200.0	26.0	2.5	/experiments/knapen_aot/videos/R_S_yt-2l6VKd94eAI_151.mp4	0.0	146.6764841079712	1.6665568351745605
28	86.830069065094	response	0	2		26.0	2.5	/experiments/knapen_aot/videos/R_S_yt-2l6VKd94eAI_151.mp4	0.0	148.32703614234924	
28	86.8460738658905	movie	1		301.0	26.0	2.5	/experiments/knapen_aot/videos/R_S_yt-2l6VKd94eAI_151.mp4	0.0	148.34304094314575	2.5081441402435303
28	89.35421800613403	fix_post	2		12.0	26.0	2.5	/experiments/knapen_aot/videos/R_S_yt-2l6VKd94eAI_151.mp4	0.0	150.85118508338928	0.09993696212768555
29	89.45415496826172	fix_pre	0		48.0	27.0	2.5	blank	1.0	150.95112204551697	0.40000104904174805
29	89.84598994255066	response	0	2		27.0	2.5	blank	1.0	151.3429570198059	
29	89.85415601730347	movie	1		301.0	27.0	2.5	blank	1.0	151.35112309455872	2.5082850456237793
29	92.36244106292725	fix_post	2		12.0	27.0	2.5	blank	1.0	153.8594081401825	0.1000518798828125
30	92.46249294281006	fix_pre	0		265.0	28.0	2.5	/experiments/knapen_aot/videos/R_S_yt-aSEKRE_FNaI_62.mp4	0.0	153.9594600200653	2.2082619667053223
30	94.65511202812195	response	0	2		28.0	2.5	/experiments/knapen_aot/videos/R_S_yt-aSEKRE_FNaI_62.mp4	0.0	156.1520791053772	
30	94.67075490951538	movie	1		301.0	28.0	2.5	/experiments/knapen_aot/videos/R_S_yt-aSEKRE_FNaI_62.mp4	0.0	156.16772198677063	2.5083401203155518
30	97.17909502983093	fix_post	2		12.0	28.0	2.5	/experiments/knapen_aot/videos/R_S_yt-aSEKRE_FNaI_62.mp4	0.0	158.67606210708618	0.10002398490905762
31	97.27911901473999	fix_pre	0		597.0	29.0	2.5	/experiments/knapen_aot/videos/S_yt-3V8US8ZD3NU_229.mp4	0.0	158.77608609199524	4.974891901016235
31	102.24584102630615	response	0	2		29.0	2.5	/experiments/knapen_aot/videos/S_yt-3V8US8ZD3NU_229.mp4	0.0	163.7428081035614	
31	102.25401091575623	movie	1		301.0	29.0	2.5	/experiments/knapen_aot/videos/S_yt-3V8US8ZD3NU_229.mp4	0.0	163.75097799301147	2.508435010910034
31	104.76244592666626	fix_post	2		12.0	29.0	2.5	/experiments/knapen_aot/videos/S_yt-3V8US8ZD3NU_229.mp4	0.0	166.2594130039215	0.10003805160522461
32	104.86248397827148	fix_pre	0		37.0	30.0	2.5	/experiments/knapen_aot/videos/S_b2-4.mp4	0.0	166.35945105552673	0.30828309059143066
32	105.16256904602051	response	0	2		30.0	2.5	/experiments/knapen_aot/videos/S_b2-4.mp4	0.0	166.65953612327576	
32	105.17076706886292	movie	1		163.0	30.0	2.5	/experiments/knapen_aot/videos/S_b2-4.mp4	0.0	166.66773414611816	2.5085608959198
32	107.67932796478271	fix_post	2		12.0	30.0	2.5	/experiments/knapen_aot/videos/S_b2-4.mp4	0.0	169.17629504203796	0.09978008270263672
33	107.77910804748535	fix_pre	0		67.0	31.0	2.5	/experiments/knapen_aot/videos/R_S_comp_LA_A006_C004_v01_SDR_FINAL_PS_20180730_SDR_2K_AVC.mp4	0.0	169.2760751247406	0.5582928657531738
33	108.32923889160156	response	0	2		31.0	2.5	/experiments/knapen_aot/videos/R_S_comp_LA_A006_C004_v01_SDR_FINAL_PS_20180730_SDR_2K_AVC.mp4	0.0	169.8262059688568	
33	108.33740091323853	movie	1		167.0	31.0	2.5	/experiments/knapen_aot/videos/R_S_comp_LA_A006_C004_v01_SDR_FINAL_PS_20180730_SDR_2K_AVC.mp4	0.0	169.83436799049377	2.508584976196289
33	110.84598588943481	fix_post	2		12.0	31.0	2.5	/experiments/knapen_aot/videos/R_S_comp_LA_A006_C004_v01_SDR_FINAL_PS_20180730_SDR_2K_AVC.mp4	0.0	172.34295296669006	0.09974098205566406
34	110.94572687149048	fix_pre	0		128.0	32.0	2.5	/experiments/knapen_aot/videos/S_yt-o0Hbe7kcPps_70.mp4	0.0	172.44269394874573	1.0667731761932373
34	112.00422501564026	response	0	2		32.0	2.5	/experiments/knapen_aot/videos/S_yt-o0Hbe7kcPps_70.mp4	0.0	173.5011920928955	
34	112.01250004768372	movie	1		301.0	32.0	2.5	/experiments/knapen_aot/videos/S_yt-o0Hbe7kcPps_70.mp4	0.0	173.50946712493896	2.508236885070801
34	114.52073693275452	fix_post	2		12.0	32.0	2.5	/experiments/knapen_aot/videos/S_yt-o0Hbe7kcPps_70.mp4	0.0	176.01770401000977	0.1000819206237793
35	114.6208188533783	fix_pre	0		95.0	33.0	2.5	/experiments/knapen_aot/videos/S_comp_GMT110_112NC_364D_1054_AURORA_ANTARTICA__COMP_FINAL_v34_PS_SDR_20181107_SDR_2K_AVC.mp4	0.0	176.11778593063354	0.7915890216827393
35	115.4041919708252	response	0	2		33.0	2.5	/experiments/knapen_aot/videos/S_comp_GMT110_112NC_364D_1054_AURORA_ANTARTICA__COMP_FINAL_v34_PS_SDR_20181107_SDR_2K_AVC.mp4	0.0	176.90115904808044	
35	115.41240787506104	movie	1		162.0	33.0	2.5	/experiments/knapen_aot/videos/S_comp_GMT110_112NC_364D_1054_AURORA_ANTARTICA__COMP_FINAL_v34_PS_SDR_20181107_SDR_2K_AVC.mp4	0.0	176.90937495231628	2.508310079574585
35	117.92071795463562	fix_post	2		12.0	33.0	2.5	/experiments/knapen_aot/videos/S_comp_GMT110_112NC_364D_1054_AURORA_ANTARTICA__COMP_FINAL_v34_PS_SDR_20181107_SDR_2K_AVC.mp4	0.0	179.41768503189087	0.0999760627746582
36	118.02069401741028	fix_pre	0		44.0	34.0	2.5	blank	1.0	179.51766109466553	0.3667938709259033
36	118.37914991378784	response	0	2		34.0	2.5	blank	1.0	179.8761169910431	
36	118.38748788833618	movie	1		301.0	34.0	2.5	blank	1.0	179.88445496559143	2.508258104324341
36	120.32911086082458	response	1	2		34.0	2.5	blank	1.0	181.82607793807983	
36	120.89574599266052	fix_post	2		12.0	34.0	2.5	blank	1.0	182.39271306991577	0.10016489028930664
37	120.99591088294983	fix_pre	0		31.0	35.0	2.5	/experiments/knapen_aot/videos/S_yt-KK6fVRAMm-c_476.mp4	0.0	182.49287796020508	0.2581021785736084
37	121.24578404426575	response	0	2		35.0	2.5	/experiments/knapen_aot/videos/S_yt-KK6fVRAMm-c_476.mp4	0.0	182.742751121521	
37	121.25401306152344	movie	1		301.0	35.0	2.5	/experiments/knapen_aot/videos/S_yt-KK6fVRAMm-c_476.mp4	0.0	182.7509801387787	2.5086889266967773
37	123.76270198822021	fix_post	2		12.0	35.0	2.5	/experiments/knapen_aot/videos/S_yt-KK6fVRAMm-c_476.mp4	0.0	185.25966906547546	0.09971189498901367
38	123.86241388320923	fix_pre	0		43.0	36.0	2.5	/experiments/knapen_aot/videos/S_ILSVRC2015_train_00363000.mp4	0.0	185.35938096046448	0.3583071231842041
38	124.21245002746582	response	0	2		36.0	2.5	/experiments/knapen_aot/videos/S_ILSVRC2015_train_00363000.mp4	0.0	185.70941710472107	
38	124.22072100639343	movie	1		301.0	36.0	2.5	/experiments/knapen_aot/videos/S_ILSVRC2015_train_00363000.mp4	0.0	185.71768808364868	2.508323907852173
38	126.57913994789124	response	1	2		36.0	2.5	/experiments/knapen_aot/videos/S_ILSVRC2015_train_00363000.mp4	0.0	188.07610702514648	
38	126.7290449142456	fix_post	2		12.0	36.0	2.5	/experiments/knapen_aot/videos/S_ILSVRC2015_train_00363000.mp4	0.0	188.22601199150085	0.09998202323913574
39	126.82902693748474	fix_pre	0		48.0	37.0	2.5	/experiments/knapen_aot/videos/R_S_yt-K0CzoUy_uIA_22.mp4	0.0	188.32599401474	0.3999440670013428
39	127.22076487541199	response	0	2		37.0	2.5	/experiments/knapen_aot/videos/R_S_yt-K0CzoUy_uIA_22.mp4	0.0	188.71773195266724	
39	127.22897100448608	movie	1		301.0	37.0	2.5	/experiments/knapen_aot/videos/R_S_yt-K0CzoUy_uIA_22.mp4	0.0	188.72593808174133	2.5085959434509277
39	129.737566947937	fix_post	2		12.0	37.0	2.5	/experiments/knapen_aot/videos/R_S_yt-K0CzoUy_uIA_22.mp4	0.0	191.23453402519226	0.09979009628295898
40	129.83735704421997	fix_pre	0		31.0	38.0	2.5	/experiments/knapen_aot/videos/R_S_ILSVRC2015_train_00278004.mp4	0.0	191.33432412147522	0.258314847946167
40	130.08744096755981	response	0	2		38.0	2.5	/experiments/knapen_aot/videos/R_S_ILSVRC2015_train_00278004.mp4	0.0	191.58440804481506	
40	130.09567189216614	movie	1		301.0	38.0	2.5	/experiments/knapen_aot/videos/R_S_ILSVRC2015_train_00278004.mp4	0.0	191.5926389694214	2.5083391666412354
40	132.60401105880737	fix_post	2		12.0	38.0	2.5	/experiments/knapen_aot/videos/R_S_ILSVRC2015_train_00278004.mp4	0.0	194.10097813606262	0.10002994537353516
41	132.7040410041809	fix_pre	0		44.0	39.0	2.5	/experiments/knapen_aot/videos/S_yt-ayx4rU9bJrU_179.mp4	0.0	194.20100808143616	0.3666360378265381
41	133.06244206428528	response	0	2		39.0	2.5	/experiments/knapen_aot/videos/S_yt-ayx4rU9bJrU_179.mp4	0.0	194.55940914154053	
41	133.07067704200745	movie	1		301.0	39.0	2.5	/experiments/knapen_aot/videos/S_yt-ayx4rU9bJrU_179.mp4	0.0	194.5676441192627	2.5083420276641846
41	135.57901906967163	fix_post	2		12.0	39.0	2.5	/experiments/knapen_aot/videos/S_yt-ayx4rU9bJrU_179.mp4	0.0	197.07598614692688	0.10006594657897949
42	135.6790850162506	fix_pre	0		59.0	40.0	2.5	/experiments/knapen_aot/videos/S_I003_C011_SDR_2K_AVC.mp4	0.0	197.17605209350586	0.4929518699645996
42	136.16238403320312	response	0	2		40.0	2.5	/experiments/knapen_aot/videos/S_I003_C011_SDR_2K_AVC.mp4	0.0	197.65935111045837	
42	136.1720368862152	movie	1		169.0	40.0	2.5	/experiments/knapen_aot/videos/S_I003_C011_SDR_2K_AVC.mp4	0.0	197.66900396347046	2.507073163986206
42	138.67911005020142	fix_post	2		12.0	40.0	2.5	/experiments/knapen_aot/videos/S_I003_C011_SDR_2K_AVC.mp4	0.0	200.17607712745667	0.0998528003692627
43	138.77896285057068	fix_pre	0		44.0	41.0	2.5	blank	1.0	200.27592992782593	0.3667001724243164
43	139.1374409198761	response	0	2		41.0	2.5	blank	1.0	200.63440799713135	
43	139.145663022995	movie	1		301.0	41.0	2.5	blank	1.0	200.64263010025024	2.5083019733428955
43	140.62906002998352	response	1	2		41.0	2.5	blank	1.0	202.12602710723877	
43	141.1040539741516	response	1	2		41.0	2.5	blank	1.0	202.60102105140686	
43	141.6539649963379	fix_post	2		12.0	41.0	2.5	blank	1.0	203.15093207359314	0.1000218391418457
44	141.75398683547974	fix_pre	0		58.0	42.0	2.5	/experiments/knapen_aot/videos/S_ILSVRC2015_train_00165008.mp4	0.0	203.25095391273499	0.4833080768585205
44	142.22908687591553	response	0	2		42.0	2.5	/experiments/knapen_aot/videos/S_ILSVRC2015_train_00165008.mp4	0.0	203.72605395317078	
44	142.23729491233826	movie	1		301.0	42.0	2.5	/experiments/knapen_aot/videos/S_ILSVRC2015_train_00165008.mp4	0.0	203.7342619895935	2.508324146270752
44	144.745619058609	fix_post	2		12.0	42.0	2.5	/experiments/knapen_aot/videos/S_ILSVRC2015_train_00165008.mp4	0.0	206.24258613586426	0.09996390342712402
45	144.84558296203613	fix_pre	0		64.0	43.0	2.5	/experiments/knapen_aot/videos/S_ILSVRC2015_train_00418004.mp4	0.0	206.34255003929138	0.5333280563354492
45	145.37070989608765	response	0	2		43.0	2.5	/experiments/knapen_aot/videos/S_ILSVRC2015_train_00418004.mp4	0.0	206.8676769733429	
45	145.37891101837158	movie	1		301.0	43.0	2.5	/experiments/knapen_aot/videos/S_ILSVRC2015_train_00418004.mp4	0.0	206.87587809562683	2.508344888687134
45	147.88725590705872	fix_post	2		12.0	43.0	2.5	/experiments/knapen_aot/videos/S_ILSVRC2015_train_00418004.mp4	0.0	209.38422298431396	0.10003900527954102
46	147.98729491233826	fix_pre	0		39.0	44.0	2.5	/experiments/knapen_aot/videos/S_bing-www_break_com_video_like-a-cat-catching-a-fly-3131008_12.mp4	0.0	209.4842619895935	0.32492804527282715
46	148.30411887168884	response	0	2		44.0	2.5	/experiments/knapen_aot/videos/S_bing-www_break_com_video_like-a-cat-catching-a-fly-3131008_12.mp4	0.0	209.8010859489441	
46	148.31222295761108	movie	1		301.0	44.0	2.5	/experiments/knapen_aot/videos/S_bing-www_break_com_video_like-a-cat-catching-a-fly-3131008_12.mp4	0.0	209.80919003486633	2.508455991744995
46	150.82067894935608	fix_post	2		12.0	44.0	2.5	/experiments/knapen_aot/videos/S_bing-www_break_com_video_like-a-cat-catching-a-fly-3131008_12.mp4	0.0	212.31764602661133	0.09994292259216309
47	150.92062187194824	fix_pre	0		7.0	45.0	2.5	/experiments/knapen_aot/videos/S_yt-mmvWYAttrIw_2.mp4	0.0	212.4175889492035	0.05828404426574707
47	150.97074699401855	response	0	2		45.0	2.5	/experiments/knapen_aot/videos/S_yt-mmvWYAttrIw_2.mp4	0.0	212.4677140712738	
47	150.978905916214	movie	1		301.0	45.0	2.5	/experiments/knapen_aot/videos/S_yt-mmvWYAttrIw_2.mp4	0.0	212.47587299346924	2.5083720684051514
47	153.48727798461914	fix_post	2		12.0	45.0	2.5	/experiments/knapen_aot/videos/S_yt-mmvWYAttrIw_2.mp4	0.0	214.9842450618744	0.09997296333312988
48	153.58725094795227	fix_pre	0		86.0	46.0	2.5	/experiments/knapen_aot/videos/S_ILSVRC2015_train_00415007.mp4	0.0	215.08421802520752	0.7166409492492676
48	154.2956280708313	response	0	2		46.0	2.5	/experiments/knapen_aot/videos/S_ILSVRC2015_train_00415007.mp4	0.0	215.79259514808655	
48	154.30389189720154	movie	1		301.0	46.0	2.5	/experiments/knapen_aot/videos/S_ILSVRC2015_train_00415007.mp4	0.0	215.8008589744568	2.5083601474761963
48	156.81225204467773	fix_post	2		12.0	46.0	2.5	/experiments/knapen_aot/videos/S_ILSVRC2015_train_00415007.mp4	0.0	218.30921912193298	0.09995579719543457
49	156.91220784187317	fix_pre	0		107.0	47.0	2.5	/experiments/knapen_aot/videos/S_yt-deiWoIfK6vg_44.mp4	0.0	218.40917491912842	0.8916480541229248
49	157.79560899734497	response	0	2		47.0	2.5	/experiments/knapen_aot/videos/S_yt-deiWoIfK6vg_44.mp4	0.0	219.29257607460022	
49	157.8038558959961	movie	1		301.0	47.0	2.5	/experiments/knapen_aot/videos/S_yt-deiWoIfK6vg_44.mp4	0.0	219.30082297325134	2.5084381103515625
49	160.31229400634766	fix_post	2		12.0	47.0	2.5	/experiments/knapen_aot/videos/S_yt-deiWoIfK6vg_44.mp4	0.0	221.8092610836029	0.0999610424041748
50	160.41225504875183	fix_pre	0		127.0	48.0	2.5	/experiments/knapen_aot/videos/R_S_yt-GWOOQZ19-oU_331.mp4	0.0	221.90922212600708	1.0582458972930908
50	161.46236300468445	response	0	2		48.0	2.5	/experiments/knapen_aot/videos/R_S_yt-GWOOQZ19-oU_331.mp4	0.0	222.9593300819397	
50	161.47050094604492	movie	1		301.0	48.0	2.5	/experiments/knapen_aot/videos/R_S_yt-GWOOQZ19-oU_331.mp4	0.0	222.96746802330017	2.508415937423706
50	163.97891688346863	fix_post	2		12.0	48.0	2.5	/experiments/knapen_aot/videos/R_S_yt-GWOOQZ19-oU_331.mp4	0.0	225.47588396072388	0.09997105598449707
51	164.07888793945312	fix_pre	0		33.0	49.0	2.5	blank	1.0	225.57585501670837	0.2749800682067871
51	164.34578490257263	response	0	2		49.0	2.5	blank	1.0	225.84275197982788	
51	164.3538680076599	movie	1		301.0	49.0	2.5	blank	1.0	225.85083508491516	2.5083038806915283
51	166.86217188835144	fix_post	2		12.0	49.0	2.5	blank	1.0	228.3591389656067	0.10001397132873535
52	166.96218585968018	fix_pre	0		53.0	50.0	2.5	/experiments/knapen_aot/videos/R_S_flickr-claywakening-27928940166_2.mp4	0.0	228.45915293693542	0.4416921138763428
52	167.39563584327698	response	0	2		50.0	2.5	/experiments/knapen_aot/videos/R_S_flickr-claywakening-27928940166_2.mp4	0.0	228.89260292053223	
52	167.40387797355652	movie	1		174.0	50.0	2.5	/experiments/knapen_aot/videos/R_S_flickr-claywakening-27928940166_2.mp4	0.0	228.90084505081177	2.508333921432495
52	169.912211894989	fix_post	2		12.0	50.0	2.5	/experiments/knapen_aot/videos/R_S_flickr-claywakening-27928940166_2.mp4	0.0	231.40917897224426	0.099945068359375
53	170.0121569633484	fix_pre	0		60.0	51.0	2.5	/experiments/knapen_aot/videos/S_yt-7W50lcw5FCo_37.mp4	0.0	231.50912404060364	0.4999520778656006
53	170.50533890724182	response	0	2		51.0	2.5	/experiments/knapen_aot/videos/S_yt-7W50lcw5FCo_37.mp4	0.0	232.00230598449707	
53	170.512109041214	movie	1		301.0	51.0	2.5	/experiments/knapen_aot/videos/S_yt-7W50lcw5FCo_37.mp4	0.0	232.00907611846924	2.508453845977783
53	173.02056288719177	fix_post	2		12.0	51.0	2.5	/experiments/knapen_aot/videos/S_yt-7W50lcw5FCo_37.mp4	0.0	234.51752996444702	0.09999799728393555
54	173.1205608844757	fix_pre	0		40.0	52.0	2.5	/experiments/knapen_aot/videos/S_yt-5doJmCcFL7s_3.mp4	0.0	234.61752796173096	0.33328700065612793
54	173.44565105438232	response	0	2		52.0	2.5	/experiments/knapen_aot/videos/S_yt-5doJmCcFL7s_3.mp4	0.0	234.94261813163757	
54	173.45384788513184	movie	1		301.0	52.0	2.5	/experiments/knapen_aot/videos/S_yt-5doJmCcFL7s_3.mp4	0.0	234.95081496238708	2.508392095565796
54	175.96223998069763	fix_post	2		12.0	52.0	2.5	/experiments/knapen_aot/videos/S_yt-5doJmCcFL7s_3.mp4	0.0	237.45920705795288	0.10014104843139648
55	176.06238102912903	fix_pre	0		62.0	53.0	2.5	/experiments/knapen_aot/videos/S_yt-alGXD2Drh_g_19.mp4	0.0	237.55934810638428	0.5164458751678467
55	176.57068395614624	response	0	2		53.0	2.5	/experiments/knapen_aot/videos/S_yt-alGXD2Drh_g_19.mp4	0.0	238.0676510334015	
55	176.57882690429688	movie	1		301.0	53.0	2.5	/experiments/knapen_aot/videos/S_yt-alGXD2Drh_g_19.mp4	0.0	238.07579398155212	2.508378028869629
55	179.0872049331665	fix_post	2		12.0	53.0	2.5	/experiments/knapen_aot/videos/S_yt-alGXD2Drh_g_19.mp4	0.0	240.58417201042175	0.1000070571899414
56	179.18721199035645	fix_pre	0		60.0	54.0	2.5	/experiments/knapen_aot/videos/S_production_ID_4121250.mp4	0.0	240.6841790676117	0.49994492530822754
56	179.67903685569763	response	0	2		54.0	2.5	/experiments/knapen_aot/videos/S_production_ID_4121250.mp4	0.0	241.17600393295288	
56	179.68715691566467	movie	1		164.0	54.0	2.5	/experiments/knapen_aot/videos/S_production_ID_4121250.mp4	0.0	241.18412399291992	2.5084450244903564
56	182.19560194015503	fix_post	2		12.0	54.0	2.5	/experiments/knapen_aot/videos/S_production_ID_4121250.mp4	0.0	243.69256901741028	0.0999000072479248
57	182.29550194740295	fix_pre	0		65.0	55.0	2.5	blank	1.0	243.7924690246582	0.5428669452667236
57	182.82901096343994	response	0	2		55.0	2.5	blank	1.0	244.3259780406952	
57	182.83836889266968	movie	1		301.0	55.0	2.5	blank	1.0	244.33533596992493	2.5071310997009277
57	185.08721590042114	response	1	2		55.0	2.5	blank	1.0	246.5841829776764	
57	185.3454999923706	fix_post	2		12.0	55.0	2.5	blank	1.0	246.84246706962585	0.09995484352111816
58	185.44545483589172	fix_pre	0		333.0	56.0	2.5	/experiments/knapen_aot/videos/R_S_wc-1MzpHfRq1MUK_32.mp4	0.0	246.94242191314697	2.7749340534210205
58	188.21211791038513	response	0	2		56.0	2.5	/experiments/knapen_aot/videos/R_S_wc-1MzpHfRq1MUK_32.mp4	0.0	249.70908498764038	
58	188.22038888931274	movie	1		301.0	56.0	2.5	/experiments/knapen_aot/videos/R_S_wc-1MzpHfRq1MUK_32.mp4	0.0	249.717355966568	2.5084409713745117
58	190.72882986068726	fix_post	2		12.0	56.0	2.5	/experiments/knapen_aot/videos/R_S_wc-1MzpHfRq1MUK_32.mp4	0.0	252.2257969379425	0.09997916221618652
59	190.82880902290344	fix_pre	0		91.0	57.0	2.5	/experiments/knapen_aot/videos/S_production_ID_4820868.mp4	0.0	252.3257761001587	0.7593588829040527
59	191.57134795188904	response	0	2		57.0	2.5	/experiments/knapen_aot/videos/S_production_ID_4820868.mp4	0.0	253.0683150291443	
59	191.5881679058075	movie	1		165.0	57.0	2.5	/experiments/knapen_aot/videos/S_production_ID_4820868.mp4	0.0	253.08513498306274	2.5073680877685547
59	194.09553599357605	fix_post	2		12.0	57.0	2.5	/experiments/knapen_aot/videos/S_production_ID_4820868.mp4	0.0	255.5925030708313	0.09990787506103516
60	194.19544386863708	fix_pre	0		55.0	58.0	2.5	/experiments/knapen_aot/videos/R_S_yt-1UFhynm5g6Y_266.mp4	0.0	255.69241094589233	0.45824408531188965
60	194.64554405212402	response	0	2		58.0	2.5	/experiments/knapen_aot/videos/R_S_yt-1UFhynm5g6Y_266.mp4	0.0	256.1425111293793	
60	194.65368795394897	movie	1		301.0	58.0	2.5	/experiments/knapen_aot/videos/R_S_yt-1UFhynm5g6Y_266.mp4	0.0	256.1506550312042	2.508373975753784
60	197.16206192970276	fix_post	2		12.0	58.0	2.5	/experiments/knapen_aot/videos/R_S_yt-1UFhynm5g6Y_266.mp4	0.0	258.659029006958	0.10000109672546387
61	197.26206302642822	fix_pre	0		156.0	59.0	2.5	/experiments/knapen_aot/videos/S_ILSVRC2015_train_00363000.mp4	0.0	258.7590301036835	1.2999539375305176
61	198.5464210510254	response	0	2		59.0	2.5	/experiments/knapen_aot/videos/S_ILSVRC2015_train_00363000.mp4	0.0	260.04338812828064	
61	198.56201696395874	movie	1		301.0	59.0	2.5	/experiments/knapen_aot/videos/S_ILSVRC2015_train_00363000.mp4	0.0	260.058984041214	2.5086190700531006
61	201.07063603401184	fix_post	2		12.0	59.0	2.5	/experiments/knapen_aot/videos/S_ILSVRC2015_train_00363000.mp4	0.0	262.5676031112671	0.09990596771240234
62	201.17054200172424	fix_pre	0		106.0	60.0	2.5	/experiments/knapen_aot/videos/R_S_yt-2y6A9DJPsDU_65.mp4	0.0	262.6675090789795	0.8832108974456787
62	202.04549503326416	response	0	2		60.0	2.5	/experiments/knapen_aot/videos/R_S_yt-2y6A9DJPsDU_65.mp4	0.0	263.5424621105194	
62	202.05375289916992	movie	1		301.0	60.0	2.5	/experiments/knapen_aot/videos/R_S_yt-2y6A9DJPsDU_65.mp4	0.0	263.55071997642517	2.5087239742279053
62	204.56247687339783	fix_post	2		12.0	60.0	2.5	/experiments/knapen_aot/videos/R_S_yt-2y6A9DJPsDU_65.mp4	0.0	266.0594439506531	0.09955906867980957
63	204.66203594207764	fix_pre	0		66.0	61.0	2.5	/experiments/knapen_aot/videos/S_G008_C015_UHD_SDR_2K_AVC.mp4	0.0	266.1590030193329	0.5511250495910645
63	205.20381593704224	response	0	2		61.0	2.5	/experiments/knapen_aot/videos/S_G008_C015_UHD_SDR_2K_AVC.mp4	0.0	266.7007830142975	
63	205.2131609916687	movie	1		170.0	61.0	2.5	/experiments/knapen_aot/videos/S_G008_C015_UHD_SDR_2K_AVC.mp4	0.0	266.71012806892395	2.5072529315948486
63	207.72041392326355	fix_post	2		12.0	61.0	2.5	/experiments/knapen_aot/videos/S_G008_C015_UHD_SDR_2K_AVC.mp4	0.0	269.2173810005188	0.09998893737792969
64	207.82040286064148	fix_pre	0		43.0	62.0	2.5	blank	1.0	269.31736993789673	0.3582901954650879
64	208.1704490184784	response	0	2		62.0	2.5	blank	1.0	269.66741609573364	
64	208.17869305610657	movie	1		301.0	62.0	2.5	blank	1.0	269.6756601333618	2.508359909057617
64	210.68705296516418	fix_post	2		12.0	62.0	2.5	blank	1.0	272.18402004241943	0.09995508193969727
65	210.78700804710388	fix_pre	0		44.0	63.0	2.5	/experiments/knapen_aot/videos/R_S_yt--cAfxH1WnPo_3.mp4	0.0	272.28397512435913	0.36661791801452637
65	211.14542198181152	response	0	2		63.0	2.5	/experiments/knapen_aot/videos/R_S_yt--cAfxH1WnPo_3.mp4	0.0	272.6423890590668	
65	211.1536259651184	movie	1		301.0	63.0	2.5	/experiments/knapen_aot/videos/R_S_yt--cAfxH1WnPo_3.mp4	0.0	272.65059304237366	2.508481025695801
65	213.6621069908142	fix_post	2		12.0	63.0	2.5	/experiments/knapen_aot/videos/R_S_yt--cAfxH1WnPo_3.mp4	0.0	275.15907406806946	0.09990596771240234
66	213.7620129585266	fix_pre	0		44.0	64.0	2.5	/experiments/knapen_aot/videos/S_yt-uY5xsUKn8zU_17.mp4	0.0	275.25898003578186	0.36765193939208984
66	214.1205039024353	response	0	2		64.0	2.5	/experiments/knapen_aot/videos/S_yt-uY5xsUKn8zU_17.mp4	0.0	275.61747097969055	
66	214.1296648979187	movie	1		301.0	64.0	2.5	/experiments/knapen_aot/videos/S_yt-uY5xsUKn8zU_17.mp4	0.0	275.62663197517395	2.507416009902954
66	216.63708090782166	fix_post	2		12.0	64.0	2.5	/experiments/knapen_aot/videos/S_yt-uY5xsUKn8zU_17.mp4	0.0	278.1340479850769	0.10003304481506348
67	216.73711395263672	fix_pre	0		37.0	65.0	2.5	/experiments/knapen_aot/videos/R_S_yt-qYuLW5vSotM_160.mp4	0.0	278.23408102989197	0.3091559410095215
67	217.02957892417908	response	0	2		65.0	2.5	/experiments/knapen_aot/videos/R_S_yt-qYuLW5vSotM_160.mp4	0.0	278.5265460014343	
67	217.04626989364624	movie	1		301.0	65.0	2.5	/experiments/knapen_aot/videos/R_S_yt-qYuLW5vSotM_160.mp4	0.0	278.5432369709015	2.5074260234832764
67	219.55369591712952	fix_post	2		12.0	65.0	2.5	/experiments/knapen_aot/videos/R_S_yt-qYuLW5vSotM_160.mp4	0.0	281.05066299438477	0.099945068359375
68	219.6536409854889	fix_pre	0		33.0	66.0	2.5	/experiments/knapen_aot/videos/R_S_yt-YykKZWKmLnQ_386.mp4	0.0	281.15060806274414	0.2749440670013428
68	219.92038202285767	response	0	2		66.0	2.5	/experiments/knapen_aot/videos/R_S_yt-YykKZWKmLnQ_386.mp4	0.0	281.4173491001129	
68	219.92858505249023	movie	1		301.0	66.0	2.5	/experiments/knapen_aot/videos/R_S_yt-YykKZWKmLnQ_386.mp4	0.0	281.4255521297455	2.5083370208740234
68	222.43692207336426	fix_post	2		12.0	66.0	2.5	/experiments/knapen_aot/videos/R_S_yt-YykKZWKmLnQ_386.mp4	0.0	283.9338891506195	0.10005497932434082
69	222.5369770526886	fix_pre	0		34.0	67.0	2.5	/experiments/knapen_aot/videos/R_S_comp_GMT308_139K_142NC_CARIBBEAN_DAY_v09_SDR_FINAL_22062018_SDR_2K_AVC.mp4	0.0	284.03394412994385	0.2833578586578369
69	222.812087059021	response	0	2		67.0	2.5	/experiments/knapen_aot/videos/R_S_comp_GMT308_139K_142NC_CARIBBEAN_DAY_v09_SDR_FINAL_22062018_SDR_2K_AVC.mp4	0.0	284.30905413627625	
69	222.82033491134644	movie	1		169.0	67.0	2.5	/experiments/knapen_aot/videos/R_S_comp_GMT308_139K_142NC_CARIBBEAN_DAY_v09_SDR_FINAL_22062018_SDR_2K_AVC.mp4	0.0	284.3173019886017	2.508315086364746
69	225.32864999771118	fix_post	2		12.0	67.0	2.5	/experiments/knapen_aot/videos/R_S_comp_GMT308_139K_142NC_CARIBBEAN_DAY_v09_SDR_FINAL_22062018_SDR_2K_AVC.mp4	0.0	286.82561707496643	0.10001707077026367
70	225.42866706848145	fix_pre	0		33.0	68.0	2.5	/experiments/knapen_aot/videos/S_yt-aTEGTeQuDWM_93.mp4	0.0	286.9256341457367	0.2748899459838867
70	225.6953568458557	response	0	2		68.0	2.5	/experiments/knapen_aot/videos/S_yt-aTEGTeQuDWM_93.mp4	0.0	287.19232392311096	
70	225.70355701446533	movie	1		301.0	68.0	2.5	/experiments/knapen_aot/videos/S_yt-aTEGTeQuDWM_93.mp4	0.0	287.2005240917206	2.5082900524139404
70	228.21184706687927	fix_post	2		12.0	68.0	2.5	/experiments/knapen_aot/videos/S_yt-aTEGTeQuDWM_93.mp4	0.0	289.7088141441345	0.10009098052978516
71	228.31193804740906	fix_pre	0		35.0	69.0	2.5	blank	1.0	289.8089051246643	0.29166293144226074
71	228.5954248905182	response	0	2		69.0	2.5	blank	1.0	290.09239196777344	
71	228.60360097885132	movie	1		301.0	69.0	2.5	blank	1.0	290.10056805610657	2.5083329677581787
71	231.1119339466095	fix_post	2		12.0	69.0	2.5	blank	1.0	292.60890102386475	0.10001611709594727
72	231.21195006370544	fix_pre	0		41.0	70.0	2.5	/experiments/knapen_aot/videos/R_S_yt-alGXD2Drh_g_19.mp4	0.0	292.7089171409607	0.34160590171813965
72	231.5452618598938	response	0	2		70.0	2.5	/experiments/knapen_aot/videos/R_S_yt-alGXD2Drh_g_19.mp4	0.0	293.04222893714905	
72	231.55355596542358	movie	1		301.0	70.0	2.5	/experiments/knapen_aot/videos/R_S_yt-alGXD2Drh_g_19.mp4	0.0	293.05052304267883	2.508415937423706
72	234.0619719028473	fix_post	2		12.0	70.0	2.5	/experiments/knapen_aot/videos/R_S_yt-alGXD2Drh_g_19.mp4	0.0	295.55893898010254	0.10002398490905762
73	234.16199588775635	fix_pre	0		24.0	71.0	2.5	/experiments/knapen_aot/videos/R_S_pexels-anastasia-shuraeva-6014070.mp4	0.0	295.6589629650116	0.1999349594116211
73	234.35372185707092	response	0	2		71.0	2.5	/experiments/knapen_aot/videos/R_S_pexels-anastasia-shuraeva-6014070.mp4	0.0	295.8506889343262	
73	234.36193084716797	movie	1		188.0	71.0	2.5	/experiments/knapen_aot/videos/R_S_pexels-anastasia-shuraeva-6014070.mp4	0.0	295.8588979244232	2.5083041191101074
73	236.87023496627808	fix_post	2		12.0	71.0	2.5	/experiments/knapen_aot/videos/R_S_pexels-anastasia-shuraeva-6014070.mp4	0.0	298.3672020435333	0.09996604919433594
74	236.9702010154724	fix_pre	0		36.0	72.0	2.5	/experiments/knapen_aot/videos/S_yt-aiwDdJm1ek8_90.mp4	0.0	298.46716809272766	0.30002784729003906
74	237.26211285591125	response	0	2		72.0	2.5	/experiments/knapen_aot/videos/S_yt-aiwDdJm1ek8_90.mp4	0.0	298.7590799331665	
74	237.27022886276245	movie	1		301.0	72.0	2.5	/experiments/knapen_aot/videos/S_yt-aiwDdJm1ek8_90.mp4	0.0	298.7671959400177	2.508263111114502
74	239.77849197387695	fix_post	2		12.0	72.0	2.5	/experiments/knapen_aot/videos/S_yt-aiwDdJm1ek8_90.mp4	0.0	301.2754590511322	0.10007691383361816
75	239.87856888771057	fix_pre	0		56.0	73.0	2.5	/experiments/knapen_aot/videos/S_yt-GWOOQZ19-oU_331.mp4	0.0	301.3755359649658	0.466616153717041
75	240.33694005012512	response	0	2		73.0	2.5	/experiments/knapen_aot/videos/S_yt-GWOOQZ19-oU_331.mp4	0.0	301.83390712738037	
75	240.3451850414276	movie	1		301.0	73.0	2.5	/experiments/knapen_aot/videos/S_yt-GWOOQZ19-oU_331.mp4	0.0	301.84215211868286	2.50839900970459
75	242.8535840511322	fix_post	2		12.0	73.0	2.5	/experiments/knapen_aot/videos/S_yt-GWOOQZ19-oU_331.mp4	0.0	304.35055112838745	0.09997987747192383
76	242.95356392860413	fix_pre	0		43.0	74.0	2.5	/experiments/knapen_aot/videos/S_production_ID_4121250.mp4	0.0	304.4505310058594	0.358320951461792
76	243.3036470413208	response	0	2		74.0	2.5	/experiments/knapen_aot/videos/S_production_ID_4121250.mp4	0.0	304.80061411857605	
76	243.31188488006592	movie	1		163.0	74.0	2.5	/experiments/knapen_aot/videos/S_production_ID_4121250.mp4	0.0	304.80885195732117	2.5083231925964355
76	245.82020807266235	fix_post	2		12.0	74.0	2.5	/experiments/knapen_aot/videos/S_production_ID_4121250.mp4	0.0	307.3171751499176	0.09999489784240723
77	245.92020297050476	fix_pre	0		14.0	75.0	2.5	blank	1.0	307.41717004776	0.11664891242980957
77	246.0286250114441	response	0	2		75.0	2.5	blank	1.0	307.52559208869934	
77	246.03685188293457	movie	1		301.0	75.0	2.5	blank	1.0	307.5338189601898	2.5084121227264404
77	248.545264005661	fix_post	2		12.0	75.0	2.5	blank	1.0	310.04223108291626	0.09998297691345215
78	248.64524698257446	fix_pre	0		23.0	76.0	2.5	/experiments/knapen_aot/videos/S_yt-yXJr3FR2xrM_27.mp4	0.0	310.1422140598297	0.19260501861572266
78	248.82865285873413	response	0	2		76.0	2.5	/experiments/knapen_aot/videos/S_yt-yXJr3FR2xrM_27.mp4	0.0	310.3256199359894	
78	248.83785200119019	movie	1		301.0	76.0	2.5	/experiments/knapen_aot/videos/S_yt-yXJr3FR2xrM_27.mp4	0.0	310.33481907844543	2.507349967956543
78	251.34520196914673	fix_post	2		12.0	76.0	2.5	/experiments/knapen_aot/videos/S_yt-yXJr3FR2xrM_27.mp4	0.0	312.842169046402	0.10000395774841309
79	251.44520592689514	fix_pre	0		37.0	77.0	2.5	/experiments/knapen_aot/videos/S_yt-b7bIulV49DQ_81.mp4	0.0	312.9421730041504	0.30906009674072266
79	251.7452368736267	response	0	2		77.0	2.5	/experiments/knapen_aot/videos/S_yt-b7bIulV49DQ_81.mp4	0.0	313.24220395088196	
79	251.75426602363586	movie	1		301.0	77.0	2.5	/experiments/knapen_aot/videos/S_yt-b7bIulV49DQ_81.mp4	0.0	313.2512331008911	2.5076138973236084
79	254.26187992095947	fix_post	2		12.0	77.0	2.5	/experiments/knapen_aot/videos/S_yt-b7bIulV49DQ_81.mp4	0.0	315.7588469982147	0.09990406036376953
80	254.36178398132324	fix_pre	0		23.0	78.0	2.5	/experiments/knapen_aot/videos/S_yt-NZIhxK5NvWE_152.mp4	0.0	315.8587510585785	0.19171595573425293
80	254.54521203041077	response	0	2		78.0	2.5	/experiments/knapen_aot/videos/S_yt-NZIhxK5NvWE_152.mp4	0.0	316.042179107666	
80	254.5534999370575	movie	1		301.0	78.0	2.5	/experiments/knapen_aot/videos/S_yt-NZIhxK5NvWE_152.mp4	0.0	316.05046701431274	2.5083959102630615
80	257.06189584732056	fix_post	2		12.0	78.0	2.5	/experiments/knapen_aot/videos/S_yt-NZIhxK5NvWE_152.mp4	0.0	318.5588629245758	0.09995102882385254
81	257.1618468761444	fix_pre	0		25.0	79.0	2.5	/experiments/knapen_aot/videos/R_S_production_ID_4499960.mp4	0.0	318.65881395339966	0.20830512046813965
81	257.36192989349365	response	0	2		79.0	2.5	/experiments/knapen_aot/videos/R_S_production_ID_4499960.mp4	0.0	318.8588969707489	
81	257.37015199661255	movie	1		183.0	79.0	2.5	/experiments/knapen_aot/videos/R_S_production_ID_4499960.mp4	0.0	318.8671190738678	2.5084099769592285
81	259.8785619735718	fix_post	2		12.0	79.0	2.5	/experiments/knapen_aot/videos/R_S_production_ID_4499960.mp4	0.0	321.375529050827	0.09992289543151855
82	259.9784848690033	fix_pre	0		128.0	80.0	2.5	/experiments/knapen_aot/videos/S_ILSVRC2015_train_00303008.mp4	0.0	321.47545194625854	1.0673890113830566
82	261.03686785697937	response	0	2		80.0	2.5	/experiments/knapen_aot/videos/S_ILSVRC2015_train_00303008.mp4	0.0	322.5338349342346	
82	261.04587388038635	movie	1		301.0	80.0	2.5	/experiments/knapen_aot/videos/S_ILSVRC2015_train_00303008.mp4	0.0	322.5428409576416	2.5076210498809814
82	263.55349493026733	fix_post	2		12.0	80.0	2.5	/experiments/knapen_aot/videos/S_ILSVRC2015_train_00303008.mp4	0.0	325.0504620075226	0.0999751091003418
83	263.6534700393677	fix_pre	0		307.0	81.0	2.5	/experiments/knapen_aot/videos/R_S_yt-EuyfT0PuOoQ_91.mp4	0.0	325.1504371166229	2.559072971343994
83	266.2035300731659	response	0	2		81.0	2.5	/experiments/knapen_aot/videos/R_S_yt-EuyfT0PuOoQ_91.mp4	0.0	327.70049715042114	
83	266.21254301071167	movie	1		301.0	81.0	2.5	/experiments/knapen_aot/videos/R_S_yt-EuyfT0PuOoQ_91.mp4	0.0	327.7095100879669	2.5075888633728027
83	268.7201318740845	fix_post	2		12.0	81.0	2.5	/experiments/knapen_aot/videos/R_S_yt-EuyfT0PuOoQ_91.mp4	0.0	330.2170989513397	0.09992218017578125
84	268.82005405426025	fix_pre	0		28.0	82.0	2.5	blank	1.0	330.3170211315155	0.23343992233276367
84	269.04521799087524	response	0	2		82.0	2.5	blank	1.0	330.5421850681305	
84	269.053493976593	movie	1		301.0	82.0	2.5	blank	1.0	330.55046105384827	2.5082480907440186
84	271.56174206733704	fix_post	2		12.0	82.0	2.5	blank	1.0	333.0587091445923	0.09996795654296875
85	271.66171002388	fix_pre	0		24.0	83.0	2.5	/experiments/knapen_aot/videos/S_yt-fymgyhmYnMI_557.mp4	0.0	333.15867710113525	0.20000791549682617
85	271.85350584983826	response	0	2		83.0	2.5	/experiments/knapen_aot/videos/S_yt-fymgyhmYnMI_557.mp4	0.0	333.3504729270935	
85	271.86171793937683	movie	1		301.0	83.0	2.5	/experiments/knapen_aot/videos/S_yt-fymgyhmYnMI_557.mp4	0.0	333.3586850166321	2.5083670616149902
85	274.3700850009918	fix_post	2		12.0	83.0	2.5	/experiments/knapen_aot/videos/S_yt-fymgyhmYnMI_557.mp4	0.0	335.86705207824707	0.10000205039978027
87	274.4700870513916	stim	0		63.0					335.96705412864685	0.5270638465881348
87	274.6368758678436	response	0	2						336.1338429450989	
87	274.9914548397064	response	0	space						336.48842191696167	
