trial_nr	onset	event_type	phase	response	nr_frames	movie_index	movie_duration	movie_file	blank	onset_abs	duration
0	0.12495279312133789	stim	0		10.0					61.55405259132385	0.0833580493927002
0	0.19330286979675293	response	0	space						61.62240266799927	
1	0.20831084251403809	stim	0		121.0					61.63741064071655	1.008289098739624
1	1.216599941253662	stim	1		120.0					62.64569973945618	0.9996869564056396
1	1.350125789642334	response	1	space						62.77922558784485	
1	1.6666748523712158	response	1	space						63.09577465057373	
1	2.1246628761291504	response	1	space						63.553762674331665	
2	2.2162868976593018	fix_pre	0		57.0	0.0	2.5	/experiments/knapen_aot/videos/R_S_yt-m8HxO_-RRq0_127.mp4	0.0	63.645386695861816	0.47647809982299805
2	2.683027982711792	response	0	space		0.0	2.5	/experiments/knapen_aot/videos/R_S_yt-m8HxO_-RRq0_127.mp4	0.0	64.1121277809143	
2	2.6927649974823	movie	1		300.0	0.0	2.5	/experiments/knapen_aot/videos/R_S_yt-m8HxO_-RRq0_127.mp4	0.0	64.12186479568481	2.50689697265625
2	5.19966197013855	fix_post	2		12.0	0.0	2.5	/experiments/knapen_aot/videos/R_S_yt-m8HxO_-RRq0_127.mp4	0.0	66.62876176834106	0.09992289543151855
3	5.299584865570068	fix_pre	0		35.0	1.0	2.5	/experiments/knapen_aot/videos/R_S_yt-NuZy8Rjk4d0_156.mp4	0.0	66.72868466377258	0.29158496856689453
3	5.58531379699707	response	0	2		1.0	2.5	/experiments/knapen_aot/videos/R_S_yt-NuZy8Rjk4d0_156.mp4	0.0	67.01441359519958	
3	5.591169834136963	movie	1		301.0	1.0	2.5	/experiments/knapen_aot/videos/R_S_yt-NuZy8Rjk4d0_156.mp4	0.0	67.02026963233948	2.5086419582366943
3	8.099811792373657	fix_post	2		12.0	1.0	2.5	/experiments/knapen_aot/videos/R_S_yt-NuZy8Rjk4d0_156.mp4	0.0	69.52891159057617	0.09978508949279785
4	8.199596881866455	fix_pre	0		32.0	2.0	2.5	/experiments/knapen_aot/videos/S_yt-giRwl4yChlw_9.mp4	0.0	69.62869668006897	0.2666149139404297
4	8.450478792190552	response	0	2		2.0	2.5	/experiments/knapen_aot/videos/S_yt-giRwl4yChlw_9.mp4	0.0	69.87957859039307	
4	8.466211795806885	movie	1		301.0	2.0	2.5	/experiments/knapen_aot/videos/S_yt-giRwl4yChlw_9.mp4	0.0	69.8953115940094	2.5083611011505127
4	10.974572896957397	fix_post	2		12.0	2.0	2.5	/experiments/knapen_aot/videos/S_yt-giRwl4yChlw_9.mp4	0.0	72.40367269515991	0.10001111030578613
5	11.074584007263184	fix_pre	0		54.0	3.0	2.5	/experiments/knapen_aot/videos/R_S_yt-c5_SFS4aaJI_1102.mp4	0.0	72.5036838054657	0.4498889446258545
5	11.516307830810547	response	0	2		3.0	2.5	/experiments/knapen_aot/videos/R_S_yt-c5_SFS4aaJI_1102.mp4	0.0	72.94540762901306	
5	11.524472951889038	movie	1		301.0	3.0	2.5	/experiments/knapen_aot/videos/R_S_yt-c5_SFS4aaJI_1102.mp4	0.0	72.95357275009155	2.5084068775177
5	14.032879829406738	fix_post	2		12.0	3.0	2.5	/experiments/knapen_aot/videos/R_S_yt-c5_SFS4aaJI_1102.mp4	0.0	75.46197962760925	0.10000300407409668
6	14.132882833480835	fix_pre	0		32.0	4.0	2.5	/experiments/knapen_aot/videos/S_pexels-c-technical-6754008.mp4	0.0	75.56198263168335	0.26655006408691406
6	14.39141297340393	response	0	2		4.0	2.5	/experiments/knapen_aot/videos/S_pexels-c-technical-6754008.mp4	0.0	75.82051277160645	
6	14.399432897567749	movie	1		195.0	4.0	2.5	/experiments/knapen_aot/videos/S_pexels-c-technical-6754008.mp4	0.0	75.82853269577026	2.5084359645843506
6	16.9078688621521	fix_post	2		12.0	4.0	2.5	/experiments/knapen_aot/videos/S_pexels-c-technical-6754008.mp4	0.0	78.33696866035461	0.09999608993530273
7	17.007864952087402	fix_pre	0		28.0	5.0	2.5	/experiments/knapen_aot/videos/R_S_yt-OPzchvF7jO8_53.mp4	0.0	78.43696475028992	0.23325586318969727
7	17.233027935028076	response	0	2		5.0	2.5	/experiments/knapen_aot/videos/R_S_yt-OPzchvF7jO8_53.mp4	0.0	78.66212773323059	
7	17.2411208152771	movie	1		301.0	5.0	2.5	/experiments/knapen_aot/videos/R_S_yt-OPzchvF7jO8_53.mp4	0.0	78.67022061347961	2.5084149837493896
7	19.74953579902649	fix_post	2		12.0	5.0	2.5	/experiments/knapen_aot/videos/R_S_yt-OPzchvF7jO8_53.mp4	0.0	81.178635597229	0.10001802444458008
8	19.84955382347107	fix_pre	0		30.0	6.0	2.5	/experiments/knapen_aot/videos/R_S_yt-CJeyOFsd3lg_80.mp4	0.0	81.27865362167358	0.24996614456176758
8	20.09125280380249	response	0	2		6.0	2.5	/experiments/knapen_aot/videos/R_S_yt-CJeyOFsd3lg_80.mp4	0.0	81.520352602005	
8	20.099519968032837	movie	1		301.0	6.0	2.5	/experiments/knapen_aot/videos/R_S_yt-CJeyOFsd3lg_80.mp4	0.0	81.52861976623535	2.5083649158477783
8	22.607884883880615	fix_post	2		12.0	6.0	2.5	/experiments/knapen_aot/videos/R_S_yt-CJeyOFsd3lg_80.mp4	0.0	84.03698468208313	0.09996700286865234
9	22.707851886749268	fix_pre	0		30.0	7.0	2.5	blank	1.0	84.13695168495178	0.2500019073486328
9	22.949615955352783	response	0	2		7.0	2.5	blank	1.0	84.3787157535553	
9	22.9578537940979	movie	1		301.0	7.0	2.5	blank	1.0	84.38695359230042	2.508296012878418
9	25.46614980697632	fix_post	2		12.0	7.0	2.5	blank	1.0	86.89524960517883	0.1000070571899414
10	25.56615686416626	fix_pre	0		28.0	8.0	2.5	/experiments/knapen_aot/videos/R_S_yt-a0axt7n0GuQ_19.mp4	0.0	86.99525666236877	0.2332749366760254
10	25.78386092185974	response	0	2		8.0	2.5	/experiments/knapen_aot/videos/R_S_yt-a0axt7n0GuQ_19.mp4	0.0	87.21296072006226	
10	25.799431800842285	movie	1		301.0	8.0	2.5	/experiments/knapen_aot/videos/R_S_yt-a0axt7n0GuQ_19.mp4	0.0	87.2285315990448	2.508380174636841
10	28.307811975479126	fix_post	2		12.0	8.0	2.5	/experiments/knapen_aot/videos/R_S_yt-a0axt7n0GuQ_19.mp4	0.0	89.73691177368164	0.10001897811889648
11	28.407830953598022	fix_pre	0		40.0	9.0	2.5	/experiments/knapen_aot/videos/S_yt-5doJmCcFL7s_3.mp4	0.0	89.83693075180054	0.33321499824523926
11	28.732935905456543	response	0	2		9.0	2.5	/experiments/knapen_aot/videos/S_yt-5doJmCcFL7s_3.mp4	0.0	90.16203570365906	
11	28.74104595184326	movie	1		301.0	9.0	2.5	/experiments/knapen_aot/videos/S_yt-5doJmCcFL7s_3.mp4	0.0	90.17014575004578	2.508370876312256
11	31.249416828155518	fix_post	2		12.0	9.0	2.5	/experiments/knapen_aot/videos/S_yt-5doJmCcFL7s_3.mp4	0.0	92.67851662635803	0.10004615783691406
12	31.34946298599243	fix_pre	0		35.0	10.0	2.5	/experiments/knapen_aot/videos/S_yt-XUnZ7FbBtvk_162.mp4	0.0	92.77856278419495	0.2916269302368164
12	31.632898807525635	response	0	2		10.0	2.5	/experiments/knapen_aot/videos/S_yt-XUnZ7FbBtvk_162.mp4	0.0	93.06199860572815	
12	31.641089916229248	movie	1		301.0	10.0	2.5	/experiments/knapen_aot/videos/S_yt-XUnZ7FbBtvk_162.mp4	0.0	93.07018971443176	2.508410930633545
12	34.14950084686279	fix_post	2		12.0	10.0	2.5	/experiments/knapen_aot/videos/S_yt-XUnZ7FbBtvk_162.mp4	0.0	95.57860064506531	0.09998297691345215
13	34.249483823776245	fix_pre	0		49.0	11.0	2.5	/experiments/knapen_aot/videos/R_S_comp_GL_G004_C010_PSNK_v04_SDR_PS_FINAL_20180709_SDR_2K_AVC.mp4	0.0	95.67858362197876	0.4082200527191162
13	34.649595975875854	response	0	2		11.0	2.5	/experiments/knapen_aot/videos/R_S_comp_GL_G004_C010_PSNK_v04_SDR_PS_FINAL_20180709_SDR_2K_AVC.mp4	0.0	96.07869577407837	
13	34.65770387649536	movie	1		168.0	11.0	2.5	/experiments/knapen_aot/videos/R_S_comp_GL_G004_C010_PSNK_v04_SDR_PS_FINAL_20180709_SDR_2K_AVC.mp4	0.0	96.08680367469788	2.508404016494751
13	37.16610789299011	fix_post	2		12.0	11.0	2.5	/experiments/knapen_aot/videos/R_S_comp_GL_G004_C010_PSNK_v04_SDR_PS_FINAL_20180709_SDR_2K_AVC.mp4	0.0	98.59520769119263	0.0999898910522461
14	37.26609778404236	fix_pre	0		43.0	12.0	2.5	blank	1.0	98.69519758224487	0.358288049697876
14	37.616230964660645	response	0	2		12.0	2.5	blank	1.0	99.04533076286316	
14	37.624385833740234	movie	1		301.0	12.0	2.5	blank	1.0	99.05348563194275	2.5083820819854736
14	40.13276791572571	fix_post	2		12.0	12.0	2.5	blank	1.0	101.56186771392822	0.10001707077026367
15	40.23278498649597	fix_pre	0		56.0	13.0	2.5	/experiments/knapen_aot/videos/S_ILSVRC2015_train_00373000.mp4	0.0	101.66188478469849	0.46663880348205566
15	40.69119191169739	response	0	2		13.0	2.5	/experiments/knapen_aot/videos/S_ILSVRC2015_train_00373000.mp4	0.0	102.1202917098999	
15	40.69942378997803	movie	1		301.0	13.0	2.5	/experiments/knapen_aot/videos/S_ILSVRC2015_train_00373000.mp4	0.0	102.12852358818054	2.5083351135253906
15	43.20775890350342	fix_post	2		12.0	13.0	2.5	/experiments/knapen_aot/videos/S_ILSVRC2015_train_00373000.mp4	0.0	104.63685870170593	0.09995198249816895
16	43.30771088600159	fix_pre	0		58.0	14.0	2.5	/experiments/knapen_aot/videos/R_S_yt-e_eOzV7qMZo_374.mp4	0.0	104.7368106842041	0.4833230972290039
16	43.78287696838379	response	0	2		14.0	2.5	/experiments/knapen_aot/videos/R_S_yt-e_eOzV7qMZo_374.mp4	0.0	105.2119767665863	
16	43.79103398323059	movie	1		301.0	14.0	2.5	/experiments/knapen_aot/videos/R_S_yt-e_eOzV7qMZo_374.mp4	0.0	105.2201337814331	2.5083818435668945
16	46.299415826797485	fix_post	2		12.0	14.0	2.5	/experiments/knapen_aot/videos/R_S_yt-e_eOzV7qMZo_374.mp4	0.0	107.728515625	0.10040712356567383
17	46.39982295036316	fix_pre	0		37.0	15.0	2.5	/experiments/knapen_aot/videos/S_g201_AK_A003_C014_SDR_20191113_SDR_2K_AVC.mp4	0.0	107.82892274856567	0.3079040050506592
17	46.69949293136597	response	0	2		15.0	2.5	/experiments/knapen_aot/videos/S_g201_AK_A003_C014_SDR_20191113_SDR_2K_AVC.mp4	0.0	108.12859272956848	
17	46.70772695541382	movie	1		167.0	15.0	2.5	/experiments/knapen_aot/videos/S_g201_AK_A003_C014_SDR_20191113_SDR_2K_AVC.mp4	0.0	108.13682675361633	2.508380889892578
17	49.2161078453064	fix_post	2		12.0	15.0	2.5	/experiments/knapen_aot/videos/S_g201_AK_A003_C014_SDR_20191113_SDR_2K_AVC.mp4	0.0	110.64520764350891	0.09995102882385254
18	49.31605887413025	fix_pre	0		30.0	16.0	2.5	/experiments/knapen_aot/videos/R_S_9smWynsk6sI_158.mp4	0.0	110.74515867233276	0.25115203857421875
18	49.55778694152832	response	0	2		16.0	2.5	/experiments/knapen_aot/videos/R_S_9smWynsk6sI_158.mp4	0.0	110.98688673973083	
18	49.56721091270447	movie	1		301.0	16.0	2.5	/experiments/knapen_aot/videos/R_S_9smWynsk6sI_158.mp4	0.0	110.99631071090698	2.5071849822998047
18	52.07439589500427	fix_post	2		12.0	16.0	2.5	/experiments/knapen_aot/videos/R_S_9smWynsk6sI_158.mp4	0.0	113.50349569320679	0.09998202323913574
19	52.17437791824341	fix_pre	0		37.0	17.0	2.5	/experiments/knapen_aot/videos/S_yt_R-lST38EdfMMQ_5.mp4	0.0	113.60347771644592	0.30947303771972656
19	52.47453689575195	response	0	2		17.0	2.5	/experiments/knapen_aot/videos/S_yt_R-lST38EdfMMQ_5.mp4	0.0	113.90363669395447	
19	52.483850955963135	movie	1		301.0	17.0	2.5	/experiments/knapen_aot/videos/S_yt_R-lST38EdfMMQ_5.mp4	0.0	113.91295075416565	2.507236957550049
19	54.991087913513184	fix_post	2		12.0	17.0	2.5	/experiments/knapen_aot/videos/S_yt_R-lST38EdfMMQ_5.mp4	0.0	116.4201877117157	0.09995794296264648
20	55.09104585647583	fix_pre	0		31.0	18.0	2.5	/experiments/knapen_aot/videos/S_yt-c5_SFS4aaJI_1102.mp4	0.0	116.52014565467834	0.25826501846313477
20	55.34109592437744	response	0	2		18.0	2.5	/experiments/knapen_aot/videos/S_yt-c5_SFS4aaJI_1102.mp4	0.0	116.77019572257996	
20	55.349310874938965	movie	1		301.0	18.0	2.5	/experiments/knapen_aot/videos/S_yt-c5_SFS4aaJI_1102.mp4	0.0	116.77841067314148	2.5084359645843506
20	57.857746839523315	fix_post	2		12.0	18.0	2.5	/experiments/knapen_aot/videos/S_yt-c5_SFS4aaJI_1102.mp4	0.0	119.28684663772583	0.09996414184570312
21	57.95771098136902	fix_pre	0		52.0	19.0	2.5	/experiments/knapen_aot/videos/S_yt-C0iWlRWU21o_5.mp4	0.0	119.38681077957153	0.43327784538269043
21	58.37529492378235	response	0	2		19.0	2.5	/experiments/knapen_aot/videos/S_yt-C0iWlRWU21o_5.mp4	0.0	119.80439472198486	
21	58.39098882675171	movie	1		301.0	19.0	2.5	/experiments/knapen_aot/videos/S_yt-C0iWlRWU21o_5.mp4	0.0	119.82008862495422	2.5086231231689453
21	60.899611949920654	fix_post	2		12.0	19.0	2.5	/experiments/knapen_aot/videos/S_yt-C0iWlRWU21o_5.mp4	0.0	122.32871174812317	0.09977293014526367
22	60.99938488006592	fix_pre	0		33.0	20.0	2.5	/experiments/knapen_aot/videos/R_S_ILSVRC2015_train_00417000.mp4	0.0	122.42848467826843	0.27608203887939453
22	61.266151905059814	response	0	2		20.0	2.5	/experiments/knapen_aot/videos/R_S_ILSVRC2015_train_00417000.mp4	0.0	122.69525170326233	
22	61.27546691894531	movie	1		301.0	20.0	2.5	/experiments/knapen_aot/videos/R_S_ILSVRC2015_train_00417000.mp4	0.0	122.70456671714783	2.507204055786133
22	63.782670974731445	fix_post	2		12.0	20.0	2.5	/experiments/knapen_aot/videos/R_S_ILSVRC2015_train_00417000.mp4	0.0	125.21177077293396	0.09994888305664062
23	63.882619857788086	fix_pre	0		25.0	21.0	2.5	blank	1.0	125.3117196559906	0.20841097831726074
23	64.0827968120575	response	0	2		21.0	2.5	blank	1.0	125.51189661026001	
23	64.09103083610535	movie	1		301.0	21.0	2.5	blank	1.0	125.52013063430786	2.5082671642303467
23	66.5992980003357	fix_post	2		12.0	21.0	2.5	blank	1.0	128.0283977985382	0.10021781921386719
24	66.69951581954956	fix_pre	0		50.0	22.0	2.5	/experiments/knapen_aot/videos/R_S_Pexels_Videos_2795731_1.mp4	0.0	128.12861561775208	0.41646718978881836
24	67.10773992538452	response	0	2		22.0	2.5	/experiments/knapen_aot/videos/R_S_Pexels_Videos_2795731_1.mp4	0.0	128.53683972358704	
24	67.11598300933838	movie	1		163.0	22.0	2.5	/experiments/knapen_aot/videos/R_S_Pexels_Videos_2795731_1.mp4	0.0	128.5450828075409	2.513617992401123
24	69.6296010017395	fix_post	2		12.0	22.0	2.5	/experiments/knapen_aot/videos/R_S_Pexels_Videos_2795731_1.mp4	0.0	131.05870079994202	0.09465599060058594
25	69.72425699234009	fix_pre	0		40.0	23.0	2.5	/experiments/knapen_aot/videos/S_ILSVRC2015_train_00473001.mp4	0.0	131.1533567905426	0.33338379859924316
25	70.04940986633301	response	0	2		23.0	2.5	/experiments/knapen_aot/videos/S_ILSVRC2015_train_00473001.mp4	0.0	131.47850966453552	
25	70.05764079093933	movie	1		301.0	23.0	2.5	/experiments/knapen_aot/videos/S_ILSVRC2015_train_00473001.mp4	0.0	131.48674058914185	2.5082881450653076
25	72.56592893600464	fix_post	2		12.0	23.0	2.5	/experiments/knapen_aot/videos/S_ILSVRC2015_train_00473001.mp4	0.0	133.99502873420715	0.10025286674499512
26	72.66618180274963	fix_pre	0		35.0	24.0	2.5	/experiments/knapen_aot/videos/S_ILSVRC2015_train_00473000.mp4	0.0	134.09528160095215	0.2914450168609619
26	72.94935989379883	response	0	2		24.0	2.5	/experiments/knapen_aot/videos/S_ILSVRC2015_train_00473000.mp4	0.0	134.37845969200134	
26	72.9576268196106	movie	1		301.0	24.0	2.5	/experiments/knapen_aot/videos/S_ILSVRC2015_train_00473000.mp4	0.0	134.3867266178131	2.5083391666412354
26	75.46596598625183	fix_post	2		12.0	24.0	2.5	/experiments/knapen_aot/videos/S_ILSVRC2015_train_00473000.mp4	0.0	136.89506578445435	0.10004591941833496
27	75.56601190567017	fix_pre	0		53.0	25.0	2.5	/experiments/knapen_aot/videos/S_G007_C004_UHD_SDR_2K_AVC.mp4	0.0	136.99511170387268	0.44152307510375977
27	75.99945092201233	response	0	2		25.0	2.5	/experiments/knapen_aot/videos/S_G007_C004_UHD_SDR_2K_AVC.mp4	0.0	137.42855072021484	
27	76.00753498077393	movie	1		169.0	25.0	2.5	/experiments/knapen_aot/videos/S_G007_C004_UHD_SDR_2K_AVC.mp4	0.0	137.43663477897644	2.5084328651428223
27	78.51596784591675	fix_post	2		12.0	25.0	2.5	/experiments/knapen_aot/videos/S_G007_C004_UHD_SDR_2K_AVC.mp4	0.0	139.94506764411926	0.10000109672546387
28	78.61596894264221	fix_pre	0		36.0	26.0	2.5	/experiments/knapen_aot/videos/R_S_comp_A007_C017_01156B_v02_SDR_PS_20180925_SDR_2K_AVC.mp4	0.0	140.04506874084473	0.300001859664917
28	78.90773391723633	response	0	2		26.0	2.5	/experiments/knapen_aot/videos/R_S_comp_A007_C017_01156B_v02_SDR_PS_20180925_SDR_2K_AVC.mp4	0.0	140.33683371543884	
28	78.91597080230713	movie	1		165.0	26.0	2.5	/experiments/knapen_aot/videos/R_S_comp_A007_C017_01156B_v02_SDR_PS_20180925_SDR_2K_AVC.mp4	0.0	140.34507060050964	2.508310079574585
28	81.42428088188171	fix_post	2		12.0	26.0	2.5	/experiments/knapen_aot/videos/R_S_comp_A007_C017_01156B_v02_SDR_PS_20180925_SDR_2K_AVC.mp4	0.0	142.85338068008423	0.09995102882385254
29	81.52423191070557	fix_pre	0		33.0	27.0	2.5	blank	1.0	142.95333170890808	0.2749159336090088
29	81.7910509109497	response	0	2		27.0	2.5	blank	1.0	143.22015070915222	
29	81.79914784431458	movie	1		301.0	27.0	2.5	blank	1.0	143.2282476425171	2.508439064025879
29	84.30758690834045	fix_post	2		12.0	27.0	2.5	blank	1.0	145.73668670654297	0.10001206398010254
30	84.40759897232056	fix_pre	0		49.0	28.0	2.5	/experiments/knapen_aot/videos/S_yt-Rsfo57AlpLA_332.mp4	0.0	145.83669877052307	0.40938782691955566
30	84.80768084526062	response	0	2		28.0	2.5	/experiments/knapen_aot/videos/S_yt-Rsfo57AlpLA_332.mp4	0.0	146.23678064346313	
30	84.81698679924011	movie	1		301.0	28.0	2.5	/experiments/knapen_aot/videos/S_yt-Rsfo57AlpLA_332.mp4	0.0	146.24608659744263	2.5072600841522217
30	87.32424688339233	fix_post	2		12.0	28.0	2.5	/experiments/knapen_aot/videos/S_yt-Rsfo57AlpLA_332.mp4	0.0	148.75334668159485	0.09994006156921387
31	87.42418694496155	fix_pre	0		41.0	29.0	2.5	/experiments/knapen_aot/videos/S_yt-5AI_SyK5sg8_112.mp4	0.0	148.85328674316406	0.34166598320007324
31	87.75766396522522	response	0	2		29.0	2.5	/experiments/knapen_aot/videos/S_yt-5AI_SyK5sg8_112.mp4	0.0	149.18676376342773	
31	87.76585292816162	movie	1		301.0	29.0	2.5	/experiments/knapen_aot/videos/S_yt-5AI_SyK5sg8_112.mp4	0.0	149.19495272636414	2.5083889961242676
31	90.27424192428589	fix_post	2		12.0	29.0	2.5	/experiments/knapen_aot/videos/S_yt-5AI_SyK5sg8_112.mp4	0.0	151.7033417224884	0.09990906715393066
32	90.37415099143982	fix_pre	0		41.0	30.0	2.5	/experiments/knapen_aot/videos/S_yt-AOP7QYQntPI_28.mp4	0.0	151.80325078964233	0.3417019844055176
32	90.70759987831116	response	0	2		30.0	2.5	/experiments/knapen_aot/videos/S_yt-AOP7QYQntPI_28.mp4	0.0	152.13669967651367	
32	90.71585297584534	movie	1		301.0	30.0	2.5	/experiments/knapen_aot/videos/S_yt-AOP7QYQntPI_28.mp4	0.0	152.14495277404785	2.5083539485931396
32	93.22420692443848	fix_post	2		12.0	30.0	2.5	/experiments/knapen_aot/videos/S_yt-AOP7QYQntPI_28.mp4	0.0	154.653306722641	0.09999489784240723
33	93.32420182228088	fix_pre	0		36.0	31.0	2.5	/experiments/knapen_aot/videos/R_S_yt-mmvWYAttrIw_2.mp4	0.0	154.7533016204834	0.30002403259277344
33	93.61601781845093	response	0	2		31.0	2.5	/experiments/knapen_aot/videos/R_S_yt-mmvWYAttrIw_2.mp4	0.0	155.04511761665344	
33	93.62422585487366	movie	1		301.0	31.0	2.5	/experiments/knapen_aot/videos/R_S_yt-mmvWYAttrIw_2.mp4	0.0	155.05332565307617	2.5083470344543457
33	96.132572889328	fix_post	2		12.0	31.0	2.5	/experiments/knapen_aot/videos/R_S_yt-mmvWYAttrIw_2.mp4	0.0	157.56167268753052	0.09993195533752441
34	96.23250484466553	fix_pre	0		45.0	32.0	2.5	/experiments/knapen_aot/videos/S_yt-GI8BEHw2Lq8_3.mp4	0.0	157.66160464286804	0.375885009765625
34	96.5991997718811	response	0	2		32.0	2.5	/experiments/knapen_aot/videos/S_yt-GI8BEHw2Lq8_3.mp4	0.0	158.02829957008362	
34	96.60838985443115	movie	1		301.0	32.0	2.5	/experiments/knapen_aot/videos/S_yt-GI8BEHw2Lq8_3.mp4	0.0	158.03748965263367	2.5075230598449707
34	99.11591291427612	fix_post	2		12.0	32.0	2.5	/experiments/knapen_aot/videos/S_yt-GI8BEHw2Lq8_3.mp4	0.0	160.54501271247864	0.09996199607849121
35	99.21587491035461	fix_pre	0		47.0	33.0	2.5	/experiments/knapen_aot/videos/S_yt-26obL-Z5obg_131.mp4	0.0	160.64497470855713	0.3925919532775879
35	99.59931182861328	response	0	2		33.0	2.5	/experiments/knapen_aot/videos/S_yt-26obL-Z5obg_131.mp4	0.0	161.0284116268158	
35	99.6084668636322	movie	1		301.0	33.0	2.5	/experiments/knapen_aot/videos/S_yt-26obL-Z5obg_131.mp4	0.0	161.03756666183472	2.507411003112793
35	102.115877866745	fix_post	2		12.0	33.0	2.5	/experiments/knapen_aot/videos/S_yt-26obL-Z5obg_131.mp4	0.0	163.5449776649475	0.10004997253417969
36	102.21592783927917	fix_pre	0		31.0	34.0	2.5	/experiments/knapen_aot/videos/R_S_yt-mdLT282PVbE_6.mp4	0.0	163.6450276374817	0.2581760883331299
36	102.46598196029663	response	0	2		34.0	2.5	/experiments/knapen_aot/videos/R_S_yt-mdLT282PVbE_6.mp4	0.0	163.89508175849915	
36	102.4741039276123	movie	1		301.0	34.0	2.5	/experiments/knapen_aot/videos/R_S_yt-mdLT282PVbE_6.mp4	0.0	163.90320372581482	2.508565902709961
36	104.98266983032227	fix_post	2		12.0	34.0	2.5	/experiments/knapen_aot/videos/R_S_yt-mdLT282PVbE_6.mp4	0.0	166.41176962852478	0.09982109069824219
37	105.08249092102051	fix_pre	0		43.0	35.0	2.5	blank	1.0	166.51159071922302	0.3583550453186035
37	105.43253684043884	response	0	2		35.0	2.5	blank	1.0	166.86163663864136	
37	105.44084596633911	movie	1		301.0	35.0	2.5	blank	1.0	166.86994576454163	2.508314847946167
37	107.94916081428528	fix_post	2		12.0	35.0	2.5	blank	1.0	169.3782606124878	0.10000395774841309
38	108.04916477203369	fix_pre	0		37.0	36.0	2.5	/experiments/knapen_aot/videos/S_yt-nE8YJOhW4e4_171.mp4	0.0	169.4782645702362	0.30915021896362305
38	108.34944486618042	response	0	2		36.0	2.5	/experiments/knapen_aot/videos/S_yt-nE8YJOhW4e4_171.mp4	0.0	169.77854466438293	
38	108.35831499099731	movie	1		301.0	36.0	2.5	/experiments/knapen_aot/videos/S_yt-nE8YJOhW4e4_171.mp4	0.0	169.78741478919983	2.507513999938965
38	110.86582899093628	fix_post	2		12.0	36.0	2.5	/experiments/knapen_aot/videos/S_yt-nE8YJOhW4e4_171.mp4	0.0	172.2949287891388	0.0999598503112793
39	110.96578884124756	fix_pre	0		45.0	37.0	2.5	/experiments/knapen_aot/videos/R_S_yt-h09NHEfoKb0_8.mp4	0.0	172.39488863945007	0.37499499320983887
39	111.33271384239197	response	0	2		37.0	2.5	/experiments/knapen_aot/videos/R_S_yt-h09NHEfoKb0_8.mp4	0.0	172.76181364059448	
39	111.3407838344574	movie	1		301.0	37.0	2.5	/experiments/knapen_aot/videos/R_S_yt-h09NHEfoKb0_8.mp4	0.0	172.7698836326599	2.5083470344543457
39	113.84913086891174	fix_post	2		12.0	37.0	2.5	/experiments/knapen_aot/videos/R_S_yt-h09NHEfoKb0_8.mp4	0.0	175.27823066711426	0.09998011589050293
40	113.94911098480225	fix_pre	0		50.0	38.0	2.5	/experiments/knapen_aot/videos/R_S_ILSVRC2015_test_00001002.mp4	0.0	175.37821078300476	0.4166598320007324
40	114.35754084587097	response	0	2		38.0	2.5	/experiments/knapen_aot/videos/R_S_ILSVRC2015_test_00001002.mp4	0.0	175.7866406440735	
40	114.36577081680298	movie	1		301.0	38.0	2.5	/experiments/knapen_aot/videos/R_S_ILSVRC2015_test_00001002.mp4	0.0	175.7948706150055	2.508329153060913
40	116.87409996986389	fix_post	2		12.0	38.0	2.5	/experiments/knapen_aot/videos/R_S_ILSVRC2015_test_00001002.mp4	0.0	178.3031997680664	0.10003280639648438
41	116.97413277626038	fix_pre	0		38.0	39.0	2.5	/experiments/knapen_aot/videos/S_yt-xCh0LI9VKeI_28.mp4	0.0	178.4032325744629	0.3165881633758545
41	117.28252077102661	response	0	2		39.0	2.5	/experiments/knapen_aot/videos/S_yt-xCh0LI9VKeI_28.mp4	0.0	178.71162056922913	
41	117.29072093963623	movie	1		301.0	39.0	2.5	/experiments/knapen_aot/videos/S_yt-xCh0LI9VKeI_28.mp4	0.0	178.71982073783875	2.508380889892578
41	119.79910182952881	fix_post	2		12.0	39.0	2.5	/experiments/knapen_aot/videos/S_yt-xCh0LI9VKeI_28.mp4	0.0	181.22820162773132	0.10002017021179199
42	119.8991219997406	fix_pre	0		31.0	40.0	2.5	/experiments/knapen_aot/videos/S_yt--DXkjCUzThU_413.mp4	0.0	181.32822179794312	0.2582838535308838
42	120.14911389350891	response	0	2		40.0	2.5	/experiments/knapen_aot/videos/S_yt--DXkjCUzThU_413.mp4	0.0	181.57821369171143	
42	120.15740585327148	movie	1		301.0	40.0	2.5	/experiments/knapen_aot/videos/S_yt--DXkjCUzThU_413.mp4	0.0	181.586505651474	2.5083401203155518
42	122.66574597358704	fix_post	2		12.0	40.0	2.5	/experiments/knapen_aot/videos/S_yt--DXkjCUzThU_413.mp4	0.0	184.09484577178955	0.10000991821289062
43	122.76575589179993	fix_pre	0		31.0	41.0	2.5	/experiments/knapen_aot/videos/R_S_nvbAwZOKBS8_23.mp4	0.0	184.19485569000244	0.25907111167907715
43	123.01587700843811	response	0	2		41.0	2.5	/experiments/knapen_aot/videos/R_S_nvbAwZOKBS8_23.mp4	0.0	184.44497680664062	
43	123.024827003479	movie	1		301.0	41.0	2.5	/experiments/knapen_aot/videos/R_S_nvbAwZOKBS8_23.mp4	0.0	184.45392680168152	2.507619857788086
43	125.53244686126709	fix_post	2		12.0	41.0	2.5	/experiments/knapen_aot/videos/R_S_nvbAwZOKBS8_23.mp4	0.0	186.9615466594696	0.10017704963684082
44	125.63262391090393	fix_pre	0		45.0	42.0	2.5	blank	1.0	187.06172370910645	0.3748209476470947
44	125.99922895431519	response	0	2		42.0	2.5	blank	1.0	187.4283287525177	
44	126.00744485855103	movie	1		301.0	42.0	2.5	blank	1.0	187.43654465675354	2.5082950592041016
44	128.51573991775513	fix_post	2		12.0	42.0	2.5	blank	1.0	189.94483971595764	0.10004186630249023
45	128.61578178405762	fix_pre	0		25.0	43.0	2.5	/experiments/knapen_aot/videos/R_S_ILSVRC2015_train_00723001.mp4	0.0	190.04488158226013	0.20827913284301758
45	128.81580090522766	response	0	2		43.0	2.5	/experiments/knapen_aot/videos/R_S_ILSVRC2015_train_00723001.mp4	0.0	190.24490070343018	
45	128.82406091690063	movie	1		301.0	43.0	2.5	/experiments/knapen_aot/videos/R_S_ILSVRC2015_train_00723001.mp4	0.0	190.25316071510315	2.508328914642334
45	131.33238983154297	fix_post	2		12.0	43.0	2.5	/experiments/knapen_aot/videos/R_S_ILSVRC2015_train_00723001.mp4	0.0	192.76148962974548	0.10002994537353516
46	131.4324197769165	fix_pre	0		40.0	44.0	2.5	/experiments/knapen_aot/videos/S_ILSVRC2015_train_00469000.mp4	0.0	192.86151957511902	0.33327817916870117
46	131.74997186660767	response	0	2		44.0	2.5	/experiments/knapen_aot/videos/S_ILSVRC2015_train_00469000.mp4	0.0	193.17907166481018	
46	131.7656979560852	movie	1		301.0	44.0	2.5	/experiments/knapen_aot/videos/S_ILSVRC2015_train_00469000.mp4	0.0	193.19479775428772	2.508340835571289
46	134.2740387916565	fix_post	2		12.0	44.0	2.5	/experiments/knapen_aot/videos/S_ILSVRC2015_train_00469000.mp4	0.0	195.703138589859	0.09999299049377441
47	134.37403178215027	fix_pre	0		35.0	45.0	2.5	/experiments/knapen_aot/videos/R_S_yt-tVfYnm81ywo_82.mp4	0.0	195.80313158035278	0.2916271686553955
47	134.65745091438293	response	0	2		45.0	2.5	/experiments/knapen_aot/videos/R_S_yt-tVfYnm81ywo_82.mp4	0.0	196.08655071258545	
47	134.66565895080566	movie	1		301.0	45.0	2.5	/experiments/knapen_aot/videos/R_S_yt-tVfYnm81ywo_82.mp4	0.0	196.09475874900818	2.508661985397339
47	137.174320936203	fix_post	2		12.0	45.0	2.5	/experiments/knapen_aot/videos/R_S_yt-tVfYnm81ywo_82.mp4	0.0	198.60342073440552	0.0998530387878418
48	137.27417397499084	fix_pre	0		36.0	46.0	2.5	/experiments/knapen_aot/videos/S_yt-HQQws1Lp_rQ_10.mp4	0.0	198.70327377319336	0.2998340129852295
48	137.5658299922943	response	0	2		46.0	2.5	/experiments/knapen_aot/videos/S_yt-HQQws1Lp_rQ_10.mp4	0.0	198.99492979049683	
48	137.57400798797607	movie	1		301.0	46.0	2.5	/experiments/knapen_aot/videos/S_yt-HQQws1Lp_rQ_10.mp4	0.0	199.0031077861786	2.5083868503570557
48	140.08239483833313	fix_post	2		12.0	46.0	2.5	/experiments/knapen_aot/videos/S_yt-HQQws1Lp_rQ_10.mp4	0.0	201.51149463653564	0.0999290943145752
49	140.1823239326477	fix_pre	0		24.0	47.0	2.5	/experiments/knapen_aot/videos/R_S_RS_A008_C010_SDR_20191218_SDR_2K_AVC.mp4	0.0	201.61142373085022	0.19993090629577637
49	140.3741488456726	response	0	2		47.0	2.5	/experiments/knapen_aot/videos/R_S_RS_A008_C010_SDR_20191218_SDR_2K_AVC.mp4	0.0	201.80324864387512	
49	140.38225483894348	movie	1		183.0	47.0	2.5	/experiments/knapen_aot/videos/R_S_RS_A008_C010_SDR_20191218_SDR_2K_AVC.mp4	0.0	201.811354637146	2.508527994155884
49	142.89078283309937	fix_post	2		12.0	47.0	2.5	/experiments/knapen_aot/videos/R_S_RS_A008_C010_SDR_20191218_SDR_2K_AVC.mp4	0.0	204.31988263130188	0.09996700286865234
50	142.99074983596802	fix_pre	0		70.0	48.0	2.5	/experiments/knapen_aot/videos/R_S_b6-4.mp4	0.0	204.41984963417053	0.5831470489501953
50	143.565819978714	response	0	2		48.0	2.5	/experiments/knapen_aot/videos/R_S_b6-4.mp4	0.0	204.9949197769165	
50	143.5738968849182	movie	1		168.0	48.0	2.5	/experiments/knapen_aot/videos/R_S_b6-4.mp4	0.0	205.00299668312073	2.5084779262542725
50	146.08237481117249	fix_post	2		12.0	48.0	2.5	/experiments/knapen_aot/videos/R_S_b6-4.mp4	0.0	207.511474609375	0.09998416900634766
51	146.18235898017883	fix_pre	0		37.0	49.0	2.5	blank	1.0	207.61145877838135	0.3081679344177246
51	146.48246383666992	response	0	2		49.0	2.5	blank	1.0	207.91156363487244	
51	146.49052691459656	movie	1		301.0	49.0	2.5	blank	1.0	207.91962671279907	2.5084009170532227
51	148.99892783164978	fix_post	2		12.0	49.0	2.5	blank	1.0	210.4280276298523	0.10004305839538574
52	149.09897089004517	fix_pre	0		63.0	50.0	2.5	/experiments/knapen_aot/videos/R_S_ILnEDG_aP1A_35.mp4	0.0	210.52807068824768	0.525001049041748
52	149.61573696136475	response	0	2		50.0	2.5	/experiments/knapen_aot/videos/R_S_ILnEDG_aP1A_35.mp4	0.0	211.04483675956726	
52	149.6239719390869	movie	1		301.0	50.0	2.5	/experiments/knapen_aot/videos/R_S_ILnEDG_aP1A_35.mp4	0.0	211.05307173728943	2.508363962173462
52	152.13233590126038	fix_post	2		12.0	50.0	2.5	/experiments/knapen_aot/videos/R_S_ILnEDG_aP1A_35.mp4	0.0	213.5614356994629	0.09996604919433594
53	152.2323019504547	fix_pre	0		56.0	51.0	2.5	/experiments/knapen_aot/videos/S_ILSVRC2015_train_00447000.mp4	0.0	213.66140174865723	0.46654796600341797
53	152.69076490402222	response	0	2		51.0	2.5	/experiments/knapen_aot/videos/S_ILSVRC2015_train_00447000.mp4	0.0	214.11986470222473	
53	152.69884991645813	movie	1		301.0	51.0	2.5	/experiments/knapen_aot/videos/S_ILSVRC2015_train_00447000.mp4	0.0	214.12794971466064	2.508424997329712
53	155.20727491378784	fix_post	2		12.0	51.0	2.5	/experiments/knapen_aot/videos/S_ILSVRC2015_train_00447000.mp4	0.0	216.63637471199036	0.1000509262084961
54	155.30732583999634	fix_pre	0		36.0	52.0	2.5	/experiments/knapen_aot/videos/S_yt-jy96-k8drRE_1.mp4	0.0	216.73642563819885	0.3006470203399658
54	155.5990297794342	response	0	2		52.0	2.5	/experiments/knapen_aot/videos/S_yt-jy96-k8drRE_1.mp4	0.0	217.02812957763672	
54	155.6079728603363	movie	1		301.0	52.0	2.5	/experiments/knapen_aot/videos/S_yt-jy96-k8drRE_1.mp4	0.0	217.03707265853882	2.507642984390259
54	158.11561584472656	fix_post	2		12.0	52.0	2.5	/experiments/knapen_aot/videos/S_yt-jy96-k8drRE_1.mp4	0.0	219.54471564292908	0.09999895095825195
55	158.21561479568481	fix_pre	0		43.0	53.0	2.5	/experiments/knapen_aot/videos/R_S_yt-rbJOb1spY9M_16.mp4	0.0	219.64471459388733	0.35833215713500977
55	158.56576585769653	response	0	2		53.0	2.5	/experiments/knapen_aot/videos/R_S_yt-rbJOb1spY9M_16.mp4	0.0	219.99486565589905	
55	158.57394695281982	movie	1		301.0	53.0	2.5	/experiments/knapen_aot/videos/R_S_yt-rbJOb1spY9M_16.mp4	0.0	220.00304675102234	2.508302927017212
55	161.08224987983704	fix_post	2		12.0	53.0	2.5	/experiments/knapen_aot/videos/R_S_yt-rbJOb1spY9M_16.mp4	0.0	222.51134967803955	0.1001129150390625
56	161.1823627948761	fix_pre	0		52.0	54.0	2.5	blank	1.0	222.6114625930786	0.43309712409973145
56	161.60738682746887	response	0	2		54.0	2.5	blank	1.0	223.0364866256714	
56	161.61545991897583	movie	1		301.0	54.0	2.5	blank	1.0	223.04455971717834	2.508373975753784
56	164.12383389472961	fix_post	2		12.0	54.0	2.5	blank	1.0	225.55293369293213	0.10008096694946289
57	164.22391486167908	fix_pre	0		56.0	55.0	2.5	/experiments/knapen_aot/videos/S_yt-McqS-QObQbk_122.mp4	0.0	225.6530146598816	0.4671509265899658
57	164.68230891227722	response	0	2		55.0	2.5	/experiments/knapen_aot/videos/S_yt-McqS-QObQbk_122.mp4	0.0	226.11140871047974	
57	164.69106578826904	movie	1		301.0	55.0	2.5	/experiments/knapen_aot/videos/S_yt-McqS-QObQbk_122.mp4	0.0	226.12016558647156	2.507829189300537
57	167.19889497756958	fix_post	2		12.0	55.0	2.5	/experiments/knapen_aot/videos/S_yt-McqS-QObQbk_122.mp4	0.0	228.6279947757721	0.10001683235168457
58	167.29891180992126	fix_pre	0		48.0	56.0	2.5	/experiments/knapen_aot/videos/R_S_yt-P8vJa4YVcGU_488.mp4	0.0	228.72801160812378	0.39994001388549805
58	167.6907548904419	response	0	2		56.0	2.5	/experiments/knapen_aot/videos/R_S_yt-P8vJa4YVcGU_488.mp4	0.0	229.1198546886444	
58	167.69885182380676	movie	1		301.0	56.0	2.5	/experiments/knapen_aot/videos/R_S_yt-P8vJa4YVcGU_488.mp4	0.0	229.12795162200928	2.5083510875701904
58	170.20720291137695	fix_post	2		12.0	56.0	2.5	/experiments/knapen_aot/videos/R_S_yt-P8vJa4YVcGU_488.mp4	0.0	231.63630270957947	0.10008597373962402
59	170.30728888511658	fix_pre	0		48.0	57.0	2.5	/experiments/knapen_aot/videos/R_S_yt-x7NWmdlvVIQ_183.mp4	0.0	231.7363886833191	0.3998849391937256
59	170.6989848613739	response	0	2		57.0	2.5	/experiments/knapen_aot/videos/R_S_yt-x7NWmdlvVIQ_183.mp4	0.0	232.12808465957642	
59	170.7071738243103	movie	1		301.0	57.0	2.5	/experiments/knapen_aot/videos/R_S_yt-x7NWmdlvVIQ_183.mp4	0.0	232.13627362251282	2.508334159851074
59	173.21550798416138	fix_post	2		12.0	57.0	2.5	/experiments/knapen_aot/videos/R_S_yt-x7NWmdlvVIQ_183.mp4	0.0	234.6446077823639	0.09996485710144043
60	173.31547284126282	fix_pre	0		57.0	58.0	2.5	/experiments/knapen_aot/videos/R_S_yt-gC3my54_ChQ_58.mp4	0.0	234.74457263946533	0.4750089645385742
60	173.78237295150757	response	0	2		58.0	2.5	/experiments/knapen_aot/videos/R_S_yt-gC3my54_ChQ_58.mp4	0.0	235.21147274971008	
60	173.7904818058014	movie	1		301.0	58.0	2.5	/experiments/knapen_aot/videos/R_S_yt-gC3my54_ChQ_58.mp4	0.0	235.2195816040039	2.508402109146118
60	176.2988839149475	fix_post	2		12.0	58.0	2.5	/experiments/knapen_aot/videos/R_S_yt-gC3my54_ChQ_58.mp4	0.0	237.72798371315002	0.10004806518554688
61	176.39893198013306	fix_pre	0		57.0	59.0	2.5	/experiments/knapen_aot/videos/S_yt-OPzchvF7jO8_53.mp4	0.0	237.82803177833557	0.4749269485473633
61	176.8656759262085	response	0	2		59.0	2.5	/experiments/knapen_aot/videos/S_yt-OPzchvF7jO8_53.mp4	0.0	238.294775724411	
61	176.87385892868042	movie	1		301.0	59.0	2.5	/experiments/knapen_aot/videos/S_yt-OPzchvF7jO8_53.mp4	0.0	238.30295872688293	2.508310079574585
61	179.382169008255	fix_post	2		12.0	59.0	2.5	/experiments/knapen_aot/videos/S_yt-OPzchvF7jO8_53.mp4	0.0	240.81126880645752	0.10003876686096191
62	179.48220777511597	fix_pre	0		53.0	60.0	2.5	/experiments/knapen_aot/videos/S_yt-Iu2ZPHLqXuY_32.mp4	0.0	240.91130757331848	0.4417150020599365
62	179.91562581062317	response	0	2		60.0	2.5	/experiments/knapen_aot/videos/S_yt-Iu2ZPHLqXuY_32.mp4	0.0	241.34472560882568	
62	179.9239227771759	movie	1		301.0	60.0	2.5	/experiments/knapen_aot/videos/S_yt-Iu2ZPHLqXuY_32.mp4	0.0	241.35302257537842	2.5082452297210693
62	182.43216800689697	fix_post	2		12.0	60.0	2.5	/experiments/knapen_aot/videos/S_yt-Iu2ZPHLqXuY_32.mp4	0.0	243.8612678050995	0.09999489784240723
63	182.53216290473938	fix_pre	0		43.0	61.0	2.5	/experiments/knapen_aot/videos/S_nvbAwZOKBS8_23.mp4	0.0	243.9612627029419	0.35829591751098633
63	182.88224577903748	response	0	2		61.0	2.5	/experiments/knapen_aot/videos/S_nvbAwZOKBS8_23.mp4	0.0	244.31134557724	
63	182.89045882225037	movie	1		301.0	61.0	2.5	/experiments/knapen_aot/videos/S_nvbAwZOKBS8_23.mp4	0.0	244.31955862045288	2.5085320472717285
63	185.3989908695221	fix_post	2		12.0	61.0	2.5	/experiments/knapen_aot/videos/S_nvbAwZOKBS8_23.mp4	0.0	246.8280906677246	0.09982490539550781
64	185.4988157749176	fix_pre	0		35.0	62.0	2.5	blank	1.0	246.92791557312012	0.2916431427001953
64	185.78221988677979	response	0	2		62.0	2.5	blank	1.0	247.2113196849823	
64	185.7904589176178	movie	1		301.0	62.0	2.5	blank	1.0	247.2195587158203	2.508298873901367
64	188.29875779151917	fix_post	2		12.0	62.0	2.5	blank	1.0	249.72785758972168	0.10005712509155273
65	188.39881491661072	fix_pre	0		51.0	63.0	2.5	/experiments/knapen_aot/videos/R_S_yt-3eQHOLBzOqA_100.mp4	0.0	249.82791471481323	0.4249229431152344
65	188.81562685966492	response	0	2		63.0	2.5	/experiments/knapen_aot/videos/R_S_yt-3eQHOLBzOqA_100.mp4	0.0	250.24472665786743	
65	188.82373785972595	movie	1		301.0	63.0	2.5	/experiments/knapen_aot/videos/R_S_yt-3eQHOLBzOqA_100.mp4	0.0	250.25283765792847	2.508439064025879
65	191.33217692375183	fix_post	2		12.0	63.0	2.5	/experiments/knapen_aot/videos/R_S_yt-3eQHOLBzOqA_100.mp4	0.0	252.76127672195435	0.09988784790039062
66	191.43206477165222	fix_pre	0		42.0	64.0	2.5	/experiments/knapen_aot/videos/R_S_nvbAwZOKBS8_23.mp4	0.0	252.86116456985474	0.35004210472106934
66	191.77393293380737	response	0	2		64.0	2.5	/experiments/knapen_aot/videos/R_S_nvbAwZOKBS8_23.mp4	0.0	253.2030327320099	
66	191.7821068763733	movie	1		301.0	64.0	2.5	/experiments/knapen_aot/videos/R_S_nvbAwZOKBS8_23.mp4	0.0	253.2112066745758	2.508273124694824
66	194.29038000106812	fix_post	2		12.0	64.0	2.5	/experiments/knapen_aot/videos/R_S_nvbAwZOKBS8_23.mp4	0.0	255.71947979927063	0.10004687309265137
67	194.39042687416077	fix_pre	0		64.0	65.0	2.5	/experiments/knapen_aot/videos/S_yt-z68VLDDCFdw_93.mp4	0.0	255.81952667236328	0.5333120822906494
67	194.91553282737732	response	0	2		65.0	2.5	/experiments/knapen_aot/videos/S_yt-z68VLDDCFdw_93.mp4	0.0	256.34463262557983	
67	194.92373895645142	movie	1		301.0	65.0	2.5	/experiments/knapen_aot/videos/S_yt-z68VLDDCFdw_93.mp4	0.0	256.35283875465393	2.508431911468506
67	197.43217086791992	fix_post	2		12.0	65.0	2.5	/experiments/knapen_aot/videos/S_yt-z68VLDDCFdw_93.mp4	0.0	258.86127066612244	0.09994292259216309
68	197.53211379051208	fix_pre	0		54.0	66.0	2.5	/experiments/knapen_aot/videos/S_yt-Q6BFO3Yz0zY_363.mp4	0.0	258.9612135887146	0.4503211975097656
68	197.97378396987915	response	0	2		66.0	2.5	/experiments/knapen_aot/videos/S_yt-Q6BFO3Yz0zY_363.mp4	0.0	259.40288376808167	
68	197.98243498802185	movie	1		301.0	66.0	2.5	/experiments/knapen_aot/videos/S_yt-Q6BFO3Yz0zY_363.mp4	0.0	259.41153478622437	2.5079967975616455
68	200.4904317855835	fix_post	2		12.0	66.0	2.5	/experiments/knapen_aot/videos/S_yt-Q6BFO3Yz0zY_363.mp4	0.0	261.919531583786	0.09991121292114258
69	200.59034299850464	fix_pre	0		37.0	67.0	2.5	/experiments/knapen_aot/videos/R_S_ILSVRC2015_train_00373000.mp4	0.0	262.01944279670715	0.3087499141693115
69	200.8904459476471	response	0	2		67.0	2.5	/experiments/knapen_aot/videos/R_S_ILSVRC2015_train_00373000.mp4	0.0	262.3195457458496	
69	200.89909291267395	movie	1		301.0	67.0	2.5	/experiments/knapen_aot/videos/R_S_ILSVRC2015_train_00373000.mp4	0.0	262.32819271087646	2.5080060958862305
69	203.40709900856018	fix_post	2		12.0	67.0	2.5	/experiments/knapen_aot/videos/R_S_ILSVRC2015_train_00373000.mp4	0.0	264.8361988067627	0.09995698928833008
70	203.5070559978485	fix_pre	0		36.0	68.0	2.5	/experiments/knapen_aot/videos/S_Pexels_Videos_2795731_1.mp4	0.0	264.936155796051	0.2999598979949951
70	203.79881286621094	response	0	2		68.0	2.5	/experiments/knapen_aot/videos/S_Pexels_Videos_2795731_1.mp4	0.0	265.22791266441345	
70	203.8070158958435	movie	1		169.0	68.0	2.5	/experiments/knapen_aot/videos/S_Pexels_Videos_2795731_1.mp4	0.0	265.236115694046	2.5084218978881836
70	206.3154377937317	fix_post	2		12.0	68.0	2.5	/experiments/knapen_aot/videos/S_Pexels_Videos_2795731_1.mp4	0.0	267.7445375919342	0.09990215301513672
71	206.41533994674683	fix_pre	0		46.0	69.0	2.5	blank	1.0	267.84443974494934	0.38333892822265625
71	206.7904999256134	response	0	2		69.0	2.5	blank	1.0	268.2195997238159	
71	206.79867887496948	movie	1		301.0	69.0	2.5	blank	1.0	268.227778673172	2.508315086364746
71	209.30699396133423	fix_post	2		12.0	69.0	2.5	blank	1.0	270.73609375953674	0.10006189346313477
72	209.40705585479736	fix_pre	0		53.0	70.0	2.5	/experiments/knapen_aot/videos/R_S_yt-wE0cEswyaaM_53.mp4	0.0	270.8361556529999	0.44167304039001465
72	209.84049892425537	response	0	2		70.0	2.5	/experiments/knapen_aot/videos/R_S_yt-wE0cEswyaaM_53.mp4	0.0	271.2695987224579	
72	209.84872889518738	movie	1		301.0	70.0	2.5	/experiments/knapen_aot/videos/R_S_yt-wE0cEswyaaM_53.mp4	0.0	271.2778286933899	2.5086538791656494
72	212.35738277435303	fix_post	2		12.0	70.0	2.5	/experiments/knapen_aot/videos/R_S_yt-wE0cEswyaaM_53.mp4	0.0	273.78648257255554	0.09958004951477051
73	212.4569628238678	fix_pre	0		48.0	71.0	2.5	/experiments/knapen_aot/videos/S_yt-r2jZ0zZrqzQ_45.mp4	0.0	273.8860626220703	0.40038013458251953
73	212.84877490997314	response	0	2		71.0	2.5	/experiments/knapen_aot/videos/S_yt-r2jZ0zZrqzQ_45.mp4	0.0	274.27787470817566	
73	212.85734295845032	movie	1		301.0	71.0	2.5	/experiments/knapen_aot/videos/S_yt-r2jZ0zZrqzQ_45.mp4	0.0	274.28644275665283	2.508028984069824
73	215.36537194252014	fix_post	2		12.0	71.0	2.5	/experiments/knapen_aot/videos/S_yt-r2jZ0zZrqzQ_45.mp4	0.0	276.79447174072266	0.09998703002929688
74	215.46535897254944	fix_pre	0		44.0	72.0	2.5	/experiments/knapen_aot/videos/R_S_pexels-c-technical-6763571.mp4	0.0	276.89445877075195	0.36661601066589355
74	215.82379794120789	response	0	2		72.0	2.5	/experiments/knapen_aot/videos/R_S_pexels-c-technical-6763571.mp4	0.0	277.2528977394104	
74	215.83197498321533	movie	1		197.0	72.0	2.5	/experiments/knapen_aot/videos/R_S_pexels-c-technical-6763571.mp4	0.0	277.26107478141785	2.5083799362182617
74	218.3403549194336	fix_post	2		12.0	72.0	2.5	/experiments/knapen_aot/videos/R_S_pexels-c-technical-6763571.mp4	0.0	279.7694547176361	0.10026407241821289
75	218.4406189918518	fix_pre	0		55.0	73.0	2.5	/experiments/knapen_aot/videos/S_production_ID_5049072.mp4	0.0	279.8697187900543	0.45835185050964355
75	218.8904619216919	response	0	2		73.0	2.5	/experiments/knapen_aot/videos/S_production_ID_5049072.mp4	0.0	280.3195617198944	
75	218.89897084236145	movie	1		168.0	73.0	2.5	/experiments/knapen_aot/videos/S_production_ID_5049072.mp4	0.0	280.32807064056396	2.50805401802063
75	221.40702486038208	fix_post	2		12.0	73.0	2.5	/experiments/knapen_aot/videos/S_production_ID_5049072.mp4	0.0	282.8361246585846	0.10000205039978027
76	221.50702691078186	fix_pre	0		38.0	74.0	2.5	/experiments/knapen_aot/videos/S_RS_A008_C010_SDR_20191218_SDR_2K_AVC.mp4	0.0	282.9361267089844	0.31656908988952637
76	221.80803680419922	response	0	2		74.0	2.5	/experiments/knapen_aot/videos/S_RS_A008_C010_SDR_20191218_SDR_2K_AVC.mp4	0.0	283.23713660240173	
76	221.8235960006714	movie	1		171.0	74.0	2.5	/experiments/knapen_aot/videos/S_RS_A008_C010_SDR_20191218_SDR_2K_AVC.mp4	0.0	283.2526957988739	2.5084409713745117
76	224.3320369720459	fix_post	2		12.0	74.0	2.5	/experiments/knapen_aot/videos/S_RS_A008_C010_SDR_20191218_SDR_2K_AVC.mp4	0.0	285.7611367702484	0.09994792938232422
77	224.43198490142822	fix_pre	0		41.0	75.0	2.5	blank	1.0	285.86108469963074	0.3418900966644287
77	224.76534986495972	response	0	2		75.0	2.5	blank	1.0	286.19444966316223	
77	224.77387499809265	movie	1		301.0	75.0	2.5	blank	1.0	286.20297479629517	2.508129835128784
77	227.28200483322144	fix_post	2		12.0	75.0	2.5	blank	1.0	288.71110463142395	0.09993505477905273
78	227.3819398880005	fix_pre	0		57.0	76.0	2.5	/experiments/knapen_aot/videos/R_S_yt-3ohvpS42xug_184.mp4	0.0	288.811039686203	0.47519707679748535
78	227.8486669063568	response	0	2		76.0	2.5	/experiments/knapen_aot/videos/R_S_yt-3ohvpS42xug_184.mp4	0.0	289.2777667045593	
78	227.85713696479797	movie	1		301.0	76.0	2.5	/experiments/knapen_aot/videos/R_S_yt-3ohvpS42xug_184.mp4	0.0	289.2862367630005	2.5081329345703125
78	230.3652698993683	fix_post	2		12.0	76.0	2.5	/experiments/knapen_aot/videos/R_S_yt-3ohvpS42xug_184.mp4	0.0	291.7943696975708	0.10001897811889648
79	230.46528887748718	fix_pre	0		46.0	77.0	2.5	/experiments/knapen_aot/videos/S_ILSVRC2015_train_00373000.mp4	0.0	291.8943886756897	0.3833329677581787
79	230.84047484397888	response	0	2		77.0	2.5	/experiments/knapen_aot/videos/S_ILSVRC2015_train_00373000.mp4	0.0	292.2695746421814	
79	230.84862184524536	movie	1		301.0	77.0	2.5	/experiments/knapen_aot/videos/S_ILSVRC2015_train_00373000.mp4	0.0	292.2777216434479	2.5085649490356445
79	233.357186794281	fix_post	2		12.0	77.0	2.5	/experiments/knapen_aot/videos/S_ILSVRC2015_train_00373000.mp4	0.0	294.7862865924835	0.09985113143920898
80	233.45703792572021	fix_pre	0		62.0	78.0	2.5	/experiments/knapen_aot/videos/R_S_video-2_copy.mp4	0.0	294.88613772392273	0.5165698528289795
80	233.96542477607727	response	0	2		78.0	2.5	/experiments/knapen_aot/videos/R_S_video-2_copy.mp4	0.0	295.3945245742798	
80	233.9736077785492	movie	1		165.0	78.0	2.5	/experiments/knapen_aot/videos/R_S_video-2_copy.mp4	0.0	295.4027075767517	2.508894205093384
80	236.48250198364258	fix_post	2		12.0	78.0	2.5	/experiments/knapen_aot/videos/R_S_video-2_copy.mp4	0.0	297.9116017818451	0.09942483901977539
81	236.58192682266235	fix_pre	0		38.0	79.0	2.5	/experiments/knapen_aot/videos/R_S_ILnEDG_aP1A_35.mp4	0.0	298.01102662086487	0.31685400009155273
81	236.89038681983948	response	0	2		79.0	2.5	/experiments/knapen_aot/videos/R_S_ILnEDG_aP1A_35.mp4	0.0	298.319486618042	
81	236.8987808227539	movie	1		301.0	79.0	2.5	/experiments/knapen_aot/videos/R_S_ILnEDG_aP1A_35.mp4	0.0	298.3278806209564	2.5082011222839355
81	239.40698194503784	fix_post	2		12.0	79.0	2.5	/experiments/knapen_aot/videos/R_S_ILnEDG_aP1A_35.mp4	0.0	300.83608174324036	0.09990692138671875
82	239.50688886642456	fix_pre	0		40.0	80.0	2.5	/experiments/knapen_aot/videos/S_yt-ThT8utBaywI_68.mp4	0.0	300.9359886646271	0.33328700065612793
82	239.83205795288086	response	0	2		80.0	2.5	/experiments/knapen_aot/videos/S_yt-ThT8utBaywI_68.mp4	0.0	301.2611577510834	
82	239.8401758670807	movie	1		301.0	80.0	2.5	/experiments/knapen_aot/videos/S_yt-ThT8utBaywI_68.mp4	0.0	301.2692756652832	2.5083370208740234
82	242.3485128879547	fix_post	2		12.0	80.0	2.5	/experiments/knapen_aot/videos/S_yt-ThT8utBaywI_68.mp4	0.0	303.7776126861572	0.1000509262084961
83	242.4485638141632	fix_pre	0		41.0	81.0	2.5	/experiments/knapen_aot/videos/S_I003_C008_SDR_2K_AVC.mp4	0.0	303.8776636123657	0.34161806106567383
83	242.78200387954712	response	0	2		81.0	2.5	/experiments/knapen_aot/videos/S_I003_C008_SDR_2K_AVC.mp4	0.0	304.21110367774963	
83	242.79018187522888	movie	1		173.0	81.0	2.5	/experiments/knapen_aot/videos/S_I003_C008_SDR_2K_AVC.mp4	0.0	304.2192816734314	2.508366107940674
83	245.29854798316956	fix_post	2		12.0	81.0	2.5	/experiments/knapen_aot/videos/S_I003_C008_SDR_2K_AVC.mp4	0.0	306.72764778137207	0.10050582885742188
84	245.39905381202698	fix_pre	0		52.0	82.0	2.5	/experiments/knapen_aot/videos/S_comp_GL_G002_C002_PSNK_v03_SDR_PS_20180925_SDR_2K_AVC.mp4	0.0	306.8281536102295	0.4327991008758545
84	245.82362580299377	response	0	2		82.0	2.5	/experiments/knapen_aot/videos/S_comp_GL_G002_C002_PSNK_v03_SDR_PS_20180925_SDR_2K_AVC.mp4	0.0	307.2527256011963	
84	245.83185291290283	movie	1		167.0	82.0	2.5	/experiments/knapen_aot/videos/S_comp_GL_G002_C002_PSNK_v03_SDR_PS_20180925_SDR_2K_AVC.mp4	0.0	307.26095271110535	2.5083858966827393
84	248.34023880958557	fix_post	2		12.0	82.0	2.5	/experiments/knapen_aot/videos/S_comp_GL_G002_C002_PSNK_v03_SDR_PS_20180925_SDR_2K_AVC.mp4	0.0	309.7693386077881	0.10016202926635742
85	248.44040083885193	fix_pre	0		38.0	83.0	2.5	blank	1.0	309.86950063705444	0.31661200523376465
85	248.74855995178223	response	0	2		83.0	2.5	blank	1.0	310.17765974998474	
85	248.7570128440857	movie	1		301.0	83.0	2.5	blank	1.0	310.1861126422882	2.508213996887207
85	251.2652268409729	fix_post	2		12.0	83.0	2.5	blank	1.0	312.6943266391754	0.0999760627746582
87	251.36520290374756	stim	0		157.0					312.7943027019501	1.3112869262695312
87	252.6700267791748	response	0	space						314.0991265773773	
