trial_nr	onset	event_type	phase	response	nr_frames	movie_index	movie_duration	movie_file	blank	onset_abs	duration
0	0.1642770767211914	stim	0		44.0					88.36185693740845	0.3663918972015381
0	0.5225450992584229	response	0	space						88.72012495994568	
1	0.5306689739227295	stim	0		121.0					88.72824883460999	1.0081021785736084
1	1.0650520324707031	response	0	space						89.26263189315796	
1	1.538771152496338	stim	1		120.0					89.7363510131836	1.0000770092010498
1	1.6221489906311035	response	1	space						89.81972885131836	
1	2.08880615234375	response	1	space						90.286386013031	
2	2.5388481616973877	fix_pre	0		33.0	0.0	2.5	/experiments/knapen_aot/oldvideos/S_comp_A105_C002_v06_SDR_FINAL_25062018_SDR_2K_AVC.mp4	0.0	90.73642802238464	0.27488088607788086
2	2.805443048477173	response	0	space		0.0	2.5	/experiments/knapen_aot/oldvideos/S_comp_A105_C002_v06_SDR_FINAL_25062018_SDR_2K_AVC.mp4	0.0	91.00302290916443	
2	2.8137290477752686	movie	1		167.0	0.0	2.5	/experiments/knapen_aot/oldvideos/S_comp_A105_C002_v06_SDR_FINAL_25062018_SDR_2K_AVC.mp4	0.0	91.01130890846252	2.5083210468292236
2	5.322050094604492	fix_post	2		11.0	0.0	2.5	/experiments/knapen_aot/oldvideos/S_comp_A105_C002_v06_SDR_FINAL_25062018_SDR_2K_AVC.mp4	0.0	93.51962995529175	0.09424591064453125
2	5.401600122451782	response	2	4		0.0	2.5	/experiments/knapen_aot/oldvideos/S_comp_A105_C002_v06_SDR_FINAL_25062018_SDR_2K_AVC.mp4	0.0	93.59917998313904	
3	5.416296005249023	fix_pre	0		185.0	1.0	2.5	/experiments/knapen_aot/oldvideos/R_S_yt-JTVyt-eu4VI_1.mp4	0.0	93.61387586593628	1.5390491485595703
3	6.94714617729187	response	0	4		1.0	2.5	/experiments/knapen_aot/oldvideos/R_S_yt-JTVyt-eu4VI_1.mp4	0.0	95.14472603797913	
3	6.955345153808594	movie	1		301.0	1.0	2.5	/experiments/knapen_aot/oldvideos/R_S_yt-JTVyt-eu4VI_1.mp4	0.0	95.15292501449585	2.508430004119873
3	9.463775157928467	fix_post	2		12.0	1.0	2.5	/experiments/knapen_aot/oldvideos/R_S_yt-JTVyt-eu4VI_1.mp4	0.0	97.66135501861572	0.09988689422607422
4	9.563662052154541	fix_pre	0		27.0	2.0	2.5	/experiments/knapen_aot/oldvideos/R_S_yt-tEzCpMrjOHs_24.mp4	0.0	97.7612419128418	0.22501611709594727
4	9.780563116073608	response	0	4		2.0	2.5	/experiments/knapen_aot/oldvideos/R_S_yt-tEzCpMrjOHs_24.mp4	0.0	97.97814297676086	
4	9.788678169250488	movie	1		301.0	2.0	2.5	/experiments/knapen_aot/oldvideos/R_S_yt-tEzCpMrjOHs_24.mp4	0.0	97.98625802993774	2.5083558559417725
4	12.29703402519226	fix_post	2		12.0	2.0	2.5	/experiments/knapen_aot/oldvideos/R_S_yt-tEzCpMrjOHs_24.mp4	0.0	100.49461388587952	0.10008406639099121
5	12.397118091583252	fix_pre	0		23.0	3.0	2.5	/experiments/knapen_aot/oldvideos/R_S_yt-h8wy6x6oytA_25.mp4	0.0	100.59469795227051	0.19277501106262207
5	12.580483198165894	response	0	4		3.0	2.5	/experiments/knapen_aot/oldvideos/R_S_yt-h8wy6x6oytA_25.mp4	0.0	100.77806305885315	
5	12.589893102645874	movie	1		301.0	3.0	2.5	/experiments/knapen_aot/oldvideos/R_S_yt-h8wy6x6oytA_25.mp4	0.0	100.78747296333313	2.507101058959961
5	15.096994161605835	fix_post	2		12.0	3.0	2.5	/experiments/knapen_aot/oldvideos/R_S_yt-h8wy6x6oytA_25.mp4	0.0	103.29457402229309	0.10001802444458008
6	15.197012186050415	fix_pre	0		15.0	4.0	2.5	/experiments/knapen_aot/oldvideos/R_S_3WAnGcPubBY_179.mp4	0.0	103.39459204673767	0.12495279312133789
6	15.31373906135559	response	0	4		4.0	2.5	/experiments/knapen_aot/oldvideos/R_S_3WAnGcPubBY_179.mp4	0.0	103.51131892204285	
6	15.321964979171753	movie	1		301.0	4.0	2.5	/experiments/knapen_aot/oldvideos/R_S_3WAnGcPubBY_179.mp4	0.0	103.51954483985901	2.508263111114502
6	17.830228090286255	fix_post	2		12.0	4.0	2.5	/experiments/knapen_aot/oldvideos/R_S_3WAnGcPubBY_179.mp4	0.0	106.02780795097351	0.1000969409942627
7	17.930325031280518	fix_pre	0		30.0	5.0	2.5	blank	1.0	106.12790489196777	0.24994206428527832
7	18.172097206115723	response	0	4		5.0	2.5	blank	1.0	106.36967706680298	
7	18.180267095565796	movie	1		301.0	5.0	2.5	blank	1.0	106.37784695625305	2.508296012878418
7	20.688563108444214	fix_post	2		12.0	5.0	2.5	blank	1.0	108.88614296913147	0.10004591941833496
8	20.78860902786255	fix_pre	0		32.0	6.0	2.5	/experiments/knapen_aot/oldvideos/S_pexels-c-technical-6753390.mp4	0.0	108.9861888885498	0.2666051387786865
8	21.0470130443573	response	0	4		6.0	2.5	/experiments/knapen_aot/oldvideos/S_pexels-c-technical-6753390.mp4	0.0	109.24459290504456	
8	21.055214166641235	movie	1		197.0	6.0	2.5	/experiments/knapen_aot/oldvideos/S_pexels-c-technical-6753390.mp4	0.0	109.25279402732849	2.508394956588745
8	23.56360912322998	fix_post	2		12.0	6.0	2.5	/experiments/knapen_aot/oldvideos/S_pexels-c-technical-6753390.mp4	0.0	111.76118898391724	0.09999585151672363
9	23.663604974746704	fix_pre	0		13.0	7.0	2.5	/experiments/knapen_aot/oldvideos/R_S_yt-okYy5Md2U8I_7.mp4	0.0	111.86118483543396	0.10827803611755371
9	23.763769149780273	response	0	4		7.0	2.5	/experiments/knapen_aot/oldvideos/R_S_yt-okYy5Md2U8I_7.mp4	0.0	111.96134901046753	
9	23.771883010864258	movie	1		301.0	7.0	2.5	/experiments/knapen_aot/oldvideos/R_S_yt-okYy5Md2U8I_7.mp4	0.0	111.96946287155151	2.5083231925964355
9	26.280206203460693	fix_post	2		12.0	7.0	2.5	/experiments/knapen_aot/oldvideos/R_S_yt-okYy5Md2U8I_7.mp4	0.0	114.47778606414795	0.10003781318664551
10	26.38024401664734	fix_pre	0		13.0	8.0	2.5	/experiments/knapen_aot/oldvideos/R_S_yt-mdxs8FCKLFc_232.mp4	0.0	114.5778238773346	0.10830497741699219
10	26.480308055877686	response	0	4		8.0	2.5	/experiments/knapen_aot/oldvideos/R_S_yt-mdxs8FCKLFc_232.mp4	0.0	114.67788791656494	
10	26.48854899406433	movie	1		301.0	8.0	2.5	/experiments/knapen_aot/oldvideos/R_S_yt-mdxs8FCKLFc_232.mp4	0.0	114.68612885475159	2.508404016494751
10	28.996953010559082	fix_post	2		12.0	8.0	2.5	/experiments/knapen_aot/oldvideos/R_S_yt-mdxs8FCKLFc_232.mp4	0.0	117.19453287124634	0.09998297691345215
11	29.096935987472534	fix_pre	0		10.0	9.0	2.5	/experiments/knapen_aot/oldvideos/S_yt-BLmwmX-mni8_1030.mp4	0.0	117.29451584815979	0.08327603340148926
11	29.171941995620728	response	0	4		9.0	2.5	/experiments/knapen_aot/oldvideos/S_yt-BLmwmX-mni8_1030.mp4	0.0	117.36952185630798	
11	29.180212020874023	movie	1		301.0	9.0	2.5	/experiments/knapen_aot/oldvideos/S_yt-BLmwmX-mni8_1030.mp4	0.0	117.37779188156128	2.508376121520996
11	31.68858814239502	fix_post	2		12.0	9.0	2.5	/experiments/knapen_aot/oldvideos/S_yt-BLmwmX-mni8_1030.mp4	0.0	119.88616800308228	0.09997105598449707
12	31.788559198379517	fix_pre	0		13.0	10.0	2.5	/experiments/knapen_aot/oldvideos/R_S_comp_GMT308_139K_142NC_CARIBBEAN_DAY_v09_SDR_FINAL_22062018_SDR_2K_AVC.mp4	0.0	119.98613905906677	0.10835981369018555
12	31.88117003440857	response	0	4		10.0	2.5	/experiments/knapen_aot/oldvideos/R_S_comp_GMT308_139K_142NC_CARIBBEAN_DAY_v09_SDR_FINAL_22062018_SDR_2K_AVC.mp4	0.0	120.07874989509583	
12	31.896919012069702	movie	1		172.0	10.0	2.5	/experiments/knapen_aot/oldvideos/R_S_comp_GMT308_139K_142NC_CARIBBEAN_DAY_v09_SDR_FINAL_22062018_SDR_2K_AVC.mp4	0.0	120.09449887275696	2.5084071159362793
12	34.40532612800598	fix_post	2		12.0	10.0	2.5	/experiments/knapen_aot/oldvideos/R_S_comp_GMT308_139K_142NC_CARIBBEAN_DAY_v09_SDR_FINAL_22062018_SDR_2K_AVC.mp4	0.0	122.60290598869324	0.09988903999328613
12	34.4552640914917	response	2	4		10.0	2.5	/experiments/knapen_aot/oldvideos/R_S_comp_GMT308_139K_142NC_CARIBBEAN_DAY_v09_SDR_FINAL_22062018_SDR_2K_AVC.mp4	0.0	122.65284395217896	
13	34.50521516799927	fix_pre	0		232.0	11.0	2.5	/experiments/knapen_aot/oldvideos/R_S_Pexels_Videos_278654_1.mp4	0.0	122.70279502868652	1.9332988262176514
13	36.43039298057556	response	0	2		11.0	2.5	/experiments/knapen_aot/oldvideos/R_S_Pexels_Videos_278654_1.mp4	0.0	124.62797284126282	
13	36.43851399421692	movie	1		166.0	11.0	2.5	/experiments/knapen_aot/oldvideos/R_S_Pexels_Videos_278654_1.mp4	0.0	124.63609385490417	2.5083751678466797
13	38.9468891620636	fix_post	2		12.0	11.0	2.5	/experiments/knapen_aot/oldvideos/R_S_Pexels_Videos_278654_1.mp4	0.0	127.14446902275085	0.09995484352111816
14	39.04684400558472	fix_pre	0		11.0	12.0	2.5	/experiments/knapen_aot/oldvideos/S_ILSVRC2015_train_00418001.mp4	0.0	127.24442386627197	0.09167909622192383
14	39.122767210006714	response	0	2		12.0	2.5	/experiments/knapen_aot/oldvideos/S_ILSVRC2015_train_00418001.mp4	0.0	127.32034707069397	
14	39.13852310180664	movie	1		301.0	12.0	2.5	/experiments/knapen_aot/oldvideos/S_ILSVRC2015_train_00418001.mp4	0.0	127.3361029624939	2.5084760189056396
14	41.64699912071228	fix_post	2		12.0	12.0	2.5	/experiments/knapen_aot/oldvideos/S_ILSVRC2015_train_00418001.mp4	0.0	129.84457898139954	0.09976005554199219
15	41.74675917625427	fix_pre	0		11.0	13.0	2.5	blank	1.0	129.94433903694153	0.09172487258911133
15	41.83027100563049	response	0	2		13.0	2.5	blank	1.0	130.02785086631775	
15	41.838484048843384	movie	1		301.0	13.0	2.5	blank	1.0	130.03606390953064	2.5083351135253906
15	44.346819162368774	fix_post	2		12.0	13.0	2.5	blank	1.0	132.54439902305603	0.10005593299865723
16	44.44687509536743	fix_pre	0		32.0	14.0	2.5	/experiments/knapen_aot/oldvideos/R_S_yt-jcuaf9iSEkI_169.mp4	0.0	132.6444549560547	0.26776695251464844
16	44.705443143844604	response	0	2		14.0	2.5	/experiments/knapen_aot/oldvideos/R_S_yt-jcuaf9iSEkI_169.mp4	0.0	132.90302300453186	
16	44.71464204788208	movie	1		301.0	14.0	2.5	/experiments/knapen_aot/oldvideos/R_S_yt-jcuaf9iSEkI_169.mp4	0.0	132.91222190856934	2.507148027420044
16	47.221790075302124	fix_post	2		12.0	14.0	2.5	/experiments/knapen_aot/oldvideos/R_S_yt-jcuaf9iSEkI_169.mp4	0.0	135.41936993598938	0.1000819206237793
17	47.3218719959259	fix_pre	0		7.0	15.0	2.5	/experiments/knapen_aot/oldvideos/R_S_video_inspire_texas_pecos_foggy-landscape_00018.1080-h264.mp4	0.0	135.51945185661316	0.059362173080444336
17	47.364418029785156	response	0	2		15.0	2.5	/experiments/knapen_aot/oldvideos/R_S_video_inspire_texas_pecos_foggy-landscape_00018.1080-h264.mp4	0.0	135.5619978904724	
17	47.38123416900635	movie	1		167.0	15.0	2.5	/experiments/knapen_aot/oldvideos/R_S_video_inspire_texas_pecos_foggy-landscape_00018.1080-h264.mp4	0.0	135.5788140296936	2.5072999000549316
17	49.88853406906128	fix_post	2		12.0	15.0	2.5	/experiments/knapen_aot/oldvideos/R_S_video_inspire_texas_pecos_foggy-landscape_00018.1080-h264.mp4	0.0	138.08611392974854	0.10006499290466309
18	49.98859906196594	fix_pre	0		3.0	16.0	2.5	/experiments/knapen_aot/oldvideos/S_comp_LA_A006_C008_PSNK_ALL_LOGOS_v10_SDR_PS_FINAL_20180801_SDR_2K_AVC.mp4	0.0	138.1861789226532	0.024878978729248047
18	50.00533699989319	response	0	2		16.0	2.5	/experiments/knapen_aot/oldvideos/S_comp_LA_A006_C008_PSNK_ALL_LOGOS_v10_SDR_PS_FINAL_20180801_SDR_2K_AVC.mp4	0.0	138.20291686058044	
18	50.01347804069519	movie	1		169.0	16.0	2.5	/experiments/knapen_aot/oldvideos/S_comp_LA_A006_C008_PSNK_ALL_LOGOS_v10_SDR_PS_FINAL_20180801_SDR_2K_AVC.mp4	0.0	138.21105790138245	2.5083539485931396
18	52.52183198928833	fix_post	2		12.0	16.0	2.5	/experiments/knapen_aot/oldvideos/S_comp_LA_A006_C008_PSNK_ALL_LOGOS_v10_SDR_PS_FINAL_20180801_SDR_2K_AVC.mp4	0.0	140.7194118499756	0.10004806518554688
19	52.62188005447388	fix_pre	0		16.0	17.0	2.5	/experiments/knapen_aot/oldvideos/S_yt-pB9w3AA-woE_37.mp4	0.0	140.81945991516113	0.13431692123413086
19	52.746981143951416	response	0	2		17.0	2.5	/experiments/knapen_aot/oldvideos/S_yt-pB9w3AA-woE_37.mp4	0.0	140.94456100463867	
19	52.75619697570801	movie	1		301.0	17.0	2.5	/experiments/knapen_aot/oldvideos/S_yt-pB9w3AA-woE_37.mp4	0.0	140.95377683639526	2.507308006286621
19	52.96459698677063	response	1	2		17.0	2.5	/experiments/knapen_aot/oldvideos/S_yt-pB9w3AA-woE_37.mp4	0.0	141.16217684745789	
19	55.26350498199463	fix_post	2		12.0	17.0	2.5	/experiments/knapen_aot/oldvideos/S_yt-pB9w3AA-woE_37.mp4	0.0	143.46108484268188	0.09994816780090332
20	55.36345314979553	fix_pre	0		18.0	18.0	2.5	/experiments/knapen_aot/oldvideos/R_S_3WAnGcPubBY_179.mp4	0.0	143.5610330104828	0.15012383460998535
20	55.50528311729431	response	0	2		18.0	2.5	/experiments/knapen_aot/oldvideos/R_S_3WAnGcPubBY_179.mp4	0.0	143.70286297798157	
20	55.51357698440552	movie	1		301.0	18.0	2.5	/experiments/knapen_aot/oldvideos/R_S_3WAnGcPubBY_179.mp4	0.0	143.71115684509277	2.5082809925079346
20	58.02185797691345	fix_post	2		12.0	18.0	2.5	/experiments/knapen_aot/oldvideos/R_S_3WAnGcPubBY_179.mp4	0.0	146.2194378376007	0.10008502006530762
21	58.12194299697876	fix_pre	0		22.0	19.0	2.5	/experiments/knapen_aot/oldvideos/S_yt-4Qz0m5IYh10_167.mp4	0.0	146.31952285766602	0.18321013450622559
21	58.29692006111145	response	0	2		19.0	2.5	/experiments/knapen_aot/oldvideos/S_yt-4Qz0m5IYh10_167.mp4	0.0	146.4944999217987	
21	58.305153131484985	movie	1		301.0	19.0	2.5	/experiments/knapen_aot/oldvideos/S_yt-4Qz0m5IYh10_167.mp4	0.0	146.50273299217224	2.50834584236145
21	60.813498973846436	fix_post	2		12.0	19.0	2.5	/experiments/knapen_aot/oldvideos/S_yt-4Qz0m5IYh10_167.mp4	0.0	149.0110788345337	0.09998917579650879
22	60.913488149642944	fix_pre	0		41.0	20.0	2.5	blank	1.0	149.1110680103302	0.34259986877441406
22	61.24695301055908	response	0	2		20.0	2.5	blank	1.0	149.44453287124634	
22	61.25608801841736	movie	1		301.0	20.0	2.5	blank	1.0	149.45366787910461	2.507327079772949
22	63.76341509819031	fix_post	2		12.0	20.0	2.5	blank	1.0	151.96099495887756	0.1000359058380127
23	63.86345100402832	fix_pre	0		44.0	21.0	2.5	/experiments/knapen_aot/oldvideos/R_S_yt-3E02UEHdoZ4_752.mp4	0.0	152.06103086471558	0.36670804023742676
23	64.22186708450317	response	0	2		21.0	2.5	/experiments/knapen_aot/oldvideos/R_S_yt-3E02UEHdoZ4_752.mp4	0.0	152.41944694519043	
23	64.23015904426575	movie	1		301.0	21.0	2.5	/experiments/knapen_aot/oldvideos/R_S_yt-3E02UEHdoZ4_752.mp4	0.0	152.427738904953	2.508294105529785
23	66.73845314979553	fix_post	2		12.0	21.0	2.5	/experiments/knapen_aot/oldvideos/R_S_yt-3E02UEHdoZ4_752.mp4	0.0	154.9360330104828	0.10025787353515625
24	66.83871102333069	fix_pre	0		34.0	22.0	2.5	/experiments/knapen_aot/oldvideos/R_S_WCwb-DeQOSg_85.mp4	0.0	155.03629088401794	0.28298306465148926
24	67.11350011825562	response	0	2		22.0	2.5	/experiments/knapen_aot/oldvideos/R_S_WCwb-DeQOSg_85.mp4	0.0	155.31107997894287	
24	67.12169408798218	movie	1		301.0	22.0	2.5	/experiments/knapen_aot/oldvideos/R_S_WCwb-DeQOSg_85.mp4	0.0	155.31927394866943	2.508384943008423
24	69.6300790309906	fix_post	2		12.0	22.0	2.5	/experiments/knapen_aot/oldvideos/R_S_WCwb-DeQOSg_85.mp4	0.0	157.82765889167786	0.1003720760345459
25	69.73045110702515	fix_pre	0		19.0	23.0	2.5	/experiments/knapen_aot/oldvideos/R_S_flickr-reginahart-31964450591_23.mp4	0.0	157.9280309677124	0.15790891647338867
25	69.87266612052917	response	0	2		23.0	2.5	/experiments/knapen_aot/oldvideos/R_S_flickr-reginahart-31964450591_23.mp4	0.0	158.07024598121643	
25	69.88836002349854	movie	1		176.0	23.0	2.5	/experiments/knapen_aot/oldvideos/R_S_flickr-reginahart-31964450591_23.mp4	0.0	158.0859398841858	2.508437156677246
25	72.39679718017578	fix_post	2		12.0	23.0	2.5	/experiments/knapen_aot/oldvideos/R_S_flickr-reginahart-31964450591_23.mp4	0.0	160.59437704086304	0.10002779960632324
26	72.4968249797821	fix_pre	0		24.0	24.0	2.5	/experiments/knapen_aot/oldvideos/R_S_yt-v66td-1WO7w_44.mp4	0.0	160.69440484046936	0.2036151885986328
26	72.68852305412292	response	0	2		24.0	2.5	/experiments/knapen_aot/oldvideos/R_S_yt-v66td-1WO7w_44.mp4	0.0	160.88610291481018	
26	72.70044016838074	movie	1		301.0	24.0	2.5	/experiments/knapen_aot/oldvideos/R_S_yt-v66td-1WO7w_44.mp4	0.0	160.898020029068	2.504633903503418
26	75.20507407188416	fix_post	2		12.0	24.0	2.5	/experiments/knapen_aot/oldvideos/R_S_yt-v66td-1WO7w_44.mp4	0.0	163.4026539325714	0.10004496574401855
27	75.30511903762817	fix_pre	0		26.0	25.0	2.5	/experiments/knapen_aot/oldvideos/S_yt-LGwEki4ghNw_69.mp4	0.0	163.50269889831543	0.21670293807983398
27	75.51346611976624	response	0	2		25.0	2.5	/experiments/knapen_aot/oldvideos/S_yt-LGwEki4ghNw_69.mp4	0.0	163.7110459804535	
27	75.52182197570801	movie	1		301.0	25.0	2.5	/experiments/knapen_aot/oldvideos/S_yt-LGwEki4ghNw_69.mp4	0.0	163.71940183639526	2.5082762241363525
27	78.03009819984436	fix_post	2		12.0	25.0	2.5	/experiments/knapen_aot/oldvideos/S_yt-LGwEki4ghNw_69.mp4	0.0	166.22767806053162	0.09995579719543457
28	78.1300539970398	fix_pre	0		23.0	26.0	2.5	/experiments/knapen_aot/oldvideos/R_S_yt-35i8UeYXjGw_47.mp4	0.0	166.32763385772705	0.19161605834960938
28	78.31348204612732	response	0	2		26.0	2.5	/experiments/knapen_aot/oldvideos/R_S_yt-35i8UeYXjGw_47.mp4	0.0	166.51106190681458	
28	78.3216700553894	movie	1		301.0	26.0	2.5	/experiments/knapen_aot/oldvideos/R_S_yt-35i8UeYXjGw_47.mp4	0.0	166.51924991607666	2.5083611011505127
28	80.83003115653992	fix_post	2		12.0	26.0	2.5	/experiments/knapen_aot/oldvideos/R_S_yt-35i8UeYXjGw_47.mp4	0.0	169.02761101722717	0.09995293617248535
29	80.9299840927124	fix_pre	0		22.0	27.0	2.5	/experiments/knapen_aot/oldvideos/R_S_yt-q9kT_c9QjbQ_34.mp4	0.0	169.12756395339966	0.18329405784606934
29	81.10518407821655	response	0	2		27.0	2.5	/experiments/knapen_aot/oldvideos/R_S_yt-q9kT_c9QjbQ_34.mp4	0.0	169.3027639389038	
29	81.11327815055847	movie	1		301.0	27.0	2.5	/experiments/knapen_aot/oldvideos/R_S_yt-q9kT_c9QjbQ_34.mp4	0.0	169.31085801124573	2.5083649158477783
29	83.62164306640625	fix_post	2		12.0	27.0	2.5	/experiments/knapen_aot/oldvideos/R_S_yt-q9kT_c9QjbQ_34.mp4	0.0	171.8192229270935	0.10003209114074707
30	83.721675157547	fix_pre	0		28.0	28.0	2.5	blank	1.0	171.91925501823425	0.2333970069885254
30	83.94678616523743	response	0	2		28.0	2.5	blank	1.0	172.14436602592468	
30	83.95507216453552	movie	1		301.0	28.0	2.5	blank	1.0	172.15265202522278	2.508335828781128
30	86.46340799331665	fix_post	2		12.0	28.0	2.5	blank	1.0	174.6609878540039	0.10025405883789062
31	86.56366205215454	fix_pre	0		41.0	29.0	2.5	/experiments/knapen_aot/oldvideos/S_yt-7WYXuBHeorw_188.mp4	0.0	174.7612419128418	0.3413240909576416
31	86.89674711227417	response	0	2		29.0	2.5	/experiments/knapen_aot/oldvideos/S_yt-7WYXuBHeorw_188.mp4	0.0	175.09432697296143	
31	86.90498614311218	movie	1		301.0	29.0	2.5	/experiments/knapen_aot/oldvideos/S_yt-7WYXuBHeorw_188.mp4	0.0	175.10256600379944	2.5083398818969727
31	89.41332602500916	fix_post	2		12.0	29.0	2.5	/experiments/knapen_aot/oldvideos/S_yt-7WYXuBHeorw_188.mp4	0.0	177.6109058856964	0.1002039909362793
32	89.51353001594543	fix_pre	0		23.0	30.0	2.5	/experiments/knapen_aot/oldvideos/S_yt-ebylvieB_4g_16.mp4	0.0	177.7111098766327	0.19138002395629883
32	89.69676804542542	response	0	2		30.0	2.5	/experiments/knapen_aot/oldvideos/S_yt-ebylvieB_4g_16.mp4	0.0	177.89434790611267	
32	89.70491003990173	movie	1		301.0	30.0	2.5	/experiments/knapen_aot/oldvideos/S_yt-ebylvieB_4g_16.mp4	0.0	177.902489900589	2.508366107940674
32	92.21327614784241	fix_post	2		12.0	30.0	2.5	/experiments/knapen_aot/oldvideos/S_yt-ebylvieB_4g_16.mp4	0.0	180.41085600852966	0.10014104843139648
33	92.3134171962738	fix_pre	0		43.0	31.0	2.5	/experiments/knapen_aot/oldvideos/S_pexels-cottonbro-5310858.mp4	0.0	180.51099705696106	0.35892796516418457
33	92.66340017318726	response	0	2		31.0	2.5	/experiments/knapen_aot/oldvideos/S_pexels-cottonbro-5310858.mp4	0.0	180.8609800338745	
33	92.67234516143799	movie	1		166.0	31.0	2.5	/experiments/knapen_aot/oldvideos/S_pexels-cottonbro-5310858.mp4	0.0	180.86992502212524	2.507661819458008
33	95.180006980896	fix_post	2		12.0	31.0	2.5	/experiments/knapen_aot/oldvideos/S_pexels-cottonbro-5310858.mp4	0.0	183.37758684158325	0.10000014305114746
34	95.28000712394714	fix_pre	0		12.0	32.0	2.5	/experiments/knapen_aot/oldvideos/R_S_yt-2pRKCSgdXXU_30.mp4	0.0	183.4775869846344	0.10072803497314453
34	95.37173199653625	response	0	2		32.0	2.5	/experiments/knapen_aot/oldvideos/R_S_yt-2pRKCSgdXXU_30.mp4	0.0	183.5693118572235	
34	95.38073515892029	movie	1		301.0	32.0	2.5	/experiments/knapen_aot/oldvideos/R_S_yt-2pRKCSgdXXU_30.mp4	0.0	183.57831501960754	2.5075929164886475
34	97.88832807540894	fix_post	2		12.0	32.0	2.5	/experiments/knapen_aot/oldvideos/R_S_yt-2pRKCSgdXXU_30.mp4	0.0	186.0859079360962	0.099945068359375
35	97.98827314376831	fix_pre	0		15.0	33.0	2.5	/experiments/knapen_aot/oldvideos/S_yt-5rC42egLl5E_387.mp4	0.0	186.18585300445557	0.1249380111694336
35	98.10511207580566	response	0	2		33.0	2.5	/experiments/knapen_aot/oldvideos/S_yt-5rC42egLl5E_387.mp4	0.0	186.30269193649292	
35	98.11321115493774	movie	1		301.0	33.0	2.5	/experiments/knapen_aot/oldvideos/S_yt-5rC42egLl5E_387.mp4	0.0	186.310791015625	2.5084328651428223
35	100.62164402008057	fix_post	2		12.0	33.0	2.5	/experiments/knapen_aot/oldvideos/S_yt-5rC42egLl5E_387.mp4	0.0	188.81922388076782	0.09990715980529785
36	100.72155117988586	fix_pre	0		17.0	34.0	2.5	blank	1.0	188.91913104057312	0.14165091514587402
36	100.85510301589966	response	0	2		34.0	2.5	blank	1.0	189.0526828765869	
36	100.86320209503174	movie	1		301.0	34.0	2.5	blank	1.0	189.060781955719	2.508423089981079
36	103.37162518501282	fix_post	2		12.0	34.0	2.5	blank	1.0	191.56920504570007	0.1000068187713623
37	103.47163200378418	fix_pre	0		27.0	35.0	2.5	/experiments/knapen_aot/oldvideos/S_comp_A105_C003_0212CT_FLARE_v10_SDR_PS_FINAL_20180711_SDR_2K_AVC.mp4	0.0	191.66921186447144	0.22495317459106445
37	103.68838620185852	response	0	2		35.0	2.5	/experiments/knapen_aot/oldvideos/S_comp_A105_C003_0212CT_FLARE_v10_SDR_PS_FINAL_20180711_SDR_2K_AVC.mp4	0.0	191.88596606254578	
37	103.69658517837524	movie	1		164.0	35.0	2.5	/experiments/knapen_aot/oldvideos/S_comp_A105_C003_0212CT_FLARE_v10_SDR_PS_FINAL_20180711_SDR_2K_AVC.mp4	0.0	191.8941650390625	2.5083320140838623
37	106.2049171924591	fix_post	2		12.0	35.0	2.5	/experiments/knapen_aot/oldvideos/S_comp_A105_C003_0212CT_FLARE_v10_SDR_PS_FINAL_20180711_SDR_2K_AVC.mp4	0.0	194.40249705314636	0.10005378723144531
38	106.30497097969055	fix_pre	0		14.0	36.0	2.5	/experiments/knapen_aot/oldvideos/S_AK_A004_C012_SDR_20191217_SDR_2K_AVC.mp4	0.0	194.5025508403778	0.11737704277038574
38	106.41333317756653	response	0	2		36.0	2.5	/experiments/knapen_aot/oldvideos/S_AK_A004_C012_SDR_20191217_SDR_2K_AVC.mp4	0.0	194.61091303825378	
38	106.42234802246094	movie	1		165.0	36.0	2.5	/experiments/knapen_aot/oldvideos/S_AK_A004_C012_SDR_20191217_SDR_2K_AVC.mp4	0.0	194.6199278831482	2.5076229572296143
38	108.92997097969055	fix_post	2		12.0	36.0	2.5	/experiments/knapen_aot/oldvideos/S_AK_A004_C012_SDR_20191217_SDR_2K_AVC.mp4	0.0	197.1275508403778	0.09991002082824707
39	109.0298810005188	fix_pre	0		22.0	37.0	2.5	/experiments/knapen_aot/oldvideos/R_S_yt-UKrWbJEs7pw_74.mp4	0.0	197.22746086120605	0.18402600288391113
39	109.20503807067871	response	0	2		37.0	2.5	/experiments/knapen_aot/oldvideos/R_S_yt-UKrWbJEs7pw_74.mp4	0.0	197.40261793136597	
39	109.21390700340271	movie	1		301.0	37.0	2.5	/experiments/knapen_aot/oldvideos/R_S_yt-UKrWbJEs7pw_74.mp4	0.0	197.41148686408997	2.5076451301574707
39	111.72155213356018	fix_post	2		12.0	37.0	2.5	/experiments/knapen_aot/oldvideos/R_S_yt-UKrWbJEs7pw_74.mp4	0.0	199.91913199424744	0.10001993179321289
40	111.8215720653534	fix_pre	0		32.0	38.0	2.5	/experiments/knapen_aot/oldvideos/S_yt-PYP0fEQ357c_89.mp4	0.0	200.01915192604065	0.2672910690307617
40	112.08002018928528	response	0	2		38.0	2.5	/experiments/knapen_aot/oldvideos/S_yt-PYP0fEQ357c_89.mp4	0.0	200.27760004997253	
40	112.08886313438416	movie	1		301.0	38.0	2.5	/experiments/knapen_aot/oldvideos/S_yt-PYP0fEQ357c_89.mp4	0.0	200.2864429950714	2.507737874984741
40	114.5966010093689	fix_post	2		12.0	38.0	2.5	/experiments/knapen_aot/oldvideos/S_yt-PYP0fEQ357c_89.mp4	0.0	202.79418087005615	0.09982514381408691
41	114.69642615318298	fix_pre	0		29.0	39.0	2.5	/experiments/knapen_aot/oldvideos/R_S_wc-ujHd_fPVcSlX_10.mp4	0.0	202.89400601387024	0.24172592163085938
41	114.92999911308289	response	0	2		39.0	2.5	/experiments/knapen_aot/oldvideos/R_S_wc-ujHd_fPVcSlX_10.mp4	0.0	203.12757897377014	
41	114.93815207481384	movie	1		169.0	39.0	2.5	/experiments/knapen_aot/oldvideos/R_S_wc-ujHd_fPVcSlX_10.mp4	0.0	203.1357319355011	2.5083529949188232
41	117.44650506973267	fix_post	2		12.0	39.0	2.5	/experiments/knapen_aot/oldvideos/R_S_wc-ujHd_fPVcSlX_10.mp4	0.0	205.64408493041992	0.10002803802490234
42	117.54653310775757	fix_pre	0		30.0	40.0	2.5	/experiments/knapen_aot/oldvideos/S_yt-GWOOQZ19-oU_331.mp4	0.0	205.74411296844482	0.2506389617919922
42	117.78827404975891	response	0	2		40.0	2.5	/experiments/knapen_aot/oldvideos/S_yt-GWOOQZ19-oU_331.mp4	0.0	205.98585391044617	
42	117.79717206954956	movie	1		301.0	40.0	2.5	/experiments/knapen_aot/oldvideos/S_yt-GWOOQZ19-oU_331.mp4	0.0	205.99475193023682	2.50764799118042
42	120.30482006072998	fix_post	2		12.0	40.0	2.5	/experiments/knapen_aot/oldvideos/S_yt-GWOOQZ19-oU_331.mp4	0.0	208.50239992141724	0.10007309913635254
43	120.40489315986633	fix_pre	0		52.0	41.0	2.5	/experiments/knapen_aot/oldvideos/S_ILSVRC2015_train_00745000.mp4	0.0	208.6024730205536	0.4339148998260498
43	120.82999515533447	response	0	2		41.0	2.5	/experiments/knapen_aot/oldvideos/S_ILSVRC2015_train_00745000.mp4	0.0	209.02757501602173	
43	120.83880805969238	movie	1		301.0	41.0	2.5	/experiments/knapen_aot/oldvideos/S_ILSVRC2015_train_00745000.mp4	0.0	209.03638792037964	2.507730007171631
43	123.34653806686401	fix_post	2		12.0	41.0	2.5	/experiments/knapen_aot/oldvideos/S_ILSVRC2015_train_00745000.mp4	0.0	211.54411792755127	0.09996700286865234
44	123.44650506973267	fix_pre	0		30.0	42.0	2.5	blank	1.0	211.64408493041992	0.24998092651367188
44	123.68831515312195	response	0	2		42.0	2.5	blank	1.0	211.8858950138092	
44	123.69648599624634	movie	1		301.0	42.0	2.5	blank	1.0	211.8940658569336	2.5083839893341064
44	126.20486998558044	fix_post	2		12.0	42.0	2.5	blank	1.0	214.4024498462677	0.09997010231018066
45	126.30484008789062	fix_pre	0		179.0	43.0	2.5	/experiments/knapen_aot/oldvideos/S_goAwcQiFu1Q_99.mp4	0.0	214.50241994857788	1.4921541213989258
45	127.78823709487915	response	0	2		43.0	2.5	/experiments/knapen_aot/oldvideos/S_goAwcQiFu1Q_99.mp4	0.0	215.9858169555664	
45	127.79699420928955	movie	1		301.0	43.0	2.5	/experiments/knapen_aot/oldvideos/S_goAwcQiFu1Q_99.mp4	0.0	215.9945740699768	2.5080368518829346
45	130.30503106117249	fix_post	2		12.0	43.0	2.5	/experiments/knapen_aot/oldvideos/S_goAwcQiFu1Q_99.mp4	0.0	218.50261092185974	0.09977006912231445
46	130.4048011302948	fix_pre	0		26.0	44.0	2.5	/experiments/knapen_aot/oldvideos/S_yt-3EZOeAbiMQE_10.mp4	0.0	218.60238099098206	0.2166578769683838
46	130.61323714256287	response	0	2		44.0	2.5	/experiments/knapen_aot/oldvideos/S_yt-3EZOeAbiMQE_10.mp4	0.0	218.81081700325012	
46	130.62145900726318	movie	1		301.0	44.0	2.5	/experiments/knapen_aot/oldvideos/S_yt-3EZOeAbiMQE_10.mp4	0.0	218.81903886795044	2.5083510875701904
46	133.12981009483337	fix_post	2		12.0	44.0	2.5	/experiments/knapen_aot/oldvideos/S_yt-3EZOeAbiMQE_10.mp4	0.0	221.32738995552063	0.09996604919433594
47	133.2297761440277	fix_pre	0		162.0	45.0	2.5	/experiments/knapen_aot/oldvideos/S_yt-0qfEA1ZFWjA_123.mp4	0.0	221.42735600471497	1.3499808311462402
47	134.5716781616211	response	0	2		45.0	2.5	/experiments/knapen_aot/oldvideos/S_yt-0qfEA1ZFWjA_123.mp4	0.0	222.76925802230835	
47	134.57975697517395	movie	1		301.0	45.0	2.5	/experiments/knapen_aot/oldvideos/S_yt-0qfEA1ZFWjA_123.mp4	0.0	222.7773368358612	2.5082850456237793
47	137.08804202079773	fix_post	2		12.0	45.0	2.5	/experiments/knapen_aot/oldvideos/S_yt-0qfEA1ZFWjA_123.mp4	0.0	225.28562188148499	0.1000661849975586
48	137.1881082057953	fix_pre	0		39.0	46.0	2.5	/experiments/knapen_aot/oldvideos/S_yt-nE8YJOhW4e4_171.mp4	0.0	225.38568806648254	0.32498598098754883
48	137.5048680305481	response	0	2		46.0	2.5	/experiments/knapen_aot/oldvideos/S_yt-nE8YJOhW4e4_171.mp4	0.0	225.70244789123535	
48	137.51309418678284	movie	1		301.0	46.0	2.5	/experiments/knapen_aot/oldvideos/S_yt-nE8YJOhW4e4_171.mp4	0.0	225.7106740474701	2.508344888687134
48	140.02143907546997	fix_post	2		12.0	46.0	2.5	/experiments/knapen_aot/oldvideos/S_yt-nE8YJOhW4e4_171.mp4	0.0	228.21901893615723	0.10001897811889648
49	140.12145805358887	fix_pre	0		22.0	47.0	2.5	/experiments/knapen_aot/oldvideos/S_yt-6MwA-jx56AQ_612.mp4	0.0	228.31903791427612	0.18332409858703613
49	140.2966091632843	response	0	2		47.0	2.5	/experiments/knapen_aot/oldvideos/S_yt-6MwA-jx56AQ_612.mp4	0.0	228.49418902397156	
49	140.3047821521759	movie	1		301.0	47.0	2.5	/experiments/knapen_aot/oldvideos/S_yt-6MwA-jx56AQ_612.mp4	0.0	228.50236201286316	2.508358955383301
49	142.8131411075592	fix_post	2		12.0	47.0	2.5	/experiments/knapen_aot/oldvideos/S_yt-6MwA-jx56AQ_612.mp4	0.0	231.01072096824646	0.09998393058776855
50	142.91312503814697	fix_pre	0		177.0	48.0	2.5	blank	1.0	231.11070489883423	1.4749879837036133
50	144.37238001823425	response	0	2		48.0	2.5	blank	1.0	232.5699598789215	
50	144.3881130218506	movie	1		301.0	48.0	2.5	blank	1.0	232.58569288253784	2.5083601474761963
50	146.89647316932678	fix_post	2		12.0	48.0	2.5	blank	1.0	235.09405303001404	0.10015583038330078
51	146.99662899971008	fix_pre	0		28.0	49.0	2.5	/experiments/knapen_aot/oldvideos/R_S_Pexels_Videos_2376809.mp4	0.0	235.19420886039734	0.23311805725097656
51	147.22155904769897	response	0	2		49.0	2.5	/experiments/knapen_aot/oldvideos/R_S_Pexels_Videos_2376809.mp4	0.0	235.41913890838623	
51	147.22974705696106	movie	1		167.0	49.0	2.5	/experiments/knapen_aot/oldvideos/R_S_Pexels_Videos_2376809.mp4	0.0	235.42732691764832	2.508352041244507
51	149.73809909820557	fix_post	2		12.0	49.0	2.5	/experiments/knapen_aot/oldvideos/R_S_Pexels_Videos_2376809.mp4	0.0	237.93567895889282	0.09999799728393555
52	149.8380970954895	fix_pre	0		27.0	50.0	2.5	/experiments/knapen_aot/oldvideos/R_S_yt-PP93D7b7Ni4_10.mp4	0.0	238.03567695617676	0.224945068359375
52	150.05493998527527	response	0	2		50.0	2.5	/experiments/knapen_aot/oldvideos/R_S_yt-PP93D7b7Ni4_10.mp4	0.0	238.25251984596252	
52	150.06304216384888	movie	1		301.0	50.0	2.5	/experiments/knapen_aot/oldvideos/R_S_yt-PP93D7b7Ni4_10.mp4	0.0	238.26062202453613	2.508297920227051
52	152.57134008407593	fix_post	2		12.0	50.0	2.5	/experiments/knapen_aot/oldvideos/R_S_yt-PP93D7b7Ni4_10.mp4	0.0	240.76891994476318	0.10051798820495605
53	152.67185807228088	fix_pre	0		9.0	51.0	2.5	/experiments/knapen_aot/oldvideos/R_S_yt-I2n2eo2zoZs_112.mp4	0.0	240.86943793296814	0.07450294494628906
53	152.73812198638916	response	0	2		51.0	2.5	/experiments/knapen_aot/oldvideos/R_S_yt-I2n2eo2zoZs_112.mp4	0.0	240.93570184707642	
53	152.74636101722717	movie	1		301.0	51.0	2.5	/experiments/knapen_aot/oldvideos/R_S_yt-I2n2eo2zoZs_112.mp4	0.0	240.94394087791443	2.5083560943603516
53	155.25471711158752	fix_post	2		12.0	51.0	2.5	/experiments/knapen_aot/oldvideos/R_S_yt-I2n2eo2zoZs_112.mp4	0.0	243.45229697227478	0.09995198249816895
54	155.3546690940857	fix_pre	0		2.0	52.0	2.5	/experiments/knapen_aot/oldvideos/R_S_pexels-cottonbro-5310858.mp4	0.0	243.55224895477295	0.01669597625732422
54	155.36318707466125	response	0	2		52.0	2.5	/experiments/knapen_aot/oldvideos/R_S_pexels-cottonbro-5310858.mp4	0.0	243.5607669353485	
54	155.37136507034302	movie	1		167.0	52.0	2.5	/experiments/knapen_aot/oldvideos/R_S_pexels-cottonbro-5310858.mp4	0.0	243.56894493103027	2.5083260536193848
54	157.8796911239624	fix_post	2		12.0	52.0	2.5	/experiments/knapen_aot/oldvideos/R_S_pexels-cottonbro-5310858.mp4	0.0	246.07727098464966	0.10001301765441895
55	157.97970414161682	fix_pre	0		7.0	53.0	2.5	/experiments/knapen_aot/oldvideos/R_S_comp_LA_A006_C004_v01_SDR_FINAL_PS_20180730_SDR_2K_AVC.mp4	0.0	246.17728400230408	0.05832099914550781
55	158.0296721458435	response	0	2		53.0	2.5	/experiments/knapen_aot/oldvideos/R_S_comp_LA_A006_C004_v01_SDR_FINAL_PS_20180730_SDR_2K_AVC.mp4	0.0	246.22725200653076	
55	158.03802514076233	movie	1		169.0	53.0	2.5	/experiments/knapen_aot/oldvideos/R_S_comp_LA_A006_C004_v01_SDR_FINAL_PS_20180730_SDR_2K_AVC.mp4	0.0	246.23560500144958	2.508362054824829
55	160.54638719558716	fix_post	2		12.0	53.0	2.5	/experiments/knapen_aot/oldvideos/R_S_comp_LA_A006_C004_v01_SDR_FINAL_PS_20180730_SDR_2K_AVC.mp4	0.0	248.7439670562744	0.0999758243560791
55	160.62143206596375	response	2	2		53.0	2.5	/experiments/knapen_aot/oldvideos/R_S_comp_LA_A006_C004_v01_SDR_FINAL_PS_20180730_SDR_2K_AVC.mp4	0.0	248.819011926651	
56	160.64636301994324	fix_pre	0		279.0	54.0	2.5	/experiments/knapen_aot/oldvideos/R_S_yt-oxUpc8I5wWQ_238.mp4	0.0	248.8439428806305	2.3249399662017822
56	162.96311807632446	response	0	2		54.0	2.5	/experiments/knapen_aot/oldvideos/R_S_yt-oxUpc8I5wWQ_238.mp4	0.0	251.16069793701172	
56	162.97130298614502	movie	1		301.0	54.0	2.5	/experiments/knapen_aot/oldvideos/R_S_yt-oxUpc8I5wWQ_238.mp4	0.0	251.16888284683228	2.508424997329712
56	165.47972798347473	fix_post	2		12.0	54.0	2.5	/experiments/knapen_aot/oldvideos/R_S_yt-oxUpc8I5wWQ_238.mp4	0.0	253.677307844162	0.09987711906433105
57	165.57960510253906	fix_pre	0		30.0	55.0	2.5	/experiments/knapen_aot/oldvideos/S_zAKvYNtmhuc_772.mp4	0.0	253.77718496322632	0.25005292892456055
57	165.82144498825073	response	0	2		55.0	2.5	/experiments/knapen_aot/oldvideos/S_zAKvYNtmhuc_772.mp4	0.0	254.019024848938	
57	165.82965803146362	movie	1		301.0	55.0	2.5	/experiments/knapen_aot/oldvideos/S_zAKvYNtmhuc_772.mp4	0.0	254.02723789215088	2.508392095565796
57	168.33805012702942	fix_post	2		12.0	55.0	2.5	/experiments/knapen_aot/oldvideos/S_zAKvYNtmhuc_772.mp4	0.0	256.5356299877167	0.09992694854736328
58	168.43797707557678	fix_pre	0		56.0	56.0	2.5	blank	1.0	256.63555693626404	0.46667003631591797
58	168.8964900970459	response	0	2		56.0	2.5	blank	1.0	257.09406995773315	
58	168.9046471118927	movie	1		301.0	56.0	2.5	blank	1.0	257.10222697257996	2.5083138942718506
58	171.41296100616455	fix_post	2		12.0	56.0	2.5	blank	1.0	259.6105408668518	0.0999910831451416
59	171.5129520893097	fix_pre	0		20.0	57.0	2.5	/experiments/knapen_aot/oldvideos/S_yt-1UFhynm5g6Y_266.mp4	0.0	259.71053194999695	0.16669893264770508
59	171.6713740825653	response	0	2		57.0	2.5	/experiments/knapen_aot/oldvideos/S_yt-1UFhynm5g6Y_266.mp4	0.0	259.86895394325256	
59	171.6796510219574	movie	1		301.0	57.0	2.5	/experiments/knapen_aot/oldvideos/S_yt-1UFhynm5g6Y_266.mp4	0.0	259.87723088264465	2.5083329677581787
59	174.18798398971558	fix_post	2		12.0	57.0	2.5	/experiments/knapen_aot/oldvideos/S_yt-1UFhynm5g6Y_266.mp4	0.0	262.38556385040283	0.0999901294708252
60	174.2879741191864	fix_pre	0		25.0	58.0	2.5	/experiments/knapen_aot/oldvideos/S_yt-oxUpc8I5wWQ_238.mp4	0.0	262.48555397987366	0.20828795433044434
60	174.48804306983948	response	0	2		58.0	2.5	/experiments/knapen_aot/oldvideos/S_yt-oxUpc8I5wWQ_238.mp4	0.0	262.68562293052673	
60	174.49626207351685	movie	1		301.0	58.0	2.5	/experiments/knapen_aot/oldvideos/S_yt-oxUpc8I5wWQ_238.mp4	0.0	262.6938419342041	2.5083489418029785
60	177.00461101531982	fix_post	2		12.0	58.0	2.5	/experiments/knapen_aot/oldvideos/S_yt-oxUpc8I5wWQ_238.mp4	0.0	265.2021908760071	0.0999901294708252
61	177.10460114479065	fix_pre	0		8.0	59.0	2.5	/experiments/knapen_aot/oldvideos/S_yt-3R23XwTXpKs_238.mp4	0.0	265.3021810054779	0.06708502769470215
61	177.16296219825745	response	0	2		59.0	2.5	/experiments/knapen_aot/oldvideos/S_yt-3R23XwTXpKs_238.mp4	0.0	265.3605420589447	
61	177.17168617248535	movie	1		301.0	59.0	2.5	/experiments/knapen_aot/oldvideos/S_yt-3R23XwTXpKs_238.mp4	0.0	265.3692660331726	2.5079829692840576
61	179.6796691417694	fix_post	2		12.0	59.0	2.5	/experiments/knapen_aot/oldvideos/S_yt-3R23XwTXpKs_238.mp4	0.0	267.87724900245667	0.09998393058776855
62	179.77965307235718	fix_pre	0		11.0	60.0	2.5	/experiments/knapen_aot/oldvideos/S_yt-YyKEeu2gLrI_158.mp4	0.0	267.97723293304443	0.09168195724487305
62	179.86304807662964	response	0	2		60.0	2.5	/experiments/knapen_aot/oldvideos/S_yt-YyKEeu2gLrI_158.mp4	0.0	268.0606279373169	
62	179.87133502960205	movie	1		301.0	60.0	2.5	/experiments/knapen_aot/oldvideos/S_yt-YyKEeu2gLrI_158.mp4	0.0	268.0689148902893	2.5085601806640625
62	182.3798952102661	fix_post	2		12.0	60.0	2.5	/experiments/knapen_aot/oldvideos/S_yt-YyKEeu2gLrI_158.mp4	0.0	270.57747507095337	0.09970498085021973
63	182.47960019111633	fix_pre	0		13.0	61.0	2.5	blank	1.0	270.6771800518036	0.10859298706054688
63	182.57984519004822	response	0	2		61.0	2.5	blank	1.0	270.7774250507355	
63	182.58819317817688	movie	1		301.0	61.0	2.5	blank	1.0	270.78577303886414	2.508039951324463
63	185.09623312950134	fix_post	2		12.0	61.0	2.5	blank	1.0	273.2938129901886	0.09994697570800781
64	185.19618010520935	fix_pre	0		28.0	62.0	2.5	/experiments/knapen_aot/oldvideos/S_yt-I2n2eo2zoZs_112.mp4	0.0	273.3937599658966	0.23343992233276367
64	185.42132711410522	response	0	2		62.0	2.5	/experiments/knapen_aot/oldvideos/S_yt-I2n2eo2zoZs_112.mp4	0.0	273.6189069747925	
64	185.42962002754211	movie	1		301.0	62.0	2.5	/experiments/knapen_aot/oldvideos/S_yt-I2n2eo2zoZs_112.mp4	0.0	273.62719988822937	2.5082650184631348
64	187.93788504600525	fix_post	2		12.0	62.0	2.5	/experiments/knapen_aot/oldvideos/S_yt-I2n2eo2zoZs_112.mp4	0.0	276.1354649066925	0.10003995895385742
65	188.0379250049591	fix_pre	0		49.0	63.0	2.5	/experiments/knapen_aot/oldvideos/R_S_yt-0aHV3uU8xFY_75.mp4	0.0	276.23550486564636	0.4082601070404053
65	188.43800020217896	response	0	2		63.0	2.5	/experiments/knapen_aot/oldvideos/R_S_yt-0aHV3uU8xFY_75.mp4	0.0	276.6355800628662	
65	188.4461851119995	movie	1		301.0	63.0	2.5	/experiments/knapen_aot/oldvideos/R_S_yt-0aHV3uU8xFY_75.mp4	0.0	276.64376497268677	2.5083909034729004
65	190.9545760154724	fix_post	2		12.0	63.0	2.5	/experiments/knapen_aot/oldvideos/R_S_yt-0aHV3uU8xFY_75.mp4	0.0	279.15215587615967	0.09998297691345215
66	191.05455899238586	fix_pre	0		18.0	64.0	2.5	/experiments/knapen_aot/oldvideos/S_wc-ujHd_fPVcSlX_10.mp4	0.0	279.2521388530731	0.14995813369750977
66	191.18882417678833	response	0	2		64.0	2.5	/experiments/knapen_aot/oldvideos/S_wc-ujHd_fPVcSlX_10.mp4	0.0	279.3864040374756	
66	191.20451712608337	movie	1		164.0	64.0	2.5	/experiments/knapen_aot/oldvideos/S_wc-ujHd_fPVcSlX_10.mp4	0.0	279.40209698677063	2.5084049701690674
66	193.71292209625244	fix_post	2		12.0	64.0	2.5	/experiments/knapen_aot/oldvideos/S_wc-ujHd_fPVcSlX_10.mp4	0.0	281.9105019569397	0.09992289543151855
67	193.81284499168396	fix_pre	0		10.0	65.0	2.5	/experiments/knapen_aot/oldvideos/S_yt-2XRGfGc0q44_37.mp4	0.0	282.0104248523712	0.08334803581237793
67	193.88798809051514	response	0	2		65.0	2.5	/experiments/knapen_aot/oldvideos/S_yt-2XRGfGc0q44_37.mp4	0.0	282.0855679512024	
67	193.89619302749634	movie	1		301.0	65.0	2.5	/experiments/knapen_aot/oldvideos/S_yt-2XRGfGc0q44_37.mp4	0.0	282.0937728881836	2.5083460807800293
67	196.40453910827637	fix_post	2		12.0	65.0	2.5	/experiments/knapen_aot/oldvideos/S_yt-2XRGfGc0q44_37.mp4	0.0	284.6021189689636	0.10023188591003418
68	196.5047709941864	fix_pre	0		11.0	66.0	2.5	/experiments/knapen_aot/oldvideos/R_S_yt-5rC42egLl5E_387.mp4	0.0	284.70235085487366	0.09134817123413086
68	196.58794116973877	response	0	2		66.0	2.5	/experiments/knapen_aot/oldvideos/R_S_yt-5rC42egLl5E_387.mp4	0.0	284.785521030426	
68	196.59611916542053	movie	1		301.0	66.0	2.5	/experiments/knapen_aot/oldvideos/R_S_yt-5rC42egLl5E_387.mp4	0.0	284.7936990261078	2.508582830429077
68	199.1047019958496	fix_post	2		12.0	66.0	2.5	/experiments/knapen_aot/oldvideos/R_S_yt-5rC42egLl5E_387.mp4	0.0	287.30228185653687	0.09980607032775879
69	199.20450806617737	fix_pre	0		12.0	67.0	2.5	/experiments/knapen_aot/oldvideos/S_comp_GMT308_139K_142NC_CARIBBEAN_DAY_v09_SDR_FINAL_22062018_SDR_2K_AVC.mp4	0.0	287.4020879268646	0.10002708435058594
69	199.29636216163635	response	0	2		67.0	2.5	/experiments/knapen_aot/oldvideos/S_comp_GMT308_139K_142NC_CARIBBEAN_DAY_v09_SDR_FINAL_22062018_SDR_2K_AVC.mp4	0.0	287.4939420223236	
69	199.30453515052795	movie	1		172.0	67.0	2.5	/experiments/knapen_aot/oldvideos/S_comp_GMT308_139K_142NC_CARIBBEAN_DAY_v09_SDR_FINAL_22062018_SDR_2K_AVC.mp4	0.0	287.5021150112152	2.5083138942718506
69	201.8128490447998	fix_post	2		12.0	67.0	2.5	/experiments/knapen_aot/oldvideos/S_comp_GMT308_139K_142NC_CARIBBEAN_DAY_v09_SDR_FINAL_22062018_SDR_2K_AVC.mp4	0.0	290.01042890548706	0.09995412826538086
70	201.91280317306519	fix_pre	0		6.0	68.0	2.5	/experiments/knapen_aot/oldvideos/R_S_production_ID_5144823.mp4	0.0	290.11038303375244	0.05028486251831055
70	201.95467019081116	response	0	2		68.0	2.5	/experiments/knapen_aot/oldvideos/R_S_production_ID_5144823.mp4	0.0	290.1522500514984	
70	201.9630880355835	movie	1		168.0	68.0	2.5	/experiments/knapen_aot/oldvideos/R_S_production_ID_5144823.mp4	0.0	290.16066789627075	2.507997989654541
70	204.46288418769836	response	1	2		68.0	2.5	/experiments/knapen_aot/oldvideos/R_S_production_ID_5144823.mp4	0.0	292.6604640483856	
70	204.47108602523804	fix_post	2		12.0	68.0	2.5	/experiments/knapen_aot/oldvideos/R_S_production_ID_5144823.mp4	0.0	292.6686658859253	0.09999203681945801
71	204.5710780620575	fix_pre	0		56.0	69.0	2.5	/experiments/knapen_aot/oldvideos/R_S_yt-oxUpc8I5wWQ_238.mp4	0.0	292.76865792274475	0.4667229652404785
71	205.02950716018677	response	0	2		69.0	2.5	/experiments/knapen_aot/oldvideos/R_S_yt-oxUpc8I5wWQ_238.mp4	0.0	293.227087020874	
71	205.03780102729797	movie	1		301.0	69.0	2.5	/experiments/knapen_aot/oldvideos/R_S_yt-oxUpc8I5wWQ_238.mp4	0.0	293.23538088798523	2.508388042449951
71	207.54618906974792	fix_post	2		12.0	69.0	2.5	/experiments/knapen_aot/oldvideos/R_S_yt-oxUpc8I5wWQ_238.mp4	0.0	295.7437689304352	0.0999901294708252
72	207.64617919921875	fix_pre	0		23.0	70.0	2.5	blank	1.0	295.843759059906	0.19182586669921875
72	207.82955503463745	response	0	2		70.0	2.5	blank	1.0	296.0271348953247	
72	207.83800506591797	movie	1		301.0	70.0	2.5	blank	1.0	296.0355849266052	2.5081889629364014
72	210.34619402885437	fix_post	2		12.0	70.0	2.5	blank	1.0	298.5437738895416	0.09998607635498047
73	210.44618010520935	fix_pre	0		26.0	71.0	2.5	/experiments/knapen_aot/oldvideos/S_yt-vjed5qyKqZw_1.mp4	0.0	298.6437599658966	0.21666407585144043
73	210.65462803840637	response	0	2		71.0	2.5	/experiments/knapen_aot/oldvideos/S_yt-vjed5qyKqZw_1.mp4	0.0	298.8522078990936	
73	210.6628441810608	movie	1		301.0	71.0	2.5	/experiments/knapen_aot/oldvideos/S_yt-vjed5qyKqZw_1.mp4	0.0	298.86042404174805	2.508582830429077
73	213.17142701148987	fix_post	2		12.0	71.0	2.5	/experiments/knapen_aot/oldvideos/S_yt-vjed5qyKqZw_1.mp4	0.0	301.3690068721771	0.09971213340759277
74	213.27113914489746	fix_pre	0		8.0	72.0	2.5	/experiments/knapen_aot/oldvideos/R_S_yt-xNKgc8sFYvU_35.mp4	0.0	301.4687190055847	0.06674695014953613
74	213.3295350074768	response	0	2		72.0	2.5	/experiments/knapen_aot/oldvideos/R_S_yt-xNKgc8sFYvU_35.mp4	0.0	301.52711486816406	
74	213.337886095047	movie	1		301.0	72.0	2.5	/experiments/knapen_aot/oldvideos/R_S_yt-xNKgc8sFYvU_35.mp4	0.0	301.53546595573425	2.5082459449768066
74	215.8461320400238	fix_post	2		12.0	72.0	2.5	/experiments/knapen_aot/oldvideos/R_S_yt-xNKgc8sFYvU_35.mp4	0.0	304.04371190071106	0.09998798370361328
75	215.94612002372742	fix_pre	0		2.0	73.0	2.5	/experiments/knapen_aot/oldvideos/S_yt-VinOD6g7xEc_135.mp4	0.0	304.1436998844147	0.017109155654907227
75	215.95619416236877	response	0	2		73.0	2.5	/experiments/knapen_aot/oldvideos/S_yt-VinOD6g7xEc_135.mp4	0.0	304.15377402305603	
75	215.96322917938232	movie	1		301.0	73.0	2.5	/experiments/knapen_aot/oldvideos/S_yt-VinOD6g7xEc_135.mp4	0.0	304.1608090400696	2.507891893386841
75	218.47112107276917	fix_post	2		12.0	73.0	2.5	/experiments/knapen_aot/oldvideos/S_yt-VinOD6g7xEc_135.mp4	0.0	306.6687009334564	0.09998106956481934
76	218.57110214233398	fix_pre	0		24.0	74.0	2.5	/experiments/knapen_aot/oldvideos/R_S_yt-UKrWbJEs7pw_74.mp4	0.0	306.76868200302124	0.19999194145202637
76	218.7628881931305	response	0	2		74.0	2.5	/experiments/knapen_aot/oldvideos/R_S_yt-UKrWbJEs7pw_74.mp4	0.0	306.96046805381775	
76	218.771094083786	movie	1		301.0	74.0	2.5	/experiments/knapen_aot/oldvideos/R_S_yt-UKrWbJEs7pw_74.mp4	0.0	306.96867394447327	2.5083200931549072
76	221.27941417694092	fix_post	2		12.0	74.0	2.5	/experiments/knapen_aot/oldvideos/R_S_yt-UKrWbJEs7pw_74.mp4	0.0	309.4769940376282	0.10014891624450684
77	221.37956309318542	fix_pre	0		33.0	75.0	2.5	/experiments/knapen_aot/oldvideos/S_yt-UKrWbJEs7pw_74.mp4	0.0	309.5771429538727	0.27779102325439453
77	221.64619898796082	response	0	2		75.0	2.5	/experiments/knapen_aot/oldvideos/S_yt-UKrWbJEs7pw_74.mp4	0.0	309.84377884864807	
77	221.65735411643982	movie	1		301.0	75.0	2.5	/experiments/knapen_aot/oldvideos/S_yt-UKrWbJEs7pw_74.mp4	0.0	309.8549339771271	2.5053319931030273
77	224.16268610954285	fix_post	2		12.0	75.0	2.5	/experiments/knapen_aot/oldvideos/S_yt-UKrWbJEs7pw_74.mp4	0.0	312.3602659702301	0.10018491744995117
78	224.2628710269928	fix_pre	0		35.0	76.0	2.5	blank	1.0	312.46045088768005	0.2915380001068115
78	224.5461950302124	response	0	2		76.0	2.5	blank	1.0	312.74377489089966	
78	224.5544090270996	movie	1		301.0	76.0	2.5	blank	1.0	312.75198888778687	2.5083930492401123
78	227.06280207633972	fix_post	2		12.0	76.0	2.5	blank	1.0	315.260381937027	0.09985804557800293
79	227.16266012191772	fix_pre	0		27.0	77.0	2.5	/experiments/knapen_aot/oldvideos/S_yt-4GDusA21cEA_170.mp4	0.0	315.360239982605	0.22499990463256836
79	227.3795690536499	response	0	2		77.0	2.5	/experiments/knapen_aot/oldvideos/S_yt-4GDusA21cEA_170.mp4	0.0	315.57714891433716	
79	227.3876600265503	movie	1		301.0	77.0	2.5	/experiments/knapen_aot/oldvideos/S_yt-4GDusA21cEA_170.mp4	0.0	315.58523988723755	2.5085010528564453
79	229.89616107940674	fix_post	2		12.0	77.0	2.5	/experiments/knapen_aot/oldvideos/S_yt-4GDusA21cEA_170.mp4	0.0	318.093740940094	0.09989500045776367
80	229.9960560798645	fix_pre	0		115.0	78.0	2.5	/experiments/knapen_aot/oldvideos/S_yt-7lULOC_rSE0_747.mp4	0.0	318.19363594055176	0.9583029747009277
80	230.94611716270447	response	0	2		78.0	2.5	/experiments/knapen_aot/oldvideos/S_yt-7lULOC_rSE0_747.mp4	0.0	319.1436970233917	
80	230.95435905456543	movie	1		301.0	78.0	2.5	/experiments/knapen_aot/oldvideos/S_yt-7lULOC_rSE0_747.mp4	0.0	319.1519389152527	2.5084569454193115
80	233.46281599998474	fix_post	2		12.0	78.0	2.5	/experiments/knapen_aot/oldvideos/S_yt-7lULOC_rSE0_747.mp4	0.0	321.660395860672	0.09993910789489746
81	233.56275510787964	fix_pre	0		23.0	79.0	2.5	/experiments/knapen_aot/oldvideos/R_S_comp_C001_C005_PS_v01_SDR_PS_20180925_SDR_2K_AVC.mp4	0.0	321.7603349685669	0.1915900707244873
81	233.7461700439453	response	0	2		79.0	2.5	/experiments/knapen_aot/oldvideos/R_S_comp_C001_C005_PS_v01_SDR_PS_20180925_SDR_2K_AVC.mp4	0.0	321.94374990463257	
81	233.75434517860413	movie	1		177.0	79.0	2.5	/experiments/knapen_aot/oldvideos/R_S_comp_C001_C005_PS_v01_SDR_PS_20180925_SDR_2K_AVC.mp4	0.0	321.9519250392914	2.508307933807373
81	236.2626531124115	fix_post	2		12.0	79.0	2.5	/experiments/knapen_aot/oldvideos/R_S_comp_C001_C005_PS_v01_SDR_PS_20180925_SDR_2K_AVC.mp4	0.0	324.46023297309875	0.10004806518554688
82	236.36270117759705	fix_pre	0		93.0	80.0	2.5	/experiments/knapen_aot/oldvideos/R_S_yt-vjed5qyKqZw_1.mp4	0.0	324.5602810382843	0.7750988006591797
82	237.12193703651428	response	0	2		80.0	2.5	/experiments/knapen_aot/oldvideos/R_S_yt-vjed5qyKqZw_1.mp4	0.0	325.31951689720154	
82	237.13779997825623	movie	1		301.0	80.0	2.5	/experiments/knapen_aot/oldvideos/R_S_yt-vjed5qyKqZw_1.mp4	0.0	325.3353798389435	2.5082321166992188
82	239.64603209495544	fix_post	2		12.0	80.0	2.5	/experiments/knapen_aot/oldvideos/R_S_yt-vjed5qyKqZw_1.mp4	0.0	327.8436119556427	0.10000205039978027
83	239.74603414535522	fix_pre	0		4.0	81.0	2.5	/experiments/knapen_aot/oldvideos/S_yt-oxUpc8I5wWQ_238.mp4	0.0	327.9436140060425	0.03331899642944336
83	239.7711260318756	response	0	2		81.0	2.5	/experiments/knapen_aot/oldvideos/S_yt-oxUpc8I5wWQ_238.mp4	0.0	327.96870589256287	
83	239.77935314178467	movie	1		301.0	81.0	2.5	/experiments/knapen_aot/oldvideos/S_yt-oxUpc8I5wWQ_238.mp4	0.0	327.9769330024719	2.5083398818969727
83	242.28769302368164	fix_post	2		12.0	81.0	2.5	/experiments/knapen_aot/oldvideos/S_yt-oxUpc8I5wWQ_238.mp4	0.0	330.4852728843689	0.10004901885986328
84	242.3877420425415	fix_pre	0		17.0	82.0	2.5	/experiments/knapen_aot/oldvideos/R_S_yt-0lfSyC79n14_7.mp4	0.0	330.58532190322876	0.14151406288146973
84	242.52106404304504	response	0	2		82.0	2.5	/experiments/knapen_aot/oldvideos/R_S_yt-0lfSyC79n14_7.mp4	0.0	330.7186439037323	
84	242.52925610542297	movie	1		301.0	82.0	2.5	/experiments/knapen_aot/oldvideos/R_S_yt-0lfSyC79n14_7.mp4	0.0	330.72683596611023	2.5083470344543457
84	245.03760313987732	fix_post	2		12.0	82.0	2.5	/experiments/knapen_aot/oldvideos/R_S_yt-0lfSyC79n14_7.mp4	0.0	333.2351830005646	0.10015606880187988
85	245.1377592086792	fix_pre	0		22.0	83.0	2.5	blank	1.0	333.33533906936646	0.18316388130187988
85	245.31268310546875	response	0	2		83.0	2.5	blank	1.0	333.510262966156	
85	245.32092308998108	movie	1		301.0	83.0	2.5	blank	1.0	333.51850295066833	2.5083420276641846
85	247.82926511764526	fix_post	2		12.0	83.0	2.5	blank	1.0	336.0268449783325	0.10023999214172363
87	247.929505109787	stim	0		459.0					336.12708497047424	3.8247740268707275
87	248.11270904541016	response	0	2						336.3102889060974	
87	251.7499680519104	response	0	space						339.94754791259766	
