trial_nr	onset	event_type	phase	response	nr_frames	movie_index	movie_duration	movie_file	blank	onset_abs	duration
0	0.13340497016906738	stim	0		152.0					63.52558779716492	1.2832748889923096
0	1.4001460075378418	response	0	space						64.79232883453369	
1	1.416679859161377	stim	0		120.0					64.80886268615723	0.9997060298919678
1	2.4163858890533447	stim	1		120.0					65.8085687160492	0.9998931884765625
1	3.3497960567474365	response	1	space						66.74197888374329	
2	3.4162790775299072	fix_pre	0		135.0	0.0	2.5	/experiments/knapen_aot/videos/R_S_yt-K_gHa2x2OQA_319.mp4	0.0	66.80846190452576	1.124985933303833
2	4.533046007156372	response	0	space		0.0	2.5	/experiments/knapen_aot/videos/R_S_yt-K_gHa2x2OQA_319.mp4	0.0	67.92522883415222	
2	4.54126501083374	movie	1		301.0	0.0	2.5	/experiments/knapen_aot/videos/R_S_yt-K_gHa2x2OQA_319.mp4	0.0	67.93344783782959	2.508410930633545
2	7.049675941467285	fix_post	2		12.0	0.0	2.5	/experiments/knapen_aot/videos/R_S_yt-K_gHa2x2OQA_319.mp4	0.0	70.44185876846313	0.09996891021728516
3	7.14964485168457	fix_pre	0		2864.0	1.0	2.5	/experiments/knapen_aot/videos/R_S_ILSVRC2015_train_00479000.mp4	0.0	70.54182767868042	23.86977505683899
3	7.519253969192505	response	0	1		1.0	2.5	/experiments/knapen_aot/videos/R_S_ILSVRC2015_train_00479000.mp4	0.0	70.91143679618835	
3	10.874651908874512	response	0	1		1.0	2.5	/experiments/knapen_aot/videos/R_S_ILSVRC2015_train_00479000.mp4	0.0	74.26683473587036	
3	12.90808892250061	response	0	1		1.0	2.5	/experiments/knapen_aot/videos/R_S_ILSVRC2015_train_00479000.mp4	0.0	76.30027174949646	
3	15.983016967773438	response	0	1		1.0	2.5	/experiments/knapen_aot/videos/R_S_ILSVRC2015_train_00479000.mp4	0.0	79.37519979476929	
3	17.066237926483154	response	0	3		1.0	2.5	/experiments/knapen_aot/videos/R_S_ILSVRC2015_train_00479000.mp4	0.0	80.458420753479	
3	29.7662570476532	response	0	1		1.0	2.5	/experiments/knapen_aot/videos/R_S_ILSVRC2015_train_00479000.mp4	0.0	93.15843987464905	
3	31.012194871902466	response	0	space		1.0	2.5	/experiments/knapen_aot/videos/R_S_ILSVRC2015_train_00479000.mp4	0.0	94.40437769889832	
3	31.01941990852356	movie	1		293.0	1.0	2.5	/experiments/knapen_aot/videos/R_S_ILSVRC2015_train_00479000.mp4	0.0	94.41160273551941	2.505120038986206
3	33.524539947509766	fix_post	2		12.0	1.0	2.5	/experiments/knapen_aot/videos/R_S_ILSVRC2015_train_00479000.mp4	0.0	96.91672277450562	0.10011100769042969
4	33.624650955200195	fix_pre	0		616.0	2.0	2.5	/experiments/knapen_aot/videos/S_yt-aSEKRE_FNaI_62.mp4	0.0	97.01683378219604	5.13776707649231
4	34.12970995903015	response	0	1		2.0	2.5	/experiments/knapen_aot/videos/S_yt-aSEKRE_FNaI_62.mp4	0.0	97.521892786026	
4	35.724679946899414	response	0	1		2.0	2.5	/experiments/knapen_aot/videos/S_yt-aSEKRE_FNaI_62.mp4	0.0	99.11686277389526	
4	37.091222047805786	response	0	1		2.0	2.5	/experiments/knapen_aot/videos/S_yt-aSEKRE_FNaI_62.mp4	0.0	100.48340487480164	
4	37.6245219707489	response	0	1		2.0	2.5	/experiments/knapen_aot/videos/S_yt-aSEKRE_FNaI_62.mp4	0.0	101.01670479774475	
4	37.791236877441406	response	0	1		2.0	2.5	/experiments/knapen_aot/videos/S_yt-aSEKRE_FNaI_62.mp4	0.0	101.18341970443726	
4	37.957823038101196	response	0	1		2.0	2.5	/experiments/knapen_aot/videos/S_yt-aSEKRE_FNaI_62.mp4	0.0	101.35000586509705	
4	38.75353789329529	response	0	space		2.0	2.5	/experiments/knapen_aot/videos/S_yt-aSEKRE_FNaI_62.mp4	0.0	102.14572072029114	
4	38.762418031692505	movie	1		296.0	2.0	2.5	/experiments/knapen_aot/videos/S_yt-aSEKRE_FNaI_62.mp4	0.0	102.15460085868835	2.5037038326263428
4	41.26612186431885	fix_post	2		12.0	2.0	2.5	/experiments/knapen_aot/videos/S_yt-aSEKRE_FNaI_62.mp4	0.0	104.6583046913147	0.09997010231018066
5	41.36609196662903	fix_pre	0		752.0	3.0	2.5	/experiments/knapen_aot/videos/S_bing-www_yahoo_com_entertainment_anastasia-karanikolaou-chantel-jeffries-discuss-182400502_html_9.mp4	0.0	104.75827479362488	6.271244049072266
5	42.21162295341492	response	0	1		3.0	2.5	/experiments/knapen_aot/videos/S_bing-www_yahoo_com_entertainment_anastasia-karanikolaou-chantel-jeffries-discuss-182400502_html_9.mp4	0.0	105.60380578041077	
5	44.657952070236206	response	0	3		3.0	2.5	/experiments/knapen_aot/videos/S_bing-www_yahoo_com_entertainment_anastasia-karanikolaou-chantel-jeffries-discuss-182400502_html_9.mp4	0.0	108.05013489723206	
5	46.267027854919434	response	0	1		3.0	2.5	/experiments/knapen_aot/videos/S_bing-www_yahoo_com_entertainment_anastasia-karanikolaou-chantel-jeffries-discuss-182400502_html_9.mp4	0.0	109.65921068191528	
5	47.62854599952698	response	0	space		3.0	2.5	/experiments/knapen_aot/videos/S_bing-www_yahoo_com_entertainment_anastasia-karanikolaou-chantel-jeffries-discuss-182400502_html_9.mp4	0.0	111.02072882652283	
5	47.637336015701294	movie	1		165.0	3.0	2.5	/experiments/knapen_aot/videos/S_bing-www_yahoo_com_entertainment_anastasia-karanikolaou-chantel-jeffries-discuss-182400502_html_9.mp4	0.0	111.02951884269714	2.503735065460205
5	47.703083992004395	response	1	3		3.0	2.5	/experiments/knapen_aot/videos/S_bing-www_yahoo_com_entertainment_anastasia-karanikolaou-chantel-jeffries-discuss-182400502_html_9.mp4	0.0	111.09526681900024	
5	50.1410710811615	fix_post	2		12.0	3.0	2.5	/experiments/knapen_aot/videos/S_bing-www_yahoo_com_entertainment_anastasia-karanikolaou-chantel-jeffries-discuss-182400502_html_9.mp4	0.0	113.53325390815735	0.10001587867736816
6	50.24108695983887	fix_pre	0		169.0	4.0	2.5	/experiments/knapen_aot/videos/R_S_yt-pB9w3AA-woE_37.mp4	0.0	113.63326978683472	1.4100639820098877
6	51.14969205856323	response	0	3		4.0	2.5	/experiments/knapen_aot/videos/R_S_yt-pB9w3AA-woE_37.mp4	0.0	114.54187488555908	
6	51.64459705352783	response	0	space		4.0	2.5	/experiments/knapen_aot/videos/R_S_yt-pB9w3AA-woE_37.mp4	0.0	115.03677988052368	
6	51.651150941848755	movie	1		295.0	4.0	2.5	/experiments/knapen_aot/videos/R_S_yt-pB9w3AA-woE_37.mp4	0.0	115.0433337688446	2.5066299438476562
6	54.15778088569641	fix_post	2		12.0	4.0	2.5	/experiments/knapen_aot/videos/R_S_yt-pB9w3AA-woE_37.mp4	0.0	117.54996371269226	0.09998512268066406
7	54.257766008377075	fix_pre	0		463.0	5.0	2.5	blank	1.0	117.64994883537292	3.8585989475250244
7	54.63004684448242	response	0	3		5.0	2.5	blank	1.0	118.02222967147827	
7	55.92454504966736	response	0	1		5.0	2.5	blank	1.0	119.31672787666321	
7	58.10786294937134	response	0	2		5.0	2.5	blank	1.0	121.50004577636719	
7	58.1163649559021	movie	1		301.0	5.0	2.5	blank	1.0	121.50854778289795	2.508060932159424
7	59.84116196632385	response	1	2		5.0	2.5	blank	1.0	123.2333447933197	
7	60.62442588806152	fix_post	2		12.0	5.0	2.5	blank	1.0	124.01660871505737	0.09997105598449707
8	60.72439694404602	fix_pre	0		98.0	6.0	2.5	/experiments/knapen_aot/videos/R_S_ILSVRC2015_train_00715000.mp4	0.0	124.11657977104187	0.8165929317474365
8	61.532845973968506	response	0	2		6.0	2.5	/experiments/knapen_aot/videos/R_S_ILSVRC2015_train_00715000.mp4	0.0	124.92502880096436	
8	61.54098987579346	movie	1		301.0	6.0	2.5	/experiments/knapen_aot/videos/R_S_ILSVRC2015_train_00715000.mp4	0.0	124.9331727027893	2.508463144302368
8	64.04945302009583	fix_post	2		12.0	6.0	2.5	/experiments/knapen_aot/videos/R_S_ILSVRC2015_train_00715000.mp4	0.0	127.44163584709167	0.10162496566772461
9	64.15107798576355	fix_pre	0		137.0	7.0	2.5	/experiments/knapen_aot/videos/R_S_yt-zhQ32_OayBQ_39.mp4	0.0	127.5432608127594	1.139927864074707
9	65.28284907341003	response	0	2		7.0	2.5	/experiments/knapen_aot/videos/R_S_yt-zhQ32_OayBQ_39.mp4	0.0	128.67503190040588	
9	65.29100584983826	movie	1		301.0	7.0	2.5	/experiments/knapen_aot/videos/R_S_yt-zhQ32_OayBQ_39.mp4	0.0	128.6831886768341	2.508418083190918
9	67.79942393302917	fix_post	2		12.0	7.0	2.5	/experiments/knapen_aot/videos/R_S_yt-zhQ32_OayBQ_39.mp4	0.0	131.19160676002502	0.09994912147521973
10	67.8993730545044	fix_pre	0		135.0	8.0	2.5	/experiments/knapen_aot/videos/R_S_yt-6mRpmfIvdew_1435.mp4	0.0	131.29155588150024	1.1249558925628662
10	69.01617503166199	response	0	2		8.0	2.5	/experiments/knapen_aot/videos/R_S_yt-6mRpmfIvdew_1435.mp4	0.0	132.40835785865784	
10	69.02432894706726	movie	1		301.0	8.0	2.5	/experiments/knapen_aot/videos/R_S_yt-6mRpmfIvdew_1435.mp4	0.0	132.4165117740631	2.508584976196289
10	71.53291392326355	fix_post	2		12.0	8.0	2.5	/experiments/knapen_aot/videos/R_S_yt-6mRpmfIvdew_1435.mp4	0.0	134.9250967502594	0.09991002082824707
11	71.6328239440918	fix_pre	0		90.0	9.0	2.5	/experiments/knapen_aot/videos/R_S_pexels-artem-podrez-5457692.mp4	0.0	135.02500677108765	0.749885082244873
11	72.37453293800354	response	0	2		9.0	2.5	/experiments/knapen_aot/videos/R_S_pexels-artem-podrez-5457692.mp4	0.0	135.7667157649994	
11	72.38270902633667	movie	1		165.0	9.0	2.5	/experiments/knapen_aot/videos/R_S_pexels-artem-podrez-5457692.mp4	0.0	135.77489185333252	2.5082998275756836
11	74.89100885391235	fix_post	2		12.0	9.0	2.5	/experiments/knapen_aot/videos/R_S_pexels-artem-podrez-5457692.mp4	0.0	138.2831916809082	0.10020804405212402
12	74.99121689796448	fix_pre	0		118.0	10.0	2.5	/experiments/knapen_aot/videos/S_yt-K_gHa2x2OQA_319.mp4	0.0	138.38339972496033	0.9831030368804932
12	75.95855498313904	response	0	2		10.0	2.5	/experiments/knapen_aot/videos/S_yt-K_gHa2x2OQA_319.mp4	0.0	139.3507378101349	
12	75.97431993484497	movie	1		301.0	10.0	2.5	/experiments/knapen_aot/videos/S_yt-K_gHa2x2OQA_319.mp4	0.0	139.36650276184082	2.5083460807800293
12	78.482666015625	fix_post	2		12.0	10.0	2.5	/experiments/knapen_aot/videos/S_yt-K_gHa2x2OQA_319.mp4	0.0	141.87484884262085	0.10010385513305664
13	78.58276987075806	fix_pre	0		104.0	11.0	2.5	/experiments/knapen_aot/videos/R_S_yt-o_CT2MjZ9fA_216.mp4	0.0	141.9749526977539	0.8667089939117432
13	79.44114398956299	response	0	2		11.0	2.5	/experiments/knapen_aot/videos/R_S_yt-o_CT2MjZ9fA_216.mp4	0.0	142.83332681655884	
13	79.4494788646698	movie	1		301.0	11.0	2.5	/experiments/knapen_aot/videos/R_S_yt-o_CT2MjZ9fA_216.mp4	0.0	142.84166169166565	2.5080831050872803
13	81.95756196975708	fix_post	2		12.0	11.0	2.5	/experiments/knapen_aot/videos/R_S_yt-o_CT2MjZ9fA_216.mp4	0.0	145.34974479675293	0.1000978946685791
14	82.05765986442566	fix_pre	0		26.0	12.0	2.5	/experiments/knapen_aot/videos/S_yt-dO0OuozAgt0_225.mp4	0.0	145.4498426914215	0.21662211418151855
14	82.26605796813965	response	0	2		12.0	2.5	/experiments/knapen_aot/videos/S_yt-dO0OuozAgt0_225.mp4	0.0	145.6582407951355	
14	82.27428197860718	movie	1		300.0	12.0	2.5	/experiments/knapen_aot/videos/S_yt-dO0OuozAgt0_225.mp4	0.0	145.66646480560303	2.5086429119110107
14	84.78292489051819	fix_post	2		12.0	12.0	2.5	/experiments/knapen_aot/videos/S_yt-dO0OuozAgt0_225.mp4	0.0	148.17510771751404	0.09960412979125977
15	84.88252902030945	fix_pre	0		21.0	13.0	2.5	blank	1.0	148.2747118473053	0.17510294914245605
15	85.04945087432861	response	0	2		13.0	2.5	blank	1.0	148.44163370132446	
15	85.0576319694519	movie	1		301.0	13.0	2.5	blank	1.0	148.44981479644775	2.508327007293701
15	87.5659589767456	fix_post	2		12.0	13.0	2.5	blank	1.0	150.95814180374146	0.1000370979309082
16	87.66599607467651	fix_pre	0		24.0	14.0	2.5	/experiments/knapen_aot/videos/S_yt-tEzCpMrjOHs_24.mp4	0.0	151.05817890167236	0.20009183883666992
16	87.85771894454956	response	0	2		14.0	2.5	/experiments/knapen_aot/videos/S_yt-tEzCpMrjOHs_24.mp4	0.0	151.2499017715454	
16	87.86608791351318	movie	1		301.0	14.0	2.5	/experiments/knapen_aot/videos/S_yt-tEzCpMrjOHs_24.mp4	0.0	151.25827074050903	2.5082621574401855
16	90.37435007095337	fix_post	2		12.0	14.0	2.5	/experiments/knapen_aot/videos/S_yt-tEzCpMrjOHs_24.mp4	0.0	153.76653289794922	0.09987497329711914
17	90.47422504425049	fix_pre	0		20.0	15.0	2.5	/experiments/knapen_aot/videos/S_yt-mQRzWCcKOR8_28.mp4	0.0	153.86640787124634	0.16666889190673828
17	90.63278698921204	response	0	2		15.0	2.5	/experiments/knapen_aot/videos/S_yt-mQRzWCcKOR8_28.mp4	0.0	154.02496981620789	
17	90.64089393615723	movie	1		301.0	15.0	2.5	/experiments/knapen_aot/videos/S_yt-mQRzWCcKOR8_28.mp4	0.0	154.03307676315308	2.5085530281066895
17	93.14944696426392	fix_post	2		12.0	15.0	2.5	/experiments/knapen_aot/videos/S_yt-mQRzWCcKOR8_28.mp4	0.0	156.54162979125977	0.09993791580200195
18	93.24938488006592	fix_pre	0		25.0	16.0	2.5	/experiments/knapen_aot/videos/R_S_ILSVRC2015_train_00689000.mp4	0.0	156.64156770706177	0.20822405815124512
18	93.44943690299988	response	0	2		16.0	2.5	/experiments/knapen_aot/videos/R_S_ILSVRC2015_train_00689000.mp4	0.0	156.84161972999573	
18	93.45760893821716	movie	1		301.0	16.0	2.5	/experiments/knapen_aot/videos/R_S_ILSVRC2015_train_00689000.mp4	0.0	156.849791765213	2.508342981338501
18	95.96595191955566	fix_post	2		12.0	16.0	2.5	/experiments/knapen_aot/videos/R_S_ILSVRC2015_train_00689000.mp4	0.0	159.3581347465515	0.10001611709594727
19	96.06596803665161	fix_pre	0		22.0	17.0	2.5	/experiments/knapen_aot/videos/R_S_yt-LQrnLKP5tiQ_48.mp4	0.0	159.45815086364746	0.1833209991455078
19	96.24107098579407	response	0	2		17.0	2.5	/experiments/knapen_aot/videos/R_S_yt-LQrnLKP5tiQ_48.mp4	0.0	159.63325381278992	
19	96.24928903579712	movie	1		301.0	17.0	2.5	/experiments/knapen_aot/videos/R_S_yt-LQrnLKP5tiQ_48.mp4	0.0	159.64147186279297	2.5083680152893066
19	98.75765705108643	fix_post	2		12.0	17.0	2.5	/experiments/knapen_aot/videos/R_S_yt-LQrnLKP5tiQ_48.mp4	0.0	162.14983987808228	0.09997892379760742
20	98.85763597488403	fix_pre	0		23.0	18.0	2.5	/experiments/knapen_aot/videos/S_ILSVRC2015_train_00638001.mp4	0.0	162.24981880187988	0.19163298606872559
20	99.04109597206116	response	0	2		18.0	2.5	/experiments/knapen_aot/videos/S_ILSVRC2015_train_00638001.mp4	0.0	162.433278799057	
20	99.04926896095276	movie	1		301.0	18.0	2.5	/experiments/knapen_aot/videos/S_ILSVRC2015_train_00638001.mp4	0.0	162.4414517879486	2.508375883102417
20	101.55764484405518	fix_post	2		12.0	18.0	2.5	/experiments/knapen_aot/videos/S_ILSVRC2015_train_00638001.mp4	0.0	164.94982767105103	0.10005307197570801
21	101.65769791603088	fix_pre	0		16.0	19.0	2.5	blank	1.0	165.04988074302673	0.1332409381866455
21	101.78288888931274	response	0	2		19.0	2.5	blank	1.0	165.1750717163086	
21	101.79093885421753	movie	1		301.0	19.0	2.5	blank	1.0	165.18312168121338	2.508249044418335
21	104.29918789863586	fix_post	2		12.0	19.0	2.5	blank	1.0	167.6913707256317	0.10008907318115234
22	104.39927697181702	fix_pre	0		31.0	20.0	2.5	/experiments/knapen_aot/videos/R_S_yt-G65z8p1YNhw_16.mp4	0.0	167.79145979881287	0.258289098739624
22	104.6492350101471	response	0	2		20.0	2.5	/experiments/knapen_aot/videos/R_S_yt-G65z8p1YNhw_16.mp4	0.0	168.04141783714294	
22	104.65756607055664	movie	1		301.0	20.0	2.5	/experiments/knapen_aot/videos/R_S_yt-G65z8p1YNhw_16.mp4	0.0	168.0497488975525	2.5083038806915283
22	107.16586995124817	fix_post	2		12.0	20.0	2.5	/experiments/knapen_aot/videos/R_S_yt-G65z8p1YNhw_16.mp4	0.0	170.55805277824402	0.10006093978881836
23	107.26593089103699	fix_pre	0		11.0	21.0	2.5	/experiments/knapen_aot/videos/S_Pexels_Videos_2795731.mp4	0.0	170.65811371803284	0.09154796600341797
23	107.34930396080017	response	0	2		21.0	2.5	/experiments/knapen_aot/videos/S_Pexels_Videos_2795731.mp4	0.0	170.74148678779602	
23	107.3574788570404	movie	1		162.0	21.0	2.5	/experiments/knapen_aot/videos/S_Pexels_Videos_2795731.mp4	0.0	170.74966168403625	2.5084171295166016
23	109.865895986557	fix_post	2		12.0	21.0	2.5	/experiments/knapen_aot/videos/S_Pexels_Videos_2795731.mp4	0.0	173.25807881355286	0.1000680923461914
24	109.9659640789032	fix_pre	0		25.0	22.0	2.5	/experiments/knapen_aot/videos/S_yt-CRw9-cCQqbg_332.mp4	0.0	173.35814690589905	0.2082197666168213
24	110.16597104072571	response	0	2		22.0	2.5	/experiments/knapen_aot/videos/S_yt-CRw9-cCQqbg_332.mp4	0.0	173.55815386772156	
24	110.17418384552002	movie	1		301.0	22.0	2.5	/experiments/knapen_aot/videos/S_yt-CRw9-cCQqbg_332.mp4	0.0	173.56636667251587	2.5083301067352295
24	112.68251395225525	fix_post	2		12.0	22.0	2.5	/experiments/knapen_aot/videos/S_yt-CRw9-cCQqbg_332.mp4	0.0	176.0746967792511	0.10004401206970215
25	112.78255796432495	fix_pre	0		28.0	23.0	2.5	/experiments/knapen_aot/videos/R_S_yt-jYSri2JVUqo_1036.mp4	0.0	176.1747407913208	0.23328208923339844
25	113.00767493247986	response	0	2		23.0	2.5	/experiments/knapen_aot/videos/R_S_yt-jYSri2JVUqo_1036.mp4	0.0	176.3998577594757	
25	113.01584005355835	movie	1		301.0	23.0	2.5	/experiments/knapen_aot/videos/R_S_yt-jYSri2JVUqo_1036.mp4	0.0	176.4080228805542	2.5083179473876953
25	115.52415800094604	fix_post	2		12.0	23.0	2.5	/experiments/knapen_aot/videos/R_S_yt-jYSri2JVUqo_1036.mp4	0.0	178.9163408279419	0.09992194175720215
26	115.62407994270325	fix_pre	0		6.0	24.0	2.5	/experiments/knapen_aot/videos/R_S_yt-33PKaLVxDC4_2703.mp4	0.0	179.0162627696991	0.05005002021789551
26	115.65883493423462	response	0	2		24.0	2.5	/experiments/knapen_aot/videos/R_S_yt-33PKaLVxDC4_2703.mp4	0.0	179.05101776123047	
26	115.67412996292114	movie	1		301.0	24.0	2.5	/experiments/knapen_aot/videos/R_S_yt-33PKaLVxDC4_2703.mp4	0.0	179.066312789917	2.508341073989868
26	118.18247103691101	fix_post	2		12.0	24.0	2.5	/experiments/knapen_aot/videos/R_S_yt-33PKaLVxDC4_2703.mp4	0.0	181.57465386390686	0.10045790672302246
27	118.28292894363403	fix_pre	0		25.0	25.0	2.5	/experiments/knapen_aot/videos/R_S_comp_LA_A005_C009_PSNK_ALT_v09_SDR_PS_201809134_SDR_2K_AVC.mp4	0.0	181.67511177062988	0.2078559398651123
27	118.48255801200867	response	0	2		25.0	2.5	/experiments/knapen_aot/videos/R_S_comp_LA_A005_C009_PSNK_ALT_v09_SDR_PS_201809134_SDR_2K_AVC.mp4	0.0	181.87474083900452	
27	118.49078488349915	movie	1		169.0	25.0	2.5	/experiments/knapen_aot/videos/R_S_comp_LA_A005_C009_PSNK_ALT_v09_SDR_PS_201809134_SDR_2K_AVC.mp4	0.0	181.882967710495	2.508315086364746
27	120.99909996986389	fix_post	2		12.0	25.0	2.5	/experiments/knapen_aot/videos/R_S_comp_LA_A005_C009_PSNK_ALT_v09_SDR_PS_201809134_SDR_2K_AVC.mp4	0.0	184.39128279685974	0.10001111030578613
27	121.0007529258728	response	2	2		25.0	2.5	/experiments/knapen_aot/videos/R_S_comp_LA_A005_C009_PSNK_ALT_v09_SDR_PS_201809134_SDR_2K_AVC.mp4	0.0	184.39293575286865	
28	121.09911108016968	fix_pre	0		192.0	26.0	2.5	blank	1.0	184.49129390716553	1.6000099182128906
28	122.69095993041992	response	0	2		26.0	2.5	blank	1.0	186.08314275741577	
28	122.69912099838257	movie	1		301.0	26.0	2.5	blank	1.0	186.09130382537842	2.508296012878418
28	125.20741701126099	fix_post	2		12.0	26.0	2.5	blank	1.0	188.59959983825684	0.10014200210571289
29	125.3075590133667	fix_pre	0		36.0	27.0	2.5	/experiments/knapen_aot/videos/R_S_yt-XtzmBXKYEWk_60.mp4	0.0	188.69974184036255	0.2998008728027344
29	125.59919095039368	response	0	2		27.0	2.5	/experiments/knapen_aot/videos/R_S_yt-XtzmBXKYEWk_60.mp4	0.0	188.99137377738953	
29	125.60735988616943	movie	1		301.0	27.0	2.5	/experiments/knapen_aot/videos/R_S_yt-XtzmBXKYEWk_60.mp4	0.0	188.99954271316528	2.50839900970459
29	128.11575889587402	fix_post	2		12.0	27.0	2.5	/experiments/knapen_aot/videos/R_S_yt-XtzmBXKYEWk_60.mp4	0.0	191.50794172286987	0.10023999214172363
30	128.21599888801575	fix_pre	0		18.0	28.0	2.5	/experiments/knapen_aot/videos/R_S_yt-7Fyu2vr7zbA_31.mp4	0.0	191.6081817150116	0.1497800350189209
30	128.3575940132141	response	0	2		28.0	2.5	/experiments/knapen_aot/videos/R_S_yt-7Fyu2vr7zbA_31.mp4	0.0	191.74977684020996	
30	128.36577892303467	movie	1		301.0	28.0	2.5	/experiments/knapen_aot/videos/R_S_yt-7Fyu2vr7zbA_31.mp4	0.0	191.75796175003052	2.5082831382751465
30	130.87406206130981	fix_post	2		12.0	28.0	2.5	/experiments/knapen_aot/videos/R_S_yt-7Fyu2vr7zbA_31.mp4	0.0	194.26624488830566	0.10016584396362305
31	130.97422790527344	fix_pre	0		92.0	29.0	2.5	/experiments/knapen_aot/videos/R_S_yt-nQu-PAXBv2g_5.mp4	0.0	194.3664107322693	0.7664470672607422
31	131.7325620651245	response	0	2		29.0	2.5	/experiments/knapen_aot/videos/R_S_yt-nQu-PAXBv2g_5.mp4	0.0	195.12474489212036	
31	131.74067497253418	movie	1		301.0	29.0	2.5	/experiments/knapen_aot/videos/R_S_yt-nQu-PAXBv2g_5.mp4	0.0	195.13285779953003	2.508312940597534
31	134.2489879131317	fix_post	2		12.0	29.0	2.5	/experiments/knapen_aot/videos/R_S_yt-nQu-PAXBv2g_5.mp4	0.0	197.64117074012756	0.10008597373962402
32	134.34907388687134	fix_pre	0		23.0	30.0	2.5	/experiments/knapen_aot/videos/R_S_yt-g_CLzrCYHoc_7.mp4	0.0	197.7412567138672	0.19162607192993164
32	134.52496695518494	response	0	2		30.0	2.5	/experiments/knapen_aot/videos/R_S_yt-g_CLzrCYHoc_7.mp4	0.0	197.9171497821808	
32	134.54069995880127	movie	1		301.0	30.0	2.5	/experiments/knapen_aot/videos/R_S_yt-g_CLzrCYHoc_7.mp4	0.0	197.93288278579712	2.50846004486084
32	137.0491600036621	fix_post	2		12.0	30.0	2.5	/experiments/knapen_aot/videos/R_S_yt-g_CLzrCYHoc_7.mp4	0.0	200.44134283065796	0.09992003440856934
33	137.14908003807068	fix_pre	0		28.0	31.0	2.5	/experiments/knapen_aot/videos/R_S_ILSVRC2015_train_00404003.mp4	0.0	200.54126286506653	0.23326587677001953
33	137.3741750717163	response	0	2		31.0	2.5	/experiments/knapen_aot/videos/R_S_ILSVRC2015_train_00404003.mp4	0.0	200.76635789871216	
33	137.3823459148407	movie	1		300.0	31.0	2.5	/experiments/knapen_aot/videos/R_S_ILSVRC2015_train_00404003.mp4	0.0	200.77452874183655	2.5083560943603516
33	139.89070200920105	fix_post	2		12.0	31.0	2.5	/experiments/knapen_aot/videos/R_S_ILSVRC2015_train_00404003.mp4	0.0	203.2828848361969	0.10017704963684082
34	139.9908790588379	fix_pre	0		221.0	32.0	2.5	/experiments/knapen_aot/videos/R_S_ILSVRC2015_train_00323000.mp4	0.0	203.38306188583374	1.841418981552124
34	141.82422184944153	response	0	2		32.0	2.5	/experiments/knapen_aot/videos/R_S_ILSVRC2015_train_00323000.mp4	0.0	205.21640467643738	
34	141.83229804039001	movie	1		301.0	32.0	2.5	/experiments/knapen_aot/videos/R_S_ILSVRC2015_train_00323000.mp4	0.0	205.22448086738586	2.508378028869629
34	144.34067606925964	fix_post	2		12.0	32.0	2.5	/experiments/knapen_aot/videos/R_S_ILSVRC2015_train_00323000.mp4	0.0	207.7328588962555	0.10001897811889648
35	144.44069504737854	fix_pre	0		9.0	33.0	2.5	/experiments/knapen_aot/videos/S_comp_LW_L001_C006_PSNK_DENOISE_v02_SDR_PS_FINAL_20180709_SDR_2K_AVC.mp4	0.0	207.8328778743744	0.07501888275146484
35	144.50765705108643	response	0	2		33.0	2.5	/experiments/knapen_aot/videos/S_comp_LW_L001_C006_PSNK_DENOISE_v02_SDR_PS_FINAL_20180709_SDR_2K_AVC.mp4	0.0	207.89983987808228	
35	144.51571393013	movie	1		164.0	33.0	2.5	/experiments/knapen_aot/videos/S_comp_LW_L001_C006_PSNK_DENOISE_v02_SDR_PS_FINAL_20180709_SDR_2K_AVC.mp4	0.0	207.90789675712585	2.508352041244507
35	147.0240659713745	fix_post	2		12.0	33.0	2.5	/experiments/knapen_aot/videos/S_comp_LW_L001_C006_PSNK_DENOISE_v02_SDR_PS_FINAL_20180709_SDR_2K_AVC.mp4	0.0	210.41624879837036	0.1000669002532959
36	147.1241328716278	fix_pre	0		8.0	34.0	2.5	blank	1.0	210.51631569862366	0.06782913208007812
36	147.1825749874115	response	0	2		34.0	2.5	blank	1.0	210.57475781440735	
36	147.19196200370789	movie	1		301.0	34.0	2.5	blank	1.0	210.58414483070374	2.507143974304199
36	149.69910597801208	fix_post	2		12.0	34.0	2.5	blank	1.0	213.09128880500793	0.10001993179321289
37	149.7991259098053	fix_pre	0		38.0	35.0	2.5	/experiments/knapen_aot/videos/S_yt-OTNdgakSIJE_97.mp4	0.0	213.19130873680115	0.3166019916534424
37	150.10752201080322	response	0	2		35.0	2.5	/experiments/knapen_aot/videos/S_yt-OTNdgakSIJE_97.mp4	0.0	213.49970483779907	
37	150.11572790145874	movie	1		299.0	35.0	2.5	/experiments/knapen_aot/videos/S_yt-OTNdgakSIJE_97.mp4	0.0	213.5079107284546	2.50823712348938
37	152.62396502494812	fix_post	2		12.0	35.0	2.5	/experiments/knapen_aot/videos/S_yt-OTNdgakSIJE_97.mp4	0.0	216.01614785194397	0.10006403923034668
38	152.72402906417847	fix_pre	0		3.0	36.0	2.5	/experiments/knapen_aot/videos/R_S_yt-9Ow95khYa_M_91.mp4	0.0	216.11621189117432	0.025054931640625
38	152.74085402488708	response	0	2		36.0	2.5	/experiments/knapen_aot/videos/R_S_yt-9Ow95khYa_M_91.mp4	0.0	216.13303685188293	
38	152.7490839958191	movie	1		301.0	36.0	2.5	/experiments/knapen_aot/videos/R_S_yt-9Ow95khYa_M_91.mp4	0.0	216.14126682281494	2.508409023284912
38	155.257493019104	fix_post	2		12.0	36.0	2.5	/experiments/knapen_aot/videos/R_S_yt-9Ow95khYa_M_91.mp4	0.0	218.64967584609985	0.09981298446655273
39	155.35730600357056	fix_pre	0		5.0	37.0	2.5	/experiments/knapen_aot/videos/R_S_yt-tEzCpMrjOHs_24.mp4	0.0	218.7494888305664	0.042862892150878906
39	155.39086604118347	response	0	2		37.0	2.5	/experiments/knapen_aot/videos/R_S_yt-tEzCpMrjOHs_24.mp4	0.0	218.78304886817932	
39	155.40016889572144	movie	1		301.0	37.0	2.5	/experiments/knapen_aot/videos/R_S_yt-tEzCpMrjOHs_24.mp4	0.0	218.79235172271729	2.5071330070495605
39	157.84095096588135	response	1	2		37.0	2.5	/experiments/knapen_aot/videos/R_S_yt-tEzCpMrjOHs_24.mp4	0.0	221.2331337928772	
39	157.907301902771	fix_post	2		12.0	37.0	2.5	/experiments/knapen_aot/videos/R_S_yt-tEzCpMrjOHs_24.mp4	0.0	221.29948472976685	0.1000361442565918
40	158.0073380470276	fix_pre	0		98.0	38.0	2.5	/experiments/knapen_aot/videos/R_S_yt-he_RSdeVinA_68.mp4	0.0	221.39952087402344	0.8166229724884033
40	158.81571793556213	response	0	2		38.0	2.5	/experiments/knapen_aot/videos/R_S_yt-he_RSdeVinA_68.mp4	0.0	222.20790076255798	
40	158.823961019516	movie	1		301.0	38.0	2.5	/experiments/knapen_aot/videos/R_S_yt-he_RSdeVinA_68.mp4	0.0	222.21614384651184	2.5083048343658447
40	161.33226585388184	fix_post	2		12.0	38.0	2.5	/experiments/knapen_aot/videos/R_S_yt-he_RSdeVinA_68.mp4	0.0	224.72444868087769	0.10050320625305176
41	161.4327690601349	fix_pre	0		16.0	39.0	2.5	/experiments/knapen_aot/videos/S_yt-wE0cEswyaaM_53.mp4	0.0	224.82495188713074	0.13398098945617676
41	161.5574610233307	response	0	2		39.0	2.5	/experiments/knapen_aot/videos/S_yt-wE0cEswyaaM_53.mp4	0.0	224.94964385032654	
41	161.56675004959106	movie	1		301.0	39.0	2.5	/experiments/knapen_aot/videos/S_yt-wE0cEswyaaM_53.mp4	0.0	224.9589328765869	2.507211923599243
41	164.0739619731903	fix_post	2		12.0	39.0	2.5	/experiments/knapen_aot/videos/S_yt-wE0cEswyaaM_53.mp4	0.0	227.46614480018616	0.10001206398010254
42	164.1739740371704	fix_pre	0		8.0	40.0	2.5	/experiments/knapen_aot/videos/R_S_wc-0SAXOWjdNVGC_8.mp4	0.0	227.56615686416626	0.06662297248840332
42	164.23247385025024	response	0	2		40.0	2.5	/experiments/knapen_aot/videos/R_S_wc-0SAXOWjdNVGC_8.mp4	0.0	227.6246566772461	
42	164.2405970096588	movie	1		161.0	40.0	2.5	/experiments/knapen_aot/videos/R_S_wc-0SAXOWjdNVGC_8.mp4	0.0	227.63277983665466	2.508358955383301
42	166.74895596504211	fix_post	2		12.0	40.0	2.5	/experiments/knapen_aot/videos/R_S_wc-0SAXOWjdNVGC_8.mp4	0.0	230.14113879203796	0.10000491142272949
43	166.84896087646484	fix_pre	0		4.0	41.0	2.5	blank	1.0	230.2411437034607	0.03335213661193848
43	166.87424898147583	response	0	2		41.0	2.5	blank	1.0	230.26643180847168	
43	166.88231301307678	movie	1		301.0	41.0	2.5	blank	1.0	230.27449584007263	2.5082650184631348
43	169.39057803153992	fix_post	2		12.0	41.0	2.5	blank	1.0	232.78276085853577	0.10004687309265137
44	169.49062490463257	fix_pre	0		21.0	42.0	2.5	/experiments/knapen_aot/videos/S_yt-QD74nNliDvI_10.mp4	0.0	232.88280773162842	0.17493009567260742
44	169.65738201141357	response	0	2		42.0	2.5	/experiments/knapen_aot/videos/S_yt-QD74nNliDvI_10.mp4	0.0	233.04956483840942	
44	169.66555500030518	movie	1		301.0	42.0	2.5	/experiments/knapen_aot/videos/S_yt-QD74nNliDvI_10.mp4	0.0	233.05773782730103	2.5083019733428955
44	172.17385697364807	fix_post	2		12.0	42.0	2.5	/experiments/knapen_aot/videos/S_yt-QD74nNliDvI_10.mp4	0.0	235.56603980064392	0.10117793083190918
44	172.2656819820404	response	2	2		42.0	2.5	/experiments/knapen_aot/videos/S_yt-QD74nNliDvI_10.mp4	0.0	235.65786480903625	
45	172.27503490447998	fix_pre	0		61.0	43.0	2.5	/experiments/knapen_aot/videos/R_S_yt-0d5TkclKWVA_146.mp4	0.0	235.66721773147583	0.5071821212768555
45	172.77408599853516	response	0	2		43.0	2.5	/experiments/knapen_aot/videos/R_S_yt-0d5TkclKWVA_146.mp4	0.0	236.166268825531	
45	172.78221702575684	movie	1		301.0	43.0	2.5	/experiments/knapen_aot/videos/R_S_yt-0d5TkclKWVA_146.mp4	0.0	236.17439985275269	2.508362054824829
45	175.29057908058167	fix_post	2		12.0	43.0	2.5	/experiments/knapen_aot/videos/R_S_yt-0d5TkclKWVA_146.mp4	0.0	238.68276190757751	0.10023784637451172
46	175.39081692695618	fix_pre	0		15.0	44.0	2.5	/experiments/knapen_aot/videos/R_S_pexels-mikhail-nilov-8410084.mp4	0.0	238.78299975395203	0.12473797798156738
46	175.50725507736206	response	0	2		44.0	2.5	/experiments/knapen_aot/videos/R_S_pexels-mikhail-nilov-8410084.mp4	0.0	238.8994379043579	
46	175.51555490493774	movie	1		164.0	44.0	2.5	/experiments/knapen_aot/videos/R_S_pexels-mikhail-nilov-8410084.mp4	0.0	238.9077377319336	2.508404016494751
46	178.0239589214325	fix_post	2		12.0	44.0	2.5	/experiments/knapen_aot/videos/R_S_pexels-mikhail-nilov-8410084.mp4	0.0	241.41614174842834	0.10000300407409668
47	178.1239619255066	fix_pre	0		109.0	45.0	2.5	/experiments/knapen_aot/videos/R_S_yt-6mRpmfIvdew_1435.mp4	0.0	241.51614475250244	0.9082870483398438
47	179.02410793304443	response	0	2		45.0	2.5	/experiments/knapen_aot/videos/R_S_yt-6mRpmfIvdew_1435.mp4	0.0	242.41629076004028	
47	179.03224897384644	movie	1		299.0	45.0	2.5	/experiments/knapen_aot/videos/R_S_yt-6mRpmfIvdew_1435.mp4	0.0	242.42443180084229	2.508375883102417
47	181.54062485694885	fix_post	2		12.0	45.0	2.5	/experiments/knapen_aot/videos/R_S_yt-6mRpmfIvdew_1435.mp4	0.0	244.9328076839447	0.09997105598449707
48	181.64059591293335	fix_pre	0		10.0	46.0	2.5	/experiments/knapen_aot/videos/S_ILSVRC2015_train_00518001.mp4	0.0	245.0327787399292	0.08333802223205566
48	181.71578288078308	response	0	2		46.0	2.5	/experiments/knapen_aot/videos/S_ILSVRC2015_train_00518001.mp4	0.0	245.10796570777893	
48	181.7239339351654	movie	1		301.0	46.0	2.5	/experiments/knapen_aot/videos/S_ILSVRC2015_train_00518001.mp4	0.0	245.11611676216125	2.5082640647888184
48	184.23219799995422	fix_post	2		12.0	46.0	2.5	/experiments/knapen_aot/videos/S_ILSVRC2015_train_00518001.mp4	0.0	247.62438082695007	0.10002994537353516
49	184.33222794532776	fix_pre	0		12.0	47.0	2.5	/experiments/knapen_aot/videos/S_yt-Dlk44AGz-xM_37.mp4	0.0	247.7244107723236	0.09996700286865234
49	184.4164469242096	response	0	2		47.0	2.5	/experiments/knapen_aot/videos/S_yt-Dlk44AGz-xM_37.mp4	0.0	247.80862975120544	
49	184.4321949481964	movie	1		301.0	47.0	2.5	/experiments/knapen_aot/videos/S_yt-Dlk44AGz-xM_37.mp4	0.0	247.82437777519226	2.508296012878418
49	186.94049096107483	fix_post	2		12.0	47.0	2.5	/experiments/knapen_aot/videos/S_yt-Dlk44AGz-xM_37.mp4	0.0	250.33267378807068	0.10001206398010254
50	187.04050302505493	fix_pre	0		8.0	48.0	2.5	/experiments/knapen_aot/videos/S_yt-KpOAdMtPGFs_17.mp4	0.0	250.43268585205078	0.06770586967468262
50	187.09909200668335	response	0	2		48.0	2.5	/experiments/knapen_aot/videos/S_yt-KpOAdMtPGFs_17.mp4	0.0	250.4912748336792	
50	187.10820889472961	movie	1		301.0	48.0	2.5	/experiments/knapen_aot/videos/S_yt-KpOAdMtPGFs_17.mp4	0.0	250.50039172172546	2.5072500705718994
50	189.6154589653015	fix_post	2		12.0	48.0	2.5	/experiments/knapen_aot/videos/S_yt-KpOAdMtPGFs_17.mp4	0.0	253.00764179229736	0.10024905204772949
51	189.71570801734924	fix_pre	0		16.0	49.0	2.5	blank	1.0	253.1078908443451	0.13316988945007324
51	189.84066700935364	response	0	2		49.0	2.5	blank	1.0	253.2328498363495	
51	189.84887790679932	movie	1		301.0	49.0	2.5	blank	1.0	253.24106073379517	2.508376121520996
51	192.3572540283203	fix_post	2		12.0	49.0	2.5	blank	1.0	255.74943685531616	0.09991097450256348
52	192.45716500282288	fix_pre	0		32.0	50.0	2.5	/experiments/knapen_aot/videos/R_S_yt-4r-oovk9JWg_85.mp4	0.0	255.84934782981873	0.26666903495788574
52	192.7156548500061	response	0	2		50.0	2.5	/experiments/knapen_aot/videos/R_S_yt-4r-oovk9JWg_85.mp4	0.0	256.10783767700195	
52	192.72383403778076	movie	1		301.0	50.0	2.5	/experiments/knapen_aot/videos/R_S_yt-4r-oovk9JWg_85.mp4	0.0	256.1160168647766	2.508391857147217
52	195.23222589492798	fix_post	2		12.0	50.0	2.5	/experiments/knapen_aot/videos/R_S_yt-4r-oovk9JWg_85.mp4	0.0	258.6244087219238	0.09989404678344727
53	195.33211994171143	fix_pre	0		6.0	51.0	2.5	/experiments/knapen_aot/videos/R_S_yt-7VVzNnp36DM_62.mp4	0.0	258.7243027687073	0.050063133239746094
53	195.36652302742004	response	0	2		51.0	2.5	/experiments/knapen_aot/videos/R_S_yt-7VVzNnp36DM_62.mp4	0.0	258.7587058544159	
53	195.38218307495117	movie	1		301.0	51.0	2.5	/experiments/knapen_aot/videos/R_S_yt-7VVzNnp36DM_62.mp4	0.0	258.774365901947	2.5083119869232178
53	197.8904950618744	fix_post	2		12.0	51.0	2.5	/experiments/knapen_aot/videos/R_S_yt-7VVzNnp36DM_62.mp4	0.0	261.28267788887024	0.09994101524353027
54	197.99043607711792	fix_pre	0		19.0	52.0	2.5	/experiments/knapen_aot/videos/S_bing-www_break_com_video_like-a-cat-catching-a-fly-3131008_12.mp4	0.0	261.38261890411377	0.15941095352172852
54	198.1407699584961	response	0	2		52.0	2.5	/experiments/knapen_aot/videos/S_bing-www_break_com_video_like-a-cat-catching-a-fly-3131008_12.mp4	0.0	261.53295278549194	
54	198.14984703063965	movie	1		301.0	52.0	2.5	/experiments/knapen_aot/videos/S_bing-www_break_com_video_like-a-cat-catching-a-fly-3131008_12.mp4	0.0	261.5420298576355	2.507351875305176
54	200.65719890594482	fix_post	2		12.0	52.0	2.5	/experiments/knapen_aot/videos/S_bing-www_break_com_video_like-a-cat-catching-a-fly-3131008_12.mp4	0.0	264.0493817329407	0.09994697570800781
55	200.75714588165283	fix_pre	0		27.0	53.0	2.5	/experiments/knapen_aot/videos/S_yt-j3Sk8ZnAiEA_32.mp4	0.0	264.1493287086487	0.22591018676757812
55	200.9739089012146	response	0	2		53.0	2.5	/experiments/knapen_aot/videos/S_yt-j3Sk8ZnAiEA_32.mp4	0.0	264.36609172821045	
55	200.9830560684204	movie	1		301.0	53.0	2.5	/experiments/knapen_aot/videos/S_yt-j3Sk8ZnAiEA_32.mp4	0.0	264.37523889541626	2.5073609352111816
55	203.4904170036316	fix_post	2		12.0	53.0	2.5	/experiments/knapen_aot/videos/S_yt-j3Sk8ZnAiEA_32.mp4	0.0	266.88259983062744	0.10005307197570801
56	203.5904700756073	fix_pre	0		34.0	54.0	2.5	/experiments/knapen_aot/videos/R_S_yt-22c5eZ1UNME_76.mp4	0.0	266.98265290260315	0.2833278179168701
56	203.86564993858337	response	0	2		54.0	2.5	/experiments/knapen_aot/videos/R_S_yt-22c5eZ1UNME_76.mp4	0.0	267.2578327655792	
56	203.87379789352417	movie	1		301.0	54.0	2.5	/experiments/knapen_aot/videos/R_S_yt-22c5eZ1UNME_76.mp4	0.0	267.26598072052	2.5083200931549072
56	206.38211798667908	fix_post	2		12.0	54.0	2.5	/experiments/knapen_aot/videos/R_S_yt-22c5eZ1UNME_76.mp4	0.0	269.7743008136749	0.10005402565002441
57	206.4821720123291	fix_pre	0		15.0	55.0	2.5	blank	1.0	269.87435483932495	0.12586283683776855
57	206.59889197349548	response	0	2		55.0	2.5	blank	1.0	269.99107480049133	
57	206.60803484916687	movie	1		301.0	55.0	2.5	blank	1.0	270.0002176761627	2.5073940753936768
57	209.11542892456055	fix_post	2		12.0	55.0	2.5	blank	1.0	272.5076117515564	0.10001301765441895
58	209.21544194221497	fix_pre	0		173.0	56.0	2.5	/experiments/knapen_aot/videos/R_S_ILSVRC2015_train_00405001.mp4	0.0	272.6076247692108	1.4416189193725586
58	210.6488859653473	response	0	2		56.0	2.5	/experiments/knapen_aot/videos/R_S_ILSVRC2015_train_00405001.mp4	0.0	274.04106879234314	
58	210.65706086158752	movie	1		300.0	56.0	2.5	/experiments/knapen_aot/videos/R_S_ILSVRC2015_train_00405001.mp4	0.0	274.0492436885834	2.5083200931549072
58	213.16538095474243	fix_post	2		12.0	56.0	2.5	/experiments/knapen_aot/videos/R_S_ILSVRC2015_train_00405001.mp4	0.0	276.5575637817383	0.10005497932434082
59	213.26543593406677	fix_pre	0		8.0	57.0	2.5	/experiments/knapen_aot/videos/R_S_ILSVRC2015_train_00563000.mp4	0.0	276.6576187610626	0.06660914421081543
59	213.3238708972931	response	0	2		57.0	2.5	/experiments/knapen_aot/videos/R_S_ILSVRC2015_train_00563000.mp4	0.0	276.71605372428894	
59	213.3320450782776	movie	1		301.0	57.0	2.5	/experiments/knapen_aot/videos/R_S_ILSVRC2015_train_00563000.mp4	0.0	276.72422790527344	2.5083768367767334
59	215.84042191505432	fix_post	2		12.0	57.0	2.5	/experiments/knapen_aot/videos/R_S_ILSVRC2015_train_00563000.mp4	0.0	279.23260474205017	0.09994316101074219
60	215.94036507606506	fix_pre	0		13.0	58.0	2.5	/experiments/knapen_aot/videos/R_S_yt-jUGt_Byqczw_599.mp4	0.0	279.3325479030609	0.10842394828796387
60	216.0405719280243	response	0	2		58.0	2.5	/experiments/knapen_aot/videos/R_S_yt-jUGt_Byqczw_599.mp4	0.0	279.43275475502014	
60	216.04878902435303	movie	1		301.0	58.0	2.5	/experiments/knapen_aot/videos/R_S_yt-jUGt_Byqczw_599.mp4	0.0	279.4409718513489	2.5083539485931396
60	218.55714297294617	fix_post	2		12.0	58.0	2.5	/experiments/knapen_aot/videos/R_S_yt-jUGt_Byqczw_599.mp4	0.0	281.949325799942	0.09988689422607422
61	218.65702986717224	fix_pre	0		5.0	59.0	2.5	/experiments/knapen_aot/videos/S_xTlFOCRvy68_1564.mp4	0.0	282.0492126941681	0.04171109199523926
61	218.6904890537262	response	0	2		59.0	2.5	/experiments/knapen_aot/videos/S_xTlFOCRvy68_1564.mp4	0.0	282.08267188072205	
61	218.69874095916748	movie	1		301.0	59.0	2.5	/experiments/knapen_aot/videos/S_xTlFOCRvy68_1564.mp4	0.0	282.09092378616333	2.508270025253296
61	221.20701098442078	fix_post	2		12.0	59.0	2.5	/experiments/knapen_aot/videos/S_xTlFOCRvy68_1564.mp4	0.0	284.5991938114166	0.099945068359375
62	221.30695605278015	fix_pre	0		2.0	60.0	2.5	/experiments/knapen_aot/videos/R_S_video_inspire_oregon_lone-ranch-beach_00001.1080-h264.mp4	0.0	284.699138879776	0.016740798950195312
62	221.31639003753662	response	0	2		60.0	2.5	/experiments/knapen_aot/videos/R_S_video_inspire_oregon_lone-ranch-beach_00001.1080-h264.mp4	0.0	284.70857286453247	
62	221.32369685173035	movie	1		166.0	60.0	2.5	/experiments/knapen_aot/videos/R_S_video_inspire_oregon_lone-ranch-beach_00001.1080-h264.mp4	0.0	284.7158796787262	2.508380174636841
62	223.8320770263672	fix_post	2		12.0	60.0	2.5	/experiments/knapen_aot/videos/R_S_video_inspire_oregon_lone-ranch-beach_00001.1080-h264.mp4	0.0	287.22425985336304	0.09998083114624023
63	223.93205785751343	fix_pre	0		14.0	61.0	2.5	/experiments/knapen_aot/videos/S_yt-I9uf7kAccFA_229.mp4	0.0	287.3242406845093	0.11662411689758301
63	224.04050397872925	response	0	2		61.0	2.5	/experiments/knapen_aot/videos/S_yt-I9uf7kAccFA_229.mp4	0.0	287.4326868057251	
63	224.048681974411	movie	1		301.0	61.0	2.5	/experiments/knapen_aot/videos/S_yt-I9uf7kAccFA_229.mp4	0.0	287.44086480140686	2.5083460807800293
63	226.55702805519104	fix_post	2		12.0	61.0	2.5	/experiments/knapen_aot/videos/S_yt-I9uf7kAccFA_229.mp4	0.0	289.9492108821869	0.10000896453857422
64	226.65703701972961	fix_pre	0		17.0	62.0	2.5	/experiments/knapen_aot/videos/R_S_yt-G65z8p1YNhw_16.mp4	0.0	290.04921984672546	0.14161300659179688
64	226.79060196876526	response	0	2		62.0	2.5	/experiments/knapen_aot/videos/R_S_yt-G65z8p1YNhw_16.mp4	0.0	290.1827847957611	
64	226.7986500263214	movie	1		301.0	62.0	2.5	/experiments/knapen_aot/videos/R_S_yt-G65z8p1YNhw_16.mp4	0.0	290.19083285331726	2.5083868503570557
64	229.30703687667847	fix_post	2		12.0	62.0	2.5	/experiments/knapen_aot/videos/R_S_yt-G65z8p1YNhw_16.mp4	0.0	292.6992197036743	0.09992218017578125
65	229.40695905685425	fix_pre	0		4.0	63.0	2.5	blank	1.0	292.7991418838501	0.03451895713806152
65	229.4322168827057	response	0	2		63.0	2.5	blank	1.0	292.82439970970154	
65	229.4414780139923	movie	1		301.0	63.0	2.5	blank	1.0	292.83366084098816	2.5071828365325928
65	231.9486608505249	fix_post	2		12.0	63.0	2.5	blank	1.0	295.34084367752075	0.10005903244018555
66	232.0487198829651	fix_pre	0		36.0	64.0	2.5	/experiments/knapen_aot/videos/R_S_BO_A014_C023_SDR_20190717_F240F3709_SDR_2K_AVC.mp4	0.0	295.44090270996094	0.29996418952941895
66	232.34044790267944	response	0	2		64.0	2.5	/experiments/knapen_aot/videos/R_S_BO_A014_C023_SDR_20190717_F240F3709_SDR_2K_AVC.mp4	0.0	295.7326307296753	
66	232.3486840724945	movie	1		165.0	64.0	2.5	/experiments/knapen_aot/videos/R_S_BO_A014_C023_SDR_20190717_F240F3709_SDR_2K_AVC.mp4	0.0	295.74086689949036	2.508327007293701
66	234.8570110797882	fix_post	2		12.0	64.0	2.5	/experiments/knapen_aot/videos/R_S_BO_A014_C023_SDR_20190717_F240F3709_SDR_2K_AVC.mp4	0.0	298.24919390678406	0.09998178482055664
67	234.95699286460876	fix_pre	0		2.0	65.0	2.5	/experiments/knapen_aot/videos/R_S_yt-dqcUJzNOzbM_156.mp4	0.0	298.3491756916046	0.016662120819091797
67	234.96548295021057	response	0	2		65.0	2.5	/experiments/knapen_aot/videos/R_S_yt-dqcUJzNOzbM_156.mp4	0.0	298.3576657772064	
67	234.97365498542786	movie	1		301.0	65.0	2.5	/experiments/knapen_aot/videos/R_S_yt-dqcUJzNOzbM_156.mp4	0.0	298.3658378124237	2.5084030628204346
67	237.4820580482483	fix_post	2		12.0	65.0	2.5	/experiments/knapen_aot/videos/R_S_yt-dqcUJzNOzbM_156.mp4	0.0	300.87424087524414	0.09996485710144043
68	237.58202290534973	fix_pre	0		13.0	66.0	2.5	/experiments/knapen_aot/videos/S_yt-33PKaLVxDC4_2703.mp4	0.0	300.9742057323456	0.10905909538269043
68	237.68228793144226	response	0	2		66.0	2.5	/experiments/knapen_aot/videos/S_yt-33PKaLVxDC4_2703.mp4	0.0	301.0744707584381	
68	237.69108200073242	movie	1		301.0	66.0	2.5	/experiments/knapen_aot/videos/S_yt-33PKaLVxDC4_2703.mp4	0.0	301.08326482772827	2.5075759887695312
68	240.19865798950195	fix_post	2		12.0	66.0	2.5	/experiments/knapen_aot/videos/S_yt-33PKaLVxDC4_2703.mp4	0.0	303.5908408164978	0.10014891624450684
69	240.29880690574646	fix_pre	0		43.0	67.0	2.5	/experiments/knapen_aot/videos/R_S_ILSVRC2015_test_00004002.mp4	0.0	303.6909897327423	0.358173131942749
69	240.64877200126648	response	0	2		67.0	2.5	/experiments/knapen_aot/videos/R_S_ILSVRC2015_test_00004002.mp4	0.0	304.04095482826233	
69	240.6569800376892	movie	1		299.0	67.0	2.5	/experiments/knapen_aot/videos/R_S_ILSVRC2015_test_00004002.mp4	0.0	304.04916286468506	2.508349895477295
69	243.1653299331665	fix_post	2		12.0	67.0	2.5	/experiments/knapen_aot/videos/R_S_ILSVRC2015_test_00004002.mp4	0.0	306.55751276016235	0.09998393058776855
70	243.26531386375427	fix_pre	0		11.0	68.0	2.5	blank	1.0	306.6574966907501	0.09240508079528809
70	243.34878587722778	response	0	2		68.0	2.5	blank	1.0	306.74096870422363	
70	243.35771894454956	movie	1		301.0	68.0	2.5	blank	1.0	306.7499017715454	2.507533073425293
70	245.86525201797485	fix_post	2		12.0	68.0	2.5	blank	1.0	309.2574348449707	0.1000509262084961
71	245.96530294418335	fix_pre	0		37.0	69.0	2.5	/experiments/knapen_aot/videos/S_yt-35i8UeYXjGw_47.mp4	0.0	309.3574857711792	0.3090050220489502
71	246.2579128742218	response	0	2		69.0	2.5	/experiments/knapen_aot/videos/S_yt-35i8UeYXjGw_47.mp4	0.0	309.65009570121765	
71	246.2743079662323	movie	1		301.0	69.0	2.5	/experiments/knapen_aot/videos/S_yt-35i8UeYXjGw_47.mp4	0.0	309.66649079322815	2.5075490474700928
71	248.7818570137024	fix_post	2		12.0	69.0	2.5	/experiments/knapen_aot/videos/S_yt-35i8UeYXjGw_47.mp4	0.0	312.17403984069824	0.10006999969482422
72	248.88192701339722	fix_pre	0		9.0	70.0	2.5	/experiments/knapen_aot/videos/R_S_ILSVRC2015_train_00587000.mp4	0.0	312.27410984039307	0.0749659538269043
72	248.94870901107788	response	0	2		70.0	2.5	/experiments/knapen_aot/videos/R_S_ILSVRC2015_train_00587000.mp4	0.0	312.34089183807373	
72	248.95689296722412	movie	1		300.0	70.0	2.5	/experiments/knapen_aot/videos/R_S_ILSVRC2015_train_00587000.mp4	0.0	312.34907579421997	2.5083260536193848
72	251.4652190208435	fix_post	2		12.0	70.0	2.5	/experiments/knapen_aot/videos/R_S_ILSVRC2015_train_00587000.mp4	0.0	314.85740184783936	0.09993886947631836
73	251.56515789031982	fix_pre	0		14.0	71.0	2.5	/experiments/knapen_aot/videos/S_ILSVRC2015_train_00363000.mp4	0.0	314.9573407173157	0.11678004264831543
73	251.6736569404602	response	0	2		71.0	2.5	/experiments/knapen_aot/videos/S_ILSVRC2015_train_00363000.mp4	0.0	315.06583976745605	
73	251.68193793296814	movie	1		301.0	71.0	2.5	/experiments/knapen_aot/videos/S_ILSVRC2015_train_00363000.mp4	0.0	315.074120759964	2.5082781314849854
73	254.19021606445312	fix_post	2		12.0	71.0	2.5	/experiments/knapen_aot/videos/S_ILSVRC2015_train_00363000.mp4	0.0	317.582398891449	0.0999908447265625
74	254.2902069091797	fix_pre	0		1.0	72.0	2.5	/experiments/knapen_aot/videos/R_S_ILSVRC2015_train_00447000.mp4	0.0	317.68238973617554	0.008384943008422852
74	254.29184794425964	response	0	2		72.0	2.5	/experiments/knapen_aot/videos/R_S_ILSVRC2015_train_00447000.mp4	0.0	317.6840307712555	
74	254.2985918521881	movie	1		301.0	72.0	2.5	/experiments/knapen_aot/videos/R_S_ILSVRC2015_train_00447000.mp4	0.0	317.69077467918396	2.508305072784424
74	256.80689692497253	fix_post	2		12.0	72.0	2.5	/experiments/knapen_aot/videos/R_S_ILSVRC2015_train_00447000.mp4	0.0	320.1990797519684	0.1000220775604248
75	256.90691900253296	fix_pre	0		13.0	73.0	2.5	/experiments/knapen_aot/videos/S_yt-28ODBE9bVh0_44.mp4	0.0	320.2991018295288	0.1082768440246582
75	257.00706696510315	response	0	2		73.0	2.5	/experiments/knapen_aot/videos/S_yt-28ODBE9bVh0_44.mp4	0.0	320.399249792099	
75	257.0151958465576	movie	1		301.0	73.0	2.5	/experiments/knapen_aot/videos/S_yt-28ODBE9bVh0_44.mp4	0.0	320.40737867355347	2.5084400177001953
75	259.5236358642578	fix_post	2		12.0	73.0	2.5	/experiments/knapen_aot/videos/S_yt-28ODBE9bVh0_44.mp4	0.0	322.91581869125366	0.09989714622497559
76	259.6235330104828	fix_pre	0		19.0	74.0	2.5	/experiments/knapen_aot/videos/R_S_pexels-ron-lach-8071987.mp4	0.0	323.01571583747864	0.1584000587463379
76	259.77363991737366	response	0	2		74.0	2.5	/experiments/knapen_aot/videos/R_S_pexels-ron-lach-8071987.mp4	0.0	323.1658227443695	
76	259.7819330692291	movie	1		188.0	74.0	2.5	/experiments/knapen_aot/videos/R_S_pexels-ron-lach-8071987.mp4	0.0	323.174115896225	2.508314847946167
76	262.2902479171753	fix_post	2		12.0	74.0	2.5	/experiments/knapen_aot/videos/R_S_pexels-ron-lach-8071987.mp4	0.0	325.68243074417114	0.10001897811889648
77	262.3902668952942	fix_pre	0		10.0	75.0	2.5	blank	1.0	325.78244972229004	0.08330011367797852
77	262.465460062027	response	0	2		75.0	2.5	blank	1.0	325.8576428890228	
77	262.47356700897217	movie	1		301.0	75.0	2.5	blank	1.0	325.865749835968	2.508340835571289
77	264.98190784454346	fix_post	2		12.0	75.0	2.5	blank	1.0	328.3740906715393	0.09999203681945801
78	265.0818998813629	fix_pre	0		45.0	76.0	2.5	/experiments/knapen_aot/videos/S_yt-v9WGfC67DPk_50.mp4	0.0	328.47408270835876	0.374967098236084
78	265.44863295555115	response	0	2		76.0	2.5	/experiments/knapen_aot/videos/S_yt-v9WGfC67DPk_50.mp4	0.0	328.840815782547	
78	265.456866979599	movie	1		301.0	76.0	2.5	/experiments/knapen_aot/videos/S_yt-v9WGfC67DPk_50.mp4	0.0	328.84904980659485	2.5083229541778564
78	267.96518993377686	fix_post	2		12.0	76.0	2.5	/experiments/knapen_aot/videos/S_yt-v9WGfC67DPk_50.mp4	0.0	331.3573727607727	0.09997105598449707
79	268.06516098976135	fix_pre	0		8.0	77.0	2.5	/experiments/knapen_aot/videos/R_S_ILSVRC2015_train_00578000.mp4	0.0	331.4573438167572	0.0667579174041748
79	268.1239969730377	response	0	2		77.0	2.5	/experiments/knapen_aot/videos/R_S_ILSVRC2015_train_00578000.mp4	0.0	331.51617980003357	
79	268.1319189071655	movie	1		301.0	77.0	2.5	/experiments/knapen_aot/videos/R_S_ILSVRC2015_train_00578000.mp4	0.0	331.5241017341614	2.508229970932007
79	270.64014887809753	fix_post	2		12.0	77.0	2.5	/experiments/knapen_aot/videos/R_S_ILSVRC2015_train_00578000.mp4	0.0	334.0323317050934	0.10013103485107422
80	270.7402799129486	fix_pre	0		7.0	78.0	2.5	/experiments/knapen_aot/videos/R_S_ILSVRC2015_train_00704000.mp4	0.0	334.13246273994446	0.05827903747558594
80	270.79029607772827	response	0	2		78.0	2.5	/experiments/knapen_aot/videos/R_S_ILSVRC2015_train_00704000.mp4	0.0	334.1824789047241	
80	270.7985589504242	movie	1		301.0	78.0	2.5	/experiments/knapen_aot/videos/R_S_ILSVRC2015_train_00704000.mp4	0.0	334.19074177742004	2.50833797454834
80	273.30689692497253	fix_post	2		12.0	78.0	2.5	/experiments/knapen_aot/videos/R_S_ILSVRC2015_train_00704000.mp4	0.0	336.6990797519684	0.09988903999328613
80	273.3577928543091	response	2	2		78.0	2.5	/experiments/knapen_aot/videos/R_S_ILSVRC2015_train_00704000.mp4	0.0	336.74997568130493	
81	273.4067859649658	fix_pre	0		96.0	79.0	2.5	/experiments/knapen_aot/videos/S_ILSVRC2015_train_00689000.mp4	0.0	336.79896879196167	0.7999739646911621
81	274.1986448764801	response	0	2		79.0	2.5	/experiments/knapen_aot/videos/S_ILSVRC2015_train_00689000.mp4	0.0	337.59082770347595	
81	274.206759929657	movie	1		301.0	79.0	2.5	/experiments/knapen_aot/videos/S_ILSVRC2015_train_00689000.mp4	0.0	337.59894275665283	2.5083489418029785
81	276.71510887145996	fix_post	2		12.0	79.0	2.5	/experiments/knapen_aot/videos/S_ILSVRC2015_train_00689000.mp4	0.0	340.1072916984558	0.09999704360961914
82	276.8151059150696	fix_pre	0		7.0	80.0	2.5	/experiments/knapen_aot/videos/R_S_yt-KQq7vTlXUiQ_173.mp4	0.0	340.20728874206543	0.05838203430175781
82	276.86526703834534	response	0	2		80.0	2.5	/experiments/knapen_aot/videos/R_S_yt-KQq7vTlXUiQ_173.mp4	0.0	340.2574498653412	
82	276.87348794937134	movie	1		301.0	80.0	2.5	/experiments/knapen_aot/videos/R_S_yt-KQq7vTlXUiQ_173.mp4	0.0	340.2656707763672	2.508359909057617
82	279.38184785842896	fix_post	2		12.0	80.0	2.5	/experiments/knapen_aot/videos/R_S_yt-KQq7vTlXUiQ_173.mp4	0.0	342.7740306854248	0.10053801536560059
83	279.48238587379456	fix_pre	0		11.0	81.0	2.5	/experiments/knapen_aot/videos/S_OdxWh1oU8e8_1.mp4	0.0	342.8745687007904	0.09106612205505371
83	279.5652799606323	response	0	2		81.0	2.5	/experiments/knapen_aot/videos/S_OdxWh1oU8e8_1.mp4	0.0	342.9574627876282	
83	279.5734519958496	movie	1		301.0	81.0	2.5	/experiments/knapen_aot/videos/S_OdxWh1oU8e8_1.mp4	0.0	342.96563482284546	2.5083909034729004
83	282.0818428993225	fix_post	2		12.0	81.0	2.5	/experiments/knapen_aot/videos/S_OdxWh1oU8e8_1.mp4	0.0	345.47402572631836	0.0999441146850586
84	282.18178701400757	fix_pre	0		17.0	82.0	2.5	/experiments/knapen_aot/videos/S_yt-2cwARrUMj40_67.mp4	0.0	345.5739698410034	0.1416628360748291
84	282.3151879310608	response	0	2		82.0	2.5	/experiments/knapen_aot/videos/S_yt-2cwARrUMj40_67.mp4	0.0	345.70737075805664	
84	282.3234498500824	movie	1		301.0	82.0	2.5	/experiments/knapen_aot/videos/S_yt-2cwARrUMj40_67.mp4	0.0	345.71563267707825	2.5083401203155518
84	284.83178997039795	fix_post	2		11.0	82.0	2.5	/experiments/knapen_aot/videos/S_yt-2cwARrUMj40_67.mp4	0.0	348.2239727973938	0.09161710739135742
84	284.91523599624634	response	2	2		82.0	2.5	/experiments/knapen_aot/videos/S_yt-2cwARrUMj40_67.mp4	0.0	348.3074188232422	
85	284.9234070777893	fix_pre	0		56.0	83.0	2.5	blank	1.0	348.31558990478516	0.4666118621826172
85	285.38188195228577	response	0	2		83.0	2.5	blank	1.0	348.7740647792816	
85	285.3900189399719	movie	1		301.0	83.0	2.5	blank	1.0	348.7822017669678	2.50846791267395
85	287.8984868526459	fix_post	2		12.0	83.0	2.5	blank	1.0	351.2906696796417	0.09996318817138672
87	287.99845004081726	stim	0		364.0					351.3906328678131	3.033190965652466
87	291.02876901626587	response	0	space						354.4209518432617	
