trial_nr	onset	event_type	phase	response	nr_frames	movie_index	movie_duration	movie_file	blank	onset_abs	duration
0	0.1246941089630127	stim	0		36.0					190.23277831077576	0.2984910011291504
0	0.41331911087036133	response	0	space						190.5214033126831	
1	0.4231851100921631	stim	0		121.0					190.5312693119049	1.006864070892334
1	0.9803640842437744	response	0	space						191.08844828605652	
1	1.430049180984497	stim	1		120.0					191.53813338279724	1.0000598430633545
1	1.4718570709228516	response	1	space						191.5799412727356	
1	1.766409158706665	response	1	2						191.8744933605194	
1	1.855135202407837	response	1	space						191.96321940422058	
1	2.0719470977783203	response	1	2						192.18003129959106	
1	2.2183501720428467	response	1	space						192.3264343738556	
2	2.4301090240478516	fix_pre	0		22.0	0.0	2.5	/experiments/knapen_aot/videos/S_production_ID_4720614.mp4	0.0	192.5381932258606	0.18313217163085938
2	2.6050190925598145	response	0	space		0.0	2.5	/experiments/knapen_aot/videos/S_production_ID_4720614.mp4	0.0	192.71310329437256	
2	2.613241195678711	movie	1		210.0	0.0	2.5	/experiments/knapen_aot/videos/S_production_ID_4720614.mp4	0.0	192.72132539749146	2.508349895477295
2	5.121591091156006	fix_post	2		12.0	0.0	2.5	/experiments/knapen_aot/videos/S_production_ID_4720614.mp4	0.0	195.22967529296875	0.10018110275268555
3	5.221772193908691	fix_pre	0		46.0	1.0	2.5	/experiments/knapen_aot/videos/R_S_yt-BG-G7m5wLZ4_94.mp4	0.0	195.32985639572144	0.38312387466430664
3	5.598477125167847	response	0	2		1.0	2.5	/experiments/knapen_aot/videos/R_S_yt-BG-G7m5wLZ4_94.mp4	0.0	195.7065613269806	
3	5.604896068572998	movie	1		301.0	1.0	2.5	/experiments/knapen_aot/videos/R_S_yt-BG-G7m5wLZ4_94.mp4	0.0	195.71298027038574	2.508388042449951
3	8.11328411102295	fix_post	2		12.0	1.0	2.5	/experiments/knapen_aot/videos/R_S_yt-BG-G7m5wLZ4_94.mp4	0.0	198.2213683128357	0.0998830795288086
4	8.213167190551758	fix_pre	0		86.0	2.0	2.5	/experiments/knapen_aot/videos/R_S_video-8.mp4	0.0	198.3212513923645	0.7168049812316895
4	8.921661138534546	response	0	2		2.0	2.5	/experiments/knapen_aot/videos/R_S_video-8.mp4	0.0	199.0297453403473	
4	8.929972171783447	movie	1		206.0	2.0	2.5	/experiments/knapen_aot/videos/R_S_video-8.mp4	0.0	199.0380563735962	2.5082478523254395
4	11.438220024108887	fix_post	2		12.0	2.0	2.5	/experiments/knapen_aot/videos/R_S_video-8.mp4	0.0	201.54630422592163	0.10006499290466309
5	11.53828501701355	fix_pre	0		61.0	3.0	2.5	/experiments/knapen_aot/videos/S_yt-8aJDzfAaArQ_75.mp4	0.0	201.6463692188263	0.5081510543823242
5	12.038356065750122	response	0	2		3.0	2.5	/experiments/knapen_aot/videos/S_yt-8aJDzfAaArQ_75.mp4	0.0	202.14644026756287	
5	12.046436071395874	movie	1		301.0	3.0	2.5	/experiments/knapen_aot/videos/S_yt-8aJDzfAaArQ_75.mp4	0.0	202.15452027320862	2.508655071258545
5	14.555091142654419	fix_post	2		12.0	3.0	2.5	/experiments/knapen_aot/videos/S_yt-8aJDzfAaArQ_75.mp4	0.0	204.66317534446716	0.09981489181518555
6	14.654906034469604	fix_pre	0		187.0	4.0	2.5	/experiments/knapen_aot/videos/S_production_ID_4101225.mp4	0.0	204.76299023628235	1.5582680702209473
6	16.20503807067871	response	0	2		4.0	2.5	/experiments/knapen_aot/videos/S_production_ID_4101225.mp4	0.0	206.31312227249146	
6	16.21317410469055	movie	1		192.0	4.0	2.5	/experiments/knapen_aot/videos/S_production_ID_4101225.mp4	0.0	206.3212583065033	2.508479118347168
6	18.72165322303772	fix_post	2		12.0	4.0	2.5	/experiments/knapen_aot/videos/S_production_ID_4101225.mp4	0.0	208.82973742485046	0.0999917984008789
7	18.8216450214386	fix_pre	0		38.0	5.0	2.5	/experiments/knapen_aot/videos/S_bing-www_nbcnews_com_storyline_isis-terror_fall-isis-stronghold-raqqa-will-change-war-extremists-not-end-n808621_86.mp4	0.0	208.92972922325134	0.3165431022644043
7	19.129996061325073	response	0	2		5.0	2.5	/experiments/knapen_aot/videos/S_bing-www_nbcnews_com_storyline_isis-terror_fall-isis-stronghold-raqqa-will-change-war-extremists-not-end-n808621_86.mp4	0.0	209.23808026313782	
7	19.138188123703003	movie	1		170.0	5.0	2.5	/experiments/knapen_aot/videos/S_bing-www_nbcnews_com_storyline_isis-terror_fall-isis-stronghold-raqqa-will-change-war-extremists-not-end-n808621_86.mp4	0.0	209.24627232551575	2.5083329677581787
7	21.64652109146118	fix_post	2		12.0	5.0	2.5	/experiments/knapen_aot/videos/S_bing-www_nbcnews_com_storyline_isis-terror_fall-isis-stronghold-raqqa-will-change-war-extremists-not-end-n808621_86.mp4	0.0	211.75460529327393	0.10000896453857422
8	21.746530055999756	fix_pre	0		30.0	6.0	2.5	/experiments/knapen_aot/videos/S_yt-mL3MuCfKtdY_79.mp4	0.0	211.8546142578125	0.24988412857055664
8	21.988275051116943	response	0	2		6.0	2.5	/experiments/knapen_aot/videos/S_yt-mL3MuCfKtdY_79.mp4	0.0	212.0963592529297	
8	21.996414184570312	movie	1		301.0	6.0	2.5	/experiments/knapen_aot/videos/S_yt-mL3MuCfKtdY_79.mp4	0.0	212.10449838638306	2.508409023284912
8	24.504823207855225	fix_post	2		12.0	6.0	2.5	/experiments/knapen_aot/videos/S_yt-mL3MuCfKtdY_79.mp4	0.0	214.61290740966797	0.10000300407409668
9	24.60482621192932	fix_pre	0		43.0	7.0	2.5	blank	1.0	214.71291041374207	0.3583028316497803
9	24.954862117767334	response	0	2		7.0	2.5	blank	1.0	215.06294631958008	
9	24.9631290435791	movie	1		301.0	7.0	2.5	blank	1.0	215.07121324539185	2.5083560943603516
9	26.49655818939209	response	1	2		7.0	2.5	blank	1.0	216.60464239120483	
9	27.471485137939453	fix_post	2		12.0	7.0	2.5	blank	1.0	217.5795693397522	0.09999895095825195
10	27.571484088897705	fix_pre	0		41.0	8.0	2.5	/experiments/knapen_aot/videos/S_yt-YyKEeu2gLrI_158.mp4	0.0	217.67956829071045	0.3415849208831787
10	27.90488910675049	response	0	2		8.0	2.5	/experiments/knapen_aot/videos/S_yt-YyKEeu2gLrI_158.mp4	0.0	218.01297330856323	
10	27.913069009780884	movie	1		301.0	8.0	2.5	/experiments/knapen_aot/videos/S_yt-YyKEeu2gLrI_158.mp4	0.0	218.02115321159363	2.5084080696105957
10	30.42147707939148	fix_post	2		12.0	8.0	2.5	/experiments/knapen_aot/videos/S_yt-YyKEeu2gLrI_158.mp4	0.0	220.52956128120422	0.09999203681945801
11	30.521469116210938	fix_pre	0		16.0	9.0	2.5	/experiments/knapen_aot/videos/R_S_ILSVRC2015_train_00292006.mp4	0.0	220.62955331802368	0.13338589668273926
11	30.6465802192688	response	0	2		9.0	2.5	/experiments/knapen_aot/videos/R_S_ILSVRC2015_train_00292006.mp4	0.0	220.75466442108154	
11	30.654855012893677	movie	1		301.0	9.0	2.5	/experiments/knapen_aot/videos/R_S_ILSVRC2015_train_00292006.mp4	0.0	220.76293921470642	2.5083110332489014
11	33.16316604614258	fix_post	2		12.0	9.0	2.5	/experiments/knapen_aot/videos/R_S_ILSVRC2015_train_00292006.mp4	0.0	223.27125024795532	0.0999751091003418
12	33.26314115524292	fix_pre	0		47.0	10.0	2.5	/experiments/knapen_aot/videos/S_yt-ikhlUegH24c_552.mp4	0.0	223.37122535705566	0.39159488677978516
12	33.646486043930054	response	0	2		10.0	2.5	/experiments/knapen_aot/videos/S_yt-ikhlUegH24c_552.mp4	0.0	223.7545702457428	
12	33.654736042022705	movie	1		301.0	10.0	2.5	/experiments/knapen_aot/videos/S_yt-ikhlUegH24c_552.mp4	0.0	223.76282024383545	2.508413076400757
12	36.16314911842346	fix_post	2		12.0	10.0	2.5	/experiments/knapen_aot/videos/S_yt-ikhlUegH24c_552.mp4	0.0	226.2712333202362	0.1000819206237793
13	36.26323103904724	fix_pre	0		23.0	11.0	2.5	/experiments/knapen_aot/videos/R_S_yt-0buqUbXVTn8_48.mp4	0.0	226.37131524085999	0.1914830207824707
13	36.446513175964355	response	0	2		11.0	2.5	/experiments/knapen_aot/videos/R_S_yt-0buqUbXVTn8_48.mp4	0.0	226.5545973777771	
13	36.45471405982971	movie	1		301.0	11.0	2.5	/experiments/knapen_aot/videos/R_S_yt-0buqUbXVTn8_48.mp4	0.0	226.56279826164246	2.5083811283111572
13	38.96309518814087	fix_post	2		12.0	11.0	2.5	/experiments/knapen_aot/videos/R_S_yt-0buqUbXVTn8_48.mp4	0.0	229.0711793899536	0.10000991821289062
14	39.06310510635376	fix_pre	0		33.0	12.0	2.5	blank	1.0	229.1711893081665	0.2749950885772705
14	39.32984709739685	response	0	2		12.0	2.5	blank	1.0	229.4379312992096	
14	39.33810019493103	movie	1		301.0	12.0	2.5	blank	1.0	229.44618439674377	2.5083398818969727
14	41.846440076828	fix_post	2		12.0	12.0	2.5	blank	1.0	231.95452427864075	0.10017204284667969
15	41.94661211967468	fix_pre	0		2.0	13.0	2.5	/experiments/knapen_aot/videos/S_video-8.mp4	0.0	232.05469632148743	0.01648688316345215
15	41.954862117767334	response	0	2		13.0	2.5	/experiments/knapen_aot/videos/S_video-8.mp4	0.0	232.06294631958008	
15	41.963099002838135	movie	1		195.0	13.0	2.5	/experiments/knapen_aot/videos/S_video-8.mp4	0.0	232.07118320465088	2.508338212966919
15	42.74654507637024	response	1	2		13.0	2.5	/experiments/knapen_aot/videos/S_video-8.mp4	0.0	232.85462927818298	
15	44.471437215805054	fix_post	2		12.0	13.0	2.5	/experiments/knapen_aot/videos/S_video-8.mp4	0.0	234.5795214176178	0.09994196891784668
16	44.5713791847229	fix_pre	0		83.0	14.0	2.5	/experiments/knapen_aot/videos/S_ILSVRC2015_train_00404000.mp4	0.0	234.67946338653564	0.691648006439209
16	45.24740219116211	response	0	2		14.0	2.5	/experiments/knapen_aot/videos/S_ILSVRC2015_train_00404000.mp4	0.0	235.35548639297485	
16	45.26302719116211	movie	1		301.0	14.0	2.5	/experiments/knapen_aot/videos/S_ILSVRC2015_train_00404000.mp4	0.0	235.37111139297485	2.5083658695220947
16	45.933789014816284	response	1	2		14.0	2.5	/experiments/knapen_aot/videos/S_ILSVRC2015_train_00404000.mp4	0.0	236.04187321662903	
16	47.771393060684204	fix_post	2		12.0	14.0	2.5	/experiments/knapen_aot/videos/S_ILSVRC2015_train_00404000.mp4	0.0	237.87947726249695	0.09999608993530273
17	47.87138915061951	fix_pre	0		315.0	15.0	2.5	/experiments/knapen_aot/videos/S_yt-n2PnABmSpxI_115.mp4	0.0	237.97947335243225	2.624901056289673
17	50.48811912536621	response	0	2		15.0	2.5	/experiments/knapen_aot/videos/S_yt-n2PnABmSpxI_115.mp4	0.0	240.59620332717896	
17	50.49629020690918	movie	1		301.0	15.0	2.5	/experiments/knapen_aot/videos/S_yt-n2PnABmSpxI_115.mp4	0.0	240.60437440872192	2.5084049701690674
17	53.00469517707825	fix_post	2		12.0	15.0	2.5	/experiments/knapen_aot/videos/S_yt-n2PnABmSpxI_115.mp4	0.0	243.112779378891	0.10011792182922363
18	53.10481309890747	fix_pre	0		21.0	16.0	2.5	/experiments/knapen_aot/videos/S_yt-urJgH6tpfkU_204.mp4	0.0	243.21289730072021	0.1748521327972412
18	53.27150106430054	response	0	2		16.0	2.5	/experiments/knapen_aot/videos/S_yt-urJgH6tpfkU_204.mp4	0.0	243.37958526611328	
18	53.27966523170471	movie	1		301.0	16.0	2.5	/experiments/knapen_aot/videos/S_yt-urJgH6tpfkU_204.mp4	0.0	243.38774943351746	2.508431911468506
18	55.78809714317322	fix_post	2		12.0	16.0	2.5	/experiments/knapen_aot/videos/S_yt-urJgH6tpfkU_204.mp4	0.0	245.89618134498596	0.09998703002929688
19	55.888084173202515	fix_pre	0		307.0	17.0	2.5	/experiments/knapen_aot/videos/R_S_yt-foGMTdxewBI_43.mp4	0.0	245.99616837501526	2.558203935623169
19	58.43810701370239	response	0	2		17.0	2.5	/experiments/knapen_aot/videos/R_S_yt-foGMTdxewBI_43.mp4	0.0	248.54619121551514	
19	58.446288108825684	movie	1		301.0	17.0	2.5	/experiments/knapen_aot/videos/R_S_yt-foGMTdxewBI_43.mp4	0.0	248.55437231063843	2.508378028869629
19	60.95466613769531	fix_post	2		12.0	17.0	2.5	/experiments/knapen_aot/videos/R_S_yt-foGMTdxewBI_43.mp4	0.0	251.06275033950806	0.0999910831451416
20	61.054657220840454	fix_pre	0		389.0	18.0	2.5	/experiments/knapen_aot/videos/S_yt-Xkx53mjgj2E_30.mp4	0.0	251.1627414226532	3.2429699897766113
20	64.2881121635437	response	0	2		18.0	2.5	/experiments/knapen_aot/videos/S_yt-Xkx53mjgj2E_30.mp4	0.0	254.39619636535645	
20	64.29762721061707	movie	1		301.0	18.0	2.5	/experiments/knapen_aot/videos/S_yt-Xkx53mjgj2E_30.mp4	0.0	254.4057114124298	2.5069968700408936
20	66.80462408065796	fix_post	2		12.0	18.0	2.5	/experiments/knapen_aot/videos/S_yt-Xkx53mjgj2E_30.mp4	0.0	256.9127082824707	0.10008907318115234
21	66.90471315383911	fix_pre	0		41.0	19.0	2.5	/experiments/knapen_aot/videos/S_bing-www_nbcnews_com_storyline_isis-terror_fall-isis-stronghold-raqqa-will-change-war-extremists-not-end-n808621_86.mp4	0.0	257.01279735565186	0.34160590171813965
21	67.23800802230835	response	0	2		19.0	2.5	/experiments/knapen_aot/videos/S_bing-www_nbcnews_com_storyline_isis-terror_fall-isis-stronghold-raqqa-will-change-war-extremists-not-end-n808621_86.mp4	0.0	257.3460922241211	
21	67.24631905555725	movie	1		172.0	19.0	2.5	/experiments/knapen_aot/videos/S_bing-www_nbcnews_com_storyline_isis-terror_fall-isis-stronghold-raqqa-will-change-war-extremists-not-end-n808621_86.mp4	0.0	257.35440325737	2.50832200050354
21	69.75464105606079	fix_post	2		12.0	19.0	2.5	/experiments/knapen_aot/videos/S_bing-www_nbcnews_com_storyline_isis-terror_fall-isis-stronghold-raqqa-will-change-war-extremists-not-end-n808621_86.mp4	0.0	259.86272525787354	0.09991717338562012
22	69.85455822944641	fix_pre	0		121.0	20.0	2.5	blank	1.0	259.96264243125916	1.0083508491516113
22	70.85474514961243	response	0	2		20.0	2.5	blank	1.0	260.96282935142517	
22	70.86290907859802	movie	1		301.0	20.0	2.5	blank	1.0	260.97099328041077	2.5083370208740234
22	73.37124609947205	fix_post	2		12.0	20.0	2.5	blank	1.0	263.4793303012848	0.1001429557800293
22	73.4463620185852	response	2	2		20.0	2.5	blank	1.0	263.55444622039795	
23	73.47138905525208	fix_pre	0		86.0	21.0	2.5	/experiments/knapen_aot/videos/S_ILSVRC2015_train_00339001.mp4	0.0	263.5794732570648	0.7165231704711914
23	74.17969417572021	response	0	2		21.0	2.5	/experiments/knapen_aot/videos/S_ILSVRC2015_train_00339001.mp4	0.0	264.28777837753296	
23	74.18791222572327	movie	1		301.0	21.0	2.5	/experiments/knapen_aot/videos/S_ILSVRC2015_train_00339001.mp4	0.0	264.295996427536	2.5084228515625
23	76.69633507728577	fix_post	2		12.0	21.0	2.5	/experiments/knapen_aot/videos/S_ILSVRC2015_train_00339001.mp4	0.0	266.8044192790985	0.09990715980529785
24	76.79624223709106	fix_pre	0		40.0	22.0	2.5	/experiments/knapen_aot/videos/S_ILSVRC2015_train_00762000.mp4	0.0	266.9043264389038	0.33451390266418457
24	77.12139415740967	response	0	2		22.0	2.5	/experiments/knapen_aot/videos/S_ILSVRC2015_train_00762000.mp4	0.0	267.2294783592224	
24	77.13075613975525	movie	1		301.0	22.0	2.5	/experiments/knapen_aot/videos/S_ILSVRC2015_train_00762000.mp4	0.0	267.238840341568	2.507194995880127
24	79.63795113563538	fix_post	2		12.0	22.0	2.5	/experiments/knapen_aot/videos/S_ILSVRC2015_train_00762000.mp4	0.0	269.7460353374481	0.09995889663696289
25	79.73791003227234	fix_pre	0		27.0	23.0	2.5	/experiments/knapen_aot/videos/R_S_production_ID_5049072.mp4	0.0	269.8459942340851	0.2261509895324707
25	79.95475316047668	response	0	2		23.0	2.5	/experiments/knapen_aot/videos/R_S_production_ID_5049072.mp4	0.0	270.06283736228943	
25	79.96406102180481	movie	1		170.0	23.0	2.5	/experiments/knapen_aot/videos/R_S_production_ID_5049072.mp4	0.0	270.07214522361755	2.5071821212768555
25	82.47124314308167	fix_post	2		12.0	23.0	2.5	/experiments/knapen_aot/videos/R_S_production_ID_5049072.mp4	0.0	272.5793273448944	0.09998893737792969
26	82.5712320804596	fix_pre	0		62.0	24.0	2.5	/experiments/knapen_aot/videos/R_S_ILSVRC2015_train_00371010.mp4	0.0	272.67931628227234	0.5178360939025879
26	83.07969307899475	response	0	2		24.0	2.5	/experiments/knapen_aot/videos/R_S_ILSVRC2015_train_00371010.mp4	0.0	273.1877772808075	
26	83.08906817436218	movie	1		301.0	24.0	2.5	/experiments/knapen_aot/videos/R_S_ILSVRC2015_train_00371010.mp4	0.0	273.1971523761749	2.507166862487793
26	85.59623503684998	fix_post	2		12.0	24.0	2.5	/experiments/knapen_aot/videos/R_S_ILSVRC2015_train_00371010.mp4	0.0	275.7043192386627	0.10001397132873535
27	85.69624900817871	fix_pre	0		25.0	25.0	2.5	/experiments/knapen_aot/videos/S_production_ID_3735542.mp4	0.0	275.80433320999146	0.20836806297302246
27	85.89638113975525	response	0	2		25.0	2.5	/experiments/knapen_aot/videos/S_production_ID_3735542.mp4	0.0	276.004465341568	
27	85.90461707115173	movie	1		164.0	25.0	2.5	/experiments/knapen_aot/videos/S_production_ID_3735542.mp4	0.0	276.0127012729645	2.5082550048828125
27	88.41287207603455	fix_post	2		12.0	25.0	2.5	/experiments/knapen_aot/videos/S_production_ID_3735542.mp4	0.0	278.5209562778473	0.09997200965881348
28	88.51284408569336	fix_pre	0		119.0	26.0	2.5	blank	1.0	278.6209282875061	0.9915790557861328
28	89.49632120132446	response	0	2		26.0	2.5	blank	1.0	279.6044054031372	
28	89.50442314147949	movie	1		301.0	26.0	2.5	blank	1.0	279.61250734329224	2.5084099769592285
28	92.01283311843872	fix_post	2		12.0	26.0	2.5	blank	1.0	282.12091732025146	0.10002708435058594
29	92.1128602027893	fix_pre	0		65.0	27.0	2.5	/experiments/knapen_aot/videos/S_yt-JpOBXV46TLE_124.mp4	0.0	282.22094440460205	0.5415890216827393
29	92.646311044693	response	0	2		27.0	2.5	/experiments/knapen_aot/videos/S_yt-JpOBXV46TLE_124.mp4	0.0	282.75439524650574	
29	92.65444922447205	movie	1		301.0	27.0	2.5	/experiments/knapen_aot/videos/S_yt-JpOBXV46TLE_124.mp4	0.0	282.7625334262848	2.508328914642334
29	95.16277813911438	fix_post	2		12.0	27.0	2.5	/experiments/knapen_aot/videos/S_yt-JpOBXV46TLE_124.mp4	0.0	285.2708623409271	0.10008692741394043
30	95.26286506652832	fix_pre	0		53.0	28.0	2.5	/experiments/knapen_aot/videos/R_S_yt-3DM_SqT4RII_10.mp4	0.0	285.37094926834106	0.4416220188140869
30	95.69619417190552	response	0	2		28.0	2.5	/experiments/knapen_aot/videos/R_S_yt-3DM_SqT4RII_10.mp4	0.0	285.80427837371826	
30	95.70448708534241	movie	1		301.0	28.0	2.5	/experiments/knapen_aot/videos/R_S_yt-3DM_SqT4RII_10.mp4	0.0	285.81257128715515	2.5083789825439453
30	98.21286606788635	fix_post	2		12.0	28.0	2.5	/experiments/knapen_aot/videos/R_S_yt-3DM_SqT4RII_10.mp4	0.0	288.3209502696991	0.09995794296264648
31	98.312824010849	fix_pre	0		96.0	29.0	2.5	/experiments/knapen_aot/videos/R_S_yt-3eQHOLBzOqA_100.mp4	0.0	288.42090821266174	0.799943208694458
31	99.10456919670105	response	0	2		29.0	2.5	/experiments/knapen_aot/videos/R_S_yt-3eQHOLBzOqA_100.mp4	0.0	289.2126533985138	
31	99.11276721954346	movie	1		301.0	29.0	2.5	/experiments/knapen_aot/videos/R_S_yt-3eQHOLBzOqA_100.mp4	0.0	289.2208514213562	2.50858998298645
31	101.62135720252991	fix_post	2		12.0	29.0	2.5	/experiments/knapen_aot/videos/R_S_yt-3eQHOLBzOqA_100.mp4	0.0	291.72944140434265	0.09988594055175781
32	101.72124314308167	fix_pre	0		113.0	30.0	2.5	/experiments/knapen_aot/videos/S_yt-qYuLW5vSotM_160.mp4	0.0	291.8293273448944	0.9415059089660645
32	102.65459609031677	response	0	2		30.0	2.5	/experiments/knapen_aot/videos/S_yt-qYuLW5vSotM_160.mp4	0.0	292.7626802921295	
32	102.66274905204773	movie	1		301.0	30.0	2.5	/experiments/knapen_aot/videos/S_yt-qYuLW5vSotM_160.mp4	0.0	292.7708332538605	2.5083820819854736
32	105.1711311340332	fix_post	2		12.0	30.0	2.5	/experiments/knapen_aot/videos/S_yt-qYuLW5vSotM_160.mp4	0.0	295.27921533584595	0.1000359058380127
33	105.27116703987122	fix_pre	0		64.0	31.0	2.5	/experiments/knapen_aot/videos/R_S_yt-3R23XwTXpKs_238.mp4	0.0	295.37925124168396	0.5332751274108887
33	105.7962281703949	response	0	2		31.0	2.5	/experiments/knapen_aot/videos/R_S_yt-3R23XwTXpKs_238.mp4	0.0	295.90431237220764	
33	105.8044421672821	movie	1		301.0	31.0	2.5	/experiments/knapen_aot/videos/R_S_yt-3R23XwTXpKs_238.mp4	0.0	295.91252636909485	2.5083580017089844
33	108.31280016899109	fix_post	2		12.0	31.0	2.5	/experiments/knapen_aot/videos/R_S_yt-3R23XwTXpKs_238.mp4	0.0	298.42088437080383	0.09991788864135742
34	108.41271805763245	fix_pre	0		381.0	32.0	2.5	/experiments/knapen_aot/videos/S_yt-3DM_SqT4RII_10.mp4	0.0	298.5208022594452	3.1759591102600098
34	111.57962322235107	response	0	2		32.0	2.5	/experiments/knapen_aot/videos/S_yt-3DM_SqT4RII_10.mp4	0.0	301.6877074241638	
34	111.58867716789246	movie	1		301.0	32.0	2.5	/experiments/knapen_aot/videos/S_yt-3DM_SqT4RII_10.mp4	0.0	301.6967613697052	2.5075159072875977
34	114.09619307518005	fix_post	2		12.0	32.0	2.5	/experiments/knapen_aot/videos/S_yt-3DM_SqT4RII_10.mp4	0.0	304.2042772769928	0.09988808631896973
35	114.19608116149902	fix_pre	0		20.0	33.0	2.5	blank	1.0	304.30416536331177	0.16663098335266113
35	114.35450720787048	response	0	2		33.0	2.5	blank	1.0	304.4625914096832	
35	114.36271214485168	movie	1		301.0	33.0	2.5	blank	1.0	304.47079634666443	2.508465051651001
35	116.87117719650269	fix_post	2		12.0	33.0	2.5	blank	1.0	306.97926139831543	0.099884033203125
36	116.97106122970581	fix_pre	0		49.0	34.0	2.5	/experiments/knapen_aot/videos/S_yt-RWN5qOIgqec_25.mp4	0.0	307.07914543151855	0.40939784049987793
36	117.37119817733765	response	0	2		34.0	2.5	/experiments/knapen_aot/videos/S_yt-RWN5qOIgqec_25.mp4	0.0	307.4792823791504	
36	117.38045907020569	movie	1		301.0	34.0	2.5	/experiments/knapen_aot/videos/S_yt-RWN5qOIgqec_25.mp4	0.0	307.48854327201843	2.5072121620178223
36	119.88767123222351	fix_post	2		12.0	34.0	2.5	/experiments/knapen_aot/videos/S_yt-RWN5qOIgqec_25.mp4	0.0	309.99575543403625	0.10006284713745117
37	119.98773407936096	fix_pre	0		145.0	35.0	2.5	/experiments/knapen_aot/videos/R_S_yt-9pYW_TqVpU4_43.mp4	0.0	310.0958182811737	1.2083179950714111
37	121.1878080368042	response	0	2		35.0	2.5	/experiments/knapen_aot/videos/R_S_yt-9pYW_TqVpU4_43.mp4	0.0	311.29589223861694	
37	121.19605207443237	movie	1		301.0	35.0	2.5	/experiments/knapen_aot/videos/R_S_yt-9pYW_TqVpU4_43.mp4	0.0	311.3041362762451	2.508327007293701
37	123.70437908172607	fix_post	2		12.0	35.0	2.5	/experiments/knapen_aot/videos/R_S_yt-9pYW_TqVpU4_43.mp4	0.0	313.8124632835388	0.09998703002929688
38	123.80436611175537	fix_pre	0		183.0	36.0	2.5	/experiments/knapen_aot/videos/S_ILSVRC2015_train_00594001.mp4	0.0	313.9124503135681	1.5249230861663818
38	125.32116508483887	response	0	2		36.0	2.5	/experiments/knapen_aot/videos/S_ILSVRC2015_train_00594001.mp4	0.0	315.4292492866516	
38	125.32928919792175	movie	1		301.0	36.0	2.5	/experiments/knapen_aot/videos/S_ILSVRC2015_train_00594001.mp4	0.0	315.4373733997345	2.5084009170532227
38	127.83769011497498	fix_post	2		12.0	36.0	2.5	/experiments/knapen_aot/videos/S_ILSVRC2015_train_00594001.mp4	0.0	317.9457743167877	0.10002493858337402
39	127.93771505355835	fix_pre	0		113.0	37.0	2.5	/experiments/knapen_aot/videos/R_S_ILSVRC2015_train_00762000.mp4	0.0	318.0457992553711	0.9427530765533447
39	128.8711760044098	response	0	2		37.0	2.5	/experiments/knapen_aot/videos/R_S_ILSVRC2015_train_00762000.mp4	0.0	318.97926020622253	
39	128.8804681301117	movie	1		301.0	37.0	2.5	/experiments/knapen_aot/videos/R_S_ILSVRC2015_train_00762000.mp4	0.0	318.98855233192444	2.5072529315948486
39	131.38772106170654	fix_post	2		12.0	37.0	2.5	/experiments/knapen_aot/videos/R_S_ILSVRC2015_train_00762000.mp4	0.0	321.4958052635193	0.09995102882385254
40	131.4876720905304	fix_pre	0		136.0	38.0	2.5	/experiments/knapen_aot/videos/S_yt-IPiZqn4dG9k_9.mp4	0.0	321.59575629234314	1.1332471370697021
40	132.61280512809753	response	0	2		38.0	2.5	/experiments/knapen_aot/videos/S_yt-IPiZqn4dG9k_9.mp4	0.0	322.7208893299103	
40	132.6209192276001	movie	1		301.0	38.0	2.5	/experiments/knapen_aot/videos/S_yt-IPiZqn4dG9k_9.mp4	0.0	322.72900342941284	2.508415937423706
40	135.1293351650238	fix_post	2		12.0	38.0	2.5	/experiments/knapen_aot/videos/S_yt-IPiZqn4dG9k_9.mp4	0.0	325.23741936683655	0.09999990463256836
41	135.22933506965637	fix_pre	0		245.0	39.0	2.5	/experiments/knapen_aot/videos/S_yt-Gokv9ZtV6zo_70.mp4	0.0	325.3374192714691	2.041654109954834
41	137.26282000541687	response	0	2		39.0	2.5	/experiments/knapen_aot/videos/S_yt-Gokv9ZtV6zo_70.mp4	0.0	327.3709042072296	
41	137.2709891796112	movie	1		301.0	39.0	2.5	/experiments/knapen_aot/videos/S_yt-Gokv9ZtV6zo_70.mp4	0.0	327.37907338142395	2.508553981781006
41	139.7795431613922	fix_post	2		12.0	39.0	2.5	/experiments/knapen_aot/videos/S_yt-Gokv9ZtV6zo_70.mp4	0.0	329.88762736320496	0.10013294219970703
42	139.87967610359192	fix_pre	0		23.0	40.0	2.5	blank	1.0	329.98776030540466	0.19132590293884277
42	140.062979221344	response	0	2		40.0	2.5	blank	1.0	330.17106342315674	
42	140.07100200653076	movie	1		301.0	40.0	2.5	blank	1.0	330.1790862083435	2.5083680152893066
42	142.07109022140503	response	1	2		40.0	2.5	blank	1.0	332.1791744232178	
42	142.57937002182007	fix_post	2		12.0	40.0	2.5	blank	1.0	332.6874542236328	0.09983301162719727
43	142.67920303344727	fix_pre	0		33.0	41.0	2.5	/experiments/knapen_aot/videos/R_S_yt-MhW2fU45JK8_544.mp4	0.0	332.78728723526	0.2749969959259033
43	142.9460711479187	response	0	2		41.0	2.5	/experiments/knapen_aot/videos/R_S_yt-MhW2fU45JK8_544.mp4	0.0	333.05415534973145	
43	142.95420002937317	movie	1		301.0	41.0	2.5	/experiments/knapen_aot/videos/R_S_yt-MhW2fU45JK8_544.mp4	0.0	333.0622842311859	2.5084571838378906
43	145.14615607261658	response	1	2		41.0	2.5	/experiments/knapen_aot/videos/R_S_yt-MhW2fU45JK8_544.mp4	0.0	335.2542402744293	
43	145.46265721321106	fix_post	2		12.0	41.0	2.5	/experiments/knapen_aot/videos/R_S_yt-MhW2fU45JK8_544.mp4	0.0	335.5707414150238	0.10000300407409668
44	145.56266021728516	fix_pre	0		357.0	42.0	2.5	/experiments/knapen_aot/videos/R_S_comp_A001_C001_120530_v04_SDR_FINAL_20180706_SDR_2K_AVC.mp4	0.0	335.6707444190979	2.974942922592163
44	148.52193808555603	response	0	2		42.0	2.5	/experiments/knapen_aot/videos/R_S_comp_A001_C001_120530_v04_SDR_FINAL_20180706_SDR_2K_AVC.mp4	0.0	338.6300222873688	
44	148.53760313987732	movie	1		166.0	42.0	2.5	/experiments/knapen_aot/videos/R_S_comp_A001_C001_120530_v04_SDR_FINAL_20180706_SDR_2K_AVC.mp4	0.0	338.64568734169006	2.5000059604644775
44	151.02943205833435	response	1	2		42.0	2.5	/experiments/knapen_aot/videos/R_S_comp_A001_C001_120530_v04_SDR_FINAL_20180706_SDR_2K_AVC.mp4	0.0	341.1375162601471	
44	151.0376091003418	fix_post	2		13.0	42.0	2.5	/experiments/knapen_aot/videos/R_S_comp_A001_C001_120530_v04_SDR_FINAL_20180706_SDR_2K_AVC.mp4	0.0	341.14569330215454	0.10836505889892578
45	151.14597415924072	fix_pre	0		75.0	43.0	2.5	/experiments/knapen_aot/videos/R_S_yt-o_CT2MjZ9fA_216.mp4	0.0	341.25405836105347	0.6249799728393555
45	151.76270818710327	response	0	2		43.0	2.5	/experiments/knapen_aot/videos/R_S_yt-o_CT2MjZ9fA_216.mp4	0.0	341.870792388916	
45	151.77095413208008	movie	1		301.0	43.0	2.5	/experiments/knapen_aot/videos/R_S_yt-o_CT2MjZ9fA_216.mp4	0.0	341.8790383338928	2.5083820819854736
45	153.8802671432495	response	1	2		43.0	2.5	/experiments/knapen_aot/videos/R_S_yt-o_CT2MjZ9fA_216.mp4	0.0	343.98835134506226	
45	154.27933621406555	fix_post	2		12.0	43.0	2.5	/experiments/knapen_aot/videos/R_S_yt-o_CT2MjZ9fA_216.mp4	0.0	344.3874204158783	0.09995889663696289
46	154.37929511070251	fix_pre	0		134.0	44.0	2.5	/experiments/knapen_aot/videos/S_I003_C015_SDR_2K_AVC.mp4	0.0	344.48737931251526	1.1166160106658936
46	155.4877781867981	response	0	2		44.0	2.5	/experiments/knapen_aot/videos/S_I003_C015_SDR_2K_AVC.mp4	0.0	345.59586238861084	
46	155.4959111213684	movie	1		168.0	44.0	2.5	/experiments/knapen_aot/videos/S_I003_C015_SDR_2K_AVC.mp4	0.0	345.60399532318115	2.508375883102417
46	158.00428700447083	fix_post	2		12.0	44.0	2.5	/experiments/knapen_aot/videos/S_I003_C015_SDR_2K_AVC.mp4	0.0	348.11237120628357	0.09998321533203125
47	158.10427021980286	fix_pre	0		43.0	45.0	2.5	/experiments/knapen_aot/videos/R_S_yt-nn-8LZcafGs_35.mp4	0.0	348.2123544216156	0.3589630126953125
47	158.4543092250824	response	0	2		45.0	2.5	/experiments/knapen_aot/videos/R_S_yt-nn-8LZcafGs_35.mp4	0.0	348.56239342689514	
47	158.46323323249817	movie	1		301.0	45.0	2.5	/experiments/knapen_aot/videos/R_S_yt-nn-8LZcafGs_35.mp4	0.0	348.5713174343109	2.507694959640503
47	160.2710781097412	response	1	2		45.0	2.5	/experiments/knapen_aot/videos/R_S_yt-nn-8LZcafGs_35.mp4	0.0	350.37916231155396	
47	160.97092819213867	fix_post	2		12.0	45.0	2.5	/experiments/knapen_aot/videos/R_S_yt-nn-8LZcafGs_35.mp4	0.0	351.0790123939514	0.09999299049377441
48	161.07092118263245	fix_pre	0		253.0	46.0	2.5	/experiments/knapen_aot/videos/S_yt-2IfvnrF3IV0_241.mp4	0.0	351.1790053844452	2.1082520484924316
48	163.16343808174133	response	0	2		46.0	2.5	/experiments/knapen_aot/videos/S_yt-2IfvnrF3IV0_241.mp4	0.0	353.2715222835541	
48	163.17917323112488	movie	1		301.0	46.0	2.5	/experiments/knapen_aot/videos/S_yt-2IfvnrF3IV0_241.mp4	0.0	353.2872574329376	2.5083978176116943
48	165.68757104873657	fix_post	2		12.0	46.0	2.5	/experiments/knapen_aot/videos/S_yt-2IfvnrF3IV0_241.mp4	0.0	355.7956552505493	0.09998011589050293
49	165.78755116462708	fix_pre	0		43.0	47.0	2.5	/experiments/knapen_aot/videos/R_S_yt-f9iXELY0EJ0_344.mp4	0.0	355.8956353664398	0.35828304290771484
49	166.13766503334045	response	0	2		47.0	2.5	/experiments/knapen_aot/videos/R_S_yt-f9iXELY0EJ0_344.mp4	0.0	356.2457492351532	
49	166.1458342075348	movie	1		301.0	47.0	2.5	/experiments/knapen_aot/videos/R_S_yt-f9iXELY0EJ0_344.mp4	0.0	356.25391840934753	2.508354902267456
49	168.65418910980225	fix_post	2		12.0	47.0	2.5	/experiments/knapen_aot/videos/R_S_yt-f9iXELY0EJ0_344.mp4	0.0	358.762273311615	0.10002398490905762
50	168.7542130947113	fix_pre	0		46.0	48.0	2.5	/experiments/knapen_aot/videos/R_S_yt-wqdTPz0bLrM_561.mp4	0.0	358.86229729652405	0.38341808319091797
50	169.12931108474731	response	0	2		48.0	2.5	/experiments/knapen_aot/videos/R_S_yt-wqdTPz0bLrM_561.mp4	0.0	359.23739528656006	
50	169.13763117790222	movie	1		301.0	48.0	2.5	/experiments/knapen_aot/videos/R_S_yt-wqdTPz0bLrM_561.mp4	0.0	359.24571537971497	2.5082180500030518
50	170.02936100959778	response	1	2		48.0	2.5	/experiments/knapen_aot/videos/R_S_yt-wqdTPz0bLrM_561.mp4	0.0	360.1374452114105	
50	171.20427417755127	response	1	2		48.0	2.5	/experiments/knapen_aot/videos/R_S_yt-wqdTPz0bLrM_561.mp4	0.0	361.312358379364	
50	171.64584922790527	fix_post	2		12.0	48.0	2.5	/experiments/knapen_aot/videos/R_S_yt-wqdTPz0bLrM_561.mp4	0.0	361.753933429718	0.10008883476257324
51	171.74593806266785	fix_pre	0		321.0	49.0	2.5	blank	1.0	361.8540222644806	2.6755759716033936
51	174.41263008117676	response	0	2		49.0	2.5	blank	1.0	364.5207142829895	
51	174.42151403427124	movie	1		301.0	49.0	2.5	blank	1.0	364.529598236084	2.5076160430908203
51	176.92913007736206	fix_post	2		12.0	49.0	2.5	blank	1.0	367.0372142791748	0.10000205039978027
52	177.02913212776184	fix_pre	0		108.0	50.0	2.5	/experiments/knapen_aot/videos/S_yt-C0iWlRWU21o_5.mp4	0.0	367.1372163295746	0.8999879360198975
52	177.92094707489014	response	0	2		50.0	2.5	/experiments/knapen_aot/videos/S_yt-C0iWlRWU21o_5.mp4	0.0	368.0290312767029	
52	177.92912006378174	movie	1		301.0	50.0	2.5	/experiments/knapen_aot/videos/S_yt-C0iWlRWU21o_5.mp4	0.0	368.0372042655945	2.508357048034668
52	180.4374771118164	fix_post	2		12.0	50.0	2.5	/experiments/knapen_aot/videos/S_yt-C0iWlRWU21o_5.mp4	0.0	370.54556131362915	0.09993696212768555
53	180.5374140739441	fix_pre	0		9.0	51.0	2.5	/experiments/knapen_aot/videos/R_S_ILSVRC2015_train_00379000.mp4	0.0	370.64549827575684	0.0750269889831543
53	180.5966670513153	response	0	2		51.0	2.5	/experiments/knapen_aot/videos/R_S_ILSVRC2015_train_00379000.mp4	0.0	370.70475125312805	
53	180.61244106292725	movie	1		301.0	51.0	2.5	/experiments/knapen_aot/videos/R_S_ILSVRC2015_train_00379000.mp4	0.0	370.72052526474	2.5082881450653076
53	183.12072920799255	fix_post	2		12.0	51.0	2.5	/experiments/knapen_aot/videos/R_S_ILSVRC2015_train_00379000.mp4	0.0	373.2288134098053	0.10009980201721191
54	183.22082901000977	fix_pre	0		14.0	52.0	2.5	/experiments/knapen_aot/videos/R_S_yt-CINajD_PVjQ_494.mp4	0.0	373.3289132118225	0.11719799041748047
54	183.3292920589447	response	0	2		52.0	2.5	/experiments/knapen_aot/videos/R_S_yt-CINajD_PVjQ_494.mp4	0.0	373.43737626075745	
54	183.33802700042725	movie	1		301.0	52.0	2.5	/experiments/knapen_aot/videos/R_S_yt-CINajD_PVjQ_494.mp4	0.0	373.44611120224	2.5078320503234863
54	185.84585905075073	fix_post	2		12.0	52.0	2.5	/experiments/knapen_aot/videos/R_S_yt-CINajD_PVjQ_494.mp4	0.0	375.9539432525635	0.10014200210571289
55	185.94600105285645	fix_pre	0		84.0	53.0	2.5	/experiments/knapen_aot/videos/S_production_ID_4101307.mp4	0.0	376.0540852546692	0.699782133102417
55	186.63749313354492	response	0	2		53.0	2.5	/experiments/knapen_aot/videos/S_production_ID_4101307.mp4	0.0	376.74557733535767	
55	186.64578318595886	movie	1		198.0	53.0	2.5	/experiments/knapen_aot/videos/S_production_ID_4101307.mp4	0.0	376.7538673877716	2.50849986076355
55	188.16930413246155	response	1	2		53.0	2.5	/experiments/knapen_aot/videos/S_production_ID_4101307.mp4	0.0	378.2773883342743	
55	189.1542830467224	fix_post	2		12.0	53.0	2.5	/experiments/knapen_aot/videos/S_production_ID_4101307.mp4	0.0	379.26236724853516	0.09981417655944824
56	189.25409722328186	fix_pre	0		210.0	54.0	2.5	/experiments/knapen_aot/videos/R_S_yt--jzScB82vKI_212.mp4	0.0	379.3621814250946	1.7505028247833252
56	190.9958860874176	response	0	2		54.0	2.5	/experiments/knapen_aot/videos/R_S_yt--jzScB82vKI_212.mp4	0.0	381.10397028923035	
56	191.00460004806519	movie	1		301.0	54.0	2.5	/experiments/knapen_aot/videos/R_S_yt--jzScB82vKI_212.mp4	0.0	381.11268424987793	2.5077931880950928
56	193.51239323616028	fix_post	2		12.0	54.0	2.5	/experiments/knapen_aot/videos/R_S_yt--jzScB82vKI_212.mp4	0.0	383.620477437973	0.10006189346313477
57	193.6124551296234	fix_pre	0		45.0	55.0	2.5	/experiments/knapen_aot/videos/S_yt-M_ApPnq00iE_67.mp4	0.0	383.72053933143616	0.37497806549072266
57	193.979257106781	response	0	2		55.0	2.5	/experiments/knapen_aot/videos/S_yt-M_ApPnq00iE_67.mp4	0.0	384.08734130859375	
57	193.98743319511414	movie	1		301.0	55.0	2.5	/experiments/knapen_aot/videos/S_yt-M_ApPnq00iE_67.mp4	0.0	384.0955173969269	2.50858998298645
57	196.4960231781006	fix_post	2		12.0	55.0	2.5	/experiments/knapen_aot/videos/S_yt-M_ApPnq00iE_67.mp4	0.0	386.60410737991333	0.09971499443054199
58	196.59573817253113	fix_pre	0		23.0	56.0	2.5	blank	1.0	386.7038223743439	0.19164395332336426
58	196.7792022228241	response	0	2		56.0	2.5	blank	1.0	386.88728642463684	
58	196.7873821258545	movie	1		301.0	56.0	2.5	blank	1.0	386.89546632766724	2.5084190368652344
58	199.00425100326538	response	1	2		56.0	2.5	blank	1.0	389.1123352050781	
58	199.29580116271973	fix_post	2		12.0	56.0	2.5	blank	1.0	389.40388536453247	0.09994101524353027
59	199.39574217796326	fix_pre	0		158.0	57.0	2.5	/experiments/knapen_aot/videos/R_S_yt-VjTiMtjdjTw_103.mp4	0.0	389.503826379776	1.3170809745788574
59	200.70421409606934	response	0	2		57.0	2.5	/experiments/knapen_aot/videos/R_S_yt-VjTiMtjdjTw_103.mp4	0.0	390.8122982978821	
59	200.71282315254211	movie	1		301.0	57.0	2.5	/experiments/knapen_aot/videos/R_S_yt-VjTiMtjdjTw_103.mp4	0.0	390.82090735435486	2.507943868637085
59	203.2207670211792	fix_post	2		12.0	57.0	2.5	/experiments/knapen_aot/videos/R_S_yt-VjTiMtjdjTw_103.mp4	0.0	393.32885122299194	0.09995317459106445
60	203.32072019577026	fix_pre	0		15.0	58.0	2.5	/experiments/knapen_aot/videos/S_yt-ZBk_XFb5PGo_25.mp4	0.0	393.428804397583	0.12494587898254395
60	203.43743920326233	response	0	2		58.0	2.5	/experiments/knapen_aot/videos/S_yt-ZBk_XFb5PGo_25.mp4	0.0	393.5455234050751	
60	203.4456660747528	movie	1		301.0	58.0	2.5	/experiments/knapen_aot/videos/S_yt-ZBk_XFb5PGo_25.mp4	0.0	393.55375027656555	2.508316993713379
60	205.9539830684662	fix_post	2		12.0	58.0	2.5	/experiments/knapen_aot/videos/S_yt-ZBk_XFb5PGo_25.mp4	0.0	396.06206727027893	0.10007905960083008
61	206.05406212806702	fix_pre	0		79.0	59.0	2.5	/experiments/knapen_aot/videos/R_S_wc-DcFDe419cL3d_17.mp4	0.0	396.16214632987976	0.658750057220459
61	206.7040891647339	response	0	2		59.0	2.5	/experiments/knapen_aot/videos/R_S_wc-DcFDe419cL3d_17.mp4	0.0	396.81217336654663	
61	206.71281218528748	movie	1		162.0	59.0	2.5	/experiments/knapen_aot/videos/R_S_wc-DcFDe419cL3d_17.mp4	0.0	396.8208963871002	2.5078680515289307
61	209.2206802368164	fix_post	2		12.0	59.0	2.5	/experiments/knapen_aot/videos/R_S_wc-DcFDe419cL3d_17.mp4	0.0	399.32876443862915	0.10003280639648438
62	209.3207130432129	fix_pre	0		104.0	60.0	2.5	/experiments/knapen_aot/videos/R_S_pexels-c-technical-6763571.mp4	0.0	399.42879724502563	0.8665180206298828
62	210.17912411689758	response	0	2		60.0	2.5	/experiments/knapen_aot/videos/R_S_pexels-c-technical-6763571.mp4	0.0	400.2872083187103	
62	210.18723106384277	movie	1		201.0	60.0	2.5	/experiments/knapen_aot/videos/R_S_pexels-c-technical-6763571.mp4	0.0	400.2953152656555	2.5084290504455566
62	212.69566011428833	fix_post	2		12.0	60.0	2.5	/experiments/knapen_aot/videos/R_S_pexels-c-technical-6763571.mp4	0.0	402.8037443161011	0.10002303123474121
63	212.79568314552307	fix_pre	0		177.0	61.0	2.5	blank	1.0	402.9037673473358	1.4749679565429688
63	214.25491213798523	response	0	2		61.0	2.5	blank	1.0	404.362996339798	
63	214.27065110206604	movie	1		301.0	61.0	2.5	blank	1.0	404.3787353038788	2.508419990539551
63	216.71237516403198	response	1	2		61.0	2.5	blank	1.0	406.8204593658447	
63	216.7790710926056	fix_post	2		12.0	61.0	2.5	blank	1.0	406.88715529441833	0.09992313385009766
64	216.8789942264557	fix_pre	0		44.0	62.0	2.5	/experiments/knapen_aot/videos/S_yt-kA0ybjmoiMc_284.mp4	0.0	406.98707842826843	0.3666048049926758
64	217.23740005493164	response	0	2		62.0	2.5	/experiments/knapen_aot/videos/S_yt-kA0ybjmoiMc_284.mp4	0.0	407.3454842567444	
64	217.24559903144836	movie	1		301.0	62.0	2.5	/experiments/knapen_aot/videos/S_yt-kA0ybjmoiMc_284.mp4	0.0	407.3536832332611	2.5084049701690674
64	219.75400400161743	fix_post	2		12.0	62.0	2.5	/experiments/knapen_aot/videos/S_yt-kA0ybjmoiMc_284.mp4	0.0	409.8620882034302	0.09999608993530273
65	219.85400009155273	fix_pre	0		39.0	63.0	2.5	/experiments/knapen_aot/videos/S_yt-9T99N7Cvi_o_112.mp4	0.0	409.9620842933655	0.32495808601379395
65	220.17077803611755	response	0	2		63.0	2.5	/experiments/knapen_aot/videos/S_yt-9T99N7Cvi_o_112.mp4	0.0	410.2788622379303	
65	220.17895817756653	movie	1		301.0	63.0	2.5	/experiments/knapen_aot/videos/S_yt-9T99N7Cvi_o_112.mp4	0.0	410.2870423793793	2.508328914642334
65	222.68728709220886	fix_post	2		12.0	63.0	2.5	/experiments/knapen_aot/videos/S_yt-9T99N7Cvi_o_112.mp4	0.0	412.7953712940216	0.1001889705657959
66	222.78747606277466	fix_pre	0		45.0	64.0	2.5	/experiments/knapen_aot/videos/R_S_comp_CH_C002_C005_PSNK_v05_SDR_PS_FINAL_20180709_SDR_2K_AVC.mp4	0.0	412.8955602645874	0.3747701644897461
66	223.1540961265564	response	0	2		64.0	2.5	/experiments/knapen_aot/videos/R_S_comp_CH_C002_C005_PSNK_v05_SDR_PS_FINAL_20180709_SDR_2K_AVC.mp4	0.0	413.26218032836914	
66	223.1622462272644	movie	1		179.0	64.0	2.5	/experiments/knapen_aot/videos/R_S_comp_CH_C002_C005_PSNK_v05_SDR_PS_FINAL_20180709_SDR_2K_AVC.mp4	0.0	413.27033042907715	2.508366823196411
66	225.67061305046082	fix_post	2		12.0	64.0	2.5	/experiments/knapen_aot/videos/R_S_comp_CH_C002_C005_PSNK_v05_SDR_PS_FINAL_20180709_SDR_2K_AVC.mp4	0.0	415.77869725227356	0.09999704360961914
67	225.77061009407043	fix_pre	0		47.0	65.0	2.5	/experiments/knapen_aot/videos/R_S_yt-MhW2fU45JK8_544.mp4	0.0	415.8786942958832	0.39163804054260254
67	226.15405821800232	response	0	2		65.0	2.5	/experiments/knapen_aot/videos/R_S_yt-MhW2fU45JK8_544.mp4	0.0	416.26214241981506	
67	226.16224813461304	movie	1		301.0	65.0	2.5	/experiments/knapen_aot/videos/R_S_yt-MhW2fU45JK8_544.mp4	0.0	416.2703323364258	2.508404016494751
67	228.6706521511078	fix_post	2		12.0	65.0	2.5	/experiments/knapen_aot/videos/R_S_yt-MhW2fU45JK8_544.mp4	0.0	418.77873635292053	0.09996390342712402
68	228.7706160545349	fix_pre	0		502.0	66.0	2.5	/experiments/knapen_aot/videos/R_S_bing-www_nbcnews_com_storyline_isis-terror_fall-isis-stronghold-raqqa-will-change-war-extremists-not-end-n808621_86.mp4	0.0	418.87870025634766	4.183206081390381
68	232.945659160614	response	0	2		66.0	2.5	/experiments/knapen_aot/videos/R_S_bing-www_nbcnews_com_storyline_isis-terror_fall-isis-stronghold-raqqa-will-change-war-extremists-not-end-n808621_86.mp4	0.0	423.05374336242676	
68	232.9538221359253	movie	1		166.0	66.0	2.5	/experiments/knapen_aot/videos/R_S_bing-www_nbcnews_com_storyline_isis-terror_fall-isis-stronghold-raqqa-will-change-war-extremists-not-end-n808621_86.mp4	0.0	423.06190633773804	2.5084569454193115
68	235.4622790813446	fix_post	2		12.0	66.0	2.5	/experiments/knapen_aot/videos/R_S_bing-www_nbcnews_com_storyline_isis-terror_fall-isis-stronghold-raqqa-will-change-war-extremists-not-end-n808621_86.mp4	0.0	425.57036328315735	0.1000051498413086
69	235.5622842311859	fix_pre	0		38.0	67.0	2.5	/experiments/knapen_aot/videos/S_yt-STL3ejY9u_Q_73.mp4	0.0	425.67036843299866	0.316882848739624
69	235.87063717842102	response	0	2		67.0	2.5	/experiments/knapen_aot/videos/S_yt-STL3ejY9u_Q_73.mp4	0.0	425.97872138023376	
69	235.87916707992554	movie	1		301.0	67.0	2.5	/experiments/knapen_aot/videos/S_yt-STL3ejY9u_Q_73.mp4	0.0	425.9872512817383	2.508057117462158
69	238.3872241973877	fix_post	2		12.0	67.0	2.5	/experiments/knapen_aot/videos/S_yt-STL3ejY9u_Q_73.mp4	0.0	428.49530839920044	0.1000208854675293
70	238.48724508285522	fix_pre	0		51.0	68.0	2.5	/experiments/knapen_aot/videos/S_wc-DcFDe419cL3d_17.mp4	0.0	428.59532928466797	0.42499804496765137
70	238.90401601791382	response	0	2		68.0	2.5	/experiments/knapen_aot/videos/S_wc-DcFDe419cL3d_17.mp4	0.0	429.01210021972656	
70	238.91224312782288	movie	1		165.0	68.0	2.5	/experiments/knapen_aot/videos/S_wc-DcFDe419cL3d_17.mp4	0.0	429.0203273296356	2.5082590579986572
70	241.42050218582153	fix_post	2		12.0	68.0	2.5	/experiments/knapen_aot/videos/S_wc-DcFDe419cL3d_17.mp4	0.0	431.5285863876343	0.10003495216369629
71	241.52053713798523	fix_pre	0		48.0	69.0	2.5	blank	1.0	431.628621339798	0.4002819061279297
71	241.9124891757965	response	0	2		69.0	2.5	blank	1.0	432.02057337760925	
71	241.92081904411316	movie	1		301.0	69.0	2.5	blank	1.0	432.0289032459259	2.5080630779266357
71	244.4288821220398	fix_post	2		12.0	69.0	2.5	blank	1.0	434.53696632385254	0.10024094581604004
72	244.52912306785583	fix_pre	0		86.0	70.0	2.5	/experiments/knapen_aot/videos/S_yt-lADkWM79teI_18.mp4	0.0	434.6372072696686	0.7163791656494141
72	245.23734211921692	response	0	2		70.0	2.5	/experiments/knapen_aot/videos/S_yt-lADkWM79teI_18.mp4	0.0	435.34542632102966	
72	245.24550223350525	movie	1		301.0	70.0	2.5	/experiments/knapen_aot/videos/S_yt-lADkWM79teI_18.mp4	0.0	435.353586435318	2.508434772491455
72	247.7539370059967	fix_post	2		12.0	70.0	2.5	/experiments/knapen_aot/videos/S_yt-lADkWM79teI_18.mp4	0.0	437.86202120780945	0.0998530387878418
73	247.85379004478455	fix_pre	0		56.0	71.0	2.5	/experiments/knapen_aot/videos/R_S_yt-O6W6CZPXvlA_15.mp4	0.0	437.9618742465973	0.4666781425476074
73	248.31226515769958	response	0	2		71.0	2.5	/experiments/knapen_aot/videos/R_S_yt-O6W6CZPXvlA_15.mp4	0.0	438.42034935951233	
73	248.32046818733215	movie	1		301.0	71.0	2.5	/experiments/knapen_aot/videos/R_S_yt-O6W6CZPXvlA_15.mp4	0.0	438.4285523891449	2.5083818435668945
73	250.82885003089905	fix_post	2		12.0	71.0	2.5	/experiments/knapen_aot/videos/R_S_yt-O6W6CZPXvlA_15.mp4	0.0	440.9369342327118	0.10000109672546387
74	250.9288511276245	fix_pre	0		321.0	72.0	2.5	/experiments/knapen_aot/videos/S_pexels-c-technical-6763571.mp4	0.0	441.03693532943726	2.6749179363250732
74	253.59564423561096	response	0	2		72.0	2.5	/experiments/knapen_aot/videos/S_pexels-c-technical-6763571.mp4	0.0	443.7037284374237	
74	253.60376906394958	movie	1		200.0	72.0	2.5	/experiments/knapen_aot/videos/S_pexels-c-technical-6763571.mp4	0.0	443.71185326576233	2.5083701610565186
74	256.1121392250061	fix_post	2		12.0	72.0	2.5	/experiments/knapen_aot/videos/S_pexels-c-technical-6763571.mp4	0.0	446.22022342681885	0.100341796875
75	256.2124810218811	fix_pre	0		24.0	73.0	2.5	/experiments/knapen_aot/videos/S_yt--v_iMUMMX6g_39.mp4	0.0	446.32056522369385	0.19957518577575684
75	256.40391516685486	response	0	2		73.0	2.5	/experiments/knapen_aot/videos/S_yt--v_iMUMMX6g_39.mp4	0.0	446.5119993686676	
75	256.41205620765686	movie	1		301.0	73.0	2.5	/experiments/knapen_aot/videos/S_yt--v_iMUMMX6g_39.mp4	0.0	446.5201404094696	2.5084409713745117
75	258.9204971790314	fix_post	2		12.0	73.0	2.5	/experiments/knapen_aot/videos/S_yt--v_iMUMMX6g_39.mp4	0.0	449.0285813808441	0.10003089904785156
76	259.0205280780792	fix_pre	0		49.0	74.0	2.5	/experiments/knapen_aot/videos/R_S_yt-MTo50ReVNmU_2.mp4	0.0	449.12861227989197	0.4082601070404053
76	259.4205641746521	response	0	2		74.0	2.5	/experiments/knapen_aot/videos/R_S_yt-MTo50ReVNmU_2.mp4	0.0	449.52864837646484	
76	259.42878818511963	movie	1		301.0	74.0	2.5	/experiments/knapen_aot/videos/R_S_yt-MTo50ReVNmU_2.mp4	0.0	449.5368723869324	2.508319854736328
76	261.93710803985596	fix_post	2		12.0	74.0	2.5	/experiments/knapen_aot/videos/R_S_yt-MTo50ReVNmU_2.mp4	0.0	452.0451922416687	0.1000211238861084
77	262.03712916374207	fix_pre	0		73.0	75.0	2.5	blank	1.0	452.1452133655548	0.6083040237426758
77	262.63726019859314	response	0	2		75.0	2.5	blank	1.0	452.7453444004059	
77	262.64543318748474	movie	1		301.0	75.0	2.5	blank	1.0	452.7535173892975	2.5084309577941895
77	263.28722620010376	response	1	2		75.0	2.5	blank	1.0	453.3953104019165	
77	265.15386414527893	fix_post	2		12.0	75.0	2.5	blank	1.0	455.2619483470917	0.10015606880187988
78	265.2540202140808	fix_pre	0		330.0	76.0	2.5	/experiments/knapen_aot/videos/S_yt-4GDusA21cEA_170.mp4	0.0	455.36210441589355	2.7502570152282715
78	267.995512008667	response	0	2		76.0	2.5	/experiments/knapen_aot/videos/S_yt-4GDusA21cEA_170.mp4	0.0	458.10359621047974	
78	268.0042772293091	movie	1		301.0	76.0	2.5	/experiments/knapen_aot/videos/S_yt-4GDusA21cEA_170.mp4	0.0	458.1123614311218	2.5078539848327637
78	270.51213121414185	fix_post	2		12.0	76.0	2.5	/experiments/knapen_aot/videos/S_yt-4GDusA21cEA_170.mp4	0.0	460.6202154159546	0.09991693496704102
79	270.6120481491089	fix_pre	0		29.0	77.0	2.5	/experiments/knapen_aot/videos/R_S_yt-Ndwek2tpIOA_169.mp4	0.0	460.72013235092163	0.24171686172485352
79	270.8455810546875	response	0	2		77.0	2.5	/experiments/knapen_aot/videos/R_S_yt-Ndwek2tpIOA_169.mp4	0.0	460.95366525650024	
79	270.85376501083374	movie	1		301.0	77.0	2.5	/experiments/knapen_aot/videos/R_S_yt-Ndwek2tpIOA_169.mp4	0.0	460.9618492126465	2.5084872245788574
79	273.3622522354126	fix_post	2		12.0	77.0	2.5	/experiments/knapen_aot/videos/R_S_yt-Ndwek2tpIOA_169.mp4	0.0	463.47033643722534	0.10001993179321289
80	273.4622721672058	fix_pre	0		56.0	78.0	2.5	/experiments/knapen_aot/videos/R_S_wc-jujp1kJRHrkJ_54.mp4	0.0	463.57035636901855	0.4663689136505127
80	273.92052721977234	response	0	2		78.0	2.5	/experiments/knapen_aot/videos/R_S_wc-jujp1kJRHrkJ_54.mp4	0.0	464.0286114215851	
80	273.9286410808563	movie	1		301.0	78.0	2.5	/experiments/knapen_aot/videos/R_S_wc-jujp1kJRHrkJ_54.mp4	0.0	464.03672528266907	2.508470058441162
80	275.538693189621	response	1	2		78.0	2.5	/experiments/knapen_aot/videos/R_S_wc-jujp1kJRHrkJ_54.mp4	0.0	465.6467773914337	
80	276.4371111392975	fix_post	2		12.0	78.0	2.5	/experiments/knapen_aot/videos/R_S_wc-jujp1kJRHrkJ_54.mp4	0.0	466.54519534111023	0.10009407997131348
81	276.5372052192688	fix_pre	0		26.0	79.0	2.5	/experiments/knapen_aot/videos/R_S_production_ID_4122384.mp4	0.0	466.64528942108154	0.2165689468383789
81	276.74561619758606	response	0	2		79.0	2.5	/experiments/knapen_aot/videos/R_S_production_ID_4122384.mp4	0.0	466.8537003993988	
81	276.7537741661072	movie	1		176.0	79.0	2.5	/experiments/knapen_aot/videos/R_S_production_ID_4122384.mp4	0.0	466.8618583679199	2.5082309246063232
81	279.2620050907135	fix_post	2		12.0	79.0	2.5	/experiments/knapen_aot/videos/R_S_production_ID_4122384.mp4	0.0	469.37008929252625	0.10005497932434082
82	279.36206007003784	fix_pre	0		23.0	80.0	2.5	/experiments/knapen_aot/videos/S_yt-BAwvfRmE1LU_79.mp4	0.0	469.4701442718506	0.19169902801513672
82	279.5454680919647	response	0	2		80.0	2.5	/experiments/knapen_aot/videos/S_yt-BAwvfRmE1LU_79.mp4	0.0	469.65355229377747	
82	279.553759098053	movie	1		301.0	80.0	2.5	/experiments/knapen_aot/videos/S_yt-BAwvfRmE1LU_79.mp4	0.0	469.6618432998657	2.5084431171417236
82	282.0622022151947	fix_post	2		12.0	80.0	2.5	/experiments/knapen_aot/videos/S_yt-BAwvfRmE1LU_79.mp4	0.0	472.17028641700745	0.09983086585998535
83	282.1620330810547	fix_pre	0		78.0	81.0	2.5	/experiments/knapen_aot/videos/R_S_ILSVRC2015_train_00594001.mp4	0.0	472.27011728286743	0.6500020027160645
83	282.8038251399994	response	0	2		81.0	2.5	/experiments/knapen_aot/videos/R_S_ILSVRC2015_train_00594001.mp4	0.0	472.91190934181213	
83	282.81203508377075	movie	1		301.0	81.0	2.5	/experiments/knapen_aot/videos/R_S_ILSVRC2015_train_00594001.mp4	0.0	472.9201192855835	2.5083279609680176
83	284.7539291381836	response	1	2		81.0	2.5	/experiments/knapen_aot/videos/R_S_ILSVRC2015_train_00594001.mp4	0.0	474.86201333999634	
83	285.32036304473877	fix_post	2		12.0	81.0	2.5	/experiments/knapen_aot/videos/R_S_ILSVRC2015_train_00594001.mp4	0.0	475.4284472465515	0.10059905052185059
84	285.4209620952606	fix_pre	0		77.0	82.0	2.5	/experiments/knapen_aot/videos/S_comp_A001_C001_120530_v04_SDR_FINAL_20180706_SDR_2K_AVC.mp4	0.0	475.52904629707336	0.6410479545593262
84	286.0461721420288	response	0	2		82.0	2.5	/experiments/knapen_aot/videos/S_comp_A001_C001_120530_v04_SDR_FINAL_20180706_SDR_2K_AVC.mp4	0.0	476.15425634384155	
84	286.06201004981995	movie	1		167.0	82.0	2.5	/experiments/knapen_aot/videos/S_comp_A001_C001_120530_v04_SDR_FINAL_20180706_SDR_2K_AVC.mp4	0.0	476.1700942516327	2.5083510875701904
84	286.6532301902771	response	1	2		82.0	2.5	/experiments/knapen_aot/videos/S_comp_A001_C001_120530_v04_SDR_FINAL_20180706_SDR_2K_AVC.mp4	0.0	476.76131439208984	
84	287.33610010147095	response	1	2		82.0	2.5	/experiments/knapen_aot/videos/S_comp_A001_C001_120530_v04_SDR_FINAL_20180706_SDR_2K_AVC.mp4	0.0	477.4441843032837	
84	288.19819617271423	response	1	2		82.0	2.5	/experiments/knapen_aot/videos/S_comp_A001_C001_120530_v04_SDR_FINAL_20180706_SDR_2K_AVC.mp4	0.0	478.306280374527	
84	288.57036113739014	fix_post	2		12.0	82.0	2.5	/experiments/knapen_aot/videos/S_comp_A001_C001_120530_v04_SDR_FINAL_20180706_SDR_2K_AVC.mp4	0.0	478.6784453392029	0.10004806518554688
85	288.6704092025757	fix_pre	0		29.0	83.0	2.5	blank	1.0	478.7784934043884	0.24157500267028809
85	288.8961820602417	response	0	2		83.0	2.5	blank	1.0	479.00426626205444	
85	288.911984205246	movie	1		301.0	83.0	2.5	blank	1.0	479.0200684070587	2.5084118843078613
85	290.73702812194824	response	1	2		83.0	2.5	blank	1.0	480.845112323761	
85	291.42039608955383	fix_post	2		12.0	83.0	2.5	blank	1.0	481.5284802913666	0.1000509262084961
87	291.52044701576233	stim	0		94.0					481.6285312175751	0.7831602096557617
87	292.29748702049255	response	0	space						482.4055712223053	
