trial_nr	onset	event_type	phase	response	nr_frames	movie_index	movie_duration	movie_file	blank	onset_abs	duration
0	0.12714505195617676	stim	0		80.0					99.7371780872345	0.6664600372314453
0	0.7760989665985107	response	0	space						100.38613200187683	
1	0.7936050891876221	stim	0		121.0					100.40363812446594	1.005950927734375
1	1.799556016921997	stim	1		120.0					101.40958905220032	1.0009031295776367
1	2.1923511028289795	response	1	space						101.8023841381073	
2	2.800459146499634	fix_pre	0		39.0	0.0	2.5	/experiments/knapen_aot/videos/R_S_ILSVRC2015_train_00318000.mp4	0.0	102.41049218177795	0.3240978717803955
2	3.116466999053955	response	0	space		0.0	2.5	/experiments/knapen_aot/videos/R_S_ILSVRC2015_train_00318000.mp4	0.0	102.72650003433228	
2	3.1245570182800293	movie	1		301.0	0.0	2.5	/experiments/knapen_aot/videos/R_S_ILSVRC2015_train_00318000.mp4	0.0	102.73459005355835	2.508358955383301
2	5.63291597366333	fix_post	2		12.0	0.0	2.5	/experiments/knapen_aot/videos/R_S_ILSVRC2015_train_00318000.mp4	0.0	105.24294900894165	0.09998917579650879
3	5.732905149459839	fix_pre	0		39.0	1.0	2.5	/experiments/knapen_aot/videos/R_S_yt-XY1n_Oze1kQ_9.mp4	0.0	105.34293818473816	0.32500600814819336
3	6.049839019775391	response	0	2		1.0	2.5	/experiments/knapen_aot/videos/R_S_yt-XY1n_Oze1kQ_9.mp4	0.0	105.65987205505371	
3	6.057911157608032	movie	1		301.0	1.0	2.5	/experiments/knapen_aot/videos/R_S_yt-XY1n_Oze1kQ_9.mp4	0.0	105.66794419288635	2.508347988128662
3	8.566259145736694	fix_post	2		12.0	1.0	2.5	/experiments/knapen_aot/videos/R_S_yt-XY1n_Oze1kQ_9.mp4	0.0	108.17629218101501	0.10020589828491211
4	8.666465044021606	fix_pre	0		13.0	2.0	2.5	/experiments/knapen_aot/videos/S_yt-SgiTZNjCPCo_19.mp4	0.0	108.27649807929993	0.10803794860839844
4	8.766347169876099	response	0	2		2.0	2.5	/experiments/knapen_aot/videos/S_yt-SgiTZNjCPCo_19.mp4	0.0	108.37638020515442	
4	8.774502992630005	movie	1		301.0	2.0	2.5	/experiments/knapen_aot/videos/S_yt-SgiTZNjCPCo_19.mp4	0.0	108.38453602790833	2.5083930492401123
4	11.282896041870117	fix_post	2		12.0	2.0	2.5	/experiments/knapen_aot/videos/S_yt-SgiTZNjCPCo_19.mp4	0.0	110.89292907714844	0.09991693496704102
5	11.382812976837158	fix_pre	0		9.0	3.0	2.5	/experiments/knapen_aot/videos/S_yt-HFiRYTnMZxE_338.mp4	0.0	110.99284601211548	0.07506299018859863
5	11.449566125869751	response	0	2		3.0	2.5	/experiments/knapen_aot/videos/S_yt-HFiRYTnMZxE_338.mp4	0.0	111.05959916114807	
5	11.457875967025757	movie	1		301.0	3.0	2.5	/experiments/knapen_aot/videos/S_yt-HFiRYTnMZxE_338.mp4	0.0	111.06790900230408	2.5084011554718018
5	13.966277122497559	fix_post	2		12.0	3.0	2.5	/experiments/knapen_aot/videos/S_yt-HFiRYTnMZxE_338.mp4	0.0	113.57631015777588	0.09994387626647949
6	14.066220998764038	fix_pre	0		10.0	4.0	2.5	/experiments/knapen_aot/videos/S_yt-0d5TkclKWVA_146.mp4	0.0	113.67625403404236	0.08325910568237305
6	14.141364097595215	response	0	2		4.0	2.5	/experiments/knapen_aot/videos/S_yt-0d5TkclKWVA_146.mp4	0.0	113.75139713287354	
6	14.149480104446411	movie	1		301.0	4.0	2.5	/experiments/knapen_aot/videos/S_yt-0d5TkclKWVA_146.mp4	0.0	113.75951313972473	2.5083420276641846
6	16.657822132110596	fix_post	2		12.0	4.0	2.5	/experiments/knapen_aot/videos/S_yt-0d5TkclKWVA_146.mp4	0.0	116.26785516738892	0.10003995895385742
7	16.757862091064453	fix_pre	0		1.0	5.0	2.5	/experiments/knapen_aot/videos/R_S_yt-GBt59U0KUR0_6.mp4	0.0	116.36789512634277	0.008287906646728516
7	16.75970196723938	response	0	2		5.0	2.5	/experiments/knapen_aot/videos/R_S_yt-GBt59U0KUR0_6.mp4	0.0	116.3697350025177	
7	16.76614999771118	movie	1		301.0	5.0	2.5	/experiments/knapen_aot/videos/R_S_yt-GBt59U0KUR0_6.mp4	0.0	116.3761830329895	2.508397102355957
7	18.908119201660156	response	1	2		5.0	2.5	/experiments/knapen_aot/videos/R_S_yt-GBt59U0KUR0_6.mp4	0.0	118.51815223693848	
7	19.27454710006714	fix_post	2		12.0	5.0	2.5	/experiments/knapen_aot/videos/R_S_yt-GBt59U0KUR0_6.mp4	0.0	118.88458013534546	0.09996390342712402
7	19.349531173706055	response	2	2		5.0	2.5	/experiments/knapen_aot/videos/R_S_yt-GBt59U0KUR0_6.mp4	0.0	118.95956420898438	
8	19.374511003494263	fix_pre	0		65.0	6.0	2.5	/experiments/knapen_aot/videos/R_S_yt-074ygGXNoQ8_64.mp4	0.0	118.98454403877258	0.5416510105133057
8	19.90792202949524	response	0	2		6.0	2.5	/experiments/knapen_aot/videos/R_S_yt-074ygGXNoQ8_64.mp4	0.0	119.51795506477356	
8	19.91616201400757	movie	1		301.0	6.0	2.5	/experiments/knapen_aot/videos/R_S_yt-074ygGXNoQ8_64.mp4	0.0	119.52619504928589	2.508342981338501
8	22.42450499534607	fix_post	2		12.0	6.0	2.5	/experiments/knapen_aot/videos/R_S_yt-074ygGXNoQ8_64.mp4	0.0	122.03453803062439	0.1000070571899414
9	22.52451205253601	fix_pre	0		17.0	7.0	2.5	blank	1.0	122.13454508781433	0.14153003692626953
9	22.658004999160767	response	0	2		7.0	2.5	blank	1.0	122.26803803443909	
9	22.66604208946228	movie	1		301.0	7.0	2.5	blank	1.0	122.2760751247406	2.5084619522094727
9	25.174504041671753	fix_post	2		12.0	7.0	2.5	blank	1.0	124.78453707695007	0.09999799728393555
10	25.27450203895569	fix_pre	0		55.0	8.0	2.5	/experiments/knapen_aot/videos/R_S_yt-aSEKRE_FNaI_62.mp4	0.0	124.88453507423401	0.45825695991516113
10	25.724570989608765	response	0	2		8.0	2.5	/experiments/knapen_aot/videos/R_S_yt-aSEKRE_FNaI_62.mp4	0.0	125.33460402488708	
10	25.73275899887085	movie	1		301.0	8.0	2.5	/experiments/knapen_aot/videos/R_S_yt-aSEKRE_FNaI_62.mp4	0.0	125.34279203414917	2.5083811283111572
10	28.241140127182007	fix_post	2		12.0	8.0	2.5	/experiments/knapen_aot/videos/R_S_yt-aSEKRE_FNaI_62.mp4	0.0	127.85117316246033	0.10000395774841309
11	28.34114408493042	fix_pre	0		13.0	9.0	2.5	/experiments/knapen_aot/videos/R_S_yt-0bovQBIUZho_15.mp4	0.0	127.95117712020874	0.10828995704650879
11	28.4412100315094	response	0	2		9.0	2.5	/experiments/knapen_aot/videos/R_S_yt-0bovQBIUZho_15.mp4	0.0	128.05124306678772	
11	28.44943404197693	movie	1		301.0	9.0	2.5	/experiments/knapen_aot/videos/R_S_yt-0bovQBIUZho_15.mp4	0.0	128.05946707725525	2.508345127105713
11	30.95777916908264	fix_post	2		12.0	9.0	2.5	/experiments/knapen_aot/videos/R_S_yt-0bovQBIUZho_15.mp4	0.0	130.56781220436096	0.1000208854675293
12	31.05780005455017	fix_pre	0		12.0	10.0	2.5	/experiments/knapen_aot/videos/R_S_yt-JDHApyT5ngs_128.mp4	0.0	130.6678330898285	0.09998393058776855
12	31.14959216117859	response	0	2		10.0	2.5	/experiments/knapen_aot/videos/R_S_yt-JDHApyT5ngs_128.mp4	0.0	130.7596251964569	
12	31.15778398513794	movie	1		301.0	10.0	2.5	/experiments/knapen_aot/videos/R_S_yt-JDHApyT5ngs_128.mp4	0.0	130.76781702041626	2.508315086364746
12	33.666099071502686	fix_post	2		12.0	10.0	2.5	/experiments/knapen_aot/videos/R_S_yt-JDHApyT5ngs_128.mp4	0.0	133.276132106781	0.10000896453857422
13	33.76610803604126	fix_pre	0		10.0	11.0	2.5	/experiments/knapen_aot/videos/R_S_yt-zSSnQYeO_DE_338.mp4	0.0	133.37614107131958	0.08335995674133301
13	33.833715200424194	response	0	2		11.0	2.5	/experiments/knapen_aot/videos/R_S_yt-zSSnQYeO_DE_338.mp4	0.0	133.44374823570251	
13	33.84946799278259	movie	1		301.0	11.0	2.5	/experiments/knapen_aot/videos/R_S_yt-zSSnQYeO_DE_338.mp4	0.0	133.4595010280609	2.5083470344543457
13	36.35781502723694	fix_post	2		12.0	11.0	2.5	/experiments/knapen_aot/videos/R_S_yt-zSSnQYeO_DE_338.mp4	0.0	135.96784806251526	0.09995603561401367
14	36.45777106285095	fix_pre	0		17.0	12.0	2.5	blank	1.0	136.06780409812927	0.1416311264038086
14	36.59117817878723	response	0	2		12.0	2.5	blank	1.0	136.20121121406555	
14	36.59940218925476	movie	1		301.0	12.0	2.5	blank	1.0	136.20943522453308	2.5083558559417725
14	39.10775804519653	fix_post	2		12.0	12.0	2.5	blank	1.0	138.71779108047485	0.0999901294708252
15	39.20774817466736	fix_pre	0		30.0	13.0	2.5	/experiments/knapen_aot/videos/S_Pexels_Videos_2786546.mp4	0.0	138.81778120994568	0.2500119209289551
15	39.44195199012756	response	0	2		13.0	2.5	/experiments/knapen_aot/videos/S_Pexels_Videos_2786546.mp4	0.0	139.05198502540588	
15	39.45776009559631	movie	1		165.0	13.0	2.5	/experiments/knapen_aot/videos/S_Pexels_Videos_2786546.mp4	0.0	139.06779313087463	2.5083138942718506
15	41.966073989868164	fix_post	2		12.0	13.0	2.5	/experiments/knapen_aot/videos/S_Pexels_Videos_2786546.mp4	0.0	141.57610702514648	0.10009503364562988
16	42.066169023513794	fix_pre	0		9.0	14.0	2.5	/experiments/knapen_aot/videos/R_S_yt-Bx2kLEUuN0E_456.mp4	0.0	141.67620205879211	0.07488703727722168
16	42.132893085479736	response	0	2		14.0	2.5	/experiments/knapen_aot/videos/R_S_yt-Bx2kLEUuN0E_456.mp4	0.0	141.74292612075806	
16	42.141056060791016	movie	1		301.0	14.0	2.5	/experiments/knapen_aot/videos/R_S_yt-Bx2kLEUuN0E_456.mp4	0.0	141.75108909606934	2.5085690021514893
16	44.649625062942505	fix_post	2		12.0	14.0	2.5	/experiments/knapen_aot/videos/R_S_yt-Bx2kLEUuN0E_456.mp4	0.0	144.25965809822083	0.09983992576599121
17	44.749464988708496	fix_pre	0		3.0	15.0	2.5	/experiments/knapen_aot/videos/S_production_ID_4122384.mp4	0.0	144.35949802398682	0.02491903305053711
17	44.75975513458252	response	0	2		15.0	2.5	/experiments/knapen_aot/videos/S_production_ID_4122384.mp4	0.0	144.36978816986084	
17	44.77438402175903	movie	1		175.0	15.0	2.5	/experiments/knapen_aot/videos/S_production_ID_4122384.mp4	0.0	144.38441705703735	2.508376121520996
17	47.28276014328003	fix_post	2		12.0	15.0	2.5	/experiments/knapen_aot/videos/S_production_ID_4122384.mp4	0.0	146.89279317855835	0.09991693496704102
18	47.38267707824707	fix_pre	0		3.0	16.0	2.5	/experiments/knapen_aot/videos/R_S_yt-F1vQ5nZWhDg_21.mp4	0.0	146.9927101135254	0.025032997131347656
18	47.399736166000366	response	0	2		16.0	2.5	/experiments/knapen_aot/videos/R_S_yt-F1vQ5nZWhDg_21.mp4	0.0	147.0097692012787	
18	47.40771007537842	movie	1		301.0	16.0	2.5	/experiments/knapen_aot/videos/R_S_yt-F1vQ5nZWhDg_21.mp4	0.0	147.01774311065674	2.5083870887756348
18	49.91609716415405	fix_post	2		12.0	16.0	2.5	/experiments/knapen_aot/videos/R_S_yt-F1vQ5nZWhDg_21.mp4	0.0	149.52613019943237	0.09999990463256836
19	50.01609706878662	fix_pre	0		36.0	17.0	2.5	/experiments/knapen_aot/videos/S_yt-pB9w3AA-woE_37.mp4	0.0	149.62613010406494	0.29989194869995117
19	50.30787396430969	response	0	2		17.0	2.5	/experiments/knapen_aot/videos/S_yt-pB9w3AA-woE_37.mp4	0.0	149.917906999588	
19	50.31598901748657	movie	1		301.0	17.0	2.5	/experiments/knapen_aot/videos/S_yt-pB9w3AA-woE_37.mp4	0.0	149.9260220527649	2.5084099769592285
19	52.8243989944458	fix_post	2		12.0	17.0	2.5	/experiments/knapen_aot/videos/S_yt-pB9w3AA-woE_37.mp4	0.0	152.43443202972412	0.09999918937683105
20	52.92439818382263	fix_pre	0		17.0	18.0	2.5	/experiments/knapen_aot/videos/S_production_ID_4124475.mp4	0.0	152.53443121910095	0.14152884483337402
20	53.05778408050537	response	0	2		18.0	2.5	/experiments/knapen_aot/videos/S_production_ID_4124475.mp4	0.0	152.6678171157837	
20	53.065927028656006	movie	1		166.0	18.0	2.5	/experiments/knapen_aot/videos/S_production_ID_4124475.mp4	0.0	152.67596006393433	2.508484125137329
20	55.574411153793335	fix_post	2		12.0	18.0	2.5	/experiments/knapen_aot/videos/S_production_ID_4124475.mp4	0.0	155.18444418907166	0.09995484352111816
20	55.64946007728577	response	2	2		18.0	2.5	/experiments/knapen_aot/videos/S_production_ID_4124475.mp4	0.0	155.2594931125641	
21	55.67436599731445	fix_pre	0		65.0	19.0	2.5	/experiments/knapen_aot/videos/S_yt-4x2eUikn9rw_212.mp4	0.0	155.28439903259277	0.5422000885009766
21	56.207720041275024	response	0	2		19.0	2.5	/experiments/knapen_aot/videos/S_yt-4x2eUikn9rw_212.mp4	0.0	155.81775307655334	
21	56.21656608581543	movie	1		301.0	19.0	2.5	/experiments/knapen_aot/videos/S_yt-4x2eUikn9rw_212.mp4	0.0	155.82659912109375	2.5077691078186035
21	58.72433519363403	fix_post	2		12.0	19.0	2.5	/experiments/knapen_aot/videos/S_yt-4x2eUikn9rw_212.mp4	0.0	158.33436822891235	0.09996700286865234
22	58.824302196502686	fix_pre	0		23.0	20.0	2.5	blank	1.0	158.434335231781	0.19168996810913086
22	59.00781011581421	response	0	2		20.0	2.5	blank	1.0	158.61784315109253	
22	59.015992164611816	movie	1		301.0	20.0	2.5	blank	1.0	158.62602519989014	2.5084609985351562
22	61.52445316314697	fix_post	2		12.0	20.0	2.5	blank	1.0	161.1344861984253	0.09987092018127441
23	61.62432408332825	fix_pre	0		19.0	21.0	2.5	/experiments/knapen_aot/videos/S_yt-JDHApyT5ngs_128.mp4	0.0	161.23435711860657	0.15833592414855957
23	61.774352073669434	response	0	2		21.0	2.5	/experiments/knapen_aot/videos/S_yt-JDHApyT5ngs_128.mp4	0.0	161.38438510894775	
23	61.78266000747681	movie	1		301.0	21.0	2.5	/experiments/knapen_aot/videos/S_yt-JDHApyT5ngs_128.mp4	0.0	161.39269304275513	2.5082650184631348
23	64.29092502593994	fix_post	2		12.0	21.0	2.5	/experiments/knapen_aot/videos/S_yt-JDHApyT5ngs_128.mp4	0.0	163.90095806121826	0.09997797012329102
24	64.39090299606323	fix_pre	0		20.0	22.0	2.5	/experiments/knapen_aot/videos/S_yt-tNCrkObhB6c_17.mp4	0.0	164.00093603134155	0.16668319702148438
24	64.5493860244751	response	0	2		22.0	2.5	/experiments/knapen_aot/videos/S_yt-tNCrkObhB6c_17.mp4	0.0	164.15941905975342	
24	64.55758619308472	movie	1		301.0	22.0	2.5	/experiments/knapen_aot/videos/S_yt-tNCrkObhB6c_17.mp4	0.0	164.16761922836304	2.508368968963623
24	67.06595516204834	fix_post	2		12.0	22.0	2.5	/experiments/knapen_aot/videos/S_yt-tNCrkObhB6c_17.mp4	0.0	166.67598819732666	0.10002589225769043
25	67.16598105430603	fix_pre	0		10.0	23.0	2.5	/experiments/knapen_aot/videos/R_S_yt-TvU-aYjNa2c_21.mp4	0.0	166.77601408958435	0.0832209587097168
25	67.24101614952087	response	0	2		23.0	2.5	/experiments/knapen_aot/videos/R_S_yt-TvU-aYjNa2c_21.mp4	0.0	166.8510491847992	
25	67.24920201301575	movie	1		301.0	23.0	2.5	/experiments/knapen_aot/videos/R_S_yt-TvU-aYjNa2c_21.mp4	0.0	166.85923504829407	2.5084280967712402
25	69.75763010978699	fix_post	2		12.0	23.0	2.5	/experiments/knapen_aot/videos/R_S_yt-TvU-aYjNa2c_21.mp4	0.0	169.3676631450653	0.09999489784240723
26	69.8576250076294	fix_pre	0		28.0	24.0	2.5	/experiments/knapen_aot/videos/R_S_yt-9CY7rDYBYUI_40.mp4	0.0	169.46765804290771	0.2337779998779297
26	70.08271312713623	response	0	2		24.0	2.5	/experiments/knapen_aot/videos/R_S_yt-9CY7rDYBYUI_40.mp4	0.0	169.69274616241455	
26	70.09140300750732	movie	1		301.0	24.0	2.5	/experiments/knapen_aot/videos/R_S_yt-9CY7rDYBYUI_40.mp4	0.0	169.70143604278564	2.5080881118774414
26	72.59949111938477	fix_post	2		12.0	24.0	2.5	/experiments/knapen_aot/videos/R_S_yt-9CY7rDYBYUI_40.mp4	0.0	172.2095241546631	0.09977889060974121
27	72.6992700099945	fix_pre	0		12.0	25.0	2.5	/experiments/knapen_aot/videos/S_yt-s5YONFy3vb4_46.mp4	0.0	172.30930304527283	0.10050511360168457
27	72.79106998443604	response	0	2		25.0	2.5	/experiments/knapen_aot/videos/S_yt-s5YONFy3vb4_46.mp4	0.0	172.40110301971436	
27	72.79977512359619	movie	1		301.0	25.0	2.5	/experiments/knapen_aot/videos/S_yt-s5YONFy3vb4_46.mp4	0.0	172.4098081588745	2.507884979248047
27	75.30766010284424	fix_post	2		12.0	25.0	2.5	/experiments/knapen_aot/videos/S_yt-s5YONFy3vb4_46.mp4	0.0	174.91769313812256	0.09993791580200195
28	75.40759801864624	fix_pre	0		11.0	26.0	2.5	/experiments/knapen_aot/videos/S_pexels-rodnae-productions-7467585.mp4	0.0	175.01763105392456	0.09166908264160156
28	75.49106311798096	response	0	2		26.0	2.5	/experiments/knapen_aot/videos/S_pexels-rodnae-productions-7467585.mp4	0.0	175.10109615325928	
28	75.49926710128784	movie	1		164.0	26.0	2.5	/experiments/knapen_aot/videos/S_pexels-rodnae-productions-7467585.mp4	0.0	175.10930013656616	2.5083420276641846
28	78.00760912895203	fix_post	2		12.0	26.0	2.5	/experiments/knapen_aot/videos/S_pexels-rodnae-productions-7467585.mp4	0.0	177.61764216423035	0.09996891021728516
29	78.10757803916931	fix_pre	0		17.0	27.0	2.5	blank	1.0	177.71761107444763	0.1417100429534912
29	78.24104809761047	response	0	2		27.0	2.5	blank	1.0	177.8510811328888	
29	78.2492880821228	movie	1		301.0	27.0	2.5	blank	1.0	177.85932111740112	2.5085299015045166
29	80.75781798362732	fix_post	2		12.0	27.0	2.5	blank	1.0	180.36785101890564	0.09975910186767578
30	80.857577085495	fix_pre	0		50.0	28.0	2.5	/experiments/knapen_aot/videos/R_S_yt-Dwgpjoikt84_71.mp4	0.0	180.46761012077332	0.41658711433410645
30	81.26592803001404	response	0	2		28.0	2.5	/experiments/knapen_aot/videos/R_S_yt-Dwgpjoikt84_71.mp4	0.0	180.87596106529236	
30	81.2741641998291	movie	1		301.0	28.0	2.5	/experiments/knapen_aot/videos/R_S_yt-Dwgpjoikt84_71.mp4	0.0	180.88419723510742	2.508488893508911
30	83.78265309333801	fix_post	2		12.0	28.0	2.5	/experiments/knapen_aot/videos/R_S_yt-Dwgpjoikt84_71.mp4	0.0	183.39268612861633	0.10046792030334473
31	83.88312101364136	fix_pre	0		14.0	29.0	2.5	/experiments/knapen_aot/videos/S_yt-9Ow95khYa_M_91.mp4	0.0	183.49315404891968	0.11605715751647949
31	83.99102210998535	response	0	2		29.0	2.5	/experiments/knapen_aot/videos/S_yt-9Ow95khYa_M_91.mp4	0.0	183.60105514526367	
31	83.99917817115784	movie	1		301.0	29.0	2.5	/experiments/knapen_aot/videos/S_yt-9Ow95khYa_M_91.mp4	0.0	183.60921120643616	2.5084338188171387
31	86.50761198997498	fix_post	2		12.0	29.0	2.5	/experiments/knapen_aot/videos/S_yt-9Ow95khYa_M_91.mp4	0.0	186.1176450252533	0.09991908073425293
32	86.60753107070923	fix_pre	0		6.0	30.0	2.5	/experiments/knapen_aot/videos/S_yt-zgimmOcW5Mc_127.mp4	0.0	186.21756410598755	0.049987077713012695
32	86.64935803413391	response	0	2		30.0	2.5	/experiments/knapen_aot/videos/S_yt-zgimmOcW5Mc_127.mp4	0.0	186.25939106941223	
32	86.65751814842224	movie	1		301.0	30.0	2.5	/experiments/knapen_aot/videos/S_yt-zgimmOcW5Mc_127.mp4	0.0	186.26755118370056	2.5083470344543457
32	89.16586518287659	fix_post	2		12.0	30.0	2.5	/experiments/knapen_aot/videos/S_yt-zgimmOcW5Mc_127.mp4	0.0	188.7758982181549	0.10004591941833496
33	89.26591110229492	fix_pre	0		8.0	31.0	2.5	/experiments/knapen_aot/videos/S_yt-V35ubrbe8gA_86.mp4	0.0	188.87594413757324	0.06661200523376465
33	89.31668210029602	response	0	2		31.0	2.5	/experiments/knapen_aot/videos/S_yt-V35ubrbe8gA_86.mp4	0.0	188.92671513557434	
33	89.33252310752869	movie	1		301.0	31.0	2.5	/experiments/knapen_aot/videos/S_yt-V35ubrbe8gA_86.mp4	0.0	188.942556142807	2.508327007293701
33	91.84085011482239	fix_post	2		12.0	31.0	2.5	/experiments/knapen_aot/videos/S_yt-V35ubrbe8gA_86.mp4	0.0	191.4508831501007	0.10001707077026367
34	91.94086718559265	fix_pre	0		18.0	32.0	2.5	/experiments/knapen_aot/videos/R_S_yt-b29VtKvlnWE_430.mp4	0.0	191.55090022087097	0.1503918170928955
34	92.08264303207397	response	0	2		32.0	2.5	/experiments/knapen_aot/videos/R_S_yt-b29VtKvlnWE_430.mp4	0.0	191.6926760673523	
34	92.09125900268555	movie	1		301.0	32.0	2.5	/experiments/knapen_aot/videos/R_S_yt-b29VtKvlnWE_430.mp4	0.0	191.70129203796387	2.5079081058502197
34	94.59916710853577	fix_post	2		12.0	32.0	2.5	/experiments/knapen_aot/videos/R_S_yt-b29VtKvlnWE_430.mp4	0.0	194.2092001438141	0.1000669002532959
35	94.69923400878906	fix_pre	0		30.0	33.0	2.5	/experiments/knapen_aot/videos/S_comp_LA_A005_C009_PSNK_ALT_v09_SDR_PS_201809134_SDR_2K_AVC.mp4	0.0	194.30926704406738	0.24993896484375
35	94.93334817886353	response	0	2		33.0	2.5	/experiments/knapen_aot/videos/S_comp_LA_A005_C009_PSNK_ALT_v09_SDR_PS_201809134_SDR_2K_AVC.mp4	0.0	194.54338121414185	
35	94.94917297363281	movie	1		172.0	33.0	2.5	/experiments/knapen_aot/videos/S_comp_LA_A005_C009_PSNK_ALT_v09_SDR_PS_201809134_SDR_2K_AVC.mp4	0.0	194.55920600891113	2.5083751678466797
35	97.45754814147949	fix_post	2		12.0	33.0	2.5	/experiments/knapen_aot/videos/S_comp_LA_A005_C009_PSNK_ALT_v09_SDR_PS_201809134_SDR_2K_AVC.mp4	0.0	197.0675811767578	0.09994196891784668
36	97.55749011039734	fix_pre	0		17.0	34.0	2.5	/experiments/knapen_aot/videos/R_S_Pexels_Videos_2376809.mp4	0.0	197.16752314567566	0.1416759490966797
36	97.69096899032593	response	0	2		34.0	2.5	/experiments/knapen_aot/videos/R_S_Pexels_Videos_2376809.mp4	0.0	197.30100202560425	
36	97.69916605949402	movie	1		164.0	34.0	2.5	/experiments/knapen_aot/videos/R_S_Pexels_Videos_2376809.mp4	0.0	197.30919909477234	2.5083320140838623
36	100.20749807357788	fix_post	2		12.0	34.0	2.5	/experiments/knapen_aot/videos/R_S_Pexels_Videos_2376809.mp4	0.0	199.8175311088562	0.09998798370361328
37	100.3074860572815	fix_pre	0		15.0	35.0	2.5	blank	1.0	199.91751909255981	0.12499594688415527
37	100.42427611351013	response	0	2		35.0	2.5	blank	1.0	200.03430914878845	
37	100.43248200416565	movie	1		301.0	35.0	2.5	blank	1.0	200.04251503944397	2.508303165435791
37	102.94078516960144	fix_post	2		12.0	35.0	2.5	blank	1.0	202.55081820487976	0.10006499290466309
38	103.0408501625061	fix_pre	0		22.0	36.0	2.5	/experiments/knapen_aot/videos/S_yt-8QCcmqaEMPI_16.mp4	0.0	202.65088319778442	0.1833209991455078
38	103.21590209007263	response	0	2		36.0	2.5	/experiments/knapen_aot/videos/S_yt-8QCcmqaEMPI_16.mp4	0.0	202.82593512535095	
38	103.22417116165161	movie	1		301.0	36.0	2.5	/experiments/knapen_aot/videos/S_yt-8QCcmqaEMPI_16.mp4	0.0	202.83420419692993	2.5083529949188232
38	105.73252415657043	fix_post	2		12.0	36.0	2.5	/experiments/knapen_aot/videos/S_yt-8QCcmqaEMPI_16.mp4	0.0	205.34255719184875	0.10004782676696777
39	105.8325719833374	fix_pre	0		16.0	37.0	2.5	/experiments/knapen_aot/videos/R_S_yt-b29VtKvlnWE_430.mp4	0.0	205.44260501861572	0.1335279941558838
39	105.9576210975647	response	0	2		37.0	2.5	/experiments/knapen_aot/videos/R_S_yt-b29VtKvlnWE_430.mp4	0.0	205.56765413284302	
39	105.96609997749329	movie	1		301.0	37.0	2.5	/experiments/knapen_aot/videos/R_S_yt-b29VtKvlnWE_430.mp4	0.0	205.5761330127716	2.5080621242523193
39	108.4741621017456	fix_post	2		12.0	37.0	2.5	/experiments/knapen_aot/videos/R_S_yt-b29VtKvlnWE_430.mp4	0.0	208.08419513702393	0.1001439094543457
40	108.57430601119995	fix_pre	0		13.0	38.0	2.5	/experiments/knapen_aot/videos/R_S_yt-SS7pSyb0_d0_32.mp4	0.0	208.18433904647827	0.1081230640411377
40	108.67410516738892	response	0	2		38.0	2.5	/experiments/knapen_aot/videos/R_S_yt-SS7pSyb0_d0_32.mp4	0.0	208.28413820266724	
40	108.68242907524109	movie	1		301.0	38.0	2.5	/experiments/knapen_aot/videos/R_S_yt-SS7pSyb0_d0_32.mp4	0.0	208.2924621105194	2.508349895477295
40	111.19077897071838	fix_post	2		12.0	38.0	2.5	/experiments/knapen_aot/videos/R_S_yt-SS7pSyb0_d0_32.mp4	0.0	210.8008120059967	0.10012316703796387
41	111.29090213775635	fix_pre	0		8.0	39.0	2.5	/experiments/knapen_aot/videos/S_yt-jcuaf9iSEkI_169.mp4	0.0	210.90093517303467	0.0665140151977539
41	111.34916019439697	response	0	2		39.0	2.5	/experiments/knapen_aot/videos/S_yt-jcuaf9iSEkI_169.mp4	0.0	210.9591932296753	
41	111.3574161529541	movie	1		301.0	39.0	2.5	/experiments/knapen_aot/videos/S_yt-jcuaf9iSEkI_169.mp4	0.0	210.96744918823242	2.5084149837493896
41	113.86583113670349	fix_post	2		12.0	39.0	2.5	/experiments/knapen_aot/videos/S_yt-jcuaf9iSEkI_169.mp4	0.0	213.4758641719818	0.10070490837097168
42	113.96653604507446	fix_pre	0		3.0	40.0	2.5	/experiments/knapen_aot/videos/S_yt-K0CzoUy_uIA_22.mp4	0.0	213.57656908035278	0.02424311637878418
42	113.98254919052124	response	0	2		40.0	2.5	/experiments/knapen_aot/videos/S_yt-K0CzoUy_uIA_22.mp4	0.0	213.59258222579956	
42	113.99077916145325	movie	1		301.0	40.0	2.5	/experiments/knapen_aot/videos/S_yt-K0CzoUy_uIA_22.mp4	0.0	213.60081219673157	2.508316993713379
42	116.49909615516663	fix_post	2		12.0	40.0	2.5	/experiments/knapen_aot/videos/S_yt-K0CzoUy_uIA_22.mp4	0.0	216.10912919044495	0.0999610424041748
43	116.5990571975708	fix_pre	0		20.0	41.0	2.5	blank	1.0	216.20909023284912	0.16665387153625488
43	116.7574851512909	response	0	2		41.0	2.5	blank	1.0	216.3675181865692	
43	116.76571106910706	movie	1		301.0	41.0	2.5	blank	1.0	216.37574410438538	2.508349895477295
43	119.27406096458435	fix_post	2		12.0	41.0	2.5	blank	1.0	218.88409399986267	0.10000109672546387
44	119.37406206130981	fix_pre	0		27.0	42.0	2.5	/experiments/knapen_aot/videos/S_production_ID_4325506.mp4	0.0	218.98409509658813	0.2248859405517578
44	119.5908420085907	response	0	2		42.0	2.5	/experiments/knapen_aot/videos/S_production_ID_4325506.mp4	0.0	219.20087504386902	
44	119.59894800186157	movie	1		193.0	42.0	2.5	/experiments/knapen_aot/videos/S_production_ID_4325506.mp4	0.0	219.2089810371399	2.5085830688476562
44	122.10753107070923	fix_post	2		12.0	42.0	2.5	/experiments/knapen_aot/videos/S_production_ID_4325506.mp4	0.0	221.71756410598755	0.09990310668945312
45	122.20743417739868	fix_pre	0		2.0	43.0	2.5	/experiments/knapen_aot/videos/S_yt-SgiTZNjCPCo_19.mp4	0.0	221.817467212677	0.01662898063659668
45	122.21654200553894	response	0	2		43.0	2.5	/experiments/knapen_aot/videos/S_yt-SgiTZNjCPCo_19.mp4	0.0	221.82657504081726	
45	122.22406315803528	movie	1		301.0	43.0	2.5	/experiments/knapen_aot/videos/S_yt-SgiTZNjCPCo_19.mp4	0.0	221.8340961933136	2.508312940597534
45	124.73237609863281	fix_post	2		12.0	43.0	2.5	/experiments/knapen_aot/videos/S_yt-SgiTZNjCPCo_19.mp4	0.0	224.34240913391113	0.0999910831451416
46	124.83236718177795	fix_pre	0		10.0	44.0	2.5	/experiments/knapen_aot/videos/S_yt-NuZy8Rjk4d0_156.mp4	0.0	224.44240021705627	0.08332490921020508
46	124.90742111206055	response	0	2		44.0	2.5	/experiments/knapen_aot/videos/S_yt-NuZy8Rjk4d0_156.mp4	0.0	224.51745414733887	
46	124.91569209098816	movie	1		301.0	44.0	2.5	/experiments/knapen_aot/videos/S_yt-NuZy8Rjk4d0_156.mp4	0.0	224.52572512626648	2.5083069801330566
46	127.42399907112122	fix_post	2		12.0	44.0	2.5	/experiments/knapen_aot/videos/S_yt-NuZy8Rjk4d0_156.mp4	0.0	227.03403210639954	0.10006308555603027
47	127.52406215667725	fix_pre	0		2.0	45.0	2.5	/experiments/knapen_aot/videos/R_S_yt-O_6CyqHeJig_132.mp4	0.0	227.13409519195557	0.018379926681518555
47	127.53251814842224	response	0	2		45.0	2.5	/experiments/knapen_aot/videos/R_S_yt-O_6CyqHeJig_132.mp4	0.0	227.14255118370056	
47	127.54244208335876	movie	1		301.0	45.0	2.5	/experiments/knapen_aot/videos/R_S_yt-O_6CyqHeJig_132.mp4	0.0	227.15247511863708	2.5067009925842285
47	130.049143075943	fix_post	2		12.0	45.0	2.5	/experiments/knapen_aot/videos/R_S_yt-O_6CyqHeJig_132.mp4	0.0	229.6591761112213	0.09991192817687988
48	130.14905500411987	fix_pre	0		9.0	46.0	2.5	/experiments/knapen_aot/videos/R_S_yt-14tjqjjjAEI_15.mp4	0.0	229.7590880393982	0.07491803169250488
48	130.215744972229	response	0	2		46.0	2.5	/experiments/knapen_aot/videos/R_S_yt-14tjqjjjAEI_15.mp4	0.0	229.82577800750732	
48	130.22397303581238	movie	1		301.0	46.0	2.5	/experiments/knapen_aot/videos/R_S_yt-14tjqjjjAEI_15.mp4	0.0	229.8340060710907	2.508389949798584
48	132.73236298561096	fix_post	2		12.0	46.0	2.5	/experiments/knapen_aot/videos/R_S_yt-14tjqjjjAEI_15.mp4	0.0	232.34239602088928	0.10006117820739746
49	132.83242416381836	fix_pre	0		21.0	47.0	2.5	blank	1.0	232.44245719909668	0.17521286010742188
49	132.9991180896759	response	0	2		47.0	2.5	blank	1.0	232.60915112495422	
49	133.00763702392578	movie	1		301.0	47.0	2.5	blank	1.0	232.6176700592041	2.508018970489502
49	135.51565599441528	fix_post	2		12.0	47.0	2.5	blank	1.0	235.1256890296936	0.10003209114074707
50	135.61568808555603	fix_pre	0		24.0	48.0	2.5	/experiments/knapen_aot/videos/S_comp_LW_L001_C006_PSNK_DENOISE_v02_SDR_PS_FINAL_20180709_SDR_2K_AVC.mp4	0.0	235.22572112083435	0.19992804527282715
50	135.80743503570557	response	0	2		48.0	2.5	/experiments/knapen_aot/videos/S_comp_LW_L001_C006_PSNK_DENOISE_v02_SDR_PS_FINAL_20180709_SDR_2K_AVC.mp4	0.0	235.4174680709839	
50	135.81561613082886	movie	1		163.0	48.0	2.5	/experiments/knapen_aot/videos/S_comp_LW_L001_C006_PSNK_DENOISE_v02_SDR_PS_FINAL_20180709_SDR_2K_AVC.mp4	0.0	235.42564916610718	2.508405923843384
50	138.32402205467224	fix_post	2		12.0	48.0	2.5	/experiments/knapen_aot/videos/S_comp_LW_L001_C006_PSNK_DENOISE_v02_SDR_PS_FINAL_20180709_SDR_2K_AVC.mp4	0.0	237.93405508995056	0.10022306442260742
51	138.42424511909485	fix_pre	0		9.0	49.0	2.5	/experiments/knapen_aot/videos/S_ILSVRC2015_train_00165013.mp4	0.0	238.03427815437317	0.07469892501831055
51	138.490727186203	response	0	2		49.0	2.5	/experiments/knapen_aot/videos/S_ILSVRC2015_train_00165013.mp4	0.0	238.10076022148132	
51	138.49894404411316	movie	1		301.0	49.0	2.5	/experiments/knapen_aot/videos/S_ILSVRC2015_train_00165013.mp4	0.0	238.10897707939148	2.50838303565979
51	141.00732707977295	fix_post	2		12.0	49.0	2.5	/experiments/knapen_aot/videos/S_ILSVRC2015_train_00165013.mp4	0.0	240.61736011505127	0.10019898414611816
52	141.10752606391907	fix_pre	0		2.0	50.0	2.5	/experiments/knapen_aot/videos/R_S_ILSVRC2015_train_00251005.mp4	0.0	240.7175590991974	0.016546964645385742
52	141.11576914787292	response	0	2		50.0	2.5	/experiments/knapen_aot/videos/R_S_ILSVRC2015_train_00251005.mp4	0.0	240.72580218315125	
52	141.12407302856445	movie	1		301.0	50.0	2.5	/experiments/knapen_aot/videos/R_S_ILSVRC2015_train_00251005.mp4	0.0	240.73410606384277	2.5082571506500244
52	143.63233017921448	fix_post	2		12.0	50.0	2.5	/experiments/knapen_aot/videos/R_S_ILSVRC2015_train_00251005.mp4	0.0	243.2423632144928	0.09998393058776855
53	143.73231410980225	fix_pre	0		30.0	51.0	2.5	/experiments/knapen_aot/videos/R_S_yt-SHTeTAnZgho_43.mp4	0.0	243.34234714508057	0.2498328685760498
53	143.97408413887024	response	0	2		51.0	2.5	/experiments/knapen_aot/videos/R_S_yt-SHTeTAnZgho_43.mp4	0.0	243.58411717414856	
53	143.9821469783783	movie	1		301.0	51.0	2.5	/experiments/knapen_aot/videos/R_S_yt-SHTeTAnZgho_43.mp4	0.0	243.59218001365662	2.5084919929504395
53	146.49063897132874	fix_post	2		12.0	51.0	2.5	/experiments/knapen_aot/videos/R_S_yt-SHTeTAnZgho_43.mp4	0.0	246.10067200660706	0.10014104843139648
54	146.59078001976013	fix_pre	0		34.0	52.0	2.5	/experiments/knapen_aot/videos/R_S_yt-fk-z6WCvjjA_3.mp4	0.0	246.20081305503845	0.2831230163574219
54	146.8656620979309	response	0	2		52.0	2.5	/experiments/knapen_aot/videos/R_S_yt-fk-z6WCvjjA_3.mp4	0.0	246.47569513320923	
54	146.87390303611755	movie	1		301.0	52.0	2.5	/experiments/knapen_aot/videos/R_S_yt-fk-z6WCvjjA_3.mp4	0.0	246.48393607139587	2.508545160293579
54	149.38244819641113	fix_post	2		12.0	52.0	2.5	/experiments/knapen_aot/videos/R_S_yt-fk-z6WCvjjA_3.mp4	0.0	248.99248123168945	0.09976577758789062
55	149.48221397399902	fix_pre	0		47.0	53.0	2.5	/experiments/knapen_aot/videos/S_yt-fk-z6WCvjjA_3.mp4	0.0	249.09224700927734	0.39169812202453613
55	149.86567497253418	response	0	2		53.0	2.5	/experiments/knapen_aot/videos/S_yt-fk-z6WCvjjA_3.mp4	0.0	249.4757080078125	
55	149.87391209602356	movie	1		301.0	53.0	2.5	/experiments/knapen_aot/videos/S_yt-fk-z6WCvjjA_3.mp4	0.0	249.48394513130188	2.508512020111084
55	152.38242411613464	fix_post	2		12.0	53.0	2.5	/experiments/knapen_aot/videos/S_yt-fk-z6WCvjjA_3.mp4	0.0	251.99245715141296	0.09986400604248047
56	152.48228812217712	fix_pre	0		36.0	54.0	2.5	/experiments/knapen_aot/videos/R_S_yt-uT4MXm0UBJM_64.mp4	0.0	252.09232115745544	0.2999110221862793
56	152.7740180492401	response	0	2		54.0	2.5	/experiments/knapen_aot/videos/R_S_yt-uT4MXm0UBJM_64.mp4	0.0	252.38405108451843	
56	152.7821991443634	movie	1		301.0	54.0	2.5	/experiments/knapen_aot/videos/R_S_yt-uT4MXm0UBJM_64.mp4	0.0	252.39223217964172	2.508354902267456
56	155.29055404663086	fix_post	2		12.0	54.0	2.5	/experiments/knapen_aot/videos/R_S_yt-uT4MXm0UBJM_64.mp4	0.0	254.90058708190918	0.10004115104675293
57	155.3905951976776	fix_pre	0		49.0	55.0	2.5	/experiments/knapen_aot/videos/S_yt-ebajhZwlVJM_32.mp4	0.0	255.00062823295593	0.40836095809936523
57	155.79068207740784	response	0	2		55.0	2.5	/experiments/knapen_aot/videos/S_yt-ebajhZwlVJM_32.mp4	0.0	255.40071511268616	
57	155.79895615577698	movie	1		301.0	55.0	2.5	/experiments/knapen_aot/videos/S_yt-ebajhZwlVJM_32.mp4	0.0	255.4089891910553	2.5082828998565674
57	158.30723905563354	fix_post	2		12.0	55.0	2.5	/experiments/knapen_aot/videos/S_yt-ebajhZwlVJM_32.mp4	0.0	257.91727209091187	0.09993600845336914
58	158.4071750640869	fix_pre	0		60.0	56.0	2.5	blank	1.0	258.01720809936523	0.5000200271606445
58	158.898992061615	response	0	2		56.0	2.5	blank	1.0	258.5090250968933	
58	158.90719509124756	movie	1		301.0	56.0	2.5	blank	1.0	258.5172281265259	2.5084500312805176
58	161.41564512252808	fix_post	2		12.0	56.0	2.5	blank	1.0	261.0256781578064	0.09990596771240234
59	161.51555109024048	fix_pre	0		43.0	57.0	2.5	/experiments/knapen_aot/videos/S_yt-bmGWhOCsvJo_128.mp4	0.0	261.1255841255188	0.358273983001709
59	161.86580896377563	response	0	2		57.0	2.5	/experiments/knapen_aot/videos/S_yt-bmGWhOCsvJo_128.mp4	0.0	261.47584199905396	
59	161.8738250732422	movie	1		301.0	57.0	2.5	/experiments/knapen_aot/videos/S_yt-bmGWhOCsvJo_128.mp4	0.0	261.4838581085205	2.5084500312805176
59	164.3822751045227	fix_post	2		12.0	57.0	2.5	/experiments/knapen_aot/videos/S_yt-bmGWhOCsvJo_128.mp4	0.0	263.992308139801	0.09995508193969727
60	164.4822301864624	fix_pre	0		37.0	58.0	2.5	/experiments/knapen_aot/videos/S_yt-5doJmCcFL7s_3.mp4	0.0	264.0922632217407	0.3082849979400635
60	164.78236603736877	response	0	2		58.0	2.5	/experiments/knapen_aot/videos/S_yt-5doJmCcFL7s_3.mp4	0.0	264.3923990726471	
60	164.79051518440247	movie	1		301.0	58.0	2.5	/experiments/knapen_aot/videos/S_yt-5doJmCcFL7s_3.mp4	0.0	264.4005482196808	2.5085179805755615
60	167.29903316497803	fix_post	2		12.0	58.0	2.5	/experiments/knapen_aot/videos/S_yt-5doJmCcFL7s_3.mp4	0.0	266.90906620025635	0.09992790222167969
61	167.3989610671997	fix_pre	0		14.0	59.0	2.5	/experiments/knapen_aot/videos/S_yt-mDil5vGZb14_4049.mp4	0.0	267.008994102478	0.11654901504516602
61	167.50732111930847	response	0	2		59.0	2.5	/experiments/knapen_aot/videos/S_yt-mDil5vGZb14_4049.mp4	0.0	267.1173541545868	
61	167.51551008224487	movie	1		301.0	59.0	2.5	/experiments/knapen_aot/videos/S_yt-mDil5vGZb14_4049.mp4	0.0	267.1255431175232	2.508424997329712
61	170.02393507957458	fix_post	2		12.0	59.0	2.5	/experiments/knapen_aot/videos/S_yt-mDil5vGZb14_4049.mp4	0.0	269.6339681148529	0.09994006156921387
62	170.1238751411438	fix_pre	0		27.0	60.0	2.5	/experiments/knapen_aot/videos/S_ILSVRC2015_train_00743001.mp4	0.0	269.7339081764221	0.22495293617248535
62	170.34062218666077	response	0	2		60.0	2.5	/experiments/knapen_aot/videos/S_ILSVRC2015_train_00743001.mp4	0.0	269.9506552219391	
62	170.34882807731628	movie	1		301.0	60.0	2.5	/experiments/knapen_aot/videos/S_ILSVRC2015_train_00743001.mp4	0.0	269.9588611125946	2.508310079574585
62	172.85713815689087	fix_post	2		12.0	60.0	2.5	/experiments/knapen_aot/videos/S_ILSVRC2015_train_00743001.mp4	0.0	272.4671711921692	0.10003781318664551
63	172.95717597007751	fix_pre	0		16.0	61.0	2.5	/experiments/knapen_aot/videos/R_S_production_ID_4101309.mp4	0.0	272.56720900535583	0.13329315185546875
63	173.08224606513977	response	0	2		61.0	2.5	/experiments/knapen_aot/videos/R_S_production_ID_4101309.mp4	0.0	272.6922791004181	
63	173.09046912193298	movie	1		209.0	61.0	2.5	/experiments/knapen_aot/videos/R_S_production_ID_4101309.mp4	0.0	272.7005021572113	2.5083799362182617
63	175.59884905815125	fix_post	2		12.0	61.0	2.5	/experiments/knapen_aot/videos/R_S_production_ID_4101309.mp4	0.0	275.20888209342957	0.09997105598449707
64	175.69882011413574	fix_pre	0		27.0	62.0	2.5	blank	1.0	275.30885314941406	0.2250809669494629
64	175.91557908058167	response	0	2		62.0	2.5	blank	1.0	275.52561211586	
64	175.9239010810852	movie	1		301.0	62.0	2.5	blank	1.0	275.5339341163635	2.508251905441284
64	178.4321529865265	fix_post	2		12.0	62.0	2.5	blank	1.0	278.0421860218048	0.10002303123474121
65	178.53217601776123	fix_pre	0		145.0	63.0	2.5	/experiments/knapen_aot/videos/S_ILSVRC2015_train_00371006.mp4	0.0	278.14220905303955	1.2082810401916504
65	179.72475409507751	response	0	2		63.0	2.5	/experiments/knapen_aot/videos/S_ILSVRC2015_train_00371006.mp4	0.0	279.33478713035583	
65	179.74045705795288	movie	1		301.0	63.0	2.5	/experiments/knapen_aot/videos/S_ILSVRC2015_train_00371006.mp4	0.0	279.3504900932312	2.508254051208496
65	182.24871110916138	fix_post	2		12.0	63.0	2.5	/experiments/knapen_aot/videos/S_ILSVRC2015_train_00371006.mp4	0.0	281.8587441444397	0.10012102127075195
66	182.34883213043213	fix_pre	0		20.0	64.0	2.5	/experiments/knapen_aot/videos/S_flickr-clarkstonscamp-4863427159_1.mp4	0.0	281.95886516571045	0.16657590866088867
66	182.50720500946045	response	0	2		64.0	2.5	/experiments/knapen_aot/videos/S_flickr-clarkstonscamp-4863427159_1.mp4	0.0	282.11723804473877	
66	182.51540803909302	movie	1		301.0	64.0	2.5	/experiments/knapen_aot/videos/S_flickr-clarkstonscamp-4863427159_1.mp4	0.0	282.12544107437134	2.5084540843963623
66	185.02386212348938	fix_post	2		12.0	64.0	2.5	/experiments/knapen_aot/videos/S_flickr-clarkstonscamp-4863427159_1.mp4	0.0	284.6338951587677	0.09984803199768066
67	185.12371015548706	fix_pre	0		8.0	65.0	2.5	/experiments/knapen_aot/videos/R_S_yt-8N5UuN5WQcY_72.mp4	0.0	284.7337431907654	0.06673598289489746
67	185.18223309516907	response	0	2		65.0	2.5	/experiments/knapen_aot/videos/R_S_yt-8N5UuN5WQcY_72.mp4	0.0	284.7922661304474	
67	185.19044613838196	movie	1		301.0	65.0	2.5	/experiments/knapen_aot/videos/R_S_yt-8N5UuN5WQcY_72.mp4	0.0	284.8004791736603	2.508316993713379
67	187.69876313209534	fix_post	2		12.0	65.0	2.5	/experiments/knapen_aot/videos/R_S_yt-8N5UuN5WQcY_72.mp4	0.0	287.30879616737366	0.10000491142272949
68	187.79876804351807	fix_pre	0		19.0	66.0	2.5	/experiments/knapen_aot/videos/R_S_DV6V38rplag_215.mp4	0.0	287.4088010787964	0.15840697288513184
68	187.94878005981445	response	0	2		66.0	2.5	/experiments/knapen_aot/videos/R_S_DV6V38rplag_215.mp4	0.0	287.5588130950928	
68	187.9571750164032	movie	1		301.0	66.0	2.5	/experiments/knapen_aot/videos/R_S_DV6V38rplag_215.mp4	0.0	287.5672080516815	2.5082550048828125
68	190.465430021286	fix_post	2		12.0	66.0	2.5	/experiments/knapen_aot/videos/R_S_DV6V38rplag_215.mp4	0.0	290.07546305656433	0.09998202323913574
69	190.56541204452515	fix_pre	0		10.0	67.0	2.5	/experiments/knapen_aot/videos/R_S_P005_C002_UHD_SDR_2K_AVC.mp4	0.0	290.17544507980347	0.08329415321350098
69	190.64058899879456	response	0	2		67.0	2.5	/experiments/knapen_aot/videos/R_S_P005_C002_UHD_SDR_2K_AVC.mp4	0.0	290.2506220340729	
69	190.64870619773865	movie	1		169.0	67.0	2.5	/experiments/knapen_aot/videos/R_S_P005_C002_UHD_SDR_2K_AVC.mp4	0.0	290.25873923301697	2.508297920227051
69	193.1570041179657	fix_post	2		12.0	67.0	2.5	/experiments/knapen_aot/videos/R_S_P005_C002_UHD_SDR_2K_AVC.mp4	0.0	292.767037153244	0.10006999969482422
69	193.16682815551758	response	2	2		67.0	2.5	/experiments/knapen_aot/videos/R_S_P005_C002_UHD_SDR_2K_AVC.mp4	0.0	292.7768611907959	
70	193.25707411766052	fix_pre	0		37.0	68.0	2.5	/experiments/knapen_aot/videos/S_yt-SHTeTAnZgho_43.mp4	0.0	292.86710715293884	0.3082718849182129
70	193.5572531223297	response	0	2		68.0	2.5	/experiments/knapen_aot/videos/S_yt-SHTeTAnZgho_43.mp4	0.0	293.16728615760803	
70	193.56534600257874	movie	1		301.0	68.0	2.5	/experiments/knapen_aot/videos/S_yt-SHTeTAnZgho_43.mp4	0.0	293.17537903785706	2.5083720684051514
70	196.0737180709839	fix_post	2		12.0	68.0	2.5	/experiments/knapen_aot/videos/S_yt-SHTeTAnZgho_43.mp4	0.0	295.6837511062622	0.10003209114074707
71	196.17375016212463	fix_pre	0		8.0	69.0	2.5	blank	1.0	295.78378319740295	0.06660890579223633
71	196.2247931957245	response	0	2		69.0	2.5	blank	1.0	295.8348262310028	
71	196.24035906791687	movie	1		301.0	69.0	2.5	blank	1.0	295.8503921031952	2.5083301067352295
71	198.7486891746521	fix_post	2		12.0	69.0	2.5	blank	1.0	298.3587222099304	0.10029482841491699
72	198.84898400306702	fix_pre	0		29.0	70.0	2.5	/experiments/knapen_aot/videos/S_yt-kXarkCFJLeg_46.mp4	0.0	298.45901703834534	0.2413160800933838
72	199.08219504356384	response	0	2		70.0	2.5	/experiments/knapen_aot/videos/S_yt-kXarkCFJLeg_46.mp4	0.0	298.69222807884216	
72	199.0903000831604	movie	1		301.0	70.0	2.5	/experiments/knapen_aot/videos/S_yt-kXarkCFJLeg_46.mp4	0.0	298.7003331184387	2.5084030628204346
72	201.59870314598083	fix_post	2		12.0	70.0	2.5	/experiments/knapen_aot/videos/S_yt-kXarkCFJLeg_46.mp4	0.0	301.20873618125916	0.10000205039978027
73	201.69870519638062	fix_pre	0		25.0	71.0	2.5	/experiments/knapen_aot/videos/S_yt-3E02UEHdoZ4_752.mp4	0.0	301.30873823165894	0.2082657814025879
73	201.89122819900513	response	0	2		71.0	2.5	/experiments/knapen_aot/videos/S_yt-3E02UEHdoZ4_752.mp4	0.0	301.50126123428345	
73	201.9069709777832	movie	1		301.0	71.0	2.5	/experiments/knapen_aot/videos/S_yt-3E02UEHdoZ4_752.mp4	0.0	301.5170040130615	2.5083651542663574
73	204.41533613204956	fix_post	2		12.0	71.0	2.5	/experiments/knapen_aot/videos/S_yt-3E02UEHdoZ4_752.mp4	0.0	304.0253691673279	0.10002398490905762
74	204.51536011695862	fix_pre	0		18.0	72.0	2.5	/experiments/knapen_aot/videos/S_yt-ROhKDdF1gV4_21.mp4	0.0	304.12539315223694	0.14997196197509766
74	204.6571409702301	response	0	2		72.0	2.5	/experiments/knapen_aot/videos/S_yt-ROhKDdF1gV4_21.mp4	0.0	304.2671740055084	
74	204.66533207893372	movie	1		301.0	72.0	2.5	/experiments/knapen_aot/videos/S_yt-ROhKDdF1gV4_21.mp4	0.0	304.27536511421204	2.5084080696105957
74	207.1737401485443	fix_post	2		12.0	72.0	2.5	/experiments/knapen_aot/videos/S_yt-ROhKDdF1gV4_21.mp4	0.0	306.78377318382263	0.10031890869140625
75	207.27405905723572	fix_pre	0		10.0	73.0	2.5	/experiments/knapen_aot/videos/R_S_yt-s2tZ2NIQrxg_175.mp4	0.0	306.88409209251404	0.08288693428039551
75	207.34872198104858	response	0	2		73.0	2.5	/experiments/knapen_aot/videos/R_S_yt-s2tZ2NIQrxg_175.mp4	0.0	306.9587550163269	
75	207.3569459915161	movie	1		301.0	73.0	2.5	/experiments/knapen_aot/videos/R_S_yt-s2tZ2NIQrxg_175.mp4	0.0	306.96697902679443	2.508333206176758
75	209.86527919769287	fix_post	2		12.0	73.0	2.5	/experiments/knapen_aot/videos/R_S_yt-s2tZ2NIQrxg_175.mp4	0.0	309.4753122329712	0.10015296936035156
76	209.96543216705322	fix_pre	0		7.0	74.0	2.5	/experiments/knapen_aot/videos/S_production_ID_4428752.mp4	0.0	309.57546520233154	0.058290958404541016
76	210.01547408103943	response	0	2		74.0	2.5	/experiments/knapen_aot/videos/S_production_ID_4428752.mp4	0.0	309.62550711631775	
76	210.02372312545776	movie	1		164.0	74.0	2.5	/experiments/knapen_aot/videos/S_production_ID_4428752.mp4	0.0	309.6337561607361	2.50827693939209
76	212.53200006484985	fix_post	2		12.0	74.0	2.5	/experiments/knapen_aot/videos/S_production_ID_4428752.mp4	0.0	312.1420331001282	0.10001993179321289
77	212.63201999664307	fix_pre	0		8.0	75.0	2.5	/experiments/knapen_aot/videos/S_yt-W4Shvmb1JYs_258.mp4	0.0	312.2420530319214	0.06659913063049316
77	212.6903691291809	response	0	2		75.0	2.5	/experiments/knapen_aot/videos/S_yt-W4Shvmb1JYs_258.mp4	0.0	312.30040216445923	
77	212.69861912727356	movie	1		301.0	75.0	2.5	/experiments/knapen_aot/videos/S_yt-W4Shvmb1JYs_258.mp4	0.0	312.3086521625519	2.508352041244507
77	215.12375116348267	response	1	2		75.0	2.5	/experiments/knapen_aot/videos/S_yt-W4Shvmb1JYs_258.mp4	0.0	314.733784198761	
77	215.20697116851807	fix_post	2		12.0	75.0	2.5	/experiments/knapen_aot/videos/S_yt-W4Shvmb1JYs_258.mp4	0.0	314.8170042037964	0.09999585151672363
78	215.3069670200348	fix_pre	0		31.0	76.0	2.5	/experiments/knapen_aot/videos/R_S_yt-H45g6700wbc_159.mp4	0.0	314.9170000553131	0.25830602645874023
78	215.55709218978882	response	0	2		76.0	2.5	/experiments/knapen_aot/videos/R_S_yt-H45g6700wbc_159.mp4	0.0	315.16712522506714	
78	215.56527304649353	movie	1		301.0	76.0	2.5	/experiments/knapen_aot/videos/R_S_yt-H45g6700wbc_159.mp4	0.0	315.17530608177185	2.5083580017089844
78	218.07363104820251	fix_post	2		12.0	76.0	2.5	/experiments/knapen_aot/videos/R_S_yt-H45g6700wbc_159.mp4	0.0	317.68366408348083	0.10000991821289062
79	218.1736409664154	fix_pre	0		61.0	77.0	2.5	blank	1.0	317.7836740016937	0.508209228515625
79	218.67376899719238	response	0	2		77.0	2.5	blank	1.0	318.2838020324707	
79	218.68185019493103	movie	1		301.0	77.0	2.5	blank	1.0	318.29188323020935	2.508478879928589
79	221.19032907485962	fix_post	2		12.0	77.0	2.5	blank	1.0	320.80036211013794	0.09999704360961914
80	221.29032611846924	fix_pre	0		31.0	78.0	2.5	/experiments/knapen_aot/videos/S_yt-9aKqMX9IHPg_242.mp4	0.0	320.90035915374756	0.25826501846313477
80	221.540381193161	response	0	2		78.0	2.5	/experiments/knapen_aot/videos/S_yt-9aKqMX9IHPg_242.mp4	0.0	321.15041422843933	
80	221.54859113693237	movie	1		301.0	78.0	2.5	/experiments/knapen_aot/videos/S_yt-9aKqMX9IHPg_242.mp4	0.0	321.1586241722107	2.5083999633789062
80	223.99046111106873	response	1	2		78.0	2.5	/experiments/knapen_aot/videos/S_yt-9aKqMX9IHPg_242.mp4	0.0	323.60049414634705	
80	224.05699110031128	fix_post	2		12.0	78.0	2.5	/experiments/knapen_aot/videos/S_yt-9aKqMX9IHPg_242.mp4	0.0	323.6670241355896	0.10015702247619629
81	224.15714812278748	fix_pre	0		29.0	79.0	2.5	/experiments/knapen_aot/videos/S_ILSVRC2015_train_00251005.mp4	0.0	323.7671811580658	0.24142694473266602
81	224.39045119285583	response	0	2		79.0	2.5	/experiments/knapen_aot/videos/S_ILSVRC2015_train_00251005.mp4	0.0	324.00048422813416	
81	224.39857506752014	movie	1		301.0	79.0	2.5	/experiments/knapen_aot/videos/S_ILSVRC2015_train_00251005.mp4	0.0	324.00860810279846	2.508439064025879
81	226.90701413154602	fix_post	2		12.0	79.0	2.5	/experiments/knapen_aot/videos/S_ILSVRC2015_train_00251005.mp4	0.0	326.51704716682434	0.10014605522155762
82	227.00716018676758	fix_pre	0		16.0	80.0	2.5	/experiments/knapen_aot/videos/R_S_MEX_A006_C008_SDR_20190923_SDR_2K_AVC.mp4	0.0	326.6171932220459	0.13312983512878418
82	227.132098197937	response	0	2		80.0	2.5	/experiments/knapen_aot/videos/R_S_MEX_A006_C008_SDR_20190923_SDR_2K_AVC.mp4	0.0	326.74213123321533	
82	227.14029002189636	movie	1		166.0	80.0	2.5	/experiments/knapen_aot/videos/R_S_MEX_A006_C008_SDR_20190923_SDR_2K_AVC.mp4	0.0	326.7503230571747	2.5085060596466064
82	229.64879608154297	fix_post	2		12.0	80.0	2.5	/experiments/knapen_aot/videos/R_S_MEX_A006_C008_SDR_20190923_SDR_2K_AVC.mp4	0.0	329.2588291168213	0.09980893135070801
83	229.74860501289368	fix_pre	0		12.0	81.0	2.5	/experiments/knapen_aot/videos/S_yt-158C6xUMi5Y_75.mp4	0.0	329.358638048172	0.09992313385009766
83	229.84047603607178	response	0	2		81.0	2.5	/experiments/knapen_aot/videos/S_yt-158C6xUMi5Y_75.mp4	0.0	329.4505090713501	
83	229.84852814674377	movie	1		301.0	81.0	2.5	/experiments/knapen_aot/videos/S_yt-158C6xUMi5Y_75.mp4	0.0	329.4585611820221	2.5083978176116943
83	232.35692596435547	fix_post	2		12.0	81.0	2.5	/experiments/knapen_aot/videos/S_yt-158C6xUMi5Y_75.mp4	0.0	331.9669589996338	0.10000801086425781
84	232.45693397521973	fix_pre	0		13.0	82.0	2.5	/experiments/knapen_aot/videos/R_S_G008_C015_UHD_SDR_2K_AVC.mp4	0.0	332.06696701049805	0.10829710960388184
84	232.55702209472656	response	0	2		82.0	2.5	/experiments/knapen_aot/videos/R_S_G008_C015_UHD_SDR_2K_AVC.mp4	0.0	332.1670551300049	
84	232.5652310848236	movie	1		180.0	82.0	2.5	/experiments/knapen_aot/videos/R_S_G008_C015_UHD_SDR_2K_AVC.mp4	0.0	332.17526412010193	2.508315086364746
84	234.99858713150024	response	1	2		82.0	2.5	/experiments/knapen_aot/videos/R_S_G008_C015_UHD_SDR_2K_AVC.mp4	0.0	334.60862016677856	
84	235.07354617118835	fix_post	2		12.0	82.0	2.5	/experiments/knapen_aot/videos/R_S_G008_C015_UHD_SDR_2K_AVC.mp4	0.0	334.6835792064667	0.10004091262817383
85	235.17358708381653	fix_pre	0		25.0	83.0	2.5	blank	1.0	334.78362011909485	0.2082960605621338
85	235.37362909317017	response	0	2		83.0	2.5	blank	1.0	334.9836621284485	
85	235.38188314437866	movie	1		301.0	83.0	2.5	blank	1.0	334.991916179657	2.508340835571289
85	237.89022397994995	fix_post	2		12.0	83.0	2.5	blank	1.0	337.50025701522827	0.09998011589050293
87	237.99020409584045	stim	0		67.0					337.6002371311188	0.5583009719848633
87	238.54439115524292	response	0	space						338.15442419052124	
