trial_nr	onset	event_type	phase	response	nr_frames	movie_index	movie_duration	movie_file	blank	onset_abs	duration
0	0.12705612182617188	stim	0		41.0					146.83698511123657	0.34050893783569336
0	0.4584040641784668	response	0	space						147.16833305358887	
1	0.46756505966186523	stim	0		121.0					147.17749404907227	1.007093906402588
1	1.4746589660644531	stim	1		120.0					148.18458795547485	1.000014066696167
2	2.47467303276062	fix_pre	0		1.0	0.0	2.5	/experiments/knapen_aot/videos/S_-IkGMlLHrOI_108.mp4	0.0	149.18460202217102	0.008214950561523438
2	2.477705955505371	response	0	space		0.0	2.5	/experiments/knapen_aot/videos/S_-IkGMlLHrOI_108.mp4	0.0	149.18763494491577	
2	2.4828879833221436	movie	1		299.0	0.0	2.5	/experiments/knapen_aot/videos/S_-IkGMlLHrOI_108.mp4	0.0	149.19281697273254	2.508496046066284
2	4.991384029388428	fix_post	2		12.0	0.0	2.5	/experiments/knapen_aot/videos/S_-IkGMlLHrOI_108.mp4	0.0	151.70131301879883	0.09976005554199219
3	5.09114408493042	fix_pre	0		7.0	1.0	2.5	/experiments/knapen_aot/videos/S_yt-xWCPbUQc-vg_7.mp4	0.0	151.80107307434082	0.058328866958618164
3	5.144219160079956	response	0	2		1.0	2.5	/experiments/knapen_aot/videos/S_yt-xWCPbUQc-vg_7.mp4	0.0	151.85414814949036	
3	5.149472951889038	movie	1		299.0	1.0	2.5	/experiments/knapen_aot/videos/S_yt-xWCPbUQc-vg_7.mp4	0.0	151.85940194129944	2.508538007736206
3	7.658010959625244	fix_post	2		12.0	1.0	2.5	/experiments/knapen_aot/videos/S_yt-xWCPbUQc-vg_7.mp4	0.0	154.36793994903564	0.0999751091003418
4	7.757986068725586	fix_pre	0		5.0	2.0	2.5	/experiments/knapen_aot/videos/R_S_yt-zydTlQGCUjQ_277.mp4	0.0	154.467915058136	0.04239392280578613
4	7.791317939758301	response	0	2		2.0	2.5	/experiments/knapen_aot/videos/R_S_yt-zydTlQGCUjQ_277.mp4	0.0	154.5012469291687	
4	7.800379991531372	movie	1		301.0	2.0	2.5	/experiments/knapen_aot/videos/R_S_yt-zydTlQGCUjQ_277.mp4	0.0	154.51030898094177	2.5076210498809814
4	10.308001041412354	fix_post	2		12.0	2.0	2.5	/experiments/knapen_aot/videos/R_S_yt-zydTlQGCUjQ_277.mp4	0.0	157.01793003082275	0.09981203079223633
5	10.40781307220459	fix_pre	0		4.0	3.0	2.5	/experiments/knapen_aot/videos/R_S_yt-Wr5pSPApQDw_235.mp4	0.0	157.117742061615	0.033345937728881836
5	10.432981014251709	response	0	2		3.0	2.5	/experiments/knapen_aot/videos/R_S_yt-Wr5pSPApQDw_235.mp4	0.0	157.1429100036621	
5	10.441159009933472	movie	1		301.0	3.0	2.5	/experiments/knapen_aot/videos/R_S_yt-Wr5pSPApQDw_235.mp4	0.0	157.15108799934387	2.508362054824829
5	12.9495210647583	fix_post	2		12.0	3.0	2.5	/experiments/knapen_aot/videos/R_S_yt-Wr5pSPApQDw_235.mp4	0.0	159.6594500541687	0.09997987747192383
6	13.049500942230225	fix_pre	0		12.0	4.0	2.5	/experiments/knapen_aot/videos/R_S_pexels-tima-miroshnichenko-6077718.mp4	0.0	159.75942993164062	0.0998680591583252
6	13.141337156295776	response	0	2		4.0	2.5	/experiments/knapen_aot/videos/R_S_pexels-tima-miroshnichenko-6077718.mp4	0.0	159.85126614570618	
6	13.14936900138855	movie	1		164.0	4.0	2.5	/experiments/knapen_aot/videos/R_S_pexels-tima-miroshnichenko-6077718.mp4	0.0	159.85929799079895	2.508518934249878
6	15.657887935638428	fix_post	2		12.0	4.0	2.5	/experiments/knapen_aot/videos/R_S_pexels-tima-miroshnichenko-6077718.mp4	0.0	162.36781692504883	0.09992814064025879
6	15.707957983016968	response	2	2		4.0	2.5	/experiments/knapen_aot/videos/R_S_pexels-tima-miroshnichenko-6077718.mp4	0.0	162.41788697242737	
7	15.757816076278687	fix_pre	0		28.0	5.0	2.5	blank	1.0	162.4677450656891	0.23325395584106445
7	15.98285698890686	response	0	2		5.0	2.5	blank	1.0	162.69278597831726	
7	15.991070032119751	movie	1		301.0	5.0	2.5	blank	1.0	162.70099902153015	2.508405923843384
7	18.499475955963135	fix_post	2		12.0	5.0	2.5	blank	1.0	165.20940494537354	0.09998202323913574
8	18.59945797920227	fix_pre	0		18.0	6.0	2.5	/experiments/knapen_aot/videos/R_S_yt-BlWfK4MkjWA_469.mp4	0.0	165.30938696861267	0.1499650478363037
8	18.741191148757935	response	0	2		6.0	2.5	/experiments/knapen_aot/videos/R_S_yt-BlWfK4MkjWA_469.mp4	0.0	165.45112013816833	
8	18.749423027038574	movie	1		301.0	6.0	2.5	/experiments/knapen_aot/videos/R_S_yt-BlWfK4MkjWA_469.mp4	0.0	165.45935201644897	2.508371114730835
8	21.25779414176941	fix_post	2		12.0	6.0	2.5	/experiments/knapen_aot/videos/R_S_yt-BlWfK4MkjWA_469.mp4	0.0	167.9677231311798	0.09998297691345215
9	21.35777711868286	fix_pre	0		9.0	7.0	2.5	/experiments/knapen_aot/videos/S_yt-0bovQBIUZho_15.mp4	0.0	168.06770610809326	0.07498693466186523
9	21.424533128738403	response	0	2		7.0	2.5	/experiments/knapen_aot/videos/S_yt-0bovQBIUZho_15.mp4	0.0	168.1344621181488	
9	21.432764053344727	movie	1		301.0	7.0	2.5	/experiments/knapen_aot/videos/S_yt-0bovQBIUZho_15.mp4	0.0	168.14269304275513	2.5084009170532227
9	23.94116497039795	fix_post	2		12.0	7.0	2.5	/experiments/knapen_aot/videos/S_yt-0bovQBIUZho_15.mp4	0.0	170.65109395980835	0.09996509552001953
10	24.04113006591797	fix_pre	0		11.0	8.0	2.5	/experiments/knapen_aot/videos/S_yt-4rwBpRuHg-c_1308.mp4	0.0	170.75105905532837	0.09234189987182617
10	24.124592065811157	response	0	2		8.0	2.5	/experiments/knapen_aot/videos/S_yt-4rwBpRuHg-c_1308.mp4	0.0	170.83452105522156	
10	24.133471965789795	movie	1		301.0	8.0	2.5	/experiments/knapen_aot/videos/S_yt-4rwBpRuHg-c_1308.mp4	0.0	170.8434009552002	2.507620096206665
10	26.64109206199646	fix_post	2		12.0	8.0	2.5	/experiments/knapen_aot/videos/S_yt-4rwBpRuHg-c_1308.mp4	0.0	173.35102105140686	0.10000491142272949
11	26.74109697341919	fix_pre	0		19.0	9.0	2.5	/experiments/knapen_aot/videos/S_yt-QqSceHxY3d0_356.mp4	0.0	173.4510259628296	0.15830397605895996
11	26.88370704650879	response	0	2		9.0	2.5	/experiments/knapen_aot/videos/S_yt-QqSceHxY3d0_356.mp4	0.0	173.5936360359192	
11	26.89940094947815	movie	1		301.0	9.0	2.5	/experiments/knapen_aot/videos/S_yt-QqSceHxY3d0_356.mp4	0.0	173.60932993888855	2.50852108001709
11	29.40792202949524	fix_post	2		12.0	9.0	2.5	/experiments/knapen_aot/videos/S_yt-QqSceHxY3d0_356.mp4	0.0	176.11785101890564	0.10016989707946777
12	29.508091926574707	fix_pre	0		16.0	10.0	2.5	/experiments/knapen_aot/videos/R_S_ILSVRC2015_train_00743006.mp4	0.0	176.2180209159851	0.13293910026550293
12	29.632856130599976	response	0	2		10.0	2.5	/experiments/knapen_aot/videos/R_S_ILSVRC2015_train_00743006.mp4	0.0	176.34278512001038	
12	29.64103102684021	movie	1		301.0	10.0	2.5	/experiments/knapen_aot/videos/R_S_ILSVRC2015_train_00743006.mp4	0.0	176.3509600162506	2.508323907852173
12	32.14935493469238	fix_post	2		12.0	10.0	2.5	/experiments/knapen_aot/videos/R_S_ILSVRC2015_train_00743006.mp4	0.0	178.85928392410278	0.10010218620300293
13	32.249457120895386	fix_pre	0		14.0	11.0	2.5	/experiments/knapen_aot/videos/R_S_production_ID_3944248.mp4	0.0	178.9593861103058	0.11658692359924316
13	32.35793709754944	response	0	2		11.0	2.5	/experiments/knapen_aot/videos/R_S_production_ID_3944248.mp4	0.0	179.06786608695984	
13	32.36604404449463	movie	1		196.0	11.0	2.5	/experiments/knapen_aot/videos/R_S_production_ID_3944248.mp4	0.0	179.07597303390503	2.5083439350128174
13	34.874387979507446	fix_post	2		12.0	11.0	2.5	/experiments/knapen_aot/videos/R_S_production_ID_3944248.mp4	0.0	181.58431696891785	0.10001516342163086
14	34.97440314292908	fix_pre	0		4.0	12.0	2.5	blank	1.0	181.68433213233948	0.03403782844543457
14	34.9994740486145	response	0	2		12.0	2.5	blank	1.0	181.7094030380249	
14	35.00844097137451	movie	1		301.0	12.0	2.5	blank	1.0	181.7183699607849	2.507761001586914
14	37.516201972961426	fix_post	2		12.0	12.0	2.5	blank	1.0	184.22613096237183	0.09986114501953125
15	37.61606311798096	fix_pre	0		28.0	13.0	2.5	/experiments/knapen_aot/videos/S_yt-zQnaVApUPH0_14.mp4	0.0	184.32599210739136	0.23319697380065918
15	37.8411660194397	response	0	2		13.0	2.5	/experiments/knapen_aot/videos/S_yt-zQnaVApUPH0_14.mp4	0.0	184.5510950088501	
15	37.849260091781616	movie	1		301.0	13.0	2.5	/experiments/knapen_aot/videos/S_yt-zQnaVApUPH0_14.mp4	0.0	184.55918908119202	2.5084619522094727
15	40.35772204399109	fix_post	2		12.0	13.0	2.5	/experiments/knapen_aot/videos/S_yt-zQnaVApUPH0_14.mp4	0.0	187.0676510334015	0.10013508796691895
16	40.45785713195801	fix_pre	0		14.0	14.0	2.5	/experiments/knapen_aot/videos/S_yt-qE70lj3-A78_228.mp4	0.0	187.1677861213684	0.11644983291625977
16	40.5661301612854	response	0	2		14.0	2.5	/experiments/knapen_aot/videos/S_yt-qE70lj3-A78_228.mp4	0.0	187.2760591506958	
16	40.57430696487427	movie	1		301.0	14.0	2.5	/experiments/knapen_aot/videos/S_yt-qE70lj3-A78_228.mp4	0.0	187.28423595428467	2.5084030628204346
16	43.0827100276947	fix_post	2		12.0	14.0	2.5	/experiments/knapen_aot/videos/S_yt-qE70lj3-A78_228.mp4	0.0	189.7926390171051	0.09995794296264648
17	43.18266797065735	fix_pre	0		12.0	15.0	2.5	/experiments/knapen_aot/videos/R_S_yt-_HuBzj8EPBc_62.mp4	0.0	189.89259696006775	0.10008096694946289
17	43.27441692352295	response	0	2		15.0	2.5	/experiments/knapen_aot/videos/R_S_yt-_HuBzj8EPBc_62.mp4	0.0	189.98434591293335	
17	43.28274893760681	movie	1		301.0	15.0	2.5	/experiments/knapen_aot/videos/R_S_yt-_HuBzj8EPBc_62.mp4	0.0	189.9926779270172	2.5082972049713135
17	45.791046142578125	fix_post	2		12.0	15.0	2.5	/experiments/knapen_aot/videos/R_S_yt-_HuBzj8EPBc_62.mp4	0.0	192.50097513198853	0.09993600845336914
18	45.890982151031494	fix_pre	0		19.0	16.0	2.5	/experiments/knapen_aot/videos/S_yt_R-lST38EdfMMQ_5.mp4	0.0	192.6009111404419	0.1590259075164795
18	46.041106939315796	response	0	2		16.0	2.5	/experiments/knapen_aot/videos/S_yt_R-lST38EdfMMQ_5.mp4	0.0	192.7510359287262	
18	46.050008058547974	movie	1		301.0	16.0	2.5	/experiments/knapen_aot/videos/S_yt_R-lST38EdfMMQ_5.mp4	0.0	192.75993704795837	2.5078799724578857
18	48.55788803100586	fix_post	2		12.0	16.0	2.5	/experiments/knapen_aot/videos/S_yt_R-lST38EdfMMQ_5.mp4	0.0	195.26781702041626	0.09977197647094727
19	48.65766000747681	fix_pre	0		3.0	17.0	2.5	/experiments/knapen_aot/videos/R_S_yt-2ftSsLqRQnA_84.mp4	0.0	195.3675889968872	0.025027990341186523
19	48.6743860244751	response	0	2		17.0	2.5	/experiments/knapen_aot/videos/R_S_yt-2ftSsLqRQnA_84.mp4	0.0	195.3843150138855	
19	48.68268799781799	movie	1		301.0	17.0	2.5	/experiments/knapen_aot/videos/R_S_yt-2ftSsLqRQnA_84.mp4	0.0	195.3926169872284	2.5083320140838623
19	51.191020011901855	fix_post	2		12.0	17.0	2.5	/experiments/knapen_aot/videos/R_S_yt-2ftSsLqRQnA_84.mp4	0.0	197.90094900131226	0.09991097450256348
20	51.29093098640442	fix_pre	0		8.0	18.0	2.5	/experiments/knapen_aot/videos/R_S_yt-KNdCiW8m1uY_168.mp4	0.0	198.00085997581482	0.06666898727416992
20	51.34941506385803	response	0	2		18.0	2.5	/experiments/knapen_aot/videos/R_S_yt-KNdCiW8m1uY_168.mp4	0.0	198.05934405326843	
20	51.35759997367859	movie	1		301.0	18.0	2.5	/experiments/knapen_aot/videos/R_S_yt-KNdCiW8m1uY_168.mp4	0.0	198.067528963089	2.511770009994507
20	53.869369983673096	fix_post	2		12.0	18.0	2.5	/experiments/knapen_aot/videos/R_S_yt-KNdCiW8m1uY_168.mp4	0.0	200.5792989730835	0.09658002853393555
21	53.96595001220703	fix_pre	0		23.0	19.0	2.5	/experiments/knapen_aot/videos/R_S_yt-hTkrnNr39dk_202.mp4	0.0	200.67587900161743	0.19167804718017578
21	54.14181709289551	response	0	2		19.0	2.5	/experiments/knapen_aot/videos/R_S_yt-hTkrnNr39dk_202.mp4	0.0	200.8517460823059	
21	54.15762805938721	movie	1		301.0	19.0	2.5	/experiments/knapen_aot/videos/R_S_yt-hTkrnNr39dk_202.mp4	0.0	200.8675570487976	2.5083420276641846
21	56.66597008705139	fix_post	2		12.0	19.0	2.5	/experiments/knapen_aot/videos/R_S_yt-hTkrnNr39dk_202.mp4	0.0	203.3758990764618	0.10000801086425781
22	56.76597809791565	fix_pre	0		9.0	20.0	2.5	/experiments/knapen_aot/videos/S_yt-4oT-2eGhmUo_102.mp4	0.0	203.47590708732605	0.07547998428344727
22	56.83275604248047	response	0	2		20.0	2.5	/experiments/knapen_aot/videos/S_yt-4oT-2eGhmUo_102.mp4	0.0	203.54268503189087	
22	56.8414580821991	movie	1		301.0	20.0	2.5	/experiments/knapen_aot/videos/S_yt-4oT-2eGhmUo_102.mp4	0.0	203.5513870716095	2.5078699588775635
22	59.34932804107666	fix_post	2		12.0	20.0	2.5	/experiments/knapen_aot/videos/S_yt-4oT-2eGhmUo_102.mp4	0.0	206.05925703048706	0.09996795654296875
23	59.44929599761963	fix_pre	0		11.0	21.0	2.5	blank	1.0	206.15922498703003	0.0916140079498291
23	59.532763957977295	response	0	2		21.0	2.5	blank	1.0	206.2426929473877	
23	59.54091000556946	movie	1		301.0	21.0	2.5	blank	1.0	206.25083899497986	2.5084149837493896
23	62.04932498931885	fix_post	2		12.0	21.0	2.5	blank	1.0	208.75925397872925	0.09998106956481934
24	62.14930605888367	fix_pre	0		29.0	22.0	2.5	/experiments/knapen_aot/videos/R_S_yt-JDHApyT5ngs_128.mp4	0.0	208.85923504829407	0.24165987968444824
24	62.38274312019348	response	0	2		22.0	2.5	/experiments/knapen_aot/videos/R_S_yt-JDHApyT5ngs_128.mp4	0.0	209.09267210960388	
24	62.390965938568115	movie	1		301.0	22.0	2.5	/experiments/knapen_aot/videos/R_S_yt-JDHApyT5ngs_128.mp4	0.0	209.10089492797852	2.5083351135253906
24	64.8993010520935	fix_post	2		12.0	22.0	2.5	/experiments/knapen_aot/videos/R_S_yt-JDHApyT5ngs_128.mp4	0.0	211.6092300415039	0.1000518798828125
25	64.99935293197632	fix_pre	0		8.0	23.0	2.5	/experiments/knapen_aot/videos/S_yt-gOoDjhfSPj0_162.mp4	0.0	211.70928192138672	0.06658101081848145
25	65.05020904541016	response	0	2		23.0	2.5	/experiments/knapen_aot/videos/S_yt-gOoDjhfSPj0_162.mp4	0.0	211.76013803482056	
25	65.0659339427948	movie	1		301.0	23.0	2.5	/experiments/knapen_aot/videos/S_yt-gOoDjhfSPj0_162.mp4	0.0	211.7758629322052	2.508366107940674
25	67.57430005073547	fix_post	2		12.0	23.0	2.5	/experiments/knapen_aot/videos/S_yt-gOoDjhfSPj0_162.mp4	0.0	214.28422904014587	0.099945068359375
26	67.67424511909485	fix_pre	0		14.0	24.0	2.5	/experiments/knapen_aot/videos/S_yt-H-2Vvouw9VI_85.mp4	0.0	214.38417410850525	0.11673283576965332
26	67.7827091217041	response	0	2		24.0	2.5	/experiments/knapen_aot/videos/S_yt-H-2Vvouw9VI_85.mp4	0.0	214.4926381111145	
26	67.7909779548645	movie	1		301.0	24.0	2.5	/experiments/knapen_aot/videos/S_yt-H-2Vvouw9VI_85.mp4	0.0	214.5009069442749	2.508305072784424
26	70.29928302764893	fix_post	2		12.0	24.0	2.5	/experiments/knapen_aot/videos/S_yt-H-2Vvouw9VI_85.mp4	0.0	217.00921201705933	0.10001111030578613
27	70.39929413795471	fix_pre	0		25.0	25.0	2.5	/experiments/knapen_aot/videos/R_S_yt-okYy5Md2U8I_7.mp4	0.0	217.1092231273651	0.20827579498291016
27	70.59945702552795	response	0	2		25.0	2.5	/experiments/knapen_aot/videos/R_S_yt-okYy5Md2U8I_7.mp4	0.0	217.30938601493835	
27	70.60756993293762	movie	1		301.0	25.0	2.5	/experiments/knapen_aot/videos/R_S_yt-okYy5Md2U8I_7.mp4	0.0	217.31749892234802	2.508395195007324
27	73.11596512794495	fix_post	2		12.0	25.0	2.5	/experiments/knapen_aot/videos/R_S_yt-okYy5Md2U8I_7.mp4	0.0	219.82589411735535	0.10016393661499023
28	73.21612906455994	fix_pre	0		21.0	26.0	2.5	/experiments/knapen_aot/videos/R_S_yt-tEzCpMrjOHs_24.mp4	0.0	219.92605805397034	0.17472100257873535
28	73.3826949596405	response	0	2		26.0	2.5	/experiments/knapen_aot/videos/R_S_yt-tEzCpMrjOHs_24.mp4	0.0	220.0926239490509	
28	73.39085006713867	movie	1		301.0	26.0	2.5	/experiments/knapen_aot/videos/R_S_yt-tEzCpMrjOHs_24.mp4	0.0	220.10077905654907	2.508354902267456
28	75.89920496940613	fix_post	2		12.0	26.0	2.5	/experiments/knapen_aot/videos/R_S_yt-tEzCpMrjOHs_24.mp4	0.0	222.60913395881653	0.10006213188171387
29	75.99926710128784	fix_pre	0		24.0	27.0	2.5	/experiments/knapen_aot/videos/R_S_yt-isJga8ec5UM_32.mp4	0.0	222.70919609069824	0.1999528408050537
29	76.19097805023193	response	0	2		27.0	2.5	/experiments/knapen_aot/videos/R_S_yt-isJga8ec5UM_32.mp4	0.0	222.90090703964233	
29	76.1992199420929	movie	1		301.0	27.0	2.5	/experiments/knapen_aot/videos/R_S_yt-isJga8ec5UM_32.mp4	0.0	222.9091489315033	2.508364200592041
29	78.70758414268494	fix_post	2		12.0	27.0	2.5	/experiments/knapen_aot/videos/R_S_yt-isJga8ec5UM_32.mp4	0.0	225.41751313209534	0.10018396377563477
30	78.80776810646057	fix_pre	0		36.0	28.0	2.5	blank	1.0	225.51769709587097	0.29979896545410156
30	79.09183597564697	response	0	2		28.0	2.5	blank	1.0	225.80176496505737	
30	79.10756707191467	movie	1		301.0	28.0	2.5	blank	1.0	225.81749606132507	2.5083069801330566
30	81.61587405204773	fix_post	2		12.0	28.0	2.5	blank	1.0	228.32580304145813	0.10045289993286133
31	81.71632695198059	fix_pre	0		21.0	29.0	2.5	/experiments/knapen_aot/videos/R_S_b8-2.mp4	0.0	228.426255941391	0.1745471954345703
31	81.88264203071594	response	0	2		29.0	2.5	/experiments/knapen_aot/videos/R_S_b8-2.mp4	0.0	228.59257102012634	
31	81.89087414741516	movie	1		165.0	29.0	2.5	/experiments/knapen_aot/videos/R_S_b8-2.mp4	0.0	228.60080313682556	2.5085608959198
31	84.39943504333496	fix_post	2		12.0	29.0	2.5	/experiments/knapen_aot/videos/R_S_b8-2.mp4	0.0	231.10936403274536	0.0997779369354248
32	84.49921298027039	fix_pre	0		12.0	30.0	2.5	/experiments/knapen_aot/videos/R_S_yt-JVhfcpV7OaY_71.mp4	0.0	231.2091419696808	0.10002803802490234
32	84.59098315238953	response	0	2		30.0	2.5	/experiments/knapen_aot/videos/R_S_yt-JVhfcpV7OaY_71.mp4	0.0	231.30091214179993	
32	84.59924101829529	movie	1		301.0	30.0	2.5	/experiments/knapen_aot/videos/R_S_yt-JVhfcpV7OaY_71.mp4	0.0	231.3091700077057	2.5082590579986572
32	87.10750007629395	fix_post	2		12.0	30.0	2.5	/experiments/knapen_aot/videos/R_S_yt-JVhfcpV7OaY_71.mp4	0.0	233.81742906570435	0.09999299049377441
33	87.20749306678772	fix_pre	0		32.0	31.0	2.5	/experiments/knapen_aot/videos/R_S_yt-UojTppgtyCE_121.mp4	0.0	233.91742205619812	0.2666199207305908
33	87.465980052948	response	0	2		31.0	2.5	/experiments/knapen_aot/videos/R_S_yt-UojTppgtyCE_121.mp4	0.0	234.1759090423584	
33	87.47411298751831	movie	1		301.0	31.0	2.5	/experiments/knapen_aot/videos/R_S_yt-UojTppgtyCE_121.mp4	0.0	234.1840419769287	2.5083789825439453
33	89.98249197006226	fix_post	2		12.0	31.0	2.5	/experiments/knapen_aot/videos/R_S_yt-UojTppgtyCE_121.mp4	0.0	236.69242095947266	0.09997105598449707
34	90.08246302604675	fix_pre	0		18.0	32.0	2.5	/experiments/knapen_aot/videos/R_S_yt-0bovQBIUZho_15.mp4	0.0	236.79239201545715	0.15000104904174805
34	90.22429895401001	response	0	2		32.0	2.5	/experiments/knapen_aot/videos/R_S_yt-0bovQBIUZho_15.mp4	0.0	236.9342279434204	
34	90.2324640750885	movie	1		301.0	32.0	2.5	/experiments/knapen_aot/videos/R_S_yt-0bovQBIUZho_15.mp4	0.0	236.9423930644989	2.5083699226379395
34	92.74083399772644	fix_post	2		12.0	32.0	2.5	/experiments/knapen_aot/videos/R_S_yt-0bovQBIUZho_15.mp4	0.0	239.45076298713684	0.09998607635498047
35	92.84082007408142	fix_pre	0		31.0	33.0	2.5	/experiments/knapen_aot/videos/R_S_yt-_HuBzj8EPBc_62.mp4	0.0	239.55074906349182	0.25833702087402344
35	93.09094715118408	response	0	2		33.0	2.5	/experiments/knapen_aot/videos/R_S_yt-_HuBzj8EPBc_62.mp4	0.0	239.80087614059448	
35	93.09915709495544	movie	1		301.0	33.0	2.5	/experiments/knapen_aot/videos/R_S_yt-_HuBzj8EPBc_62.mp4	0.0	239.80908608436584	2.508328914642334
35	95.60748600959778	fix_post	2		12.0	33.0	2.5	/experiments/knapen_aot/videos/R_S_yt-_HuBzj8EPBc_62.mp4	0.0	242.31741499900818	0.09994006156921387
36	95.70742607116699	fix_pre	0		16.0	34.0	2.5	/experiments/knapen_aot/videos/S_pexels-mart-production-7698693.mp4	0.0	242.4173550605774	0.1336209774017334
36	95.83253407478333	response	0	2		34.0	2.5	/experiments/knapen_aot/videos/S_pexels-mart-production-7698693.mp4	0.0	242.54246306419373	
36	95.84104704856873	movie	1		196.0	34.0	2.5	/experiments/knapen_aot/videos/S_pexels-mart-production-7698693.mp4	0.0	242.55097603797913	2.5080881118774414
36	98.34913516044617	fix_post	2		12.0	34.0	2.5	/experiments/knapen_aot/videos/S_pexels-mart-production-7698693.mp4	0.0	245.05906414985657	0.10011482238769531
37	98.44924998283386	fix_pre	0		15.0	35.0	2.5	blank	1.0	245.15917897224426	0.12483501434326172
37	98.56597709655762	response	0	2		35.0	2.5	blank	1.0	245.27590608596802	
37	98.57408499717712	movie	1		301.0	35.0	2.5	blank	1.0	245.28401398658752	2.5085411071777344
37	101.08262610435486	fix_post	2		12.0	35.0	2.5	blank	1.0	247.79255509376526	0.09983396530151367
38	101.18246006965637	fix_pre	0		51.0	36.0	2.5	/experiments/knapen_aot/videos/S_yt-Uv0dt_-fWJU_40.mp4	0.0	247.89238905906677	0.4248809814453125
38	101.59919095039368	response	0	2		36.0	2.5	/experiments/knapen_aot/videos/S_yt-Uv0dt_-fWJU_40.mp4	0.0	248.30911993980408	
38	101.60734105110168	movie	1		301.0	36.0	2.5	/experiments/knapen_aot/videos/S_yt-Uv0dt_-fWJU_40.mp4	0.0	248.31727004051208	2.508435010910034
38	104.11577606201172	fix_post	2		12.0	36.0	2.5	/experiments/knapen_aot/videos/S_yt-Uv0dt_-fWJU_40.mp4	0.0	250.82570505142212	0.10007095336914062
39	104.21584701538086	fix_pre	0		42.0	37.0	2.5	/experiments/knapen_aot/videos/S_yt-JG2OY_7B-gI_537.mp4	0.0	250.92577600479126	0.34989309310913086
39	104.55745196342468	response	0	2		37.0	2.5	/experiments/knapen_aot/videos/S_yt-JG2OY_7B-gI_537.mp4	0.0	251.26738095283508	
39	104.56574010848999	movie	1		301.0	37.0	2.5	/experiments/knapen_aot/videos/S_yt-JG2OY_7B-gI_537.mp4	0.0	251.2756690979004	2.508354902267456
39	107.07409501075745	fix_post	2		12.0	37.0	2.5	/experiments/knapen_aot/videos/S_yt-JG2OY_7B-gI_537.mp4	0.0	253.78402400016785	0.10022211074829102
40	107.17431712150574	fix_pre	0		13.0	38.0	2.5	/experiments/knapen_aot/videos/S_yt-tneuR3EtSZE_72.mp4	0.0	253.88424611091614	0.10813593864440918
40	107.27416896820068	response	0	2		38.0	2.5	/experiments/knapen_aot/videos/S_yt-tneuR3EtSZE_72.mp4	0.0	253.98409795761108	
40	107.28245306015015	movie	1		301.0	38.0	2.5	/experiments/knapen_aot/videos/S_yt-tneuR3EtSZE_72.mp4	0.0	253.99238204956055	2.5083839893341064
40	109.79083704948425	fix_post	2		12.0	38.0	2.5	/experiments/knapen_aot/videos/S_yt-tneuR3EtSZE_72.mp4	0.0	256.50076603889465	0.09982800483703613
41	109.89066505432129	fix_pre	0		13.0	39.0	2.5	/experiments/knapen_aot/videos/S_yt-tEzCpMrjOHs_24.mp4	0.0	256.6005940437317	0.10834693908691406
41	109.9908299446106	response	0	2		39.0	2.5	/experiments/knapen_aot/videos/S_yt-tEzCpMrjOHs_24.mp4	0.0	256.700758934021	
41	109.9990119934082	movie	1		301.0	39.0	2.5	/experiments/knapen_aot/videos/S_yt-tEzCpMrjOHs_24.mp4	0.0	256.7089409828186	2.508406162261963
41	112.50741815567017	fix_post	2		12.0	39.0	2.5	/experiments/knapen_aot/videos/S_yt-tEzCpMrjOHs_24.mp4	0.0	259.21734714508057	0.09998297691345215
42	112.60740113258362	fix_pre	0		28.0	40.0	2.5	/experiments/knapen_aot/videos/S_yt-WRBmpC-RxIc_678.mp4	0.0	259.317330121994	0.23343181610107422
42	112.83247303962708	response	0	2		40.0	2.5	/experiments/knapen_aot/videos/S_yt-WRBmpC-RxIc_678.mp4	0.0	259.5424020290375	
42	112.84083294868469	movie	1		301.0	40.0	2.5	/experiments/knapen_aot/videos/S_yt-WRBmpC-RxIc_678.mp4	0.0	259.5507619380951	2.5082991123199463
42	115.34913206100464	fix_post	2		12.0	40.0	2.5	/experiments/knapen_aot/videos/S_yt-WRBmpC-RxIc_678.mp4	0.0	262.05906105041504	0.09991097450256348
43	115.4490430355072	fix_pre	0		34.0	41.0	2.5	blank	1.0	262.1589720249176	0.28334999084472656
43	115.72415208816528	response	0	2		41.0	2.5	blank	1.0	262.4340810775757	
43	115.73239302635193	movie	1		301.0	41.0	2.5	blank	1.0	262.44232201576233	2.5082969665527344
43	118.24068999290466	fix_post	2		12.0	41.0	2.5	blank	1.0	264.95061898231506	0.1002509593963623
44	118.34094095230103	fix_pre	0		22.0	42.0	2.5	/experiments/knapen_aot/videos/S_yt--WPE_4bqQXc_26.mp4	0.0	265.0508699417114	0.1830601692199707
44	118.51578998565674	response	0	2		42.0	2.5	/experiments/knapen_aot/videos/S_yt--WPE_4bqQXc_26.mp4	0.0	265.22571897506714	
44	118.524001121521	movie	1		301.0	42.0	2.5	/experiments/knapen_aot/videos/S_yt--WPE_4bqQXc_26.mp4	0.0	265.2339301109314	2.5083019733428955
44	121.03230309486389	fix_post	2		12.0	42.0	2.5	/experiments/knapen_aot/videos/S_yt--WPE_4bqQXc_26.mp4	0.0	267.7422320842743	0.10027194023132324
45	121.13257503509521	fix_pre	0		25.0	43.0	2.5	/experiments/knapen_aot/videos/S_yt-4i1b6NQ9NKs_5.mp4	0.0	267.8425040245056	0.20818305015563965
45	121.33251905441284	response	0	2		43.0	2.5	/experiments/knapen_aot/videos/S_yt-4i1b6NQ9NKs_5.mp4	0.0	268.04244804382324	
45	121.34075808525085	movie	1		301.0	43.0	2.5	/experiments/knapen_aot/videos/S_yt-4i1b6NQ9NKs_5.mp4	0.0	268.05068707466125	2.5084009170532227
45	123.84915900230408	fix_post	2		12.0	43.0	2.5	/experiments/knapen_aot/videos/S_yt-4i1b6NQ9NKs_5.mp4	0.0	270.5590879917145	0.09984993934631348
46	123.94900894165039	fix_pre	0		24.0	44.0	2.5	/experiments/knapen_aot/videos/S_KP_A010_C002_SDR_20190717_SDR_2K_AVC.mp4	0.0	270.6589379310608	0.19999909400939941
46	124.14072394371033	response	0	2		44.0	2.5	/experiments/knapen_aot/videos/S_KP_A010_C002_SDR_20190717_SDR_2K_AVC.mp4	0.0	270.8506529331207	
46	124.14900803565979	movie	1		165.0	44.0	2.5	/experiments/knapen_aot/videos/S_KP_A010_C002_SDR_20190717_SDR_2K_AVC.mp4	0.0	270.8589370250702	2.5082969665527344
46	126.65730500221252	fix_post	2		12.0	44.0	2.5	/experiments/knapen_aot/videos/S_KP_A010_C002_SDR_20190717_SDR_2K_AVC.mp4	0.0	273.3672339916229	0.10042810440063477
47	126.75773310661316	fix_pre	0		20.0	45.0	2.5	/experiments/knapen_aot/videos/S_yt-JDHApyT5ngs_128.mp4	0.0	273.46766209602356	0.16632890701293945
47	126.91573810577393	response	0	2		45.0	2.5	/experiments/knapen_aot/videos/S_yt-JDHApyT5ngs_128.mp4	0.0	273.6256670951843	
47	126.9240620136261	movie	1		301.0	45.0	2.5	/experiments/knapen_aot/videos/S_yt-JDHApyT5ngs_128.mp4	0.0	273.6339910030365	2.5082809925079346
47	129.43234300613403	fix_post	2		12.0	45.0	2.5	/experiments/knapen_aot/videos/S_yt-JDHApyT5ngs_128.mp4	0.0	276.14227199554443	0.0999751091003418
48	129.53231811523438	fix_pre	0		23.0	46.0	2.5	/experiments/knapen_aot/videos/R_S_yt-gDZnJCR2uXI_18.mp4	0.0	276.2422471046448	0.19162988662719727
48	129.71575212478638	response	0	2		46.0	2.5	/experiments/knapen_aot/videos/R_S_yt-gDZnJCR2uXI_18.mp4	0.0	276.4256811141968	
48	129.72394800186157	movie	1		301.0	46.0	2.5	/experiments/knapen_aot/videos/R_S_yt-gDZnJCR2uXI_18.mp4	0.0	276.433876991272	2.5083889961242676
48	132.23233699798584	fix_post	2		12.0	46.0	2.5	/experiments/knapen_aot/videos/R_S_yt-gDZnJCR2uXI_18.mp4	0.0	278.94226598739624	0.10005307197570801
49	132.33239006996155	fix_pre	0		25.0	47.0	2.5	/experiments/knapen_aot/videos/R_S_yt-t8NfuFA7OlM_26.mp4	0.0	279.04231905937195	0.20824885368347168
49	132.52489614486694	response	0	2		47.0	2.5	/experiments/knapen_aot/videos/R_S_yt-t8NfuFA7OlM_26.mp4	0.0	279.23482513427734	
49	132.54063892364502	movie	1		301.0	47.0	2.5	/experiments/knapen_aot/videos/R_S_yt-t8NfuFA7OlM_26.mp4	0.0	279.2505679130554	2.508453130722046
49	135.04909205436707	fix_post	2		12.0	47.0	2.5	/experiments/knapen_aot/videos/R_S_yt-t8NfuFA7OlM_26.mp4	0.0	281.75902104377747	0.09995794296264648
50	135.1490499973297	fix_pre	0		20.0	48.0	2.5	blank	1.0	281.8589789867401	0.16654205322265625
50	135.3074221611023	response	0	2		48.0	2.5	blank	1.0	282.0173511505127	
50	135.31559205055237	movie	1		301.0	48.0	2.5	blank	1.0	282.02552103996277	2.508349895477295
50	137.82394194602966	fix_post	2		12.0	48.0	2.5	blank	1.0	284.53387093544006	0.10011506080627441
51	137.92405700683594	fix_pre	0		25.0	49.0	2.5	/experiments/knapen_aot/videos/S_yt--WPE_4bqQXc_26.mp4	0.0	284.63398599624634	0.20828795433044434
51	138.12392115592957	response	0	2		49.0	2.5	/experiments/knapen_aot/videos/S_yt--WPE_4bqQXc_26.mp4	0.0	284.83385014533997	
51	138.13234496116638	movie	1		301.0	49.0	2.5	/experiments/knapen_aot/videos/S_yt--WPE_4bqQXc_26.mp4	0.0	284.8422739505768	2.5082709789276123
51	140.640615940094	fix_post	2		12.0	49.0	2.5	/experiments/knapen_aot/videos/S_yt--WPE_4bqQXc_26.mp4	0.0	287.3505449295044	0.1000051498413086
52	140.7406210899353	fix_pre	0		17.0	50.0	2.5	/experiments/knapen_aot/videos/S_production_ID_5144824.mp4	0.0	287.4505500793457	0.14168500900268555
52	140.87395310401917	response	0	2		50.0	2.5	/experiments/knapen_aot/videos/S_production_ID_5144824.mp4	0.0	287.58388209342957	
52	140.882306098938	movie	1		163.0	50.0	2.5	/experiments/knapen_aot/videos/S_production_ID_5144824.mp4	0.0	287.5922350883484	2.5083489418029785
52	143.39065504074097	fix_post	2		12.0	50.0	2.5	/experiments/knapen_aot/videos/S_production_ID_5144824.mp4	0.0	290.10058403015137	0.09998011589050293
53	143.49063515663147	fix_pre	0		10.0	51.0	2.5	/experiments/knapen_aot/videos/S_yt-H-2Vvouw9VI_85.mp4	0.0	290.20056414604187	0.08327698707580566
53	143.5656931400299	response	0	2		51.0	2.5	/experiments/knapen_aot/videos/S_yt-H-2Vvouw9VI_85.mp4	0.0	290.2756221294403	
53	143.57391214370728	movie	1		301.0	51.0	2.5	/experiments/knapen_aot/videos/S_yt-H-2Vvouw9VI_85.mp4	0.0	290.2838411331177	2.508404016494751
53	146.08231616020203	fix_post	2		12.0	51.0	2.5	/experiments/knapen_aot/videos/S_yt-H-2Vvouw9VI_85.mp4	0.0	292.7922451496124	0.10007381439208984
54	146.18238997459412	fix_pre	0		8.0	52.0	2.5	/experiments/knapen_aot/videos/R_S_yt-Dlk44AGz-xM_37.mp4	0.0	292.8923189640045	0.06648707389831543
54	146.24063110351562	response	0	2		52.0	2.5	/experiments/knapen_aot/videos/R_S_yt-Dlk44AGz-xM_37.mp4	0.0	292.950560092926	
54	146.24887704849243	movie	1		301.0	52.0	2.5	/experiments/knapen_aot/videos/R_S_yt-Dlk44AGz-xM_37.mp4	0.0	292.95880603790283	2.508420944213867
54	148.7572979927063	fix_post	2		12.0	52.0	2.5	/experiments/knapen_aot/videos/R_S_yt-Dlk44AGz-xM_37.mp4	0.0	295.4672269821167	0.10001897811889648
55	148.8573169708252	fix_pre	0		6.0	53.0	2.5	/experiments/knapen_aot/videos/R_S_yt-s5YONFy3vb4_46.mp4	0.0	295.5672459602356	0.04988813400268555
55	148.89902806282043	response	0	2		53.0	2.5	/experiments/knapen_aot/videos/R_S_yt-s5YONFy3vb4_46.mp4	0.0	295.60895705223083	
55	148.90720510482788	movie	1		301.0	53.0	2.5	/experiments/knapen_aot/videos/R_S_yt-s5YONFy3vb4_46.mp4	0.0	295.6171340942383	2.508359909057617
55	151.4155650138855	fix_post	2		12.0	53.0	2.5	/experiments/knapen_aot/videos/R_S_yt-s5YONFy3vb4_46.mp4	0.0	298.1254940032959	0.09997797012329102
56	151.5155429840088	fix_pre	0		16.0	54.0	2.5	blank	1.0	298.2254719734192	0.1333141326904297
56	151.6406500339508	response	0	2		54.0	2.5	blank	1.0	298.3505790233612	
56	151.64885711669922	movie	1		301.0	54.0	2.5	blank	1.0	298.3587861061096	2.508307933807373
56	154.1571650505066	fix_post	2		12.0	54.0	2.5	blank	1.0	300.867094039917	0.10006999969482422
57	154.25723505020142	fix_pre	0		11.0	55.0	2.5	/experiments/knapen_aot/videos/S_yt-isJga8ec5UM_32.mp4	0.0	300.9671640396118	0.09160494804382324
57	154.34065008163452	response	0	2		55.0	2.5	/experiments/knapen_aot/videos/S_yt-isJga8ec5UM_32.mp4	0.0	301.0505790710449	
57	154.34883999824524	movie	1		301.0	55.0	2.5	/experiments/knapen_aot/videos/S_yt-isJga8ec5UM_32.mp4	0.0	301.05876898765564	2.5085971355438232
57	156.85743713378906	fix_post	2		12.0	55.0	2.5	/experiments/knapen_aot/videos/S_yt-isJga8ec5UM_32.mp4	0.0	303.56736612319946	0.09977984428405762
58	156.95721697807312	fix_pre	0		34.0	56.0	2.5	/experiments/knapen_aot/videos/S_yt-xQilXyNKsBw_42.mp4	0.0	303.6671459674835	0.28331995010375977
58	157.23236298561096	response	0	2		56.0	2.5	/experiments/knapen_aot/videos/S_yt-xQilXyNKsBw_42.mp4	0.0	303.94229197502136	
58	157.24053692817688	movie	1		301.0	56.0	2.5	/experiments/knapen_aot/videos/S_yt-xQilXyNKsBw_42.mp4	0.0	303.9504659175873	2.5083301067352295
58	159.7488670349121	fix_post	2		12.0	56.0	2.5	/experiments/knapen_aot/videos/S_yt-xQilXyNKsBw_42.mp4	0.0	306.4587960243225	0.10001611709594727
59	159.84888315200806	fix_pre	0		17.0	57.0	2.5	/experiments/knapen_aot/videos/R_S_yt-dj0XQUJos38_14.mp4	0.0	306.55881214141846	0.14165282249450684
59	159.98231196403503	response	0	2		57.0	2.5	/experiments/knapen_aot/videos/R_S_yt-dj0XQUJos38_14.mp4	0.0	306.69224095344543	
59	159.99053597450256	movie	1		301.0	57.0	2.5	/experiments/knapen_aot/videos/R_S_yt-dj0XQUJos38_14.mp4	0.0	306.70046496391296	2.508347988128662
59	162.49888396263123	fix_post	2		12.0	57.0	2.5	/experiments/knapen_aot/videos/R_S_yt-dj0XQUJos38_14.mp4	0.0	309.2088129520416	0.1000051498413086
60	162.59888911247253	fix_pre	0		21.0	58.0	2.5	/experiments/knapen_aot/videos/R_S_ILSVRC2015_train_00318000.mp4	0.0	309.30881810188293	0.1749579906463623
60	162.7655770778656	response	0	2		58.0	2.5	/experiments/knapen_aot/videos/R_S_ILSVRC2015_train_00318000.mp4	0.0	309.475506067276	
60	162.7738471031189	movie	1		301.0	58.0	2.5	/experiments/knapen_aot/videos/R_S_ILSVRC2015_train_00318000.mp4	0.0	309.4837760925293	2.5083789825439453
60	165.28222608566284	fix_post	2		12.0	58.0	2.5	/experiments/knapen_aot/videos/R_S_ILSVRC2015_train_00318000.mp4	0.0	311.99215507507324	0.09996795654296875
61	165.3821940422058	fix_pre	0		15.0	59.0	2.5	/experiments/knapen_aot/videos/R_S_yt-tOOaOzYvtKE_79.mp4	0.0	312.0921230316162	0.12505102157592773
61	165.4988570213318	response	0	2		59.0	2.5	/experiments/knapen_aot/videos/R_S_yt-tOOaOzYvtKE_79.mp4	0.0	312.2087860107422	
61	165.50724506378174	movie	1		301.0	59.0	2.5	/experiments/knapen_aot/videos/R_S_yt-tOOaOzYvtKE_79.mp4	0.0	312.21717405319214	2.5082590579986572
61	168.0155041217804	fix_post	2		12.0	59.0	2.5	/experiments/knapen_aot/videos/R_S_yt-tOOaOzYvtKE_79.mp4	0.0	314.7254331111908	0.10020780563354492
62	168.11571192741394	fix_pre	0		8.0	60.0	2.5	/experiments/knapen_aot/videos/S_yt--jzScB82vKI_212.mp4	0.0	314.82564091682434	0.06639218330383301
62	168.17392301559448	response	0	2		60.0	2.5	/experiments/knapen_aot/videos/S_yt--jzScB82vKI_212.mp4	0.0	314.8838520050049	
62	168.18210411071777	movie	1		301.0	60.0	2.5	/experiments/knapen_aot/videos/S_yt--jzScB82vKI_212.mp4	0.0	314.8920331001282	2.508388042449951
62	170.69049215316772	fix_post	2		12.0	60.0	2.5	/experiments/knapen_aot/videos/S_yt--jzScB82vKI_212.mp4	0.0	317.4004211425781	0.10001182556152344
63	170.79050397872925	fix_pre	0		22.0	61.0	2.5	blank	1.0	317.50043296813965	0.18340396881103516
63	170.96552395820618	response	0	2		61.0	2.5	blank	1.0	317.6754529476166	
63	170.97390794754028	movie	1		301.0	61.0	2.5	blank	1.0	317.6838369369507	2.5082571506500244
63	173.4821650981903	fix_post	2		12.0	61.0	2.5	blank	1.0	320.1920940876007	0.09998798370361328
64	173.58215308189392	fix_pre	0		29.0	62.0	2.5	/experiments/knapen_aot/videos/R_S_comp_HK_B005_C011_PSNK_v16_SDR_PS_20180914_SDR_2K_AVC.mp4	0.0	320.2920820713043	0.2416529655456543
64	173.81551098823547	response	0	2		62.0	2.5	/experiments/knapen_aot/videos/R_S_comp_HK_B005_C011_PSNK_v16_SDR_PS_20180914_SDR_2K_AVC.mp4	0.0	320.5254399776459	
64	173.82380604743958	movie	1		168.0	62.0	2.5	/experiments/knapen_aot/videos/R_S_comp_HK_B005_C011_PSNK_v16_SDR_PS_20180914_SDR_2K_AVC.mp4	0.0	320.53373503685	2.5083250999450684
64	176.33213114738464	fix_post	2		12.0	62.0	2.5	/experiments/knapen_aot/videos/R_S_comp_HK_B005_C011_PSNK_v16_SDR_PS_20180914_SDR_2K_AVC.mp4	0.0	323.04206013679504	0.09998679161071777
65	176.43211793899536	fix_pre	0		1.0	63.0	2.5	/experiments/knapen_aot/videos/R_S_yt-gPhlnZG-pRY_4.mp4	0.0	323.14204692840576	0.008307218551635742
65	176.4337511062622	response	0	2		63.0	2.5	/experiments/knapen_aot/videos/R_S_yt-gPhlnZG-pRY_4.mp4	0.0	323.1436800956726	
65	176.440425157547	movie	1		301.0	63.0	2.5	/experiments/knapen_aot/videos/R_S_yt-gPhlnZG-pRY_4.mp4	0.0	323.1503541469574	2.5084078311920166
65	178.948832988739	fix_post	2		12.0	63.0	2.5	/experiments/knapen_aot/videos/R_S_yt-gPhlnZG-pRY_4.mp4	0.0	325.6587619781494	0.09997701644897461
66	179.048810005188	fix_pre	0		10.0	64.0	2.5	/experiments/knapen_aot/videos/R_S_production_ID_5146014.mp4	0.0	325.7587389945984	0.08323407173156738
66	179.12410497665405	response	0	2		64.0	2.5	/experiments/knapen_aot/videos/R_S_production_ID_5146014.mp4	0.0	325.83403396606445	
66	179.13204407691956	movie	1		167.0	64.0	2.5	/experiments/knapen_aot/videos/R_S_production_ID_5146014.mp4	0.0	325.84197306632996	2.5084080696105957
66	181.64045214653015	fix_post	2		12.0	64.0	2.5	/experiments/knapen_aot/videos/R_S_production_ID_5146014.mp4	0.0	328.35038113594055	0.0998988151550293
66	181.73217797279358	response	2	2		64.0	2.5	/experiments/knapen_aot/videos/R_S_production_ID_5146014.mp4	0.0	328.442106962204	
67	181.74035096168518	fix_pre	0		35.0	65.0	2.5	/experiments/knapen_aot/videos/R_S_yt-s5YONFy3vb4_46.mp4	0.0	328.4502799510956	0.29167699813842773
67	182.02379703521729	response	0	2		65.0	2.5	/experiments/knapen_aot/videos/R_S_yt-s5YONFy3vb4_46.mp4	0.0	328.7337260246277	
67	182.0320279598236	movie	1		301.0	65.0	2.5	/experiments/knapen_aot/videos/R_S_yt-s5YONFy3vb4_46.mp4	0.0	328.741956949234	2.508411169052124
67	184.54043912887573	fix_post	2		12.0	65.0	2.5	/experiments/knapen_aot/videos/R_S_yt-s5YONFy3vb4_46.mp4	0.0	331.25036811828613	0.09997296333312988
68	184.64041209220886	fix_pre	0		21.0	66.0	2.5	/experiments/knapen_aot/videos/R_S_ILSVRC2015_train_00497001.mp4	0.0	331.35034108161926	0.1750049591064453
68	184.80716705322266	response	0	2		66.0	2.5	/experiments/knapen_aot/videos/R_S_ILSVRC2015_train_00497001.mp4	0.0	331.51709604263306	
68	184.8154170513153	movie	1		301.0	66.0	2.5	/experiments/knapen_aot/videos/R_S_ILSVRC2015_train_00497001.mp4	0.0	331.5253460407257	2.5082828998565674
68	187.32369995117188	fix_post	2		12.0	66.0	2.5	/experiments/knapen_aot/videos/R_S_ILSVRC2015_train_00497001.mp4	0.0	334.0336289405823	0.10008716583251953
69	187.4237871170044	fix_pre	0		17.0	67.0	2.5	/experiments/knapen_aot/videos/R_S_yt-i4kSCZ8rNC0_11.mp4	0.0	334.1337161064148	0.1415848731994629
69	187.55716609954834	response	0	2		67.0	2.5	/experiments/knapen_aot/videos/R_S_yt-i4kSCZ8rNC0_11.mp4	0.0	334.26709508895874	
69	187.56537199020386	movie	1		301.0	67.0	2.5	/experiments/knapen_aot/videos/R_S_yt-i4kSCZ8rNC0_11.mp4	0.0	334.27530097961426	2.5083751678466797
69	190.07374715805054	fix_post	2		12.0	67.0	2.5	/experiments/knapen_aot/videos/R_S_yt-i4kSCZ8rNC0_11.mp4	0.0	336.78367614746094	0.10001683235168457
70	190.17376399040222	fix_pre	0		37.0	68.0	2.5	/experiments/knapen_aot/videos/S_yt-jcuaf9iSEkI_169.mp4	0.0	336.8836929798126	0.3082599639892578
70	190.4737491607666	response	0	2		68.0	2.5	/experiments/knapen_aot/videos/S_yt-jcuaf9iSEkI_169.mp4	0.0	337.183678150177	
70	190.48202395439148	movie	1		301.0	68.0	2.5	/experiments/knapen_aot/videos/S_yt-jcuaf9iSEkI_169.mp4	0.0	337.1919529438019	2.508366107940674
70	192.99039006233215	fix_post	2		12.0	68.0	2.5	/experiments/knapen_aot/videos/S_yt-jcuaf9iSEkI_169.mp4	0.0	339.70031905174255	0.10013008117675781
71	193.0905201435089	fix_pre	0		18.0	69.0	2.5	/experiments/knapen_aot/videos/S_ILSVRC2015_train_00318000.mp4	0.0	339.8004491329193	0.1524949073791504
71	193.2245111465454	response	0	2		69.0	2.5	/experiments/knapen_aot/videos/S_ILSVRC2015_train_00318000.mp4	0.0	339.9344401359558	
71	193.24301505088806	movie	1		301.0	69.0	2.5	/experiments/knapen_aot/videos/S_ILSVRC2015_train_00318000.mp4	0.0	339.95294404029846	2.505673885345459
71	195.74868893623352	fix_post	2		12.0	69.0	2.5	/experiments/knapen_aot/videos/S_ILSVRC2015_train_00318000.mp4	0.0	342.4586179256439	0.10023117065429688
72	195.84892010688782	fix_pre	0		15.0	70.0	2.5	blank	1.0	342.5588490962982	0.12477493286132812
72	195.96548914909363	response	0	2		70.0	2.5	blank	1.0	342.675418138504	
72	195.97369503974915	movie	1		301.0	70.0	2.5	blank	1.0	342.68362402915955	2.5083870887756348
72	198.48208212852478	fix_post	2		12.0	70.0	2.5	blank	1.0	345.1920111179352	0.09993696212768555
73	198.58201909065247	fix_pre	0		18.0	71.0	2.5	/experiments/knapen_aot/videos/S_ILSVRC2015_train_00354001.mp4	0.0	345.29194808006287	0.15001201629638672
73	198.7237150669098	response	0	2		71.0	2.5	/experiments/knapen_aot/videos/S_ILSVRC2015_train_00354001.mp4	0.0	345.4336440563202	
73	198.73203110694885	movie	1		301.0	71.0	2.5	/experiments/knapen_aot/videos/S_ILSVRC2015_train_00354001.mp4	0.0	345.44196009635925	2.508319854736328
73	201.24035096168518	fix_post	2		12.0	71.0	2.5	/experiments/knapen_aot/videos/S_ILSVRC2015_train_00354001.mp4	0.0	347.9502799510956	0.09997200965881348
74	201.340322971344	fix_pre	0		10.0	72.0	2.5	/experiments/knapen_aot/videos/R_S_yt--WPE_4bqQXc_26.mp4	0.0	348.0502519607544	0.0833590030670166
74	201.40792298316956	response	0	2		72.0	2.5	/experiments/knapen_aot/videos/R_S_yt--WPE_4bqQXc_26.mp4	0.0	348.11785197257996	
74	201.423681974411	movie	1		301.0	72.0	2.5	/experiments/knapen_aot/videos/R_S_yt--WPE_4bqQXc_26.mp4	0.0	348.1336109638214	2.5083041191101074
74	203.93198609352112	fix_post	2		12.0	72.0	2.5	/experiments/knapen_aot/videos/R_S_yt--WPE_4bqQXc_26.mp4	0.0	350.6419150829315	0.10007691383361816
75	204.03206300735474	fix_pre	0		114.0	73.0	2.5	/experiments/knapen_aot/videos/R_S_yt-j-ifVbxZePQ_70.mp4	0.0	350.74199199676514	0.9498779773712158
75	204.97374200820923	response	0	2		73.0	2.5	/experiments/knapen_aot/videos/R_S_yt-j-ifVbxZePQ_70.mp4	0.0	351.68367099761963	
75	204.98194098472595	movie	1		301.0	73.0	2.5	/experiments/knapen_aot/videos/R_S_yt-j-ifVbxZePQ_70.mp4	0.0	351.69186997413635	2.508413076400757
75	207.4903540611267	fix_post	2		12.0	73.0	2.5	/experiments/knapen_aot/videos/R_S_yt-j-ifVbxZePQ_70.mp4	0.0	354.2002830505371	0.10000801086425781
76	207.59036207199097	fix_pre	0		39.0	74.0	2.5	/experiments/knapen_aot/videos/S_yt-26009GpQuUg_3.mp4	0.0	354.30029106140137	0.32607603073120117
76	207.9070749282837	response	0	2		74.0	2.5	/experiments/knapen_aot/videos/S_yt-26009GpQuUg_3.mp4	0.0	354.6170039176941	
76	207.91643810272217	movie	1		301.0	74.0	2.5	/experiments/knapen_aot/videos/S_yt-26009GpQuUg_3.mp4	0.0	354.62636709213257	2.507220983505249
76	210.42365908622742	fix_post	2		12.0	74.0	2.5	/experiments/knapen_aot/videos/S_yt-26009GpQuUg_3.mp4	0.0	357.1335880756378	0.10000300407409668
77	210.5236620903015	fix_pre	0		113.0	75.0	2.5	/experiments/knapen_aot/videos/S_g201_AK_A003_C014_SDR_20191113_SDR_2K_AVC.mp4	0.0	357.2335910797119	0.9415888786315918
77	211.4570460319519	response	0	2		75.0	2.5	/experiments/knapen_aot/videos/S_g201_AK_A003_C014_SDR_20191113_SDR_2K_AVC.mp4	0.0	358.1669750213623	
77	211.4652509689331	movie	1		165.0	75.0	2.5	/experiments/knapen_aot/videos/S_g201_AK_A003_C014_SDR_20191113_SDR_2K_AVC.mp4	0.0	358.1751799583435	2.508380174636841
77	213.97363114356995	fix_post	2		12.0	75.0	2.5	/experiments/knapen_aot/videos/S_g201_AK_A003_C014_SDR_20191113_SDR_2K_AVC.mp4	0.0	360.68356013298035	0.09997296333312988
78	214.07360410690308	fix_pre	0		1.0	76.0	2.5	/experiments/knapen_aot/videos/S_yt-p0buJEEKeuI_61.mp4	0.0	360.7835330963135	0.00939798355102539
78	214.07556414604187	response	0	2		76.0	2.5	/experiments/knapen_aot/videos/S_yt-p0buJEEKeuI_61.mp4	0.0	360.78549313545227	
78	214.0830020904541	movie	1		301.0	76.0	2.5	/experiments/knapen_aot/videos/S_yt-p0buJEEKeuI_61.mp4	0.0	360.7929310798645	2.5072178840637207
78	216.59021997451782	fix_post	2		12.0	76.0	2.5	/experiments/knapen_aot/videos/S_yt-p0buJEEKeuI_61.mp4	0.0	363.3001489639282	0.10004401206970215
79	216.69026398658752	fix_pre	0		20.0	77.0	2.5	blank	1.0	363.4001929759979	0.16668415069580078
79	216.84868693351746	response	0	2		77.0	2.5	blank	1.0	363.55861592292786	
79	216.85694813728333	movie	1		301.0	77.0	2.5	blank	1.0	363.5668771266937	2.5083417892456055
79	219.36528992652893	fix_post	2		12.0	77.0	2.5	blank	1.0	366.07521891593933	0.10003805160522461
80	219.46532797813416	fix_pre	0		23.0	78.0	2.5	/experiments/knapen_aot/videos/S_yt-uXDyvrm0Tw0_17.mp4	0.0	366.17525696754456	0.19159412384033203
80	219.64872694015503	response	0	2		78.0	2.5	/experiments/knapen_aot/videos/S_yt-uXDyvrm0Tw0_17.mp4	0.0	366.35865592956543	
80	219.6569221019745	movie	1		301.0	78.0	2.5	/experiments/knapen_aot/videos/S_yt-uXDyvrm0Tw0_17.mp4	0.0	366.3668510913849	2.5087499618530273
80	222.16567206382751	fix_post	2		12.0	78.0	2.5	/experiments/knapen_aot/videos/S_yt-uXDyvrm0Tw0_17.mp4	0.0	368.8756010532379	0.09960103034973145
81	222.26527309417725	fix_pre	0		10.0	79.0	2.5	/experiments/knapen_aot/videos/R_S_g201_AK_A003_C014_SDR_20191113_SDR_2K_AVC.mp4	0.0	368.97520208358765	0.0832679271697998
81	222.34038710594177	response	0	2		79.0	2.5	/experiments/knapen_aot/videos/R_S_g201_AK_A003_C014_SDR_20191113_SDR_2K_AVC.mp4	0.0	369.0503160953522	
81	222.34854102134705	movie	1		169.0	79.0	2.5	/experiments/knapen_aot/videos/R_S_g201_AK_A003_C014_SDR_20191113_SDR_2K_AVC.mp4	0.0	369.05847001075745	2.50844407081604
81	224.8569850921631	fix_post	2		12.0	79.0	2.5	/experiments/knapen_aot/videos/R_S_g201_AK_A003_C014_SDR_20191113_SDR_2K_AVC.mp4	0.0	371.5669140815735	0.0999300479888916
82	224.95691514015198	fix_pre	0		4.0	80.0	2.5	/experiments/knapen_aot/videos/R_S_yt-Y7-umyL036c_507.mp4	0.0	371.6668441295624	0.03326082229614258
82	224.98210406303406	response	0	2		80.0	2.5	/experiments/knapen_aot/videos/R_S_yt-Y7-umyL036c_507.mp4	0.0	371.69203305244446	
82	224.99017596244812	movie	1		301.0	80.0	2.5	/experiments/knapen_aot/videos/R_S_yt-Y7-umyL036c_507.mp4	0.0	371.7001049518585	2.5083470344543457
82	227.49852299690247	fix_post	2		12.0	80.0	2.5	/experiments/knapen_aot/videos/R_S_yt-Y7-umyL036c_507.mp4	0.0	374.20845198631287	0.10007500648498535
83	227.59859800338745	fix_pre	0		38.0	81.0	2.5	/experiments/knapen_aot/videos/S_yt-JVhfcpV7OaY_71.mp4	0.0	374.30852699279785	0.31766414642333984
83	227.90699410438538	response	0	2		81.0	2.5	/experiments/knapen_aot/videos/S_yt-JVhfcpV7OaY_71.mp4	0.0	374.6169230937958	
83	227.9162621498108	movie	1		301.0	81.0	2.5	/experiments/knapen_aot/videos/S_yt-JVhfcpV7OaY_71.mp4	0.0	374.6261911392212	2.5073139667510986
83	230.4235761165619	fix_post	2		12.0	81.0	2.5	/experiments/knapen_aot/videos/S_yt-JVhfcpV7OaY_71.mp4	0.0	377.1335051059723	0.09992384910583496
84	230.52349996566772	fix_pre	0		23.0	82.0	2.5	/experiments/knapen_aot/videos/S_video-2.mp4	0.0	377.2334289550781	0.1917130947113037
84	230.7069971561432	response	0	2		82.0	2.5	/experiments/knapen_aot/videos/S_video-2.mp4	0.0	377.4169261455536	
84	230.71521306037903	movie	1		165.0	82.0	2.5	/experiments/knapen_aot/videos/S_video-2.mp4	0.0	377.42514204978943	2.5084619522094727
84	233.2236750125885	fix_post	2		12.0	82.0	2.5	/experiments/knapen_aot/videos/S_video-2.mp4	0.0	379.9336040019989	0.09996414184570312
85	233.3236391544342	fix_pre	0		7.0	83.0	2.5	blank	1.0	380.0335681438446	0.05823087692260742
85	233.37369394302368	response	0	2		83.0	2.5	blank	1.0	380.0836229324341	
85	233.3818700313568	movie	1		301.0	83.0	2.5	blank	1.0	380.0917990207672	2.5083389282226562
85	235.89020895957947	fix_post	2		12.0	83.0	2.5	blank	1.0	382.60013794898987	0.10004615783691406
87	235.99025511741638	stim	0		38.0					382.7001841068268	0.31661391258239746
87	236.14862704277039	response	0	2						382.8585560321808	
87	236.3031120300293	response	0	space						383.0130410194397	
