trial_nr	onset	event_type	phase	response	nr_frames	movie_index	movie_duration	movie_file	blank	onset_abs	duration
0	0.12495207786560059	stim	0		41.0					62.93940210342407	0.3416759967803955
0	0.458590030670166	response	0	space						63.27304005622864	
1	0.4666280746459961	stim	0		121.0					63.28107810020447	1.0079779624938965
1	1.1918110847473145	response	0	space						64.00626111030579	
1	1.4000179767608643	response	0	space						64.21446800231934	
1	1.4746060371398926	stim	1		120.0					64.28905606269836	1.0000429153442383
1	1.7664520740509033	response	1	space						64.58090209960938	
1	2.141382932662964	response	1	space						64.95583295822144	
2	2.474648952484131	fix_pre	0		3.0	0.0	2.5	/experiments/knapen_aot/videos/S_yt-bmGWhOCsvJo_128.mp4	0.0	65.2890989780426	0.024958133697509766
2	2.4921040534973145	response	0	space		0.0	2.5	/experiments/knapen_aot/videos/S_yt-bmGWhOCsvJo_128.mp4	0.0	65.30655407905579	
2	2.4996070861816406	movie	1		298.0	0.0	2.5	/experiments/knapen_aot/videos/S_yt-bmGWhOCsvJo_128.mp4	0.0	65.31405711174011	2.508307933807373
2	2.5720138549804688	response	1	4		0.0	2.5	/experiments/knapen_aot/videos/S_yt-bmGWhOCsvJo_128.mp4	0.0	65.38646388053894	
2	5.007915019989014	fix_post	2		12.0	0.0	2.5	/experiments/knapen_aot/videos/S_yt-bmGWhOCsvJo_128.mp4	0.0	67.82236504554749	0.09997701644897461
3	5.107892036437988	fix_pre	0		175.0	1.0	2.5	/experiments/knapen_aot/videos/S_ILSVRC2015_train_00599000.mp4	0.0	67.92234206199646	1.4583868980407715
3	6.025498867034912	response	0	3		1.0	2.5	/experiments/knapen_aot/videos/S_ILSVRC2015_train_00599000.mp4	0.0	68.83994889259338	
3	6.558053016662598	response	0	4		1.0	2.5	/experiments/knapen_aot/videos/S_ILSVRC2015_train_00599000.mp4	0.0	69.37250304222107	
3	6.56627893447876	movie	1		301.0	1.0	2.5	/experiments/knapen_aot/videos/S_ILSVRC2015_train_00599000.mp4	0.0	69.38072896003723	2.508392095565796
3	9.074671030044556	fix_post	2		12.0	1.0	2.5	/experiments/knapen_aot/videos/S_ILSVRC2015_train_00599000.mp4	0.0	71.88912105560303	0.09994792938232422
4	9.17461895942688	fix_pre	0		25.0	2.0	2.5	/experiments/knapen_aot/videos/S_yt-Fci3dBzt2T4_223.mp4	0.0	71.98906898498535	0.20829391479492188
4	9.36735987663269	response	0	4		2.0	2.5	/experiments/knapen_aot/videos/S_yt-Fci3dBzt2T4_223.mp4	0.0	72.18180990219116	
4	9.382912874221802	movie	1		301.0	2.0	2.5	/experiments/knapen_aot/videos/S_yt-Fci3dBzt2T4_223.mp4	0.0	72.19736289978027	2.508268117904663
4	11.891180992126465	fix_post	2		12.0	2.0	2.5	/experiments/knapen_aot/videos/S_yt-Fci3dBzt2T4_223.mp4	0.0	74.70563101768494	0.10011601448059082
5	11.991297006607056	fix_pre	0		15.0	3.0	2.5	/experiments/knapen_aot/videos/S_yt-nYi_FfCjepk_74.mp4	0.0	74.80574703216553	0.12566804885864258
5	12.108037948608398	response	0	4		3.0	2.5	/experiments/knapen_aot/videos/S_yt-nYi_FfCjepk_74.mp4	0.0	74.92248797416687	
5	12.116965055465698	movie	1		301.0	3.0	2.5	/experiments/knapen_aot/videos/S_yt-nYi_FfCjepk_74.mp4	0.0	74.93141508102417	2.5076358318328857
5	14.624600887298584	fix_post	2		12.0	3.0	2.5	/experiments/knapen_aot/videos/S_yt-nYi_FfCjepk_74.mp4	0.0	77.43905091285706	0.09995818138122559
6	14.72455906867981	fix_pre	0		17.0	4.0	2.5	/experiments/knapen_aot/videos/R_S_pexels-koolshooters-7689098.mp4	0.0	77.53900909423828	0.14241695404052734
6	14.858033895492554	response	0	4		4.0	2.5	/experiments/knapen_aot/videos/R_S_pexels-koolshooters-7689098.mp4	0.0	77.67248392105103	
6	14.866976022720337	movie	1		163.0	4.0	2.5	/experiments/knapen_aot/videos/R_S_pexels-koolshooters-7689098.mp4	0.0	77.68142604827881	2.507601022720337
6	16.57479691505432	response	1	4		4.0	2.5	/experiments/knapen_aot/videos/R_S_pexels-koolshooters-7689098.mp4	0.0	79.3892469406128	
6	17.299678087234497	response	1	4		4.0	2.5	/experiments/knapen_aot/videos/R_S_pexels-koolshooters-7689098.mp4	0.0	80.11412811279297	
6	17.374577045440674	fix_post	2		12.0	4.0	2.5	/experiments/knapen_aot/videos/R_S_pexels-koolshooters-7689098.mp4	0.0	80.18902707099915	0.09998083114624023
7	17.474557876586914	fix_pre	0		35.0	5.0	2.5	/experiments/knapen_aot/videos/R_S_yt-4r-oovk9JWg_85.mp4	0.0	80.28900790214539	0.29163503646850586
7	17.75797700881958	response	0	4		5.0	2.5	/experiments/knapen_aot/videos/R_S_yt-4r-oovk9JWg_85.mp4	0.0	80.57242703437805	
7	17.76619291305542	movie	1		301.0	5.0	2.5	/experiments/knapen_aot/videos/R_S_yt-4r-oovk9JWg_85.mp4	0.0	80.58064293861389	2.508352041244507
7	20.274544954299927	fix_post	2		12.0	5.0	2.5	/experiments/knapen_aot/videos/R_S_yt-4r-oovk9JWg_85.mp4	0.0	83.0889949798584	0.09995102882385254
8	20.37449598312378	fix_pre	0		19.0	6.0	2.5	blank	1.0	83.18894600868225	0.15899991989135742
8	20.524707078933716	response	0	4		6.0	2.5	blank	1.0	83.33915710449219	
8	20.533495903015137	movie	1		301.0	6.0	2.5	blank	1.0	83.34794592857361	2.507775068283081
8	23.041270971298218	fix_post	2		12.0	6.0	2.5	blank	1.0	85.85572099685669	0.09992694854736328
9	23.14119791984558	fix_pre	0		22.0	7.0	2.5	/experiments/knapen_aot/videos/R_S_yt-GWOOQZ19-oU_331.mp4	0.0	85.95564794540405	0.1839280128479004
9	23.31626605987549	response	0	4		7.0	2.5	/experiments/knapen_aot/videos/R_S_yt-GWOOQZ19-oU_331.mp4	0.0	86.13071608543396	
9	23.32512593269348	movie	1		301.0	7.0	2.5	/experiments/knapen_aot/videos/R_S_yt-GWOOQZ19-oU_331.mp4	0.0	86.13957595825195	2.507758140563965
9	25.401705980300903	response	1	4		7.0	2.5	/experiments/knapen_aot/videos/R_S_yt-GWOOQZ19-oU_331.mp4	0.0	88.21615600585938	
9	25.832884073257446	fix_post	2		12.0	7.0	2.5	/experiments/knapen_aot/videos/R_S_yt-GWOOQZ19-oU_331.mp4	0.0	88.64733409881592	0.09995889663696289
10	25.93284296989441	fix_pre	0		20.0	8.0	2.5	/experiments/knapen_aot/videos/S_yt-7K5X1G7Cpls_965.mp4	0.0	88.74729299545288	0.16662096977233887
10	26.0837459564209	response	0	4		8.0	2.5	/experiments/knapen_aot/videos/S_yt-7K5X1G7Cpls_965.mp4	0.0	88.89819598197937	
10	26.099463939666748	movie	1		299.0	8.0	2.5	/experiments/knapen_aot/videos/S_yt-7K5X1G7Cpls_965.mp4	0.0	88.91391396522522	2.508368968963623
10	28.60783290863037	fix_post	2		12.0	8.0	2.5	/experiments/knapen_aot/videos/S_yt-7K5X1G7Cpls_965.mp4	0.0	91.42228293418884	0.09998202323913574
11	28.707814931869507	fix_pre	0		24.0	9.0	2.5	/experiments/knapen_aot/videos/S_production_ID_3923518.mp4	0.0	91.52226495742798	0.200606107711792
11	28.89966607093811	response	0	4		9.0	2.5	/experiments/knapen_aot/videos/S_production_ID_3923518.mp4	0.0	91.71411609649658	
11	28.9084210395813	movie	1		162.0	9.0	2.5	/experiments/knapen_aot/videos/S_production_ID_3923518.mp4	0.0	91.72287106513977	2.507783889770508
11	31.416204929351807	fix_post	2		12.0	9.0	2.5	/experiments/knapen_aot/videos/S_production_ID_3923518.mp4	0.0	94.23065495491028	0.09997010231018066
12	31.516175031661987	fix_pre	0		22.0	10.0	2.5	/experiments/knapen_aot/videos/R_S_yt-osz-TXlRdXs_2.mp4	0.0	94.33062505722046	0.19161486625671387
12	31.699687957763672	response	0	4		10.0	2.5	/experiments/knapen_aot/videos/R_S_yt-osz-TXlRdXs_2.mp4	0.0	94.51413798332214	
12	31.7077898979187	movie	1		301.0	10.0	2.5	/experiments/knapen_aot/videos/R_S_yt-osz-TXlRdXs_2.mp4	0.0	94.52223992347717	2.5083529949188232
12	33.60298800468445	response	1	4		10.0	2.5	/experiments/knapen_aot/videos/R_S_yt-osz-TXlRdXs_2.mp4	0.0	96.41743803024292	
12	34.216142892837524	fix_post	2		12.0	10.0	2.5	/experiments/knapen_aot/videos/R_S_yt-osz-TXlRdXs_2.mp4	0.0	97.030592918396	0.09995317459106445
13	34.31609606742859	fix_pre	0		8.0	11.0	2.5	/experiments/knapen_aot/videos/R_S_yt-G_eNNzNB-hU_1.mp4	0.0	97.13054609298706	0.06668591499328613
13	34.37461495399475	response	0	4		11.0	2.5	/experiments/knapen_aot/videos/R_S_yt-G_eNNzNB-hU_1.mp4	0.0	97.18906497955322	
13	34.382781982421875	movie	1		301.0	11.0	2.5	/experiments/knapen_aot/videos/R_S_yt-G_eNNzNB-hU_1.mp4	0.0	97.19723200798035	2.508358955383301
13	36.882896900177	response	1	4		11.0	2.5	/experiments/knapen_aot/videos/R_S_yt-G_eNNzNB-hU_1.mp4	0.0	99.69734692573547	
13	36.891140937805176	fix_post	2		12.0	11.0	2.5	/experiments/knapen_aot/videos/R_S_yt-G_eNNzNB-hU_1.mp4	0.0	99.70559096336365	0.10002613067626953
14	36.991167068481445	fix_pre	0		49.0	12.0	2.5	/experiments/knapen_aot/videos/S_ILSVRC2015_train_00324001.mp4	0.0	99.80561709403992	0.4082779884338379
14	37.39124894142151	response	0	4		12.0	2.5	/experiments/knapen_aot/videos/S_ILSVRC2015_train_00324001.mp4	0.0	100.20569896697998	
14	37.39944505691528	movie	1		301.0	12.0	2.5	/experiments/knapen_aot/videos/S_ILSVRC2015_train_00324001.mp4	0.0	100.21389508247375	2.5083940029144287
14	39.90783905982971	fix_post	2		12.0	12.0	2.5	/experiments/knapen_aot/videos/S_ILSVRC2015_train_00324001.mp4	0.0	102.72228908538818	0.09999489784240723
15	40.00783395767212	fix_pre	0		1.0	13.0	2.5	/experiments/knapen_aot/videos/R_S_Y003_C009_SDR_2K_AVC.mp4	0.0	102.82228398323059	0.008400917053222656
15	40.00955104827881	response	0	4		13.0	2.5	/experiments/knapen_aot/videos/R_S_Y003_C009_SDR_2K_AVC.mp4	0.0	102.82400107383728	
15	40.01623487472534	movie	1		175.0	13.0	2.5	/experiments/knapen_aot/videos/R_S_Y003_C009_SDR_2K_AVC.mp4	0.0	102.83068490028381	2.5082170963287354
15	41.86628699302673	response	1	4		13.0	2.5	/experiments/knapen_aot/videos/R_S_Y003_C009_SDR_2K_AVC.mp4	0.0	104.6807370185852	
15	42.457902908325195	response	1	4		13.0	2.5	/experiments/knapen_aot/videos/R_S_Y003_C009_SDR_2K_AVC.mp4	0.0	105.27235293388367	
15	42.52445197105408	fix_post	2		12.0	13.0	2.5	/experiments/knapen_aot/videos/R_S_Y003_C009_SDR_2K_AVC.mp4	0.0	105.33890199661255	0.10004806518554688
16	42.624500036239624	fix_pre	0		33.0	14.0	2.5	blank	1.0	105.4389500617981	0.27498388290405273
16	42.89118003845215	response	0	4		14.0	2.5	blank	1.0	105.70563006401062	
16	42.89948391914368	movie	1		301.0	14.0	2.5	blank	1.0	105.71393394470215	2.508345127105713
16	45.04956007003784	response	1	4		14.0	2.5	blank	1.0	107.86401009559631	
16	45.40782904624939	fix_post	2		12.0	14.0	2.5	blank	1.0	108.22227907180786	0.09997081756591797
17	45.50779986381531	fix_pre	0		19.0	15.0	2.5	/experiments/knapen_aot/videos/R_S_yt-thmqgEV-sYY_91.mp4	0.0	108.32224988937378	0.15834903717041016
17	45.650583028793335	response	0	4		15.0	2.5	/experiments/knapen_aot/videos/R_S_yt-thmqgEV-sYY_91.mp4	0.0	108.4650330543518	
17	45.66614890098572	movie	1		301.0	15.0	2.5	/experiments/knapen_aot/videos/R_S_yt-thmqgEV-sYY_91.mp4	0.0	108.48059892654419	2.5083229541778564
17	48.174471855163574	fix_post	2		12.0	15.0	2.5	/experiments/knapen_aot/videos/R_S_yt-thmqgEV-sYY_91.mp4	0.0	110.98892188072205	0.099945068359375
18	48.27441692352295	fix_pre	0		30.0	16.0	2.5	/experiments/knapen_aot/videos/R_S_1y-EvnfGO9Y_70.mp4	0.0	111.08886694908142	0.25000715255737305
18	48.51621890068054	response	0	4		16.0	2.5	/experiments/knapen_aot/videos/R_S_1y-EvnfGO9Y_70.mp4	0.0	111.33066892623901	
18	48.52442407608032	movie	1		301.0	16.0	2.5	/experiments/knapen_aot/videos/R_S_1y-EvnfGO9Y_70.mp4	0.0	111.3388741016388	2.5083389282226562
18	51.03276300430298	fix_post	2		12.0	16.0	2.5	/experiments/knapen_aot/videos/R_S_1y-EvnfGO9Y_70.mp4	0.0	113.84721302986145	0.09990501403808594
19	51.132668018341064	fix_pre	0		34.0	17.0	2.5	/experiments/knapen_aot/videos/S_yt-QXsedpZh800_275.mp4	0.0	113.94711804389954	0.2834360599517822
19	51.40787386894226	response	0	4		17.0	2.5	/experiments/knapen_aot/videos/S_yt-QXsedpZh800_275.mp4	0.0	114.22232389450073	
19	51.41610407829285	movie	1		301.0	17.0	2.5	/experiments/knapen_aot/videos/S_yt-QXsedpZh800_275.mp4	0.0	114.23055410385132	2.5083329677581787
19	53.899569034576416	response	1	4		17.0	2.5	/experiments/knapen_aot/videos/S_yt-QXsedpZh800_275.mp4	0.0	116.71401906013489	
19	53.924437046051025	fix_post	2		12.0	17.0	2.5	/experiments/knapen_aot/videos/S_yt-QXsedpZh800_275.mp4	0.0	116.7388870716095	0.09991788864135742
20	54.02435493469238	fix_pre	0		42.0	18.0	2.5	/experiments/knapen_aot/videos/S_yt-SCzpSxzt0TA_46.mp4	0.0	116.83880496025085	0.35001206398010254
20	54.36618399620056	response	0	4		18.0	2.5	/experiments/knapen_aot/videos/S_yt-SCzpSxzt0TA_46.mp4	0.0	117.18063402175903	
20	54.374366998672485	movie	1		301.0	18.0	2.5	/experiments/knapen_aot/videos/S_yt-SCzpSxzt0TA_46.mp4	0.0	117.18881702423096	2.508319854736328
20	56.88268685340881	fix_post	2		12.0	18.0	2.5	/experiments/knapen_aot/videos/S_yt-SCzpSxzt0TA_46.mp4	0.0	119.69713687896729	0.10001921653747559
21	56.98270606994629	fix_pre	0		52.0	19.0	2.5	/experiments/knapen_aot/videos/S_yt-fQGoTMausn8_88.mp4	0.0	119.79715609550476	0.4333457946777344
21	57.40787887573242	response	0	4		19.0	2.5	/experiments/knapen_aot/videos/S_yt-fQGoTMausn8_88.mp4	0.0	120.2223289012909	
21	57.41605186462402	movie	1		301.0	19.0	2.5	/experiments/knapen_aot/videos/S_yt-fQGoTMausn8_88.mp4	0.0	120.2305018901825	2.5083000659942627
21	59.5528519153595	response	1	4		19.0	2.5	/experiments/knapen_aot/videos/S_yt-fQGoTMausn8_88.mp4	0.0	122.36730194091797	
21	59.924351930618286	fix_post	2		12.0	19.0	2.5	/experiments/knapen_aot/videos/S_yt-fQGoTMausn8_88.mp4	0.0	122.73880195617676	0.10007405281066895
22	60.024425983428955	fix_pre	0		61.0	20.0	2.5	blank	1.0	122.83887600898743	0.5087480545043945
22	60.524539947509766	response	0	4		20.0	2.5	blank	1.0	123.33898997306824	
22	60.53317403793335	movie	1		301.0	20.0	2.5	blank	1.0	123.34762406349182	2.5078649520874023
22	62.774537086486816	response	1	4		20.0	2.5	blank	1.0	125.58898711204529	
22	63.04103899002075	fix_post	2		12.0	20.0	2.5	blank	1.0	125.85548901557922	0.10001707077026367
23	63.141056060791016	fix_pre	0		32.0	21.0	2.5	/experiments/knapen_aot/videos/S_yt-OFbbvxTLrtM_132.mp4	0.0	125.95550608634949	0.26705288887023926
23	63.39946889877319	response	0	4		21.0	2.5	/experiments/knapen_aot/videos/S_yt-OFbbvxTLrtM_132.mp4	0.0	126.21391892433167	
23	63.408108949661255	movie	1		301.0	21.0	2.5	/experiments/knapen_aot/videos/S_yt-OFbbvxTLrtM_132.mp4	0.0	126.22255897521973	2.5078940391540527
23	65.91600298881531	fix_post	2		12.0	21.0	2.5	/experiments/knapen_aot/videos/S_yt-OFbbvxTLrtM_132.mp4	0.0	128.73045301437378	0.1000518798828125
24	66.01605486869812	fix_pre	0		40.0	22.0	2.5	/experiments/knapen_aot/videos/S_yt-GOgS--rzmKQ_51.mp4	0.0	128.8305048942566	0.3333871364593506
24	66.34116792678833	response	0	4		22.0	2.5	/experiments/knapen_aot/videos/S_yt-GOgS--rzmKQ_51.mp4	0.0	129.1556179523468	
24	66.34944200515747	movie	1		300.0	22.0	2.5	/experiments/knapen_aot/videos/S_yt-GOgS--rzmKQ_51.mp4	0.0	129.16389203071594	2.50819993019104
24	68.45308494567871	response	1	4		22.0	2.5	/experiments/knapen_aot/videos/S_yt-GOgS--rzmKQ_51.mp4	0.0	131.26753497123718	
24	68.85764193534851	fix_post	2		12.0	22.0	2.5	/experiments/knapen_aot/videos/S_yt-GOgS--rzmKQ_51.mp4	0.0	131.67209196090698	0.10003900527954102
25	68.95768094062805	fix_pre	0		12.0	23.0	2.5	/experiments/knapen_aot/videos/R_S_yt-3ohvpS42xug_184.mp4	0.0	131.77213096618652	0.10002303123474121
25	69.04959201812744	response	0	4		23.0	2.5	/experiments/knapen_aot/videos/R_S_yt-3ohvpS42xug_184.mp4	0.0	131.8640420436859	
25	69.0577039718628	movie	1		301.0	23.0	2.5	/experiments/knapen_aot/videos/R_S_yt-3ohvpS42xug_184.mp4	0.0	131.87215399742126	2.5083839893341064
25	71.34113097190857	response	1	4		23.0	2.5	/experiments/knapen_aot/videos/R_S_yt-3ohvpS42xug_184.mp4	0.0	134.15558099746704	
25	71.5660879611969	fix_post	2		12.0	23.0	2.5	/experiments/knapen_aot/videos/R_S_yt-3ohvpS42xug_184.mp4	0.0	134.38053798675537	0.09996891021728516
26	71.66605687141418	fix_pre	0		115.0	24.0	2.5	/experiments/knapen_aot/videos/R_S_Pexels_Videos_2795736.mp4	0.0	134.48050689697266	0.9583079814910889
26	72.60868406295776	response	0	4		24.0	2.5	/experiments/knapen_aot/videos/R_S_Pexels_Videos_2795736.mp4	0.0	135.42313408851624	
26	72.62436485290527	movie	1		164.0	24.0	2.5	/experiments/knapen_aot/videos/R_S_Pexels_Videos_2795736.mp4	0.0	135.43881487846375	2.5083560943603516
26	75.13272094726562	fix_post	2		12.0	24.0	2.5	/experiments/knapen_aot/videos/R_S_Pexels_Videos_2795736.mp4	0.0	137.9471709728241	0.0999910831451416
27	75.23271203041077	fix_pre	0		10.0	25.0	2.5	/experiments/knapen_aot/videos/S_yt-3ohvpS42xug_184.mp4	0.0	138.04716205596924	0.08502888679504395
27	75.30808806419373	response	0	4		25.0	2.5	/experiments/knapen_aot/videos/S_yt-3ohvpS42xug_184.mp4	0.0	138.1225380897522	
27	75.31774091720581	movie	1		301.0	25.0	2.5	/experiments/knapen_aot/videos/S_yt-3ohvpS42xug_184.mp4	0.0	138.13219094276428	2.5069611072540283
27	77.82470202445984	fix_post	2		12.0	25.0	2.5	/experiments/knapen_aot/videos/S_yt-3ohvpS42xug_184.mp4	0.0	140.6391520500183	0.09965395927429199
28	77.92435598373413	fix_pre	0		20.0	26.0	2.5	/experiments/knapen_aot/videos/S_pexels-diva-plavalaguna-6985395_1.mp4	0.0	140.7388060092926	0.1666710376739502
28	78.08276700973511	response	0	4		26.0	2.5	/experiments/knapen_aot/videos/S_pexels-diva-plavalaguna-6985395_1.mp4	0.0	140.89721703529358	
28	78.09102702140808	movie	1		164.0	26.0	2.5	/experiments/knapen_aot/videos/S_pexels-diva-plavalaguna-6985395_1.mp4	0.0	140.90547704696655	2.5083119869232178
28	80.24124908447266	response	1	4		26.0	2.5	/experiments/knapen_aot/videos/S_pexels-diva-plavalaguna-6985395_1.mp4	0.0	143.05569911003113	
28	80.5993390083313	fix_post	2		12.0	26.0	2.5	/experiments/knapen_aot/videos/S_pexels-diva-plavalaguna-6985395_1.mp4	0.0	143.41378903388977	0.09987592697143555
29	80.69921493530273	fix_pre	0		76.0	27.0	2.5	/experiments/knapen_aot/videos/R_S_ILSVRC2015_train_00371013.mp4	0.0	143.5136649608612	0.6334519386291504
29	81.32445502281189	response	0	4		27.0	2.5	/experiments/knapen_aot/videos/R_S_ILSVRC2015_train_00371013.mp4	0.0	144.13890504837036	
29	81.33266687393188	movie	1		301.0	27.0	2.5	/experiments/knapen_aot/videos/R_S_ILSVRC2015_train_00371013.mp4	0.0	144.14711689949036	2.508331060409546
29	83.84099793434143	fix_post	2		12.0	27.0	2.5	/experiments/knapen_aot/videos/R_S_ILSVRC2015_train_00371013.mp4	0.0	146.6554479598999	0.09995698928833008
30	83.94095492362976	fix_pre	0		15.0	28.0	2.5	blank	1.0	146.75540494918823	0.12493205070495605
30	84.05775308609009	response	0	4		28.0	2.5	blank	1.0	146.87220311164856	
30	84.06588697433472	movie	1		301.0	28.0	2.5	blank	1.0	146.8803369998932	2.508413076400757
30	86.57430005073547	fix_post	2		12.0	28.0	2.5	blank	1.0	149.38875007629395	0.09996700286865234
31	86.67426705360413	fix_pre	0		44.0	29.0	2.5	/experiments/knapen_aot/videos/S_yt-d5jBQ-LOW2I_17.mp4	0.0	149.4887170791626	0.36665987968444824
31	87.0327820777893	response	0	4		29.0	2.5	/experiments/knapen_aot/videos/S_yt-d5jBQ-LOW2I_17.mp4	0.0	149.84723210334778	
31	87.04092693328857	movie	1		300.0	29.0	2.5	/experiments/knapen_aot/videos/S_yt-d5jBQ-LOW2I_17.mp4	0.0	149.85537695884705	2.508291006088257
31	89.54921793937683	fix_post	2		12.0	29.0	2.5	/experiments/knapen_aot/videos/S_yt-d5jBQ-LOW2I_17.mp4	0.0	152.3636679649353	0.10004711151123047
32	89.64926505088806	fix_pre	0		35.0	30.0	2.5	/experiments/knapen_aot/videos/R_S_pexels-koolshooters-7689098.mp4	0.0	152.46371507644653	0.29166197776794434
32	89.93271994590759	response	0	4		30.0	2.5	/experiments/knapen_aot/videos/R_S_pexels-koolshooters-7689098.mp4	0.0	152.74716997146606	
32	89.940927028656	movie	1		164.0	30.0	2.5	/experiments/knapen_aot/videos/R_S_pexels-koolshooters-7689098.mp4	0.0	152.75537705421448	2.5082578659057617
32	91.96674394607544	response	1	4		30.0	2.5	/experiments/knapen_aot/videos/R_S_pexels-koolshooters-7689098.mp4	0.0	154.7811939716339	
32	92.44918489456177	fix_post	2		12.0	30.0	2.5	/experiments/knapen_aot/videos/R_S_pexels-koolshooters-7689098.mp4	0.0	155.26363492012024	0.10008502006530762
33	92.54926991462708	fix_pre	0		33.0	31.0	2.5	/experiments/knapen_aot/videos/S_yt-6B69qmkEdTI_1.mp4	0.0	155.36371994018555	0.275191068649292
33	92.81595301628113	response	0	4		31.0	2.5	/experiments/knapen_aot/videos/S_yt-6B69qmkEdTI_1.mp4	0.0	155.6304030418396	
33	92.82446098327637	movie	1		300.0	31.0	2.5	/experiments/knapen_aot/videos/S_yt-6B69qmkEdTI_1.mp4	0.0	155.63891100883484	2.508111000061035
33	95.3325719833374	fix_post	2		12.0	31.0	2.5	/experiments/knapen_aot/videos/S_yt-6B69qmkEdTI_1.mp4	0.0	158.14702200889587	0.09993410110473633
34	95.43250608444214	fix_pre	0		20.0	32.0	2.5	/experiments/knapen_aot/videos/S_yt-jcuaf9iSEkI_169.mp4	0.0	158.2469561100006	0.16662883758544922
34	95.59111285209656	response	0	4		32.0	2.5	/experiments/knapen_aot/videos/S_yt-jcuaf9iSEkI_169.mp4	0.0	158.40556287765503	
34	95.59913492202759	movie	1		301.0	32.0	2.5	/experiments/knapen_aot/videos/S_yt-jcuaf9iSEkI_169.mp4	0.0	158.41358494758606	2.508363962173462
34	98.10749888420105	fix_post	2		12.0	32.0	2.5	/experiments/knapen_aot/videos/S_yt-jcuaf9iSEkI_169.mp4	0.0	160.92194890975952	0.10007405281066895
35	98.20757293701172	fix_pre	0		28.0	33.0	2.5	/experiments/knapen_aot/videos/S_yt-ZYrQIw9VUok_111.mp4	0.0	161.0220229625702	0.2333059310913086
35	98.43266487121582	response	0	4		33.0	2.5	/experiments/knapen_aot/videos/S_yt-ZYrQIw9VUok_111.mp4	0.0	161.2471148967743	
35	98.44087886810303	movie	1		301.0	33.0	2.5	/experiments/knapen_aot/videos/S_yt-ZYrQIw9VUok_111.mp4	0.0	161.2553288936615	2.5082931518554688
35	100.9491720199585	fix_post	2		12.0	33.0	2.5	/experiments/knapen_aot/videos/S_yt-ZYrQIw9VUok_111.mp4	0.0	163.76362204551697	0.10001993179321289
36	101.04919195175171	fix_pre	0		54.0	34.0	2.5	/experiments/knapen_aot/videos/R_S_yt-thmqgEV-sYY_91.mp4	0.0	163.86364197731018	0.44999003410339355
36	101.49093294143677	response	0	4		34.0	2.5	/experiments/knapen_aot/videos/R_S_yt-thmqgEV-sYY_91.mp4	0.0	164.30538296699524	
36	101.4991819858551	movie	1		301.0	34.0	2.5	/experiments/knapen_aot/videos/R_S_yt-thmqgEV-sYY_91.mp4	0.0	164.31363201141357	2.5083489418029785
36	104.00753092765808	fix_post	2		12.0	34.0	2.5	/experiments/knapen_aot/videos/R_S_yt-thmqgEV-sYY_91.mp4	0.0	166.82198095321655	0.0999901294708252
37	104.1075210571289	fix_pre	0		30.0	35.0	2.5	blank	1.0	166.92197108268738	0.2500269412994385
37	104.34943103790283	response	0	4		35.0	2.5	blank	1.0	167.1638810634613	
37	104.35754799842834	movie	1		301.0	35.0	2.5	blank	1.0	167.17199802398682	2.508470058441162
37	106.83261704444885	response	1	4		35.0	2.5	blank	1.0	169.64706707000732	
37	106.8660180568695	fix_post	2		12.0	35.0	2.5	blank	1.0	169.68046808242798	0.0998070240020752
38	106.96582508087158	fix_pre	0		36.0	36.0	2.5	/experiments/knapen_aot/videos/S_yt-VxTTEZNJWjs_110.mp4	0.0	169.78027510643005	0.2999579906463623
38	107.25764203071594	response	0	4		36.0	2.5	/experiments/knapen_aot/videos/S_yt-VxTTEZNJWjs_110.mp4	0.0	170.0720920562744	
38	107.26578307151794	movie	1		301.0	36.0	2.5	/experiments/knapen_aot/videos/S_yt-VxTTEZNJWjs_110.mp4	0.0	170.08023309707642	2.508543014526367
38	109.77432608604431	fix_post	2		12.0	36.0	2.5	/experiments/knapen_aot/videos/S_yt-VxTTEZNJWjs_110.mp4	0.0	172.58877611160278	0.09980392456054688
39	109.87413001060486	fix_pre	0		32.0	37.0	2.5	/experiments/knapen_aot/videos/R_S_yt-xKteiAi5h7Q_36.mp4	0.0	172.68858003616333	0.26661086082458496
39	110.1326310634613	response	0	4		37.0	2.5	/experiments/knapen_aot/videos/R_S_yt-xKteiAi5h7Q_36.mp4	0.0	172.94708108901978	
39	110.14074087142944	movie	1		301.0	37.0	2.5	/experiments/knapen_aot/videos/R_S_yt-xKteiAi5h7Q_36.mp4	0.0	172.95519089698792	2.508345127105713
39	112.64908599853516	fix_post	2		12.0	37.0	2.5	/experiments/knapen_aot/videos/R_S_yt-xKteiAi5h7Q_36.mp4	0.0	175.46353602409363	0.10012698173522949
40	112.74921298027039	fix_pre	0		17.0	38.0	2.5	/experiments/knapen_aot/videos/S_yt-kNZUFy3cbjQ_9.mp4	0.0	175.56366300582886	0.14161992073059082
40	112.88257789611816	response	0	4		38.0	2.5	/experiments/knapen_aot/videos/S_yt-kNZUFy3cbjQ_9.mp4	0.0	175.69702792167664	
40	112.89083290100098	movie	1		301.0	38.0	2.5	/experiments/knapen_aot/videos/S_yt-kNZUFy3cbjQ_9.mp4	0.0	175.70528292655945	2.5083301067352295
40	115.3991630077362	fix_post	2		12.0	38.0	2.5	/experiments/knapen_aot/videos/S_yt-kNZUFy3cbjQ_9.mp4	0.0	178.21361303329468	0.10002589225769043
41	115.4991888999939	fix_pre	0		5.0	39.0	2.5	/experiments/knapen_aot/videos/R_S_yt-eF5J5Kjt6oY_23.mp4	0.0	178.31363892555237	0.04167008399963379
41	115.53291893005371	response	0	4		39.0	2.5	/experiments/knapen_aot/videos/R_S_yt-eF5J5Kjt6oY_23.mp4	0.0	178.34736895561218	
41	115.54085898399353	movie	1		301.0	39.0	2.5	/experiments/knapen_aot/videos/R_S_yt-eF5J5Kjt6oY_23.mp4	0.0	178.355309009552	2.5082879066467285
41	118.04914689064026	fix_post	2		12.0	39.0	2.5	/experiments/knapen_aot/videos/R_S_yt-eF5J5Kjt6oY_23.mp4	0.0	180.86359691619873	0.09997296333312988
42	118.14911985397339	fix_pre	0		36.0	40.0	2.5	/experiments/knapen_aot/videos/R_S_pexels-rodnae-productions-5993671.mp4	0.0	180.96356987953186	0.3001232147216797
42	118.4409408569336	response	0	4		40.0	2.5	/experiments/knapen_aot/videos/R_S_pexels-rodnae-productions-5993671.mp4	0.0	181.25539088249207	
42	118.44924306869507	movie	1		163.0	40.0	2.5	/experiments/knapen_aot/videos/R_S_pexels-rodnae-productions-5993671.mp4	0.0	181.26369309425354	2.5082218647003174
42	120.95746493339539	fix_post	2		12.0	40.0	2.5	/experiments/knapen_aot/videos/R_S_pexels-rodnae-productions-5993671.mp4	0.0	183.77191495895386	0.10003399848937988
43	121.05749893188477	fix_pre	0		10.0	41.0	2.5	/experiments/knapen_aot/videos/R_S_production_ID_4325516.mp4	0.0	183.87194895744324	0.0833439826965332
43	121.13287496566772	response	0	4		41.0	2.5	/experiments/knapen_aot/videos/R_S_production_ID_4325516.mp4	0.0	183.9473249912262	
43	121.1408429145813	movie	1		182.0	41.0	2.5	/experiments/knapen_aot/videos/R_S_production_ID_4325516.mp4	0.0	183.95529294013977	2.508239984512329
43	122.38112688064575	response	1	4		41.0	2.5	/experiments/knapen_aot/videos/R_S_production_ID_4325516.mp4	0.0	185.19557690620422	
43	122.9650809764862	response	1	4		41.0	2.5	/experiments/knapen_aot/videos/R_S_production_ID_4325516.mp4	0.0	185.77953100204468	
43	123.64908289909363	fix_post	2		12.0	41.0	2.5	/experiments/knapen_aot/videos/R_S_production_ID_4325516.mp4	0.0	186.4635329246521	0.10001707077026367
43	123.69087386131287	response	2	4		41.0	2.5	/experiments/knapen_aot/videos/R_S_production_ID_4325516.mp4	0.0	186.50532388687134	
44	123.74909996986389	fix_pre	0		53.0	42.0	2.5	blank	1.0	186.56354999542236	0.44162607192993164
44	124.18259501457214	response	0	4		42.0	2.5	blank	1.0	186.99704504013062	
44	124.19072604179382	movie	1		301.0	42.0	2.5	blank	1.0	187.0051760673523	2.508462905883789
44	126.69918894767761	fix_post	2		12.0	42.0	2.5	blank	1.0	189.51363897323608	0.09990596771240234
45	126.79909491539001	fix_pre	0		22.0	43.0	2.5	/experiments/knapen_aot/videos/R_S_yt-cjndulbUtRc_51.mp4	0.0	189.6135449409485	0.18331694602966309
45	126.97426700592041	response	0	4		43.0	2.5	/experiments/knapen_aot/videos/R_S_yt-cjndulbUtRc_51.mp4	0.0	189.78871703147888	
45	126.98241186141968	movie	1		300.0	43.0	2.5	/experiments/knapen_aot/videos/R_S_yt-cjndulbUtRc_51.mp4	0.0	189.79686188697815	2.5084071159362793
45	129.49081897735596	fix_post	2		12.0	43.0	2.5	/experiments/knapen_aot/videos/R_S_yt-cjndulbUtRc_51.mp4	0.0	192.30526900291443	0.09991693496704102
46	129.590735912323	fix_pre	0		18.0	44.0	2.5	/experiments/knapen_aot/videos/R_S_flickr-csgzs-8144064966_10.mp4	0.0	192.40518593788147	0.1500101089477539
46	129.72496891021729	response	0	4		44.0	2.5	/experiments/knapen_aot/videos/R_S_flickr-csgzs-8144064966_10.mp4	0.0	192.53941893577576	
46	129.74074602127075	movie	1		301.0	44.0	2.5	/experiments/knapen_aot/videos/R_S_flickr-csgzs-8144064966_10.mp4	0.0	192.55519604682922	2.508357048034668
46	132.24910306930542	fix_post	2		12.0	44.0	2.5	/experiments/knapen_aot/videos/R_S_flickr-csgzs-8144064966_10.mp4	0.0	195.0635530948639	0.09996795654296875
47	132.3490710258484	fix_pre	0		16.0	45.0	2.5	/experiments/knapen_aot/videos/R_S_yt-FoO02U39gy4_398.mp4	0.0	195.16352105140686	0.13328194618225098
47	132.47406387329102	response	0	4		45.0	2.5	/experiments/knapen_aot/videos/R_S_yt-FoO02U39gy4_398.mp4	0.0	195.2885138988495	
47	132.48235297203064	movie	1		301.0	45.0	2.5	/experiments/knapen_aot/videos/R_S_yt-FoO02U39gy4_398.mp4	0.0	195.2968029975891	2.5083999633789062
47	134.99075293540955	fix_post	2		12.0	45.0	2.5	/experiments/knapen_aot/videos/R_S_yt-FoO02U39gy4_398.mp4	0.0	197.80520296096802	0.09993910789489746
48	135.09069204330444	fix_pre	0		38.0	46.0	2.5	/experiments/knapen_aot/videos/S_yt-GWOOQZ19-oU_331.mp4	0.0	197.90514206886292	0.3166530132293701
48	135.39923787117004	response	0	4		46.0	2.5	/experiments/knapen_aot/videos/S_yt-GWOOQZ19-oU_331.mp4	0.0	198.21368789672852	
48	135.4073450565338	movie	1		301.0	46.0	2.5	/experiments/knapen_aot/videos/S_yt-GWOOQZ19-oU_331.mp4	0.0	198.22179508209229	2.5083389282226562
48	137.91568398475647	fix_post	2		12.0	46.0	2.5	/experiments/knapen_aot/videos/S_yt-GWOOQZ19-oU_331.mp4	0.0	200.73013401031494	0.10005497932434082
49	138.0157389640808	fix_pre	0		41.0	47.0	2.5	/experiments/knapen_aot/videos/R_S_yt-Rybd-sKJFz0_78.mp4	0.0	200.83018898963928	0.341655969619751
49	138.3492259979248	response	0	4		47.0	2.5	/experiments/knapen_aot/videos/R_S_yt-Rybd-sKJFz0_78.mp4	0.0	201.16367602348328	
49	138.35739493370056	movie	1		301.0	47.0	2.5	/experiments/knapen_aot/videos/R_S_yt-Rybd-sKJFz0_78.mp4	0.0	201.17184495925903	2.508302927017212
49	139.65746808052063	response	1	4		47.0	2.5	/experiments/knapen_aot/videos/R_S_yt-Rybd-sKJFz0_78.mp4	0.0	202.4719181060791	
49	140.86569786071777	fix_post	2		12.0	47.0	2.5	/experiments/knapen_aot/videos/R_S_yt-Rybd-sKJFz0_78.mp4	0.0	203.68014788627625	0.100006103515625
50	140.9657039642334	fix_pre	0		46.0	48.0	2.5	/experiments/knapen_aot/videos/R_S_yt-0xzYSBvVfYM_197.mp4	0.0	203.78015398979187	0.3832869529724121
50	141.3407940864563	response	0	4		48.0	2.5	/experiments/knapen_aot/videos/R_S_yt-0xzYSBvVfYM_197.mp4	0.0	204.15524411201477	
50	141.3489909172058	movie	1		301.0	48.0	2.5	/experiments/knapen_aot/videos/R_S_yt-0xzYSBvVfYM_197.mp4	0.0	204.16344094276428	2.508388042449951
50	143.4157679080963	response	1	4		48.0	2.5	/experiments/knapen_aot/videos/R_S_yt-0xzYSBvVfYM_197.mp4	0.0	206.23021793365479	
50	143.85737895965576	fix_post	2		12.0	48.0	2.5	/experiments/knapen_aot/videos/R_S_yt-0xzYSBvVfYM_197.mp4	0.0	206.67182898521423	0.0999760627746582
51	143.95735502243042	fix_pre	0		30.0	49.0	2.5	blank	1.0	206.7718050479889	0.249985933303833
51	144.1991000175476	response	0	4		49.0	2.5	blank	1.0	207.01355004310608	
51	144.20734095573425	movie	1		301.0	49.0	2.5	blank	1.0	207.02179098129272	2.5083000659942627
51	146.2074408531189	response	1	4		49.0	2.5	blank	1.0	209.02189087867737	
51	146.71564102172852	fix_post	2		12.0	49.0	2.5	blank	1.0	209.530091047287	0.10004496574401855
51	146.74926495552063	response	2	4		49.0	2.5	blank	1.0	209.5637149810791	
52	146.81568598747253	fix_pre	0		41.0	50.0	2.5	/experiments/knapen_aot/videos/S_pexels-kindel-media-7147375.mp4	0.0	209.630136013031	0.3416719436645508
52	147.14159107208252	response	0	4		50.0	2.5	/experiments/knapen_aot/videos/S_pexels-kindel-media-7147375.mp4	0.0	209.956041097641	
52	147.15735793113708	movie	1		166.0	50.0	2.5	/experiments/knapen_aot/videos/S_pexels-kindel-media-7147375.mp4	0.0	209.97180795669556	2.5083250999450684
52	149.45751905441284	response	1	4		50.0	2.5	/experiments/knapen_aot/videos/S_pexels-kindel-media-7147375.mp4	0.0	212.2719690799713	
52	149.66568303108215	fix_post	2		12.0	50.0	2.5	/experiments/knapen_aot/videos/S_pexels-kindel-media-7147375.mp4	0.0	212.48013305664062	0.0999300479888916
53	149.76561307907104	fix_pre	0		48.0	51.0	2.5	/experiments/knapen_aot/videos/R_S_production_ID_4360158.mp4	0.0	212.58006310462952	0.4000678062438965
53	150.15744590759277	response	0	4		51.0	2.5	/experiments/knapen_aot/videos/R_S_production_ID_4360158.mp4	0.0	212.97189593315125	
53	150.16568088531494	movie	1		164.0	51.0	2.5	/experiments/knapen_aot/videos/R_S_production_ID_4360158.mp4	0.0	212.9801309108734	2.5083580017089844
53	152.67403888702393	fix_post	2		12.0	51.0	2.5	/experiments/knapen_aot/videos/R_S_production_ID_4360158.mp4	0.0	215.4884889125824	0.09995007514953613
54	152.77398896217346	fix_pre	0		34.0	52.0	2.5	/experiments/knapen_aot/videos/R_S_yt-JDHApyT5ngs_128.mp4	0.0	215.58843898773193	0.2833569049835205
54	153.04912900924683	response	0	4		52.0	2.5	/experiments/knapen_aot/videos/R_S_yt-JDHApyT5ngs_128.mp4	0.0	215.8635790348053	
54	153.05734586715698	movie	1		301.0	52.0	2.5	/experiments/knapen_aot/videos/R_S_yt-JDHApyT5ngs_128.mp4	0.0	215.87179589271545	2.5083301067352295
54	155.5656759738922	fix_post	2		12.0	52.0	2.5	/experiments/knapen_aot/videos/R_S_yt-JDHApyT5ngs_128.mp4	0.0	218.38012599945068	0.10007810592651367
55	155.66575407981873	fix_pre	0		24.0	53.0	2.5	/experiments/knapen_aot/videos/R_S_yt-VQtbKGzI9SE_431.mp4	0.0	218.4802041053772	0.1999199390411377
55	155.85007190704346	response	0	4		53.0	2.5	/experiments/knapen_aot/videos/R_S_yt-VQtbKGzI9SE_431.mp4	0.0	218.66452193260193	
55	155.86567401885986	movie	1		301.0	53.0	2.5	/experiments/knapen_aot/videos/R_S_yt-VQtbKGzI9SE_431.mp4	0.0	218.68012404441833	2.508327007293701
55	158.37400102615356	fix_post	2		12.0	53.0	2.5	/experiments/knapen_aot/videos/R_S_yt-VQtbKGzI9SE_431.mp4	0.0	221.18845105171204	0.09995794296264648
55	158.4408209323883	response	2	4		53.0	2.5	/experiments/knapen_aot/videos/R_S_yt-VQtbKGzI9SE_431.mp4	0.0	221.25527095794678	
56	158.4739589691162	fix_pre	0		54.0	54.0	2.5	blank	1.0	221.28840899467468	0.4500570297241211
56	158.9157269001007	response	0	4		54.0	2.5	blank	1.0	221.73017692565918	
56	158.92401599884033	movie	1		301.0	54.0	2.5	blank	1.0	221.7384660243988	2.508302927017212
56	161.43231892585754	fix_post	2		12.0	54.0	2.5	blank	1.0	224.24676895141602	0.10009908676147461
57	161.53241801261902	fix_pre	0		24.0	55.0	2.5	/experiments/knapen_aot/videos/R_S_ILSVRC2015_train_00524001.mp4	0.0	224.3468680381775	0.2011420726776123
57	161.72410202026367	response	0	4		55.0	2.5	/experiments/knapen_aot/videos/R_S_ILSVRC2015_train_00524001.mp4	0.0	224.53855204582214	
57	161.73356008529663	movie	1		301.0	55.0	2.5	/experiments/knapen_aot/videos/R_S_ILSVRC2015_train_00524001.mp4	0.0	224.5480101108551	2.5070888996124268
57	163.8690779209137	response	1	4		55.0	2.5	/experiments/knapen_aot/videos/R_S_ILSVRC2015_train_00524001.mp4	0.0	226.68352794647217	
57	164.24064898490906	fix_post	2		12.0	55.0	2.5	/experiments/knapen_aot/videos/R_S_ILSVRC2015_train_00524001.mp4	0.0	227.05509901046753	0.09993195533752441
58	164.34058094024658	fix_pre	0		31.0	56.0	2.5	/experiments/knapen_aot/videos/S_yt-ThT8utBaywI_68.mp4	0.0	227.15503096580505	0.2583730220794678
58	164.5907919406891	response	0	4		56.0	2.5	/experiments/knapen_aot/videos/S_yt-ThT8utBaywI_68.mp4	0.0	227.40524196624756	
58	164.59895396232605	movie	1		301.0	56.0	2.5	/experiments/knapen_aot/videos/S_yt-ThT8utBaywI_68.mp4	0.0	227.41340398788452	2.5083019733428955
58	167.10725593566895	fix_post	2		12.0	56.0	2.5	/experiments/knapen_aot/videos/S_yt-ThT8utBaywI_68.mp4	0.0	229.92170596122742	0.10004711151123047
59	167.20730304718018	fix_pre	0		31.0	57.0	2.5	/experiments/knapen_aot/videos/R_S_yt-nQu-PAXBv2g_5.mp4	0.0	230.02175307273865	0.25830888748168945
59	167.45745491981506	response	0	4		57.0	2.5	/experiments/knapen_aot/videos/R_S_yt-nQu-PAXBv2g_5.mp4	0.0	230.27190494537354	
59	167.46561193466187	movie	1		301.0	57.0	2.5	/experiments/knapen_aot/videos/R_S_yt-nQu-PAXBv2g_5.mp4	0.0	230.28006196022034	2.5082590579986572
59	169.97387099266052	fix_post	2		12.0	57.0	2.5	/experiments/knapen_aot/videos/R_S_yt-nQu-PAXBv2g_5.mp4	0.0	232.788321018219	0.10000395774841309
60	170.07387495040894	fix_pre	0		17.0	58.0	2.5	/experiments/knapen_aot/videos/R_S_yt-Rybd-sKJFz0_78.mp4	0.0	232.8883249759674	0.14170503616333008
60	170.20737886428833	response	0	4		58.0	2.5	/experiments/knapen_aot/videos/R_S_yt-Rybd-sKJFz0_78.mp4	0.0	233.0218288898468	
60	170.21557998657227	movie	1		301.0	58.0	2.5	/experiments/knapen_aot/videos/R_S_yt-Rybd-sKJFz0_78.mp4	0.0	233.03003001213074	2.508280038833618
60	171.61568403244019	response	1	4		58.0	2.5	/experiments/knapen_aot/videos/R_S_yt-Rybd-sKJFz0_78.mp4	0.0	234.43013405799866	
60	172.72386002540588	fix_post	2		12.0	58.0	2.5	/experiments/knapen_aot/videos/R_S_yt-Rybd-sKJFz0_78.mp4	0.0	235.53831005096436	0.10003995895385742
61	172.82389998435974	fix_pre	0		24.0	59.0	2.5	/experiments/knapen_aot/videos/R_S_yt-nYi_FfCjepk_74.mp4	0.0	235.6383500099182	0.19994807243347168
61	173.00809693336487	response	0	4		59.0	2.5	/experiments/knapen_aot/videos/R_S_yt-nYi_FfCjepk_74.mp4	0.0	235.82254695892334	
61	173.0238480567932	movie	1		301.0	59.0	2.5	/experiments/knapen_aot/videos/R_S_yt-nYi_FfCjepk_74.mp4	0.0	235.83829808235168	2.508401870727539
61	175.53224992752075	fix_post	2		12.0	59.0	2.5	/experiments/knapen_aot/videos/R_S_yt-nYi_FfCjepk_74.mp4	0.0	238.34669995307922	0.09998106956481934
62	175.63223099708557	fix_pre	0		59.0	60.0	2.5	/experiments/knapen_aot/videos/R_S_yt-5MyvZYFlc9g_125.mp4	0.0	238.44668102264404	0.4916388988494873
62	176.11567306518555	response	0	4		60.0	2.5	/experiments/knapen_aot/videos/R_S_yt-5MyvZYFlc9g_125.mp4	0.0	238.93012309074402	
62	176.12386989593506	movie	1		301.0	60.0	2.5	/experiments/knapen_aot/videos/R_S_yt-5MyvZYFlc9g_125.mp4	0.0	238.93831992149353	2.5083091259002686
62	178.63217902183533	fix_post	2		12.0	60.0	2.5	/experiments/knapen_aot/videos/R_S_yt-5MyvZYFlc9g_125.mp4	0.0	241.4466290473938	0.10005593299865723
63	178.73223495483398	fix_pre	0		31.0	61.0	2.5	/experiments/knapen_aot/videos/S_yt-OFbbvxTLrtM_132.mp4	0.0	241.54668498039246	0.25821805000305176
63	178.98235487937927	response	0	4		61.0	2.5	/experiments/knapen_aot/videos/S_yt-OFbbvxTLrtM_132.mp4	0.0	241.79680490493774	
63	178.99045300483704	movie	1		301.0	61.0	2.5	/experiments/knapen_aot/videos/S_yt-OFbbvxTLrtM_132.mp4	0.0	241.8049030303955	2.508370876312256
63	181.4988238811493	fix_post	2		12.0	61.0	2.5	/experiments/knapen_aot/videos/S_yt-OFbbvxTLrtM_132.mp4	0.0	244.31327390670776	0.10003209114074707
64	181.59885597229004	fix_pre	0		57.0	62.0	2.5	blank	1.0	244.4133059978485	0.4749789237976074
64	182.06567287445068	response	0	4		62.0	2.5	blank	1.0	244.88012290000916	
64	182.07383489608765	movie	1		301.0	62.0	2.5	blank	1.0	244.88828492164612	2.5082991123199463
64	184.5821340084076	fix_post	2		12.0	62.0	2.5	blank	1.0	247.39658403396606	0.10002589225769043
65	184.68215990066528	fix_pre	0		134.0	63.0	2.5	/experiments/knapen_aot/videos/R_S_PA_A001_C007_SDR_20190717_SDR_2K_AVC.mp4	0.0	247.49660992622375	1.1167540550231934
65	185.7906608581543	response	0	4		63.0	2.5	/experiments/knapen_aot/videos/R_S_PA_A001_C007_SDR_20190717_SDR_2K_AVC.mp4	0.0	248.60511088371277	
65	185.79891395568848	movie	1		167.0	63.0	2.5	/experiments/knapen_aot/videos/R_S_PA_A001_C007_SDR_20190717_SDR_2K_AVC.mp4	0.0	248.61336398124695	2.508219003677368
65	188.30713295936584	fix_post	2		12.0	63.0	2.5	/experiments/knapen_aot/videos/R_S_PA_A001_C007_SDR_20190717_SDR_2K_AVC.mp4	0.0	251.12158298492432	0.10004806518554688
66	188.4071810245514	fix_pre	0		35.0	64.0	2.5	/experiments/knapen_aot/videos/R_S_yt--5ls65Ue1RA_52.mp4	0.0	251.22163105010986	0.2916219234466553
66	188.69064688682556	response	0	4		64.0	2.5	/experiments/knapen_aot/videos/R_S_yt--5ls65Ue1RA_52.mp4	0.0	251.50509691238403	
66	188.69880294799805	movie	1		301.0	64.0	2.5	/experiments/knapen_aot/videos/R_S_yt--5ls65Ue1RA_52.mp4	0.0	251.51325297355652	2.5084750652313232
66	191.20727801322937	fix_post	2		12.0	64.0	2.5	/experiments/knapen_aot/videos/R_S_yt--5ls65Ue1RA_52.mp4	0.0	254.02172803878784	0.09986186027526855
67	191.30713987350464	fix_pre	0		52.0	65.0	2.5	/experiments/knapen_aot/videos/R_S_yt-OLDm2slgfA4_3.mp4	0.0	254.1215898990631	0.4333221912384033
67	191.73230504989624	response	0	4		65.0	2.5	/experiments/knapen_aot/videos/R_S_yt-OLDm2slgfA4_3.mp4	0.0	254.5467550754547	
67	191.74046206474304	movie	1		301.0	65.0	2.5	/experiments/knapen_aot/videos/R_S_yt-OLDm2slgfA4_3.mp4	0.0	254.5549120903015	2.508305788040161
67	194.2487678527832	fix_post	2		12.0	65.0	2.5	/experiments/knapen_aot/videos/R_S_yt-OLDm2slgfA4_3.mp4	0.0	257.0632178783417	0.10003805160522461
68	194.34880590438843	fix_pre	0		48.0	66.0	2.5	/experiments/knapen_aot/videos/R_S_yt-GOgS--rzmKQ_51.mp4	0.0	257.1632559299469	0.39989805221557617
68	194.73308801651	response	0	4		66.0	2.5	/experiments/knapen_aot/videos/R_S_yt-GOgS--rzmKQ_51.mp4	0.0	257.5475380420685	
68	194.748703956604	movie	1		301.0	66.0	2.5	/experiments/knapen_aot/videos/R_S_yt-GOgS--rzmKQ_51.mp4	0.0	257.5631539821625	2.5083301067352295
68	197.25703406333923	fix_post	2		12.0	66.0	2.5	/experiments/knapen_aot/videos/R_S_yt-GOgS--rzmKQ_51.mp4	0.0	260.0714840888977	0.10008382797241211
69	197.35711789131165	fix_pre	0		24.0	67.0	2.5	/experiments/knapen_aot/videos/S_yt-2V2tq9-O_Nc_1669.mp4	0.0	260.1715679168701	0.19998502731323242
69	197.5413658618927	response	0	4		67.0	2.5	/experiments/knapen_aot/videos/S_yt-2V2tq9-O_Nc_1669.mp4	0.0	260.3558158874512	
69	197.55710291862488	movie	1		301.0	67.0	2.5	/experiments/knapen_aot/videos/S_yt-2V2tq9-O_Nc_1669.mp4	0.0	260.37155294418335	2.508315086364746
69	199.55725288391113	response	1	4		67.0	2.5	/experiments/knapen_aot/videos/S_yt-2V2tq9-O_Nc_1669.mp4	0.0	262.3717029094696	
69	200.06541800498962	fix_post	2		12.0	67.0	2.5	/experiments/knapen_aot/videos/S_yt-2V2tq9-O_Nc_1669.mp4	0.0	262.8798680305481	0.1000518798828125
70	200.16546988487244	fix_pre	0		13.0	68.0	2.5	/experiments/knapen_aot/videos/S_yt-fQGoTMausn8_88.mp4	0.0	262.9799199104309	0.10940003395080566
70	200.26556086540222	response	0	4		68.0	2.5	/experiments/knapen_aot/videos/S_yt-fQGoTMausn8_88.mp4	0.0	263.0800108909607	
70	200.27486991882324	movie	1		301.0	68.0	2.5	/experiments/knapen_aot/videos/S_yt-fQGoTMausn8_88.mp4	0.0	263.0893199443817	2.5072619915008545
70	202.7821319103241	fix_post	2		12.0	68.0	2.5	/experiments/knapen_aot/videos/S_yt-fQGoTMausn8_88.mp4	0.0	265.59658193588257	0.09994697570800781
71	202.8820788860321	fix_pre	0		10.0	69.0	2.5	blank	1.0	265.6965289115906	0.08337807655334473
71	202.9572238922119	response	0	4		69.0	2.5	blank	1.0	265.7716739177704	
71	202.96545696258545	movie	1		301.0	69.0	2.5	blank	1.0	265.7799069881439	2.508397102355957
71	205.4738540649414	fix_post	2		12.0	69.0	2.5	blank	1.0	268.2883040904999	0.09989190101623535
72	205.57374596595764	fix_pre	0		22.0	70.0	2.5	/experiments/knapen_aot/videos/S_Pexels_Videos_2786546.mp4	0.0	268.3881959915161	0.1833341121673584
72	205.7489049434662	response	0	4		70.0	2.5	/experiments/knapen_aot/videos/S_Pexels_Videos_2786546.mp4	0.0	268.56335496902466	
72	205.757080078125	movie	1		167.0	70.0	2.5	/experiments/knapen_aot/videos/S_Pexels_Videos_2786546.mp4	0.0	268.5715301036835	2.508328914642334
72	208.26540899276733	fix_post	2		12.0	70.0	2.5	/experiments/knapen_aot/videos/S_Pexels_Videos_2786546.mp4	0.0	271.0798590183258	0.10005307197570801
73	208.36546206474304	fix_pre	0		26.0	71.0	2.5	/experiments/knapen_aot/videos/S_comp_GL_G010_C006_PSNK_NOSUN_v12_SDR_PS_FINAL_20180709_SDR_2K_AVC.mp4	0.0	271.1799120903015	0.21660780906677246
73	208.57388591766357	response	0	4		71.0	2.5	/experiments/knapen_aot/videos/S_comp_GL_G010_C006_PSNK_NOSUN_v12_SDR_PS_FINAL_20180709_SDR_2K_AVC.mp4	0.0	271.38833594322205	
73	208.58206987380981	movie	1		164.0	71.0	2.5	/experiments/knapen_aot/videos/S_comp_GL_G010_C006_PSNK_NOSUN_v12_SDR_PS_FINAL_20180709_SDR_2K_AVC.mp4	0.0	271.3965198993683	2.5082690715789795
73	211.0903389453888	fix_post	2		11.0	71.0	2.5	/experiments/knapen_aot/videos/S_comp_GL_G010_C006_PSNK_NOSUN_v12_SDR_PS_FINAL_20180709_SDR_2K_AVC.mp4	0.0	273.90478897094727	0.10010409355163574
74	211.19044303894043	fix_pre	0		95.0	72.0	2.5	/experiments/knapen_aot/videos/S_ILSVRC2015_train_00495000.mp4	0.0	274.0048930644989	0.7926788330078125
74	211.97388100624084	response	0	4		72.0	2.5	/experiments/knapen_aot/videos/S_ILSVRC2015_train_00495000.mp4	0.0	274.7883310317993	
74	211.98312187194824	movie	1		301.0	72.0	2.5	/experiments/knapen_aot/videos/S_ILSVRC2015_train_00495000.mp4	0.0	274.7975718975067	2.507265090942383
74	212.91551685333252	response	1	4		72.0	2.5	/experiments/knapen_aot/videos/S_ILSVRC2015_train_00495000.mp4	0.0	275.729966878891	
74	213.79886293411255	response	1	4		72.0	2.5	/experiments/knapen_aot/videos/S_ILSVRC2015_train_00495000.mp4	0.0	276.613312959671	
74	214.49038696289062	fix_post	2		12.0	72.0	2.5	/experiments/knapen_aot/videos/S_ILSVRC2015_train_00495000.mp4	0.0	277.3048369884491	0.09995293617248535
75	214.5903398990631	fix_pre	0		50.0	73.0	2.5	/experiments/knapen_aot/videos/R_S_yt-eF5J5Kjt6oY_23.mp4	0.0	277.4047899246216	0.4166851043701172
75	214.99884605407715	response	0	4		73.0	2.5	/experiments/knapen_aot/videos/R_S_yt-eF5J5Kjt6oY_23.mp4	0.0	277.8132960796356	
75	215.00702500343323	movie	1		301.0	73.0	2.5	/experiments/knapen_aot/videos/R_S_yt-eF5J5Kjt6oY_23.mp4	0.0	277.8214750289917	2.508341073989868
75	217.5153660774231	fix_post	2		12.0	73.0	2.5	/experiments/knapen_aot/videos/R_S_yt-eF5J5Kjt6oY_23.mp4	0.0	280.32981610298157	0.10004091262817383
76	217.61540699005127	fix_pre	0		63.0	74.0	2.5	/experiments/knapen_aot/videos/S_yt-7K5X1G7Cpls_965.mp4	0.0	280.42985701560974	0.5249700546264648
76	218.1321370601654	response	0	4		74.0	2.5	/experiments/knapen_aot/videos/S_yt-7K5X1G7Cpls_965.mp4	0.0	280.9465870857239	
76	218.14037704467773	movie	1		301.0	74.0	2.5	/experiments/knapen_aot/videos/S_yt-7K5X1G7Cpls_965.mp4	0.0	280.9548270702362	2.5084519386291504
76	220.64882898330688	fix_post	2		12.0	74.0	2.5	/experiments/knapen_aot/videos/S_yt-7K5X1G7Cpls_965.mp4	0.0	283.46327900886536	0.09983992576599121
77	220.74866890907288	fix_pre	0		32.0	75.0	2.5	blank	1.0	283.56311893463135	0.26676106452941895
77	221.00711607933044	response	0	4		75.0	2.5	blank	1.0	283.8215661048889	
77	221.0154299736023	movie	1		301.0	75.0	2.5	blank	1.0	283.82987999916077	2.508291006088257
77	223.52372097969055	fix_post	2		12.0	75.0	2.5	blank	1.0	286.338171005249	0.09998393058776855
78	223.62370491027832	fix_pre	0		85.0	76.0	2.5	/experiments/knapen_aot/videos/S_yt-JTVyt-eu4VI_1.mp4	0.0	286.4381549358368	0.7082760334014893
78	224.32383108139038	response	0	4		76.0	2.5	/experiments/knapen_aot/videos/S_yt-JTVyt-eu4VI_1.mp4	0.0	287.13828110694885	
78	224.3319809436798	movie	1		301.0	76.0	2.5	/experiments/knapen_aot/videos/S_yt-JTVyt-eu4VI_1.mp4	0.0	287.1464309692383	2.5084009170532227
78	226.84038186073303	fix_post	2		12.0	76.0	2.5	/experiments/knapen_aot/videos/S_yt-JTVyt-eu4VI_1.mp4	0.0	289.6548318862915	0.09999608993530273
79	226.94037795066833	fix_pre	0		41.0	77.0	2.5	/experiments/knapen_aot/videos/S_yt-LB9LoYfH_EA_15.mp4	0.0	289.7548279762268	0.3416759967803955
79	227.26630401611328	response	0	4		77.0	2.5	/experiments/knapen_aot/videos/S_yt-LB9LoYfH_EA_15.mp4	0.0	290.08075404167175	
79	227.28205394744873	movie	1		301.0	77.0	2.5	/experiments/knapen_aot/videos/S_yt-LB9LoYfH_EA_15.mp4	0.0	290.0965039730072	2.508333921432495
79	229.79038786888123	fix_post	2		12.0	77.0	2.5	/experiments/knapen_aot/videos/S_yt-LB9LoYfH_EA_15.mp4	0.0	292.6048378944397	0.09999704360961914
80	229.89038491249084	fix_pre	0		21.0	78.0	2.5	/experiments/knapen_aot/videos/R_S_yt-SRozDkhwx28_1463.mp4	0.0	292.7048349380493	0.17586612701416016
80	230.05714201927185	response	0	4		78.0	2.5	/experiments/knapen_aot/videos/R_S_yt-SRozDkhwx28_1463.mp4	0.0	292.8715920448303	
80	230.066251039505	movie	1		301.0	78.0	2.5	/experiments/knapen_aot/videos/R_S_yt-SRozDkhwx28_1463.mp4	0.0	292.8807010650635	2.5073959827423096
80	232.1820969581604	response	1	4		78.0	2.5	/experiments/knapen_aot/videos/R_S_yt-SRozDkhwx28_1463.mp4	0.0	294.9965469837189	
80	232.57364702224731	fix_post	2		12.0	78.0	2.5	/experiments/knapen_aot/videos/R_S_yt-SRozDkhwx28_1463.mp4	0.0	295.3880970478058	0.09998798370361328
81	232.67363500595093	fix_pre	0		107.0	79.0	2.5	/experiments/knapen_aot/videos/S_Pexels_Videos_2795736.mp4	0.0	295.4880850315094	0.892582893371582
81	233.5570740699768	response	0	4		79.0	2.5	/experiments/knapen_aot/videos/S_Pexels_Videos_2795736.mp4	0.0	296.3715240955353	
81	233.5662178993225	movie	1		162.0	79.0	2.5	/experiments/knapen_aot/videos/S_Pexels_Videos_2795736.mp4	0.0	296.380667924881	2.507446050643921
81	233.99047303199768	response	1	4		79.0	2.5	/experiments/knapen_aot/videos/S_Pexels_Videos_2795736.mp4	0.0	296.80492305755615	
81	235.19045186042786	response	1	4		79.0	2.5	/experiments/knapen_aot/videos/S_Pexels_Videos_2795736.mp4	0.0	298.0049018859863	
81	236.07366394996643	fix_post	2		12.0	79.0	2.5	/experiments/knapen_aot/videos/S_Pexels_Videos_2795736.mp4	0.0	298.8881139755249	0.09996604919433594
82	236.17362999916077	fix_pre	0		22.0	80.0	2.5	/experiments/knapen_aot/videos/S_-vPHq-7BJ70_15.mp4	0.0	298.98808002471924	0.18422293663024902
82	236.34898495674133	response	0	4		80.0	2.5	/experiments/knapen_aot/videos/S_-vPHq-7BJ70_15.mp4	0.0	299.1634349822998	
82	236.35785293579102	movie	1		299.0	80.0	2.5	/experiments/knapen_aot/videos/S_-vPHq-7BJ70_15.mp4	0.0	299.1723029613495	2.5073959827423096
82	238.86524891853333	fix_post	2		12.0	80.0	2.5	/experiments/knapen_aot/videos/S_-vPHq-7BJ70_15.mp4	0.0	301.6796989440918	0.10001516342163086
83	238.96526408195496	fix_pre	0		93.0	81.0	2.5	/experiments/knapen_aot/videos/R_S_wc-8bTJmWfuVyJ4_8.mp4	0.0	301.7797141075134	0.7749598026275635
83	239.73213696479797	response	0	4		81.0	2.5	/experiments/knapen_aot/videos/R_S_wc-8bTJmWfuVyJ4_8.mp4	0.0	302.54658699035645	
83	239.74022388458252	movie	1		163.0	81.0	2.5	/experiments/knapen_aot/videos/R_S_wc-8bTJmWfuVyJ4_8.mp4	0.0	302.554673910141	2.50838303565979
83	242.2486069202423	fix_post	2		12.0	81.0	2.5	/experiments/knapen_aot/videos/R_S_wc-8bTJmWfuVyJ4_8.mp4	0.0	305.0630569458008	0.10002493858337402
84	242.34863185882568	fix_pre	0		116.0	82.0	2.5	blank	1.0	305.16308188438416	0.96750807762146
84	243.30707097053528	response	0	4		82.0	2.5	blank	1.0	306.12152099609375	
84	243.31613993644714	movie	1		301.0	82.0	2.5	blank	1.0	306.1305899620056	2.5074450969696045
84	245.82358503341675	fix_post	2		12.0	82.0	2.5	blank	1.0	308.6380350589752	0.0999448299407959
85	245.92352986335754	fix_pre	0		64.0	83.0	2.5	/experiments/knapen_aot/videos/S_yt-9NV8zv2Sdq4_30.mp4	0.0	308.737979888916	0.5334060192108154
85	246.44875192642212	response	0	4		83.0	2.5	/experiments/knapen_aot/videos/S_yt-9NV8zv2Sdq4_30.mp4	0.0	309.2632019519806	
85	246.45693588256836	movie	1		301.0	83.0	2.5	/experiments/knapen_aot/videos/S_yt-9NV8zv2Sdq4_30.mp4	0.0	309.27138590812683	2.5082550048828125
85	248.96519088745117	fix_post	2		12.0	83.0	2.5	/experiments/knapen_aot/videos/S_yt-9NV8zv2Sdq4_30.mp4	0.0	311.77964091300964	0.10003519058227539
87	249.06522607803345	stim	0		132.0					311.8796761035919	1.1000208854675293
87	249.39884686470032	response	0	4						312.2132968902588	
87	250.15512895584106	response	0	space						312.96957898139954	
