trial_nr	onset	event_type	phase	response	nr_frames	movie_index	movie_duration	movie_file	blank	onset_abs	duration
0	0.15621089935302734	stim	0		68.0					69.0138168334961	0.5686020851135254
0	0.7169489860534668	response	0	space						69.57455492019653	
1	0.7248129844665527	stim	0		121.0					69.58241891860962	1.0080997943878174
1	1.5330348014831543	response	0	space						70.39064073562622	
1	1.7329127788543701	stim	1		120.0					70.59051871299744	0.9999830722808838
1	2.008018970489502	response	1	space						70.86562490463257	
2	2.732895851135254	fix_pre	0		4.0	0.0	2.5	/experiments/knapen_aot/videos/R_S_yt-lv6mhnH7_g4_134.mp4	0.0	71.59050178527832	0.03325295448303223
2	2.760715961456299	response	0	2		0.0	2.5	/experiments/knapen_aot/videos/R_S_yt-lv6mhnH7_g4_134.mp4	0.0	71.61832189559937	
2	2.766148805618286	movie	1		300.0	0.0	2.5	/experiments/knapen_aot/videos/R_S_yt-lv6mhnH7_g4_134.mp4	0.0	71.62375473976135	2.508467197418213
2	5.274616003036499	fix_post	2		12.0	0.0	2.5	/experiments/knapen_aot/videos/R_S_yt-lv6mhnH7_g4_134.mp4	0.0	74.13222193717957	0.09991693496704102
3	5.37453293800354	fix_pre	0		27.0	1.0	2.5	/experiments/knapen_aot/videos/S_yt-BrepyEWKrPQ_20.mp4	0.0	74.2321388721466	0.22497105598449707
3	5.591395854949951	response	0	2		1.0	2.5	/experiments/knapen_aot/videos/S_yt-BrepyEWKrPQ_20.mp4	0.0	74.44900178909302	
3	5.599503993988037	movie	1		301.0	1.0	2.5	/experiments/knapen_aot/videos/S_yt-BrepyEWKrPQ_20.mp4	0.0	74.4571099281311	2.5083818435668945
3	8.107885837554932	fix_post	2		12.0	1.0	2.5	/experiments/knapen_aot/videos/S_yt-BrepyEWKrPQ_20.mp4	0.0	76.965491771698	0.0999760627746582
4	8.20786190032959	fix_pre	0		7.0	2.0	2.5	/experiments/knapen_aot/videos/R_S_yt-54kx8P3L1ns_6.mp4	0.0	77.06546783447266	0.058294057846069336
4	8.258030891418457	response	0	4		2.0	2.5	/experiments/knapen_aot/videos/R_S_yt-54kx8P3L1ns_6.mp4	0.0	77.11563682556152	
4	8.26615595817566	movie	1		301.0	2.0	2.5	/experiments/knapen_aot/videos/R_S_yt-54kx8P3L1ns_6.mp4	0.0	77.12376189231873	2.508328914642334
4	8.84955883026123	response	1	2		2.0	2.5	/experiments/knapen_aot/videos/R_S_yt-54kx8P3L1ns_6.mp4	0.0	77.7071647644043	
4	10.774484872817993	fix_post	2		12.0	2.0	2.5	/experiments/knapen_aot/videos/R_S_yt-54kx8P3L1ns_6.mp4	0.0	79.63209080696106	0.10006093978881836
5	10.874545812606812	fix_pre	0		3.0	3.0	2.5	/experiments/knapen_aot/videos/S_yt-Y3pi1bgUwIg_78.mp4	0.0	79.73215174674988	0.024978160858154297
5	10.89135193824768	response	0	4		3.0	2.5	/experiments/knapen_aot/videos/S_yt-Y3pi1bgUwIg_78.mp4	0.0	79.74895787239075	
5	10.899523973464966	movie	1		301.0	3.0	2.5	/experiments/knapen_aot/videos/S_yt-Y3pi1bgUwIg_78.mp4	0.0	79.75712990760803	2.508307933807373
5	13.407831907272339	fix_post	2		12.0	3.0	2.5	/experiments/knapen_aot/videos/S_yt-Y3pi1bgUwIg_78.mp4	0.0	82.2654378414154	0.09998798370361328
6	13.507819890975952	fix_pre	0		6.0	4.0	2.5	/experiments/knapen_aot/videos/R_S_r4Npnob1vds_12.mp4	0.0	82.36542582511902	0.05006098747253418
6	13.549636840820312	response	0	2		4.0	2.5	/experiments/knapen_aot/videos/R_S_r4Npnob1vds_12.mp4	0.0	82.40724277496338	
6	13.557880878448486	movie	1		301.0	4.0	2.5	/experiments/knapen_aot/videos/R_S_r4Npnob1vds_12.mp4	0.0	82.41548681259155	2.5083041191101074
6	15.785762786865234	response	1	2		4.0	2.5	/experiments/knapen_aot/videos/R_S_r4Npnob1vds_12.mp4	0.0	84.6433687210083	
6	16.066184997558594	fix_post	2		12.0	4.0	2.5	/experiments/knapen_aot/videos/R_S_r4Npnob1vds_12.mp4	0.0	84.92379093170166	0.10137295722961426
7	16.167557954788208	fix_pre	0		9.0	5.0	2.5	blank	1.0	85.02516388893127	0.07406902313232422
7	16.233130931854248	response	0	2		5.0	2.5	blank	1.0	85.09073686599731	
7	16.241626977920532	movie	1		301.0	5.0	2.5	blank	1.0	85.0992329120636	2.507869005203247
7	18.557920932769775	response	1	2		5.0	2.5	blank	1.0	87.41552686691284	
7	18.74949598312378	fix_post	2		12.0	5.0	2.5	blank	1.0	87.60710191726685	0.09995889663696289
8	18.849454879760742	fix_pre	0		21.0	6.0	2.5	/experiments/knapen_aot/videos/S_ILSVRC2015_train_00682009.mp4	0.0	87.70706081390381	0.17502903938293457
8	19.01622700691223	response	0	2		6.0	2.5	/experiments/knapen_aot/videos/S_ILSVRC2015_train_00682009.mp4	0.0	87.8738329410553	
8	19.024483919143677	movie	1		301.0	6.0	2.5	/experiments/knapen_aot/videos/S_ILSVRC2015_train_00682009.mp4	0.0	87.88208985328674	2.5083260536193848
8	21.53280997276306	fix_post	2		12.0	6.0	2.5	/experiments/knapen_aot/videos/S_ILSVRC2015_train_00682009.mp4	0.0	90.39041590690613	0.09997391700744629
8	21.608701944351196	response	2	2		6.0	2.5	/experiments/knapen_aot/videos/S_ILSVRC2015_train_00682009.mp4	0.0	90.46630787849426	
9	21.632783889770508	fix_pre	0		57.0	7.0	2.5	/experiments/knapen_aot/videos/S_yt-NuZy8Rjk4d0_156.mp4	0.0	90.49038982391357	0.47501111030578613
9	22.09952998161316	response	0	2		7.0	2.5	/experiments/knapen_aot/videos/S_yt-NuZy8Rjk4d0_156.mp4	0.0	90.95713591575623	
9	22.107795000076294	movie	1		300.0	7.0	2.5	/experiments/knapen_aot/videos/S_yt-NuZy8Rjk4d0_156.mp4	0.0	90.96540093421936	2.5083649158477783
9	24.616159915924072	fix_post	2		12.0	7.0	2.5	/experiments/knapen_aot/videos/S_yt-NuZy8Rjk4d0_156.mp4	0.0	93.47376585006714	0.09995198249816895
10	24.71611189842224	fix_pre	0		7.0	8.0	2.5	/experiments/knapen_aot/videos/S_yt-V4ptcLegCiw_161.mp4	0.0	93.57371783256531	0.0583338737487793
10	24.766275882720947	response	0	4		8.0	2.5	/experiments/knapen_aot/videos/S_yt-V4ptcLegCiw_161.mp4	0.0	93.62388181686401	
10	24.77444577217102	movie	1		301.0	8.0	2.5	/experiments/knapen_aot/videos/S_yt-V4ptcLegCiw_161.mp4	0.0	93.63205170631409	2.508244037628174
10	27.282689809799194	fix_post	2		12.0	8.0	2.5	/experiments/knapen_aot/videos/S_yt-V4ptcLegCiw_161.mp4	0.0	96.14029574394226	0.10011911392211914
11	27.382808923721313	fix_pre	0		8.0	9.0	2.5	/experiments/knapen_aot/videos/S_yt-4r-oovk9JWg_85.mp4	0.0	96.24041485786438	0.06664395332336426
11	27.44137477874756	response	0	4		9.0	2.5	/experiments/knapen_aot/videos/S_yt-4r-oovk9JWg_85.mp4	0.0	96.29898071289062	
11	27.449452877044678	movie	1		301.0	9.0	2.5	/experiments/knapen_aot/videos/S_yt-4r-oovk9JWg_85.mp4	0.0	96.30705881118774	2.50832200050354
11	29.957774877548218	fix_post	2		12.0	9.0	2.5	/experiments/knapen_aot/videos/S_yt-4r-oovk9JWg_85.mp4	0.0	98.81538081169128	0.10003304481506348
12	30.05780792236328	fix_pre	0		17.0	10.0	2.5	/experiments/knapen_aot/videos/R_S__9v_wUywaAA_35.mp4	0.0	98.91541385650635	0.15124893188476562
12	30.19961380958557	response	0	4		10.0	2.5	/experiments/knapen_aot/videos/R_S__9v_wUywaAA_35.mp4	0.0	99.05721974372864	
12	30.209056854248047	movie	1		301.0	10.0	2.5	/experiments/knapen_aot/videos/R_S__9v_wUywaAA_35.mp4	0.0	99.06666278839111	2.50700306892395
12	32.716059923172	fix_post	2		12.0	10.0	2.5	/experiments/knapen_aot/videos/R_S__9v_wUywaAA_35.mp4	0.0	101.57366585731506	0.10003399848937988
13	32.81609392166138	fix_pre	0		13.0	11.0	2.5	/experiments/knapen_aot/videos/R_S_yt--DXkjCUzThU_413.mp4	0.0	101.67369985580444	0.10831785202026367
13	32.91619396209717	response	0	4		11.0	2.5	/experiments/knapen_aot/videos/R_S_yt--DXkjCUzThU_413.mp4	0.0	101.77379989624023	
13	32.92441177368164	movie	1		301.0	11.0	2.5	/experiments/knapen_aot/videos/R_S_yt--DXkjCUzThU_413.mp4	0.0	101.7820177078247	2.5083820819854736
13	35.432793855667114	fix_post	2		12.0	11.0	2.5	/experiments/knapen_aot/videos/R_S_yt--DXkjCUzThU_413.mp4	0.0	104.29039978981018	0.09997701644897461
14	35.53277087211609	fix_pre	0		5.0	12.0	2.5	blank	1.0	104.39037680625916	0.041661977767944336
14	35.56622385978699	response	0	4		12.0	2.5	blank	1.0	104.42382979393005	
14	35.57443284988403	movie	1		301.0	12.0	2.5	blank	1.0	104.4320387840271	2.508312940597534
14	36.74949288368225	response	1	4		12.0	2.5	blank	1.0	105.60709881782532	
14	37.21610188484192	response	1	4		12.0	2.5	blank	1.0	106.07370781898499	
14	37.53283095359802	response	1	4		12.0	2.5	blank	1.0	106.39043688774109	
14	37.84113883972168	response	1	4		12.0	2.5	blank	1.0	106.69874477386475	
14	38.08274579048157	fix_post	2		12.0	12.0	2.5	blank	1.0	106.94035172462463	0.10003519058227539
15	38.18278098106384	fix_pre	0		16.0	13.0	2.5	/experiments/knapen_aot/videos/R_S_yt-BW6jWEVbxxk_4.mp4	0.0	107.04038691520691	0.13327598571777344
15	38.30783295631409	response	0	4		13.0	2.5	/experiments/knapen_aot/videos/R_S_yt-BW6jWEVbxxk_4.mp4	0.0	107.16543889045715	
15	38.316056966781616	movie	1		301.0	13.0	2.5	/experiments/knapen_aot/videos/R_S_yt-BW6jWEVbxxk_4.mp4	0.0	107.17366290092468	2.5082409381866455
15	40.63283681869507	response	1	4		13.0	2.5	/experiments/knapen_aot/videos/R_S_yt-BW6jWEVbxxk_4.mp4	0.0	109.49044275283813	
15	40.82429790496826	fix_post	2		12.0	13.0	2.5	/experiments/knapen_aot/videos/R_S_yt-BW6jWEVbxxk_4.mp4	0.0	109.68190383911133	0.10008502006530762
16	40.92438292503357	fix_pre	0		19.0	14.0	2.5	/experiments/knapen_aot/videos/R_S_yt--_ZMybcaUOw_254.mp4	0.0	109.78198885917664	0.1595439910888672
16	41.074562788009644	response	0	4		14.0	2.5	/experiments/knapen_aot/videos/R_S_yt--_ZMybcaUOw_254.mp4	0.0	109.93216872215271	
16	41.08392691612244	movie	1		301.0	14.0	2.5	/experiments/knapen_aot/videos/R_S_yt--_ZMybcaUOw_254.mp4	0.0	109.9415328502655	2.5070979595184326
16	43.59102487564087	fix_post	2		12.0	14.0	2.5	/experiments/knapen_aot/videos/R_S_yt--_ZMybcaUOw_254.mp4	0.0	112.44863080978394	0.09996795654296875
17	43.69099283218384	fix_pre	0		20.0	15.0	2.5	/experiments/knapen_aot/videos/S_video-12.mp4	0.0	112.5485987663269	0.1667029857635498
17	43.849461793899536	response	0	4		15.0	2.5	/experiments/knapen_aot/videos/S_video-12.mp4	0.0	112.7070677280426	
17	43.85769581794739	movie	1		166.0	15.0	2.5	/experiments/knapen_aot/videos/S_video-12.mp4	0.0	112.71530175209045	2.5084071159362793
17	46.36610293388367	fix_post	2		12.0	15.0	2.5	/experiments/knapen_aot/videos/S_video-12.mp4	0.0	115.22370886802673	0.09994387626647949
18	46.46604681015015	fix_pre	0		12.0	16.0	2.5	/experiments/knapen_aot/videos/S_yt-5MyvZYFlc9g_125.mp4	0.0	115.32365274429321	0.09999418258666992
18	46.557947874069214	response	0	4		16.0	2.5	/experiments/knapen_aot/videos/S_yt-5MyvZYFlc9g_125.mp4	0.0	115.41555380821228	
18	46.566040992736816	movie	1		301.0	16.0	2.5	/experiments/knapen_aot/videos/S_yt-5MyvZYFlc9g_125.mp4	0.0	115.42364692687988	2.5083529949188232
18	49.07439398765564	fix_post	2		12.0	16.0	2.5	/experiments/knapen_aot/videos/S_yt-5MyvZYFlc9g_125.mp4	0.0	117.9319999217987	0.10000395774841309
19	49.17439794540405	fix_pre	0		14.0	17.0	2.5	/experiments/knapen_aot/videos/R_S_yt-uXDyvrm0Tw0_17.mp4	0.0	118.03200387954712	0.11780595779418945
19	49.28290295600891	response	0	4		17.0	2.5	/experiments/knapen_aot/videos/R_S_yt-uXDyvrm0Tw0_17.mp4	0.0	118.14050889015198	
19	49.29220390319824	movie	1		301.0	17.0	2.5	/experiments/knapen_aot/videos/R_S_yt-uXDyvrm0Tw0_17.mp4	0.0	118.14980983734131	2.5071818828582764
19	51.79938578605652	fix_post	2		12.0	17.0	2.5	/experiments/knapen_aot/videos/R_S_yt-uXDyvrm0Tw0_17.mp4	0.0	120.65699172019958	0.09999513626098633
20	51.899380922317505	fix_pre	0		6.0	18.0	2.5	/experiments/knapen_aot/videos/R_S_ILSVRC2015_train_00743000.mp4	0.0	120.75698685646057	0.04999589920043945
20	51.94114685058594	response	0	4		18.0	2.5	/experiments/knapen_aot/videos/R_S_ILSVRC2015_train_00743000.mp4	0.0	120.798752784729	
20	51.949376821517944	movie	1		301.0	18.0	2.5	/experiments/knapen_aot/videos/R_S_ILSVRC2015_train_00743000.mp4	0.0	120.80698275566101	2.508181095123291
20	54.457557916641235	fix_post	2		12.0	18.0	2.5	/experiments/knapen_aot/videos/R_S_ILSVRC2015_train_00743000.mp4	0.0	123.3151638507843	0.10015606880187988
21	54.557713985443115	fix_pre	0		16.0	19.0	2.5	/experiments/knapen_aot/videos/S_pexels-cottonbro-5310858.mp4	0.0	123.41531991958618	0.133314847946167
21	54.682822942733765	response	0	4		19.0	2.5	/experiments/knapen_aot/videos/S_pexels-cottonbro-5310858.mp4	0.0	123.54042887687683	
21	54.69102883338928	movie	1		166.0	19.0	2.5	/experiments/knapen_aot/videos/S_pexels-cottonbro-5310858.mp4	0.0	123.54863476753235	2.5083611011505127
21	57.199389934539795	fix_post	2		12.0	19.0	2.5	/experiments/knapen_aot/videos/S_pexels-cottonbro-5310858.mp4	0.0	126.05699586868286	0.09998488426208496
22	57.29937481880188	fix_pre	0		6.0	20.0	2.5	/experiments/knapen_aot/videos/R_S_yt-MyL1VlXiZa4_25.mp4	0.0	126.15698075294495	0.049987077713012695
22	57.34118890762329	response	0	4		20.0	2.5	/experiments/knapen_aot/videos/R_S_yt-MyL1VlXiZa4_25.mp4	0.0	126.19879484176636	
22	57.34936189651489	movie	1		301.0	20.0	2.5	/experiments/knapen_aot/videos/R_S_yt-MyL1VlXiZa4_25.mp4	0.0	126.20696783065796	2.5083420276641846
22	59.85770392417908	fix_post	2		12.0	20.0	2.5	/experiments/knapen_aot/videos/R_S_yt-MyL1VlXiZa4_25.mp4	0.0	128.71530985832214	0.09993386268615723
23	59.957637786865234	fix_pre	0		38.0	21.0	2.5	blank	1.0	128.8152437210083	0.31669020652770996
23	60.26615595817566	response	0	4		21.0	2.5	blank	1.0	129.12376189231873	
23	60.274327993392944	movie	1		301.0	21.0	2.5	blank	1.0	129.131933927536	2.508323907852173
23	62.78265190124512	fix_post	2		12.0	21.0	2.5	blank	1.0	131.64025783538818	0.10001087188720703
24	62.882662773132324	fix_pre	0		20.0	22.0	2.5	/experiments/knapen_aot/videos/S_wc-sd8_iKx0t7s7_9.mp4	0.0	131.7402687072754	0.16662311553955078
24	63.04112792015076	response	0	4		22.0	2.5	/experiments/knapen_aot/videos/S_wc-sd8_iKx0t7s7_9.mp4	0.0	131.89873385429382	
24	63.049285888671875	movie	1		165.0	22.0	2.5	/experiments/knapen_aot/videos/S_wc-sd8_iKx0t7s7_9.mp4	0.0	131.90689182281494	2.5083670616149902
24	65.55765295028687	fix_post	2		12.0	22.0	2.5	/experiments/knapen_aot/videos/S_wc-sd8_iKx0t7s7_9.mp4	0.0	134.41525888442993	0.09999895095825195
25	65.65765190124512	fix_pre	0		17.0	23.0	2.5	/experiments/knapen_aot/videos/S_yt-r7brAHgxZSU_248.mp4	0.0	134.51525783538818	0.14999890327453613
25	65.79115200042725	response	0	4		23.0	2.5	/experiments/knapen_aot/videos/S_yt-r7brAHgxZSU_248.mp4	0.0	134.6487579345703	
25	65.80765080451965	movie	1		300.0	23.0	2.5	/experiments/knapen_aot/videos/S_yt-r7brAHgxZSU_248.mp4	0.0	134.66525673866272	2.5000040531158447
25	68.3076548576355	fix_post	2		12.0	23.0	2.5	/experiments/knapen_aot/videos/S_yt-r7brAHgxZSU_248.mp4	0.0	137.16526079177856	0.10003113746643066
26	68.40768599510193	fix_pre	0		16.0	24.0	2.5	/experiments/knapen_aot/videos/S_yt-z5rxY-WhFNw_15.mp4	0.0	137.265291929245	0.13434386253356934
26	68.53283095359802	response	0	4		24.0	2.5	/experiments/knapen_aot/videos/S_yt-z5rxY-WhFNw_15.mp4	0.0	137.3904368877411	
26	68.5420298576355	movie	1		301.0	24.0	2.5	/experiments/knapen_aot/videos/S_yt-z5rxY-WhFNw_15.mp4	0.0	137.39963579177856	2.507288932800293
26	71.04931879043579	fix_post	2		12.0	24.0	2.5	/experiments/knapen_aot/videos/S_yt-z5rxY-WhFNw_15.mp4	0.0	139.90692472457886	0.09996914863586426
27	71.14928793907166	fix_pre	0		14.0	25.0	2.5	/experiments/knapen_aot/videos/R_S_wc-PX_MIe5L43_3_16.mp4	0.0	140.00689387321472	0.1166529655456543
27	71.25784277915955	response	0	4		25.0	2.5	/experiments/knapen_aot/videos/R_S_wc-PX_MIe5L43_3_16.mp4	0.0	140.1154487133026	
27	71.26594090461731	movie	1		301.0	25.0	2.5	/experiments/knapen_aot/videos/R_S_wc-PX_MIe5L43_3_16.mp4	0.0	140.12354683876038	2.508342981338501
27	73.77428388595581	fix_post	2		12.0	25.0	2.5	/experiments/knapen_aot/videos/R_S_wc-PX_MIe5L43_3_16.mp4	0.0	142.63188982009888	0.10004210472106934
28	73.87432599067688	fix_pre	0		37.0	26.0	2.5	/experiments/knapen_aot/videos/R_S_ILSVRC2015_train_00638000.mp4	0.0	142.73193192481995	0.30829501152038574
28	74.17443299293518	response	0	4		26.0	2.5	/experiments/knapen_aot/videos/R_S_ILSVRC2015_train_00638000.mp4	0.0	143.03203892707825	
28	74.18262100219727	movie	1		301.0	26.0	2.5	/experiments/knapen_aot/videos/R_S_ILSVRC2015_train_00638000.mp4	0.0	143.04022693634033	2.5083279609680176
28	76.69094896316528	fix_post	2		12.0	26.0	2.5	/experiments/knapen_aot/videos/R_S_ILSVRC2015_train_00638000.mp4	0.0	145.54855489730835	0.09993481636047363
29	76.79088377952576	fix_pre	0		18.0	27.0	2.5	/experiments/knapen_aot/videos/R_S_yt-gOoDjhfSPj0_162.mp4	0.0	145.64848971366882	0.1500391960144043
29	76.92525386810303	response	0	4		27.0	2.5	/experiments/knapen_aot/videos/R_S_yt-gOoDjhfSPj0_162.mp4	0.0	145.7828598022461	
29	76.94092297554016	movie	1		301.0	27.0	2.5	/experiments/knapen_aot/videos/R_S_yt-gOoDjhfSPj0_162.mp4	0.0	145.79852890968323	2.50834584236145
29	79.44926881790161	fix_post	2		12.0	27.0	2.5	/experiments/knapen_aot/videos/R_S_yt-gOoDjhfSPj0_162.mp4	0.0	148.30687475204468	0.10006117820739746
30	79.54932999610901	fix_pre	0		16.0	28.0	2.5	blank	1.0	148.40693593025208	0.13329386711120605
30	79.67438197135925	response	0	4		28.0	2.5	blank	1.0	148.53198790550232	
30	79.68262386322021	movie	1		301.0	28.0	2.5	blank	1.0	148.54022979736328	2.5083091259002686
30	82.19093298912048	fix_post	2		12.0	28.0	2.5	blank	1.0	151.04853892326355	0.09999394416809082
31	82.29092693328857	fix_pre	0		33.0	29.0	2.5	/experiments/knapen_aot/videos/S_yt-H-qQ0oE1kwM_6.mp4	0.0	151.14853286743164	0.27492499351501465
31	82.55784487724304	response	0	4		29.0	2.5	/experiments/knapen_aot/videos/S_yt-H-qQ0oE1kwM_6.mp4	0.0	151.4154508113861	
31	82.56585192680359	movie	1		301.0	29.0	2.5	/experiments/knapen_aot/videos/S_yt-H-qQ0oE1kwM_6.mp4	0.0	151.42345786094666	2.508336067199707
31	85.0741879940033	fix_post	2		12.0	29.0	2.5	/experiments/knapen_aot/videos/S_yt-H-qQ0oE1kwM_6.mp4	0.0	153.93179392814636	0.10007381439208984
32	85.17426180839539	fix_pre	0		21.0	30.0	2.5	/experiments/knapen_aot/videos/R_S_wc-PX_MIe5L43_3_16.mp4	0.0	154.03186774253845	0.1749131679534912
32	85.34100699424744	response	0	4		30.0	2.5	/experiments/knapen_aot/videos/R_S_wc-PX_MIe5L43_3_16.mp4	0.0	154.1986129283905	
32	85.34917497634888	movie	1		298.0	30.0	2.5	/experiments/knapen_aot/videos/R_S_wc-PX_MIe5L43_3_16.mp4	0.0	154.20678091049194	2.508327007293701
32	87.85750198364258	fix_post	2		12.0	30.0	2.5	/experiments/knapen_aot/videos/R_S_wc-PX_MIe5L43_3_16.mp4	0.0	156.71510791778564	0.09998488426208496
33	87.95748686790466	fix_pre	0		18.0	31.0	2.5	/experiments/knapen_aot/videos/R_S_yt-yJmHtBFyhH4_15.mp4	0.0	156.81509280204773	0.1500251293182373
33	88.09185695648193	response	0	4		31.0	2.5	/experiments/knapen_aot/videos/R_S_yt-yJmHtBFyhH4_15.mp4	0.0	156.949462890625	
33	88.1075119972229	movie	1		301.0	31.0	2.5	/experiments/knapen_aot/videos/R_S_yt-yJmHtBFyhH4_15.mp4	0.0	156.96511793136597	2.5083189010620117
33	90.61583089828491	fix_post	2		12.0	31.0	2.5	/experiments/knapen_aot/videos/R_S_yt-yJmHtBFyhH4_15.mp4	0.0	159.47343683242798	0.09995388984680176
34	90.71578478813171	fix_pre	0		3.0	32.0	2.5	/experiments/knapen_aot/videos/R_S_yt-aSEKRE_FNaI_62.mp4	0.0	159.57339072227478	0.0249941349029541
34	90.73254585266113	response	0	4		32.0	2.5	/experiments/knapen_aot/videos/R_S_yt-aSEKRE_FNaI_62.mp4	0.0	159.5901517868042	
34	90.74077892303467	movie	1		301.0	32.0	2.5	/experiments/knapen_aot/videos/R_S_yt-aSEKRE_FNaI_62.mp4	0.0	159.59838485717773	2.508359909057617
34	93.24913883209229	fix_post	2		12.0	32.0	2.5	/experiments/knapen_aot/videos/R_S_yt-aSEKRE_FNaI_62.mp4	0.0	162.10674476623535	0.10003399848937988
35	93.34917283058167	fix_pre	0		22.0	33.0	2.5	/experiments/knapen_aot/videos/R_S_yt-BiBS8EO5GPc_4.mp4	0.0	162.20677876472473	0.18331098556518555
35	93.52431178092957	response	0	4		33.0	2.5	/experiments/knapen_aot/videos/R_S_yt-BiBS8EO5GPc_4.mp4	0.0	162.38191771507263	
35	93.53248381614685	movie	1		301.0	33.0	2.5	/experiments/knapen_aot/videos/R_S_yt-BiBS8EO5GPc_4.mp4	0.0	162.39008975028992	2.508316993713379
35	96.04080080986023	fix_post	2		12.0	33.0	2.5	/experiments/knapen_aot/videos/R_S_yt-BiBS8EO5GPc_4.mp4	0.0	164.8984067440033	0.10001516342163086
36	96.14081597328186	fix_pre	0		6.0	34.0	2.5	blank	1.0	164.99842190742493	0.049978017807006836
36	96.1825499534607	response	0	4		34.0	2.5	blank	1.0	165.04015588760376	
36	96.19079399108887	movie	1		301.0	34.0	2.5	blank	1.0	165.04839992523193	2.508314847946167
36	98.69910883903503	fix_post	2		12.0	34.0	2.5	blank	1.0	167.5567147731781	0.10005307197570801
37	98.79916191101074	fix_pre	0		35.0	35.0	2.5	/experiments/knapen_aot/videos/R_S_yt-Gam0NeyyG8w_22.mp4	0.0	167.6567678451538	0.29163599014282227
37	99.08251881599426	response	0	4		35.0	2.5	/experiments/knapen_aot/videos/R_S_yt-Gam0NeyyG8w_22.mp4	0.0	167.94012475013733	
37	99.09079790115356	movie	1		301.0	35.0	2.5	/experiments/knapen_aot/videos/R_S_yt-Gam0NeyyG8w_22.mp4	0.0	167.94840383529663	2.5083649158477783
37	101.59916281700134	fix_post	2		12.0	35.0	2.5	/experiments/knapen_aot/videos/R_S_yt-Gam0NeyyG8w_22.mp4	0.0	170.4567687511444	0.09998917579650879
38	101.69915199279785	fix_pre	0		6.0	36.0	2.5	/experiments/knapen_aot/videos/R_S_video-7.mp4	0.0	170.55675792694092	0.050894975662231445
38	101.74087500572205	response	0	4		36.0	2.5	/experiments/knapen_aot/videos/R_S_video-7.mp4	0.0	170.5984809398651	
38	101.75004696846008	movie	1		169.0	36.0	2.5	/experiments/knapen_aot/videos/R_S_video-7.mp4	0.0	170.60765290260315	2.5073728561401367
38	104.25741982460022	fix_post	2		12.0	36.0	2.5	/experiments/knapen_aot/videos/R_S_video-7.mp4	0.0	173.1150257587433	0.1000070571899414
39	104.35742688179016	fix_pre	0		10.0	37.0	2.5	/experiments/knapen_aot/videos/R_S_yt-BiBS8EO5GPc_4.mp4	0.0	173.21503281593323	0.08331298828125
39	104.43253183364868	response	0	4		37.0	2.5	/experiments/knapen_aot/videos/R_S_yt-BiBS8EO5GPc_4.mp4	0.0	173.29013776779175	
39	104.44073987007141	movie	1		301.0	37.0	2.5	/experiments/knapen_aot/videos/R_S_yt-BiBS8EO5GPc_4.mp4	0.0	173.29834580421448	2.508358955383301
39	106.94909882545471	fix_post	2		12.0	37.0	2.5	/experiments/knapen_aot/videos/R_S_yt-BiBS8EO5GPc_4.mp4	0.0	175.80670475959778	0.0999460220336914
40	107.0490448474884	fix_pre	0		3.0	38.0	2.5	/experiments/knapen_aot/videos/S_comp_A007_C017_01156B_v02_SDR_PS_20180925_SDR_2K_AVC.mp4	0.0	175.90665078163147	0.025057077407836914
40	107.06587982177734	response	0	4		38.0	2.5	/experiments/knapen_aot/videos/S_comp_A007_C017_01156B_v02_SDR_PS_20180925_SDR_2K_AVC.mp4	0.0	175.9234857559204	
40	107.07410192489624	movie	1		165.0	38.0	2.5	/experiments/knapen_aot/videos/S_comp_A007_C017_01156B_v02_SDR_PS_20180925_SDR_2K_AVC.mp4	0.0	175.9317078590393	2.508323907852173
40	109.58242583274841	fix_post	2		12.0	38.0	2.5	/experiments/knapen_aot/videos/S_comp_A007_C017_01156B_v02_SDR_PS_20180925_SDR_2K_AVC.mp4	0.0	178.44003176689148	0.09993195533752441
41	109.68235778808594	fix_pre	0		5.0	39.0	2.5	/experiments/knapen_aot/videos/S_yt-ol2u_-gd0-o_13.mp4	0.0	178.539963722229	0.041784048080444336
41	109.71596789360046	response	0	4		39.0	2.5	/experiments/knapen_aot/videos/S_yt-ol2u_-gd0-o_13.mp4	0.0	178.57357382774353	
41	109.72414183616638	movie	1		301.0	39.0	2.5	/experiments/knapen_aot/videos/S_yt-ol2u_-gd0-o_13.mp4	0.0	178.58174777030945	2.508249044418335
41	112.23239088058472	fix_post	2		12.0	39.0	2.5	/experiments/knapen_aot/videos/S_yt-ol2u_-gd0-o_13.mp4	0.0	181.08999681472778	0.1008920669555664
42	112.33328294754028	fix_pre	0		50.0	40.0	2.5	blank	1.0	181.19088888168335	0.41667985916137695
42	112.74076080322266	response	0	4		40.0	2.5	blank	1.0	181.59836673736572	
42	112.74996280670166	movie	1		301.0	40.0	2.5	blank	1.0	181.60756874084473	2.507498025894165
42	115.25746083259583	fix_post	2		12.0	40.0	2.5	blank	1.0	184.1150667667389	0.09990811347961426
43	115.35736894607544	fix_pre	0		27.0	41.0	2.5	/experiments/knapen_aot/videos/R_S_comp_A114_C001_0305OT_v10_SDR_FINAL_22062018_SDR_2K_AVC.mp4	0.0	184.2149748802185	0.22580790519714355
43	115.56669497489929	response	0	4		41.0	2.5	/experiments/knapen_aot/videos/R_S_comp_A114_C001_0305OT_v10_SDR_FINAL_22062018_SDR_2K_AVC.mp4	0.0	184.42430090904236	
43	115.58317685127258	movie	1		169.0	41.0	2.5	/experiments/knapen_aot/videos/R_S_comp_A114_C001_0305OT_v10_SDR_FINAL_22062018_SDR_2K_AVC.mp4	0.0	184.44078278541565	2.507578134536743
43	118.09075498580933	fix_post	2		12.0	41.0	2.5	/experiments/knapen_aot/videos/R_S_comp_A114_C001_0305OT_v10_SDR_FINAL_22062018_SDR_2K_AVC.mp4	0.0	186.9483609199524	0.09994888305664062
44	118.19070386886597	fix_pre	0		15.0	42.0	2.5	/experiments/knapen_aot/videos/R_S_cST9H3zu3zQ_126.mp4	0.0	187.04830980300903	0.1249840259552002
44	118.30748677253723	response	0	4		42.0	2.5	/experiments/knapen_aot/videos/R_S_cST9H3zu3zQ_126.mp4	0.0	187.1650927066803	
44	118.31568789482117	movie	1		298.0	42.0	2.5	/experiments/knapen_aot/videos/R_S_cST9H3zu3zQ_126.mp4	0.0	187.17329382896423	2.5084118843078613
44	120.82409977912903	fix_post	2		12.0	42.0	2.5	/experiments/knapen_aot/videos/R_S_cST9H3zu3zQ_126.mp4	0.0	189.6817057132721	0.09998106956481934
45	120.92408084869385	fix_pre	0		9.0	43.0	2.5	/experiments/knapen_aot/videos/R_S_yt-GWO7FHN1Jb4_142.mp4	0.0	189.7816867828369	0.07579493522644043
45	120.9908938407898	response	0	4		43.0	2.5	/experiments/knapen_aot/videos/R_S_yt-GWO7FHN1Jb4_142.mp4	0.0	189.84849977493286	
45	120.99987578392029	movie	1		301.0	43.0	2.5	/experiments/knapen_aot/videos/R_S_yt-GWO7FHN1Jb4_142.mp4	0.0	189.85748171806335	2.507498025894165
45	123.50737380981445	fix_post	2		12.0	43.0	2.5	/experiments/knapen_aot/videos/R_S_yt-GWO7FHN1Jb4_142.mp4	0.0	192.36497974395752	0.09993410110473633
46	123.60730791091919	fix_pre	0		15.0	44.0	2.5	/experiments/knapen_aot/videos/S_bing-www_dailymotion_com_video_x64c56w_164.mp4	0.0	192.46491384506226	0.12502098083496094
46	123.72418785095215	response	0	4		44.0	2.5	/experiments/knapen_aot/videos/S_bing-www_dailymotion_com_video_x64c56w_164.mp4	0.0	192.58179378509521	
46	123.73232889175415	movie	1		166.0	44.0	2.5	/experiments/knapen_aot/videos/S_bing-www_dailymotion_com_video_x64c56w_164.mp4	0.0	192.58993482589722	2.5084409713745117
46	126.24076986312866	fix_post	2		12.0	44.0	2.5	/experiments/knapen_aot/videos/S_bing-www_dailymotion_com_video_x64c56w_164.mp4	0.0	195.09837579727173	0.09992599487304688
47	126.34069585800171	fix_pre	0		10.0	45.0	2.5	/experiments/knapen_aot/videos/R_S_yt-ThT8utBaywI_68.mp4	0.0	195.19830179214478	0.08338713645935059
47	126.41595697402954	response	0	4		45.0	2.5	/experiments/knapen_aot/videos/R_S_yt-ThT8utBaywI_68.mp4	0.0	195.2735629081726	
47	126.42408299446106	movie	1		301.0	45.0	2.5	/experiments/knapen_aot/videos/R_S_yt-ThT8utBaywI_68.mp4	0.0	195.28168892860413	2.508265972137451
47	128.9323489665985	fix_post	2		12.0	45.0	2.5	/experiments/knapen_aot/videos/R_S_yt-ThT8utBaywI_68.mp4	0.0	197.78995490074158	0.0999608039855957
48	129.0323097705841	fix_pre	0		33.0	46.0	2.5	/experiments/knapen_aot/videos/S_cST9H3zu3zQ_126.mp4	0.0	197.88991570472717	0.27499914169311523
48	129.29913783073425	response	0	4		46.0	2.5	/experiments/knapen_aot/videos/S_cST9H3zu3zQ_126.mp4	0.0	198.15674376487732	
48	129.30730891227722	movie	1		301.0	46.0	2.5	/experiments/knapen_aot/videos/S_cST9H3zu3zQ_126.mp4	0.0	198.1649148464203	2.5082828998565674
48	131.8155918121338	fix_post	2		12.0	46.0	2.5	/experiments/knapen_aot/videos/S_cST9H3zu3zQ_126.mp4	0.0	200.67319774627686	0.10002017021179199
49	131.91561198234558	fix_pre	0		19.0	47.0	2.5	/experiments/knapen_aot/videos/S_yt-JVhfcpV7OaY_71.mp4	0.0	200.77321791648865	0.1583390235900879
49	132.06580781936646	response	0	4		47.0	2.5	/experiments/knapen_aot/videos/S_yt-JVhfcpV7OaY_71.mp4	0.0	200.92341375350952	
49	132.07395100593567	movie	1		301.0	47.0	2.5	/experiments/knapen_aot/videos/S_yt-JVhfcpV7OaY_71.mp4	0.0	200.93155694007874	2.508305788040161
49	134.58225679397583	fix_post	2		12.0	47.0	2.5	/experiments/knapen_aot/videos/S_yt-JVhfcpV7OaY_71.mp4	0.0	203.4398627281189	0.0999910831451416
50	134.68224787712097	fix_pre	0		43.0	48.0	2.5	/experiments/knapen_aot/videos/R_S_ILSVRC2015_train_00575000.mp4	0.0	203.53985381126404	0.35909390449523926
50	135.032390832901	response	0	4		48.0	2.5	/experiments/knapen_aot/videos/R_S_ILSVRC2015_train_00575000.mp4	0.0	203.88999676704407	
50	135.0413417816162	movie	1		301.0	48.0	2.5	/experiments/knapen_aot/videos/R_S_ILSVRC2015_train_00575000.mp4	0.0	203.89894771575928	2.5075230598449707
50	137.54886484146118	fix_post	2		12.0	48.0	2.5	/experiments/knapen_aot/videos/R_S_ILSVRC2015_train_00575000.mp4	0.0	206.40647077560425	0.10008907318115234
51	137.64895391464233	fix_pre	0		30.0	49.0	2.5	blank	1.0	206.5065598487854	0.24994802474975586
51	137.89078378677368	response	0	4		49.0	2.5	blank	1.0	206.74838972091675	
51	137.8989019393921	movie	1		301.0	49.0	2.5	blank	1.0	206.75650787353516	2.5082738399505615
51	138.65741896629333	response	1	4		49.0	2.5	blank	1.0	207.5150249004364	
51	139.14071393013	response	1	4		49.0	2.5	blank	1.0	207.99831986427307	
51	140.40717577934265	fix_post	2		12.0	49.0	2.5	blank	1.0	209.26478171348572	0.10007309913635254
52	140.507248878479	fix_pre	0		31.0	50.0	2.5	/experiments/knapen_aot/videos/R_S_yt-146gReE6xKw_379.mp4	0.0	209.36485481262207	0.2583160400390625
52	140.75735688209534	response	0	4		50.0	2.5	/experiments/knapen_aot/videos/R_S_yt-146gReE6xKw_379.mp4	0.0	209.6149628162384	
52	140.76556491851807	movie	1		301.0	50.0	2.5	/experiments/knapen_aot/videos/R_S_yt-146gReE6xKw_379.mp4	0.0	209.62317085266113	2.5083658695220947
52	143.27393078804016	fix_post	2		12.0	50.0	2.5	/experiments/knapen_aot/videos/R_S_yt-146gReE6xKw_379.mp4	0.0	212.13153672218323	0.10000920295715332
53	143.37393999099731	fix_pre	0		17.0	51.0	2.5	/experiments/knapen_aot/videos/S_yt-xqjVM0Vj4mI_161.mp4	0.0	212.23154592514038	0.14161992073059082
53	143.50734281539917	response	0	4		51.0	2.5	/experiments/knapen_aot/videos/S_yt-xqjVM0Vj4mI_161.mp4	0.0	212.36494874954224	
53	143.5155599117279	movie	1		300.0	51.0	2.5	/experiments/knapen_aot/videos/S_yt-xqjVM0Vj4mI_161.mp4	0.0	212.37316584587097	2.5085558891296387
53	146.02411580085754	fix_post	2		12.0	51.0	2.5	/experiments/knapen_aot/videos/S_yt-xqjVM0Vj4mI_161.mp4	0.0	214.8817217350006	0.09983205795288086
54	146.12394785881042	fix_pre	0		10.0	52.0	2.5	/experiments/knapen_aot/videos/R_S_video-7.mp4	0.0	214.9815537929535	0.08397603034973145
54	146.1990327835083	response	0	4		52.0	2.5	/experiments/knapen_aot/videos/R_S_video-7.mp4	0.0	215.05663871765137	
54	146.20792388916016	movie	1		171.0	52.0	2.5	/experiments/knapen_aot/videos/R_S_video-7.mp4	0.0	215.06552982330322	2.507646083831787
54	148.71556997299194	fix_post	2		12.0	52.0	2.5	/experiments/knapen_aot/videos/R_S_video-7.mp4	0.0	217.573175907135	0.09996986389160156
55	148.81553983688354	fix_pre	0		1.0	53.0	2.5	/experiments/knapen_aot/videos/S_ILSVRC2015_train_00743000.mp4	0.0	217.6731457710266	0.010463953018188477
55	148.81715083122253	response	0	4		53.0	2.5	/experiments/knapen_aot/videos/S_ILSVRC2015_train_00743000.mp4	0.0	217.6747567653656	
55	148.82600378990173	movie	1		301.0	53.0	2.5	/experiments/knapen_aot/videos/S_ILSVRC2015_train_00743000.mp4	0.0	217.6836097240448	2.5061872005462646
55	151.332190990448	fix_post	2		12.0	53.0	2.5	/experiments/knapen_aot/videos/S_ILSVRC2015_train_00743000.mp4	0.0	220.18979692459106	0.10007786750793457
56	151.43226885795593	fix_pre	0		3.0	54.0	2.5	blank	1.0	220.289874792099	0.026016950607299805
56	151.4415807723999	response	0	4		54.0	2.5	blank	1.0	220.29918670654297	
56	151.45828580856323	movie	1		301.0	54.0	2.5	blank	1.0	220.3158917427063	2.5072569847106934
56	152.87401294708252	response	1	4		54.0	2.5	blank	1.0	221.7316188812256	
56	153.44895195960999	response	1	4		54.0	2.5	blank	1.0	222.30655789375305	
56	153.9406008720398	response	1	4		54.0	2.5	blank	1.0	222.79820680618286	
56	153.96554279327393	fix_post	2		12.0	54.0	2.5	blank	1.0	222.823148727417	0.10005903244018555
57	154.0656018257141	fix_pre	0		28.0	55.0	2.5	/experiments/knapen_aot/videos/S_yt-NuZy8Rjk4d0_156.mp4	0.0	222.92320775985718	0.23329615592956543
57	154.2907009124756	response	0	4		55.0	2.5	/experiments/knapen_aot/videos/S_yt-NuZy8Rjk4d0_156.mp4	0.0	223.14830684661865	
57	154.29889798164368	movie	1		300.0	55.0	2.5	/experiments/knapen_aot/videos/S_yt-NuZy8Rjk4d0_156.mp4	0.0	223.15650391578674	2.5082499980926514
57	156.80714797973633	fix_post	2		12.0	55.0	2.5	/experiments/knapen_aot/videos/S_yt-NuZy8Rjk4d0_156.mp4	0.0	225.6647539138794	0.10006189346313477
58	156.90720987319946	fix_pre	0		3.0	56.0	2.5	/experiments/knapen_aot/videos/S_yt-06XMUn9DTKc_35.mp4	0.0	225.76481580734253	0.024984121322631836
58	156.92404079437256	response	0	4		56.0	2.5	/experiments/knapen_aot/videos/S_yt-06XMUn9DTKc_35.mp4	0.0	225.78164672851562	
58	156.9321939945221	movie	1		301.0	56.0	2.5	/experiments/knapen_aot/videos/S_yt-06XMUn9DTKc_35.mp4	0.0	225.78979992866516	2.5083417892456055
58	159.4405357837677	fix_post	2		12.0	56.0	2.5	/experiments/knapen_aot/videos/S_yt-06XMUn9DTKc_35.mp4	0.0	228.29814171791077	0.10061216354370117
59	159.5411479473114	fix_pre	0		6.0	57.0	2.5	/experiments/knapen_aot/videos/S_ILSVRC2015_train_00371006.mp4	0.0	228.39875388145447	0.049340009689331055
59	159.58229184150696	response	0	4		57.0	2.5	/experiments/knapen_aot/videos/S_ILSVRC2015_train_00371006.mp4	0.0	228.43989777565002	
59	159.59048795700073	movie	1		301.0	57.0	2.5	/experiments/knapen_aot/videos/S_ILSVRC2015_train_00371006.mp4	0.0	228.4480938911438	2.5083749294281006
59	162.09886288642883	fix_post	2		12.0	57.0	2.5	/experiments/knapen_aot/videos/S_ILSVRC2015_train_00371006.mp4	0.0	230.9564688205719	0.09995198249816895
60	162.198814868927	fix_pre	0		9.0	58.0	2.5	/experiments/knapen_aot/videos/R_S_yt-lkpfs_4qAGE_50.mp4	0.0	231.05642080307007	0.0752251148223877
60	162.25899195671082	response	0	4		58.0	2.5	/experiments/knapen_aot/videos/R_S_yt-lkpfs_4qAGE_50.mp4	0.0	231.11659789085388	
60	162.2740399837494	movie	1		300.0	58.0	2.5	/experiments/knapen_aot/videos/R_S_yt-lkpfs_4qAGE_50.mp4	0.0	231.13164591789246	2.5081779956817627
60	164.78221797943115	fix_post	2		12.0	58.0	2.5	/experiments/knapen_aot/videos/R_S_yt-lkpfs_4qAGE_50.mp4	0.0	233.63982391357422	0.10003280639648438
61	164.88225078582764	fix_pre	0		16.0	59.0	2.5	/experiments/knapen_aot/videos/S_yt-gzjV6YoK6X0_3.mp4	0.0	233.7398567199707	0.1332690715789795
61	165.0073218345642	response	0	4		59.0	2.5	/experiments/knapen_aot/videos/S_yt-gzjV6YoK6X0_3.mp4	0.0	233.86492776870728	
61	165.01551985740662	movie	1		301.0	59.0	2.5	/experiments/knapen_aot/videos/S_yt-gzjV6YoK6X0_3.mp4	0.0	233.87312579154968	2.5083141326904297
61	167.52383399009705	fix_post	2		12.0	59.0	2.5	/experiments/knapen_aot/videos/S_yt-gzjV6YoK6X0_3.mp4	0.0	236.3814399242401	0.10004091262817383
62	167.62387490272522	fix_pre	0		45.0	60.0	2.5	/experiments/knapen_aot/videos/S_wc-16LozRfhUGea_49.mp4	0.0	236.4814808368683	0.3755829334259033
62	167.99072098731995	response	0	4		60.0	2.5	/experiments/knapen_aot/videos/S_wc-16LozRfhUGea_49.mp4	0.0	236.848326921463	
62	167.99945783615112	movie	1		301.0	60.0	2.5	/experiments/knapen_aot/videos/S_wc-16LozRfhUGea_49.mp4	0.0	236.8570637702942	2.507742166519165
62	170.5072000026703	fix_post	2		12.0	60.0	2.5	/experiments/knapen_aot/videos/S_wc-16LozRfhUGea_49.mp4	0.0	239.36480593681335	0.10000300407409668
63	170.60720300674438	fix_pre	0		14.0	61.0	2.5	/experiments/knapen_aot/videos/R_S_production_ID_5020960.mp4	0.0	239.46480894088745	0.11667895317077637
63	170.71568083763123	response	0	4		61.0	2.5	/experiments/knapen_aot/videos/R_S_production_ID_5020960.mp4	0.0	239.5732867717743	
63	170.72388195991516	movie	1		202.0	61.0	2.5	/experiments/knapen_aot/videos/R_S_production_ID_5020960.mp4	0.0	239.58148789405823	2.5083038806915283
63	173.2321858406067	fix_post	2		12.0	61.0	2.5	/experiments/knapen_aot/videos/R_S_production_ID_5020960.mp4	0.0	242.08979177474976	0.09996294975280762
64	173.3321487903595	fix_pre	0		3.0	62.0	2.5	blank	1.0	242.18975472450256	0.025027990341186523
64	173.348965883255	response	0	4		62.0	2.5	blank	1.0	242.20657181739807	
64	173.35717678070068	movie	1		301.0	62.0	2.5	blank	1.0	242.21478271484375	2.5083160400390625
64	175.86549282073975	fix_post	2		12.0	62.0	2.5	blank	1.0	244.7230987548828	0.10003495216369629
65	175.96552777290344	fix_pre	0		19.0	63.0	2.5	/experiments/knapen_aot/videos/R_S_video_inspire_oregon_lone-ranch-beach_00001.1080-h264.mp4	0.0	244.8231337070465	0.15884017944335938
65	176.11562180519104	response	0	4		63.0	2.5	/experiments/knapen_aot/videos/R_S_video_inspire_oregon_lone-ranch-beach_00001.1080-h264.mp4	0.0	244.9732277393341	
65	176.1243679523468	movie	1		166.0	63.0	2.5	/experiments/knapen_aot/videos/R_S_video_inspire_oregon_lone-ranch-beach_00001.1080-h264.mp4	0.0	244.98197388648987	2.507750988006592
65	178.6321189403534	fix_post	2		12.0	63.0	2.5	/experiments/knapen_aot/videos/R_S_video_inspire_oregon_lone-ranch-beach_00001.1080-h264.mp4	0.0	247.48972487449646	0.10000991821289062
66	178.73212885856628	fix_pre	0		1.0	64.0	2.5	/experiments/knapen_aot/videos/S_yt-GWO7FHN1Jb4_142.mp4	0.0	247.58973479270935	0.01023411750793457
66	178.72504878044128	response	0	4		64.0	2.5	/experiments/knapen_aot/videos/S_yt-GWO7FHN1Jb4_142.mp4	0.0	247.58265471458435	
66	178.74236297607422	movie	1		301.0	64.0	2.5	/experiments/knapen_aot/videos/S_yt-GWO7FHN1Jb4_142.mp4	0.0	247.59996891021729	2.5064189434051514
66	181.24878191947937	fix_post	2		12.0	64.0	2.5	/experiments/knapen_aot/videos/S_yt-GWO7FHN1Jb4_142.mp4	0.0	250.10638785362244	0.09995698928833008
66	181.3406069278717	response	2	4		64.0	2.5	/experiments/knapen_aot/videos/S_yt-GWO7FHN1Jb4_142.mp4	0.0	250.19821286201477	
67	181.3487389087677	fix_pre	0		46.0	65.0	2.5	/experiments/knapen_aot/videos/S_yt-7K5X1G7Cpls_965.mp4	0.0	250.20634484291077	0.3833460807800293
67	181.71647477149963	response	0	4		65.0	2.5	/experiments/knapen_aot/videos/S_yt-7K5X1G7Cpls_965.mp4	0.0	250.5740807056427	
67	181.73208498954773	movie	1		301.0	65.0	2.5	/experiments/knapen_aot/videos/S_yt-7K5X1G7Cpls_965.mp4	0.0	250.5896909236908	2.508333921432495
67	184.24041891098022	fix_post	2		12.0	65.0	2.5	/experiments/knapen_aot/videos/S_yt-7K5X1G7Cpls_965.mp4	0.0	253.0980248451233	0.09995198249816895
68	184.3403708934784	fix_pre	0		29.0	66.0	2.5	/experiments/knapen_aot/videos/R_S_yt-LdHRVIb4nIE_6.mp4	0.0	253.19797682762146	0.24220991134643555
68	184.57396697998047	response	0	4		66.0	2.5	/experiments/knapen_aot/videos/R_S_yt-LdHRVIb4nIE_6.mp4	0.0	253.43157291412354	
68	184.58258080482483	movie	1		301.0	66.0	2.5	/experiments/knapen_aot/videos/R_S_yt-LdHRVIb4nIE_6.mp4	0.0	253.4401867389679	2.5077431201934814
68	187.0903239250183	fix_post	2		12.0	66.0	2.5	/experiments/knapen_aot/videos/R_S_yt-LdHRVIb4nIE_6.mp4	0.0	255.94792985916138	0.10004305839538574
69	187.1903669834137	fix_pre	0		12.0	67.0	2.5	/experiments/knapen_aot/videos/S_yt-7WYXuBHeorw_188.mp4	0.0	256.04797291755676	0.10045981407165527
69	187.28223490715027	response	0	4		67.0	2.5	/experiments/knapen_aot/videos/S_yt-7WYXuBHeorw_188.mp4	0.0	256.13984084129333	
69	187.29082679748535	movie	1		301.0	67.0	2.5	/experiments/knapen_aot/videos/S_yt-7WYXuBHeorw_188.mp4	0.0	256.1484327316284	2.507852077484131
69	189.79867887496948	fix_post	2		12.0	67.0	2.5	/experiments/knapen_aot/videos/S_yt-7WYXuBHeorw_188.mp4	0.0	258.65628480911255	0.10006213188171387
70	189.8987410068512	fix_pre	0		32.0	68.0	2.5	/experiments/knapen_aot/videos/S_yt-NLfzvAJgyJ4_120.mp4	0.0	258.75634694099426	0.26705193519592285
70	190.15715098381042	response	0	4		68.0	2.5	/experiments/knapen_aot/videos/S_yt-NLfzvAJgyJ4_120.mp4	0.0	259.0147569179535	
70	190.16579294204712	movie	1		301.0	68.0	2.5	/experiments/knapen_aot/videos/S_yt-NLfzvAJgyJ4_120.mp4	0.0	259.0233988761902	2.5079379081726074
70	192.67373085021973	fix_post	2		12.0	68.0	2.5	/experiments/knapen_aot/videos/S_yt-NLfzvAJgyJ4_120.mp4	0.0	261.5313367843628	0.09998393058776855
71	192.7737147808075	fix_pre	0		30.0	69.0	2.5	blank	1.0	261.63132071495056	0.24990105628967285
71	193.0155258178711	response	0	4		69.0	2.5	blank	1.0	261.87313175201416	
71	193.02361583709717	movie	1		301.0	69.0	2.5	blank	1.0	261.88122177124023	2.508413076400757
71	195.53202891349792	fix_post	2		12.0	69.0	2.5	blank	1.0	264.389634847641	0.10004591941833496
72	195.63207483291626	fix_pre	0		39.0	70.0	2.5	/experiments/knapen_aot/videos/S_yt-JGKdBO2Ldzo_93.mp4	0.0	264.4896807670593	0.32533812522888184
72	195.9488308429718	response	0	4		70.0	2.5	/experiments/knapen_aot/videos/S_yt-JGKdBO2Ldzo_93.mp4	0.0	264.80643677711487	
72	195.95741295814514	movie	1		301.0	70.0	2.5	/experiments/knapen_aot/videos/S_yt-JGKdBO2Ldzo_93.mp4	0.0	264.8150188922882	2.5079379081726074
72	198.46535086631775	fix_post	2		12.0	70.0	2.5	/experiments/knapen_aot/videos/S_yt-JGKdBO2Ldzo_93.mp4	0.0	267.3229568004608	0.10003209114074707
73	198.5653829574585	fix_pre	0		32.0	71.0	2.5	/experiments/knapen_aot/videos/R_S_yt-54kx8P3L1ns_6.mp4	0.0	267.42298889160156	0.26700901985168457
73	198.82384991645813	response	0	4		71.0	2.5	/experiments/knapen_aot/videos/R_S_yt-54kx8P3L1ns_6.mp4	0.0	267.6814558506012	
73	198.83239197731018	movie	1		301.0	71.0	2.5	/experiments/knapen_aot/videos/R_S_yt-54kx8P3L1ns_6.mp4	0.0	267.68999791145325	2.5079379081726074
73	201.3403298854828	fix_post	2		12.0	71.0	2.5	/experiments/knapen_aot/videos/R_S_yt-54kx8P3L1ns_6.mp4	0.0	270.19793581962585	0.09997391700744629
74	201.44030380249023	fix_pre	0		32.0	72.0	2.5	/experiments/knapen_aot/videos/R_S_yt-06XMUn9DTKc_35.mp4	0.0	270.2979097366333	0.2670581340789795
74	201.69881892204285	response	0	4		72.0	2.5	/experiments/knapen_aot/videos/R_S_yt-06XMUn9DTKc_35.mp4	0.0	270.5564248561859	
74	201.7073619365692	movie	1		301.0	72.0	2.5	/experiments/knapen_aot/videos/R_S_yt-06XMUn9DTKc_35.mp4	0.0	270.5649678707123	2.50791597366333
74	204.21527791023254	fix_post	2		12.0	72.0	2.5	/experiments/knapen_aot/videos/R_S_yt-06XMUn9DTKc_35.mp4	0.0	273.0728838443756	0.10004687309265137
75	204.3153247833252	fix_pre	0		6.0	73.0	2.5	/experiments/knapen_aot/videos/S_production_ID_5020960.mp4	0.0	273.17293071746826	0.051835060119628906
75	204.3572998046875	response	0	4		73.0	2.5	/experiments/knapen_aot/videos/S_production_ID_5020960.mp4	0.0	273.21490573883057	
75	204.36715984344482	movie	1		194.0	73.0	2.5	/experiments/knapen_aot/videos/S_production_ID_5020960.mp4	0.0	273.2247657775879	2.506606101989746
75	206.87376594543457	fix_post	2		12.0	73.0	2.5	/experiments/knapen_aot/videos/S_production_ID_5020960.mp4	0.0	275.73137187957764	0.09988689422607422
76	206.97365283966064	fix_pre	0		24.0	74.0	2.5	/experiments/knapen_aot/videos/S_yt-TSSPDwAQLXs_158.mp4	0.0	275.8312587738037	0.19999194145202637
76	207.16544485092163	response	0	4		74.0	2.5	/experiments/knapen_aot/videos/S_yt-TSSPDwAQLXs_158.mp4	0.0	276.0230507850647	
76	207.17364478111267	movie	1		301.0	74.0	2.5	/experiments/knapen_aot/videos/S_yt-TSSPDwAQLXs_158.mp4	0.0	276.03125071525574	2.508352041244507
76	209.68199682235718	fix_post	2		12.0	74.0	2.5	/experiments/knapen_aot/videos/S_yt-TSSPDwAQLXs_158.mp4	0.0	278.53960275650024	0.0999910831451416
77	209.78198790550232	fix_pre	0		69.0	75.0	2.5	/experiments/knapen_aot/videos/R_S_yt-V4ptcLegCiw_161.mp4	0.0	278.6395938396454	0.5749030113220215
77	210.3488049507141	response	0	4		75.0	2.5	/experiments/knapen_aot/videos/R_S_yt-V4ptcLegCiw_161.mp4	0.0	279.2064108848572	
77	210.35689091682434	movie	1		301.0	75.0	2.5	/experiments/knapen_aot/videos/R_S_yt-V4ptcLegCiw_161.mp4	0.0	279.2144968509674	2.508449077606201
77	212.86533999443054	fix_post	2		12.0	75.0	2.5	/experiments/knapen_aot/videos/R_S_yt-V4ptcLegCiw_161.mp4	0.0	281.7229459285736	0.10001397132873535
78	212.96535396575928	fix_pre	0		5.0	76.0	2.5	/experiments/knapen_aot/videos/R_S_yt-Gam0NeyyG8w_22.mp4	0.0	281.82295989990234	0.04164695739746094
78	212.99941492080688	response	0	4		76.0	2.5	/experiments/knapen_aot/videos/R_S_yt-Gam0NeyyG8w_22.mp4	0.0	281.85702085494995	
78	213.00700092315674	movie	1		301.0	76.0	2.5	/experiments/knapen_aot/videos/R_S_yt-Gam0NeyyG8w_22.mp4	0.0	281.8646068572998	2.5083489418029785
78	215.51534986495972	fix_post	2		12.0	76.0	2.5	/experiments/knapen_aot/videos/R_S_yt-Gam0NeyyG8w_22.mp4	0.0	284.3729557991028	0.09998893737792969
79	215.61533880233765	fix_pre	0		24.0	77.0	2.5	blank	1.0	284.4729447364807	0.20003008842468262
79	215.8071858882904	response	0	4		77.0	2.5	blank	1.0	284.6647918224335	
79	215.81536889076233	movie	1		301.0	77.0	2.5	blank	1.0	284.6729748249054	2.5082480907440186
79	218.32361698150635	fix_post	2		12.0	77.0	2.5	blank	1.0	287.1812229156494	0.10005402565002441
80	218.42367100715637	fix_pre	0		35.0	78.0	2.5	/experiments/knapen_aot/videos/R_S_yt-VQtbKGzI9SE_431.mp4	0.0	287.28127694129944	0.29163289070129395
80	218.69959378242493	response	0	4		78.0	2.5	/experiments/knapen_aot/videos/R_S_yt-VQtbKGzI9SE_431.mp4	0.0	287.557199716568	
80	218.71530389785767	movie	1		301.0	78.0	2.5	/experiments/knapen_aot/videos/R_S_yt-VQtbKGzI9SE_431.mp4	0.0	287.57290983200073	2.5083649158477783
80	221.22366881370544	fix_post	2		12.0	78.0	2.5	/experiments/knapen_aot/videos/R_S_yt-VQtbKGzI9SE_431.mp4	0.0	290.0812747478485	0.1000370979309082
81	221.32370591163635	fix_pre	0		1.0	79.0	2.5	/experiments/knapen_aot/videos/R_S_yt-hekMMCluhnU_18.mp4	0.0	290.1813118457794	0.008516073226928711
81	221.32538485527039	response	0	4		79.0	2.5	/experiments/knapen_aot/videos/R_S_yt-hekMMCluhnU_18.mp4	0.0	290.18299078941345	
81	221.33222198486328	movie	1		300.0	79.0	2.5	/experiments/knapen_aot/videos/R_S_yt-hekMMCluhnU_18.mp4	0.0	290.18982791900635	2.508046865463257
81	223.84026885032654	fix_post	2		12.0	79.0	2.5	/experiments/knapen_aot/videos/R_S_yt-hekMMCluhnU_18.mp4	0.0	292.6978747844696	0.09994196891784668
82	223.94021081924438	fix_pre	0		11.0	80.0	2.5	/experiments/knapen_aot/videos/S_flickr-reginahart-31964450591_23.mp4	0.0	292.79781675338745	0.09169316291809082
82	224.02374482154846	response	0	4		80.0	2.5	/experiments/knapen_aot/videos/S_flickr-reginahart-31964450591_23.mp4	0.0	292.8813507556915	
82	224.03190398216248	movie	1		175.0	80.0	2.5	/experiments/knapen_aot/videos/S_flickr-reginahart-31964450591_23.mp4	0.0	292.88950991630554	2.50836181640625
82	226.54026579856873	fix_post	2		12.0	80.0	2.5	/experiments/knapen_aot/videos/S_flickr-reginahart-31964450591_23.mp4	0.0	295.3978717327118	0.10001015663146973
83	226.6402759552002	fix_pre	0		16.0	81.0	2.5	/experiments/knapen_aot/videos/R_S_yt-l6WPyKg_3is_154.mp4	0.0	295.49788188934326	0.13331890106201172
83	226.76537084579468	response	0	4		81.0	2.5	/experiments/knapen_aot/videos/R_S_yt-l6WPyKg_3is_154.mp4	0.0	295.62297677993774	
83	226.7735948562622	movie	1		299.0	81.0	2.5	/experiments/knapen_aot/videos/R_S_yt-l6WPyKg_3is_154.mp4	0.0	295.6312007904053	2.508327007293701
83	229.2819218635559	fix_post	2		12.0	81.0	2.5	/experiments/knapen_aot/videos/R_S_yt-l6WPyKg_3is_154.mp4	0.0	298.139527797699	0.09998106956481934
84	229.38190293312073	fix_pre	0		10.0	82.0	2.5	/experiments/knapen_aot/videos/R_S_video_inspire_italy_como_cerano-dintelvi_006.1080-h264.mp4	0.0	298.2395088672638	0.08329486846923828
84	229.457035779953	response	0	4		82.0	2.5	/experiments/knapen_aot/videos/R_S_video_inspire_italy_como_cerano-dintelvi_006.1080-h264.mp4	0.0	298.31464171409607	
84	229.46519780158997	movie	1		171.0	82.0	2.5	/experiments/knapen_aot/videos/R_S_video_inspire_italy_como_cerano-dintelvi_006.1080-h264.mp4	0.0	298.32280373573303	2.5083041191101074
84	231.97350192070007	fix_post	2		12.0	82.0	2.5	/experiments/knapen_aot/videos/R_S_video_inspire_italy_como_cerano-dintelvi_006.1080-h264.mp4	0.0	300.83110785484314	0.10004687309265137
84	232.04034781455994	response	2	4		82.0	2.5	/experiments/knapen_aot/videos/R_S_video_inspire_italy_como_cerano-dintelvi_006.1080-h264.mp4	0.0	300.897953748703	
85	232.07354879379272	fix_pre	0		41.0	83.0	2.5	blank	1.0	300.9311547279358	0.34185004234313965
85	232.40697479248047	response	0	4		83.0	2.5	blank	1.0	301.26458072662354	
85	232.41539883613586	movie	1		301.0	83.0	2.5	blank	1.0	301.27300477027893	2.5080859661102295
85	234.9234848022461	fix_post	2		12.0	83.0	2.5	blank	1.0	303.78109073638916	0.10007619857788086
87	235.02356100082397	stim	0		161.0					303.88116693496704	1.3432707786560059
87	235.24030900001526	response	0	4						304.0979149341583	
87	236.35421085357666	response	0	space						305.2118167877197	
