trial_nr	onset	event_type	phase	response	nr_frames	movie_index	movie_duration	movie_file	blank	onset_abs	duration
0	0.15291595458984375	stim	0		30.0					57.97592782974243	0.25298118591308594
0	0.3976311683654785	response	0	space						58.220643043518066	
1	0.4058971405029297	stim	0		121.0					58.22890901565552	1.0082859992980957
1	1.1976120471954346	response	0	space						59.02062392234802	
1	1.4141831398010254	stim	1		120.0					59.23719501495361	0.9996700286865234
1	1.797368049621582	response	1	space						59.62037992477417	
1	2.2896971702575684	response	1	space						60.112709045410156	
2	2.413853168487549	fix_pre	0		31.0	0.0	2.5	/experiments/knapen_aot/videos/R_S_yt-YyKEeu2gLrI_158.mp4	0.0	60.23686504364014	0.25929880142211914
2	2.6641080379486084	response	0	space		0.0	2.5	/experiments/knapen_aot/videos/R_S_yt-YyKEeu2gLrI_158.mp4	0.0	60.487119913101196	
2	2.673151969909668	movie	1		299.0	0.0	2.5	/experiments/knapen_aot/videos/R_S_yt-YyKEeu2gLrI_158.mp4	0.0	60.496163845062256	2.5074071884155273
2	5.180559158325195	fix_post	2		12.0	0.0	2.5	/experiments/knapen_aot/videos/R_S_yt-YyKEeu2gLrI_158.mp4	0.0	63.00357103347778	0.09999990463256836
3	5.280559062957764	fix_pre	0		36.0	1.0	2.5	/experiments/knapen_aot/videos/S_yt-O_4DgW-XKvA_35.mp4	0.0	63.10357093811035	0.30229902267456055
3	5.5732481479644775	response	0	2		1.0	2.5	/experiments/knapen_aot/videos/S_yt-O_4DgW-XKvA_35.mp4	0.0	63.396260023117065	
3	5.582858085632324	movie	1		301.0	1.0	2.5	/experiments/knapen_aot/videos/S_yt-O_4DgW-XKvA_35.mp4	0.0	63.40586996078491	2.5059430599212646
3	8.088801145553589	fix_post	2		12.0	1.0	2.5	/experiments/knapen_aot/videos/S_yt-O_4DgW-XKvA_35.mp4	0.0	65.91181302070618	0.09998488426208496
4	8.188786029815674	fix_pre	0		33.0	2.0	2.5	/experiments/knapen_aot/videos/S_ILSVRC2015_train_00715000.mp4	0.0	66.01179790496826	0.27601099014282227
4	8.455597162246704	response	0	2		2.0	2.5	/experiments/knapen_aot/videos/S_ILSVRC2015_train_00715000.mp4	0.0	66.27860903739929	
4	8.464797019958496	movie	1		301.0	2.0	2.5	/experiments/knapen_aot/videos/S_ILSVRC2015_train_00715000.mp4	0.0	66.28780889511108	2.5074000358581543
4	10.97219705581665	fix_post	2		12.0	2.0	2.5	/experiments/knapen_aot/videos/S_ILSVRC2015_train_00715000.mp4	0.0	68.79520893096924	0.09986209869384766
5	11.072059154510498	fix_pre	0		26.0	3.0	2.5	/experiments/knapen_aot/videos/R_S_yt-jy7rAnpu0u8_128.mp4	0.0	68.89507102966309	0.21674489974975586
5	11.280593156814575	response	0	2		3.0	2.5	/experiments/knapen_aot/videos/R_S_yt-jy7rAnpu0u8_128.mp4	0.0	69.10360503196716	
5	11.288804054260254	movie	1		301.0	3.0	2.5	/experiments/knapen_aot/videos/R_S_yt-jy7rAnpu0u8_128.mp4	0.0	69.11181592941284	2.5083720684051514
5	13.797176122665405	fix_post	2		12.0	3.0	2.5	/experiments/knapen_aot/videos/R_S_yt-jy7rAnpu0u8_128.mp4	0.0	71.620187997818	0.09993290901184082
6	13.897109031677246	fix_pre	0		43.0	4.0	2.5	/experiments/knapen_aot/videos/S_yt-lADkWM79teI_18.mp4	0.0	71.72012090682983	0.3592541217803955
6	14.247236013412476	response	0	2		4.0	2.5	/experiments/knapen_aot/videos/S_yt-lADkWM79teI_18.mp4	0.0	72.07024788856506	
6	14.256363153457642	movie	1		301.0	4.0	2.5	/experiments/knapen_aot/videos/S_yt-lADkWM79teI_18.mp4	0.0	72.07937502861023	2.50744891166687
6	16.76381206512451	fix_post	2		12.0	4.0	2.5	/experiments/knapen_aot/videos/S_yt-lADkWM79teI_18.mp4	0.0	74.5868239402771	0.10001993179321289
7	16.863831996917725	fix_pre	0		25.0	5.0	2.5	blank	1.0	74.68684387207031	0.20825910568237305
7	17.063923120498657	response	0	2		5.0	2.5	blank	1.0	74.88693499565125	
7	17.072091102600098	movie	1		301.0	5.0	2.5	blank	1.0	74.89510297775269	2.5084168910980225
7	19.58050799369812	fix_post	2		12.0	5.0	2.5	blank	1.0	77.40351986885071	0.0998990535736084
8	19.68040704727173	fix_pre	0		25.0	6.0	2.5	/experiments/knapen_aot/videos/S_video-5.mp4	0.0	77.50341892242432	0.20833396911621094
8	19.880560159683228	response	0	2		6.0	2.5	/experiments/knapen_aot/videos/S_video-5.mp4	0.0	77.70357203483582	
8	19.88874101638794	movie	1		169.0	6.0	2.5	/experiments/knapen_aot/videos/S_video-5.mp4	0.0	77.71175289154053	2.5084171295166016
8	22.39715814590454	fix_post	2		12.0	6.0	2.5	/experiments/knapen_aot/videos/S_video-5.mp4	0.0	80.22017002105713	0.09999680519104004
9	22.49715495109558	fix_pre	0		37.0	7.0	2.5	/experiments/knapen_aot/videos/S_yt-GO26QIueqRw_385.mp4	0.0	80.32016682624817	0.30831217765808105
9	22.79728102684021	response	0	2		7.0	2.5	/experiments/knapen_aot/videos/S_yt-GO26QIueqRw_385.mp4	0.0	80.6202929019928	
9	22.805467128753662	movie	1		301.0	7.0	2.5	/experiments/knapen_aot/videos/S_yt-GO26QIueqRw_385.mp4	0.0	80.62847900390625	2.5083608627319336
9	25.313827991485596	fix_post	2		12.0	7.0	2.5	/experiments/knapen_aot/videos/S_yt-GO26QIueqRw_385.mp4	0.0	83.13683986663818	0.09995198249816895
10	25.413779973983765	fix_pre	0		27.0	8.0	2.5	/experiments/knapen_aot/videos/S_ILSVRC2015_train_00165008.mp4	0.0	83.23679184913635	0.22500014305114746
10	25.630599975585938	response	0	2		8.0	2.5	/experiments/knapen_aot/videos/S_ILSVRC2015_train_00165008.mp4	0.0	83.45361185073853	
10	25.638780117034912	movie	1		301.0	8.0	2.5	/experiments/knapen_aot/videos/S_ILSVRC2015_train_00165008.mp4	0.0	83.4617919921875	2.5083508491516113
10	28.147130966186523	fix_post	2		12.0	8.0	2.5	/experiments/knapen_aot/videos/S_ILSVRC2015_train_00165008.mp4	0.0	85.97014284133911	0.09994816780090332
11	28.247079133987427	fix_pre	0		29.0	9.0	2.5	/experiments/knapen_aot/videos/R_S_yt-DmlSN7mzczI_62.mp4	0.0	86.07009100914001	0.24169087409973145
11	28.480633020401	response	0	2		9.0	2.5	/experiments/knapen_aot/videos/R_S_yt-DmlSN7mzczI_62.mp4	0.0	86.30364489555359	
11	28.488770008087158	movie	1		301.0	9.0	2.5	/experiments/knapen_aot/videos/R_S_yt-DmlSN7mzczI_62.mp4	0.0	86.31178188323975	2.508350133895874
11	30.997120141983032	fix_post	2		12.0	9.0	2.5	/experiments/knapen_aot/videos/R_S_yt-DmlSN7mzczI_62.mp4	0.0	88.82013201713562	0.10003185272216797
12	31.0971519947052	fix_pre	0		31.0	10.0	2.5	/experiments/knapen_aot/videos/R_S_yt-JtR6WZXT2kU_8.mp4	0.0	88.92016386985779	0.2583310604095459
12	31.34723997116089	response	0	2		10.0	2.5	/experiments/knapen_aot/videos/R_S_yt-JtR6WZXT2kU_8.mp4	0.0	89.17025184631348	
12	31.355483055114746	movie	1		297.0	10.0	2.5	/experiments/knapen_aot/videos/R_S_yt-JtR6WZXT2kU_8.mp4	0.0	89.17849493026733	2.508255958557129
12	33.863739013671875	fix_post	2		12.0	10.0	2.5	/experiments/knapen_aot/videos/R_S_yt-JtR6WZXT2kU_8.mp4	0.0	91.68675088882446	0.09993696212768555
13	33.96367597579956	fix_pre	0		27.0	11.0	2.5	/experiments/knapen_aot/videos/R_S_yt-mL3MuCfKtdY_79.mp4	0.0	91.78668785095215	0.22506403923034668
13	34.180503129959106	response	0	2		11.0	2.5	/experiments/knapen_aot/videos/R_S_yt-mL3MuCfKtdY_79.mp4	0.0	92.0035150051117	
13	34.18874001502991	movie	1		301.0	11.0	2.5	/experiments/knapen_aot/videos/R_S_yt-mL3MuCfKtdY_79.mp4	0.0	92.0117518901825	2.5083179473876953
13	36.6970579624176	fix_post	2		12.0	11.0	2.5	/experiments/knapen_aot/videos/R_S_yt-mL3MuCfKtdY_79.mp4	0.0	94.52006983757019	0.09997820854187012
14	36.79703617095947	fix_pre	0		23.0	12.0	2.5	blank	1.0	94.62004804611206	0.19167494773864746
14	36.980453968048096	response	0	2		12.0	2.5	blank	1.0	94.80346584320068	
14	36.98871111869812	movie	1		301.0	12.0	2.5	blank	1.0	94.81172299385071	2.50833797454834
14	39.49704909324646	fix_post	2		12.0	12.0	2.5	blank	1.0	97.32006096839905	0.10001587867736816
15	39.59706497192383	fix_pre	0		50.0	13.0	2.5	/experiments/knapen_aot/videos/R_S_yt-N1EsjM9gD5Q_21.mp4	0.0	97.42007684707642	0.41662096977233887
15	40.00545310974121	response	0	2		13.0	2.5	/experiments/knapen_aot/videos/R_S_yt-N1EsjM9gD5Q_21.mp4	0.0	97.8284649848938	
15	40.01368594169617	movie	1		301.0	13.0	2.5	/experiments/knapen_aot/videos/R_S_yt-N1EsjM9gD5Q_21.mp4	0.0	97.83669781684875	2.508312225341797
15	42.521998167037964	fix_post	2		12.0	13.0	2.5	/experiments/knapen_aot/videos/R_S_yt-N1EsjM9gD5Q_21.mp4	0.0	100.34501004219055	0.10009884834289551
16	42.62209701538086	fix_pre	0		34.0	14.0	2.5	/experiments/knapen_aot/videos/S_yt-zh2yLr-o_8A_953.mp4	0.0	100.44510889053345	0.2832310199737549
16	42.89720106124878	response	0	2		14.0	2.5	/experiments/knapen_aot/videos/S_yt-zh2yLr-o_8A_953.mp4	0.0	100.72021293640137	
16	42.905328035354614	movie	1		301.0	14.0	2.5	/experiments/knapen_aot/videos/S_yt-zh2yLr-o_8A_953.mp4	0.0	100.7283399105072	2.5082969665527344
16	45.41362500190735	fix_post	2		12.0	14.0	2.5	/experiments/knapen_aot/videos/S_yt-zh2yLr-o_8A_953.mp4	0.0	103.23663687705994	0.10007596015930176
17	45.51370096206665	fix_pre	0		40.0	15.0	2.5	/experiments/knapen_aot/videos/R_S_pexels-diva-plavalaguna-6985395_1.mp4	0.0	103.33671283721924	0.33327698707580566
17	45.83122515678406	response	0	2		15.0	2.5	/experiments/knapen_aot/videos/R_S_pexels-diva-plavalaguna-6985395_1.mp4	0.0	103.65423703193665	
17	45.846977949142456	movie	1		168.0	15.0	2.5	/experiments/knapen_aot/videos/R_S_pexels-diva-plavalaguna-6985395_1.mp4	0.0	103.66998982429504	2.5083680152893066
17	48.35534596443176	fix_post	2		12.0	15.0	2.5	/experiments/knapen_aot/videos/R_S_pexels-diva-plavalaguna-6985395_1.mp4	0.0	106.17835783958435	0.0999300479888916
18	48.455276012420654	fix_pre	0		35.0	16.0	2.5	/experiments/knapen_aot/videos/R_S_OdxWh1oU8e8_1.mp4	0.0	106.27828788757324	0.2917490005493164
18	48.738811016082764	response	0	2		16.0	2.5	/experiments/knapen_aot/videos/R_S_OdxWh1oU8e8_1.mp4	0.0	106.56182289123535	
18	48.74702501296997	movie	1		301.0	16.0	2.5	/experiments/knapen_aot/videos/R_S_OdxWh1oU8e8_1.mp4	0.0	106.57003688812256	2.5083320140838623
18	51.25535702705383	fix_post	2		12.0	16.0	2.5	/experiments/knapen_aot/videos/R_S_OdxWh1oU8e8_1.mp4	0.0	109.07836890220642	0.1000211238861084
19	51.35537815093994	fix_pre	0		28.0	17.0	2.5	/experiments/knapen_aot/videos/R_S_yt-mDil5vGZb14_4049.mp4	0.0	109.17839002609253	0.23396086692810059
19	51.58047604560852	response	0	2		17.0	2.5	/experiments/knapen_aot/videos/R_S_yt-mDil5vGZb14_4049.mp4	0.0	109.40348792076111	
19	51.58933901786804	movie	1		301.0	17.0	2.5	/experiments/knapen_aot/videos/R_S_yt-mDil5vGZb14_4049.mp4	0.0	109.41235089302063	2.5076260566711426
19	54.096965074539185	fix_post	2		12.0	17.0	2.5	/experiments/knapen_aot/videos/R_S_yt-mDil5vGZb14_4049.mp4	0.0	111.91997694969177	0.10002994537353516
20	54.19699501991272	fix_pre	0		35.0	18.0	2.5	/experiments/knapen_aot/videos/R_S_production_ID_4122384.mp4	0.0	112.02000689506531	0.29161596298217773
20	54.48048210144043	response	0	2		18.0	2.5	/experiments/knapen_aot/videos/R_S_production_ID_4122384.mp4	0.0	112.30349397659302	
20	54.4886109828949	movie	1		190.0	18.0	2.5	/experiments/knapen_aot/videos/R_S_production_ID_4122384.mp4	0.0	112.31162285804749	2.5083110332489014
20	56.9969220161438	fix_post	2		12.0	18.0	2.5	/experiments/knapen_aot/videos/R_S_production_ID_4122384.mp4	0.0	114.81993389129639	0.10003900527954102
21	57.09696102142334	fix_pre	0		14.0	19.0	2.5	/experiments/knapen_aot/videos/R_S_yt-F3hhts3bwWg_25.mp4	0.0	114.91997289657593	0.11728215217590332
21	57.20534610748291	response	0	2		19.0	2.5	/experiments/knapen_aot/videos/R_S_yt-F3hhts3bwWg_25.mp4	0.0	115.0283579826355	
21	57.21424317359924	movie	1		301.0	19.0	2.5	/experiments/knapen_aot/videos/R_S_yt-F3hhts3bwWg_25.mp4	0.0	115.03725504875183	2.5077757835388184
21	59.72201895713806	fix_post	2		12.0	19.0	2.5	/experiments/knapen_aot/videos/R_S_yt-F3hhts3bwWg_25.mp4	0.0	117.54503083229065	0.0999460220336914
22	59.82196497917175	fix_pre	0		39.0	20.0	2.5	blank	1.0	117.64497685432434	0.3249790668487549
22	60.138827085494995	response	0	2		20.0	2.5	blank	1.0	117.96183896064758	
22	60.14694404602051	movie	1		300.0	20.0	2.5	blank	1.0	117.9699559211731	2.508281946182251
22	62.65522599220276	fix_post	2		12.0	20.0	2.5	blank	1.0	120.47823786735535	0.10006117820739746
23	62.755287170410156	fix_pre	0		25.0	21.0	2.5	/experiments/knapen_aot/videos/S_flickr-seattlemcneals-996953_3.mp4	0.0	120.57829904556274	0.20895886421203613
23	62.95536017417908	response	0	2		21.0	2.5	/experiments/knapen_aot/videos/S_flickr-seattlemcneals-996953_3.mp4	0.0	120.77837204933167	
23	62.96424603462219	movie	1		301.0	21.0	2.5	/experiments/knapen_aot/videos/S_flickr-seattlemcneals-996953_3.mp4	0.0	120.78725790977478	2.507723093032837
23	65.47196912765503	fix_post	2		12.0	21.0	2.5	/experiments/knapen_aot/videos/S_flickr-seattlemcneals-996953_3.mp4	0.0	123.29498100280762	0.09992194175720215
24	65.57189106941223	fix_pre	0		32.0	22.0	2.5	/experiments/knapen_aot/videos/S_comp_L004_C011_PS_v01_SDR_PS_20180925_SDR_2K_AVC.mp4	0.0	123.39490294456482	0.26734495162963867
24	65.83044695854187	response	0	2		22.0	2.5	/experiments/knapen_aot/videos/S_comp_L004_C011_PS_v01_SDR_PS_20180925_SDR_2K_AVC.mp4	0.0	123.65345883369446	
24	65.83923602104187	movie	1		169.0	22.0	2.5	/experiments/knapen_aot/videos/S_comp_L004_C011_PS_v01_SDR_PS_20180925_SDR_2K_AVC.mp4	0.0	123.66224789619446	2.507683038711548
24	68.34691905975342	fix_post	2		12.0	22.0	2.5	/experiments/knapen_aot/videos/S_comp_L004_C011_PS_v01_SDR_PS_20180925_SDR_2K_AVC.mp4	0.0	126.169930934906	0.09989595413208008
25	68.4468150138855	fix_pre	0		32.0	23.0	2.5	/experiments/knapen_aot/videos/S_pexels-nkem-6237382.mp4	0.0	126.26982688903809	0.2673771381378174
25	68.70538401603699	response	0	2		23.0	2.5	/experiments/knapen_aot/videos/S_pexels-nkem-6237382.mp4	0.0	126.52839589118958	
25	68.71419215202332	movie	1		169.0	23.0	2.5	/experiments/knapen_aot/videos/S_pexels-nkem-6237382.mp4	0.0	126.5372040271759	2.507692813873291
25	71.2218849658966	fix_post	2		12.0	23.0	2.5	/experiments/knapen_aot/videos/S_pexels-nkem-6237382.mp4	0.0	129.0448968410492	0.10005021095275879
26	71.32193517684937	fix_pre	0		24.0	24.0	2.5	/experiments/knapen_aot/videos/S_yt-Y3pi1bgUwIg_78.mp4	0.0	129.14494705200195	0.19993281364440918
26	71.51366114616394	response	0	2		24.0	2.5	/experiments/knapen_aot/videos/S_yt-Y3pi1bgUwIg_78.mp4	0.0	129.33667302131653	
26	71.52186799049377	movie	1		301.0	24.0	2.5	/experiments/knapen_aot/videos/S_yt-Y3pi1bgUwIg_78.mp4	0.0	129.34487986564636	2.5083701610565186
26	74.0302381515503	fix_post	2		12.0	24.0	2.5	/experiments/knapen_aot/videos/S_yt-Y3pi1bgUwIg_78.mp4	0.0	131.85325002670288	0.10059189796447754
27	74.13083004951477	fix_pre	0		12.0	25.0	2.5	/experiments/knapen_aot/videos/S_yt-KK6fVRAMm-c_476.mp4	0.0	131.95384192466736	0.09940600395202637
27	74.22206902503967	response	0	2		25.0	2.5	/experiments/knapen_aot/videos/S_yt-KK6fVRAMm-c_476.mp4	0.0	132.04508090019226	
27	74.2302360534668	movie	1		301.0	25.0	2.5	/experiments/knapen_aot/videos/S_yt-KK6fVRAMm-c_476.mp4	0.0	132.05324792861938	2.508305072784424
27	76.73854112625122	fix_post	2		12.0	25.0	2.5	/experiments/knapen_aot/videos/S_yt-KK6fVRAMm-c_476.mp4	0.0	134.5615530014038	0.10001897811889648
28	76.83856010437012	fix_pre	0		28.0	26.0	2.5	/experiments/knapen_aot/videos/R_S_yt-QD74nNliDvI_10.mp4	0.0	134.6615719795227	0.23330402374267578
28	77.06370902061462	response	0	2		26.0	2.5	/experiments/knapen_aot/videos/R_S_yt-QD74nNliDvI_10.mp4	0.0	134.8867208957672	
28	77.0718641281128	movie	1		301.0	26.0	2.5	/experiments/knapen_aot/videos/R_S_yt-QD74nNliDvI_10.mp4	0.0	134.89487600326538	2.508301019668579
28	79.58016514778137	fix_post	2		12.0	26.0	2.5	/experiments/knapen_aot/videos/R_S_yt-QD74nNliDvI_10.mp4	0.0	137.40317702293396	0.10001301765441895
29	79.68017816543579	fix_pre	0		13.0	27.0	2.5	/experiments/knapen_aot/videos/R_S_yt-WRBmpC-RxIc_678.mp4	0.0	137.50319004058838	0.10832881927490234
29	79.78033900260925	response	0	2		27.0	2.5	/experiments/knapen_aot/videos/R_S_yt-WRBmpC-RxIc_678.mp4	0.0	137.60335087776184	
29	79.7885069847107	movie	1		301.0	27.0	2.5	/experiments/knapen_aot/videos/R_S_yt-WRBmpC-RxIc_678.mp4	0.0	137.61151885986328	2.5083701610565186
29	82.29687714576721	fix_post	2		12.0	27.0	2.5	/experiments/knapen_aot/videos/R_S_yt-WRBmpC-RxIc_678.mp4	0.0	140.1198890209198	0.0999758243560791
30	82.39685297012329	fix_pre	0		2.0	28.0	2.5	blank	1.0	140.21986484527588	0.01678919792175293
30	82.40526700019836	response	0	2		28.0	2.5	blank	1.0	140.22827887535095	
30	82.41364216804504	movie	1		301.0	28.0	2.5	blank	1.0	140.23665404319763	2.508194923400879
30	84.92183709144592	fix_post	2		12.0	28.0	2.5	blank	1.0	142.7448489665985	0.10003995895385742
31	85.02187705039978	fix_pre	0		28.0	29.0	2.5	/experiments/knapen_aot/videos/R_S_yt-6aqg1P9YqR8_38.mp4	0.0	142.84488892555237	0.2338120937347412
31	85.24693703651428	response	0	2		29.0	2.5	/experiments/knapen_aot/videos/R_S_yt-6aqg1P9YqR8_38.mp4	0.0	143.06994891166687	
31	85.25568914413452	movie	1		301.0	29.0	2.5	/experiments/knapen_aot/videos/R_S_yt-6aqg1P9YqR8_38.mp4	0.0	143.0787010192871	2.5078020095825195
31	87.76349115371704	fix_post	2		12.0	29.0	2.5	/experiments/knapen_aot/videos/R_S_yt-6aqg1P9YqR8_38.mp4	0.0	145.58650302886963	0.09994697570800781
32	87.86343812942505	fix_pre	0		28.0	30.0	2.5	/experiments/knapen_aot/videos/R_S_production_ID_5139371.mp4	0.0	145.68645000457764	0.2333378791809082
32	88.08099794387817	response	0	2		30.0	2.5	/experiments/knapen_aot/videos/R_S_production_ID_5139371.mp4	0.0	145.90400981903076	
32	88.09677600860596	movie	1		169.0	30.0	2.5	/experiments/knapen_aot/videos/R_S_production_ID_5139371.mp4	0.0	145.91978788375854	2.5083370208740234
32	90.60511302947998	fix_post	2		12.0	30.0	2.5	/experiments/knapen_aot/videos/R_S_production_ID_5139371.mp4	0.0	148.42812490463257	0.09999203681945801
33	90.70510506629944	fix_pre	0		9.0	31.0	2.5	/experiments/knapen_aot/videos/R_S_yt-FoO02U39gy4_398.mp4	0.0	148.52811694145203	0.0750269889831543
33	90.77191996574402	response	0	2		31.0	2.5	/experiments/knapen_aot/videos/R_S_yt-FoO02U39gy4_398.mp4	0.0	148.5949318408966	
33	90.78013205528259	movie	1		301.0	31.0	2.5	/experiments/knapen_aot/videos/R_S_yt-FoO02U39gy4_398.mp4	0.0	148.60314393043518	2.5083439350128174
33	93.28847599029541	fix_post	2		12.0	31.0	2.5	/experiments/knapen_aot/videos/R_S_yt-FoO02U39gy4_398.mp4	0.0	151.111487865448	0.1000521183013916
34	93.3885281085968	fix_pre	0		47.0	32.0	2.5	/experiments/knapen_aot/videos/R_S_ILSVRC2015_train_00165008.mp4	0.0	151.2115399837494	0.39156484603881836
34	93.771968126297	response	0	2		32.0	2.5	/experiments/knapen_aot/videos/R_S_ILSVRC2015_train_00165008.mp4	0.0	151.59498000144958	
34	93.78009295463562	movie	1		301.0	32.0	2.5	/experiments/knapen_aot/videos/R_S_ILSVRC2015_train_00165008.mp4	0.0	151.6031048297882	2.5084290504455566
34	96.28852200508118	fix_post	2		12.0	32.0	2.5	/experiments/knapen_aot/videos/R_S_ILSVRC2015_train_00165008.mp4	0.0	154.11153388023376	0.09999299049377441
35	96.38851499557495	fix_pre	0		66.0	33.0	2.5	/experiments/knapen_aot/videos/S_yt-mdLT282PVbE_6.mp4	0.0	154.21152687072754	0.5499889850616455
35	96.92276906967163	response	0	2		33.0	2.5	/experiments/knapen_aot/videos/S_yt-mdLT282PVbE_6.mp4	0.0	154.74578094482422	
35	96.9385039806366	movie	1		301.0	33.0	2.5	/experiments/knapen_aot/videos/S_yt-mdLT282PVbE_6.mp4	0.0	154.76151585578918	2.508324146270752
35	99.44682812690735	fix_post	2		12.0	33.0	2.5	/experiments/knapen_aot/videos/S_yt-mdLT282PVbE_6.mp4	0.0	157.26984000205994	0.09994983673095703
36	99.5467779636383	fix_pre	0		35.0	34.0	2.5	/experiments/knapen_aot/videos/R_S_comp_GL_G004_C010_PSNK_v04_SDR_PS_FINAL_20180709_SDR_2K_AVC.mp4	0.0	157.3697898387909	0.29212403297424316
36	99.83027195930481	response	0	2		34.0	2.5	/experiments/knapen_aot/videos/R_S_comp_GL_G004_C010_PSNK_v04_SDR_PS_FINAL_20180709_SDR_2K_AVC.mp4	0.0	157.6532838344574	
36	99.83890199661255	movie	1		167.0	34.0	2.5	/experiments/knapen_aot/videos/R_S_comp_GL_G004_C010_PSNK_v04_SDR_PS_FINAL_20180709_SDR_2K_AVC.mp4	0.0	157.66191387176514	2.507859945297241
36	102.34676194190979	fix_post	2		12.0	34.0	2.5	/experiments/knapen_aot/videos/R_S_comp_GL_G004_C010_PSNK_v04_SDR_PS_FINAL_20180709_SDR_2K_AVC.mp4	0.0	160.16977381706238	0.09995007514953613
37	102.44671201705933	fix_pre	0		44.0	35.0	2.5	blank	1.0	160.2697238922119	0.3666191101074219
37	102.80526995658875	response	0	2		35.0	2.5	blank	1.0	160.62828183174133	
37	102.81333112716675	movie	1		301.0	35.0	2.5	blank	1.0	160.63634300231934	2.5084569454193115
37	105.32178807258606	fix_post	2		12.0	35.0	2.5	blank	1.0	163.14479994773865	0.09998798370361328
38	105.42177605628967	fix_pre	0		69.0	36.0	2.5	/experiments/knapen_aot/videos/R_S_yt-N1DlS9B00G0_23.mp4	0.0	163.24478793144226	0.5749270915985107
38	105.98854398727417	response	0	2		36.0	2.5	/experiments/knapen_aot/videos/R_S_yt-N1DlS9B00G0_23.mp4	0.0	163.81155586242676	
38	105.99670314788818	movie	1		301.0	36.0	2.5	/experiments/knapen_aot/videos/R_S_yt-N1DlS9B00G0_23.mp4	0.0	163.81971502304077	2.508319854736328
38	108.50502300262451	fix_post	2		12.0	36.0	2.5	/experiments/knapen_aot/videos/R_S_yt-N1DlS9B00G0_23.mp4	0.0	166.3280348777771	0.09999299049377441
39	108.60501599311829	fix_pre	0		37.0	37.0	2.5	/experiments/knapen_aot/videos/R_S_yt-JGKdBO2Ldzo_93.mp4	0.0	166.42802786827087	0.3083360195159912
39	108.90523910522461	response	0	2		37.0	2.5	/experiments/knapen_aot/videos/R_S_yt-JGKdBO2Ldzo_93.mp4	0.0	166.7282509803772	
39	108.91335201263428	movie	1		299.0	37.0	2.5	/experiments/knapen_aot/videos/R_S_yt-JGKdBO2Ldzo_93.mp4	0.0	166.73636388778687	2.508413076400757
39	111.42176508903503	fix_post	2		12.0	37.0	2.5	/experiments/knapen_aot/videos/R_S_yt-JGKdBO2Ldzo_93.mp4	0.0	169.24477696418762	0.09999895095825195
40	111.52176403999329	fix_pre	0		37.0	38.0	2.5	/experiments/knapen_aot/videos/S_yt-8fQ9LaF8U10_382.mp4	0.0	169.34477591514587	0.308272123336792
40	111.82182717323303	response	0	2		38.0	2.5	/experiments/knapen_aot/videos/S_yt-8fQ9LaF8U10_382.mp4	0.0	169.64483904838562	
40	111.83003616333008	movie	1		301.0	38.0	2.5	/experiments/knapen_aot/videos/S_yt-8fQ9LaF8U10_382.mp4	0.0	169.65304803848267	2.508281946182251
40	114.33831810951233	fix_post	2		12.0	38.0	2.5	/experiments/knapen_aot/videos/S_yt-8fQ9LaF8U10_382.mp4	0.0	172.16132998466492	0.10007786750793457
41	114.43839597702026	fix_pre	0		25.0	39.0	2.5	/experiments/knapen_aot/videos/R_S_yt-KK6fVRAMm-c_476.mp4	0.0	172.26140785217285	0.2082681655883789
41	114.63852214813232	response	0	2		39.0	2.5	/experiments/knapen_aot/videos/R_S_yt-KK6fVRAMm-c_476.mp4	0.0	172.4615340232849	
41	114.64666414260864	movie	1		299.0	39.0	2.5	/experiments/knapen_aot/videos/R_S_yt-KK6fVRAMm-c_476.mp4	0.0	172.46967601776123	2.508430004119873
41	117.15509414672852	fix_post	2		12.0	39.0	2.5	/experiments/knapen_aot/videos/R_S_yt-KK6fVRAMm-c_476.mp4	0.0	174.9781060218811	0.10037398338317871
42	117.2554681301117	fix_pre	0		52.0	40.0	2.5	/experiments/knapen_aot/videos/R_S_yt-Tn563IPZfg4_55.mp4	0.0	175.07848000526428	0.43291592597961426
42	117.68017101287842	response	0	2		40.0	2.5	/experiments/knapen_aot/videos/R_S_yt-Tn563IPZfg4_55.mp4	0.0	175.503182888031	
42	117.68838405609131	movie	1		301.0	40.0	2.5	/experiments/knapen_aot/videos/R_S_yt-Tn563IPZfg4_55.mp4	0.0	175.5113959312439	2.508342981338501
42	120.19672703742981	fix_post	2		12.0	40.0	2.5	/experiments/knapen_aot/videos/R_S_yt-Tn563IPZfg4_55.mp4	0.0	178.0197389125824	0.1003119945526123
43	120.29703903198242	fix_pre	0		70.0	41.0	2.5	/experiments/knapen_aot/videos/R_S_yt-alGXD2Drh_g_19.mp4	0.0	178.120050907135	0.5833210945129395
43	120.87179398536682	response	0	2		41.0	2.5	/experiments/knapen_aot/videos/R_S_yt-alGXD2Drh_g_19.mp4	0.0	178.6948058605194	
43	120.88036012649536	movie	1		301.0	41.0	2.5	/experiments/knapen_aot/videos/R_S_yt-alGXD2Drh_g_19.mp4	0.0	178.70337200164795	2.5079410076141357
43	123.3883011341095	fix_post	2		12.0	41.0	2.5	/experiments/knapen_aot/videos/R_S_yt-alGXD2Drh_g_19.mp4	0.0	181.21131300926208	0.10002303123474121
44	123.48832416534424	fix_pre	0		105.0	42.0	2.5	blank	1.0	181.31133604049683	0.8750059604644775
44	124.3552041053772	response	0	2		42.0	2.5	blank	1.0	182.17821598052979	
44	124.36333012580872	movie	1		301.0	42.0	2.5	blank	1.0	182.1863420009613	2.5083160400390625
44	126.87164616584778	fix_post	2		12.0	42.0	2.5	blank	1.0	184.69465804100037	0.10004281997680664
45	126.97168898582458	fix_pre	0		91.0	43.0	2.5	/experiments/knapen_aot/videos/R_S_yt-kXarkCFJLeg_46.mp4	0.0	184.79470086097717	0.7582540512084961
45	127.72180104255676	response	0	2		43.0	2.5	/experiments/knapen_aot/videos/R_S_yt-kXarkCFJLeg_46.mp4	0.0	185.54481291770935	
45	127.72994303703308	movie	1		301.0	43.0	2.5	/experiments/knapen_aot/videos/R_S_yt-kXarkCFJLeg_46.mp4	0.0	185.55295491218567	2.5083820819854736
45	130.23832511901855	fix_post	2		12.0	43.0	2.5	/experiments/knapen_aot/videos/R_S_yt-kXarkCFJLeg_46.mp4	0.0	188.06133699417114	0.10031795501708984
46	130.33864307403564	fix_pre	0		77.0	44.0	2.5	/experiments/knapen_aot/videos/S_ILSVRC2015_train_00545000.mp4	0.0	188.16165494918823	0.641334056854248
46	130.97185015678406	response	0	2		44.0	2.5	/experiments/knapen_aot/videos/S_ILSVRC2015_train_00545000.mp4	0.0	188.79486203193665	
46	130.9799771308899	movie	1		301.0	44.0	2.5	/experiments/knapen_aot/videos/S_ILSVRC2015_train_00545000.mp4	0.0	188.80298900604248	2.5082459449768066
46	133.4882230758667	fix_post	2		12.0	44.0	2.5	/experiments/knapen_aot/videos/S_ILSVRC2015_train_00545000.mp4	0.0	191.3112349510193	0.10044503211975098
47	133.58866810798645	fix_pre	0		62.0	45.0	2.5	/experiments/knapen_aot/videos/R_S_yt-GbL63AmOIss_116.mp4	0.0	191.41167998313904	0.5163118839263916
47	134.09672713279724	response	0	2		45.0	2.5	/experiments/knapen_aot/videos/R_S_yt-GbL63AmOIss_116.mp4	0.0	191.91973900794983	
47	134.10497999191284	movie	1		301.0	45.0	2.5	/experiments/knapen_aot/videos/R_S_yt-GbL63AmOIss_116.mp4	0.0	191.92799186706543	2.5083069801330566
47	136.6132869720459	fix_post	2		12.0	45.0	2.5	/experiments/knapen_aot/videos/R_S_yt-GbL63AmOIss_116.mp4	0.0	194.4362988471985	0.10031008720397949
48	136.71359705924988	fix_pre	0		84.0	46.0	2.5	/experiments/knapen_aot/videos/S_yt-8LO59eN9om4_16.mp4	0.0	194.53660893440247	0.6996750831604004
48	137.40511298179626	response	0	2		46.0	2.5	/experiments/knapen_aot/videos/S_yt-8LO59eN9om4_16.mp4	0.0	195.22812485694885	
48	137.41327214241028	movie	1		299.0	46.0	2.5	/experiments/knapen_aot/videos/S_yt-8LO59eN9om4_16.mp4	0.0	195.23628401756287	2.5083248615264893
48	139.92159700393677	fix_post	2		12.0	46.0	2.5	/experiments/knapen_aot/videos/S_yt-8LO59eN9om4_16.mp4	0.0	197.74460887908936	0.0999600887298584
49	140.02155709266663	fix_pre	0		51.0	47.0	2.5	/experiments/knapen_aot/videos/R_S_video_inspire_alabama_montgomery_countryside_00007.1080-h264.mp4	0.0	197.8445689678192	0.42499685287475586
49	140.4383900165558	response	0	2		47.0	2.5	/experiments/knapen_aot/videos/R_S_video_inspire_alabama_montgomery_countryside_00007.1080-h264.mp4	0.0	198.26140189170837	
49	140.44655394554138	movie	1		171.0	47.0	2.5	/experiments/knapen_aot/videos/R_S_video_inspire_alabama_montgomery_countryside_00007.1080-h264.mp4	0.0	198.26956582069397	2.508406162261963
49	142.95496010780334	fix_post	2		12.0	47.0	2.5	/experiments/knapen_aot/videos/R_S_video_inspire_alabama_montgomery_countryside_00007.1080-h264.mp4	0.0	200.77797198295593	0.0999760627746582
50	143.054936170578	fix_pre	0		48.0	48.0	2.5	/experiments/knapen_aot/videos/S_yt-WRBmpC-RxIc_678.mp4	0.0	200.8779480457306	0.39989185333251953
50	143.44672298431396	response	0	2		48.0	2.5	/experiments/knapen_aot/videos/S_yt-WRBmpC-RxIc_678.mp4	0.0	201.26973485946655	
50	143.45482802391052	movie	1		301.0	48.0	2.5	/experiments/knapen_aot/videos/S_yt-WRBmpC-RxIc_678.mp4	0.0	201.2778398990631	2.5084140300750732
50	145.9632420539856	fix_post	2		12.0	48.0	2.5	/experiments/knapen_aot/videos/S_yt-WRBmpC-RxIc_678.mp4	0.0	203.78625392913818	0.09994101524353027
51	146.06318306922913	fix_pre	0		59.0	49.0	2.5	blank	1.0	203.8861949443817	0.49168992042541504
51	146.54671716690063	response	0	2		49.0	2.5	blank	1.0	204.36972904205322	
51	146.55487298965454	movie	1		301.0	49.0	2.5	blank	1.0	204.37788486480713	2.5083651542663574
51	149.0632381439209	fix_post	2		12.0	49.0	2.5	blank	1.0	206.8862500190735	0.0999898910522461
52	149.16322803497314	fix_pre	0		63.0	50.0	2.5	/experiments/knapen_aot/videos/S_video_inspire_alabama_montgomery_countryside_00007.1080-h264.mp4	0.0	206.98623991012573	0.5250060558319092
52	149.68000316619873	response	0	2		50.0	2.5	/experiments/knapen_aot/videos/S_video_inspire_alabama_montgomery_countryside_00007.1080-h264.mp4	0.0	207.50301504135132	
52	149.68823409080505	movie	1		167.0	50.0	2.5	/experiments/knapen_aot/videos/S_video_inspire_alabama_montgomery_countryside_00007.1080-h264.mp4	0.0	207.51124596595764	2.5082640647888184
52	152.19649815559387	fix_post	2		12.0	50.0	2.5	/experiments/knapen_aot/videos/S_video_inspire_alabama_montgomery_countryside_00007.1080-h264.mp4	0.0	210.01951003074646	0.10026693344116211
53	152.29676508903503	fix_pre	0		57.0	51.0	2.5	/experiments/knapen_aot/videos/S_yt-gmiyqQDGN78_7.mp4	0.0	210.11977696418762	0.4747800827026367
53	152.7633180618286	response	0	2		51.0	2.5	/experiments/knapen_aot/videos/S_yt-gmiyqQDGN78_7.mp4	0.0	210.5863299369812	
53	152.77154517173767	movie	1		301.0	51.0	2.5	/experiments/knapen_aot/videos/S_yt-gmiyqQDGN78_7.mp4	0.0	210.59455704689026	2.508342981338501
53	155.27988815307617	fix_post	2		12.0	51.0	2.5	/experiments/knapen_aot/videos/S_yt-gmiyqQDGN78_7.mp4	0.0	213.10290002822876	0.10019588470458984
54	155.38008403778076	fix_pre	0		74.0	52.0	2.5	/experiments/knapen_aot/videos/S_yt-kXarkCFJLeg_46.mp4	0.0	213.20309591293335	0.6164329051971436
54	155.98824000358582	response	0	2		52.0	2.5	/experiments/knapen_aot/videos/S_yt-kXarkCFJLeg_46.mp4	0.0	213.8112518787384	
54	155.9965169429779	movie	1		300.0	52.0	2.5	/experiments/knapen_aot/videos/S_yt-kXarkCFJLeg_46.mp4	0.0	213.8195288181305	2.508547067642212
54	158.50506401062012	fix_post	2		12.0	52.0	2.5	/experiments/knapen_aot/videos/S_yt-kXarkCFJLeg_46.mp4	0.0	216.3280758857727	0.0997920036315918
55	158.6048560142517	fix_pre	0		93.0	53.0	2.5	/experiments/knapen_aot/videos/R_S_yt-gmiyqQDGN78_7.mp4	0.0	216.4278678894043	0.7751719951629639
55	159.3717200756073	response	0	2		53.0	2.5	/experiments/knapen_aot/videos/R_S_yt-gmiyqQDGN78_7.mp4	0.0	217.1947319507599	
55	159.38002800941467	movie	1		301.0	53.0	2.5	/experiments/knapen_aot/videos/R_S_yt-gmiyqQDGN78_7.mp4	0.0	217.20303988456726	2.5081989765167236
55	161.8882269859314	fix_post	2		12.0	53.0	2.5	/experiments/knapen_aot/videos/R_S_yt-gmiyqQDGN78_7.mp4	0.0	219.71123886108398	0.09997105598449707
56	161.9881980419159	fix_pre	0		35.0	54.0	2.5	blank	1.0	219.81120991706848	0.2916839122772217
56	162.2717480659485	response	0	2		54.0	2.5	blank	1.0	220.09475994110107	
56	162.27988195419312	movie	1		301.0	54.0	2.5	blank	1.0	220.1028938293457	2.5083281993865967
56	164.7882101535797	fix_post	2		12.0	54.0	2.5	blank	1.0	222.6112220287323	0.10004091262817383
57	164.88825106620789	fix_pre	0		54.0	55.0	2.5	/experiments/knapen_aot/videos/R_S_yt-WrwPgZYBXlA_34.mp4	0.0	222.71126294136047	0.45004796981811523
57	165.32995915412903	response	0	2		55.0	2.5	/experiments/knapen_aot/videos/R_S_yt-WrwPgZYBXlA_34.mp4	0.0	223.15297102928162	
57	165.338299036026	movie	1		299.0	55.0	2.5	/experiments/knapen_aot/videos/R_S_yt-WrwPgZYBXlA_34.mp4	0.0	223.1613109111786	2.5081539154052734
57	167.84645295143127	fix_post	2		12.0	55.0	2.5	/experiments/knapen_aot/videos/R_S_yt-WrwPgZYBXlA_34.mp4	0.0	225.66946482658386	0.100006103515625
58	167.9464590549469	fix_pre	0		33.0	56.0	2.5	/experiments/knapen_aot/videos/S_yt-PaxmJhMoP3w_87.mp4	0.0	225.7694709300995	0.27492809295654297
58	168.21328902244568	response	0	2		56.0	2.5	/experiments/knapen_aot/videos/S_yt-PaxmJhMoP3w_87.mp4	0.0	226.03630089759827	
58	168.22138714790344	movie	1		301.0	56.0	2.5	/experiments/knapen_aot/videos/S_yt-PaxmJhMoP3w_87.mp4	0.0	226.04439902305603	2.5083580017089844
58	170.72974514961243	fix_post	2		12.0	56.0	2.5	/experiments/knapen_aot/videos/S_yt-PaxmJhMoP3w_87.mp4	0.0	228.55275702476501	0.10015201568603516
59	170.82989716529846	fix_pre	0		35.0	57.0	2.5	/experiments/knapen_aot/videos/S_wc-PsidKmkEV7Km_14.mp4	0.0	228.65290904045105	0.291579008102417
59	171.1133451461792	response	0	2		57.0	2.5	/experiments/knapen_aot/videos/S_wc-PsidKmkEV7Km_14.mp4	0.0	228.9363570213318	
59	171.12147617340088	movie	1		167.0	57.0	2.5	/experiments/knapen_aot/videos/S_wc-PsidKmkEV7Km_14.mp4	0.0	228.94448804855347	2.5084099769592285
59	173.6298861503601	fix_post	2		12.0	57.0	2.5	/experiments/knapen_aot/videos/S_wc-PsidKmkEV7Km_14.mp4	0.0	231.4528980255127	0.0999298095703125
60	173.72981595993042	fix_pre	0		29.0	58.0	2.5	/experiments/knapen_aot/videos/S_yt-hyZEDFkh49w_196.mp4	0.0	231.552827835083	0.24162721633911133
60	173.96327805519104	response	0	2		58.0	2.5	/experiments/knapen_aot/videos/S_yt-hyZEDFkh49w_196.mp4	0.0	231.78628993034363	
60	173.97144317626953	movie	1		301.0	58.0	2.5	/experiments/knapen_aot/videos/S_yt-hyZEDFkh49w_196.mp4	0.0	231.79445505142212	2.508330821990967
60	176.4797739982605	fix_post	2		12.0	58.0	2.5	/experiments/knapen_aot/videos/S_yt-hyZEDFkh49w_196.mp4	0.0	234.3027858734131	0.09995317459106445
61	176.57972717285156	fix_pre	0		64.0	59.0	2.5	/experiments/knapen_aot/videos/R_S_yt-PCSXJ5YB_AE_3.mp4	0.0	234.40273904800415	0.5333678722381592
61	177.10491394996643	response	0	2		59.0	2.5	/experiments/knapen_aot/videos/R_S_yt-PCSXJ5YB_AE_3.mp4	0.0	234.92792582511902	
61	177.11309504508972	movie	1		298.0	59.0	2.5	/experiments/knapen_aot/videos/R_S_yt-PCSXJ5YB_AE_3.mp4	0.0	234.9361069202423	2.508323907852173
61	179.6214189529419	fix_post	2		12.0	59.0	2.5	/experiments/knapen_aot/videos/R_S_yt-PCSXJ5YB_AE_3.mp4	0.0	237.44443082809448	0.10004806518554688
62	179.72146701812744	fix_pre	0		52.0	60.0	2.5	/experiments/knapen_aot/videos/S_yt-Y3pi1bgUwIg_78.mp4	0.0	237.54447889328003	0.43327903747558594
62	180.14663410186768	response	0	2		60.0	2.5	/experiments/knapen_aot/videos/S_yt-Y3pi1bgUwIg_78.mp4	0.0	237.96964597702026	
62	180.15474605560303	movie	1		301.0	60.0	2.5	/experiments/knapen_aot/videos/S_yt-Y3pi1bgUwIg_78.mp4	0.0	237.97775793075562	2.5082550048828125
62	182.66300106048584	fix_post	2		12.0	60.0	2.5	/experiments/knapen_aot/videos/S_yt-Y3pi1bgUwIg_78.mp4	0.0	240.48601293563843	0.1000831127166748
63	182.76308417320251	fix_pre	0		54.0	61.0	2.5	blank	1.0	240.5860960483551	0.4499819278717041
63	183.2048921585083	response	0	2		61.0	2.5	blank	1.0	241.0279040336609	
63	183.21306610107422	movie	1		301.0	61.0	2.5	blank	1.0	241.0360779762268	2.5082359313964844
63	185.7213020324707	fix_post	2		12.0	61.0	2.5	blank	1.0	243.5443139076233	0.10005497932434082
64	185.82135701179504	fix_pre	0		62.0	62.0	2.5	/experiments/knapen_aot/videos/R_S_yt-OEY9O2MglQM_7.mp4	0.0	243.64436888694763	0.5167341232299805
64	186.32984709739685	response	0	2		62.0	2.5	/experiments/knapen_aot/videos/R_S_yt-OEY9O2MglQM_7.mp4	0.0	244.15285897254944	
64	186.33809113502502	movie	1		301.0	62.0	2.5	/experiments/knapen_aot/videos/R_S_yt-OEY9O2MglQM_7.mp4	0.0	244.1611030101776	2.508335828781128
64	188.84642696380615	fix_post	2		12.0	62.0	2.5	/experiments/knapen_aot/videos/R_S_yt-OEY9O2MglQM_7.mp4	0.0	246.66943883895874	0.0999290943145752
65	188.94635605812073	fix_pre	0		40.0	63.0	2.5	/experiments/knapen_aot/videos/S_ILSVRC2015_train_00042002.mp4	0.0	246.76936793327332	0.33334803581237793
65	189.2716040611267	response	0	2		63.0	2.5	/experiments/knapen_aot/videos/S_ILSVRC2015_train_00042002.mp4	0.0	247.0946159362793	
65	189.2797040939331	movie	1		301.0	63.0	2.5	/experiments/knapen_aot/videos/S_ILSVRC2015_train_00042002.mp4	0.0	247.1027159690857	2.508410930633545
65	191.78811502456665	fix_post	2		12.0	63.0	2.5	/experiments/knapen_aot/videos/S_ILSVRC2015_train_00042002.mp4	0.0	249.61112689971924	0.1000211238861084
66	191.88813614845276	fix_pre	0		32.0	64.0	2.5	/experiments/knapen_aot/videos/S_yt-4qU-6TEW06E_38.mp4	0.0	249.71114802360535	0.26655101776123047
66	192.13903307914734	response	0	2		64.0	2.5	/experiments/knapen_aot/videos/S_yt-4qU-6TEW06E_38.mp4	0.0	249.96204495429993	
66	192.154687166214	movie	1		301.0	64.0	2.5	/experiments/knapen_aot/videos/S_yt-4qU-6TEW06E_38.mp4	0.0	249.97769904136658	2.5083048343658447
66	194.66299200057983	fix_post	2		12.0	64.0	2.5	/experiments/knapen_aot/videos/S_yt-4qU-6TEW06E_38.mp4	0.0	252.48600387573242	0.1000680923461914
67	194.76306009292603	fix_pre	0		15.0	65.0	2.5	/experiments/knapen_aot/videos/R_S_PA_A004_C003_SDR_20190719_SDR_2K_AVC.mp4	0.0	252.5860719680786	0.12494492530822754
67	194.8798050880432	response	0	2		65.0	2.5	/experiments/knapen_aot/videos/R_S_PA_A004_C003_SDR_20190719_SDR_2K_AVC.mp4	0.0	252.7028169631958	
67	194.88800501823425	movie	1		172.0	65.0	2.5	/experiments/knapen_aot/videos/R_S_PA_A004_C003_SDR_20190719_SDR_2K_AVC.mp4	0.0	252.71101689338684	2.508265972137451
67	197.3962709903717	fix_post	2		12.0	65.0	2.5	/experiments/knapen_aot/videos/R_S_PA_A004_C003_SDR_20190719_SDR_2K_AVC.mp4	0.0	255.2192828655243	0.10008597373962402
68	197.49635696411133	fix_pre	0		54.0	66.0	2.5	/experiments/knapen_aot/videos/S_yt-Uv0dt_-fWJU_40.mp4	0.0	255.31936883926392	0.4500081539154053
68	197.93823504447937	response	0	2		66.0	2.5	/experiments/knapen_aot/videos/S_yt-Uv0dt_-fWJU_40.mp4	0.0	255.76124691963196	
68	197.94636511802673	movie	1		300.0	66.0	2.5	/experiments/knapen_aot/videos/S_yt-Uv0dt_-fWJU_40.mp4	0.0	255.76937699317932	2.508302927017212
68	200.45466804504395	fix_post	2		12.0	66.0	2.5	/experiments/knapen_aot/videos/S_yt-Uv0dt_-fWJU_40.mp4	0.0	258.27767992019653	0.10010099411010742
69	200.55476903915405	fix_pre	0		52.0	67.0	2.5	/experiments/knapen_aot/videos/S_yt-2ftSsLqRQnA_84.mp4	0.0	258.37778091430664	0.43326497077941895
69	200.97986006736755	response	0	2		67.0	2.5	/experiments/knapen_aot/videos/S_yt-2ftSsLqRQnA_84.mp4	0.0	258.80287194252014	
69	200.98803400993347	movie	1		301.0	67.0	2.5	/experiments/knapen_aot/videos/S_yt-2ftSsLqRQnA_84.mp4	0.0	258.81104588508606	2.5083179473876953
69	203.49635195732117	fix_post	2		12.0	67.0	2.5	/experiments/knapen_aot/videos/S_yt-2ftSsLqRQnA_84.mp4	0.0	261.31936383247375	0.1000511646270752
70	203.59640312194824	fix_pre	0		39.0	68.0	2.5	/experiments/knapen_aot/videos/S_yt-iKe-0YNR5Eo_164.mp4	0.0	261.41941499710083	0.32494187355041504
70	203.9131920337677	response	0	2		68.0	2.5	/experiments/knapen_aot/videos/S_yt-iKe-0YNR5Eo_164.mp4	0.0	261.7362039089203	
70	203.92134499549866	movie	1		301.0	68.0	2.5	/experiments/knapen_aot/videos/S_yt-iKe-0YNR5Eo_164.mp4	0.0	261.74435687065125	2.508327007293701
70	206.42967200279236	fix_post	2		12.0	68.0	2.5	/experiments/knapen_aot/videos/S_yt-iKe-0YNR5Eo_164.mp4	0.0	264.25268387794495	0.1000521183013916
71	206.52972412109375	fix_pre	0		72.0	69.0	2.5	blank	1.0	264.35273599624634	0.5999839305877686
71	207.12148094177246	response	0	2		69.0	2.5	blank	1.0	264.94449281692505	
71	207.12970805168152	movie	1		301.0	69.0	2.5	blank	1.0	264.9527199268341	2.508310079574585
71	209.6380181312561	fix_post	2		12.0	69.0	2.5	blank	1.0	267.4610300064087	0.09998893737792969
72	209.73800706863403	fix_pre	0		70.0	70.0	2.5	/experiments/knapen_aot/videos/S_yt_R-JarqKC4X8nM_4.mp4	0.0	267.5610189437866	0.5833470821380615
72	210.31316804885864	response	0	2		70.0	2.5	/experiments/knapen_aot/videos/S_yt_R-JarqKC4X8nM_4.mp4	0.0	268.13617992401123	
72	210.3213541507721	movie	1		301.0	70.0	2.5	/experiments/knapen_aot/videos/S_yt_R-JarqKC4X8nM_4.mp4	0.0	268.1443660259247	2.508309841156006
72	212.8296639919281	fix_post	2		12.0	70.0	2.5	/experiments/knapen_aot/videos/S_yt_R-JarqKC4X8nM_4.mp4	0.0	270.6526758670807	0.10001301765441895
73	212.92967700958252	fix_pre	0		62.0	71.0	2.5	/experiments/knapen_aot/videos/S_wc-TAGpcap1KdAS_212.mp4	0.0	270.7526888847351	0.5166089534759521
73	213.43803906440735	response	0	2		71.0	2.5	/experiments/knapen_aot/videos/S_wc-TAGpcap1KdAS_212.mp4	0.0	271.26105093955994	
73	213.44628596305847	movie	1		301.0	71.0	2.5	/experiments/knapen_aot/videos/S_wc-TAGpcap1KdAS_212.mp4	0.0	271.26929783821106	2.509606122970581
73	215.95589208602905	fix_post	2		12.0	71.0	2.5	/experiments/knapen_aot/videos/S_wc-TAGpcap1KdAS_212.mp4	0.0	273.77890396118164	0.09878897666931152
74	216.05468106269836	fix_pre	0		59.0	72.0	2.5	/experiments/knapen_aot/videos/R_S_yt-2i53vKte7SA_117.mp4	0.0	273.87769293785095	0.4915609359741211
74	216.53057599067688	response	0	2		72.0	2.5	/experiments/knapen_aot/videos/R_S_yt-2i53vKte7SA_117.mp4	0.0	274.35358786582947	
74	216.54624199867249	movie	1		301.0	72.0	2.5	/experiments/knapen_aot/videos/R_S_yt-2i53vKte7SA_117.mp4	0.0	274.3692538738251	2.5083870887756348
74	219.05462908744812	fix_post	2		12.0	72.0	2.5	/experiments/knapen_aot/videos/R_S_yt-2i53vKte7SA_117.mp4	0.0	276.8776409626007	0.09995889663696289
75	219.15458798408508	fix_pre	0		36.0	73.0	2.5	/experiments/knapen_aot/videos/S_yt-BW6jWEVbxxk_4.mp4	0.0	276.97759985923767	0.301253080368042
75	219.4462821483612	response	0	2		73.0	2.5	/experiments/knapen_aot/videos/S_yt-BW6jWEVbxxk_4.mp4	0.0	277.2692940235138	
75	219.45584106445312	movie	1		301.0	73.0	2.5	/experiments/knapen_aot/videos/S_yt-BW6jWEVbxxk_4.mp4	0.0	277.2788529396057	2.5071089267730713
75	221.9629499912262	fix_post	2		12.0	73.0	2.5	/experiments/knapen_aot/videos/S_yt-BW6jWEVbxxk_4.mp4	0.0	279.7859618663788	0.09998202323913574
76	222.06293201446533	fix_pre	0		21.0	74.0	2.5	/experiments/knapen_aot/videos/R_S_video-2_copy.mp4	0.0	279.8859438896179	0.17498207092285156
76	222.2296440601349	response	0	2		74.0	2.5	/experiments/knapen_aot/videos/R_S_video-2_copy.mp4	0.0	280.0526559352875	
76	222.23791408538818	movie	1		171.0	74.0	2.5	/experiments/knapen_aot/videos/R_S_video-2_copy.mp4	0.0	280.06092596054077	2.508358955383301
76	224.74627304077148	fix_post	2		12.0	74.0	2.5	/experiments/knapen_aot/videos/R_S_video-2_copy.mp4	0.0	282.5692849159241	0.10002994537353516
77	224.84630298614502	fix_pre	0		31.0	75.0	2.5	/experiments/knapen_aot/videos/R_S_I003_C011_SDR_2K_AVC.mp4	0.0	282.6693148612976	0.2583589553833008
77	225.09642815589905	response	0	2		75.0	2.5	/experiments/knapen_aot/videos/R_S_I003_C011_SDR_2K_AVC.mp4	0.0	282.91944003105164	
77	225.10466194152832	movie	1		172.0	75.0	2.5	/experiments/knapen_aot/videos/R_S_I003_C011_SDR_2K_AVC.mp4	0.0	282.9276738166809	2.5082640647888184
77	227.61292600631714	fix_post	2		12.0	75.0	2.5	/experiments/knapen_aot/videos/R_S_I003_C011_SDR_2K_AVC.mp4	0.0	285.4359378814697	0.09998416900634766
78	227.7129101753235	fix_pre	0		43.0	76.0	2.5	blank	1.0	285.5359220504761	0.3583488464355469
78	228.06303715705872	response	0	2		76.0	2.5	blank	1.0	285.8860490322113	
78	228.07125902175903	movie	1		301.0	76.0	2.5	blank	1.0	285.8942708969116	2.50832200050354
78	230.57958102226257	fix_post	2		12.0	76.0	2.5	blank	1.0	288.40259289741516	0.09999799728393555
79	230.6795790195465	fix_pre	0		47.0	77.0	2.5	/experiments/knapen_aot/videos/S_yt-4qU-6TEW06E_38.mp4	0.0	288.5025908946991	0.39165210723876953
79	231.05549597740173	response	0	2		77.0	2.5	/experiments/knapen_aot/videos/S_yt-4qU-6TEW06E_38.mp4	0.0	288.8785078525543	
79	231.07123112678528	movie	1		301.0	77.0	2.5	/experiments/knapen_aot/videos/S_yt-4qU-6TEW06E_38.mp4	0.0	288.89424300193787	2.50839900970459
79	233.57963013648987	fix_post	2		12.0	77.0	2.5	/experiments/knapen_aot/videos/S_yt-4qU-6TEW06E_38.mp4	0.0	291.40264201164246	0.10000491142272949
80	233.6796350479126	fix_pre	0		45.0	78.0	2.5	/experiments/knapen_aot/videos/R_S_yt-7WYXuBHeorw_188.mp4	0.0	291.5026469230652	0.37491393089294434
80	234.0464210510254	response	0	2		78.0	2.5	/experiments/knapen_aot/videos/R_S_yt-7WYXuBHeorw_188.mp4	0.0	291.869432926178	
80	234.05454897880554	movie	1		301.0	78.0	2.5	/experiments/knapen_aot/videos/R_S_yt-7WYXuBHeorw_188.mp4	0.0	291.87756085395813	2.5083680152893066
80	236.56291699409485	fix_post	2		12.0	78.0	2.5	/experiments/knapen_aot/videos/R_S_yt-7WYXuBHeorw_188.mp4	0.0	294.38592886924744	0.10006117820739746
81	236.66297817230225	fix_pre	0		45.0	79.0	2.5	/experiments/knapen_aot/videos/R_S_pexels-tima-miroshnichenko-6077718.mp4	0.0	294.48599004745483	0.376025915145874
81	237.0297429561615	response	0	2		79.0	2.5	/experiments/knapen_aot/videos/R_S_pexels-tima-miroshnichenko-6077718.mp4	0.0	294.8527548313141	
81	237.03900408744812	movie	1		165.0	79.0	2.5	/experiments/knapen_aot/videos/R_S_pexels-tima-miroshnichenko-6077718.mp4	0.0	294.8620159626007	2.5071308612823486
81	239.54613494873047	fix_post	2		12.0	79.0	2.5	/experiments/knapen_aot/videos/R_S_pexels-tima-miroshnichenko-6077718.mp4	0.0	297.36914682388306	0.10004711151123047
82	239.6461820602417	fix_pre	0		46.0	80.0	2.5	/experiments/knapen_aot/videos/S_yt-mDil5vGZb14_4049.mp4	0.0	297.4691939353943	0.38332605361938477
82	240.02126216888428	response	0	2		80.0	2.5	/experiments/knapen_aot/videos/S_yt-mDil5vGZb14_4049.mp4	0.0	297.84427404403687	
82	240.02950811386108	movie	1		301.0	80.0	2.5	/experiments/knapen_aot/videos/S_yt-mDil5vGZb14_4049.mp4	0.0	297.8525199890137	2.508319854736328
82	242.5378279685974	fix_post	2		12.0	80.0	2.5	/experiments/knapen_aot/videos/S_yt-mDil5vGZb14_4049.mp4	0.0	300.36083984375	0.09994006156921387
83	242.63776803016663	fix_pre	0		46.0	81.0	2.5	/experiments/knapen_aot/videos/R_S_yt-9pUeQix6EW8_7.mp4	0.0	300.4607799053192	0.38339996337890625
83	243.01294898986816	response	0	2		81.0	2.5	/experiments/knapen_aot/videos/R_S_yt-9pUeQix6EW8_7.mp4	0.0	300.83596086502075	
83	243.02116799354553	movie	1		298.0	81.0	2.5	/experiments/knapen_aot/videos/R_S_yt-9pUeQix6EW8_7.mp4	0.0	300.8441798686981	2.5083940029144287
83	245.52956199645996	fix_post	2		12.0	81.0	2.5	/experiments/knapen_aot/videos/R_S_yt-9pUeQix6EW8_7.mp4	0.0	303.35257387161255	0.09995508193969727
84	245.62951707839966	fix_pre	0		48.0	82.0	2.5	blank	1.0	303.45252895355225	0.39986205101013184
84	246.02128195762634	response	0	2		82.0	2.5	blank	1.0	303.84429383277893	
84	246.0293791294098	movie	1		301.0	82.0	2.5	blank	1.0	303.8523910045624	2.5083658695220947
84	248.53774499893188	fix_post	2		12.0	82.0	2.5	blank	1.0	306.3607568740845	0.10009908676147461
85	248.63784408569336	fix_pre	0		41.0	83.0	2.5	/experiments/knapen_aot/videos/R_S_yt-0xzYSBvVfYM_197.mp4	0.0	306.46085596084595	0.3416118621826172
85	248.96376514434814	response	0	2		83.0	2.5	/experiments/knapen_aot/videos/R_S_yt-0xzYSBvVfYM_197.mp4	0.0	306.78677701950073	
85	248.97945594787598	movie	1		301.0	83.0	2.5	/experiments/knapen_aot/videos/R_S_yt-0xzYSBvVfYM_197.mp4	0.0	306.80246782302856	2.5083181858062744
85	251.48777413368225	fix_post	2		12.0	83.0	2.5	/experiments/knapen_aot/videos/R_S_yt-0xzYSBvVfYM_197.mp4	0.0	309.31078600883484	0.09999680519104004
87	251.5877709388733	stim	0		310.0					309.4107828140259	2.583336114883423
87	254.16726517677307	response	0	space						311.99027705192566	
