trial_nr	onset	event_type	phase	response	nr_frames	movie_index	movie_duration	movie_file	blank	onset_abs	duration
0	0.15828704833984375	stim	0		99.0					68.9231128692627	0.8249280452728271
0	0.9751172065734863	response	0	space						69.73994302749634	
1	0.9832150936126709	stim	0		121.0					69.74804091453552	1.0079889297485352
1	1.991204023361206	stim	1		120.0					70.75602984428406	0.9999639987945557
2	2.9911680221557617	fix_pre	0		770.0	0.0	2.5	/experiments/knapen_aot/videos/S_production_ID_3709168.mp4	0.0	71.75599384307861	6.416697978973389
2	9.401888132095337	response	0	2		0.0	2.5	/experiments/knapen_aot/videos/S_production_ID_3709168.mp4	0.0	78.16671395301819	
2	9.40786600112915	movie	1		186.0	0.0	2.5	/experiments/knapen_aot/videos/S_production_ID_3709168.mp4	0.0	78.172691822052	2.5082430839538574
2	11.916109085083008	fix_post	2		12.0	0.0	2.5	/experiments/knapen_aot/videos/S_production_ID_3709168.mp4	0.0	80.68093490600586	0.10009407997131348
3	12.016203165054321	fix_pre	0		13.0	1.0	2.5	/experiments/knapen_aot/videos/R_S_pexels-mart-production-7698693.mp4	0.0	80.78102898597717	0.10829901695251465
3	12.1163170337677	response	0	2		1.0	2.5	/experiments/knapen_aot/videos/R_S_pexels-mart-production-7698693.mp4	0.0	80.88114285469055	
3	12.124502182006836	movie	1		199.0	1.0	2.5	/experiments/knapen_aot/videos/R_S_pexels-mart-production-7698693.mp4	0.0	80.88932800292969	2.508297920227051
3	14.632800102233887	fix_post	2		12.0	1.0	2.5	/experiments/knapen_aot/videos/R_S_pexels-mart-production-7698693.mp4	0.0	83.39762592315674	0.10001707077026367
4	14.73281717300415	fix_pre	0		9.0	2.0	2.5	/experiments/knapen_aot/videos/R_S_flickr-hapanine-31880782705_22.mp4	0.0	83.497642993927	0.07662701606750488
4	14.799751996994019	response	0	2		2.0	2.5	/experiments/knapen_aot/videos/R_S_flickr-hapanine-31880782705_22.mp4	0.0	83.56457781791687	
4	14.809444189071655	movie	1		165.0	2.0	2.5	/experiments/knapen_aot/videos/R_S_flickr-hapanine-31880782705_22.mp4	0.0	83.5742700099945	2.5066909790039062
4	17.31613516807556	fix_post	2		12.0	2.0	2.5	/experiments/knapen_aot/videos/R_S_flickr-hapanine-31880782705_22.mp4	0.0	86.08096098899841	0.0999610424041748
5	17.416096210479736	fix_pre	0		13.0	3.0	2.5	/experiments/knapen_aot/videos/S_pexels-c-technical-6754008.mp4	0.0	86.18092203140259	0.10834693908691406
5	17.516282081604004	response	0	2		3.0	2.5	/experiments/knapen_aot/videos/S_pexels-c-technical-6754008.mp4	0.0	86.28110790252686	
5	17.52444314956665	movie	1		198.0	3.0	2.5	/experiments/knapen_aot/videos/S_pexels-c-technical-6754008.mp4	0.0	86.2892689704895	2.5083069801330566
5	20.032750129699707	fix_post	2		12.0	3.0	2.5	/experiments/knapen_aot/videos/S_pexels-c-technical-6754008.mp4	0.0	88.79757595062256	0.09995293617248535
6	20.132703065872192	fix_pre	0		29.0	4.0	2.5	/experiments/knapen_aot/videos/S_ILSVRC2015_train_00001009.mp4	0.0	88.89752888679504	0.24175405502319336
6	20.366266012191772	response	0	2		4.0	2.5	/experiments/knapen_aot/videos/S_ILSVRC2015_train_00001009.mp4	0.0	89.13109183311462	
6	20.374457120895386	movie	1		301.0	4.0	2.5	/experiments/knapen_aot/videos/S_ILSVRC2015_train_00001009.mp4	0.0	89.13928294181824	2.5082759857177734
6	22.88273310661316	fix_post	2		12.0	4.0	2.5	/experiments/knapen_aot/videos/S_ILSVRC2015_train_00001009.mp4	0.0	91.64755892753601	0.10003805160522461
7	22.982771158218384	fix_pre	0		26.0	5.0	2.5	/experiments/knapen_aot/videos/S_S003_C020_SDR_2K_AVC.mp4	0.0	91.74759697914124	0.21667885780334473
7	23.1911780834198	response	0	2		5.0	2.5	/experiments/knapen_aot/videos/S_S003_C020_SDR_2K_AVC.mp4	0.0	91.95600390434265	
7	23.19945001602173	movie	1		172.0	5.0	2.5	/experiments/knapen_aot/videos/S_S003_C020_SDR_2K_AVC.mp4	0.0	91.96427583694458	2.5083601474761963
7	25.707810163497925	fix_post	2		12.0	5.0	2.5	/experiments/knapen_aot/videos/S_S003_C020_SDR_2K_AVC.mp4	0.0	94.47263598442078	0.09996390342712402
8	25.80777406692505	fix_pre	0		27.0	6.0	2.5	blank	1.0	94.5725998878479	0.22498607635498047
8	26.024580001831055	response	0	2		6.0	2.5	blank	1.0	94.7894058227539	
8	26.03276014328003	movie	1		301.0	6.0	2.5	blank	1.0	94.79758596420288	2.5082950592041016
8	28.54105520248413	fix_post	2		12.0	6.0	2.5	blank	1.0	97.30588102340698	0.10003089904785156
9	28.641086101531982	fix_pre	0		21.0	7.0	2.5	/experiments/knapen_aot/videos/R_S_pexels-c-technical-6754008.mp4	0.0	97.40591192245483	0.17497992515563965
9	28.807854175567627	response	0	2		7.0	2.5	/experiments/knapen_aot/videos/R_S_pexels-c-technical-6754008.mp4	0.0	97.57267999649048	
9	28.816066026687622	movie	1		205.0	7.0	2.5	/experiments/knapen_aot/videos/R_S_pexels-c-technical-6754008.mp4	0.0	97.58089184761047	2.5084891319274902
9	31.324555158615112	fix_post	2		12.0	7.0	2.5	/experiments/knapen_aot/videos/R_S_pexels-c-technical-6754008.mp4	0.0	100.08938097953796	0.09987187385559082
10	31.424427032470703	fix_pre	0		9.0	8.0	2.5	/experiments/knapen_aot/videos/R_S_yt-HMAa2QbfFPI_216.mp4	0.0	100.18925285339355	0.07509803771972656
10	31.484568119049072	response	0	2		8.0	2.5	/experiments/knapen_aot/videos/R_S_yt-HMAa2QbfFPI_216.mp4	0.0	100.24939393997192	
10	31.49952507019043	movie	1		301.0	8.0	2.5	/experiments/knapen_aot/videos/R_S_yt-HMAa2QbfFPI_216.mp4	0.0	100.26435089111328	2.5081851482391357
10	34.007710218429565	fix_post	2		12.0	8.0	2.5	/experiments/knapen_aot/videos/R_S_yt-HMAa2QbfFPI_216.mp4	0.0	102.77253603935242	0.10007500648498535
11	34.10778522491455	fix_pre	0		10.0	9.0	2.5	/experiments/knapen_aot/videos/S_production_ID_4101244.mp4	0.0	102.8726110458374	0.08324980735778809
11	34.18285918235779	response	0	2		9.0	2.5	/experiments/knapen_aot/videos/S_production_ID_4101244.mp4	0.0	102.94768500328064	
11	34.19103503227234	movie	1		197.0	9.0	2.5	/experiments/knapen_aot/videos/S_production_ID_4101244.mp4	0.0	102.95586085319519	2.50839900970459
11	36.69943404197693	fix_post	2		12.0	9.0	2.5	/experiments/knapen_aot/videos/S_production_ID_4101244.mp4	0.0	105.46425986289978	0.10001897811889648
12	36.799453020095825	fix_pre	0		15.0	10.0	2.5	/experiments/knapen_aot/videos/R_S_video_inspire_uk_london_hampstead-heath_003.1080-h264.mp4	0.0	105.56427884101868	0.12492203712463379
12	36.91616201400757	response	0	2		10.0	2.5	/experiments/knapen_aot/videos/R_S_video_inspire_uk_london_hampstead-heath_003.1080-h264.mp4	0.0	105.68098783493042	
12	36.92437505722046	movie	1		171.0	10.0	2.5	/experiments/knapen_aot/videos/R_S_video_inspire_uk_london_hampstead-heath_003.1080-h264.mp4	0.0	105.68920087814331	2.5095479488372803
12	39.424476146698	response	1	2		10.0	2.5	/experiments/knapen_aot/videos/R_S_video_inspire_uk_london_hampstead-heath_003.1080-h264.mp4	0.0	108.18930196762085	
12	39.43392300605774	fix_post	2		12.0	10.0	2.5	/experiments/knapen_aot/videos/R_S_video_inspire_uk_london_hampstead-heath_003.1080-h264.mp4	0.0	108.19874882698059	0.09882116317749023
13	39.53274416923523	fix_pre	0		26.0	11.0	2.5	/experiments/knapen_aot/videos/S_ILSVRC2015_train_00165008.mp4	0.0	108.29756999015808	0.2166600227355957
13	39.733633041381836	response	0	2		11.0	2.5	/experiments/knapen_aot/videos/S_ILSVRC2015_train_00165008.mp4	0.0	108.49845886230469	
13	39.749404191970825	movie	1		300.0	11.0	2.5	/experiments/knapen_aot/videos/S_ILSVRC2015_train_00165008.mp4	0.0	108.51423001289368	2.5082848072052
13	42.257688999176025	fix_post	2		12.0	11.0	2.5	/experiments/knapen_aot/videos/S_ILSVRC2015_train_00165008.mp4	0.0	111.02251482009888	0.10006117820739746
14	42.35775017738342	fix_pre	0		1.0	12.0	2.5	/experiments/knapen_aot/videos/S_yt-gikcYT6ZLzA_7.mp4	0.0	111.12257599830627	0.008271932601928711
14	42.35963010787964	response	0	2		12.0	2.5	/experiments/knapen_aot/videos/S_yt-gikcYT6ZLzA_7.mp4	0.0	111.12445592880249	
14	42.36602210998535	movie	1		301.0	12.0	2.5	/experiments/knapen_aot/videos/S_yt-gikcYT6ZLzA_7.mp4	0.0	111.1308479309082	2.5083210468292236
14	44.874343156814575	fix_post	2		12.0	12.0	2.5	/experiments/knapen_aot/videos/S_yt-gikcYT6ZLzA_7.mp4	0.0	113.63916897773743	0.10002398490905762
15	44.97436714172363	fix_pre	0		40.0	13.0	2.5	blank	1.0	113.73919296264648	0.33330607414245605
15	45.299476146698	response	0	2		13.0	2.5	blank	1.0	114.06430196762085	
15	45.30767321586609	movie	1		301.0	13.0	2.5	blank	1.0	114.07249903678894	2.508356809616089
15	47.81603002548218	fix_post	2		12.0	13.0	2.5	blank	1.0	116.58085584640503	0.09997797012329102
16	47.91600799560547	fix_pre	0		31.0	14.0	2.5	/experiments/knapen_aot/videos/S_yt-pPIHiIYSjW8_653.mp4	0.0	116.68083381652832	0.2582540512084961
16	48.16613221168518	response	0	2		14.0	2.5	/experiments/knapen_aot/videos/S_yt-pPIHiIYSjW8_653.mp4	0.0	116.93095803260803	
16	48.174262046813965	movie	1		300.0	14.0	2.5	/experiments/knapen_aot/videos/S_yt-pPIHiIYSjW8_653.mp4	0.0	116.93908786773682	2.5084099769592285
16	50.68267202377319	fix_post	2		12.0	14.0	2.5	/experiments/knapen_aot/videos/S_yt-pPIHiIYSjW8_653.mp4	0.0	119.44749784469604	0.10010504722595215
17	50.782777070999146	fix_pre	0		14.0	15.0	2.5	/experiments/knapen_aot/videos/S_comp_DB_D002_C003_PSNK_v04_SDR_PS_20180914_SDR_2K_AVC.mp4	0.0	119.547602891922	0.11652207374572754
17	50.8912091255188	response	0	2		15.0	2.5	/experiments/knapen_aot/videos/S_comp_DB_D002_C003_PSNK_v04_SDR_PS_20180914_SDR_2K_AVC.mp4	0.0	119.65603494644165	
17	50.89929914474487	movie	1		198.0	15.0	2.5	/experiments/knapen_aot/videos/S_comp_DB_D002_C003_PSNK_v04_SDR_PS_20180914_SDR_2K_AVC.mp4	0.0	119.66412496566772	2.5083649158477783
17	53.40766406059265	fix_post	2		12.0	15.0	2.5	/experiments/knapen_aot/videos/S_comp_DB_D002_C003_PSNK_v04_SDR_PS_20180914_SDR_2K_AVC.mp4	0.0	122.1724898815155	0.0999910831451416
18	53.50765514373779	fix_pre	0		34.0	16.0	2.5	/experiments/knapen_aot/videos/S_yt-Zn0YwrsCFOQ_44.mp4	0.0	122.27248096466064	0.2833409309387207
18	53.78278708457947	response	0	2		16.0	2.5	/experiments/knapen_aot/videos/S_yt-Zn0YwrsCFOQ_44.mp4	0.0	122.54761290550232	
18	53.790996074676514	movie	1		301.0	16.0	2.5	/experiments/knapen_aot/videos/S_yt-Zn0YwrsCFOQ_44.mp4	0.0	122.55582189559937	2.5083119869232178
18	56.29930806159973	fix_post	2		12.0	16.0	2.5	/experiments/knapen_aot/videos/S_yt-Zn0YwrsCFOQ_44.mp4	0.0	125.06413388252258	0.09996700286865234
18	56.39109420776367	response	2	2		16.0	2.5	/experiments/knapen_aot/videos/S_yt-Zn0YwrsCFOQ_44.mp4	0.0	125.15592002868652	
19	56.399275064468384	fix_pre	0		43.0	17.0	2.5	/experiments/knapen_aot/videos/S_yt-XtzmBXKYEWk_60.mp4	0.0	125.16410088539124	0.358396053314209
19	56.74937200546265	response	0	2		17.0	2.5	/experiments/knapen_aot/videos/S_yt-XtzmBXKYEWk_60.mp4	0.0	125.5141978263855	
19	56.75767111778259	movie	1		301.0	17.0	2.5	/experiments/knapen_aot/videos/S_yt-XtzmBXKYEWk_60.mp4	0.0	125.52249693870544	2.5082900524139404
19	59.26596117019653	fix_post	2		12.0	17.0	2.5	/experiments/knapen_aot/videos/S_yt-XtzmBXKYEWk_60.mp4	0.0	128.03078699111938	0.10000085830688477
20	59.36596202850342	fix_pre	0		27.0	18.0	2.5	/experiments/knapen_aot/videos/S_yt-NqyG4Ar2JWo_10.mp4	0.0	128.13078784942627	0.2250041961669922
20	59.582756996154785	response	0	2		18.0	2.5	/experiments/knapen_aot/videos/S_yt-NqyG4Ar2JWo_10.mp4	0.0	128.34758281707764	
20	59.59096622467041	movie	1		301.0	18.0	2.5	/experiments/knapen_aot/videos/S_yt-NqyG4Ar2JWo_10.mp4	0.0	128.35579204559326	2.5083529949188232
20	62.09931921958923	fix_post	2		12.0	18.0	2.5	/experiments/knapen_aot/videos/S_yt-NqyG4Ar2JWo_10.mp4	0.0	130.86414504051208	0.09997081756591797
21	62.19929003715515	fix_pre	0		17.0	19.0	2.5	/experiments/knapen_aot/videos/R_S_Pexels_Videos_2795171.mp4	0.0	130.964115858078	0.14171314239501953
21	62.332786083221436	response	0	2		19.0	2.5	/experiments/knapen_aot/videos/R_S_Pexels_Videos_2795171.mp4	0.0	131.0976119041443	
21	62.34100317955017	movie	1		164.0	19.0	2.5	/experiments/knapen_aot/videos/R_S_Pexels_Videos_2795171.mp4	0.0	131.10582900047302	2.50833797454834
21	64.84934115409851	fix_post	2		12.0	19.0	2.5	/experiments/knapen_aot/videos/R_S_Pexels_Videos_2795171.mp4	0.0	133.61416697502136	0.09994387626647949
22	64.94928503036499	fix_pre	0		13.0	20.0	2.5	/experiments/knapen_aot/videos/S_yt-xqjVM0Vj4mI_161.mp4	0.0	133.71411085128784	0.10926508903503418
22	65.04939103126526	response	0	2		20.0	2.5	/experiments/knapen_aot/videos/S_yt-xqjVM0Vj4mI_161.mp4	0.0	133.8142168521881	
22	65.05855011940002	movie	1		301.0	20.0	2.5	/experiments/knapen_aot/videos/S_yt-xqjVM0Vj4mI_161.mp4	0.0	133.82337594032288	2.50738787651062
22	67.56593799591064	fix_post	2		12.0	20.0	2.5	/experiments/knapen_aot/videos/S_yt-xqjVM0Vj4mI_161.mp4	0.0	136.3307638168335	0.10004115104675293
23	67.6659791469574	fix_pre	0		21.0	21.0	2.5	blank	1.0	136.43080496788025	0.17496585845947266
23	67.82518815994263	response	0	2		21.0	2.5	blank	1.0	136.59001398086548	
23	67.84094500541687	movie	1		301.0	21.0	2.5	blank	1.0	136.60577082633972	2.508223056793213
23	70.34916806221008	fix_post	2		12.0	21.0	2.5	blank	1.0	139.11399388313293	0.10010004043579102
24	70.44926810264587	fix_pre	0		17.0	22.0	2.5	/experiments/knapen_aot/videos/S_yt-FR_Y1Mm8BwQ_53.mp4	0.0	139.21409392356873	0.14165091514587402
24	70.58262920379639	response	0	2		22.0	2.5	/experiments/knapen_aot/videos/S_yt-FR_Y1Mm8BwQ_53.mp4	0.0	139.34745502471924	
24	70.59091901779175	movie	1		301.0	22.0	2.5	/experiments/knapen_aot/videos/S_yt-FR_Y1Mm8BwQ_53.mp4	0.0	139.3557448387146	2.50828218460083
24	73.09920120239258	fix_post	2		12.0	22.0	2.5	/experiments/knapen_aot/videos/S_yt-FR_Y1Mm8BwQ_53.mp4	0.0	141.86402702331543	0.10005402565002441
25	73.1992552280426	fix_pre	0		24.0	23.0	2.5	/experiments/knapen_aot/videos/S_yt-waWM9vAfsIw_116.mp4	0.0	141.96408104896545	0.20007991790771484
25	73.39106607437134	response	0	2		23.0	2.5	/experiments/knapen_aot/videos/S_yt-waWM9vAfsIw_116.mp4	0.0	142.1558918952942	
25	73.39933514595032	movie	1		301.0	23.0	2.5	/experiments/knapen_aot/videos/S_yt-waWM9vAfsIw_116.mp4	0.0	142.16416096687317	2.5082550048828125
25	75.90759015083313	fix_post	2		12.0	23.0	2.5	/experiments/knapen_aot/videos/S_yt-waWM9vAfsIw_116.mp4	0.0	144.67241597175598	0.10001492500305176
26	76.00760507583618	fix_pre	0		12.0	24.0	2.5	/experiments/knapen_aot/videos/R_S_ILSVRC2015_train_00001009.mp4	0.0	144.77243089675903	0.0999610424041748
26	76.09931302070618	response	0	2		24.0	2.5	/experiments/knapen_aot/videos/R_S_ILSVRC2015_train_00001009.mp4	0.0	144.86413884162903	
26	76.10756611824036	movie	1		300.0	24.0	2.5	/experiments/knapen_aot/videos/R_S_ILSVRC2015_train_00001009.mp4	0.0	144.8723919391632	2.508359909057617
26	78.61592602729797	fix_post	2		12.0	24.0	2.5	/experiments/knapen_aot/videos/R_S_ILSVRC2015_train_00001009.mp4	0.0	147.38075184822083	0.0999901294708252
27	78.7159161567688	fix_pre	0		11.0	25.0	2.5	/experiments/knapen_aot/videos/S_ILSVRC2015_train_00473001.mp4	0.0	147.48074197769165	0.09256196022033691
27	78.79191303253174	response	0	2		25.0	2.5	/experiments/knapen_aot/videos/S_ILSVRC2015_train_00473001.mp4	0.0	147.5567388534546	
27	78.80847811698914	movie	1		301.0	25.0	2.5	/experiments/knapen_aot/videos/S_ILSVRC2015_train_00473001.mp4	0.0	147.573303937912	2.5075109004974365
27	81.31598901748657	fix_post	2		12.0	25.0	2.5	/experiments/knapen_aot/videos/S_ILSVRC2015_train_00473001.mp4	0.0	150.08081483840942	0.09985804557800293
28	81.41584706306458	fix_pre	0		20.0	26.0	2.5	/experiments/knapen_aot/videos/R_S_yt-jcuaf9iSEkI_169.mp4	0.0	150.18067288398743	0.16672897338867188
28	81.57434010505676	response	0	2		26.0	2.5	/experiments/knapen_aot/videos/R_S_yt-jcuaf9iSEkI_169.mp4	0.0	150.33916592597961	
28	81.58257603645325	movie	1		301.0	26.0	2.5	/experiments/knapen_aot/videos/R_S_yt-jcuaf9iSEkI_169.mp4	0.0	150.3474018573761	2.5082530975341797
28	84.09082913398743	fix_post	2		11.0	26.0	2.5	/experiments/knapen_aot/videos/R_S_yt-jcuaf9iSEkI_169.mp4	0.0	152.85565495491028	0.09263896942138672
28	84.17425203323364	response	2	2		26.0	2.5	/experiments/knapen_aot/videos/R_S_yt-jcuaf9iSEkI_169.mp4	0.0	152.9390778541565	
29	84.18346810340881	fix_pre	0		43.0	27.0	2.5	blank	1.0	152.94829392433167	0.35732412338256836
29	84.53262710571289	response	0	2		27.0	2.5	blank	1.0	153.29745292663574	
29	84.54079222679138	movie	1		301.0	27.0	2.5	blank	1.0	153.30561804771423	2.508335828781128
29	86.8909330368042	response	1	2		27.0	2.5	blank	1.0	155.65575885772705	
29	87.04912805557251	fix_post	2		12.0	27.0	2.5	blank	1.0	155.81395387649536	0.10008096694946289
29	87.1007490158081	response	2	2		27.0	2.5	blank	1.0	155.86557483673096	
30	87.14920902252197	fix_pre	0		36.0	28.0	2.5	/experiments/knapen_aot/videos/S_pexels-mart-production-7698911_1.mp4	0.0	155.91403484344482	0.29994797706604004
30	87.44094204902649	response	0	2		28.0	2.5	/experiments/knapen_aot/videos/S_pexels-mart-production-7698911_1.mp4	0.0	156.20576786994934	
30	87.44915699958801	movie	1		188.0	28.0	2.5	/experiments/knapen_aot/videos/S_pexels-mart-production-7698911_1.mp4	0.0	156.21398282051086	2.5083870887756348
30	89.95754408836365	fix_post	2		12.0	28.0	2.5	/experiments/knapen_aot/videos/S_pexels-mart-production-7698911_1.mp4	0.0	158.7223699092865	0.10083508491516113
31	90.05837917327881	fix_pre	0		10.0	29.0	2.5	/experiments/knapen_aot/videos/R_S_wc-16LozRfhUGea_49.mp4	0.0	158.82320499420166	0.08336687088012695
31	90.13263511657715	response	0	2		29.0	2.5	/experiments/knapen_aot/videos/R_S_wc-16LozRfhUGea_49.mp4	0.0	158.8974609375	
31	90.14174604415894	movie	1		301.0	29.0	2.5	/experiments/knapen_aot/videos/R_S_wc-16LozRfhUGea_49.mp4	0.0	158.9065718650818	2.507446050643921
31	92.64919209480286	fix_post	2		12.0	29.0	2.5	/experiments/knapen_aot/videos/R_S_wc-16LozRfhUGea_49.mp4	0.0	161.4140179157257	0.09999799728393555
32	92.74919009208679	fix_pre	0		34.0	30.0	2.5	/experiments/knapen_aot/videos/S_ILSVRC2015_train_00569006.mp4	0.0	161.51401591300964	0.2833290100097656
32	93.02429103851318	response	0	2		30.0	2.5	/experiments/knapen_aot/videos/S_ILSVRC2015_train_00569006.mp4	0.0	161.78911685943604	
32	93.03251910209656	movie	1		301.0	30.0	2.5	/experiments/knapen_aot/videos/S_ILSVRC2015_train_00569006.mp4	0.0	161.7973449230194	2.5082900524139404
32	95.5408091545105	fix_post	2		12.0	30.0	2.5	/experiments/knapen_aot/videos/S_ILSVRC2015_train_00569006.mp4	0.0	164.30563497543335	0.10003185272216797
33	95.64084100723267	fix_pre	0		25.0	31.0	2.5	/experiments/knapen_aot/videos/S_pexels-rodnae-productions-5617905.mp4	0.0	164.40566682815552	0.20909500122070312
33	95.8333752155304	response	0	2		31.0	2.5	/experiments/knapen_aot/videos/S_pexels-rodnae-productions-5617905.mp4	0.0	164.59820103645325	
33	95.84993600845337	movie	1		164.0	31.0	2.5	/experiments/knapen_aot/videos/S_pexels-rodnae-productions-5617905.mp4	0.0	164.61476182937622	2.507552146911621
33	98.35748815536499	fix_post	2		12.0	31.0	2.5	/experiments/knapen_aot/videos/S_pexels-rodnae-productions-5617905.mp4	0.0	167.12231397628784	0.09998703002929688
34	98.45747518539429	fix_pre	0		13.0	32.0	2.5	/experiments/knapen_aot/videos/R_S_yt-wz2opOBqClo_14.mp4	0.0	167.22230100631714	0.10825181007385254
34	98.55761003494263	response	0	2		32.0	2.5	/experiments/knapen_aot/videos/R_S_yt-wz2opOBqClo_14.mp4	0.0	167.32243585586548	
34	98.56572699546814	movie	1		301.0	32.0	2.5	/experiments/knapen_aot/videos/R_S_yt-wz2opOBqClo_14.mp4	0.0	167.330552816391	2.5083541870117188
34	101.07408118247986	fix_post	2		12.0	32.0	2.5	/experiments/knapen_aot/videos/R_S_yt-wz2opOBqClo_14.mp4	0.0	169.8389070034027	0.10006904602050781
35	101.17415022850037	fix_pre	0		12.0	33.0	2.5	blank	1.0	169.93897604942322	0.0999298095703125
35	101.2659080028534	response	0	2		33.0	2.5	blank	1.0	170.03073382377625	
35	101.27408003807068	movie	1		301.0	33.0	2.5	blank	1.0	170.03890585899353	2.508352041244507
35	103.78243207931519	fix_post	2		12.0	33.0	2.5	blank	1.0	172.54725790023804	0.10001206398010254
36	103.88244414329529	fix_pre	0		16.0	34.0	2.5	/experiments/knapen_aot/videos/R_S_production_ID_5182928.mp4	0.0	172.64726996421814	0.13415098190307617
36	104.00782608985901	response	0	2		34.0	2.5	/experiments/knapen_aot/videos/R_S_production_ID_5182928.mp4	0.0	172.77265191078186	
36	104.01659512519836	movie	1		170.0	34.0	2.5	/experiments/knapen_aot/videos/R_S_production_ID_5182928.mp4	0.0	172.78142094612122	2.507577896118164
36	106.52417302131653	fix_post	2		12.0	34.0	2.5	/experiments/knapen_aot/videos/R_S_production_ID_5182928.mp4	0.0	175.28899884223938	0.09994697570800781
37	106.62411999702454	fix_pre	0		35.0	35.0	2.5	/experiments/knapen_aot/videos/R_S_CR_A009_C007_SDR_20191113_SDR_2K_AVC.mp4	0.0	175.3889458179474	0.291748046875
37	106.90759301185608	response	0	2		35.0	2.5	/experiments/knapen_aot/videos/R_S_CR_A009_C007_SDR_20191113_SDR_2K_AVC.mp4	0.0	175.67241883277893	
37	106.91586804389954	movie	1		164.0	35.0	2.5	/experiments/knapen_aot/videos/R_S_CR_A009_C007_SDR_20191113_SDR_2K_AVC.mp4	0.0	175.6806938648224	2.508303165435791
37	109.42417120933533	fix_post	2		12.0	35.0	2.5	/experiments/knapen_aot/videos/R_S_CR_A009_C007_SDR_20191113_SDR_2K_AVC.mp4	0.0	178.18899703025818	0.09994888305664062
38	109.52412009239197	fix_pre	0		11.0	36.0	2.5	/experiments/knapen_aot/videos/R_S_yt-Q9fI2ar05IE_77.mp4	0.0	178.28894591331482	0.09167695045471191
38	109.60774302482605	response	0	2		36.0	2.5	/experiments/knapen_aot/videos/R_S_yt-Q9fI2ar05IE_77.mp4	0.0	178.3725688457489	
38	109.61579704284668	movie	1		301.0	36.0	2.5	/experiments/knapen_aot/videos/R_S_yt-Q9fI2ar05IE_77.mp4	0.0	178.38062286376953	2.508296012878418
38	112.1240930557251	fix_post	2		12.0	36.0	2.5	/experiments/knapen_aot/videos/R_S_yt-Q9fI2ar05IE_77.mp4	0.0	180.88891887664795	0.10003209114074707
39	112.22412514686584	fix_pre	0		36.0	37.0	2.5	/experiments/knapen_aot/videos/S_comp_A351_C001_v06_SDR_PS_20180725_SDR_2K_AVC.mp4	0.0	180.9889509677887	0.3000490665435791
39	112.51594805717468	response	0	2		37.0	2.5	/experiments/knapen_aot/videos/S_comp_A351_C001_v06_SDR_PS_20180725_SDR_2K_AVC.mp4	0.0	181.28077387809753	
39	112.52417421340942	movie	1		164.0	37.0	2.5	/experiments/knapen_aot/videos/S_comp_A351_C001_v06_SDR_PS_20180725_SDR_2K_AVC.mp4	0.0	181.28900003433228	2.508225917816162
39	115.03240013122559	fix_post	2		12.0	37.0	2.5	/experiments/knapen_aot/videos/S_comp_A351_C001_v06_SDR_PS_20180725_SDR_2K_AVC.mp4	0.0	183.79722595214844	0.09996700286865234
40	115.13236713409424	fix_pre	0		16.0	38.0	2.5	/experiments/knapen_aot/videos/R_S_video_copy.mp4	0.0	183.8971929550171	0.13415288925170898
40	115.25750923156738	response	0	2		38.0	2.5	/experiments/knapen_aot/videos/R_S_video_copy.mp4	0.0	184.02233505249023	
40	115.26652002334595	movie	1		170.0	38.0	2.5	/experiments/knapen_aot/videos/R_S_video_copy.mp4	0.0	184.0313458442688	2.5075180530548096
40	117.77403807640076	fix_post	2		12.0	38.0	2.5	/experiments/knapen_aot/videos/R_S_video_copy.mp4	0.0	186.5388638973236	0.10001611709594727
41	117.8740541934967	fix_pre	0		13.0	39.0	2.5	/experiments/knapen_aot/videos/S_b2-4.mp4	0.0	186.63888001441956	0.10832500457763672
41	117.9742522239685	response	0	2		39.0	2.5	/experiments/knapen_aot/videos/S_b2-4.mp4	0.0	186.73907804489136	
41	117.98237919807434	movie	1		168.0	39.0	2.5	/experiments/knapen_aot/videos/S_b2-4.mp4	0.0	186.7472050189972	2.5083658695220947
41	120.49074506759644	fix_post	2		12.0	39.0	2.5	/experiments/knapen_aot/videos/S_b2-4.mp4	0.0	189.2555708885193	0.0999610424041748
42	120.59070611000061	fix_pre	0		10.0	40.0	2.5	blank	1.0	189.35553193092346	0.08334994316101074
42	120.66589403152466	response	0	2		40.0	2.5	blank	1.0	189.4307198524475	
42	120.67405605316162	movie	1		301.0	40.0	2.5	blank	1.0	189.43888187408447	2.508219003677368
42	123.18227505683899	fix_post	2		12.0	40.0	2.5	blank	1.0	191.94710087776184	0.1001131534576416
43	123.28238821029663	fix_pre	0		28.0	41.0	2.5	/experiments/knapen_aot/videos/R_S_Y003_C009_SDR_2K_AVC.mp4	0.0	192.04721403121948	0.23398590087890625
43	123.49994111061096	response	0	2		41.0	2.5	/experiments/knapen_aot/videos/R_S_Y003_C009_SDR_2K_AVC.mp4	0.0	192.2647669315338	
43	123.51637411117554	movie	1		175.0	41.0	2.5	/experiments/knapen_aot/videos/R_S_Y003_C009_SDR_2K_AVC.mp4	0.0	192.2811999320984	2.507646083831787
43	126.02402019500732	fix_post	2		12.0	41.0	2.5	/experiments/knapen_aot/videos/R_S_Y003_C009_SDR_2K_AVC.mp4	0.0	194.78884601593018	0.10005998611450195
43	126.03249502182007	response	2	2		41.0	2.5	/experiments/knapen_aot/videos/R_S_Y003_C009_SDR_2K_AVC.mp4	0.0	194.79732084274292	
44	126.12408018112183	fix_pre	0		36.0	42.0	2.5	/experiments/knapen_aot/videos/R_S_pexels-cottonbro-10640532.mp4	0.0	194.88890600204468	0.29990696907043457
44	126.41574311256409	response	0	2		42.0	2.5	/experiments/knapen_aot/videos/R_S_pexels-cottonbro-10640532.mp4	0.0	195.18056893348694	
44	126.42398715019226	movie	1		210.0	42.0	2.5	/experiments/knapen_aot/videos/R_S_pexels-cottonbro-10640532.mp4	0.0	195.1888129711151	2.5083580017089844
44	128.93234515190125	fix_post	2		12.0	42.0	2.5	/experiments/knapen_aot/videos/R_S_pexels-cottonbro-10640532.mp4	0.0	197.6971709728241	0.09998607635498047
45	129.03233122825623	fix_pre	0		10.0	43.0	2.5	/experiments/knapen_aot/videos/R_S_comp_DB_D001_C001_PSNK_v06_SDR_PS_20180824_SDR_2K_AVC.mp4	0.0	197.79715704917908	0.08331990242004395
45	129.1074721813202	response	0	2		43.0	2.5	/experiments/knapen_aot/videos/R_S_comp_DB_D001_C001_PSNK_v06_SDR_PS_20180824_SDR_2K_AVC.mp4	0.0	197.87229800224304	
45	129.11565113067627	movie	1		172.0	43.0	2.5	/experiments/knapen_aot/videos/R_S_comp_DB_D001_C001_PSNK_v06_SDR_PS_20180824_SDR_2K_AVC.mp4	0.0	197.88047695159912	2.5083529949188232
45	131.6240041255951	fix_post	2		12.0	43.0	2.5	/experiments/knapen_aot/videos/R_S_comp_DB_D001_C001_PSNK_v06_SDR_PS_20180824_SDR_2K_AVC.mp4	0.0	200.38882994651794	0.10004091262817383
46	131.72404503822327	fix_pre	0		6.0	44.0	2.5	/experiments/knapen_aot/videos/R_S_yt-TNtO8RPd3iE_25.mp4	0.0	200.48887085914612	0.049990177154541016
46	131.76571416854858	response	0	2		44.0	2.5	/experiments/knapen_aot/videos/R_S_yt-TNtO8RPd3iE_25.mp4	0.0	200.53053998947144	
46	131.7740352153778	movie	1		301.0	44.0	2.5	/experiments/knapen_aot/videos/R_S_yt-TNtO8RPd3iE_25.mp4	0.0	200.53886103630066	2.5082859992980957
46	134.2823212146759	fix_post	2		12.0	44.0	2.5	/experiments/knapen_aot/videos/R_S_yt-TNtO8RPd3iE_25.mp4	0.0	203.04714703559875	0.09997701644897461
47	134.38229823112488	fix_pre	0		6.0	45.0	2.5	/experiments/knapen_aot/videos/R_S_production_ID_4787635.mp4	0.0	203.14712405204773	0.05067777633666992
47	134.41728615760803	response	0	2		45.0	2.5	/experiments/knapen_aot/videos/R_S_production_ID_4787635.mp4	0.0	203.18211197853088	
47	134.43297600746155	movie	1		165.0	45.0	2.5	/experiments/knapen_aot/videos/R_S_production_ID_4787635.mp4	0.0	203.1978018283844	2.5076351165771484
47	136.9406111240387	fix_post	2		12.0	45.0	2.5	/experiments/knapen_aot/videos/R_S_production_ID_4787635.mp4	0.0	205.70543694496155	0.09998703002929688
48	137.040598154068	fix_pre	0		12.0	46.0	2.5	/experiments/knapen_aot/videos/R_S_yt-FbCVXEJicis_5.mp4	0.0	205.80542397499084	0.10067486763000488
48	137.13245916366577	response	0	2		46.0	2.5	/experiments/knapen_aot/videos/R_S_yt-FbCVXEJicis_5.mp4	0.0	205.89728498458862	
48	137.141273021698	movie	1		301.0	46.0	2.5	/experiments/knapen_aot/videos/R_S_yt-FbCVXEJicis_5.mp4	0.0	205.90609884262085	2.507730007171631
48	139.64900302886963	fix_post	2		12.0	46.0	2.5	/experiments/knapen_aot/videos/R_S_yt-FbCVXEJicis_5.mp4	0.0	208.41382884979248	0.1000821590423584
49	139.749085187912	fix_pre	0		8.0	47.0	2.5	blank	1.0	208.51391100883484	0.06660795211791992
49	139.80738306045532	response	0	2		47.0	2.5	blank	1.0	208.57220888137817	
49	139.8156931400299	movie	1		301.0	47.0	2.5	blank	1.0	208.58051896095276	2.508305072784424
49	142.32399821281433	fix_post	2		12.0	47.0	2.5	blank	1.0	211.08882403373718	0.09990191459655762
50	142.4239001274109	fix_pre	0		53.0	48.0	2.5	/experiments/knapen_aot/videos/S_yt-fP2JRJAFGZ4_25.mp4	0.0	211.18872594833374	0.4416849613189697
50	142.8574140071869	response	0	2		48.0	2.5	/experiments/knapen_aot/videos/S_yt-fP2JRJAFGZ4_25.mp4	0.0	211.62223982810974	
50	142.86558508872986	movie	1		301.0	48.0	2.5	/experiments/knapen_aot/videos/S_yt-fP2JRJAFGZ4_25.mp4	0.0	211.6304109096527	2.5082831382751465
50	145.373868227005	fix_post	2		12.0	48.0	2.5	/experiments/knapen_aot/videos/S_yt-fP2JRJAFGZ4_25.mp4	0.0	214.13869404792786	0.10068583488464355
51	145.47455406188965	fix_pre	0		7.0	49.0	2.5	/experiments/knapen_aot/videos/R_S_pexels-anastasia-shuraeva-6014070.mp4	0.0	214.2393798828125	0.05771994590759277
51	145.52411723136902	response	0	2		49.0	2.5	/experiments/knapen_aot/videos/R_S_pexels-anastasia-shuraeva-6014070.mp4	0.0	214.28894305229187	
51	145.53227400779724	movie	1		195.0	49.0	2.5	/experiments/knapen_aot/videos/R_S_pexels-anastasia-shuraeva-6014070.mp4	0.0	214.2970998287201	2.508347988128662
51	148.0406219959259	fix_post	2		12.0	49.0	2.5	/experiments/knapen_aot/videos/R_S_pexels-anastasia-shuraeva-6014070.mp4	0.0	216.80544781684875	0.10055923461914062
52	148.14118123054504	fix_pre	0		11.0	50.0	2.5	/experiments/knapen_aot/videos/S_ILSVRC2015_train_00545000.mp4	0.0	216.9060070514679	0.09107780456542969
52	148.22405910491943	response	0	2		50.0	2.5	/experiments/knapen_aot/videos/S_ILSVRC2015_train_00545000.mp4	0.0	216.98888492584229	
52	148.23225903511047	movie	1		301.0	50.0	2.5	/experiments/knapen_aot/videos/S_ILSVRC2015_train_00545000.mp4	0.0	216.99708485603333	2.5083811283111572
52	150.74064016342163	fix_post	2		12.0	50.0	2.5	/experiments/knapen_aot/videos/S_ILSVRC2015_train_00545000.mp4	0.0	219.50546598434448	0.09995388984680176
53	150.84059405326843	fix_pre	0		16.0	51.0	2.5	/experiments/knapen_aot/videos/S_yt-NuZy8Rjk4d0_156.mp4	0.0	219.60541987419128	0.13388800621032715
53	150.96565222740173	response	0	2		51.0	2.5	/experiments/knapen_aot/videos/S_yt-NuZy8Rjk4d0_156.mp4	0.0	219.73047804832458	
53	150.97448205947876	movie	1		301.0	51.0	2.5	/experiments/knapen_aot/videos/S_yt-NuZy8Rjk4d0_156.mp4	0.0	219.7393078804016	2.507755994796753
53	153.4822380542755	fix_post	2		12.0	51.0	2.5	/experiments/knapen_aot/videos/S_yt-NuZy8Rjk4d0_156.mp4	0.0	222.24706387519836	0.10003900527954102
54	153.58227705955505	fix_pre	0		23.0	52.0	2.5	/experiments/knapen_aot/videos/S_yt-FbCVXEJicis_5.mp4	0.0	222.3471028804779	0.19165897369384766
54	153.75816202163696	response	0	2		52.0	2.5	/experiments/knapen_aot/videos/S_yt-FbCVXEJicis_5.mp4	0.0	222.52298784255981	
54	153.7739360332489	movie	1		301.0	52.0	2.5	/experiments/knapen_aot/videos/S_yt-FbCVXEJicis_5.mp4	0.0	222.53876185417175	2.50823712348938
54	156.28217315673828	fix_post	2		12.0	52.0	2.5	/experiments/knapen_aot/videos/S_yt-FbCVXEJicis_5.mp4	0.0	225.04699897766113	0.10007095336914062
55	156.38224411010742	fix_pre	0		20.0	53.0	2.5	/experiments/knapen_aot/videos/S_yt-jzDaQD-g168_103.mp4	0.0	225.14706993103027	0.1666419506072998
55	156.54073119163513	response	0	2		53.0	2.5	/experiments/knapen_aot/videos/S_yt-jzDaQD-g168_103.mp4	0.0	225.30555701255798	
55	156.54888606071472	movie	1		301.0	53.0	2.5	/experiments/knapen_aot/videos/S_yt-jzDaQD-g168_103.mp4	0.0	225.31371188163757	2.5083401203155518
55	159.05722618103027	fix_post	2		12.0	53.0	2.5	/experiments/knapen_aot/videos/S_yt-jzDaQD-g168_103.mp4	0.0	227.82205200195312	0.09997081756591797
56	159.1571969985962	fix_pre	0		15.0	54.0	2.5	/experiments/knapen_aot/videos/R_S_yt-2dRSJcaJIXw_32.mp4	0.0	227.92202281951904	0.12503600120544434
56	159.27394104003906	response	0	2		54.0	2.5	/experiments/knapen_aot/videos/R_S_yt-2dRSJcaJIXw_32.mp4	0.0	228.0387668609619	
56	159.28223299980164	movie	1		301.0	54.0	2.5	/experiments/knapen_aot/videos/R_S_yt-2dRSJcaJIXw_32.mp4	0.0	228.0470588207245	2.5082991123199463
56	161.79053211212158	fix_post	2		12.0	54.0	2.5	/experiments/knapen_aot/videos/R_S_yt-2dRSJcaJIXw_32.mp4	0.0	230.55535793304443	0.1000208854675293
57	161.8905529975891	fix_pre	0		19.0	55.0	2.5	blank	1.0	230.65537881851196	0.15831708908081055
57	162.04069113731384	response	0	2		55.0	2.5	blank	1.0	230.8055169582367	
57	162.04887008666992	movie	1		301.0	55.0	2.5	blank	1.0	230.81369590759277	2.5083439350128174
57	164.55721402168274	fix_post	2		12.0	55.0	2.5	blank	1.0	233.3220398426056	0.1000211238861084
58	164.65723514556885	fix_pre	0		23.0	56.0	2.5	/experiments/knapen_aot/videos/S_pexels-anastasia-shuraeva-6014070.mp4	0.0	233.4220609664917	0.1921250820159912
58	164.84063410758972	response	0	2		56.0	2.5	/experiments/knapen_aot/videos/S_pexels-anastasia-shuraeva-6014070.mp4	0.0	233.60545992851257	
58	164.84936022758484	movie	1		197.0	56.0	2.5	/experiments/knapen_aot/videos/S_pexels-anastasia-shuraeva-6014070.mp4	0.0	233.6141860485077	2.5077908039093018
58	167.35715103149414	fix_post	2		12.0	56.0	2.5	/experiments/knapen_aot/videos/S_pexels-anastasia-shuraeva-6014070.mp4	0.0	236.121976852417	0.09997200965881348
58	167.42409110069275	response	2	2		56.0	2.5	/experiments/knapen_aot/videos/S_pexels-anastasia-shuraeva-6014070.mp4	0.0	236.1889169216156	
59	167.45712304115295	fix_pre	0		41.0	57.0	2.5	/experiments/knapen_aot/videos/S_-IkGMlLHrOI_108.mp4	0.0	236.2219488620758	0.34171009063720703
59	167.7905831336975	response	0	2		57.0	2.5	/experiments/knapen_aot/videos/S_-IkGMlLHrOI_108.mp4	0.0	236.55540895462036	
59	167.79883313179016	movie	1		301.0	57.0	2.5	/experiments/knapen_aot/videos/S_-IkGMlLHrOI_108.mp4	0.0	236.563658952713	2.5084049701690674
59	170.30723810195923	fix_post	2		12.0	57.0	2.5	/experiments/knapen_aot/videos/S_-IkGMlLHrOI_108.mp4	0.0	239.07206392288208	0.09995508193969727
60	170.40719318389893	fix_pre	0		18.0	58.0	2.5	/experiments/knapen_aot/videos/S_yt-QFGyhhr1KSQ_9.mp4	0.0	239.17201900482178	0.1504209041595459
60	170.54904103279114	response	0	2		58.0	2.5	/experiments/knapen_aot/videos/S_yt-QFGyhhr1KSQ_9.mp4	0.0	239.313866853714	
60	170.55761408805847	movie	1		301.0	58.0	2.5	/experiments/knapen_aot/videos/S_yt-QFGyhhr1KSQ_9.mp4	0.0	239.32243990898132	2.5078771114349365
60	173.0654911994934	fix_post	2		12.0	58.0	2.5	/experiments/knapen_aot/videos/S_yt-QFGyhhr1KSQ_9.mp4	0.0	241.83031702041626	0.10018587112426758
61	173.16567707061768	fix_pre	0		19.0	59.0	2.5	/experiments/knapen_aot/videos/R_S_yt-Ul81y6R9YbE_12.mp4	0.0	241.93050289154053	0.15813899040222168
61	173.31563019752502	response	0	2		59.0	2.5	/experiments/knapen_aot/videos/R_S_yt-Ul81y6R9YbE_12.mp4	0.0	242.08045601844788	
61	173.3238160610199	movie	1		301.0	59.0	2.5	/experiments/knapen_aot/videos/R_S_yt-Ul81y6R9YbE_12.mp4	0.0	242.08864188194275	2.508352041244507
61	175.8321681022644	fix_post	2		12.0	59.0	2.5	/experiments/knapen_aot/videos/R_S_yt-Ul81y6R9YbE_12.mp4	0.0	244.59699392318726	0.1004800796508789
62	175.93264818191528	fix_pre	0		8.0	60.0	2.5	/experiments/knapen_aot/videos/S_yt-6xXEMHBQ08A_28.mp4	0.0	244.69747400283813	0.06621289253234863
62	175.9905891418457	response	0	2		60.0	2.5	/experiments/knapen_aot/videos/S_yt-6xXEMHBQ08A_28.mp4	0.0	244.75541496276855	
62	175.99886107444763	movie	1		300.0	60.0	2.5	/experiments/knapen_aot/videos/S_yt-6xXEMHBQ08A_28.mp4	0.0	244.76368689537048	2.508270025253296
62	178.50713109970093	fix_post	2		12.0	60.0	2.5	/experiments/knapen_aot/videos/S_yt-6xXEMHBQ08A_28.mp4	0.0	247.27195692062378	0.10002803802490234
63	178.60715913772583	fix_pre	0		18.0	61.0	2.5	/experiments/knapen_aot/videos/S_yt-y-boY803u9A_12.mp4	0.0	247.37198495864868	0.1499309539794922
63	178.74903917312622	response	0	2		61.0	2.5	/experiments/knapen_aot/videos/S_yt-y-boY803u9A_12.mp4	0.0	247.51386499404907	
63	178.75709009170532	movie	1		301.0	61.0	2.5	/experiments/knapen_aot/videos/S_yt-y-boY803u9A_12.mp4	0.0	247.52191591262817	2.50832200050354
63	181.26541209220886	fix_post	2		12.0	61.0	2.5	/experiments/knapen_aot/videos/S_yt-y-boY803u9A_12.mp4	0.0	250.0302379131317	0.1000359058380127
64	181.36544799804688	fix_pre	0		9.0	62.0	2.5	blank	1.0	250.13027381896973	0.07498002052307129
64	181.43224215507507	response	0	2		62.0	2.5	blank	1.0	250.19706797599792	
64	181.44042801856995	movie	1		301.0	62.0	2.5	blank	1.0	250.2052538394928	2.5083460807800293
64	183.85724115371704	response	1	2		62.0	2.5	blank	1.0	252.6220669746399	
64	183.94877409934998	fix_post	2		12.0	62.0	2.5	blank	1.0	252.71359992027283	0.10003089904785156
65	184.04880499839783	fix_pre	0		4.0	63.0	2.5	/experiments/knapen_aot/videos/S_yt-Dwgpjoikt84_122.mp4	0.0	252.81363081932068	0.033335208892822266
65	184.0738000869751	response	0	2		63.0	2.5	/experiments/knapen_aot/videos/S_yt-Dwgpjoikt84_122.mp4	0.0	252.83862590789795	
65	184.08214020729065	movie	1		300.0	63.0	2.5	/experiments/knapen_aot/videos/S_yt-Dwgpjoikt84_122.mp4	0.0	252.8469660282135	2.5083038806915283
65	186.59044408798218	fix_post	2		12.0	63.0	2.5	/experiments/knapen_aot/videos/S_yt-Dwgpjoikt84_122.mp4	0.0	255.35526990890503	0.09995412826538086
66	186.69039821624756	fix_pre	0		7.0	64.0	2.5	/experiments/knapen_aot/videos/S_yt-Kwfwhd07dVo_2.mp4	0.0	255.4552240371704	0.05836200714111328
66	186.74061918258667	response	0	2		64.0	2.5	/experiments/knapen_aot/videos/S_yt-Kwfwhd07dVo_2.mp4	0.0	255.50544500350952	
66	186.74876022338867	movie	1		301.0	64.0	2.5	/experiments/knapen_aot/videos/S_yt-Kwfwhd07dVo_2.mp4	0.0	255.51358604431152	2.508349895477295
66	189.25711011886597	fix_post	2		12.0	64.0	2.5	/experiments/knapen_aot/videos/S_yt-Kwfwhd07dVo_2.mp4	0.0	258.0219359397888	0.1000070571899414
67	189.3571171760559	fix_pre	0		23.0	65.0	2.5	/experiments/knapen_aot/videos/R_S_ILSVRC2015_train_00044004.mp4	0.0	258.12194299697876	0.1916499137878418
67	189.53298807144165	response	0	2		65.0	2.5	/experiments/knapen_aot/videos/R_S_ILSVRC2015_train_00044004.mp4	0.0	258.2978138923645	
67	189.54876708984375	movie	1		301.0	65.0	2.5	/experiments/knapen_aot/videos/R_S_ILSVRC2015_train_00044004.mp4	0.0	258.3135929107666	2.508254051208496
67	192.05702114105225	fix_post	2		12.0	65.0	2.5	/experiments/knapen_aot/videos/R_S_ILSVRC2015_train_00044004.mp4	0.0	260.8218469619751	0.10004997253417969
68	192.15707111358643	fix_pre	0		1.0	66.0	2.5	/experiments/knapen_aot/videos/R_S_ILSVRC2015_train_00545000.mp4	0.0	260.9218969345093	0.008362054824829102
68	192.14988613128662	response	0	2		66.0	2.5	/experiments/knapen_aot/videos/R_S_ILSVRC2015_train_00545000.mp4	0.0	260.9147119522095	
68	192.16543316841125	movie	1		301.0	66.0	2.5	/experiments/knapen_aot/videos/R_S_ILSVRC2015_train_00545000.mp4	0.0	260.9302589893341	2.50826096534729
68	194.67369413375854	fix_post	2		12.0	66.0	2.5	/experiments/knapen_aot/videos/R_S_ILSVRC2015_train_00545000.mp4	0.0	263.4385199546814	0.09999608993530273
69	194.77369022369385	fix_pre	0		10.0	67.0	2.5	/experiments/knapen_aot/videos/S_yt-i-1Gou9SA5U_3.mp4	0.0	263.5385160446167	0.08339500427246094
69	194.84884119033813	response	0	2		67.0	2.5	/experiments/knapen_aot/videos/S_yt-i-1Gou9SA5U_3.mp4	0.0	263.613667011261	
69	194.8570852279663	movie	1		301.0	67.0	2.5	/experiments/knapen_aot/videos/S_yt-i-1Gou9SA5U_3.mp4	0.0	263.62191104888916	2.508331775665283
69	197.3654170036316	fix_post	2		12.0	67.0	2.5	/experiments/knapen_aot/videos/S_yt-i-1Gou9SA5U_3.mp4	0.0	266.13024282455444	0.0999901294708252
70	197.46540713310242	fix_pre	0		19.0	68.0	2.5	/experiments/knapen_aot/videos/R_S_yt-rY_ra5Tb9XU_51.mp4	0.0	266.23023295402527	0.15828704833984375
70	197.61553716659546	response	0	2		68.0	2.5	/experiments/knapen_aot/videos/R_S_yt-rY_ra5Tb9XU_51.mp4	0.0	266.3803629875183	
70	197.62369418144226	movie	1		301.0	68.0	2.5	/experiments/knapen_aot/videos/R_S_yt-rY_ra5Tb9XU_51.mp4	0.0	266.3885200023651	2.5083959102630615
70	200.13209009170532	fix_post	2		12.0	68.0	2.5	/experiments/knapen_aot/videos/R_S_yt-rY_ra5Tb9XU_51.mp4	0.0	268.8969159126282	0.09997296333312988
71	200.23206305503845	fix_pre	0		19.0	69.0	2.5	/experiments/knapen_aot/videos/R_S_pexels-rodnae-productions-5617905.mp4	0.0	268.9968888759613	0.15859103202819824
71	200.37465405464172	response	0	2		69.0	2.5	/experiments/knapen_aot/videos/R_S_pexels-rodnae-productions-5617905.mp4	0.0	269.1394798755646	
71	200.39065408706665	movie	1		166.0	69.0	2.5	/experiments/knapen_aot/videos/R_S_pexels-rodnae-productions-5617905.mp4	0.0	269.1554799079895	2.508017063140869
71	202.89867115020752	fix_post	2		12.0	69.0	2.5	/experiments/knapen_aot/videos/R_S_pexels-rodnae-productions-5617905.mp4	0.0	271.66349697113037	0.09999299049377441
72	202.9986641407013	fix_pre	0		6.0	70.0	2.5	blank	1.0	271.76348996162415	0.05030989646911621
72	203.04055213928223	response	0	2		70.0	2.5	blank	1.0	271.8053779602051	
72	203.0489740371704	movie	1		301.0	70.0	2.5	blank	1.0	271.81379985809326	2.5080201625823975
72	205.49882411956787	response	1	2		70.0	2.5	blank	1.0	274.2636499404907	
72	205.5569941997528	fix_post	2		12.0	70.0	2.5	blank	1.0	274.32182002067566	0.10002589225769043
73	205.6570200920105	fix_pre	0		30.0	71.0	2.5	/experiments/knapen_aot/videos/S_video_copy.mp4	0.0	274.42184591293335	0.250028133392334
73	205.89883422851562	response	0	2		71.0	2.5	/experiments/knapen_aot/videos/S_video_copy.mp4	0.0	274.6636600494385	
73	205.90704822540283	movie	1		166.0	71.0	2.5	/experiments/knapen_aot/videos/S_video_copy.mp4	0.0	274.6718740463257	2.508340835571289
73	208.41538906097412	fix_post	2		12.0	71.0	2.5	/experiments/knapen_aot/videos/S_video_copy.mp4	0.0	277.180214881897	0.10027098655700684
74	208.51566004753113	fix_pre	0		7.0	72.0	2.5	/experiments/knapen_aot/videos/S_production_ID_4325506.mp4	0.0	277.280485868454	0.0580141544342041
74	208.5655481815338	response	0	2		72.0	2.5	/experiments/knapen_aot/videos/S_production_ID_4325506.mp4	0.0	277.33037400245667	
74	208.57367420196533	movie	1		191.0	72.0	2.5	/experiments/knapen_aot/videos/S_production_ID_4325506.mp4	0.0	277.3385000228882	2.508349895477295
74	211.08202409744263	fix_post	2		12.0	72.0	2.5	/experiments/knapen_aot/videos/S_production_ID_4325506.mp4	0.0	279.8468499183655	0.10026001930236816
75	211.182284116745	fix_pre	0		8.0	73.0	2.5	/experiments/knapen_aot/videos/S_pexels-cottonbro-6788024.mp4	0.0	279.94710993766785	0.06636691093444824
75	211.24050617218018	response	0	2		73.0	2.5	/experiments/knapen_aot/videos/S_pexels-cottonbro-6788024.mp4	0.0	280.005331993103	
75	211.24865102767944	movie	1		197.0	73.0	2.5	/experiments/knapen_aot/videos/S_pexels-cottonbro-6788024.mp4	0.0	280.0134768486023	2.508301019668579
75	213.75695204734802	fix_post	2		12.0	73.0	2.5	/experiments/knapen_aot/videos/S_pexels-cottonbro-6788024.mp4	0.0	282.5217778682709	0.09995007514953613
76	213.85690212249756	fix_pre	0		10.0	74.0	2.5	/experiments/knapen_aot/videos/S_-IkGMlLHrOI_108.mp4	0.0	282.6217279434204	0.08341503143310547
76	213.93205404281616	response	0	2		74.0	2.5	/experiments/knapen_aot/videos/S_-IkGMlLHrOI_108.mp4	0.0	282.696879863739	
76	213.94031715393066	movie	1		301.0	74.0	2.5	/experiments/knapen_aot/videos/S_-IkGMlLHrOI_108.mp4	0.0	282.7051429748535	2.508373975753784
76	216.44869112968445	fix_post	2		12.0	74.0	2.5	/experiments/knapen_aot/videos/S_-IkGMlLHrOI_108.mp4	0.0	285.2135169506073	0.0999898910522461
77	216.5486810207367	fix_pre	0		14.0	75.0	2.5	blank	1.0	285.31350684165955	0.11660218238830566
77	216.6571080684662	response	0	2		75.0	2.5	blank	1.0	285.42193388938904	
77	216.665283203125	movie	1		301.0	75.0	2.5	blank	1.0	285.43010902404785	2.5083060264587402
77	219.17358922958374	fix_post	2		12.0	75.0	2.5	blank	1.0	287.9384150505066	0.10010695457458496
78	219.27369618415833	fix_pre	0		21.0	76.0	2.5	/experiments/knapen_aot/videos/R_S_comp_DB_D002_C003_PSNK_v04_SDR_PS_20180914_SDR_2K_AVC.mp4	0.0	288.0385220050812	0.17485404014587402
78	219.44043612480164	response	0	2		76.0	2.5	/experiments/knapen_aot/videos/R_S_comp_DB_D002_C003_PSNK_v04_SDR_PS_20180914_SDR_2K_AVC.mp4	0.0	288.2052619457245	
78	219.4485502243042	movie	1		168.0	76.0	2.5	/experiments/knapen_aot/videos/R_S_comp_DB_D002_C003_PSNK_v04_SDR_PS_20180914_SDR_2K_AVC.mp4	0.0	288.21337604522705	2.5084447860717773
78	221.95699501037598	fix_post	2		12.0	76.0	2.5	/experiments/knapen_aot/videos/R_S_comp_DB_D002_C003_PSNK_v04_SDR_PS_20180914_SDR_2K_AVC.mp4	0.0	290.7218208312988	0.10018801689147949
79	222.05718302726746	fix_pre	0		7.0	77.0	2.5	/experiments/knapen_aot/videos/S_ILSVRC2015_train_00569003.mp4	0.0	290.8220088481903	0.05809617042541504
79	222.1071150302887	response	0	2		77.0	2.5	/experiments/knapen_aot/videos/S_ILSVRC2015_train_00569003.mp4	0.0	290.87194085121155	
79	222.11527919769287	movie	1		301.0	77.0	2.5	/experiments/knapen_aot/videos/S_ILSVRC2015_train_00569003.mp4	0.0	290.8801050186157	2.5082998275756836
79	224.62357902526855	fix_post	2		12.0	77.0	2.5	/experiments/knapen_aot/videos/S_ILSVRC2015_train_00569003.mp4	0.0	293.3884048461914	0.10020709037780762
80	224.72378611564636	fix_pre	0		35.0	78.0	2.5	/experiments/knapen_aot/videos/S_yt-SRcIvTQcmOk_62.mp4	0.0	293.4886119365692	0.2916550636291504
80	225.0071141719818	response	0	2		78.0	2.5	/experiments/knapen_aot/videos/S_yt-SRcIvTQcmOk_62.mp4	0.0	293.77193999290466	
80	225.0154411792755	movie	1		301.0	78.0	2.5	/experiments/knapen_aot/videos/S_yt-SRcIvTQcmOk_62.mp4	0.0	293.78026700019836	2.5081558227539062
80	227.52359700202942	fix_post	2		12.0	78.0	2.5	/experiments/knapen_aot/videos/S_yt-SRcIvTQcmOk_62.mp4	0.0	296.28842282295227	0.10004210472106934
81	227.6236391067505	fix_pre	0		20.0	79.0	2.5	/experiments/knapen_aot/videos/R_S_yt-jzDaQD-g168_103.mp4	0.0	296.38846492767334	0.1666560173034668
81	227.7820451259613	response	0	2		79.0	2.5	/experiments/knapen_aot/videos/R_S_yt-jzDaQD-g168_103.mp4	0.0	296.54687094688416	
81	227.79029512405396	movie	1		301.0	79.0	2.5	/experiments/knapen_aot/videos/R_S_yt-jzDaQD-g168_103.mp4	0.0	296.5551209449768	2.5082380771636963
81	230.29853320121765	fix_post	2		12.0	79.0	2.5	/experiments/knapen_aot/videos/R_S_yt-jzDaQD-g168_103.mp4	0.0	299.0633590221405	0.10008502006530762
82	230.39861822128296	fix_pre	0		35.0	80.0	2.5	/experiments/knapen_aot/videos/R_S_yt-YyKEeu2gLrI_158.mp4	0.0	299.1634440422058	0.2916109561920166
82	230.68205213546753	response	0	2		80.0	2.5	/experiments/knapen_aot/videos/R_S_yt-YyKEeu2gLrI_158.mp4	0.0	299.4468779563904	
82	230.69022917747498	movie	1		299.0	80.0	2.5	/experiments/knapen_aot/videos/R_S_yt-YyKEeu2gLrI_158.mp4	0.0	299.4550549983978	2.508368968963623
82	233.1985981464386	fix_post	2		12.0	80.0	2.5	/experiments/knapen_aot/videos/R_S_yt-YyKEeu2gLrI_158.mp4	0.0	301.96342396736145	0.09995198249816895
83	233.29855012893677	fix_pre	0		10.0	81.0	2.5	/experiments/knapen_aot/videos/S_yt-RO4mhuXBVrY_67.mp4	0.0	302.0633759498596	0.08334708213806152
83	233.3736641407013	response	0	2		81.0	2.5	/experiments/knapen_aot/videos/S_yt-RO4mhuXBVrY_67.mp4	0.0	302.13848996162415	
83	233.38189721107483	movie	1		301.0	81.0	2.5	/experiments/knapen_aot/videos/S_yt-RO4mhuXBVrY_67.mp4	0.0	302.1467230319977	2.5084779262542725
83	235.8903751373291	fix_post	2		12.0	81.0	2.5	/experiments/knapen_aot/videos/S_yt-RO4mhuXBVrY_67.mp4	0.0	304.65520095825195	0.09981894493103027
84	235.99019408226013	fix_pre	0		17.0	82.0	2.5	/experiments/knapen_aot/videos/S_yt-j-ifVbxZePQ_70.mp4	0.0	304.755019903183	0.14175891876220703
84	236.1236801147461	response	0	2		82.0	2.5	/experiments/knapen_aot/videos/S_yt-j-ifVbxZePQ_70.mp4	0.0	304.88850593566895	
84	236.13195300102234	movie	1		301.0	82.0	2.5	/experiments/knapen_aot/videos/S_yt-j-ifVbxZePQ_70.mp4	0.0	304.8967788219452	2.5083680152893066
84	238.64032101631165	fix_post	2		12.0	82.0	2.5	/experiments/knapen_aot/videos/S_yt-j-ifVbxZePQ_70.mp4	0.0	307.4051468372345	0.09986400604248047
85	238.74018502235413	fix_pre	0		21.0	83.0	2.5	blank	1.0	307.505010843277	0.1750490665435791
85	238.90701818466187	response	0	2		83.0	2.5	blank	1.0	307.6718440055847	
85	238.9152340888977	movie	1		301.0	83.0	2.5	blank	1.0	307.68005990982056	2.5082879066467285
85	241.42352199554443	fix_post	2		12.0	83.0	2.5	blank	1.0	310.1883478164673	0.10002517700195312
87	241.5235471725464	stim	0		168.0					310.28837299346924	1.401453971862793
87	241.6653151512146	response	0	2						310.43014097213745	
87	242.92021417617798	response	0	space						311.68503999710083	
