trial_nr	onset	event_type	phase	response	nr_frames	movie_index	movie_duration	movie_file	blank	onset_abs	duration
0	0.12504792213439941	stim	0		27.0					55.19978380203247	0.22659897804260254
0	0.3419480323791504	response	0	space						55.41668391227722	
1	0.35164690017700195	stim	0		121.0					55.42638278007507	1.0066800117492676
1	1.3180689811706543	response	0	space						56.392804861068726	
1	1.3583269119262695	stim	1		120.0					56.43306279182434	0.9999301433563232
1	1.6331350803375244	response	1	space						56.707870960235596	
1	2.1662728786468506	response	1	space						57.24100875854492	
2	2.3582570552825928	fix_pre	0		14.0	0.0	2.5	/experiments/knapen_aot/videos/R_S__6qAy77ODUI_175.mp4	0.0	57.432992935180664	0.1163640022277832
2	2.466417074203491	response	0	space		0.0	2.5	/experiments/knapen_aot/videos/R_S__6qAy77ODUI_175.mp4	0.0	57.54115295410156	
2	2.474621057510376	movie	1		301.0	0.0	2.5	/experiments/knapen_aot/videos/R_S__6qAy77ODUI_175.mp4	0.0	57.54935693740845	2.5085959434509277
2	4.983217000961304	fix_post	2		12.0	0.0	2.5	/experiments/knapen_aot/videos/R_S__6qAy77ODUI_175.mp4	0.0	60.057952880859375	0.09974098205566406
3	5.082957983016968	fix_pre	0		66.0	1.0	2.5	/experiments/knapen_aot/videos/S_yt-ZTAaH5XbtfE_3.mp4	0.0	60.15769386291504	0.5530169010162354
3	5.628084897994995	response	0	2		1.0	2.5	/experiments/knapen_aot/videos/S_yt-ZTAaH5XbtfE_3.mp4	0.0	60.702820777893066	
3	5.635974884033203	movie	1		296.0	1.0	2.5	/experiments/knapen_aot/videos/S_yt-ZTAaH5XbtfE_3.mp4	0.0	60.710710763931274	2.5052690505981445
3	8.141243934631348	fix_post	2		12.0	1.0	2.5	/experiments/knapen_aot/videos/S_yt-ZTAaH5XbtfE_3.mp4	0.0	63.21597981452942	0.10000896453857422
4	8.241252899169922	fix_pre	0		72.0	2.0	2.5	/experiments/knapen_aot/videos/R_S_production_ID_4325585.mp4	0.0	63.31598877906799	0.6000101566314697
4	8.833066940307617	response	0	2		2.0	2.5	/experiments/knapen_aot/videos/R_S_production_ID_4325585.mp4	0.0	63.90780282020569	
4	8.841263055801392	movie	1		194.0	2.0	2.5	/experiments/knapen_aot/videos/R_S_production_ID_4325585.mp4	0.0	63.91599893569946	2.5084028244018555
4	11.349665880203247	fix_post	2		12.0	2.0	2.5	/experiments/knapen_aot/videos/R_S_production_ID_4325585.mp4	0.0	66.42440176010132	0.09998202323913574
5	11.449647903442383	fix_pre	0		71.0	3.0	2.5	/experiments/knapen_aot/videos/S_yt-PCSXJ5YB_AE_3.mp4	0.0	66.52438378334045	0.5929820537567139
5	12.033125877380371	response	0	2		3.0	2.5	/experiments/knapen_aot/videos/S_yt-PCSXJ5YB_AE_3.mp4	0.0	67.10786175727844	
5	12.042629957199097	movie	1		301.0	3.0	2.5	/experiments/knapen_aot/videos/S_yt-PCSXJ5YB_AE_3.mp4	0.0	67.11736583709717	2.5070669651031494
5	14.549696922302246	fix_post	2		12.0	3.0	2.5	/experiments/knapen_aot/videos/S_yt-PCSXJ5YB_AE_3.mp4	0.0	69.62443280220032	0.10016298294067383
6	14.64985990524292	fix_pre	0		50.0	4.0	2.5	/experiments/knapen_aot/videos/S_yt-SjPYdaUBi7A_37.mp4	0.0	69.72459578514099	0.4166140556335449
6	15.058084964752197	response	0	2		4.0	2.5	/experiments/knapen_aot/videos/S_yt-SjPYdaUBi7A_37.mp4	0.0	70.13282084465027	
6	15.066473960876465	movie	1		300.0	4.0	2.5	/experiments/knapen_aot/videos/S_yt-SjPYdaUBi7A_37.mp4	0.0	70.14120984077454	2.5081300735473633
6	17.574604034423828	fix_post	2		12.0	4.0	2.5	/experiments/knapen_aot/videos/S_yt-SjPYdaUBi7A_37.mp4	0.0	72.6493399143219	0.09996700286865234
7	17.67457103729248	fix_pre	0		50.0	5.0	2.5	/experiments/knapen_aot/videos/S_yt-UPgF4YAHBQY_33.mp4	0.0	72.74930691719055	0.41658496856689453
7	18.08295702934265	response	0	2		5.0	2.5	/experiments/knapen_aot/videos/S_yt-UPgF4YAHBQY_33.mp4	0.0	73.15769290924072	
7	18.091156005859375	movie	1		301.0	5.0	2.5	/experiments/knapen_aot/videos/S_yt-UPgF4YAHBQY_33.mp4	0.0	73.16589188575745	2.5083539485931396
7	20.599509954452515	fix_post	2		12.0	5.0	2.5	/experiments/knapen_aot/videos/S_yt-UPgF4YAHBQY_33.mp4	0.0	75.67424583435059	0.1000831127166748
8	20.69959306716919	fix_pre	0		51.0	6.0	2.5	blank	1.0	75.77432894706726	0.4249379634857178
8	21.108844995498657	response	0	2		6.0	2.5	blank	1.0	76.18358087539673	
8	21.124531030654907	movie	1		301.0	6.0	2.5	blank	1.0	76.19926691055298	2.5084068775177
8	23.632937908172607	fix_post	2		12.0	6.0	2.5	blank	1.0	78.70767378807068	0.10017204284667969
9	23.733109951019287	fix_pre	0		65.0	7.0	2.5	/experiments/knapen_aot/videos/S_ILSVRC2015_train_00044004.mp4	0.0	78.80784583091736	0.5415611267089844
9	24.266273021697998	response	0	2		7.0	2.5	/experiments/knapen_aot/videos/S_ILSVRC2015_train_00044004.mp4	0.0	79.34100890159607	
9	24.27467107772827	movie	1		301.0	7.0	2.5	/experiments/knapen_aot/videos/S_ILSVRC2015_train_00044004.mp4	0.0	79.34940695762634	2.508188009262085
9	26.782859086990356	fix_post	2		12.0	7.0	2.5	/experiments/knapen_aot/videos/S_ILSVRC2015_train_00044004.mp4	0.0	81.85759496688843	0.10003876686096191
10	26.88289785385132	fix_pre	0		60.0	8.0	2.5	/experiments/knapen_aot/videos/S_yt-XtzmBXKYEWk_60.mp4	0.0	81.95763373374939	0.4999370574951172
10	27.374670028686523	response	0	2		8.0	2.5	/experiments/knapen_aot/videos/S_yt-XtzmBXKYEWk_60.mp4	0.0	82.4494059085846	
10	27.382834911346436	movie	1		301.0	8.0	2.5	/experiments/knapen_aot/videos/S_yt-XtzmBXKYEWk_60.mp4	0.0	82.4575707912445	2.508263111114502
10	29.891098022460938	fix_post	2		12.0	8.0	2.5	/experiments/knapen_aot/videos/S_yt-XtzmBXKYEWk_60.mp4	0.0	84.96583390235901	0.1001129150390625
11	29.9912109375	fix_pre	0		62.0	9.0	2.5	/experiments/knapen_aot/videos/S_Pexels_Videos_2786546.mp4	0.0	85.06594681739807	0.5166110992431641
11	30.49972701072693	response	0	2		9.0	2.5	/experiments/knapen_aot/videos/S_Pexels_Videos_2786546.mp4	0.0	85.574462890625	
11	30.507822036743164	movie	1		164.0	9.0	2.5	/experiments/knapen_aot/videos/S_Pexels_Videos_2786546.mp4	0.0	85.58255791664124	2.508370876312256
11	33.01619291305542	fix_post	2		12.0	9.0	2.5	/experiments/knapen_aot/videos/S_Pexels_Videos_2786546.mp4	0.0	88.09092879295349	0.09993195533752441
12	33.116124868392944	fix_pre	0		77.0	10.0	2.5	/experiments/knapen_aot/videos/R_S_yt-LB9LoYfH_EA_15.mp4	0.0	88.19086074829102	0.6416850090026855
12	33.749638080596924	response	0	2		10.0	2.5	/experiments/knapen_aot/videos/R_S_yt-LB9LoYfH_EA_15.mp4	0.0	88.824373960495	
12	33.75780987739563	movie	1		301.0	10.0	2.5	/experiments/knapen_aot/videos/R_S_yt-LB9LoYfH_EA_15.mp4	0.0	88.8325457572937	2.5083131790161133
12	36.26612305641174	fix_post	2		12.0	10.0	2.5	/experiments/knapen_aot/videos/R_S_yt-LB9LoYfH_EA_15.mp4	0.0	91.34085893630981	0.1000368595123291
13	36.36615991592407	fix_pre	0		56.0	11.0	2.5	/experiments/knapen_aot/videos/R_S_yt-6MwA-jx56AQ_612.mp4	0.0	91.44089579582214	0.4666740894317627
13	36.81711006164551	response	0	2		11.0	2.5	/experiments/knapen_aot/videos/R_S_yt-6MwA-jx56AQ_612.mp4	0.0	91.89184594154358	
13	36.832834005355835	movie	1		301.0	11.0	2.5	/experiments/knapen_aot/videos/R_S_yt-6MwA-jx56AQ_612.mp4	0.0	91.9075698852539	2.5083370208740234
13	39.34117102622986	fix_post	2		12.0	11.0	2.5	/experiments/knapen_aot/videos/R_S_yt-6MwA-jx56AQ_612.mp4	0.0	94.41590690612793	0.1001129150390625
14	39.44128394126892	fix_pre	0		82.0	12.0	2.5	blank	1.0	94.51601982116699	0.6831860542297363
14	40.11639094352722	response	0	2		12.0	2.5	blank	1.0	95.1911268234253	
14	40.12446999549866	movie	1		301.0	12.0	2.5	blank	1.0	95.19920587539673	2.50832200050354
14	42.6327919960022	fix_post	2		12.0	12.0	2.5	blank	1.0	97.70752787590027	0.10007500648498535
15	42.73286700248718	fix_pre	0		58.0	13.0	2.5	/experiments/knapen_aot/videos/R_S_video-11.mp4	0.0	97.80760288238525	0.4831960201263428
15	43.20798087120056	response	0	2		13.0	2.5	/experiments/knapen_aot/videos/R_S_video-11.mp4	0.0	98.28271675109863	
15	43.216063022613525	movie	1		165.0	13.0	2.5	/experiments/knapen_aot/videos/R_S_video-11.mp4	0.0	98.2907989025116	2.5084359645843506
15	45.724498987197876	fix_post	2		12.0	13.0	2.5	/experiments/knapen_aot/videos/R_S_video-11.mp4	0.0	100.79923486709595	0.09998893737792969
16	45.824487924575806	fix_pre	0		72.0	14.0	2.5	/experiments/knapen_aot/videos/S_yt-MyL1VlXiZa4_25.mp4	0.0	100.89922380447388	0.5999851226806641
16	46.41631603240967	response	0	2		14.0	2.5	/experiments/knapen_aot/videos/S_yt-MyL1VlXiZa4_25.mp4	0.0	101.49105191230774	
16	46.42447304725647	movie	1		300.0	14.0	2.5	/experiments/knapen_aot/videos/S_yt-MyL1VlXiZa4_25.mp4	0.0	101.49920892715454	2.5082898139953613
16	48.93276286125183	fix_post	2		12.0	14.0	2.5	/experiments/knapen_aot/videos/S_yt-MyL1VlXiZa4_25.mp4	0.0	104.0074987411499	0.10001611709594727
17	49.03277897834778	fix_pre	0		50.0	15.0	2.5	/experiments/knapen_aot/videos/R_S_yt-mQESmS4uqRU_208.mp4	0.0	104.10751485824585	0.41660189628601074
17	49.44128108024597	response	0	2		15.0	2.5	/experiments/knapen_aot/videos/R_S_yt-mQESmS4uqRU_208.mp4	0.0	104.51601696014404	
17	49.44938087463379	movie	1		301.0	15.0	2.5	/experiments/knapen_aot/videos/R_S_yt-mQESmS4uqRU_208.mp4	0.0	104.52411675453186	2.5084221363067627
17	51.95780301094055	fix_post	2		12.0	15.0	2.5	/experiments/knapen_aot/videos/R_S_yt-mQESmS4uqRU_208.mp4	0.0	107.03253889083862	0.09999299049377441
18	52.057796001434326	fix_pre	0		59.0	16.0	2.5	/experiments/knapen_aot/videos/S_yt-VxTTEZNJWjs_110.mp4	0.0	107.1325318813324	0.49154186248779297
18	52.541208028793335	response	0	2		16.0	2.5	/experiments/knapen_aot/videos/S_yt-VxTTEZNJWjs_110.mp4	0.0	107.6159439086914	
18	52.54933786392212	movie	1		301.0	16.0	2.5	/experiments/knapen_aot/videos/S_yt-VxTTEZNJWjs_110.mp4	0.0	107.62407374382019	2.5083200931549072
18	55.057657957077026	fix_post	2		12.0	16.0	2.5	/experiments/knapen_aot/videos/S_yt-VxTTEZNJWjs_110.mp4	0.0	110.1323938369751	0.1000969409942627
19	55.15775489807129	fix_pre	0		64.0	17.0	2.5	/experiments/knapen_aot/videos/S_pexels-diva-plavalaguna-6985395.mp4	0.0	110.23249077796936	0.5333480834960938
19	55.68284201622009	response	0	2		17.0	2.5	/experiments/knapen_aot/videos/S_pexels-diva-plavalaguna-6985395.mp4	0.0	110.75757789611816	
19	55.69110298156738	movie	1		182.0	17.0	2.5	/experiments/knapen_aot/videos/S_pexels-diva-plavalaguna-6985395.mp4	0.0	110.76583886146545	2.5083348751068115
19	58.199437856674194	fix_post	2		12.0	17.0	2.5	/experiments/knapen_aot/videos/S_pexels-diva-plavalaguna-6985395.mp4	0.0	113.27417373657227	0.09993219375610352
20	58.2993700504303	fix_pre	0		45.0	18.0	2.5	/experiments/knapen_aot/videos/S_production_ID_5139371.mp4	0.0	113.37410593032837	0.3749558925628662
20	58.66616892814636	response	0	2		18.0	2.5	/experiments/knapen_aot/videos/S_production_ID_5139371.mp4	0.0	113.74090480804443	
20	58.674325942993164	movie	1		162.0	18.0	2.5	/experiments/knapen_aot/videos/S_production_ID_5139371.mp4	0.0	113.74906182289124	2.508409023284912
20	61.182734966278076	fix_post	2		12.0	18.0	2.5	/experiments/knapen_aot/videos/S_production_ID_5139371.mp4	0.0	116.25747084617615	0.10005807876586914
21	61.282793045043945	fix_pre	0		101.0	19.0	2.5	/experiments/knapen_aot/videos/R_S_Y011_C008_SDR_2K_AVC.mp4	0.0	116.35752892494202	0.8416039943695068
21	62.11631393432617	response	0	2		19.0	2.5	/experiments/knapen_aot/videos/R_S_Y011_C008_SDR_2K_AVC.mp4	0.0	117.19104981422424	
21	62.12439703941345	movie	1		173.0	19.0	2.5	/experiments/knapen_aot/videos/R_S_Y011_C008_SDR_2K_AVC.mp4	0.0	117.19913291931152	2.508319854736328
21	64.63271689414978	fix_post	2		12.0	19.0	2.5	/experiments/knapen_aot/videos/R_S_Y011_C008_SDR_2K_AVC.mp4	0.0	119.70745277404785	0.10002517700195312
22	64.73274207115173	fix_pre	0		76.0	20.0	2.5	blank	1.0	119.8074779510498	0.633354902267456
22	65.35788202285767	response	0	2		20.0	2.5	blank	1.0	120.43261790275574	
22	65.36609697341919	movie	1		301.0	20.0	2.5	blank	1.0	120.44083285331726	2.5082359313964844
22	67.87433290481567	fix_post	2		12.0	20.0	2.5	blank	1.0	122.94906878471375	0.09999704360961914
23	67.9743299484253	fix_pre	0		70.0	21.0	2.5	/experiments/knapen_aot/videos/R_S_yt-D9uD7yM6bxQ_269.mp4	0.0	123.04906582832336	0.5846610069274902
23	68.54948496818542	response	0	2		21.0	2.5	/experiments/knapen_aot/videos/R_S_yt-D9uD7yM6bxQ_269.mp4	0.0	123.6242208480835	
23	68.55899095535278	movie	1		301.0	21.0	2.5	/experiments/knapen_aot/videos/R_S_yt-D9uD7yM6bxQ_269.mp4	0.0	123.63372683525085	2.5069680213928223
23	71.0659589767456	fix_post	2		12.0	21.0	2.5	/experiments/knapen_aot/videos/R_S_yt-D9uD7yM6bxQ_269.mp4	0.0	126.14069485664368	0.10005807876586914
24	71.16601705551147	fix_pre	0		85.0	22.0	2.5	/experiments/knapen_aot/videos/R_S_Pexels_Videos_2786546.mp4	0.0	126.24075293540955	0.7083399295806885
24	71.86631894111633	response	0	2		22.0	2.5	/experiments/knapen_aot/videos/R_S_Pexels_Videos_2786546.mp4	0.0	126.9410548210144	
24	71.87435698509216	movie	1		164.0	22.0	2.5	/experiments/knapen_aot/videos/R_S_Pexels_Videos_2786546.mp4	0.0	126.94909286499023	2.508312940597534
24	74.3826699256897	fix_post	2		12.0	22.0	2.5	/experiments/knapen_aot/videos/R_S_Pexels_Videos_2786546.mp4	0.0	129.45740580558777	0.10002803802490234
25	74.4826979637146	fix_pre	0		53.0	23.0	2.5	/experiments/knapen_aot/videos/S_yt-FLMdajcbjcg_35.mp4	0.0	129.55743384361267	0.4442739486694336
25	74.91609287261963	response	0	2		23.0	2.5	/experiments/knapen_aot/videos/S_yt-FLMdajcbjcg_35.mp4	0.0	129.9908287525177	
25	74.92697191238403	movie	1		299.0	23.0	2.5	/experiments/knapen_aot/videos/S_yt-FLMdajcbjcg_35.mp4	0.0	130.0017077922821	2.5057461261749268
25	77.43271803855896	fix_post	2		12.0	23.0	2.5	/experiments/knapen_aot/videos/S_yt-FLMdajcbjcg_35.mp4	0.0	132.50745391845703	0.0999908447265625
26	77.53270888328552	fix_pre	0		80.0	24.0	2.5	/experiments/knapen_aot/videos/R_S_yt-dqcUJzNOzbM_156.mp4	0.0	132.6074447631836	0.6665899753570557
26	78.19114303588867	response	0	2		24.0	2.5	/experiments/knapen_aot/videos/R_S_yt-dqcUJzNOzbM_156.mp4	0.0	133.26587891578674	
26	78.19929885864258	movie	1		301.0	24.0	2.5	/experiments/knapen_aot/videos/R_S_yt-dqcUJzNOzbM_156.mp4	0.0	133.27403473854065	2.508385181427002
26	80.70768404006958	fix_post	2		12.0	24.0	2.5	/experiments/knapen_aot/videos/R_S_yt-dqcUJzNOzbM_156.mp4	0.0	135.78241991996765	0.09998202323913574
27	80.80766606330872	fix_pre	0		81.0	25.0	2.5	/experiments/knapen_aot/videos/R_S_video-4.mp4	0.0	135.8824019432068	0.6749489307403564
27	81.47446894645691	response	0	2		25.0	2.5	/experiments/knapen_aot/videos/R_S_video-4.mp4	0.0	136.54920482635498	
27	81.48261499404907	movie	1		165.0	25.0	2.5	/experiments/knapen_aot/videos/R_S_video-4.mp4	0.0	136.55735087394714	2.5083839893341064
27	83.99099898338318	fix_post	2		12.0	25.0	2.5	/experiments/knapen_aot/videos/R_S_video-4.mp4	0.0	139.06573486328125	0.09998893737792969
28	84.09098792076111	fix_pre	0		72.0	26.0	2.5	/experiments/knapen_aot/videos/R_S_yt-1RVw8p6Dw2Q_20.mp4	0.0	139.16572380065918	0.5999250411987305
28	84.68276906013489	response	0	2		26.0	2.5	/experiments/knapen_aot/videos/R_S_yt-1RVw8p6Dw2Q_20.mp4	0.0	139.75750494003296	
28	84.69091296195984	movie	1		301.0	26.0	2.5	/experiments/knapen_aot/videos/R_S_yt-1RVw8p6Dw2Q_20.mp4	0.0	139.7656488418579	2.508315086364746
28	87.19922804832458	fix_post	2		12.0	26.0	2.5	/experiments/knapen_aot/videos/R_S_yt-1RVw8p6Dw2Q_20.mp4	0.0	142.27396392822266	0.10004782676696777
29	87.29927587509155	fix_pre	0		62.0	27.0	2.5	/experiments/knapen_aot/videos/S_yt-1RVw8p6Dw2Q_20.mp4	0.0	142.37401175498962	0.5166471004486084
29	87.8077609539032	response	0	2		27.0	2.5	/experiments/knapen_aot/videos/S_yt-1RVw8p6Dw2Q_20.mp4	0.0	142.88249683380127	
29	87.81592297554016	movie	1		301.0	27.0	2.5	/experiments/knapen_aot/videos/S_yt-1RVw8p6Dw2Q_20.mp4	0.0	142.89065885543823	2.5083940029144287
29	90.32431697845459	fix_post	2		12.0	27.0	2.5	/experiments/knapen_aot/videos/S_yt-1RVw8p6Dw2Q_20.mp4	0.0	145.39905285835266	0.10001897811889648
30	90.42433595657349	fix_pre	0		43.0	28.0	2.5	blank	1.0	145.49907183647156	0.3582499027252197
30	90.77433204650879	response	0	2		28.0	2.5	blank	1.0	145.84906792640686	
30	90.7825858592987	movie	1		301.0	28.0	2.5	blank	1.0	145.85732173919678	2.508371114730835
30	93.29095697402954	fix_post	2		12.0	28.0	2.5	blank	1.0	148.3656928539276	0.10008406639099121
31	93.39104104042053	fix_pre	0		67.0	29.0	2.5	/experiments/knapen_aot/videos/R_S_ILSVRC2015_train_00434000.mp4	0.0	148.4657769203186	0.558229923248291
31	93.9410309791565	response	0	2		29.0	2.5	/experiments/knapen_aot/videos/R_S_ILSVRC2015_train_00434000.mp4	0.0	149.01576685905457	
31	93.94927096366882	movie	1		300.0	29.0	2.5	/experiments/knapen_aot/videos/R_S_ILSVRC2015_train_00434000.mp4	0.0	149.0240068435669	2.508239984512329
31	96.45751094818115	fix_post	2		12.0	29.0	2.5	/experiments/knapen_aot/videos/R_S_ILSVRC2015_train_00434000.mp4	0.0	151.53224682807922	0.10007691383361816
32	96.55758786201477	fix_pre	0		66.0	30.0	2.5	/experiments/knapen_aot/videos/R_S_yt-ZTAaH5XbtfE_3.mp4	0.0	151.63232374191284	0.5499470233917236
32	97.09937596321106	response	0	2		30.0	2.5	/experiments/knapen_aot/videos/R_S_yt-ZTAaH5XbtfE_3.mp4	0.0	152.17411184310913	
32	97.1075348854065	movie	1		301.0	30.0	2.5	/experiments/knapen_aot/videos/R_S_yt-ZTAaH5XbtfE_3.mp4	0.0	152.18227076530457	2.5083701610565186
32	99.61590504646301	fix_post	2		12.0	30.0	2.5	/experiments/knapen_aot/videos/R_S_yt-ZTAaH5XbtfE_3.mp4	0.0	154.69064092636108	0.0999598503112793
33	99.71586489677429	fix_pre	0		65.0	31.0	2.5	/experiments/knapen_aot/videos/R_S_yt-gmFYJR5ABNs_305.mp4	0.0	154.79060077667236	0.5416550636291504
33	100.24931192398071	response	0	2		31.0	2.5	/experiments/knapen_aot/videos/R_S_yt-gmFYJR5ABNs_305.mp4	0.0	155.32404780387878	
33	100.25751996040344	movie	1		301.0	31.0	2.5	/experiments/knapen_aot/videos/R_S_yt-gmFYJR5ABNs_305.mp4	0.0	155.3322558403015	2.5083749294281006
33	102.76589488983154	fix_post	2		12.0	31.0	2.5	/experiments/knapen_aot/videos/R_S_yt-gmFYJR5ABNs_305.mp4	0.0	157.84063076972961	0.09996509552001953
34	102.86585998535156	fix_pre	0		90.0	32.0	2.5	/experiments/knapen_aot/videos/S_yt-3JApfnMu5cU_378.mp4	0.0	157.94059586524963	0.7500460147857666
34	103.6077048778534	response	0	2		32.0	2.5	/experiments/knapen_aot/videos/S_yt-3JApfnMu5cU_378.mp4	0.0	158.68244075775146	
34	103.61590600013733	movie	1		301.0	32.0	2.5	/experiments/knapen_aot/videos/S_yt-3JApfnMu5cU_378.mp4	0.0	158.6906418800354	2.5082879066467285
34	106.12419390678406	fix_post	2		12.0	32.0	2.5	/experiments/knapen_aot/videos/S_yt-3JApfnMu5cU_378.mp4	0.0	161.19892978668213	0.09996414184570312
35	106.22415804862976	fix_pre	0		84.0	33.0	2.5	blank	1.0	161.29889392852783	0.700002908706665
35	106.91599297523499	response	0	2		33.0	2.5	blank	1.0	161.99072885513306	
35	106.92416095733643	movie	1		301.0	33.0	2.5	blank	1.0	161.9988968372345	2.508384943008423
35	109.43254590034485	fix_post	2		12.0	33.0	2.5	blank	1.0	164.50728178024292	0.10004615783691406
36	109.53259205818176	fix_pre	0		54.0	34.0	2.5	/experiments/knapen_aot/videos/S_yt-JTuopUgmg1w_101.mp4	0.0	164.60732793807983	0.4499390125274658
36	109.97425889968872	response	0	2		34.0	2.5	/experiments/knapen_aot/videos/S_yt-JTuopUgmg1w_101.mp4	0.0	165.0489947795868	
36	109.98253107070923	movie	1		301.0	34.0	2.5	/experiments/knapen_aot/videos/S_yt-JTuopUgmg1w_101.mp4	0.0	165.0572669506073	2.5083398818969727
36	112.4908709526062	fix_post	2		12.0	34.0	2.5	/experiments/knapen_aot/videos/S_yt-JTuopUgmg1w_101.mp4	0.0	167.56560683250427	0.10003900527954102
37	112.59090995788574	fix_pre	0		76.0	35.0	2.5	/experiments/knapen_aot/videos/S_yt-9CY7rDYBYUI_40.mp4	0.0	167.6656458377838	0.6343200206756592
37	113.2160050868988	response	0	2		35.0	2.5	/experiments/knapen_aot/videos/S_yt-9CY7rDYBYUI_40.mp4	0.0	168.29074096679688	
37	113.2252299785614	movie	1		301.0	35.0	2.5	/experiments/knapen_aot/videos/S_yt-9CY7rDYBYUI_40.mp4	0.0	168.29996585845947	2.507261037826538
37	115.73249101638794	fix_post	2		12.0	35.0	2.5	/experiments/knapen_aot/videos/S_yt-9CY7rDYBYUI_40.mp4	0.0	170.807226896286	0.10001087188720703
38	115.83250188827515	fix_pre	0		50.0	36.0	2.5	/experiments/knapen_aot/videos/S_yt-XYULt48onn4_6.mp4	0.0	170.90723776817322	0.416640043258667
38	116.24090886116028	response	0	2		36.0	2.5	/experiments/knapen_aot/videos/S_yt-XYULt48onn4_6.mp4	0.0	171.31564474105835	
38	116.24914193153381	movie	1		300.0	36.0	2.5	/experiments/knapen_aot/videos/S_yt-XYULt48onn4_6.mp4	0.0	171.32387781143188	2.5083611011505127
38	118.75750303268433	fix_post	2		12.0	36.0	2.5	/experiments/knapen_aot/videos/S_yt-XYULt48onn4_6.mp4	0.0	173.8322389125824	0.09992003440856934
39	118.8574230670929	fix_pre	0		87.0	37.0	2.5	/experiments/knapen_aot/videos/S_3WAnGcPubBY_143.mp4	0.0	173.93215894699097	0.7250277996063232
39	119.57423686981201	response	0	2		37.0	2.5	/experiments/knapen_aot/videos/S_3WAnGcPubBY_143.mp4	0.0	174.64897274971008	
39	119.58245086669922	movie	1		301.0	37.0	2.5	/experiments/knapen_aot/videos/S_3WAnGcPubBY_143.mp4	0.0	174.6571867465973	2.5083889961242676
39	122.09083986282349	fix_post	2		12.0	37.0	2.5	/experiments/knapen_aot/videos/S_3WAnGcPubBY_143.mp4	0.0	177.16557574272156	0.099945068359375
40	122.19078493118286	fix_pre	0		59.0	38.0	2.5	/experiments/knapen_aot/videos/R_S_yt-BIDHmbneB10_998.mp4	0.0	177.26552081108093	0.4927189350128174
40	122.67431592941284	response	0	2		38.0	2.5	/experiments/knapen_aot/videos/R_S_yt-BIDHmbneB10_998.mp4	0.0	177.7490518093109	
40	122.68350386619568	movie	1		301.0	38.0	2.5	/experiments/knapen_aot/videos/R_S_yt-BIDHmbneB10_998.mp4	0.0	177.75823974609375	2.5073511600494385
40	125.19085502624512	fix_post	2		12.0	38.0	2.5	/experiments/knapen_aot/videos/R_S_yt-BIDHmbneB10_998.mp4	0.0	180.2655909061432	0.09992694854736328
41	125.29078197479248	fix_pre	0		93.0	39.0	2.5	/experiments/knapen_aot/videos/R_S_yt-5AI_SyK5sg8_112.mp4	0.0	180.36551785469055	0.7749800682067871
41	126.05015897750854	response	0	2		39.0	2.5	/experiments/knapen_aot/videos/R_S_yt-5AI_SyK5sg8_112.mp4	0.0	181.12489485740662	
41	126.06576204299927	movie	1		301.0	39.0	2.5	/experiments/knapen_aot/videos/R_S_yt-5AI_SyK5sg8_112.mp4	0.0	181.14049792289734	2.50834584236145
41	128.57410788536072	fix_post	2		12.0	39.0	2.5	/experiments/knapen_aot/videos/R_S_yt-5AI_SyK5sg8_112.mp4	0.0	183.6488437652588	0.10004806518554688
42	128.67415595054626	fix_pre	0		54.0	40.0	2.5	/experiments/knapen_aot/videos/S_ILSVRC2015_train_00371010.mp4	0.0	183.74889183044434	0.44991493225097656
42	129.11591005325317	response	0	2		40.0	2.5	/experiments/knapen_aot/videos/S_ILSVRC2015_train_00371010.mp4	0.0	184.19064593315125	
42	129.12407088279724	movie	1		301.0	40.0	2.5	/experiments/knapen_aot/videos/S_ILSVRC2015_train_00371010.mp4	0.0	184.1988067626953	2.508397102355957
42	131.6324679851532	fix_post	2		12.0	40.0	2.5	/experiments/knapen_aot/videos/S_ILSVRC2015_train_00371010.mp4	0.0	186.70720386505127	0.10012388229370117
43	131.7325918674469	fix_pre	0		74.0	41.0	2.5	/experiments/knapen_aot/videos/S_Ds4EKTLx_RI_51.mp4	0.0	186.80732774734497	0.6174671649932861
43	132.34083199501038	response	0	2		41.0	2.5	/experiments/knapen_aot/videos/S_Ds4EKTLx_RI_51.mp4	0.0	187.41556787490845	
43	132.35005903244019	movie	1		301.0	41.0	2.5	/experiments/knapen_aot/videos/S_Ds4EKTLx_RI_51.mp4	0.0	187.42479491233826	2.507434844970703
43	134.8574938774109	fix_post	2		12.0	41.0	2.5	/experiments/knapen_aot/videos/S_Ds4EKTLx_RI_51.mp4	0.0	189.93222975730896	0.09993100166320801
44	134.9574248790741	fix_pre	0		63.0	42.0	2.5	blank	1.0	190.03216075897217	0.5250051021575928
44	135.47422289848328	response	0	2		42.0	2.5	blank	1.0	190.54895877838135	
44	135.4824299812317	movie	1		301.0	42.0	2.5	blank	1.0	190.55716586112976	2.508284091949463
44	137.99071407318115	fix_post	2		12.0	42.0	2.5	blank	1.0	193.06544995307922	0.09996390342712402
45	138.09067797660828	fix_pre	0		79.0	43.0	2.5	/experiments/knapen_aot/videos/R_S_yt-9CY7rDYBYUI_40.mp4	0.0	193.16541385650635	0.658332109451294
45	138.74088597297668	response	0	2		43.0	2.5	/experiments/knapen_aot/videos/R_S_yt-9CY7rDYBYUI_40.mp4	0.0	193.81562185287476	
45	138.74901008605957	movie	1		298.0	43.0	2.5	/experiments/knapen_aot/videos/R_S_yt-9CY7rDYBYUI_40.mp4	0.0	193.82374596595764	2.508330821990967
45	141.25734090805054	fix_post	2		12.0	43.0	2.5	/experiments/knapen_aot/videos/R_S_yt-9CY7rDYBYUI_40.mp4	0.0	196.3320767879486	0.10009908676147461
46	141.357439994812	fix_pre	0		78.0	44.0	2.5	/experiments/knapen_aot/videos/R_S_yt-EBuE7GbFw7U_180.mp4	0.0	196.43217587471008	0.6498560905456543
46	141.99919891357422	response	0	2		44.0	2.5	/experiments/knapen_aot/videos/R_S_yt-EBuE7GbFw7U_180.mp4	0.0	197.0739347934723	
46	142.00729608535767	movie	1		301.0	44.0	2.5	/experiments/knapen_aot/videos/R_S_yt-EBuE7GbFw7U_180.mp4	0.0	197.08203196525574	2.508410930633545
46	144.5157070159912	fix_post	2		12.0	44.0	2.5	/experiments/knapen_aot/videos/R_S_yt-EBuE7GbFw7U_180.mp4	0.0	199.59044289588928	0.10001206398010254
47	144.6157190799713	fix_pre	0		33.0	45.0	2.5	/experiments/knapen_aot/videos/S_PA_A001_C007_SDR_20190717_SDR_2K_AVC.mp4	0.0	199.69045495986938	0.275954008102417
47	144.88252592086792	response	0	2		45.0	2.5	/experiments/knapen_aot/videos/S_PA_A001_C007_SDR_20190717_SDR_2K_AVC.mp4	0.0	199.957261800766	
47	144.89167308807373	movie	1		160.0	45.0	2.5	/experiments/knapen_aot/videos/S_PA_A001_C007_SDR_20190717_SDR_2K_AVC.mp4	0.0	199.9664089679718	2.5073559284210205
47	147.39902901649475	fix_post	2		12.0	45.0	2.5	/experiments/knapen_aot/videos/S_PA_A001_C007_SDR_20190717_SDR_2K_AVC.mp4	0.0	202.47376489639282	0.10003399848937988
48	147.49906301498413	fix_pre	0		47.0	46.0	2.5	/experiments/knapen_aot/videos/R_S_ILSVRC2015_train_00418001.mp4	0.0	202.5737988948822	0.3925609588623047
48	147.88251495361328	response	0	2		46.0	2.5	/experiments/knapen_aot/videos/R_S_ILSVRC2015_train_00418001.mp4	0.0	202.95725083351135	
48	147.89162397384644	movie	1		301.0	46.0	2.5	/experiments/knapen_aot/videos/R_S_ILSVRC2015_train_00418001.mp4	0.0	202.9663598537445	2.5074069499969482
48	150.39903092384338	fix_post	2		12.0	46.0	2.5	/experiments/knapen_aot/videos/R_S_ILSVRC2015_train_00418001.mp4	0.0	205.47376680374146	0.09999394416809082
49	150.49902486801147	fix_pre	0		67.0	47.0	2.5	/experiments/knapen_aot/videos/S_wc-16LozRfhUGea_49.mp4	0.0	205.57376074790955	0.5592269897460938
49	151.04159498214722	response	0	2		47.0	2.5	/experiments/knapen_aot/videos/S_wc-16LozRfhUGea_49.mp4	0.0	206.1163308620453	
49	151.05825185775757	movie	1		301.0	47.0	2.5	/experiments/knapen_aot/videos/S_wc-16LozRfhUGea_49.mp4	0.0	206.13298773765564	2.507369041442871
49	153.56562089920044	fix_post	2		12.0	47.0	2.5	/experiments/knapen_aot/videos/S_wc-16LozRfhUGea_49.mp4	0.0	208.6403567790985	0.09998512268066406
50	153.6656060218811	fix_pre	0		104.0	48.0	2.5	blank	1.0	208.74034190177917	0.8667218685150146
50	154.52414798736572	response	0	2		48.0	2.5	blank	1.0	209.5988838672638	
50	154.53232789039612	movie	1		301.0	48.0	2.5	blank	1.0	209.6070637702942	2.5083110332489014
50	157.04063892364502	fix_post	2		12.0	48.0	2.5	blank	1.0	212.1153748035431	0.09998512268066406
51	157.14062404632568	fix_pre	0		77.0	49.0	2.5	/experiments/knapen_aot/videos/S_production_ID_4325585.mp4	0.0	212.21535992622375	0.6417288780212402
51	157.77411198616028	response	0	2		49.0	2.5	/experiments/knapen_aot/videos/S_production_ID_4325585.mp4	0.0	212.84884786605835	
51	157.78235292434692	movie	1		204.0	49.0	2.5	/experiments/knapen_aot/videos/S_production_ID_4325585.mp4	0.0	212.857088804245	2.508341073989868
51	160.2906939983368	fix_post	2		12.0	49.0	2.5	/experiments/knapen_aot/videos/S_production_ID_4325585.mp4	0.0	215.36542987823486	0.09997701644897461
52	160.39067101478577	fix_pre	0		62.0	50.0	2.5	/experiments/knapen_aot/videos/R_S_ILSVRC2015_train_00418001.mp4	0.0	215.46540689468384	0.5165760517120361
52	160.8990728855133	response	0	2		50.0	2.5	/experiments/knapen_aot/videos/R_S_ILSVRC2015_train_00418001.mp4	0.0	215.97380876541138	
52	160.9072470664978	movie	1		299.0	50.0	2.5	/experiments/knapen_aot/videos/R_S_ILSVRC2015_train_00418001.mp4	0.0	215.98198294639587	2.508396863937378
52	163.41564393043518	fix_post	2		12.0	50.0	2.5	/experiments/knapen_aot/videos/R_S_ILSVRC2015_train_00418001.mp4	0.0	218.49037981033325	0.1000051498413086
53	163.5156490802765	fix_pre	0		55.0	51.0	2.5	/experiments/knapen_aot/videos/R_S_yt-MyL1VlXiZa4_25.mp4	0.0	218.59038496017456	0.4591219425201416
53	163.9582278728485	response	0	2		51.0	2.5	/experiments/knapen_aot/videos/R_S_yt-MyL1VlXiZa4_25.mp4	0.0	219.03296375274658	
53	163.97477102279663	movie	1		301.0	51.0	2.5	/experiments/knapen_aot/videos/R_S_yt-MyL1VlXiZa4_25.mp4	0.0	219.0495069026947	2.5074729919433594
53	166.48224401474	fix_post	2		12.0	51.0	2.5	/experiments/knapen_aot/videos/R_S_yt-MyL1VlXiZa4_25.mp4	0.0	221.55697989463806	0.10006904602050781
54	166.5823130607605	fix_pre	0		40.0	52.0	2.5	/experiments/knapen_aot/videos/S_video-11.mp4	0.0	221.65704894065857	0.3332858085632324
54	166.90741991996765	response	0	2		52.0	2.5	/experiments/knapen_aot/videos/S_video-11.mp4	0.0	221.98215579986572	
54	166.91559886932373	movie	1		164.0	52.0	2.5	/experiments/knapen_aot/videos/S_video-11.mp4	0.0	221.9903347492218	2.5083601474761963
54	169.42395901679993	fix_post	2		12.0	52.0	2.5	/experiments/knapen_aot/videos/S_video-11.mp4	0.0	224.498694896698	0.09996199607849121
55	169.52392101287842	fix_pre	0		65.0	53.0	2.5	/experiments/knapen_aot/videos/S_video_inspire_uk_london_hampstead-heath_003.1080-h264.mp4	0.0	224.5986568927765	0.5416600704193115
55	170.05737805366516	response	0	2		53.0	2.5	/experiments/knapen_aot/videos/S_video_inspire_uk_london_hampstead-heath_003.1080-h264.mp4	0.0	225.13211393356323	
55	170.06558108329773	movie	1		168.0	53.0	2.5	/experiments/knapen_aot/videos/S_video_inspire_uk_london_hampstead-heath_003.1080-h264.mp4	0.0	225.1403169631958	2.508401870727539
55	172.57398295402527	fix_post	2		12.0	53.0	2.5	/experiments/knapen_aot/videos/S_video_inspire_uk_london_hampstead-heath_003.1080-h264.mp4	0.0	227.64871883392334	0.09998893737792969
56	172.6739718914032	fix_pre	0		46.0	54.0	2.5	blank	1.0	227.74870777130127	0.3841261863708496
56	173.04908895492554	response	0	2		54.0	2.5	blank	1.0	228.1238248348236	
56	173.05809807777405	movie	1		301.0	54.0	2.5	blank	1.0	228.13283395767212	2.5075278282165527
56	175.5656259059906	fix_post	2		12.0	54.0	2.5	blank	1.0	230.64036178588867	0.09999799728393555
57	175.66562390327454	fix_pre	0		86.0	55.0	2.5	/experiments/knapen_aot/videos/R_S_yt-fCjjH_4i8Fg_115.mp4	0.0	230.7403597831726	0.7166509628295898
57	176.36659908294678	response	0	2		55.0	2.5	/experiments/knapen_aot/videos/R_S_yt-fCjjH_4i8Fg_115.mp4	0.0	231.44133496284485	
57	176.38227486610413	movie	1		300.0	55.0	2.5	/experiments/knapen_aot/videos/R_S_yt-fCjjH_4i8Fg_115.mp4	0.0	231.4570107460022	2.508319139480591
57	178.89059400558472	fix_post	2		12.0	55.0	2.5	/experiments/knapen_aot/videos/R_S_yt-fCjjH_4i8Fg_115.mp4	0.0	233.9653298854828	0.09996390342712402
58	178.99055790901184	fix_pre	0		96.0	56.0	2.5	/experiments/knapen_aot/videos/S_yt-Fm97IY0Z2LU_79.mp4	0.0	234.0652937889099	0.7999551296234131
58	179.78238105773926	response	0	2		56.0	2.5	/experiments/knapen_aot/videos/S_yt-Fm97IY0Z2LU_79.mp4	0.0	234.85711693763733	
58	179.79051303863525	movie	1		301.0	56.0	2.5	/experiments/knapen_aot/videos/S_yt-Fm97IY0Z2LU_79.mp4	0.0	234.86524891853333	2.5084049701690674
58	182.29891800880432	fix_post	2		12.0	56.0	2.5	/experiments/knapen_aot/videos/S_yt-Fm97IY0Z2LU_79.mp4	0.0	237.3736538887024	0.09999394416809082
59	182.3989119529724	fix_pre	0		65.0	57.0	2.5	/experiments/knapen_aot/videos/S_g201_TH_804_A001_8_SDR_20191031_SDR_2K_AVC.mp4	0.0	237.47364783287048	0.5416619777679443
59	182.92498397827148	response	0	2		57.0	2.5	/experiments/knapen_aot/videos/S_g201_TH_804_A001_8_SDR_20191031_SDR_2K_AVC.mp4	0.0	237.99971985816956	
59	182.94057393074036	movie	1		167.0	57.0	2.5	/experiments/knapen_aot/videos/S_g201_TH_804_A001_8_SDR_20191031_SDR_2K_AVC.mp4	0.0	238.01530981063843	2.5083250999450684
59	185.44889903068542	fix_post	2		12.0	57.0	2.5	/experiments/knapen_aot/videos/S_g201_TH_804_A001_8_SDR_20191031_SDR_2K_AVC.mp4	0.0	240.5236349105835	0.09994888305664062
60	185.54884791374207	fix_pre	0		74.0	58.0	2.5	/experiments/knapen_aot/videos/S_yt-Y3pi1bgUwIg_78.mp4	0.0	240.62358379364014	0.6166980266571045
60	186.15734696388245	response	0	2		58.0	2.5	/experiments/knapen_aot/videos/S_yt-Y3pi1bgUwIg_78.mp4	0.0	241.23208284378052	
60	186.16554594039917	movie	1		301.0	58.0	2.5	/experiments/knapen_aot/videos/S_yt-Y3pi1bgUwIg_78.mp4	0.0	241.24028182029724	2.508249044418335
60	188.6737949848175	fix_post	2		12.0	58.0	2.5	/experiments/knapen_aot/videos/S_yt-Y3pi1bgUwIg_78.mp4	0.0	243.74853086471558	0.10004305839538574
61	188.7738380432129	fix_pre	0		66.0	59.0	2.5	/experiments/knapen_aot/videos/R_S_ILSVRC2015_train_00318000.mp4	0.0	243.84857392311096	0.5499818325042725
61	189.30816197395325	response	0	2		59.0	2.5	/experiments/knapen_aot/videos/R_S_ILSVRC2015_train_00318000.mp4	0.0	244.38289785385132	
61	189.32381987571716	movie	1		301.0	59.0	2.5	/experiments/knapen_aot/videos/R_S_ILSVRC2015_train_00318000.mp4	0.0	244.39855575561523	2.5083181858062744
61	191.83213806152344	fix_post	2		12.0	59.0	2.5	/experiments/knapen_aot/videos/R_S_ILSVRC2015_train_00318000.mp4	0.0	246.9068739414215	0.10000801086425781
62	191.9321460723877	fix_pre	0		84.0	60.0	2.5	/experiments/knapen_aot/videos/S_yt-Wr5vs_0Iypw_161.mp4	0.0	247.00688195228577	0.6999568939208984
62	192.62394499778748	response	0	2		60.0	2.5	/experiments/knapen_aot/videos/S_yt-Wr5vs_0Iypw_161.mp4	0.0	247.69868087768555	
62	192.6321029663086	movie	1		301.0	60.0	2.5	/experiments/knapen_aot/videos/S_yt-Wr5vs_0Iypw_161.mp4	0.0	247.70683884620667	2.5084259510040283
62	195.14052891731262	fix_post	2		12.0	60.0	2.5	/experiments/knapen_aot/videos/S_yt-Wr5vs_0Iypw_161.mp4	0.0	250.2152647972107	0.09997296333312988
63	195.24050188064575	fix_pre	0		114.0	61.0	2.5	/experiments/knapen_aot/videos/R_S_yt-1uk2k3PnTNw_37.0.mp4	0.0	250.31523776054382	0.949958086013794
63	196.18231391906738	response	0	2		61.0	2.5	/experiments/knapen_aot/videos/R_S_yt-1uk2k3PnTNw_37.0.mp4	0.0	251.25704979896545	
63	196.19045996665955	movie	1		301.0	61.0	2.5	/experiments/knapen_aot/videos/R_S_yt-1uk2k3PnTNw_37.0.mp4	0.0	251.26519584655762	2.508371114730835
63	198.69883108139038	fix_post	2		12.0	61.0	2.5	/experiments/knapen_aot/videos/R_S_yt-1uk2k3PnTNw_37.0.mp4	0.0	253.77356696128845	0.10002279281616211
64	198.79885387420654	fix_pre	0		86.0	62.0	2.5	/experiments/knapen_aot/videos/R_S_yt-QJHe-CoK4iI_170.mp4	0.0	253.87358975410461	0.7172482013702393
64	199.5072090625763	response	0	2		62.0	2.5	/experiments/knapen_aot/videos/R_S_yt-QJHe-CoK4iI_170.mp4	0.0	254.58194494247437	
64	199.51610207557678	movie	1		301.0	62.0	2.5	/experiments/knapen_aot/videos/R_S_yt-QJHe-CoK4iI_170.mp4	0.0	254.59083795547485	2.5076818466186523
64	202.02378392219543	fix_post	2		12.0	62.0	2.5	/experiments/knapen_aot/videos/R_S_yt-QJHe-CoK4iI_170.mp4	0.0	257.0985198020935	0.09999895095825195
65	202.1237828731537	fix_pre	0		83.0	63.0	2.5	blank	1.0	257.19851875305176	0.6916370391845703
65	202.80717301368713	response	0	2		63.0	2.5	blank	1.0	257.8819088935852	
65	202.81541991233826	movie	1		301.0	63.0	2.5	blank	1.0	257.8901557922363	2.508362054824829
65	205.3237819671631	fix_post	2		12.0	63.0	2.5	blank	1.0	260.39851784706116	0.10004210472106934
66	205.42382407188416	fix_pre	0		83.0	64.0	2.5	/experiments/knapen_aot/videos/S_yt-cgwHIb9LAFc_336.mp4	0.0	260.4985599517822	0.6916279792785645
66	206.10730004310608	response	0	2		64.0	2.5	/experiments/knapen_aot/videos/S_yt-cgwHIb9LAFc_336.mp4	0.0	261.18203592300415	
66	206.11545205116272	movie	1		301.0	64.0	2.5	/experiments/knapen_aot/videos/S_yt-cgwHIb9LAFc_336.mp4	0.0	261.1901879310608	2.5083258152008057
66	208.62377786636353	fix_post	2		12.0	64.0	2.5	/experiments/knapen_aot/videos/S_yt-cgwHIb9LAFc_336.mp4	0.0	263.6985137462616	0.10056114196777344
67	208.7243390083313	fix_pre	0		72.0	65.0	2.5	/experiments/knapen_aot/videos/S_production_ID_4510622.mp4	0.0	263.79907488822937	0.5994009971618652
67	209.31555485725403	response	0	2		65.0	2.5	/experiments/knapen_aot/videos/S_production_ID_4510622.mp4	0.0	264.3902907371521	
67	209.32374000549316	movie	1		168.0	65.0	2.5	/experiments/knapen_aot/videos/S_production_ID_4510622.mp4	0.0	264.39847588539124	2.5083749294281006
67	211.83211493492126	fix_post	2		12.0	65.0	2.5	/experiments/knapen_aot/videos/S_production_ID_4510622.mp4	0.0	266.90685081481934	0.099945068359375
68	211.93206000328064	fix_pre	0		54.0	66.0	2.5	/experiments/knapen_aot/videos/R_S_yt-XF0fyyFEgWo_280.mp4	0.0	267.0067958831787	0.4499979019165039
68	212.37390208244324	response	0	2		66.0	2.5	/experiments/knapen_aot/videos/R_S_yt-XF0fyyFEgWo_280.mp4	0.0	267.4486379623413	
68	212.38205790519714	movie	1		301.0	66.0	2.5	/experiments/knapen_aot/videos/R_S_yt-XF0fyyFEgWo_280.mp4	0.0	267.4567937850952	2.508404016494751
68	214.8904619216919	fix_post	2		12.0	66.0	2.5	/experiments/knapen_aot/videos/R_S_yt-XF0fyyFEgWo_280.mp4	0.0	269.96519780158997	0.09996604919433594
69	214.99042797088623	fix_pre	0		70.0	67.0	2.5	/experiments/knapen_aot/videos/S_yt-dWF89kq2JIA_13.mp4	0.0	270.0651638507843	0.5833370685577393
69	215.5655539035797	response	0	2		67.0	2.5	/experiments/knapen_aot/videos/S_yt-dWF89kq2JIA_13.mp4	0.0	270.6402897834778	
69	215.57376503944397	movie	1		301.0	67.0	2.5	/experiments/knapen_aot/videos/S_yt-dWF89kq2JIA_13.mp4	0.0	270.64850091934204	2.5083229541778564
69	218.08208799362183	fix_post	2		12.0	67.0	2.5	/experiments/knapen_aot/videos/S_yt-dWF89kq2JIA_13.mp4	0.0	273.1568238735199	0.09998297691345215
70	218.18207097053528	fix_pre	0		85.0	68.0	2.5	blank	1.0	273.25680685043335	0.7089910507202148
70	218.8822100162506	response	0	2		68.0	2.5	blank	1.0	273.9569458961487	
70	218.8910620212555	movie	1		301.0	68.0	2.5	blank	1.0	273.96579790115356	2.5076818466186523
70	221.39874386787415	fix_post	2		12.0	68.0	2.5	blank	1.0	276.4734797477722	0.09995007514953613
71	221.49869394302368	fix_pre	0		69.0	69.0	2.5	/experiments/knapen_aot/videos/R_S_yt--cAfxH1WnPo_3.mp4	0.0	276.57342982292175	0.5750060081481934
71	222.06538891792297	response	0	2		69.0	2.5	/experiments/knapen_aot/videos/R_S_yt--cAfxH1WnPo_3.mp4	0.0	277.14012479782104	
71	222.07369995117188	movie	1		301.0	69.0	2.5	/experiments/knapen_aot/videos/R_S_yt--cAfxH1WnPo_3.mp4	0.0	277.14843583106995	2.5083529949188232
71	224.5820529460907	fix_post	2		12.0	69.0	2.5	/experiments/knapen_aot/videos/R_S_yt--cAfxH1WnPo_3.mp4	0.0	279.65678882598877	0.10050606727600098
72	224.6825590133667	fix_pre	0		52.0	70.0	2.5	/experiments/knapen_aot/videos/R_S_yt-XY1n_Oze1kQ_9.mp4	0.0	279.75729489326477	0.4327719211578369
72	225.10715198516846	response	0	2		70.0	2.5	/experiments/knapen_aot/videos/R_S_yt-XY1n_Oze1kQ_9.mp4	0.0	280.1818878650665	
72	225.11533093452454	movie	1		300.0	70.0	2.5	/experiments/knapen_aot/videos/R_S_yt-XY1n_Oze1kQ_9.mp4	0.0	280.1900668144226	2.5083329677581787
72	227.62366390228271	fix_post	2		12.0	70.0	2.5	/experiments/knapen_aot/videos/R_S_yt-XY1n_Oze1kQ_9.mp4	0.0	282.6983997821808	0.09998917579650879
73	227.72365307807922	fix_pre	0		67.0	71.0	2.5	/experiments/knapen_aot/videos/R_S_yt-3JApfnMu5cU_378.mp4	0.0	282.7983889579773	0.558337926864624
73	228.27383303642273	response	0	2		71.0	2.5	/experiments/knapen_aot/videos/R_S_yt-3JApfnMu5cU_378.mp4	0.0	283.3485689163208	
73	228.28199100494385	movie	1		301.0	71.0	2.5	/experiments/knapen_aot/videos/R_S_yt-3JApfnMu5cU_378.mp4	0.0	283.3567268848419	2.5083699226379395
73	230.7903609275818	fix_post	2		12.0	71.0	2.5	/experiments/knapen_aot/videos/R_S_yt-3JApfnMu5cU_378.mp4	0.0	285.86509680747986	0.10003900527954102
74	230.89039993286133	fix_pre	0		73.0	72.0	2.5	/experiments/knapen_aot/videos/S_yt-UPgF4YAHBQY_33.mp4	0.0	285.9651358127594	0.6082110404968262
74	231.49049496650696	response	0	2		72.0	2.5	/experiments/knapen_aot/videos/S_yt-UPgF4YAHBQY_33.mp4	0.0	286.56523084640503	
74	231.49861097335815	movie	1		301.0	72.0	2.5	/experiments/knapen_aot/videos/S_yt-UPgF4YAHBQY_33.mp4	0.0	286.5733468532562	2.50848388671875
74	234.0070948600769	fix_post	2		12.0	72.0	2.5	/experiments/knapen_aot/videos/S_yt-UPgF4YAHBQY_33.mp4	0.0	289.081830739975	0.09994316101074219
75	234.10703802108765	fix_pre	0		51.0	73.0	2.5	/experiments/knapen_aot/videos/R_S_video_inspire_uk_london_hampstead-heath_003.1080-h264.mp4	0.0	289.1817739009857	0.4249749183654785
75	234.52376294136047	response	0	2		73.0	2.5	/experiments/knapen_aot/videos/R_S_video_inspire_uk_london_hampstead-heath_003.1080-h264.mp4	0.0	289.59849882125854	
75	234.53201293945312	movie	1		173.0	73.0	2.5	/experiments/knapen_aot/videos/R_S_video_inspire_uk_london_hampstead-heath_003.1080-h264.mp4	0.0	289.6067488193512	2.508324146270752
75	237.04033708572388	fix_post	2		12.0	73.0	2.5	/experiments/knapen_aot/videos/R_S_video_inspire_uk_london_hampstead-heath_003.1080-h264.mp4	0.0	292.11507296562195	0.09996795654296875
76	237.14030504226685	fix_pre	0		48.0	74.0	2.5	/experiments/knapen_aot/videos/S_yt-CEQnXB0LxQU_278.mp4	0.0	292.2150409221649	0.3999948501586914
76	237.53215098381042	response	0	2		74.0	2.5	/experiments/knapen_aot/videos/S_yt-CEQnXB0LxQU_278.mp4	0.0	292.6068868637085	
76	237.54029989242554	movie	1		301.0	74.0	2.5	/experiments/knapen_aot/videos/S_yt-CEQnXB0LxQU_278.mp4	0.0	292.6150357723236	2.50833797454834
76	240.04863786697388	fix_post	2		12.0	74.0	2.5	/experiments/knapen_aot/videos/S_yt-CEQnXB0LxQU_278.mp4	0.0	295.12337374687195	0.10006403923034668
77	240.14870190620422	fix_pre	0		77.0	75.0	2.5	blank	1.0	295.2234377861023	0.6415920257568359
77	240.78214406967163	response	0	2		75.0	2.5	blank	1.0	295.8568799495697	
77	240.79029393196106	movie	1		301.0	75.0	2.5	blank	1.0	295.86502981185913	2.50832200050354
77	243.2986159324646	fix_post	2		12.0	75.0	2.5	blank	1.0	298.37335181236267	0.10001301765441895
78	243.39862895011902	fix_pre	0		72.0	76.0	2.5	/experiments/knapen_aot/videos/S_ILSVRC2015_train_00371010.mp4	0.0	298.4733648300171	0.5999429225921631
78	243.99044585227966	response	0	2		76.0	2.5	/experiments/knapen_aot/videos/S_ILSVRC2015_train_00371010.mp4	0.0	299.06518173217773	
78	243.99857187271118	movie	1		301.0	76.0	2.5	/experiments/knapen_aot/videos/S_ILSVRC2015_train_00371010.mp4	0.0	299.07330775260925	2.5083651542663574
78	246.50693702697754	fix_post	2		12.0	76.0	2.5	/experiments/knapen_aot/videos/S_ILSVRC2015_train_00371010.mp4	0.0	301.5816729068756	0.10005903244018555
79	246.60699605941772	fix_pre	0		58.0	77.0	2.5	/experiments/knapen_aot/videos/S_yt-HMAa2QbfFPI_216.mp4	0.0	301.6817319393158	0.48327088356018066
79	247.08208990097046	response	0	2		77.0	2.5	/experiments/knapen_aot/videos/S_yt-HMAa2QbfFPI_216.mp4	0.0	302.15682578086853	
79	247.0902669429779	movie	1		300.0	77.0	2.5	/experiments/knapen_aot/videos/S_yt-HMAa2QbfFPI_216.mp4	0.0	302.165002822876	2.508333921432495
79	249.5986008644104	fix_post	2		12.0	77.0	2.5	/experiments/knapen_aot/videos/S_yt-HMAa2QbfFPI_216.mp4	0.0	304.6733367443085	0.09999918937683105
80	249.69860005378723	fix_pre	0		64.0	78.0	2.5	/experiments/knapen_aot/videos/S_yt-T_qmGKyeKNU_32.mp4	0.0	304.7733359336853	0.533301830291748
80	250.22378206253052	response	0	2		78.0	2.5	/experiments/knapen_aot/videos/S_yt-T_qmGKyeKNU_32.mp4	0.0	305.2985179424286	
80	250.23190188407898	movie	1		301.0	78.0	2.5	/experiments/knapen_aot/videos/S_yt-T_qmGKyeKNU_32.mp4	0.0	305.30663776397705	2.5083060264587402
80	252.74020791053772	fix_post	2		12.0	78.0	2.5	/experiments/knapen_aot/videos/S_yt-T_qmGKyeKNU_32.mp4	0.0	307.8149437904358	0.10000109672546387
81	252.84020900726318	fix_pre	0		49.0	79.0	2.5	/experiments/knapen_aot/videos/S_yt-PaxmJhMoP3w_87.mp4	0.0	307.91494488716125	0.4083528518676758
81	253.24038791656494	response	0	2		79.0	2.5	/experiments/knapen_aot/videos/S_yt-PaxmJhMoP3w_87.mp4	0.0	308.315123796463	
81	253.24856185913086	movie	1		301.0	79.0	2.5	/experiments/knapen_aot/videos/S_yt-PaxmJhMoP3w_87.mp4	0.0	308.32329773902893	2.5082859992980957
81	255.75684785842896	fix_post	2		12.0	79.0	2.5	/experiments/knapen_aot/videos/S_yt-PaxmJhMoP3w_87.mp4	0.0	310.831583738327	0.10011816024780273
82	255.85696601867676	fix_pre	0		107.0	80.0	2.5	/experiments/knapen_aot/videos/R_S_yt-PaxmJhMoP3w_87.mp4	0.0	310.93170189857483	0.891577959060669
82	256.7404270172119	response	0	2		80.0	2.5	/experiments/knapen_aot/videos/R_S_yt-PaxmJhMoP3w_87.mp4	0.0	311.81516289711	
82	256.7485439777374	movie	1		301.0	80.0	2.5	/experiments/knapen_aot/videos/R_S_yt-PaxmJhMoP3w_87.mp4	0.0	311.8232798576355	2.5083301067352295
82	259.25687408447266	fix_post	2		12.0	80.0	2.5	/experiments/knapen_aot/videos/R_S_yt-PaxmJhMoP3w_87.mp4	0.0	314.3316099643707	0.10003185272216797
83	259.3569059371948	fix_pre	0		53.0	81.0	2.5	/experiments/knapen_aot/videos/S_yt-2i53vKte7SA_117.mp4	0.0	314.4316418170929	0.4416639804840088
83	259.79030108451843	response	0	2		81.0	2.5	/experiments/knapen_aot/videos/S_yt-2i53vKte7SA_117.mp4	0.0	314.8650369644165	
83	259.79856991767883	movie	1		300.0	81.0	2.5	/experiments/knapen_aot/videos/S_yt-2i53vKte7SA_117.mp4	0.0	314.8733057975769	2.5082931518554688
83	262.3068630695343	fix_post	2		12.0	81.0	2.5	/experiments/knapen_aot/videos/S_yt-2i53vKte7SA_117.mp4	0.0	317.3815989494324	0.09996199607849121
84	262.4068250656128	fix_pre	0		76.0	82.0	2.5	/experiments/knapen_aot/videos/R_S_comp_DB_D011_D009_SIGNCMP_v15_6Mbps.mp4	0.0	317.48156094551086	0.6334168910980225
84	263.0320119857788	response	0	2		82.0	2.5	/experiments/knapen_aot/videos/R_S_comp_DB_D011_D009_SIGNCMP_v15_6Mbps.mp4	0.0	318.1067478656769	
84	263.0402419567108	movie	1		170.0	82.0	2.5	/experiments/knapen_aot/videos/R_S_comp_DB_D011_D009_SIGNCMP_v15_6Mbps.mp4	0.0	318.1149778366089	2.508289098739624
84	265.54853105545044	fix_post	2		12.0	82.0	2.5	/experiments/knapen_aot/videos/R_S_comp_DB_D011_D009_SIGNCMP_v15_6Mbps.mp4	0.0	320.6232669353485	0.09999990463256836
85	265.648530960083	fix_pre	0		60.0	83.0	2.5	blank	1.0	320.7232668399811	0.5000319480895996
85	266.1402859687805	response	0	2		83.0	2.5	blank	1.0	321.2150218486786	
85	266.1485629081726	movie	1		301.0	83.0	2.5	blank	1.0	321.2232987880707	2.5082740783691406
85	268.65683698654175	fix_post	2		12.0	83.0	2.5	blank	1.0	323.7315728664398	0.10004091262817383
87	268.7568778991699	stim	0		160.0					323.831613779068	1.335003137588501
87	270.0869359970093	response	0	space						325.16167187690735	
