trial_nr	onset	event_type	phase	response	nr_frames	movie_index	movie_duration	movie_file	blank	onset_abs	duration
0	0.13816404342651367	stim	0		37.0					64.63001298904419	0.3083629608154297
0	0.43182802200317383	response	0	space						64.92367696762085	
1	0.44652700424194336	stim	0		121.0					64.93837594985962	1.008342981338501
1	1.4548699855804443	stim	1		120.0					65.94671893119812	0.9996480941772461
1	1.6557800769805908	response	1	space						66.14762902259827	
1	2.3546760082244873	response	1	space						66.84652495384216	
2	2.4545180797576904	fix_pre	0		16.0	0.0	2.5	/experiments/knapen_aot/videos/S_yt-Ol4xuEA8xQc_776.mp4	0.0	66.94636702537537	0.1353919506072998
2	2.5830111503601074	response	0	2		0.0	2.5	/experiments/knapen_aot/videos/S_yt-Ol4xuEA8xQc_776.mp4	0.0	67.07486009597778	
2	2.5899100303649902	movie	1		296.0	0.0	2.5	/experiments/knapen_aot/videos/S_yt-Ol4xuEA8xQc_776.mp4	0.0	67.08175897598267	2.5062930583953857
2	5.096203088760376	fix_post	2		12.0	0.0	2.5	/experiments/knapen_aot/videos/S_yt-Ol4xuEA8xQc_776.mp4	0.0	69.58805203437805	0.09999895095825195
3	5.196202039718628	fix_pre	0		23.0	1.0	2.5	/experiments/knapen_aot/videos/S_yt--Ou506YF3mY_106.mp4	0.0	69.6880509853363	0.1922919750213623
3	5.379549980163574	response	0	2		1.0	2.5	/experiments/knapen_aot/videos/S_yt--Ou506YF3mY_106.mp4	0.0	69.87139892578125	
3	5.38849401473999	movie	1		301.0	1.0	2.5	/experiments/knapen_aot/videos/S_yt--Ou506YF3mY_106.mp4	0.0	69.88034296035767	2.5076420307159424
3	7.896136045455933	fix_post	2		12.0	1.0	2.5	/experiments/knapen_aot/videos/S_yt--Ou506YF3mY_106.mp4	0.0	72.38798499107361	0.10009503364562988
4	7.9962310791015625	fix_pre	0		28.0	2.0	2.5	/experiments/knapen_aot/videos/S_yt-14tjqjjjAEI_15.mp4	0.0	72.48808002471924	0.2333080768585205
4	8.221301078796387	response	0	2		2.0	2.5	/experiments/knapen_aot/videos/S_yt-14tjqjjjAEI_15.mp4	0.0	72.71315002441406	
4	8.229539155960083	movie	1		301.0	2.0	2.5	/experiments/knapen_aot/videos/S_yt-14tjqjjjAEI_15.mp4	0.0	72.72138810157776	2.5082199573516846
4	10.737759113311768	fix_post	2		12.0	2.0	2.5	/experiments/knapen_aot/videos/S_yt-14tjqjjjAEI_15.mp4	0.0	75.22960805892944	0.10003185272216797
5	10.837790966033936	fix_pre	0		20.0	3.0	2.5	/experiments/knapen_aot/videos/R_S_comp_DB_D011_C010_PSNK_DENOISE_v19_SDR_PS_20180914_SDR_2K_AVC.mp4	0.0	75.32963991165161	0.1666569709777832
5	10.996287107467651	response	0	2		3.0	2.5	/experiments/knapen_aot/videos/R_S_comp_DB_D011_C010_PSNK_DENOISE_v19_SDR_PS_20180914_SDR_2K_AVC.mp4	0.0	75.48813605308533	
5	11.004447937011719	movie	1		167.0	3.0	2.5	/experiments/knapen_aot/videos/R_S_comp_DB_D011_C010_PSNK_DENOISE_v19_SDR_PS_20180914_SDR_2K_AVC.mp4	0.0	75.4962968826294	2.508411169052124
5	13.512859106063843	fix_post	2		12.0	3.0	2.5	/experiments/knapen_aot/videos/R_S_comp_DB_D011_C010_PSNK_DENOISE_v19_SDR_PS_20180914_SDR_2K_AVC.mp4	0.0	78.00470805168152	0.0999610424041748
6	13.612820148468018	fix_pre	0		13.0	4.0	2.5	/experiments/knapen_aot/videos/R_S_yt-R0gFQo85cAE_5.mp4	0.0	78.1046690940857	0.10898184776306152
6	13.712881088256836	response	0	4		4.0	2.5	/experiments/knapen_aot/videos/R_S_yt-R0gFQo85cAE_5.mp4	0.0	78.20473003387451	
6	13.721801996231079	movie	1		301.0	4.0	2.5	/experiments/knapen_aot/videos/R_S_yt-R0gFQo85cAE_5.mp4	0.0	78.21365094184875	2.507686138153076
6	16.229488134384155	fix_post	2		12.0	4.0	2.5	/experiments/knapen_aot/videos/R_S_yt-R0gFQo85cAE_5.mp4	0.0	80.72133708000183	0.09995889663696289
7	16.329447031021118	fix_pre	0		21.0	5.0	2.5	/experiments/knapen_aot/videos/R_S_yt-Dj42sI_Z-kQ_38.mp4	0.0	80.8212959766388	0.17496705055236816
7	16.496330976486206	response	0	4		5.0	2.5	/experiments/knapen_aot/videos/R_S_yt-Dj42sI_Z-kQ_38.mp4	0.0	80.98817992210388	
7	16.504414081573486	movie	1		301.0	5.0	2.5	/experiments/knapen_aot/videos/R_S_yt-Dj42sI_Z-kQ_38.mp4	0.0	80.99626302719116	2.508370876312256
7	19.012784957885742	fix_post	2		12.0	5.0	2.5	/experiments/knapen_aot/videos/R_S_yt-Dj42sI_Z-kQ_38.mp4	0.0	83.50463390350342	0.10000205039978027
8	19.112787008285522	fix_pre	0		27.0	6.0	2.5	/experiments/knapen_aot/videos/R_S_pexels-marcus-aurelius-6785014.mp4	0.0	83.6046359539032	0.22499608993530273
8	19.32957696914673	response	0	4		6.0	2.5	/experiments/knapen_aot/videos/R_S_pexels-marcus-aurelius-6785014.mp4	0.0	83.8214259147644	
8	19.337783098220825	movie	1		170.0	6.0	2.5	/experiments/knapen_aot/videos/R_S_pexels-marcus-aurelius-6785014.mp4	0.0	83.8296320438385	2.5084128379821777
8	21.846195936203003	fix_post	2		12.0	6.0	2.5	/experiments/knapen_aot/videos/R_S_pexels-marcus-aurelius-6785014.mp4	0.0	86.33804488182068	0.09989213943481445
8	21.888713121414185	response	2	4		6.0	2.5	/experiments/knapen_aot/videos/R_S_pexels-marcus-aurelius-6785014.mp4	0.0	86.38056206703186	
9	21.946088075637817	fix_pre	0		104.0	7.0	2.5	blank	1.0	86.4379370212555	0.8666589260101318
9	22.80450415611267	response	0	4		7.0	2.5	blank	1.0	87.29635310173035	
9	22.81274700164795	movie	1		301.0	7.0	2.5	blank	1.0	87.30459594726562	2.5083069801330566
9	24.246241092681885	response	1	4		7.0	2.5	blank	1.0	88.73809003829956	
9	25.321053981781006	fix_post	2		12.0	7.0	2.5	blank	1.0	89.81290292739868	0.09994816780090332
10	25.42100214958191	fix_pre	0		46.0	8.0	2.5	/experiments/knapen_aot/videos/S_yt-JTBXPfbkjsA_11.mp4	0.0	89.91285109519958	0.3839728832244873
10	25.796262979507446	response	0	4		8.0	2.5	/experiments/knapen_aot/videos/S_yt-JTBXPfbkjsA_11.mp4	0.0	90.28811192512512	
10	25.804975032806396	movie	1		301.0	8.0	2.5	/experiments/knapen_aot/videos/S_yt-JTBXPfbkjsA_11.mp4	0.0	90.29682397842407	2.507805109024048
10	28.312780141830444	fix_post	2		12.0	8.0	2.5	/experiments/knapen_aot/videos/S_yt-JTBXPfbkjsA_11.mp4	0.0	92.80462908744812	0.09995293617248535
11	28.41273307800293	fix_pre	0		14.0	9.0	2.5	/experiments/knapen_aot/videos/S_yt-f9iXELY0EJ0_344.mp4	0.0	92.9045820236206	0.1166830062866211
11	28.521197080612183	response	0	4		9.0	2.5	/experiments/knapen_aot/videos/S_yt-f9iXELY0EJ0_344.mp4	0.0	93.01304602622986	
11	28.52941608428955	movie	1		300.0	9.0	2.5	/experiments/knapen_aot/videos/S_yt-f9iXELY0EJ0_344.mp4	0.0	93.02126502990723	2.508331060409546
11	31.037747144699097	fix_post	2		12.0	9.0	2.5	/experiments/knapen_aot/videos/S_yt-f9iXELY0EJ0_344.mp4	0.0	95.52959609031677	0.1005258560180664
12	31.138273000717163	fix_pre	0		22.0	10.0	2.5	/experiments/knapen_aot/videos/R_S_yt-pbFpqAQJCJo_149.mp4	0.0	95.63012194633484	0.1827099323272705
12	31.312873125076294	response	0	4		10.0	2.5	/experiments/knapen_aot/videos/R_S_yt-pbFpqAQJCJo_149.mp4	0.0	95.80472207069397	
12	31.320982933044434	movie	1		301.0	10.0	2.5	/experiments/knapen_aot/videos/R_S_yt-pbFpqAQJCJo_149.mp4	0.0	95.81283187866211	2.508388042449951
12	33.829370975494385	fix_post	2		12.0	10.0	2.5	/experiments/knapen_aot/videos/R_S_yt-pbFpqAQJCJo_149.mp4	0.0	98.32121992111206	0.1000070571899414
13	33.929378032684326	fix_pre	0		14.0	11.0	2.5	/experiments/knapen_aot/videos/S_pexels-mart-production-7698911.mp4	0.0	98.421226978302	0.11667013168334961
13	34.037795066833496	response	0	4		11.0	2.5	/experiments/knapen_aot/videos/S_pexels-mart-production-7698911.mp4	0.0	98.52964401245117	
13	34.046048164367676	movie	1		191.0	11.0	2.5	/experiments/knapen_aot/videos/S_pexels-mart-production-7698911.mp4	0.0	98.53789710998535	2.508312940597534
13	36.55436110496521	fix_post	2		12.0	11.0	2.5	/experiments/knapen_aot/videos/S_pexels-mart-production-7698911.mp4	0.0	101.04621005058289	0.09993100166320801
14	36.65429210662842	fix_pre	0		25.0	12.0	2.5	/experiments/knapen_aot/videos/R_S_yt-R-SETZtYWaA_336.mp4	0.0	101.1461410522461	0.20839500427246094
14	36.85451912879944	response	0	4		12.0	2.5	/experiments/knapen_aot/videos/R_S_yt-R-SETZtYWaA_336.mp4	0.0	101.34636807441711	
14	36.86268711090088	movie	1		301.0	12.0	2.5	/experiments/knapen_aot/videos/R_S_yt-R-SETZtYWaA_336.mp4	0.0	101.35453605651855	2.5083489418029785
14	39.37103605270386	fix_post	2		12.0	12.0	2.5	/experiments/knapen_aot/videos/R_S_yt-R-SETZtYWaA_336.mp4	0.0	103.86288499832153	0.10001206398010254
15	39.47104811668396	fix_pre	0		18.0	13.0	2.5	/experiments/knapen_aot/videos/R_S_yt-0n0uppNuUus_15.mp4	0.0	103.96289706230164	0.14998292922973633
15	39.612815141677856	response	0	4		13.0	2.5	/experiments/knapen_aot/videos/R_S_yt-0n0uppNuUus_15.mp4	0.0	104.10466408729553	
15	39.621031045913696	movie	1		301.0	13.0	2.5	/experiments/knapen_aot/videos/R_S_yt-0n0uppNuUus_15.mp4	0.0	104.11287999153137	2.508301019668579
15	42.129332065582275	fix_post	2		12.0	13.0	2.5	/experiments/knapen_aot/videos/R_S_yt-0n0uppNuUus_15.mp4	0.0	106.62118101119995	0.0999748706817627
16	42.22930693626404	fix_pre	0		27.0	14.0	2.5	blank	1.0	106.72115588188171	0.2250962257385254
16	42.44611215591431	response	0	4		14.0	2.5	blank	1.0	106.93796110153198	
16	42.45440316200256	movie	1		301.0	14.0	2.5	blank	1.0	106.94625210762024	2.508239984512329
16	44.96264314651489	fix_post	2		12.0	14.0	2.5	blank	1.0	109.45449209213257	0.10005784034729004
17	45.06270098686218	fix_pre	0		308.0	15.0	2.5	/experiments/knapen_aot/videos/S_yt-GWOOQZ19-oU_331.mp4	0.0	109.55454993247986	2.5665719509124756
17	47.6211211681366	response	0	4		15.0	2.5	/experiments/knapen_aot/videos/S_yt-GWOOQZ19-oU_331.mp4	0.0	112.11297011375427	
17	47.62927293777466	movie	1		301.0	15.0	2.5	/experiments/knapen_aot/videos/S_yt-GWOOQZ19-oU_331.mp4	0.0	112.12112188339233	2.50839900970459
17	50.13767194747925	fix_post	2		12.0	15.0	2.5	/experiments/knapen_aot/videos/S_yt-GWOOQZ19-oU_331.mp4	0.0	114.62952089309692	0.10002803802490234
18	50.23769998550415	fix_pre	0		20.0	16.0	2.5	/experiments/knapen_aot/videos/R_S_pexels-kindel-media-8164443.mp4	0.0	114.72954893112183	0.16668915748596191
18	50.39614796638489	response	0	4		16.0	2.5	/experiments/knapen_aot/videos/R_S_pexels-kindel-media-8164443.mp4	0.0	114.88799691200256	
18	50.40438914299011	movie	1		169.0	16.0	2.5	/experiments/knapen_aot/videos/R_S_pexels-kindel-media-8164443.mp4	0.0	114.89623808860779	2.5082478523254395
18	52.91263699531555	fix_post	2		12.0	16.0	2.5	/experiments/knapen_aot/videos/R_S_pexels-kindel-media-8164443.mp4	0.0	117.40448594093323	0.10005807876586914
19	53.01269507408142	fix_pre	0		21.0	17.0	2.5	/experiments/knapen_aot/videos/R_S_comp_A083_C002_1130KZ_v04_SDR_PS_FINAL_20180725_SDR_2K_AVC.mp4	0.0	117.5045440196991	0.17501306533813477
19	53.17941999435425	response	0	4		17.0	2.5	/experiments/knapen_aot/videos/R_S_comp_A083_C002_1130KZ_v04_SDR_PS_FINAL_20180725_SDR_2K_AVC.mp4	0.0	117.67126893997192	
19	53.187708139419556	movie	1		164.0	17.0	2.5	/experiments/knapen_aot/videos/R_S_comp_A083_C002_1130KZ_v04_SDR_PS_FINAL_20180725_SDR_2K_AVC.mp4	0.0	117.67955708503723	2.508298873901367
19	55.69600701332092	fix_post	2		12.0	17.0	2.5	/experiments/knapen_aot/videos/R_S_comp_A083_C002_1130KZ_v04_SDR_PS_FINAL_20180725_SDR_2K_AVC.mp4	0.0	120.1878559589386	0.10012507438659668
20	55.79613208770752	fix_pre	0		12.0	18.0	2.5	/experiments/knapen_aot/videos/S_wc-jujp1kJRHrkJ_54.mp4	0.0	120.2879810333252	0.09984302520751953
20	55.88026809692383	response	0	4		18.0	2.5	/experiments/knapen_aot/videos/S_wc-jujp1kJRHrkJ_54.mp4	0.0	120.3721170425415	
20	55.89597511291504	movie	1		301.0	18.0	2.5	/experiments/knapen_aot/videos/S_wc-jujp1kJRHrkJ_54.mp4	0.0	120.38782405853271	2.5083069801330566
20	58.404282093048096	fix_post	2		12.0	18.0	2.5	/experiments/knapen_aot/videos/S_wc-jujp1kJRHrkJ_54.mp4	0.0	122.89613103866577	0.10006284713745117
21	58.50434494018555	fix_pre	0		12.0	19.0	2.5	/experiments/knapen_aot/videos/R_S_ILSVRC2015_train_00354001.mp4	0.0	122.99619388580322	0.09995317459106445
21	58.5960910320282	response	0	4		19.0	2.5	/experiments/knapen_aot/videos/R_S_ILSVRC2015_train_00354001.mp4	0.0	123.08793997764587	
21	58.60429811477661	movie	1		301.0	19.0	2.5	/experiments/knapen_aot/videos/R_S_ILSVRC2015_train_00354001.mp4	0.0	123.09614706039429	2.508327007293701
21	61.11262512207031	fix_post	2		12.0	19.0	2.5	/experiments/knapen_aot/videos/R_S_ILSVRC2015_train_00354001.mp4	0.0	125.60447406768799	0.10001683235168457
22	61.212641954422	fix_pre	0		8.0	20.0	2.5	/experiments/knapen_aot/videos/R_S_yt-vDjj0EWFdIU_49.mp4	0.0	125.70449090003967	0.06662917137145996
22	61.271132946014404	response	0	4		20.0	2.5	/experiments/knapen_aot/videos/R_S_yt-vDjj0EWFdIU_49.mp4	0.0	125.76298189163208	
22	61.27927112579346	movie	1		301.0	20.0	2.5	/experiments/knapen_aot/videos/R_S_yt-vDjj0EWFdIU_49.mp4	0.0	125.77112007141113	2.508255958557129
22	63.787527084350586	fix_post	2		12.0	20.0	2.5	/experiments/knapen_aot/videos/R_S_yt-vDjj0EWFdIU_49.mp4	0.0	128.27937602996826	0.1000359058380127
23	63.8875629901886	fix_pre	0		12.0	21.0	2.5	blank	1.0	128.37941193580627	0.09994006156921387
23	63.97956895828247	response	0	4		21.0	2.5	blank	1.0	128.47141790390015	
23	63.98750305175781	movie	1		301.0	21.0	2.5	blank	1.0	128.4793519973755	2.508410930633545
23	66.49591398239136	fix_post	2		12.0	21.0	2.5	blank	1.0	130.98776292800903	0.10037517547607422
24	66.59628915786743	fix_pre	0		135.0	22.0	2.5	/experiments/knapen_aot/videos/R_S_PA_A004_C003_SDR_20190719_SDR_2K_AVC.mp4	0.0	131.0881381034851	1.1249589920043945
24	67.71274399757385	response	0	4		22.0	2.5	/experiments/knapen_aot/videos/R_S_PA_A004_C003_SDR_20190719_SDR_2K_AVC.mp4	0.0	132.20459294319153	
24	67.72124814987183	movie	1		170.0	22.0	2.5	/experiments/knapen_aot/videos/R_S_PA_A004_C003_SDR_20190719_SDR_2K_AVC.mp4	0.0	132.2130970954895	2.5080199241638184
24	70.22926807403564	fix_post	2		12.0	22.0	2.5	/experiments/knapen_aot/videos/R_S_PA_A004_C003_SDR_20190719_SDR_2K_AVC.mp4	0.0	134.72111701965332	0.10000300407409668
25	70.32927107810974	fix_pre	0		24.0	23.0	2.5	/experiments/knapen_aot/videos/S_yt-2IxVZeiSv3g_28.mp4	0.0	134.82112002372742	0.2001030445098877
25	70.52107095718384	response	0	4		23.0	2.5	/experiments/knapen_aot/videos/S_yt-2IxVZeiSv3g_28.mp4	0.0	135.0129199028015	
25	70.52937412261963	movie	1		300.0	23.0	2.5	/experiments/knapen_aot/videos/S_yt-2IxVZeiSv3g_28.mp4	0.0	135.0212230682373	2.50813889503479
25	73.03751301765442	fix_post	2		12.0	23.0	2.5	/experiments/knapen_aot/videos/S_yt-2IxVZeiSv3g_28.mp4	0.0	137.5293619632721	0.10044097900390625
26	73.13795399665833	fix_pre	0		27.0	24.0	2.5	/experiments/knapen_aot/videos/R_S_yt-LUIvP_NDWAs_45.mp4	0.0	137.629802942276	0.22463512420654297
26	73.3543450832367	response	0	4		24.0	2.5	/experiments/knapen_aot/videos/R_S_yt-LUIvP_NDWAs_45.mp4	0.0	137.84619402885437	
26	73.36258912086487	movie	1		301.0	24.0	2.5	/experiments/knapen_aot/videos/R_S_yt-LUIvP_NDWAs_45.mp4	0.0	137.85443806648254	2.5083348751068115
26	75.87092399597168	fix_post	2		12.0	24.0	2.5	/experiments/knapen_aot/videos/R_S_yt-LUIvP_NDWAs_45.mp4	0.0	140.36277294158936	0.10033702850341797
27	75.9712610244751	fix_pre	0		34.0	25.0	2.5	/experiments/knapen_aot/videos/S_yt-XpM1Jtwlvvk_42.mp4	0.0	140.46310997009277	0.28294992446899414
27	76.24600601196289	response	0	4		25.0	2.5	/experiments/knapen_aot/videos/S_yt-XpM1Jtwlvvk_42.mp4	0.0	140.73785495758057	
27	76.25421094894409	movie	1		301.0	25.0	2.5	/experiments/knapen_aot/videos/S_yt-XpM1Jtwlvvk_42.mp4	0.0	140.74605989456177	2.508709192276001
27	78.76292014122009	fix_post	2		12.0	25.0	2.5	/experiments/knapen_aot/videos/S_yt-XpM1Jtwlvvk_42.mp4	0.0	143.25476908683777	0.09965300559997559
28	78.86257314682007	fix_pre	0		25.0	26.0	2.5	/experiments/knapen_aot/videos/S_yt-mQESmS4uqRU_208.mp4	0.0	143.35442209243774	0.20834898948669434
28	79.06267213821411	response	0	4		26.0	2.5	/experiments/knapen_aot/videos/S_yt-mQESmS4uqRU_208.mp4	0.0	143.5545210838318	
28	79.07092213630676	movie	1		301.0	26.0	2.5	/experiments/knapen_aot/videos/S_yt-mQESmS4uqRU_208.mp4	0.0	143.56277108192444	2.508307933807373
28	81.57923007011414	fix_post	2		12.0	26.0	2.5	/experiments/knapen_aot/videos/S_yt-mQESmS4uqRU_208.mp4	0.0	146.0710790157318	0.10031008720397949
29	81.67954015731812	fix_pre	0		26.0	27.0	2.5	blank	1.0	146.1713891029358	0.21634793281555176
29	81.88760995864868	response	0	4		27.0	2.5	blank	1.0	146.37945890426636	
29	81.89588809013367	movie	1		301.0	27.0	2.5	blank	1.0	146.38773703575134	2.508244037628174
29	84.40413212776184	fix_post	2		12.0	27.0	2.5	blank	1.0	148.89598107337952	0.1001138687133789
30	84.50424599647522	fix_pre	0		27.0	28.0	2.5	/experiments/knapen_aot/videos/R_S_ILSVRC2015_train_00405001.mp4	0.0	148.9960949420929	0.22496700286865234
30	84.72106909751892	response	0	4		28.0	2.5	/experiments/knapen_aot/videos/R_S_ILSVRC2015_train_00405001.mp4	0.0	149.2129180431366	
30	84.72921299934387	movie	1		301.0	28.0	2.5	/experiments/knapen_aot/videos/R_S_ILSVRC2015_train_00405001.mp4	0.0	149.22106194496155	2.50827693939209
30	87.23748993873596	fix_post	2		12.0	28.0	2.5	/experiments/knapen_aot/videos/R_S_ILSVRC2015_train_00405001.mp4	0.0	151.72933888435364	0.100067138671875
31	87.33755707740784	fix_pre	0		24.0	29.0	2.5	/experiments/knapen_aot/videos/S_yt-FoO02U39gy4_398.mp4	0.0	151.8294060230255	0.19995498657226562
31	87.52927494049072	response	0	4		29.0	2.5	/experiments/knapen_aot/videos/S_yt-FoO02U39gy4_398.mp4	0.0	152.0211238861084	
31	87.5375120639801	movie	1		301.0	29.0	2.5	/experiments/knapen_aot/videos/S_yt-FoO02U39gy4_398.mp4	0.0	152.02936100959778	2.508327007293701
31	90.0458390712738	fix_post	2		12.0	29.0	2.5	/experiments/knapen_aot/videos/S_yt-FoO02U39gy4_398.mp4	0.0	154.53768801689148	0.10001301765441895
32	90.14585208892822	fix_pre	0		22.0	30.0	2.5	/experiments/knapen_aot/videos/S_pexels-sora-shimazaki-5925295.mp4	0.0	154.6377010345459	0.18335604667663574
32	90.32102012634277	response	0	4		30.0	2.5	/experiments/knapen_aot/videos/S_pexels-sora-shimazaki-5925295.mp4	0.0	154.81286907196045	
32	90.32920813560486	movie	1		164.0	30.0	2.5	/experiments/knapen_aot/videos/S_pexels-sora-shimazaki-5925295.mp4	0.0	154.82105708122253	2.508296012878418
32	92.83750414848328	fix_post	2		12.0	30.0	2.5	/experiments/knapen_aot/videos/S_pexels-sora-shimazaki-5925295.mp4	0.0	157.32935309410095	0.09995079040527344
33	92.93745493888855	fix_pre	0		19.0	31.0	2.5	/experiments/knapen_aot/videos/S_yt-4ouMuGUuPHI_193.mp4	0.0	157.42930388450623	0.15858817100524902
33	93.08759903907776	response	0	4		31.0	2.5	/experiments/knapen_aot/videos/S_yt-4ouMuGUuPHI_193.mp4	0.0	157.57944798469543	
33	93.0960431098938	movie	1		301.0	31.0	2.5	/experiments/knapen_aot/videos/S_yt-4ouMuGUuPHI_193.mp4	0.0	157.58789205551147	2.50811505317688
33	95.60415816307068	fix_post	2		12.0	31.0	2.5	/experiments/knapen_aot/videos/S_yt-4ouMuGUuPHI_193.mp4	0.0	160.09600710868835	0.10000085830688477
34	95.70415902137756	fix_pre	0		18.0	32.0	2.5	/experiments/knapen_aot/videos/S_yt-he_RSdeVinA_68.mp4	0.0	160.19600796699524	0.14999604225158691
34	95.84588408470154	response	0	4		32.0	2.5	/experiments/knapen_aot/videos/S_yt-he_RSdeVinA_68.mp4	0.0	160.3377330303192	
34	95.85415506362915	movie	1		301.0	32.0	2.5	/experiments/knapen_aot/videos/S_yt-he_RSdeVinA_68.mp4	0.0	160.34600400924683	2.508331060409546
34	98.3624861240387	fix_post	2		12.0	32.0	2.5	/experiments/knapen_aot/videos/S_yt-he_RSdeVinA_68.mp4	0.0	162.85433506965637	0.10000085830688477
35	98.46248698234558	fix_pre	0		35.0	33.0	2.5	blank	1.0	162.95433592796326	0.29165101051330566
35	98.74597907066345	response	0	4		33.0	2.5	blank	1.0	163.23782801628113	
35	98.75413799285889	movie	1		301.0	33.0	2.5	blank	1.0	163.24598693847656	2.5086750984191895
35	101.26281309127808	fix_post	2		12.0	33.0	2.5	blank	1.0	165.75466203689575	0.09966707229614258
36	101.36248016357422	fix_pre	0		287.0	34.0	2.5	/experiments/knapen_aot/videos/S_flickr-lamujuri-10653517683_4.mp4	0.0	165.8543291091919	2.3915798664093018
36	103.74588394165039	response	0	4		34.0	2.5	/experiments/knapen_aot/videos/S_flickr-lamujuri-10653517683_4.mp4	0.0	168.23773288726807	
36	103.75406002998352	movie	1		166.0	34.0	2.5	/experiments/knapen_aot/videos/S_flickr-lamujuri-10653517683_4.mp4	0.0	168.2459089756012	2.5085039138793945
36	106.26256394386292	fix_post	2		12.0	34.0	2.5	/experiments/knapen_aot/videos/S_flickr-lamujuri-10653517683_4.mp4	0.0	170.7544128894806	0.09979414939880371
37	106.36235809326172	fix_pre	0		13.0	35.0	2.5	/experiments/knapen_aot/videos/R_S_yt-oVrkSsEpuvk_118.mp4	0.0	170.8542070388794	0.10868597030639648
37	106.46253108978271	response	0	4		35.0	2.5	/experiments/knapen_aot/videos/R_S_yt-oVrkSsEpuvk_118.mp4	0.0	170.9543800354004	
37	106.47104406356812	movie	1		301.0	35.0	2.5	/experiments/knapen_aot/videos/R_S_yt-oVrkSsEpuvk_118.mp4	0.0	170.9628930091858	2.5080509185791016
37	108.97909498214722	fix_post	2		12.0	35.0	2.5	/experiments/knapen_aot/videos/R_S_yt-oVrkSsEpuvk_118.mp4	0.0	173.4709439277649	0.10001206398010254
38	109.07910704612732	fix_pre	0		23.0	36.0	2.5	/experiments/knapen_aot/videos/R_S_ILSVRC2015_train_00549000.mp4	0.0	173.570955991745	0.19160199165344238
38	109.26272916793823	response	0	4		36.0	2.5	/experiments/knapen_aot/videos/R_S_ILSVRC2015_train_00549000.mp4	0.0	173.7545781135559	
38	109.27070903778076	movie	1		301.0	36.0	2.5	/experiments/knapen_aot/videos/R_S_ILSVRC2015_train_00549000.mp4	0.0	173.76255798339844	2.508336067199707
38	111.77904510498047	fix_post	2		12.0	36.0	2.5	/experiments/knapen_aot/videos/R_S_ILSVRC2015_train_00549000.mp4	0.0	176.27089405059814	0.09995889663696289
39	111.87900400161743	fix_pre	0		4.0	37.0	2.5	/experiments/knapen_aot/videos/S_yt-4oacL3aXtlU_11.mp4	0.0	176.3708529472351	0.03339099884033203
39	111.90417003631592	response	0	4		37.0	2.5	/experiments/knapen_aot/videos/S_yt-4oacL3aXtlU_11.mp4	0.0	176.3960189819336	
39	111.91239500045776	movie	1		301.0	37.0	2.5	/experiments/knapen_aot/videos/S_yt-4oacL3aXtlU_11.mp4	0.0	176.40424394607544	2.5083301067352295
39	114.420725107193	fix_post	2		12.0	37.0	2.5	/experiments/knapen_aot/videos/S_yt-4oacL3aXtlU_11.mp4	0.0	178.91257405281067	0.09996199607849121
40	114.52068710327148	fix_pre	0		13.0	38.0	2.5	/experiments/knapen_aot/videos/R_S_yt_R-JaY8f33fOCw_25.mp4	0.0	179.01253604888916	0.10836505889892578
40	114.62082195281982	response	0	4		38.0	2.5	/experiments/knapen_aot/videos/R_S_yt_R-JaY8f33fOCw_25.mp4	0.0	179.1126708984375	
40	114.62905216217041	movie	1		301.0	38.0	2.5	/experiments/knapen_aot/videos/R_S_yt_R-JaY8f33fOCw_25.mp4	0.0	179.1209011077881	2.5083999633789062
40	117.13745212554932	fix_post	2		12.0	38.0	2.5	/experiments/knapen_aot/videos/R_S_yt_R-JaY8f33fOCw_25.mp4	0.0	181.629301071167	0.09994697570800781
41	117.23739910125732	fix_pre	0		14.0	39.0	2.5	/experiments/knapen_aot/videos/S_yt-7lULOC_rSE0_747.mp4	0.0	181.729248046875	0.11662006378173828
41	117.34583806991577	response	0	4		39.0	2.5	/experiments/knapen_aot/videos/S_yt-7lULOC_rSE0_747.mp4	0.0	181.83768701553345	
41	117.35401916503906	movie	1		301.0	39.0	2.5	/experiments/knapen_aot/videos/S_yt-7lULOC_rSE0_747.mp4	0.0	181.84586811065674	2.5082929134368896
41	119.86231207847595	fix_post	2		12.0	39.0	2.5	/experiments/knapen_aot/videos/S_yt-7lULOC_rSE0_747.mp4	0.0	184.35416102409363	0.10003900527954102
42	119.9623510837555	fix_pre	0		14.0	40.0	2.5	/experiments/knapen_aot/videos/S_yt-H-2Vvouw9VI_85.mp4	0.0	184.45420002937317	0.11665201187133789
42	120.07078194618225	response	0	4		40.0	2.5	/experiments/knapen_aot/videos/S_yt-H-2Vvouw9VI_85.mp4	0.0	184.56263089179993	
42	120.07900309562683	movie	1		301.0	40.0	2.5	/experiments/knapen_aot/videos/S_yt-H-2Vvouw9VI_85.mp4	0.0	184.5708520412445	2.5083529949188232
42	122.58735609054565	fix_post	2		12.0	40.0	2.5	/experiments/knapen_aot/videos/S_yt-H-2Vvouw9VI_85.mp4	0.0	187.07920503616333	0.09991192817687988
43	122.68726801872253	fix_pre	0		3.0	41.0	2.5	/experiments/knapen_aot/videos/S_pexels-rodnae-productions-5993671.mp4	0.0	187.1791169643402	0.026592016220092773
43	122.70427107810974	response	0	4		41.0	2.5	/experiments/knapen_aot/videos/S_pexels-rodnae-productions-5993671.mp4	0.0	187.19612002372742	
43	122.71386003494263	movie	1		167.0	41.0	2.5	/experiments/knapen_aot/videos/S_pexels-rodnae-productions-5993671.mp4	0.0	187.2057089805603	2.5068609714508057
43	125.22072100639343	fix_post	2		12.0	41.0	2.5	/experiments/knapen_aot/videos/S_pexels-rodnae-productions-5993671.mp4	0.0	189.7125699520111	0.09992504119873047
44	125.32064604759216	fix_pre	0		15.0	42.0	2.5	blank	1.0	189.81249499320984	0.12502098083496094
44	125.43744802474976	response	0	4		42.0	2.5	blank	1.0	189.92929697036743	
44	125.44566702842712	movie	1		301.0	42.0	2.5	blank	1.0	189.9375159740448	2.5083329677581787
44	127.9539999961853	fix_post	2		12.0	42.0	2.5	blank	1.0	192.44584894180298	0.09999203681945801
45	128.05399203300476	fix_pre	0		18.0	43.0	2.5	/experiments/knapen_aot/videos/S_yt-KK6fVRAMm-c_476.mp4	0.0	192.54584097862244	0.1499640941619873
45	128.19583415985107	response	0	4		43.0	2.5	/experiments/knapen_aot/videos/S_yt-KK6fVRAMm-c_476.mp4	0.0	192.68768310546875	
45	128.20395612716675	movie	1		301.0	43.0	2.5	/experiments/knapen_aot/videos/S_yt-KK6fVRAMm-c_476.mp4	0.0	192.69580507278442	2.508363962173462
45	130.7123200893402	fix_post	2		12.0	43.0	2.5	/experiments/knapen_aot/videos/S_yt-KK6fVRAMm-c_476.mp4	0.0	195.20416903495789	0.09999895095825195
46	130.81231904029846	fix_pre	0		16.0	44.0	2.5	/experiments/knapen_aot/videos/R_S_video_inspire_texas_pecos_foggy-landscape_00018.1080-h264.mp4	0.0	195.30416798591614	0.13333511352539062
46	130.92991304397583	response	0	4		44.0	2.5	/experiments/knapen_aot/videos/R_S_video_inspire_texas_pecos_foggy-landscape_00018.1080-h264.mp4	0.0	195.4217619895935	
46	130.94565415382385	movie	1		175.0	44.0	2.5	/experiments/knapen_aot/videos/R_S_video_inspire_texas_pecos_foggy-landscape_00018.1080-h264.mp4	0.0	195.43750309944153	2.508307933807373
46	133.45396208763123	fix_post	2		12.0	44.0	2.5	/experiments/knapen_aot/videos/R_S_video_inspire_texas_pecos_foggy-landscape_00018.1080-h264.mp4	0.0	197.9458110332489	0.10005688667297363
46	133.5209219455719	response	2	4		44.0	2.5	/experiments/knapen_aot/videos/R_S_video_inspire_texas_pecos_foggy-landscape_00018.1080-h264.mp4	0.0	198.01277089118958	
47	133.5540189743042	fix_pre	0		51.0	45.0	2.5	/experiments/knapen_aot/videos/R_S_yt-OrTpetjDNKs_31.mp4	0.0	198.04586791992188	0.42493510246276855
47	133.97074604034424	response	0	4		45.0	2.5	/experiments/knapen_aot/videos/R_S_yt-OrTpetjDNKs_31.mp4	0.0	198.4625949859619	
47	133.97895407676697	movie	1		301.0	45.0	2.5	/experiments/knapen_aot/videos/R_S_yt-OrTpetjDNKs_31.mp4	0.0	198.47080302238464	2.5083460807800293
47	136.487300157547	fix_post	2		12.0	45.0	2.5	/experiments/knapen_aot/videos/R_S_yt-OrTpetjDNKs_31.mp4	0.0	200.97914910316467	0.09999489784240723
48	136.5872950553894	fix_pre	0		20.0	46.0	2.5	/experiments/knapen_aot/videos/S_yt-NLfzvAJgyJ4_120.mp4	0.0	201.07914400100708	0.1666269302368164
48	136.74574613571167	response	0	4		46.0	2.5	/experiments/knapen_aot/videos/S_yt-NLfzvAJgyJ4_120.mp4	0.0	201.23759508132935	
48	136.75392198562622	movie	1		301.0	46.0	2.5	/experiments/knapen_aot/videos/S_yt-NLfzvAJgyJ4_120.mp4	0.0	201.2457709312439	2.508397102355957
48	139.26231908798218	fix_post	2		12.0	46.0	2.5	/experiments/knapen_aot/videos/S_yt-NLfzvAJgyJ4_120.mp4	0.0	203.75416803359985	0.09997296333312988
49	139.3622920513153	fix_pre	0		4.0	47.0	2.5	/experiments/knapen_aot/videos/S_production_ID_4499960.mp4	0.0	203.85414099693298	0.03331589698791504
49	139.3874990940094	response	0	4		47.0	2.5	/experiments/knapen_aot/videos/S_production_ID_4499960.mp4	0.0	203.87934803962708	
49	139.39560794830322	movie	1		166.0	47.0	2.5	/experiments/knapen_aot/videos/S_production_ID_4499960.mp4	0.0	203.8874568939209	2.5082850456237793
49	141.903892993927	fix_post	2		12.0	47.0	2.5	/experiments/knapen_aot/videos/S_production_ID_4499960.mp4	0.0	206.39574193954468	0.10002803802490234
50	142.0039210319519	fix_pre	0		11.0	48.0	2.5	blank	1.0	206.49576997756958	0.09172892570495605
50	142.08737516403198	response	0	4		48.0	2.5	blank	1.0	206.57922410964966	
50	142.09564995765686	movie	1		301.0	48.0	2.5	blank	1.0	206.58749890327454	2.50822114944458
50	144.60387110710144	fix_post	2		12.0	48.0	2.5	blank	1.0	209.09572005271912	0.10004091262817383
51	144.70391201972961	fix_pre	0		19.0	49.0	2.5	/experiments/knapen_aot/videos/S_ILSVRC2015_train_00549000.mp4	0.0	209.1957609653473	0.1583271026611328
51	144.85405111312866	response	0	4		49.0	2.5	/experiments/knapen_aot/videos/S_ILSVRC2015_train_00549000.mp4	0.0	209.34590005874634	
51	144.86223912239075	movie	1		301.0	49.0	2.5	/experiments/knapen_aot/videos/S_ILSVRC2015_train_00549000.mp4	0.0	209.35408806800842	2.50827693939209
51	147.37051606178284	fix_post	2		12.0	49.0	2.5	/experiments/knapen_aot/videos/S_ILSVRC2015_train_00549000.mp4	0.0	211.8623650074005	0.10005593299865723
52	147.4705719947815	fix_pre	0		3.0	50.0	2.5	/experiments/knapen_aot/videos/S_pexels-mart-production-7279749.mp4	0.0	211.96242094039917	0.025007963180541992
52	147.48731398582458	response	0	4		50.0	2.5	/experiments/knapen_aot/videos/S_pexels-mart-production-7279749.mp4	0.0	211.97916293144226	
52	147.49557995796204	movie	1		169.0	50.0	2.5	/experiments/knapen_aot/videos/S_pexels-mart-production-7279749.mp4	0.0	211.9874289035797	2.5083110332489014
52	150.00389099121094	fix_post	2		12.0	50.0	2.5	/experiments/knapen_aot/videos/S_pexels-mart-production-7279749.mp4	0.0	214.4957399368286	0.0999460220336914
52	150.06402015686035	response	2	4		50.0	2.5	/experiments/knapen_aot/videos/S_pexels-mart-production-7279749.mp4	0.0	214.55586910247803	
53	150.10383701324463	fix_pre	0		69.0	51.0	2.5	/experiments/knapen_aot/videos/R_S_yt-b7JAHOeiTqU_44.mp4	0.0	214.5956859588623	0.5750150680541992
53	150.6706349849701	response	0	4		51.0	2.5	/experiments/knapen_aot/videos/R_S_yt-b7JAHOeiTqU_44.mp4	0.0	215.16248393058777	
53	150.67885208129883	movie	1		301.0	51.0	2.5	/experiments/knapen_aot/videos/R_S_yt-b7JAHOeiTqU_44.mp4	0.0	215.1707010269165	2.508316993713379
53	153.1871690750122	fix_post	2		12.0	51.0	2.5	/experiments/knapen_aot/videos/R_S_yt-b7JAHOeiTqU_44.mp4	0.0	217.67901802062988	0.10004901885986328
54	153.28721809387207	fix_pre	0		16.0	52.0	2.5	/experiments/knapen_aot/videos/R_S_yt-hQ5pge893b4_6.mp4	0.0	217.77906703948975	0.13458704948425293
54	153.41244196891785	response	0	4		52.0	2.5	/experiments/knapen_aot/videos/R_S_yt-hQ5pge893b4_6.mp4	0.0	217.90429091453552	
54	153.42180514335632	movie	1		301.0	52.0	2.5	/experiments/knapen_aot/videos/R_S_yt-hQ5pge893b4_6.mp4	0.0	217.913654088974	2.5070388317108154
54	155.92884397506714	fix_post	2		12.0	52.0	2.5	/experiments/knapen_aot/videos/R_S_yt-hQ5pge893b4_6.mp4	0.0	220.42069292068481	0.10001206398010254
55	156.02885603904724	fix_pre	0		17.0	53.0	2.5	/experiments/knapen_aot/videos/S_yt-2pRKCSgdXXU_30.mp4	0.0	220.52070498466492	0.14293694496154785
55	156.162250995636	response	0	4		53.0	2.5	/experiments/knapen_aot/videos/S_yt-2pRKCSgdXXU_30.mp4	0.0	220.65409994125366	
55	156.1717929840088	movie	1		301.0	53.0	2.5	/experiments/knapen_aot/videos/S_yt-2pRKCSgdXXU_30.mp4	0.0	220.66364192962646	2.5070271492004395
55	158.67882013320923	fix_post	2		12.0	53.0	2.5	/experiments/knapen_aot/videos/S_yt-2pRKCSgdXXU_30.mp4	0.0	223.1706690788269	0.10005402565002441
56	158.77887415885925	fix_pre	0		18.0	54.0	2.5	blank	1.0	223.27072310447693	0.14995479583740234
56	158.92065811157227	response	0	4		54.0	2.5	blank	1.0	223.41250705718994	
56	158.92882895469666	movie	1		301.0	54.0	2.5	blank	1.0	223.42067790031433	2.5083131790161133
56	161.43714213371277	fix_post	2		12.0	54.0	2.5	blank	1.0	225.92899107933044	0.1000218391418457
57	161.53716397285461	fix_pre	0		33.0	55.0	2.5	/experiments/knapen_aot/videos/S_yt-H-2Vvouw9VI_85.mp4	0.0	226.0290129184723	0.2750270366668701
57	161.8039300441742	response	0	2		55.0	2.5	/experiments/knapen_aot/videos/S_yt-H-2Vvouw9VI_85.mp4	0.0	226.29577898979187	
57	161.81219100952148	movie	1		301.0	55.0	2.5	/experiments/knapen_aot/videos/S_yt-H-2Vvouw9VI_85.mp4	0.0	226.30403995513916	2.508305072784424
57	164.3204960823059	fix_post	2		12.0	55.0	2.5	/experiments/knapen_aot/videos/S_yt-H-2Vvouw9VI_85.mp4	0.0	228.81234502792358	0.09998297691345215
58	164.42047905921936	fix_pre	0		15.0	56.0	2.5	/experiments/knapen_aot/videos/R_S_yt-R-SETZtYWaA_336.mp4	0.0	228.91232800483704	0.12624692916870117
58	164.5373179912567	response	0	4		56.0	2.5	/experiments/knapen_aot/videos/R_S_yt-R-SETZtYWaA_336.mp4	0.0	229.0291669368744	
58	164.54672598838806	movie	1		301.0	56.0	2.5	/experiments/knapen_aot/videos/R_S_yt-R-SETZtYWaA_336.mp4	0.0	229.03857493400574	2.5070700645446777
58	167.05379605293274	fix_post	2		12.0	56.0	2.5	/experiments/knapen_aot/videos/R_S_yt-R-SETZtYWaA_336.mp4	0.0	231.54564499855042	0.09999990463256836
59	167.1537959575653	fix_pre	0		19.0	57.0	2.5	/experiments/knapen_aot/videos/R_S_yt-H611SOb1T78_189.mp4	0.0	231.64564490318298	0.15834498405456543
59	167.30390810966492	response	0	4		57.0	2.5	/experiments/knapen_aot/videos/R_S_yt-H611SOb1T78_189.mp4	0.0	231.7957570552826	
59	167.31214094161987	movie	1		301.0	57.0	2.5	/experiments/knapen_aot/videos/R_S_yt-H611SOb1T78_189.mp4	0.0	231.80398988723755	2.5083200931549072
59	169.82046103477478	fix_post	2		12.0	57.0	2.5	/experiments/knapen_aot/videos/R_S_yt-H611SOb1T78_189.mp4	0.0	234.31230998039246	0.09989500045776367
60	169.92035603523254	fix_pre	0		10.0	58.0	2.5	/experiments/knapen_aot/videos/S_yt-WhQMF3WM0Ig_29.mp4	0.0	234.41220498085022	0.0834200382232666
60	169.99553894996643	response	0	4		58.0	2.5	/experiments/knapen_aot/videos/S_yt-WhQMF3WM0Ig_29.mp4	0.0	234.4873878955841	
60	170.0037760734558	movie	1		301.0	58.0	2.5	/experiments/knapen_aot/videos/S_yt-WhQMF3WM0Ig_29.mp4	0.0	234.4956250190735	2.5084168910980225
60	172.51219296455383	fix_post	2		12.0	58.0	2.5	/experiments/knapen_aot/videos/S_yt-WhQMF3WM0Ig_29.mp4	0.0	237.0040419101715	0.0999600887298584
61	172.6121530532837	fix_pre	0		29.0	59.0	2.5	/experiments/knapen_aot/videos/R_S_yt-tX3slAQb9yY_13.mp4	0.0	237.10400199890137	0.24158000946044922
61	172.84559416770935	response	0	4		59.0	2.5	/experiments/knapen_aot/videos/R_S_yt-tX3slAQb9yY_13.mp4	0.0	237.33744311332703	
61	172.85373306274414	movie	1		301.0	59.0	2.5	/experiments/knapen_aot/videos/R_S_yt-tX3slAQb9yY_13.mp4	0.0	237.34558200836182	2.5084140300750732
61	175.3621470928192	fix_post	2		12.0	59.0	2.5	/experiments/knapen_aot/videos/R_S_yt-tX3slAQb9yY_13.mp4	0.0	239.8539960384369	0.10001087188720703
62	175.46215796470642	fix_pre	0		31.0	60.0	2.5	/experiments/knapen_aot/videos/S_yt-oVrkSsEpuvk_118.mp4	0.0	239.9540069103241	0.25827717781066895
62	175.71230912208557	response	0	4		60.0	2.5	/experiments/knapen_aot/videos/S_yt-oVrkSsEpuvk_118.mp4	0.0	240.20415806770325	
62	175.7204351425171	movie	1		301.0	60.0	2.5	/experiments/knapen_aot/videos/S_yt-oVrkSsEpuvk_118.mp4	0.0	240.21228408813477	2.5083799362182617
62	178.22881507873535	fix_post	2		12.0	60.0	2.5	/experiments/knapen_aot/videos/S_yt-oVrkSsEpuvk_118.mp4	0.0	242.72066402435303	0.09999799728393555
63	178.3288130760193	fix_pre	0		11.0	61.0	2.5	/experiments/knapen_aot/videos/S_yt-JVhfcpV7OaY_71.mp4	0.0	242.82066202163696	0.0927879810333252
63	178.41221594810486	response	0	4		61.0	2.5	/experiments/knapen_aot/videos/S_yt-JVhfcpV7OaY_71.mp4	0.0	242.90406489372253	
63	178.4216010570526	movie	1		301.0	61.0	2.5	/experiments/knapen_aot/videos/S_yt-JVhfcpV7OaY_71.mp4	0.0	242.9134500026703	2.5070950984954834
63	180.9286961555481	fix_post	2		12.0	61.0	2.5	/experiments/knapen_aot/videos/S_yt-JVhfcpV7OaY_71.mp4	0.0	245.42054510116577	0.09999799728393555
64	181.02869415283203	fix_pre	0		20.0	62.0	2.5	blank	1.0	245.5205430984497	0.16669893264770508
64	181.187175989151	response	0	4		62.0	2.5	blank	1.0	245.67902493476868	
64	181.19539308547974	movie	1		301.0	62.0	2.5	blank	1.0	245.6872420310974	2.5083420276641846
64	183.70373511314392	fix_post	2		12.0	62.0	2.5	blank	1.0	248.1955840587616	0.0999758243560791
65	183.8037109375	fix_pre	0		24.0	63.0	2.5	/experiments/knapen_aot/videos/S_yt-AjyR9--Mx3A_44.mp4	0.0	248.29555988311768	0.20115113258361816
65	183.99555110931396	response	0	4		63.0	2.5	/experiments/knapen_aot/videos/S_yt-AjyR9--Mx3A_44.mp4	0.0	248.48740005493164	
65	184.00486207008362	movie	1		301.0	63.0	2.5	/experiments/knapen_aot/videos/S_yt-AjyR9--Mx3A_44.mp4	0.0	248.4967110157013	2.5072100162506104
65	186.51207208633423	fix_post	2		12.0	63.0	2.5	/experiments/knapen_aot/videos/S_yt-AjyR9--Mx3A_44.mp4	0.0	251.0039210319519	0.1000368595123291
66	186.61210894584656	fix_pre	0		13.0	64.0	2.5	/experiments/knapen_aot/videos/S_ILSVRC2015_train_00354001.mp4	0.0	251.10395789146423	0.10831212997436523
66	186.71217703819275	response	0	4		64.0	2.5	/experiments/knapen_aot/videos/S_ILSVRC2015_train_00354001.mp4	0.0	251.20402598381042	
66	186.72042107582092	movie	1		301.0	64.0	2.5	/experiments/knapen_aot/videos/S_ILSVRC2015_train_00354001.mp4	0.0	251.2122700214386	2.5082719326019287
66	189.22869300842285	fix_post	2		12.0	64.0	2.5	/experiments/knapen_aot/videos/S_ILSVRC2015_train_00354001.mp4	0.0	253.72054195404053	0.09997200965881348
67	189.32866501808167	fix_pre	0		31.0	65.0	2.5	/experiments/knapen_aot/videos/S_yt-J1dw4AznwmQ_7.mp4	0.0	253.82051396369934	0.25958704948425293
67	189.57880115509033	response	0	4		65.0	2.5	/experiments/knapen_aot/videos/S_yt-J1dw4AznwmQ_7.mp4	0.0	254.070650100708	
67	189.58825206756592	movie	1		301.0	65.0	2.5	/experiments/knapen_aot/videos/S_yt-J1dw4AznwmQ_7.mp4	0.0	254.0801010131836	2.5071420669555664
67	192.09539413452148	fix_post	2		12.0	65.0	2.5	/experiments/knapen_aot/videos/S_yt-J1dw4AznwmQ_7.mp4	0.0	256.58724308013916	0.1000368595123291
68	192.1954309940338	fix_pre	0		29.0	66.0	2.5	/experiments/knapen_aot/videos/R_S_comp_GMT329_113NC_396B_1105_CHINA_v04_SDR_FINAL_20180706_F900F2700_SDR_2K_AVC.mp4	0.0	256.6872799396515	0.2416231632232666
68	192.42884016036987	response	0	4		66.0	2.5	/experiments/knapen_aot/videos/R_S_comp_GMT329_113NC_396B_1105_CHINA_v04_SDR_FINAL_20180706_F900F2700_SDR_2K_AVC.mp4	0.0	256.92068910598755	
68	192.43705415725708	movie	1		169.0	66.0	2.5	/experiments/knapen_aot/videos/R_S_comp_GMT329_113NC_396B_1105_CHINA_v04_SDR_FINAL_20180706_F900F2700_SDR_2K_AVC.mp4	0.0	256.92890310287476	2.5083518028259277
68	194.945405960083	fix_post	2		12.0	66.0	2.5	/experiments/knapen_aot/videos/R_S_comp_GMT329_113NC_396B_1105_CHINA_v04_SDR_FINAL_20180706_F900F2700_SDR_2K_AVC.mp4	0.0	259.4372549057007	0.09998011589050293
69	195.0453860759735	fix_pre	0		8.0	67.0	2.5	/experiments/knapen_aot/videos/R_S_yt-9NV8zv2Sdq4_30.mp4	0.0	259.5372350215912	0.06666398048400879
69	195.10387206077576	response	0	4		67.0	2.5	/experiments/knapen_aot/videos/R_S_yt-9NV8zv2Sdq4_30.mp4	0.0	259.59572100639343	
69	195.11205005645752	movie	1		301.0	67.0	2.5	/experiments/knapen_aot/videos/R_S_yt-9NV8zv2Sdq4_30.mp4	0.0	259.6038990020752	2.5083770751953125
69	197.62042713165283	fix_post	2		12.0	67.0	2.5	/experiments/knapen_aot/videos/R_S_yt-9NV8zv2Sdq4_30.mp4	0.0	262.1122760772705	0.09993696212768555
70	197.72036409378052	fix_pre	0		22.0	68.0	2.5	/experiments/knapen_aot/videos/S_yt-ZwnliF0525U_95.mp4	0.0	262.2122130393982	0.1832890510559082
70	197.88794016838074	response	0	4		68.0	2.5	/experiments/knapen_aot/videos/S_yt-ZwnliF0525U_95.mp4	0.0	262.3797891139984	
70	197.90365314483643	movie	1		301.0	68.0	2.5	/experiments/knapen_aot/videos/S_yt-ZwnliF0525U_95.mp4	0.0	262.3955020904541	2.508391857147217
70	200.41204500198364	fix_post	2		12.0	68.0	2.5	/experiments/knapen_aot/videos/S_yt-ZwnliF0525U_95.mp4	0.0	264.9038939476013	0.09998607635498047
71	200.51203107833862	fix_pre	0		12.0	69.0	2.5	/experiments/knapen_aot/videos/R_S_yt-OrTpetjDNKs_31.mp4	0.0	265.0038800239563	0.09994292259216309
71	200.6038830280304	response	0	4		69.0	2.5	/experiments/knapen_aot/videos/R_S_yt-OrTpetjDNKs_31.mp4	0.0	265.09573197364807	
71	200.6119740009308	movie	1		301.0	69.0	2.5	/experiments/knapen_aot/videos/R_S_yt-OrTpetjDNKs_31.mp4	0.0	265.10382294654846	2.508410930633545
71	203.12038493156433	fix_post	2		12.0	69.0	2.5	/experiments/knapen_aot/videos/R_S_yt-OrTpetjDNKs_31.mp4	0.0	267.612233877182	0.09997820854187012
71	203.21215295791626	response	2	4		69.0	2.5	/experiments/knapen_aot/videos/R_S_yt-OrTpetjDNKs_31.mp4	0.0	267.70400190353394	
72	203.2203631401062	fix_pre	0		173.0	70.0	2.5	blank	1.0	267.7122120857239	1.4415500164031982
72	204.65369701385498	response	0	4		70.0	2.5	blank	1.0	269.14554595947266	
72	204.6619131565094	movie	1		301.0	70.0	2.5	blank	1.0	269.1537621021271	2.5084729194641113
72	207.1703860759735	fix_post	2		12.0	70.0	2.5	blank	1.0	271.6622350215912	0.09995388984680176
73	207.2703399658203	fix_pre	0		26.0	71.0	2.5	/experiments/knapen_aot/videos/S_OdxWh1oU8e8_1.mp4	0.0	271.762188911438	0.21663403511047363
73	207.4787859916687	response	0	4		71.0	2.5	/experiments/knapen_aot/videos/S_OdxWh1oU8e8_1.mp4	0.0	271.9706349372864	
73	207.4869740009308	movie	1		300.0	71.0	2.5	/experiments/knapen_aot/videos/S_OdxWh1oU8e8_1.mp4	0.0	271.97882294654846	2.5083179473876953
73	209.99529194831848	fix_post	2		12.0	71.0	2.5	/experiments/knapen_aot/videos/S_OdxWh1oU8e8_1.mp4	0.0	274.48714089393616	0.10004901885986328
74	210.09534096717834	fix_pre	0		22.0	72.0	2.5	/experiments/knapen_aot/videos/R_S_yt-hHdxZ26SImA_17.mp4	0.0	274.587189912796	0.18323302268981934
74	210.2703731060028	response	0	4		72.0	2.5	/experiments/knapen_aot/videos/R_S_yt-hHdxZ26SImA_17.mp4	0.0	274.7622220516205	
74	210.27857398986816	movie	1		301.0	72.0	2.5	/experiments/knapen_aot/videos/R_S_yt-hHdxZ26SImA_17.mp4	0.0	274.77042293548584	2.508376121520996
74	212.78695011138916	fix_post	2		12.0	72.0	2.5	/experiments/knapen_aot/videos/R_S_yt-hHdxZ26SImA_17.mp4	0.0	277.27879905700684	0.10000205039978027
75	212.88695216178894	fix_pre	0		26.0	73.0	2.5	/experiments/knapen_aot/videos/S_yt-osdlC1buTaM_4.mp4	0.0	277.3788011074066	0.21670079231262207
75	213.09546399116516	response	0	4		73.0	2.5	/experiments/knapen_aot/videos/S_yt-osdlC1buTaM_4.mp4	0.0	277.58731293678284	
75	213.10365295410156	movie	1		301.0	73.0	2.5	/experiments/knapen_aot/videos/S_yt-osdlC1buTaM_4.mp4	0.0	277.59550189971924	2.5083022117614746
75	215.61195516586304	fix_post	2		12.0	73.0	2.5	/experiments/knapen_aot/videos/S_yt-osdlC1buTaM_4.mp4	0.0	280.1038041114807	0.09990286827087402
76	215.7118580341339	fix_pre	0		22.0	74.0	2.5	/experiments/knapen_aot/videos/S_yt-JTuopUgmg1w_101.mp4	0.0	280.2037069797516	0.18514490127563477
76	215.8870029449463	response	0	4		74.0	2.5	/experiments/knapen_aot/videos/S_yt-JTuopUgmg1w_101.mp4	0.0	280.37885189056396	
76	215.89700293540955	movie	1		301.0	74.0	2.5	/experiments/knapen_aot/videos/S_yt-JTuopUgmg1w_101.mp4	0.0	280.3888518810272	2.5065460205078125
76	218.40354895591736	fix_post	2		12.0	74.0	2.5	/experiments/knapen_aot/videos/S_yt-JTuopUgmg1w_101.mp4	0.0	282.89539790153503	0.10006904602050781
77	218.50361800193787	fix_pre	0		12.0	75.0	2.5	/experiments/knapen_aot/videos/S_yt-Nnt51ug6NF8_53.mp4	0.0	282.99546694755554	0.09998893737792969
77	218.595379114151	response	0	4		75.0	2.5	/experiments/knapen_aot/videos/S_yt-Nnt51ug6NF8_53.mp4	0.0	283.0872280597687	
77	218.6036069393158	movie	1		301.0	75.0	2.5	/experiments/knapen_aot/videos/S_yt-Nnt51ug6NF8_53.mp4	0.0	283.0954558849335	2.508230209350586
77	221.11183714866638	fix_post	2		12.0	75.0	2.5	/experiments/knapen_aot/videos/S_yt-Nnt51ug6NF8_53.mp4	0.0	285.60368609428406	0.10004281997680664
78	221.2118799686432	fix_pre	0		26.0	76.0	2.5	/experiments/knapen_aot/videos/R_S_yt-kKRGgUhVRzc_74.mp4	0.0	285.70372891426086	0.21668696403503418
78	221.42034316062927	response	0	4		76.0	2.5	/experiments/knapen_aot/videos/R_S_yt-kKRGgUhVRzc_74.mp4	0.0	285.91219210624695	
78	221.42856693267822	movie	1		301.0	76.0	2.5	/experiments/knapen_aot/videos/R_S_yt-kKRGgUhVRzc_74.mp4	0.0	285.9204158782959	2.5082430839538574
78	223.93681001663208	fix_post	2		12.0	76.0	2.5	/experiments/knapen_aot/videos/R_S_yt-kKRGgUhVRzc_74.mp4	0.0	288.42865896224976	0.10010099411010742
79	224.0369110107422	fix_pre	0		13.0	77.0	2.5	blank	1.0	288.52875995635986	0.10832405090332031
79	224.1295609474182	response	0	4		77.0	2.5	blank	1.0	288.6214098930359	
79	224.1452350616455	movie	1		301.0	77.0	2.5	blank	1.0	288.6370840072632	2.5083611011505127
79	226.65359616279602	fix_post	2		12.0	77.0	2.5	blank	1.0	291.1454451084137	0.09994983673095703
80	226.75354599952698	fix_pre	0		30.0	78.0	2.5	/experiments/knapen_aot/videos/S_yt-VjTiMtjdjTw_103.mp4	0.0	291.24539494514465	0.2509269714355469
80	226.9953420162201	response	0	4		78.0	2.5	/experiments/knapen_aot/videos/S_yt-VjTiMtjdjTw_103.mp4	0.0	291.48719096183777	
80	227.00447297096252	movie	1		301.0	78.0	2.5	/experiments/knapen_aot/videos/S_yt-VjTiMtjdjTw_103.mp4	0.0	291.4963219165802	2.507439136505127
80	229.51191210746765	fix_post	2		12.0	78.0	2.5	/experiments/knapen_aot/videos/S_yt-VjTiMtjdjTw_103.mp4	0.0	294.0037610530853	0.0999460220336914
81	229.61185812950134	fix_pre	0		18.0	79.0	2.5	/experiments/knapen_aot/videos/S_yt-4oacL3aXtlU_11.mp4	0.0	294.103707075119	0.15005898475646973
81	229.75377106666565	response	0	4		79.0	2.5	/experiments/knapen_aot/videos/S_yt-4oacL3aXtlU_11.mp4	0.0	294.2456200122833	
81	229.7619171142578	movie	1		301.0	79.0	2.5	/experiments/knapen_aot/videos/S_yt-4oacL3aXtlU_11.mp4	0.0	294.2537660598755	2.5083248615264893
81	232.2702419757843	fix_post	2		12.0	79.0	2.5	/experiments/knapen_aot/videos/S_yt-4oacL3aXtlU_11.mp4	0.0	296.762090921402	0.09998917579650879
82	232.3702311515808	fix_pre	0		21.0	80.0	2.5	/experiments/knapen_aot/videos/S_ILSVRC2015_train_00572000.mp4	0.0	296.8620800971985	0.1758418083190918
82	232.5369110107422	response	0	4		80.0	2.5	/experiments/knapen_aot/videos/S_ILSVRC2015_train_00572000.mp4	0.0	297.02875995635986	
82	232.5460729598999	movie	1		300.0	80.0	2.5	/experiments/knapen_aot/videos/S_ILSVRC2015_train_00572000.mp4	0.0	297.0379219055176	2.5074121952056885
82	235.0534851551056	fix_post	2		12.0	80.0	2.5	/experiments/knapen_aot/videos/S_ILSVRC2015_train_00572000.mp4	0.0	299.54533410072327	0.10003399848937988
83	235.15351915359497	fix_pre	0		24.0	81.0	2.5	/experiments/knapen_aot/videos/S_yt-kKRGgUhVRzc_74.mp4	0.0	299.64536809921265	0.19998598098754883
83	235.34524393081665	response	0	4		81.0	2.5	/experiments/knapen_aot/videos/S_yt-kKRGgUhVRzc_74.mp4	0.0	299.8370928764343	
83	235.35350513458252	movie	1		301.0	81.0	2.5	/experiments/knapen_aot/videos/S_yt-kKRGgUhVRzc_74.mp4	0.0	299.8453540802002	2.508344888687134
83	237.86185002326965	fix_post	2		12.0	81.0	2.5	/experiments/knapen_aot/videos/S_yt-kKRGgUhVRzc_74.mp4	0.0	302.35369896888733	0.09998011589050293
84	237.96183013916016	fix_pre	0		28.0	82.0	2.5	/experiments/knapen_aot/videos/S_pexels-sora-shimazaki-5925295.mp4	0.0	302.45367908477783	0.23329782485961914
84	238.18699407577515	response	0	4		82.0	2.5	/experiments/knapen_aot/videos/S_pexels-sora-shimazaki-5925295.mp4	0.0	302.6788430213928	
84	238.19512796401978	movie	1		166.0	82.0	2.5	/experiments/knapen_aot/videos/S_pexels-sora-shimazaki-5925295.mp4	0.0	302.68697690963745	2.5083470344543457
84	240.70347499847412	fix_post	2		12.0	82.0	2.5	/experiments/knapen_aot/videos/S_pexels-sora-shimazaki-5925295.mp4	0.0	305.1953239440918	0.09998297691345215
85	240.80345797538757	fix_pre	0		10.0	83.0	2.5	blank	1.0	305.29530692100525	0.08333110809326172
85	240.87867403030396	response	0	4		83.0	2.5	blank	1.0	305.37052297592163	
85	240.88678908348083	movie	1		301.0	83.0	2.5	blank	1.0	305.3786380290985	2.508370876312256
85	243.3951599597931	fix_post	2		12.0	83.0	2.5	blank	1.0	307.88700890541077	0.10001897811889648
87	243.495178937912	stim	0		155.0					307.98702788352966	1.293870210647583
87	243.6712930202484	response	0	4						308.1631419658661	
87	244.77598905563354	response	0	space						309.2678380012512	
