trial_nr	onset	event_type	phase	response	nr_frames	movie_index	movie_duration	movie_file	blank	onset_abs	duration
0	0.12728095054626465	stim	0		38.0					100.46803307533264	0.31723904609680176
0	0.4356248378753662	response	0	space						100.77637696266174	
1	0.4445199966430664	stim	0		121.0					100.78527212142944	1.0074708461761475
1	1.4519908428192139	stim	1		120.0					101.79274296760559	0.9998400211334229
1	2.243668794631958	response	1	space						102.58442091941833	
2	2.4518308639526367	fix_pre	0		19.0	0.0	2.5	/experiments/knapen_aot/videos/S_pexels-mikhail-nilov-8410063_1.mp4	0.0	102.79258298873901	0.15895605087280273
2	2.5944979190826416	response	0	space		0.0	2.5	/experiments/knapen_aot/videos/S_pexels-mikhail-nilov-8410063_1.mp4	0.0	102.93525004386902	
2	2.6107869148254395	movie	1		162.0	0.0	2.5	/experiments/knapen_aot/videos/S_pexels-mikhail-nilov-8410063_1.mp4	0.0	102.95153903961182	2.5077478885650635
2	5.118534803390503	fix_post	2		12.0	0.0	2.5	/experiments/knapen_aot/videos/S_pexels-mikhail-nilov-8410063_1.mp4	0.0	105.45928692817688	0.10004806518554688
3	5.21858286857605	fix_pre	0		32.0	1.0	2.5	/experiments/knapen_aot/videos/S_yt-Bx2kLEUuN0E_456.mp4	0.0	105.55933499336243	0.267164945602417
3	5.481510877609253	response	0	2		1.0	2.5	/experiments/knapen_aot/videos/S_yt-Bx2kLEUuN0E_456.mp4	0.0	105.82226300239563	
3	5.485747814178467	movie	1		297.0	1.0	2.5	/experiments/knapen_aot/videos/S_yt-Bx2kLEUuN0E_456.mp4	0.0	105.82649993896484	2.507775068283081
3	7.993522882461548	fix_post	2		12.0	1.0	2.5	/experiments/knapen_aot/videos/S_yt-Bx2kLEUuN0E_456.mp4	0.0	108.33427500724792	0.10022711753845215
4	8.09375	fix_pre	0		245.0	2.0	2.5	/experiments/knapen_aot/videos/S_yt-gaXgXGEanCk_140.mp4	0.0	108.43450212478638	2.0414090156555176
4	10.126917839050293	response	0	2		2.0	2.5	/experiments/knapen_aot/videos/S_yt-gaXgXGEanCk_140.mp4	0.0	110.46766996383667	
4	10.135159015655518	movie	1		301.0	2.0	2.5	/experiments/knapen_aot/videos/S_yt-gaXgXGEanCk_140.mp4	0.0	110.4759111404419	2.508389949798584
4	12.643548965454102	fix_post	2		12.0	2.0	2.5	/experiments/knapen_aot/videos/S_yt-gaXgXGEanCk_140.mp4	0.0	112.98430109024048	0.09993100166320801
5	12.74347996711731	fix_pre	0		98.0	3.0	2.5	/experiments/knapen_aot/videos/R_S_production_ID_3927047.mp4	0.0	113.08423209190369	0.8166358470916748
5	13.551950931549072	response	0	2		3.0	2.5	/experiments/knapen_aot/videos/R_S_production_ID_3927047.mp4	0.0	113.89270305633545	
5	13.560115814208984	movie	1		189.0	3.0	2.5	/experiments/knapen_aot/videos/R_S_production_ID_3927047.mp4	0.0	113.90086793899536	2.5083789825439453
5	16.06849479675293	fix_post	2		12.0	3.0	2.5	/experiments/knapen_aot/videos/R_S_production_ID_3927047.mp4	0.0	116.4092469215393	0.10004520416259766
6	16.168540000915527	fix_pre	0		129.0	4.0	2.5	/experiments/knapen_aot/videos/S_yt-mmvWYAttrIw_2.mp4	0.0	116.5092921257019	1.074894905090332
6	17.23527693748474	response	0	2		4.0	2.5	/experiments/knapen_aot/videos/S_yt-mmvWYAttrIw_2.mp4	0.0	117.57602906227112	
6	17.24343490600586	movie	1		301.0	4.0	2.5	/experiments/knapen_aot/videos/S_yt-mmvWYAttrIw_2.mp4	0.0	117.58418703079224	2.508328914642334
6	19.751763820648193	fix_post	2		12.0	4.0	2.5	/experiments/knapen_aot/videos/S_yt-mmvWYAttrIw_2.mp4	0.0	120.09251594543457	0.10003209114074707
7	19.85179591178894	fix_pre	0		17.0	5.0	2.5	blank	1.0	120.19254803657532	0.14163494110107422
7	19.985416889190674	response	0	2		5.0	2.5	blank	1.0	120.32616901397705	
7	19.993430852890015	movie	1		301.0	5.0	2.5	blank	1.0	120.33418297767639	2.5085489749908447
7	22.50197982788086	fix_post	2		12.0	5.0	2.5	blank	1.0	122.84273195266724	0.09981107711791992
8	22.60179090499878	fix_pre	0		102.0	6.0	2.5	/experiments/knapen_aot/videos/R_S_yt--a-d97T4Gak_75.mp4	0.0	122.94254302978516	0.8499178886413574
8	23.44351100921631	response	0	2		6.0	2.5	/experiments/knapen_aot/videos/R_S_yt--a-d97T4Gak_75.mp4	0.0	123.78426313400269	
8	23.451708793640137	movie	1		301.0	6.0	2.5	/experiments/knapen_aot/videos/R_S_yt--a-d97T4Gak_75.mp4	0.0	123.79246091842651	2.50835919380188
8	25.960067987442017	fix_post	2		12.0	6.0	2.5	/experiments/knapen_aot/videos/R_S_yt--a-d97T4Gak_75.mp4	0.0	126.3008201122284	0.10024690628051758
9	26.060314893722534	fix_pre	0		36.0	7.0	2.5	/experiments/knapen_aot/videos/S_yt--UhwpukdyBg_51.mp4	0.0	126.40106701850891	0.3002200126647949
9	26.351836919784546	response	0	2		7.0	2.5	/experiments/knapen_aot/videos/S_yt--UhwpukdyBg_51.mp4	0.0	126.69258904457092	
9	26.36053490638733	movie	1		301.0	7.0	2.5	/experiments/knapen_aot/videos/S_yt--UhwpukdyBg_51.mp4	0.0	126.7012870311737	2.507901906967163
9	28.868436813354492	fix_post	2		12.0	7.0	2.5	/experiments/knapen_aot/videos/S_yt--UhwpukdyBg_51.mp4	0.0	129.20918893814087	0.09999418258666992
10	28.968430995941162	fix_pre	0		114.0	8.0	2.5	/experiments/knapen_aot/videos/R_S_comp_DB_D002_C003_PSNK_v04_SDR_PS_20180914_SDR_2K_AVC.mp4	0.0	129.30918312072754	0.9500148296356201
10	29.902747869491577	response	0	2		8.0	2.5	/experiments/knapen_aot/videos/R_S_comp_DB_D002_C003_PSNK_v04_SDR_PS_20180914_SDR_2K_AVC.mp4	0.0	130.24349999427795	
10	29.918445825576782	movie	1		190.0	8.0	2.5	/experiments/knapen_aot/videos/R_S_comp_DB_D002_C003_PSNK_v04_SDR_PS_20180914_SDR_2K_AVC.mp4	0.0	130.25919795036316	2.508679151535034
10	32.427124977111816	fix_post	2		12.0	8.0	2.5	/experiments/knapen_aot/videos/R_S_comp_DB_D002_C003_PSNK_v04_SDR_PS_20180914_SDR_2K_AVC.mp4	0.0	132.7678771018982	0.0995779037475586
11	32.526702880859375	fix_pre	0		53.0	9.0	2.5	/experiments/knapen_aot/videos/S_yt-SCzpSxzt0TA_46.mp4	0.0	132.86745500564575	0.4416370391845703
11	32.960196018218994	response	0	2		9.0	2.5	/experiments/knapen_aot/videos/S_yt-SCzpSxzt0TA_46.mp4	0.0	133.30094814300537	
11	32.968339920043945	movie	1		301.0	9.0	2.5	/experiments/knapen_aot/videos/S_yt-SCzpSxzt0TA_46.mp4	0.0	133.30909204483032	2.508362054824829
11	35.476701974868774	fix_post	2		12.0	9.0	2.5	/experiments/knapen_aot/videos/S_yt-SCzpSxzt0TA_46.mp4	0.0	135.81745409965515	0.10010480880737305
12	35.57680678367615	fix_pre	0		71.0	10.0	2.5	/experiments/knapen_aot/videos/S_yt-w5lh_rKyKtE_21.mp4	0.0	135.91755890846252	0.5915682315826416
12	36.160149812698364	response	0	2		10.0	2.5	/experiments/knapen_aot/videos/S_yt-w5lh_rKyKtE_21.mp4	0.0	136.50090193748474	
12	36.16837501525879	movie	1		301.0	10.0	2.5	/experiments/knapen_aot/videos/S_yt-w5lh_rKyKtE_21.mp4	0.0	136.50912714004517	2.508492946624756
12	38.676867961883545	fix_post	2		12.0	10.0	2.5	/experiments/knapen_aot/videos/S_yt-w5lh_rKyKtE_21.mp4	0.0	139.01762008666992	0.0998539924621582
13	38.7767219543457	fix_pre	0		34.0	11.0	2.5	/experiments/knapen_aot/videos/S_yt-MWX0EtpWIs8_286.mp4	0.0	139.11747407913208	0.283336877822876
13	39.044344902038574	response	0	2		11.0	2.5	/experiments/knapen_aot/videos/S_yt-MWX0EtpWIs8_286.mp4	0.0	139.38509702682495	
13	39.06005883216858	movie	1		301.0	11.0	2.5	/experiments/knapen_aot/videos/S_yt-MWX0EtpWIs8_286.mp4	0.0	139.40081095695496	2.5084400177001953
13	41.568498849868774	fix_post	2		12.0	11.0	2.5	/experiments/knapen_aot/videos/S_yt-MWX0EtpWIs8_286.mp4	0.0	141.90925097465515	0.09992313385009766
14	41.66842198371887	fix_pre	0		54.0	12.0	2.5	blank	1.0	142.00917410850525	0.4500110149383545
14	42.11020088195801	response	0	2		12.0	2.5	blank	1.0	142.45095300674438	
14	42.11843299865723	movie	1		301.0	12.0	2.5	blank	1.0	142.4591851234436	2.508288860321045
14	44.62672185897827	fix_post	2		12.0	12.0	2.5	blank	1.0	144.96747398376465	0.10001707077026367
15	44.726738929748535	fix_pre	0		60.0	13.0	2.5	/experiments/knapen_aot/videos/R_S_yt-GWOOQZ19-oU_331.mp4	0.0	145.0674910545349	0.49994897842407227
15	45.21855092048645	response	0	2		13.0	2.5	/experiments/knapen_aot/videos/R_S_yt-GWOOQZ19-oU_331.mp4	0.0	145.55930304527283	
15	45.22668790817261	movie	1		301.0	13.0	2.5	/experiments/knapen_aot/videos/R_S_yt-GWOOQZ19-oU_331.mp4	0.0	145.56744003295898	2.508263111114502
15	47.73495101928711	fix_post	2		12.0	13.0	2.5	/experiments/knapen_aot/videos/R_S_yt-GWOOQZ19-oU_331.mp4	0.0	148.0757031440735	0.10011982917785645
16	47.835070848464966	fix_pre	0		45.0	14.0	2.5	/experiments/knapen_aot/videos/S_yt-w5lh_rKyKtE_21.mp4	0.0	148.17582297325134	0.37497711181640625
16	48.201854944229126	response	0	2		14.0	2.5	/experiments/knapen_aot/videos/S_yt-w5lh_rKyKtE_21.mp4	0.0	148.5426070690155	
16	48.21004796028137	movie	1		301.0	14.0	2.5	/experiments/knapen_aot/videos/S_yt-w5lh_rKyKtE_21.mp4	0.0	148.55080008506775	2.5083999633789062
16	50.61210799217224	response	1	2		14.0	2.5	/experiments/knapen_aot/videos/S_yt-w5lh_rKyKtE_21.mp4	0.0	150.95286011695862	
16	50.71844792366028	fix_post	2		12.0	14.0	2.5	/experiments/knapen_aot/videos/S_yt-w5lh_rKyKtE_21.mp4	0.0	151.05920004844666	0.09990787506103516
17	50.81835579872131	fix_pre	0		159.0	15.0	2.5	/experiments/knapen_aot/videos/R_S_yt-qxtmtMnUfD0_124.mp4	0.0	151.1591079235077	1.3249130249023438
17	52.13503694534302	response	0	2		15.0	2.5	/experiments/knapen_aot/videos/R_S_yt-qxtmtMnUfD0_124.mp4	0.0	152.4757890701294	
17	52.14326882362366	movie	1		301.0	15.0	2.5	/experiments/knapen_aot/videos/R_S_yt-qxtmtMnUfD0_124.mp4	0.0	152.48402094841003	2.5083870887756348
17	54.65165591239929	fix_post	2		12.0	15.0	2.5	/experiments/knapen_aot/videos/R_S_yt-qxtmtMnUfD0_124.mp4	0.0	154.99240803718567	0.10011792182922363
18	54.751773834228516	fix_pre	0		30.0	16.0	2.5	/experiments/knapen_aot/videos/S_yt-npaE4fe6A6Y_26.mp4	0.0	155.0925259590149	0.24986505508422852
18	54.993390798568726	response	0	2		16.0	2.5	/experiments/knapen_aot/videos/S_yt-npaE4fe6A6Y_26.mp4	0.0	155.3341429233551	
18	55.001638889312744	movie	1		301.0	16.0	2.5	/experiments/knapen_aot/videos/S_yt-npaE4fe6A6Y_26.mp4	0.0	155.34239101409912	2.5083699226379395
18	57.510008811950684	fix_post	2		12.0	16.0	2.5	/experiments/knapen_aot/videos/S_yt-npaE4fe6A6Y_26.mp4	0.0	157.85076093673706	0.0999600887298584
19	57.60996890068054	fix_pre	0		38.0	17.0	2.5	/experiments/knapen_aot/videos/R_S_pexels-kindel-media-8165572.mp4	0.0	157.95072102546692	0.3166310787200928
19	57.918561935424805	response	0	2		17.0	2.5	/experiments/knapen_aot/videos/R_S_pexels-kindel-media-8165572.mp4	0.0	158.25931406021118	
19	57.926599979400635	movie	1		167.0	17.0	2.5	/experiments/knapen_aot/videos/R_S_pexels-kindel-media-8165572.mp4	0.0	158.267352104187	2.5083680152893066
19	60.43496799468994	fix_post	2		12.0	17.0	2.5	/experiments/knapen_aot/videos/R_S_pexels-kindel-media-8165572.mp4	0.0	160.77572011947632	0.10001683235168457
20	60.534984827041626	fix_pre	0		32.0	18.0	2.5	/experiments/knapen_aot/videos/R_S_yt-b7bIulV49DQ_81.mp4	0.0	160.875736951828	0.26660609245300293
20	60.793437004089355	response	0	2		18.0	2.5	/experiments/knapen_aot/videos/R_S_yt-b7bIulV49DQ_81.mp4	0.0	161.13418912887573	
20	60.80159091949463	movie	1		301.0	18.0	2.5	/experiments/knapen_aot/videos/R_S_yt-b7bIulV49DQ_81.mp4	0.0	161.142343044281	2.5084428787231445
20	63.31003379821777	fix_post	2		12.0	18.0	2.5	/experiments/knapen_aot/videos/R_S_yt-b7bIulV49DQ_81.mp4	0.0	163.65078592300415	0.09986519813537598
21	63.40989899635315	fix_pre	0		64.0	19.0	2.5	/experiments/knapen_aot/videos/S_yt-N7ztk2fa3Ls_137.mp4	0.0	163.75065112113953	0.5336189270019531
21	63.93509101867676	response	0	2		19.0	2.5	/experiments/knapen_aot/videos/S_yt-N7ztk2fa3Ls_137.mp4	0.0	164.27584314346313	
21	63.9435179233551	movie	1		301.0	19.0	2.5	/experiments/knapen_aot/videos/S_yt-N7ztk2fa3Ls_137.mp4	0.0	164.28427004814148	2.508089065551758
21	66.45160698890686	fix_post	2		12.0	19.0	2.5	/experiments/knapen_aot/videos/S_yt-N7ztk2fa3Ls_137.mp4	0.0	166.79235911369324	0.10013985633850098
22	66.55174684524536	fix_pre	0		96.0	20.0	2.5	/experiments/knapen_aot/videos/S_S003_C020_SDR_2K_AVC.mp4	0.0	166.89249897003174	0.7998499870300293
22	67.34342980384827	response	0	2		20.0	2.5	/experiments/knapen_aot/videos/S_S003_C020_SDR_2K_AVC.mp4	0.0	167.68418192863464	
22	67.35159683227539	movie	1		169.0	20.0	2.5	/experiments/knapen_aot/videos/S_S003_C020_SDR_2K_AVC.mp4	0.0	167.69234895706177	2.5085880756378174
22	69.86018490791321	fix_post	2		12.0	20.0	2.5	/experiments/knapen_aot/videos/S_S003_C020_SDR_2K_AVC.mp4	0.0	170.20093703269958	0.09980201721191406
23	69.95998692512512	fix_pre	0		63.0	21.0	2.5	blank	1.0	170.3007390499115	0.5252220630645752
23	70.47678899765015	response	0	2		21.0	2.5	blank	1.0	170.81754112243652	
23	70.4852089881897	movie	1		301.0	21.0	2.5	blank	1.0	170.82596111297607	2.508060932159424
23	72.99326992034912	fix_post	2		12.0	21.0	2.5	blank	1.0	173.3340220451355	0.10000896453857422
24	73.0932788848877	fix_pre	0		70.0	22.0	2.5	/experiments/knapen_aot/videos/S_yt-0lfSyC79n14_7.mp4	0.0	173.43403100967407	0.5832970142364502
24	73.66842198371887	response	0	2		22.0	2.5	/experiments/knapen_aot/videos/S_yt-0lfSyC79n14_7.mp4	0.0	174.00917410850525	
24	73.67657589912415	movie	1		301.0	22.0	2.5	/experiments/knapen_aot/videos/S_yt-0lfSyC79n14_7.mp4	0.0	174.01732802391052	2.508373975753784
24	76.18494987487793	fix_post	2		12.0	22.0	2.5	/experiments/knapen_aot/videos/S_yt-0lfSyC79n14_7.mp4	0.0	176.5257019996643	0.10000491142272949
25	76.28495478630066	fix_pre	0		77.0	23.0	2.5	/experiments/knapen_aot/videos/S_yt-qYuLW5vSotM_160.mp4	0.0	176.62570691108704	0.6416242122650146
25	76.91844487190247	response	0	2		23.0	2.5	/experiments/knapen_aot/videos/S_yt-qYuLW5vSotM_160.mp4	0.0	177.25919699668884	
25	76.92657899856567	movie	1		301.0	23.0	2.5	/experiments/knapen_aot/videos/S_yt-qYuLW5vSotM_160.mp4	0.0	177.26733112335205	2.5085480213165283
25	79.4351270198822	fix_post	2		12.0	23.0	2.5	/experiments/knapen_aot/videos/S_yt-qYuLW5vSotM_160.mp4	0.0	179.77587914466858	0.09976482391357422
26	79.53489184379578	fix_pre	0		39.0	24.0	2.5	/experiments/knapen_aot/videos/R_S_yt-aiwDdJm1ek8_90.mp4	0.0	179.87564396858215	0.32521915435791016
26	79.85168886184692	response	0	2		24.0	2.5	/experiments/knapen_aot/videos/R_S_yt-aiwDdJm1ek8_90.mp4	0.0	180.1924409866333	
26	79.86011099815369	movie	1		301.0	24.0	2.5	/experiments/knapen_aot/videos/R_S_yt-aiwDdJm1ek8_90.mp4	0.0	180.20086312294006	2.5081629753112793
26	82.36827397346497	fix_post	2		12.0	24.0	2.5	/experiments/knapen_aot/videos/R_S_yt-aiwDdJm1ek8_90.mp4	0.0	182.70902609825134	0.09997391700744629
27	82.46824789047241	fix_pre	0		80.0	25.0	2.5	/experiments/knapen_aot/videos/R_S_yt-QXsedpZh800_275.mp4	0.0	182.8090000152588	0.6666281223297119
27	83.11918687820435	response	0	2		25.0	2.5	/experiments/knapen_aot/videos/R_S_yt-QXsedpZh800_275.mp4	0.0	183.45993900299072	
27	83.13487601280212	movie	1		301.0	25.0	2.5	/experiments/knapen_aot/videos/R_S_yt-QXsedpZh800_275.mp4	0.0	183.4756281375885	2.5084049701690674
27	85.64328098297119	fix_post	2		12.0	25.0	2.5	/experiments/knapen_aot/videos/R_S_yt-QXsedpZh800_275.mp4	0.0	185.98403310775757	0.09992289543151855
28	85.74320387840271	fix_pre	0		75.0	26.0	2.5	/experiments/knapen_aot/videos/R_S_yt-qxtmtMnUfD0_124.mp4	0.0	186.0839560031891	0.625
28	86.36004686355591	response	0	2		26.0	2.5	/experiments/knapen_aot/videos/R_S_yt-qxtmtMnUfD0_124.mp4	0.0	186.70079898834229	
28	86.36820387840271	movie	1		301.0	26.0	2.5	/experiments/knapen_aot/videos/R_S_yt-qxtmtMnUfD0_124.mp4	0.0	186.7089560031891	2.5083320140838623
28	88.87653589248657	fix_post	2		12.0	26.0	2.5	/experiments/knapen_aot/videos/R_S_yt-qxtmtMnUfD0_124.mp4	0.0	189.21728801727295	0.10002398490905762
29	88.97655987739563	fix_pre	0		25.0	27.0	2.5	/experiments/knapen_aot/videos/R_S_video_inspire_california_catalina_00005.1080-h264.mp4	0.0	189.317312002182	0.20832014083862305
29	89.1766619682312	response	0	2		27.0	2.5	/experiments/knapen_aot/videos/R_S_video_inspire_california_catalina_00005.1080-h264.mp4	0.0	189.51741409301758	
29	89.18488001823425	movie	1		167.0	27.0	2.5	/experiments/knapen_aot/videos/R_S_video_inspire_california_catalina_00005.1080-h264.mp4	0.0	189.52563214302063	2.5084989070892334
29	91.69337892532349	fix_post	2		12.0	27.0	2.5	/experiments/knapen_aot/videos/R_S_video_inspire_california_catalina_00005.1080-h264.mp4	0.0	192.03413105010986	0.09983301162719727
30	91.79321193695068	fix_pre	0		32.0	28.0	2.5	blank	1.0	192.13396406173706	0.2666640281677246
30	92.05159783363342	response	0	2		28.0	2.5	blank	1.0	192.3923499584198	
30	92.05987596511841	movie	1		301.0	28.0	2.5	blank	1.0	192.40062808990479	2.5084588527679443
30	94.56833481788635	fix_post	2		12.0	28.0	2.5	blank	1.0	194.90908694267273	0.09972119331359863
30	94.65244579315186	response	2	2		28.0	2.5	blank	1.0	194.99319791793823	
31	94.66805601119995	fix_pre	0		146.0	29.0	2.5	/experiments/knapen_aot/videos/R_S_yt-Pc1ZlCvsPpc_5.mp4	0.0	195.00880813598633	1.2167158126831055
31	95.8691668510437	response	0	2		29.0	2.5	/experiments/knapen_aot/videos/R_S_yt-Pc1ZlCvsPpc_5.mp4	0.0	196.20991897583008	
31	95.88477182388306	movie	1		301.0	29.0	2.5	/experiments/knapen_aot/videos/R_S_yt-Pc1ZlCvsPpc_5.mp4	0.0	196.22552394866943	2.5083861351013184
31	98.39315795898438	fix_post	2		12.0	29.0	2.5	/experiments/knapen_aot/videos/R_S_yt-Pc1ZlCvsPpc_5.mp4	0.0	198.73391008377075	0.09999394416809082
32	98.49315190315247	fix_pre	0		66.0	30.0	2.5	/experiments/knapen_aot/videos/S_yt-gDZnJCR2uXI_18.mp4	0.0	198.83390402793884	0.5500779151916504
32	99.03494095802307	response	0	2		30.0	2.5	/experiments/knapen_aot/videos/S_yt-gDZnJCR2uXI_18.mp4	0.0	199.37569308280945	
32	99.04322981834412	movie	1		301.0	30.0	2.5	/experiments/knapen_aot/videos/S_yt-gDZnJCR2uXI_18.mp4	0.0	199.3839819431305	2.508186101913452
32	101.55141592025757	fix_post	2		12.0	30.0	2.5	/experiments/knapen_aot/videos/S_yt-gDZnJCR2uXI_18.mp4	0.0	201.89216804504395	0.10022592544555664
33	101.65164184570312	fix_pre	0		158.0	31.0	2.5	/experiments/knapen_aot/videos/R_S_ILSVRC2015_train_00165008.mp4	0.0	201.9923939704895	1.316404104232788
33	102.95991492271423	response	0	2		31.0	2.5	/experiments/knapen_aot/videos/R_S_ILSVRC2015_train_00165008.mp4	0.0	203.3006670475006	
33	102.96804594993591	movie	1		301.0	31.0	2.5	/experiments/knapen_aot/videos/R_S_ILSVRC2015_train_00165008.mp4	0.0	203.3087980747223	2.5083799362182617
33	105.47642588615417	fix_post	2		12.0	31.0	2.5	/experiments/knapen_aot/videos/R_S_ILSVRC2015_train_00165008.mp4	0.0	205.81717801094055	0.10002994537353516
34	105.57645583152771	fix_pre	0		176.0	32.0	2.5	/experiments/knapen_aot/videos/R_S_yt-LsCCAQ8BRO8_7.mp4	0.0	205.9172079563141	1.466649055480957
34	107.03486490249634	response	0	2		32.0	2.5	/experiments/knapen_aot/videos/R_S_yt-LsCCAQ8BRO8_7.mp4	0.0	207.37561702728271	
34	107.04310488700867	movie	1		301.0	32.0	2.5	/experiments/knapen_aot/videos/R_S_yt-LsCCAQ8BRO8_7.mp4	0.0	207.38385701179504	2.508376121520996
34	109.55148100852966	fix_post	2		12.0	32.0	2.5	/experiments/knapen_aot/videos/R_S_yt-LsCCAQ8BRO8_7.mp4	0.0	209.89223313331604	0.10007286071777344
35	109.65155386924744	fix_pre	0		48.0	33.0	2.5	/experiments/knapen_aot/videos/R_S_yt-MEfljVFL0xw_375.mp4	0.0	209.9923059940338	0.3998229503631592
35	110.04313492774963	response	0	2		33.0	2.5	/experiments/knapen_aot/videos/R_S_yt-MEfljVFL0xw_375.mp4	0.0	210.383887052536	
35	110.0513768196106	movie	1		301.0	33.0	2.5	/experiments/knapen_aot/videos/R_S_yt-MEfljVFL0xw_375.mp4	0.0	210.39212894439697	2.5084121227264404
35	112.55978894233704	fix_post	2		12.0	33.0	2.5	/experiments/knapen_aot/videos/R_S_yt-MEfljVFL0xw_375.mp4	0.0	212.9005410671234	0.09995889663696289
36	112.659747838974	fix_pre	0		77.0	34.0	2.5	/experiments/knapen_aot/videos/R_S_comp_LA_A008_C004_ALTB_ED_FROM_FLAME_RETIME_v46_SDR_PS_20180917_SDR_2K_AVC.mp4	0.0	213.00049996376038	0.641632080078125
36	113.29319500923157	response	0	2		34.0	2.5	/experiments/knapen_aot/videos/R_S_comp_LA_A008_C004_ALTB_ED_FROM_FLAME_RETIME_v46_SDR_PS_20180917_SDR_2K_AVC.mp4	0.0	213.63394713401794	
36	113.30137991905212	movie	1		172.0	34.0	2.5	/experiments/knapen_aot/videos/R_S_comp_LA_A008_C004_ALTB_ED_FROM_FLAME_RETIME_v46_SDR_PS_20180917_SDR_2K_AVC.mp4	0.0	213.6421320438385	2.508413076400757
36	115.80979299545288	fix_post	2		12.0	34.0	2.5	/experiments/knapen_aot/videos/R_S_comp_LA_A008_C004_ALTB_ED_FROM_FLAME_RETIME_v46_SDR_PS_20180917_SDR_2K_AVC.mp4	0.0	216.15054512023926	0.0999460220336914
37	115.90973901748657	fix_pre	0		69.0	35.0	2.5	blank	1.0	216.25049114227295	0.575009822845459
37	116.47660183906555	response	0	2		35.0	2.5	blank	1.0	216.81735396385193	
37	116.48474884033203	movie	1		301.0	35.0	2.5	blank	1.0	216.8255009651184	2.5083539485931396
37	118.30983400344849	response	1	2		35.0	2.5	blank	1.0	218.65058612823486	
37	118.99310278892517	fix_post	2		12.0	35.0	2.5	blank	1.0	219.33385491371155	0.09998321533203125
38	119.0930860042572	fix_pre	0		47.0	36.0	2.5	/experiments/knapen_aot/videos/S_yt-14tjqjjjAEI_15.mp4	0.0	219.43383812904358	0.3916139602661133
38	119.47649884223938	response	0	2		36.0	2.5	/experiments/knapen_aot/videos/S_yt-14tjqjjjAEI_15.mp4	0.0	219.81725096702576	
38	119.48469996452332	movie	1		301.0	36.0	2.5	/experiments/knapen_aot/videos/S_yt-14tjqjjjAEI_15.mp4	0.0	219.8254520893097	2.5084068775177
38	121.99310684204102	fix_post	2		12.0	36.0	2.5	/experiments/knapen_aot/videos/S_yt-14tjqjjjAEI_15.mp4	0.0	222.3338589668274	0.09995412826538086
39	122.0930609703064	fix_pre	0		47.0	37.0	2.5	/experiments/knapen_aot/videos/R_S_ILSVRC2015_train_00559000.mp4	0.0	222.43381309509277	0.39167284965515137
39	122.47658085823059	response	0	2		37.0	2.5	/experiments/knapen_aot/videos/R_S_ILSVRC2015_train_00559000.mp4	0.0	222.81733298301697	
39	122.48473381996155	movie	1		301.0	37.0	2.5	/experiments/knapen_aot/videos/R_S_ILSVRC2015_train_00559000.mp4	0.0	222.82548594474792	2.5085320472717285
39	124.99326586723328	fix_post	2		12.0	37.0	2.5	/experiments/knapen_aot/videos/R_S_ILSVRC2015_train_00559000.mp4	0.0	225.33401799201965	0.0998070240020752
40	125.09307289123535	fix_pre	0		48.0	38.0	2.5	/experiments/knapen_aot/videos/S_yt-o0Hbe7kcPps_70.mp4	0.0	225.43382501602173	0.3999490737915039
40	125.48490285873413	response	0	2		38.0	2.5	/experiments/knapen_aot/videos/S_yt-o0Hbe7kcPps_70.mp4	0.0	225.8256549835205	
40	125.49302196502686	movie	1		301.0	38.0	2.5	/experiments/knapen_aot/videos/S_yt-o0Hbe7kcPps_70.mp4	0.0	225.83377408981323	2.5083930492401123
40	128.00141501426697	fix_post	2		12.0	38.0	2.5	/experiments/knapen_aot/videos/S_yt-o0Hbe7kcPps_70.mp4	0.0	228.34216713905334	0.09997677803039551
41	128.10139179229736	fix_pre	0		108.0	39.0	2.5	/experiments/knapen_aot/videos/R_S_yt-mQESmS4uqRU_208.mp4	0.0	228.44214391708374	0.8999981880187988
41	128.99316382408142	response	0	2		39.0	2.5	/experiments/knapen_aot/videos/R_S_yt-mQESmS4uqRU_208.mp4	0.0	229.3339159488678	
41	129.00138998031616	movie	1		300.0	39.0	2.5	/experiments/knapen_aot/videos/R_S_yt-mQESmS4uqRU_208.mp4	0.0	229.34214210510254	2.5083208084106445
41	131.5097107887268	fix_post	2		12.0	39.0	2.5	/experiments/knapen_aot/videos/R_S_yt-mQESmS4uqRU_208.mp4	0.0	231.85046291351318	0.10001516342163086
42	131.60972595214844	fix_pre	0		103.0	40.0	2.5	/experiments/knapen_aot/videos/R_S_yt-Fm97IY0Z2LU_110.mp4	0.0	231.95047807693481	0.8582818508148193
42	132.4598548412323	response	0	2		40.0	2.5	/experiments/knapen_aot/videos/R_S_yt-Fm97IY0Z2LU_110.mp4	0.0	232.80060696601868	
42	132.46800780296326	movie	1		301.0	40.0	2.5	/experiments/knapen_aot/videos/R_S_yt-Fm97IY0Z2LU_110.mp4	0.0	232.80875992774963	2.508352041244507
42	134.97635984420776	fix_post	2		12.0	40.0	2.5	/experiments/knapen_aot/videos/R_S_yt-Fm97IY0Z2LU_110.mp4	0.0	235.31711196899414	0.09995913505554199
43	135.0763189792633	fix_pre	0		134.0	41.0	2.5	blank	1.0	235.41707110404968	1.116621971130371
43	136.18473982810974	response	0	2		41.0	2.5	blank	1.0	236.52549195289612	
43	136.19294095039368	movie	1		301.0	41.0	2.5	blank	1.0	236.53369307518005	2.5084049701690674
43	138.25975894927979	response	1	2		41.0	2.5	blank	1.0	238.60051107406616	
43	138.70134592056274	fix_post	2		12.0	41.0	2.5	blank	1.0	239.04209804534912	0.09996700286865234
44	138.8013129234314	fix_pre	0		38.0	42.0	2.5	/experiments/knapen_aot/videos/S_yt-v9WGfC67DPk_50.mp4	0.0	239.14206504821777	0.31664490699768066
44	139.10241293907166	response	0	2		42.0	2.5	/experiments/knapen_aot/videos/S_yt-v9WGfC67DPk_50.mp4	0.0	239.44316506385803	
44	139.11795783042908	movie	1		301.0	42.0	2.5	/experiments/knapen_aot/videos/S_yt-v9WGfC67DPk_50.mp4	0.0	239.45870995521545	2.508319139480591
44	141.62627696990967	fix_post	2		12.0	42.0	2.5	/experiments/knapen_aot/videos/S_yt-v9WGfC67DPk_50.mp4	0.0	241.96702909469604	0.10004782676696777
45	141.72632479667664	fix_pre	0		55.0	43.0	2.5	/experiments/knapen_aot/videos/R_S_comp_A009_C001_010181A_v09_SDR_PS_FINAL_20180725_SDR_2K_AVC.mp4	0.0	242.067076921463	0.4582850933074951
45	142.17638778686523	response	0	2		43.0	2.5	/experiments/knapen_aot/videos/R_S_comp_A009_C001_010181A_v09_SDR_PS_FINAL_20180725_SDR_2K_AVC.mp4	0.0	242.5171399116516	
45	142.18460988998413	movie	1		165.0	43.0	2.5	/experiments/knapen_aot/videos/R_S_comp_A009_C001_010181A_v09_SDR_PS_FINAL_20180725_SDR_2K_AVC.mp4	0.0	242.5253620147705	2.5083041191101074
45	144.69291400909424	fix_post	2		12.0	43.0	2.5	/experiments/knapen_aot/videos/R_S_comp_A009_C001_010181A_v09_SDR_PS_FINAL_20180725_SDR_2K_AVC.mp4	0.0	245.03366613388062	0.1000528335571289
46	144.79296684265137	fix_pre	0		34.0	44.0	2.5	/experiments/knapen_aot/videos/R_S_EFR8AteY59I_15.mp4	0.0	245.13371896743774	0.2832341194152832
46	145.06801986694336	response	0	2		44.0	2.5	/experiments/knapen_aot/videos/R_S_EFR8AteY59I_15.mp4	0.0	245.40877199172974	
46	145.07620096206665	movie	1		301.0	44.0	2.5	/experiments/knapen_aot/videos/R_S_EFR8AteY59I_15.mp4	0.0	245.41695308685303	2.508396863937378
46	147.58459782600403	fix_post	2		12.0	44.0	2.5	/experiments/knapen_aot/videos/R_S_EFR8AteY59I_15.mp4	0.0	247.9253499507904	0.0999901294708252
47	147.68458795547485	fix_pre	0		83.0	45.0	2.5	/experiments/knapen_aot/videos/S_yt-yQrDeFlFmfM_138.mp4	0.0	248.02534008026123	0.6915788650512695
47	148.3680980205536	response	0	2		45.0	2.5	/experiments/knapen_aot/videos/S_yt-yQrDeFlFmfM_138.mp4	0.0	248.70885014533997	
47	148.37616682052612	movie	1		301.0	45.0	2.5	/experiments/knapen_aot/videos/S_yt-yQrDeFlFmfM_138.mp4	0.0	248.7169189453125	2.5083491802215576
47	150.88451600074768	fix_post	2		12.0	45.0	2.5	/experiments/knapen_aot/videos/S_yt-yQrDeFlFmfM_138.mp4	0.0	251.22526812553406	0.10016393661499023
48	150.98467993736267	fix_pre	0		196.0	46.0	2.5	/experiments/knapen_aot/videos/R_S_yt-MWX0EtpWIs8_286.mp4	0.0	251.32543206214905	1.6332180500030518
48	152.60968399047852	response	0	2		46.0	2.5	/experiments/knapen_aot/videos/R_S_yt-MWX0EtpWIs8_286.mp4	0.0	252.9504361152649	
48	152.61789798736572	movie	1		301.0	46.0	2.5	/experiments/knapen_aot/videos/R_S_yt-MWX0EtpWIs8_286.mp4	0.0	252.9586501121521	2.5083909034729004
48	155.12628889083862	fix_post	2		12.0	46.0	2.5	/experiments/knapen_aot/videos/R_S_yt-MWX0EtpWIs8_286.mp4	0.0	255.467041015625	0.0998849868774414
49	155.22617387771606	fix_pre	0		69.0	47.0	2.5	blank	1.0	255.56692600250244	0.5750279426574707
49	155.79297590255737	response	0	2		47.0	2.5	blank	1.0	256.13372802734375	
49	155.80120182037354	movie	1		301.0	47.0	2.5	blank	1.0	256.1419539451599	2.5084331035614014
49	158.28457689285278	response	1	2		47.0	2.5	blank	1.0	258.62532901763916	
49	158.30963492393494	fix_post	2		12.0	47.0	2.5	blank	1.0	258.6503870487213	0.09989404678344727
50	158.40952897071838	fix_pre	0		73.0	48.0	2.5	/experiments/knapen_aot/videos/S_yt--wYgjXsc1XQ_106.mp4	0.0	258.75028109550476	0.6083319187164307
50	159.00208687782288	response	0	2		48.0	2.5	/experiments/knapen_aot/videos/S_yt--wYgjXsc1XQ_106.mp4	0.0	259.34283900260925	
50	159.01786088943481	movie	1		301.0	48.0	2.5	/experiments/knapen_aot/videos/S_yt--wYgjXsc1XQ_106.mp4	0.0	259.3586130142212	2.5084190368652344
50	161.52627992630005	fix_post	2		12.0	48.0	2.5	/experiments/knapen_aot/videos/S_yt--wYgjXsc1XQ_106.mp4	0.0	261.8670320510864	0.09991097450256348
51	161.6261909008026	fix_pre	0		100.0	49.0	2.5	/experiments/knapen_aot/videos/R_S_yt-yXJr3FR2xrM_27.mp4	0.0	261.966943025589	0.833251953125
51	162.4513339996338	response	0	2		49.0	2.5	/experiments/knapen_aot/videos/R_S_yt-yXJr3FR2xrM_27.mp4	0.0	262.79208612442017	
51	162.4594428539276	movie	1		301.0	49.0	2.5	/experiments/knapen_aot/videos/R_S_yt-yXJr3FR2xrM_27.mp4	0.0	262.800194978714	2.5084400177001953
51	164.9678828716278	fix_post	2		12.0	49.0	2.5	/experiments/knapen_aot/videos/R_S_yt-yXJr3FR2xrM_27.mp4	0.0	265.3086349964142	0.10000300407409668
52	165.0678858757019	fix_pre	0		39.0	50.0	2.5	/experiments/knapen_aot/videos/R_S_ILSVRC2015_train_00584001.mp4	0.0	265.4086380004883	0.32613205909729004
52	165.3846139907837	response	0	2		50.0	2.5	/experiments/knapen_aot/videos/R_S_ILSVRC2015_train_00584001.mp4	0.0	265.72536611557007	
52	165.3940179347992	movie	1		301.0	50.0	2.5	/experiments/knapen_aot/videos/R_S_ILSVRC2015_train_00584001.mp4	0.0	265.73477005958557	2.507309913635254
52	167.90132784843445	fix_post	2		12.0	50.0	2.5	/experiments/knapen_aot/videos/R_S_ILSVRC2015_train_00584001.mp4	0.0	268.2420799732208	0.0998680591583252
53	168.00119590759277	fix_pre	0		174.0	51.0	2.5	/experiments/knapen_aot/videos/R_S_comp_DB_D002_C003_PSNK_v04_SDR_PS_20180914_SDR_2K_AVC.mp4	0.0	268.34194803237915	1.4499719142913818
53	169.44290900230408	response	0	2		51.0	2.5	/experiments/knapen_aot/videos/R_S_comp_DB_D002_C003_PSNK_v04_SDR_PS_20180914_SDR_2K_AVC.mp4	0.0	269.78366112709045	
53	169.45116782188416	movie	1		167.0	51.0	2.5	/experiments/knapen_aot/videos/R_S_comp_DB_D002_C003_PSNK_v04_SDR_PS_20180914_SDR_2K_AVC.mp4	0.0	269.79191994667053	2.5083510875701904
53	171.95951890945435	fix_post	2		12.0	51.0	2.5	/experiments/knapen_aot/videos/R_S_comp_DB_D002_C003_PSNK_v04_SDR_PS_20180914_SDR_2K_AVC.mp4	0.0	272.3002710342407	0.1001579761505127
54	172.05967688560486	fix_pre	0		64.0	52.0	2.5	/experiments/knapen_aot/videos/S_yt-MWX0EtpWIs8_286.mp4	0.0	272.40042901039124	0.5331299304962158
54	172.58462595939636	response	0	2		52.0	2.5	/experiments/knapen_aot/videos/S_yt-MWX0EtpWIs8_286.mp4	0.0	272.92537808418274	
54	172.59280681610107	movie	1		301.0	52.0	2.5	/experiments/knapen_aot/videos/S_yt-MWX0EtpWIs8_286.mp4	0.0	272.93355894088745	2.508380174636841
54	175.10118699073792	fix_post	2		12.0	52.0	2.5	/experiments/knapen_aot/videos/S_yt-MWX0EtpWIs8_286.mp4	0.0	275.4419391155243	0.09995698928833008
55	175.20114398002625	fix_pre	0		98.0	53.0	2.5	/experiments/knapen_aot/videos/S_g201_TH_803_A001_8_SDR_20191031_SDR_2K_AVC.mp4	0.0	275.5418961048126	0.8178348541259766
55	176.0096127986908	response	0	2		53.0	2.5	/experiments/knapen_aot/videos/S_g201_TH_803_A001_8_SDR_20191031_SDR_2K_AVC.mp4	0.0	276.3503649234772	
55	176.01897883415222	movie	1		164.0	53.0	2.5	/experiments/knapen_aot/videos/S_g201_TH_803_A001_8_SDR_20191031_SDR_2K_AVC.mp4	0.0	276.3597309589386	2.507204055786133
55	178.52618288993835	fix_post	2		12.0	53.0	2.5	/experiments/knapen_aot/videos/S_g201_TH_803_A001_8_SDR_20191031_SDR_2K_AVC.mp4	0.0	278.86693501472473	0.09995794296264648
56	178.626140832901	fix_pre	0		60.0	54.0	2.5	/experiments/knapen_aot/videos/R_S_bing-www_nytimes_com_video_dining_1247468118505_grilled-chicken-breasts-with-herb-butter_html_132.mp4	0.0	278.9668929576874	0.5001339912414551
56	179.11801600456238	response	0	2		54.0	2.5	/experiments/knapen_aot/videos/R_S_bing-www_nytimes_com_video_dining_1247468118505_grilled-chicken-breasts-with-herb-butter_html_132.mp4	0.0	279.45876812934875	
56	179.12627482414246	movie	1		166.0	54.0	2.5	/experiments/knapen_aot/videos/R_S_bing-www_nytimes_com_video_dining_1247468118505_grilled-chicken-breasts-with-herb-butter_html_132.mp4	0.0	279.46702694892883	2.508212089538574
56	181.63448691368103	fix_post	2		12.0	54.0	2.5	/experiments/knapen_aot/videos/R_S_bing-www_nytimes_com_video_dining_1247468118505_grilled-chicken-breasts-with-herb-butter_html_132.mp4	0.0	281.9752390384674	0.10040807723999023
57	181.73489499092102	fix_pre	0		198.0	55.0	2.5	blank	1.0	282.0756471157074	1.6495709419250488
57	183.37625193595886	response	0	2		55.0	2.5	blank	1.0	283.71700406074524	
57	183.38446593284607	movie	1		301.0	55.0	2.5	blank	1.0	283.72521805763245	2.5083389282226562
57	185.89280486106873	fix_post	2		12.0	55.0	2.5	blank	1.0	286.2335569858551	0.10007810592651367
58	185.99288296699524	fix_pre	0		310.0	56.0	2.5	/experiments/knapen_aot/videos/R_S_Y002_C013_SDR_2K_AVC.mp4	0.0	286.3336350917816	2.583189010620117
58	188.56789588928223	response	0	2		56.0	2.5	/experiments/knapen_aot/videos/R_S_Y002_C013_SDR_2K_AVC.mp4	0.0	288.9086480140686	
58	188.57607197761536	movie	1		175.0	56.0	2.5	/experiments/knapen_aot/videos/R_S_Y002_C013_SDR_2K_AVC.mp4	0.0	288.91682410240173	2.508410930633545
58	191.0844829082489	fix_post	2		12.0	56.0	2.5	/experiments/knapen_aot/videos/R_S_Y002_C013_SDR_2K_AVC.mp4	0.0	291.4252350330353	0.09995388984680176
59	191.1844367980957	fix_pre	0		43.0	57.0	2.5	/experiments/knapen_aot/videos/S_ILSVRC2015_train_00569003.mp4	0.0	291.5251889228821	0.3583841323852539
59	191.5346119403839	response	0	2		57.0	2.5	/experiments/knapen_aot/videos/S_ILSVRC2015_train_00569003.mp4	0.0	291.8753640651703	
59	191.54282093048096	movie	1		301.0	57.0	2.5	/experiments/knapen_aot/videos/S_ILSVRC2015_train_00569003.mp4	0.0	291.88357305526733	2.5084879398345947
59	194.05130887031555	fix_post	2		12.0	57.0	2.5	/experiments/knapen_aot/videos/S_ILSVRC2015_train_00569003.mp4	0.0	294.39206099510193	0.0997629165649414
60	194.1510717868805	fix_pre	0		69.0	58.0	2.5	/experiments/knapen_aot/videos/R_S_yt-zh2yLr-o_8A_953.mp4	0.0	294.49182391166687	0.5761220455169678
60	194.7178499698639	response	0	2		58.0	2.5	/experiments/knapen_aot/videos/R_S_yt-zh2yLr-o_8A_953.mp4	0.0	295.05860209465027	
60	194.72719383239746	movie	1		301.0	58.0	2.5	/experiments/knapen_aot/videos/R_S_yt-zh2yLr-o_8A_953.mp4	0.0	295.06794595718384	2.5072221755981445
60	197.2344160079956	fix_post	2		12.0	58.0	2.5	/experiments/knapen_aot/videos/R_S_yt-zh2yLr-o_8A_953.mp4	0.0	297.575168132782	0.09994983673095703
61	197.33436584472656	fix_pre	0		48.0	59.0	2.5	/experiments/knapen_aot/videos/S_yt-npaE4fe6A6Y_26.mp4	0.0	297.67511796951294	0.3999941349029541
61	197.7261598110199	response	0	2		59.0	2.5	/experiments/knapen_aot/videos/S_yt-npaE4fe6A6Y_26.mp4	0.0	298.0669119358063	
61	197.73435997962952	movie	1		301.0	59.0	2.5	/experiments/knapen_aot/videos/S_yt-npaE4fe6A6Y_26.mp4	0.0	298.0751121044159	2.508349895477295
61	200.2427098751068	fix_post	2		12.0	59.0	2.5	/experiments/knapen_aot/videos/S_yt-npaE4fe6A6Y_26.mp4	0.0	300.5834619998932	0.09998106956481934
62	200.34269094467163	fix_pre	0		42.0	60.0	2.5	/experiments/knapen_aot/videos/S_production_ID_4997166.mp4	0.0	300.683443069458	0.3499729633331299
62	200.68456888198853	response	0	2		60.0	2.5	/experiments/knapen_aot/videos/S_production_ID_4997166.mp4	0.0	301.0253210067749	
62	200.69266390800476	movie	1		170.0	60.0	2.5	/experiments/knapen_aot/videos/S_production_ID_4997166.mp4	0.0	301.03341603279114	2.5084280967712402
62	203.201092004776	fix_post	2		12.0	60.0	2.5	/experiments/knapen_aot/videos/S_production_ID_4997166.mp4	0.0	303.5418441295624	0.09996199607849121
63	203.3010540008545	fix_pre	0		57.0	61.0	2.5	/experiments/knapen_aot/videos/S_flickr-claywakening-27928940166_2.mp4	0.0	303.64180612564087	0.47501492500305176
63	203.7678599357605	response	0	2		61.0	2.5	/experiments/knapen_aot/videos/S_flickr-claywakening-27928940166_2.mp4	0.0	304.1086120605469	
63	203.77606892585754	movie	1		191.0	61.0	2.5	/experiments/knapen_aot/videos/S_flickr-claywakening-27928940166_2.mp4	0.0	304.1168210506439	2.5083529949188232
63	206.28442192077637	fix_post	2		12.0	61.0	2.5	/experiments/knapen_aot/videos/S_flickr-claywakening-27928940166_2.mp4	0.0	306.62517404556274	0.10008502006530762
64	206.38450694084167	fix_pre	0		202.0	62.0	2.5	blank	1.0	306.72525906562805	1.6831600666046143
64	208.0594208240509	response	0	2		62.0	2.5	blank	1.0	308.4001729488373	
64	208.0676670074463	movie	1		301.0	62.0	2.5	blank	1.0	308.40841913223267	2.5083768367767334
64	210.57604384422302	fix_post	2		12.0	62.0	2.5	blank	1.0	310.9167959690094	0.10002803802490234
65	210.67607188224792	fix_pre	0		87.0	63.0	2.5	/experiments/knapen_aot/videos/S_flickr-csgzs-8144064966_10.mp4	0.0	311.0168240070343	0.7248950004577637
65	211.3928987979889	response	0	2		63.0	2.5	/experiments/knapen_aot/videos/S_flickr-csgzs-8144064966_10.mp4	0.0	311.73365092277527	
65	211.4009668827057	movie	1		301.0	63.0	2.5	/experiments/knapen_aot/videos/S_flickr-csgzs-8144064966_10.mp4	0.0	311.74171900749207	2.5083820819854736
65	213.90934896469116	fix_post	2		12.0	63.0	2.5	/experiments/knapen_aot/videos/S_flickr-csgzs-8144064966_10.mp4	0.0	314.25010108947754	0.09996485710144043
66	214.0093138217926	fix_pre	0		45.0	64.0	2.5	/experiments/knapen_aot/videos/S_video_inspire_uk_edinburgh_arthursseat_010.1080-h264.mp4	0.0	314.350065946579	0.37506604194641113
66	214.37603092193604	response	0	2		64.0	2.5	/experiments/knapen_aot/videos/S_video_inspire_uk_edinburgh_arthursseat_010.1080-h264.mp4	0.0	314.7167830467224	
66	214.384379863739	movie	1		172.0	64.0	2.5	/experiments/knapen_aot/videos/S_video_inspire_uk_edinburgh_arthursseat_010.1080-h264.mp4	0.0	314.7251319885254	2.5082919597625732
66	216.8926718235016	fix_post	2		12.0	64.0	2.5	/experiments/knapen_aot/videos/S_video_inspire_uk_edinburgh_arthursseat_010.1080-h264.mp4	0.0	317.23342394828796	0.09997010231018066
67	216.99264192581177	fix_pre	0		37.0	65.0	2.5	/experiments/knapen_aot/videos/S_wc-7ugQ0V4lxYkJ_131.mp4	0.0	317.33339405059814	0.30832600593566895
67	217.29277682304382	response	0	2		65.0	2.5	/experiments/knapen_aot/videos/S_wc-7ugQ0V4lxYkJ_131.mp4	0.0	317.6335289478302	
67	217.30096793174744	movie	1		301.0	65.0	2.5	/experiments/knapen_aot/videos/S_wc-7ugQ0V4lxYkJ_131.mp4	0.0	317.6417200565338	2.50838303565979
67	219.80935096740723	fix_post	2		12.0	65.0	2.5	/experiments/knapen_aot/videos/S_wc-7ugQ0V4lxYkJ_131.mp4	0.0	320.1501030921936	0.09995293617248535
68	219.9093039035797	fix_pre	0		41.0	66.0	2.5	/experiments/knapen_aot/videos/R_S_comp_LA_A006_C004_v01_SDR_FINAL_PS_20180730_SDR_2K_AVC.mp4	0.0	320.2500560283661	0.3416900634765625
68	220.24277186393738	response	0	2		66.0	2.5	/experiments/knapen_aot/videos/R_S_comp_LA_A006_C004_v01_SDR_FINAL_PS_20180730_SDR_2K_AVC.mp4	0.0	320.58352398872375	
68	220.25099396705627	movie	1		167.0	66.0	2.5	/experiments/knapen_aot/videos/R_S_comp_LA_A006_C004_v01_SDR_FINAL_PS_20180730_SDR_2K_AVC.mp4	0.0	320.59174609184265	2.5083389282226562
68	222.75933289527893	fix_post	2		12.0	66.0	2.5	/experiments/knapen_aot/videos/R_S_comp_LA_A006_C004_v01_SDR_FINAL_PS_20180730_SDR_2K_AVC.mp4	0.0	323.1000850200653	0.09988999366760254
69	222.85922288894653	fix_pre	0		42.0	67.0	2.5	/experiments/knapen_aot/videos/S_yt-PK-Eip9wFr0_24.mp4	0.0	323.1999750137329	0.3499479293823242
69	223.20108294487	response	0	2		67.0	2.5	/experiments/knapen_aot/videos/S_yt-PK-Eip9wFr0_24.mp4	0.0	323.5418350696564	
69	223.20917081832886	movie	1		301.0	67.0	2.5	/experiments/knapen_aot/videos/S_yt-PK-Eip9wFr0_24.mp4	0.0	323.54992294311523	2.508424997329712
69	225.71759581565857	fix_post	2		12.0	67.0	2.5	/experiments/knapen_aot/videos/S_yt-PK-Eip9wFr0_24.mp4	0.0	326.05834794044495	0.100006103515625
70	225.8176019191742	fix_pre	0		14.0	68.0	2.5	/experiments/knapen_aot/videos/R_S_b1-3.mp4	0.0	326.15835404396057	0.11756396293640137
70	225.9259979724884	response	0	2		68.0	2.5	/experiments/knapen_aot/videos/R_S_b1-3.mp4	0.0	326.2667500972748	
70	225.9351658821106	movie	1		168.0	68.0	2.5	/experiments/knapen_aot/videos/R_S_b1-3.mp4	0.0	326.275918006897	2.5074269771575928
70	228.4425928592682	fix_post	2		12.0	68.0	2.5	/experiments/knapen_aot/videos/R_S_b1-3.mp4	0.0	328.78334498405457	0.10000801086425781
71	228.54260087013245	fix_pre	0		49.0	69.0	2.5	/experiments/knapen_aot/videos/S_yt--v_iMUMMX6g_39.mp4	0.0	328.8833529949188	0.4082660675048828
71	228.94273781776428	response	0	2		69.0	2.5	/experiments/knapen_aot/videos/S_yt--v_iMUMMX6g_39.mp4	0.0	329.28348994255066	
71	228.95086693763733	movie	1		301.0	69.0	2.5	/experiments/knapen_aot/videos/S_yt--v_iMUMMX6g_39.mp4	0.0	329.2916190624237	2.5083179473876953
71	231.45918488502502	fix_post	2		12.0	69.0	2.5	/experiments/knapen_aot/videos/S_yt--v_iMUMMX6g_39.mp4	0.0	331.7999370098114	0.10006213188171387
72	231.55924701690674	fix_pre	0		74.0	70.0	2.5	blank	1.0	331.8999991416931	0.6166248321533203
72	232.16770887374878	response	0	2		70.0	2.5	blank	1.0	332.50846099853516	
72	232.17587184906006	movie	1		301.0	70.0	2.5	blank	1.0	332.51662397384644	2.5083260536193848
72	234.68419790267944	fix_post	2		12.0	70.0	2.5	blank	1.0	335.0249500274658	0.10002398490905762
73	234.7842218875885	fix_pre	0		96.0	71.0	2.5	/experiments/knapen_aot/videos/R_S_pexels-rodnae-productions-5617905.mp4	0.0	335.1249740123749	0.7999861240386963
73	235.57603788375854	response	0	2		71.0	2.5	/experiments/knapen_aot/videos/R_S_pexels-rodnae-productions-5617905.mp4	0.0	335.9167900085449	
73	235.5842080116272	movie	1		164.0	71.0	2.5	/experiments/knapen_aot/videos/R_S_pexels-rodnae-productions-5617905.mp4	0.0	335.9249601364136	2.50833797454834
73	237.87965488433838	response	1	2		71.0	2.5	/experiments/knapen_aot/videos/R_S_pexels-rodnae-productions-5617905.mp4	0.0	338.22040700912476	
73	238.09254598617554	fix_post	2		12.0	71.0	2.5	/experiments/knapen_aot/videos/R_S_pexels-rodnae-productions-5617905.mp4	0.0	338.4332981109619	0.09996199607849121
74	238.19250798225403	fix_pre	0		181.0	72.0	2.5	/experiments/knapen_aot/videos/R_S_wc-zkO_omg3nTvg_5.mp4	0.0	338.5332601070404	1.5083999633789062
74	239.69265484809875	response	0	2		72.0	2.5	/experiments/knapen_aot/videos/R_S_wc-zkO_omg3nTvg_5.mp4	0.0	340.03340697288513	
74	239.70090794563293	movie	1		163.0	72.0	2.5	/experiments/knapen_aot/videos/R_S_wc-zkO_omg3nTvg_5.mp4	0.0	340.0416600704193	2.508316993713379
74	242.2092249393463	fix_post	2		12.0	72.0	2.5	/experiments/knapen_aot/videos/R_S_wc-zkO_omg3nTvg_5.mp4	0.0	342.5499770641327	0.10017085075378418
75	242.3093957901001	fix_pre	0		6.0	73.0	2.5	/experiments/knapen_aot/videos/R_S_yt-qYuLW5vSotM_160.mp4	0.0	342.6501479148865	0.04980206489562988
75	242.35093593597412	response	0	2		73.0	2.5	/experiments/knapen_aot/videos/R_S_yt-qYuLW5vSotM_160.mp4	0.0	342.6916880607605	
75	242.35919785499573	movie	1		301.0	73.0	2.5	/experiments/knapen_aot/videos/R_S_yt-qYuLW5vSotM_160.mp4	0.0	342.6999499797821	2.5083301067352295
75	244.86752796173096	fix_post	2		12.0	73.0	2.5	/experiments/knapen_aot/videos/R_S_yt-qYuLW5vSotM_160.mp4	0.0	345.20828008651733	0.09996485710144043
76	244.9674928188324	fix_pre	0		3.0	74.0	2.5	/experiments/knapen_aot/videos/R_S_video-6.mp4	0.0	345.3082449436188	0.02504420280456543
76	244.98428797721863	response	0	2		74.0	2.5	/experiments/knapen_aot/videos/R_S_video-6.mp4	0.0	345.325040102005	
76	244.99253702163696	movie	1		163.0	74.0	2.5	/experiments/knapen_aot/videos/R_S_video-6.mp4	0.0	345.33328914642334	2.508274793624878
76	247.50081181526184	fix_post	2		12.0	74.0	2.5	/experiments/knapen_aot/videos/R_S_video-6.mp4	0.0	347.8415639400482	0.10003399848937988
77	247.60084581375122	fix_pre	0		51.0	75.0	2.5	/experiments/knapen_aot/videos/S_yt-aTEGTeQuDWM_93.mp4	0.0	347.9415979385376	0.4249701499938965
77	248.01762700080872	response	0	2		75.0	2.5	/experiments/knapen_aot/videos/S_yt-aTEGTeQuDWM_93.mp4	0.0	348.3583791255951	
77	248.02581596374512	movie	1		301.0	75.0	2.5	/experiments/knapen_aot/videos/S_yt-aTEGTeQuDWM_93.mp4	0.0	348.3665680885315	2.5083858966827393
77	250.53420186042786	fix_post	2		12.0	75.0	2.5	/experiments/knapen_aot/videos/S_yt-aTEGTeQuDWM_93.mp4	0.0	350.87495398521423	0.0999150276184082
78	250.63411688804626	fix_pre	0		61.0	76.0	2.5	/experiments/knapen_aot/videos/S_comp_A103_C002_0205DG_v12_SDR_FINAL_20180706_SDR_2K_AVC.mp4	0.0	350.97486901283264	0.5090351104736328
78	251.1343219280243	response	0	2		76.0	2.5	/experiments/knapen_aot/videos/S_comp_A103_C002_0205DG_v12_SDR_FINAL_20180706_SDR_2K_AVC.mp4	0.0	351.47507405281067	
78	251.1431519985199	movie	1		165.0	76.0	2.5	/experiments/knapen_aot/videos/S_comp_A103_C002_0205DG_v12_SDR_FINAL_20180706_SDR_2K_AVC.mp4	0.0	351.4839041233063	2.507779836654663
78	253.65093183517456	fix_post	2		12.0	76.0	2.5	/experiments/knapen_aot/videos/S_comp_A103_C002_0205DG_v12_SDR_FINAL_20180706_SDR_2K_AVC.mp4	0.0	353.99168395996094	0.09992814064025879
79	253.75085997581482	fix_pre	0		38.0	77.0	2.5	blank	1.0	354.0916121006012	0.3166379928588867
79	254.0593090057373	response	0	2		77.0	2.5	blank	1.0	354.4000611305237	
79	254.0674979686737	movie	1		301.0	77.0	2.5	blank	1.0	354.4082500934601	2.508283853530884
79	256.5757818222046	fix_post	2		12.0	77.0	2.5	blank	1.0	356.91653394699097	0.10007214546203613
80	256.6758539676666	fix_pre	0		57.0	78.0	2.5	/experiments/knapen_aot/videos/R_S_yt-osz-TXlRdXs_2.mp4	0.0	357.016606092453	0.47495293617248535
80	257.1425709724426	response	0	2		78.0	2.5	/experiments/knapen_aot/videos/R_S_yt-osz-TXlRdXs_2.mp4	0.0	357.483323097229	
80	257.1508069038391	movie	1		301.0	78.0	2.5	/experiments/knapen_aot/videos/R_S_yt-osz-TXlRdXs_2.mp4	0.0	357.4915590286255	2.5083320140838623
80	259.659138917923	fix_post	2		12.0	78.0	2.5	/experiments/knapen_aot/videos/R_S_yt-osz-TXlRdXs_2.mp4	0.0	359.99989104270935	0.10002398490905762
81	259.75916290283203	fix_pre	0		63.0	79.0	2.5	/experiments/knapen_aot/videos/S_yt-HMAa2QbfFPI_216.mp4	0.0	360.0999150276184	0.5249230861663818
81	260.2758758068085	response	0	2		79.0	2.5	/experiments/knapen_aot/videos/S_yt-HMAa2QbfFPI_216.mp4	0.0	360.61662793159485	
81	260.2840859889984	movie	1		301.0	79.0	2.5	/experiments/knapen_aot/videos/S_yt-HMAa2QbfFPI_216.mp4	0.0	360.6248381137848	2.5083048343658447
81	262.79239082336426	fix_post	2		12.0	79.0	2.5	/experiments/knapen_aot/videos/S_yt-HMAa2QbfFPI_216.mp4	0.0	363.13314294815063	0.10003018379211426
82	262.8924210071564	fix_pre	0		51.0	80.0	2.5	/experiments/knapen_aot/videos/S_yt--a-d97T4Gak_75.mp4	0.0	363.23317313194275	0.42493700981140137
82	263.3018310070038	response	0	2		80.0	2.5	/experiments/knapen_aot/videos/S_yt--a-d97T4Gak_75.mp4	0.0	363.64258313179016	
82	263.3173580169678	movie	1		301.0	80.0	2.5	/experiments/knapen_aot/videos/S_yt--a-d97T4Gak_75.mp4	0.0	363.65811014175415	2.508415937423706
82	265.8257739543915	fix_post	2		12.0	80.0	2.5	/experiments/knapen_aot/videos/S_yt--a-d97T4Gak_75.mp4	0.0	366.16652607917786	0.09998703002929688
83	265.9257609844208	fix_pre	0		42.0	81.0	2.5	/experiments/knapen_aot/videos/R_S_yt--wYgjXsc1XQ_106.mp4	0.0	366.26651310920715	0.3499438762664795
83	266.26761078834534	response	0	2		81.0	2.5	/experiments/knapen_aot/videos/R_S_yt--wYgjXsc1XQ_106.mp4	0.0	366.6083629131317	
83	266.27570486068726	movie	1		301.0	81.0	2.5	/experiments/knapen_aot/videos/R_S_yt--wYgjXsc1XQ_106.mp4	0.0	366.61645698547363	2.5083730220794678
83	268.7840778827667	fix_post	2		12.0	81.0	2.5	/experiments/knapen_aot/videos/R_S_yt--wYgjXsc1XQ_106.mp4	0.0	369.1248300075531	0.10001301765441895
84	268.88409090042114	fix_pre	0		158.0	82.0	2.5	/experiments/knapen_aot/videos/R_S_yt-AbJBxqEYoMg_27.mp4	0.0	369.2248430252075	1.3166310787200928
84	270.1925718784332	response	0	2		82.0	2.5	/experiments/knapen_aot/videos/R_S_yt-AbJBxqEYoMg_27.mp4	0.0	370.5333240032196	
84	270.20072197914124	movie	1		301.0	82.0	2.5	/experiments/knapen_aot/videos/R_S_yt-AbJBxqEYoMg_27.mp4	0.0	370.5414741039276	2.5083119869232178
84	272.70903396606445	fix_post	2		12.0	82.0	2.5	/experiments/knapen_aot/videos/R_S_yt-AbJBxqEYoMg_27.mp4	0.0	373.04978609085083	0.10022091865539551
85	272.80925488471985	fix_pre	0		21.0	83.0	2.5	blank	1.0	373.1500070095062	0.17476105690002441
85	272.9758999347687	response	0	2		83.0	2.5	blank	1.0	373.31665205955505	
85	272.9840159416199	movie	1		301.0	83.0	2.5	blank	1.0	373.32476806640625	2.5083229541778564
85	275.49233889579773	fix_post	2		12.0	83.0	2.5	blank	1.0	375.8330910205841	0.10014200210571289
87	275.59248089790344	stim	0		96.0					375.9332330226898	0.8004360198974609
87	276.387099981308	response	0	space						376.72785210609436	
