trial_nr	onset	event_type	phase	response	nr_frames	movie_index	movie_duration	movie_file	blank	onset_abs	duration
0	0.12496399879455566	stim	0		77.0					105.56257510185242	0.6414749622344971
0	0.7584030628204346	response	0	space						106.1960141658783	
1	0.7664389610290527	stim	0		121.0					106.20405006408691	1.0080950260162354
1	1.774533987045288	stim	1		120.0					107.21214509010315	0.9999430179595947
2	2.774477005004883	fix_pre	0		6.0	0.0	2.5	/experiments/knapen_aot/videos/S_yt-KQq7vTlXUiQ_173.mp4	0.0	108.21208810806274	0.05156302452087402
2	2.8087949752807617	response	0	space		0.0	2.5	/experiments/knapen_aot/videos/S_yt-KQq7vTlXUiQ_173.mp4	0.0	108.24640607833862	
2	2.826040029525757	movie	1		300.0	0.0	2.5	/experiments/knapen_aot/videos/S_yt-KQq7vTlXUiQ_173.mp4	0.0	108.26365113258362	2.506861925125122
2	5.332901954650879	fix_post	2		12.0	0.0	2.5	/experiments/knapen_aot/videos/S_yt-KQq7vTlXUiQ_173.mp4	0.0	110.77051305770874	0.09992003440856934
3	5.432821989059448	fix_pre	0		25.0	1.0	2.5	/experiments/knapen_aot/videos/S_yt-zhQ32_OayBQ_39.mp4	0.0	110.87043309211731	0.21250605583190918
3	5.637305021286011	response	0	2		1.0	2.5	/experiments/knapen_aot/videos/S_yt-zhQ32_OayBQ_39.mp4	0.0	111.07491612434387	
3	5.645328044891357	movie	1		298.0	1.0	2.5	/experiments/knapen_aot/videos/S_yt-zhQ32_OayBQ_39.mp4	0.0	111.08293914794922	2.5041310787200928
3	8.14945912361145	fix_post	2		12.0	1.0	2.5	/experiments/knapen_aot/videos/S_yt-zhQ32_OayBQ_39.mp4	0.0	113.58707022666931	0.10004377365112305
4	8.249502897262573	fix_pre	0		26.0	2.0	2.5	/experiments/knapen_aot/videos/R_S_OdxWh1oU8e8_1.mp4	0.0	113.68711400032043	0.2166140079498291
4	8.457917928695679	response	0	2		2.0	2.5	/experiments/knapen_aot/videos/R_S_OdxWh1oU8e8_1.mp4	0.0	113.89552903175354	
4	8.466116905212402	movie	1		301.0	2.0	2.5	/experiments/knapen_aot/videos/R_S_OdxWh1oU8e8_1.mp4	0.0	113.90372800827026	2.5083391666412354
4	10.974456071853638	fix_post	2		12.0	2.0	2.5	/experiments/knapen_aot/videos/R_S_OdxWh1oU8e8_1.mp4	0.0	116.4120671749115	0.09993386268615723
5	11.074389934539795	fix_pre	0		25.0	3.0	2.5	/experiments/knapen_aot/videos/S_yt-28ODBE9bVh0_44.mp4	0.0	116.51200103759766	0.20974016189575195
5	11.274549007415771	response	0	2		3.0	2.5	/experiments/knapen_aot/videos/S_yt-28ODBE9bVh0_44.mp4	0.0	116.71216011047363	
5	11.284130096435547	movie	1		301.0	3.0	2.5	/experiments/knapen_aot/videos/S_yt-28ODBE9bVh0_44.mp4	0.0	116.72174119949341	2.5069899559020996
5	13.791120052337646	fix_post	2		12.0	3.0	2.5	/experiments/knapen_aot/videos/S_yt-28ODBE9bVh0_44.mp4	0.0	119.22873115539551	0.09999203681945801
6	13.891112089157104	fix_pre	0		7.0	4.0	2.5	/experiments/knapen_aot/videos/S_yt-s73Xqkcq9Js_285.mp4	0.0	119.32872319221497	0.059700965881347656
6	13.941329002380371	response	0	2		4.0	2.5	/experiments/knapen_aot/videos/S_yt-s73Xqkcq9Js_285.mp4	0.0	119.37894010543823	
6	13.950813055038452	movie	1		301.0	4.0	2.5	/experiments/knapen_aot/videos/S_yt-s73Xqkcq9Js_285.mp4	0.0	119.38842415809631	2.507009983062744
6	16.457823038101196	fix_post	2		12.0	4.0	2.5	/experiments/knapen_aot/videos/S_yt-s73Xqkcq9Js_285.mp4	0.0	121.89543414115906	0.09990191459655762
7	16.557724952697754	fix_pre	0		12.0	5.0	2.5	/experiments/knapen_aot/videos/S_yt-2l6VKd94eAI_151.mp4	0.0	121.99533605575562	0.10134696960449219
7	16.6496319770813	response	0	2		5.0	2.5	/experiments/knapen_aot/videos/S_yt-2l6VKd94eAI_151.mp4	0.0	122.08724308013916	
7	16.659071922302246	movie	1		301.0	5.0	2.5	/experiments/knapen_aot/videos/S_yt-2l6VKd94eAI_151.mp4	0.0	122.09668302536011	2.5069990158081055
7	19.16607093811035	fix_post	2		12.0	5.0	2.5	/experiments/knapen_aot/videos/S_yt-2l6VKd94eAI_151.mp4	0.0	124.60368204116821	0.09998297691345215
8	19.266053915023804	fix_pre	0		18.0	6.0	2.5	blank	1.0	124.70366501808167	0.15002012252807617
8	19.407859086990356	response	0	2		6.0	2.5	blank	1.0	124.84547019004822	
8	19.41607403755188	movie	1		301.0	6.0	2.5	blank	1.0	124.85368514060974	2.5083658695220947
8	21.924439907073975	fix_post	2		12.0	6.0	2.5	blank	1.0	127.36205101013184	0.09996700286865234
9	22.024406909942627	fix_pre	0		21.0	7.0	2.5	/experiments/knapen_aot/videos/R_S_yt-2l6VKd94eAI_151.mp4	0.0	127.46201801300049	0.17497706413269043
9	22.19122004508972	response	0	2		7.0	2.5	/experiments/knapen_aot/videos/R_S_yt-2l6VKd94eAI_151.mp4	0.0	127.62883114814758	
9	22.199383974075317	movie	1		301.0	7.0	2.5	/experiments/knapen_aot/videos/R_S_yt-2l6VKd94eAI_151.mp4	0.0	127.63699507713318	2.5083260536193848
9	24.707710027694702	fix_post	2		12.0	7.0	2.5	/experiments/knapen_aot/videos/R_S_yt-2l6VKd94eAI_151.mp4	0.0	130.14532113075256	0.1000509262084961
10	24.8077609539032	fix_pre	0		3.0	8.0	2.5	/experiments/knapen_aot/videos/S_yt-GI8BEHw2Lq8_3.mp4	0.0	130.24537205696106	0.02492213249206543
10	24.82453489303589	response	0	2		8.0	2.5	/experiments/knapen_aot/videos/S_yt-GI8BEHw2Lq8_3.mp4	0.0	130.26214599609375	
10	24.832683086395264	movie	1		301.0	8.0	2.5	/experiments/knapen_aot/videos/S_yt-GI8BEHw2Lq8_3.mp4	0.0	130.27029418945312	2.5082998275756836
10	27.340982913970947	fix_post	2		12.0	8.0	2.5	/experiments/knapen_aot/videos/S_yt-GI8BEHw2Lq8_3.mp4	0.0	132.7785940170288	0.10010600090026855
11	27.441088914871216	fix_pre	0		1.0	9.0	2.5	/experiments/knapen_aot/videos/S_comp_GMT314_139M_170NC_NORTH_AMERICA_AURORA__COMP_v22_SDR_20181206_v12CC_SDR_2K_AVC.mp4	0.0	132.87870001792908	0.010163068771362305
11	27.442765951156616	response	0	2		9.0	2.5	/experiments/knapen_aot/videos/S_comp_GMT314_139M_170NC_NORTH_AMERICA_AURORA__COMP_v22_SDR_20181206_v12CC_SDR_2K_AVC.mp4	0.0	132.88037705421448	
11	27.451251983642578	movie	1		170.0	9.0	2.5	/experiments/knapen_aot/videos/S_comp_GMT314_139M_170NC_NORTH_AMERICA_AURORA__COMP_v22_SDR_20181206_v12CC_SDR_2K_AVC.mp4	0.0	132.88886308670044	2.506485939025879
11	29.957737922668457	fix_post	2		12.0	9.0	2.5	/experiments/knapen_aot/videos/S_comp_GMT314_139M_170NC_NORTH_AMERICA_AURORA__COMP_v22_SDR_20181206_v12CC_SDR_2K_AVC.mp4	0.0	135.39534902572632	0.10000300407409668
11	30.007841110229492	response	2	2		9.0	2.5	/experiments/knapen_aot/videos/S_comp_GMT314_139M_170NC_NORTH_AMERICA_AURORA__COMP_v22_SDR_20181206_v12CC_SDR_2K_AVC.mp4	0.0	135.44545221328735	
12	30.057740926742554	fix_pre	0		39.0	10.0	2.5	/experiments/knapen_aot/videos/R_S_yt-7VVzNnp36DM_62.mp4	0.0	135.49535202980042	0.3249471187591553
12	30.3744900226593	response	0	2		10.0	2.5	/experiments/knapen_aot/videos/R_S_yt-7VVzNnp36DM_62.mp4	0.0	135.81210112571716	
12	30.38268804550171	movie	1		301.0	10.0	2.5	/experiments/knapen_aot/videos/R_S_yt-7VVzNnp36DM_62.mp4	0.0	135.82029914855957	2.508331060409546
12	32.891019105911255	fix_post	2		12.0	10.0	2.5	/experiments/knapen_aot/videos/R_S_yt-7VVzNnp36DM_62.mp4	0.0	138.32863020896912	0.09998083114624023
12	32.974478006362915	response	2	2		10.0	2.5	/experiments/knapen_aot/videos/R_S_yt-7VVzNnp36DM_62.mp4	0.0	138.41208910942078	
13	32.990999937057495	fix_pre	0		44.0	11.0	2.5	/experiments/knapen_aot/videos/R_S_pexels-mikhail-nilov-8410084.mp4	0.0	138.42861104011536	0.36667418479919434
13	33.349421977996826	response	0	2		11.0	2.5	/experiments/knapen_aot/videos/R_S_pexels-mikhail-nilov-8410084.mp4	0.0	138.7870330810547	
13	33.35767412185669	movie	1		167.0	11.0	2.5	/experiments/knapen_aot/videos/R_S_pexels-mikhail-nilov-8410084.mp4	0.0	138.79528522491455	2.50836181640625
13	35.86603593826294	fix_post	2		12.0	11.0	2.5	/experiments/knapen_aot/videos/R_S_pexels-mikhail-nilov-8410084.mp4	0.0	141.3036470413208	0.09998798370361328
14	35.96602392196655	fix_pre	0		2.0	12.0	2.5	blank	1.0	141.4036350250244	0.016707181930541992
14	35.968477964401245	response	0	2		12.0	2.5	blank	1.0	141.4060890674591	
14	35.982731103897095	movie	1		301.0	12.0	2.5	blank	1.0	141.42034220695496	2.5082929134368896
14	38.491024017333984	fix_post	2		12.0	12.0	2.5	blank	1.0	143.92863512039185	0.09998202323913574
15	38.59100604057312	fix_pre	0		19.0	13.0	2.5	/experiments/knapen_aot/videos/R_S_comp_DB_D008_C010_PSNK_v21_SDR_PS_20180914_F0F16157_SDR_2K_AVC.mp4	0.0	144.02861714363098	0.15831899642944336
15	38.741127014160156	response	0	2		13.0	2.5	/experiments/knapen_aot/videos/R_S_comp_DB_D008_C010_PSNK_v21_SDR_PS_20180914_F0F16157_SDR_2K_AVC.mp4	0.0	144.17873811721802	
15	38.74932503700256	movie	1		171.0	13.0	2.5	/experiments/knapen_aot/videos/R_S_comp_DB_D008_C010_PSNK_v21_SDR_PS_20180914_F0F16157_SDR_2K_AVC.mp4	0.0	144.18693614006042	2.5083539485931396
15	41.2576789855957	fix_post	2		12.0	13.0	2.5	/experiments/knapen_aot/videos/R_S_comp_DB_D008_C010_PSNK_v21_SDR_PS_20180914_F0F16157_SDR_2K_AVC.mp4	0.0	146.69529008865356	0.10021209716796875
15	41.27493190765381	response	2	2		13.0	2.5	/experiments/knapen_aot/videos/R_S_comp_DB_D008_C010_PSNK_v21_SDR_PS_20180914_F0F16157_SDR_2K_AVC.mp4	0.0	146.71254301071167	
16	41.35789108276367	fix_pre	0		47.0	14.0	2.5	/experiments/knapen_aot/videos/S_yt-2WPmM2vIuBE_41.mp4	0.0	146.79550218582153	0.39144301414489746
16	41.74115204811096	response	0	2		14.0	2.5	/experiments/knapen_aot/videos/S_yt-2WPmM2vIuBE_41.mp4	0.0	147.17876315116882	
16	41.74933409690857	movie	1		301.0	14.0	2.5	/experiments/knapen_aot/videos/S_yt-2WPmM2vIuBE_41.mp4	0.0	147.18694519996643	2.5083208084106445
16	44.257654905319214	fix_post	2		12.0	14.0	2.5	/experiments/knapen_aot/videos/S_yt-2WPmM2vIuBE_41.mp4	0.0	149.69526600837708	0.10005307197570801
16	44.34195399284363	response	2	2		14.0	2.5	/experiments/knapen_aot/videos/S_yt-2WPmM2vIuBE_41.mp4	0.0	149.7795650959015	
17	44.35770797729492	fix_pre	0		56.0	15.0	2.5	/experiments/knapen_aot/videos/R_S_yt-GOgS--rzmKQ_51.mp4	0.0	149.79531908035278	0.4677879810333252
17	44.816174030303955	response	0	2		15.0	2.5	/experiments/knapen_aot/videos/R_S_yt-GOgS--rzmKQ_51.mp4	0.0	150.25378513336182	
17	44.82549595832825	movie	1		299.0	15.0	2.5	/experiments/knapen_aot/videos/R_S_yt-GOgS--rzmKQ_51.mp4	0.0	150.2631070613861	2.5071301460266113
17	47.33262610435486	fix_post	2		12.0	15.0	2.5	/experiments/knapen_aot/videos/R_S_yt-GOgS--rzmKQ_51.mp4	0.0	152.77023720741272	0.10007095336914062
17	47.35789895057678	response	2	2		15.0	2.5	/experiments/knapen_aot/videos/R_S_yt-GOgS--rzmKQ_51.mp4	0.0	152.79551005363464	
18	47.432697057724	fix_pre	0		34.0	16.0	2.5	/experiments/knapen_aot/videos/R_S_flickr-evananderica-2662125519_8.mp4	0.0	152.87030816078186	0.2832629680633545
18	47.70781111717224	response	0	2		16.0	2.5	/experiments/knapen_aot/videos/R_S_flickr-evananderica-2662125519_8.mp4	0.0	153.1454222202301	
18	47.71596002578735	movie	1		301.0	16.0	2.5	/experiments/knapen_aot/videos/R_S_flickr-evananderica-2662125519_8.mp4	0.0	153.15357112884521	2.508341073989868
18	50.22430109977722	fix_post	2		12.0	16.0	2.5	/experiments/knapen_aot/videos/R_S_flickr-evananderica-2662125519_8.mp4	0.0	155.66191220283508	0.09998393058776855
19	50.32428503036499	fix_pre	0		9.0	17.0	2.5	/experiments/knapen_aot/videos/R_S_ILSVRC2015_test_00004002.mp4	0.0	155.76189613342285	0.07511305809020996
19	50.3844940662384	response	0	2		17.0	2.5	/experiments/knapen_aot/videos/R_S_ILSVRC2015_test_00004002.mp4	0.0	155.82210516929626	
19	50.3993980884552	movie	1		301.0	17.0	2.5	/experiments/knapen_aot/videos/R_S_ILSVRC2015_test_00004002.mp4	0.0	155.83700919151306	2.508211851119995
19	52.907609939575195	fix_post	2		12.0	17.0	2.5	/experiments/knapen_aot/videos/R_S_ILSVRC2015_test_00004002.mp4	0.0	158.34522104263306	0.09998917579650879
19	52.99184799194336	response	2	2		17.0	2.5	/experiments/knapen_aot/videos/R_S_ILSVRC2015_test_00004002.mp4	0.0	158.42945909500122	
20	53.007599115371704	fix_pre	0		37.0	18.0	2.5	/experiments/knapen_aot/videos/S_yt-NLfzvAJgyJ4_120.mp4	0.0	158.44521021842957	0.3083479404449463
20	53.30767011642456	response	0	2		18.0	2.5	/experiments/knapen_aot/videos/S_yt-NLfzvAJgyJ4_120.mp4	0.0	158.74528121948242	
20	53.31594705581665	movie	1		301.0	18.0	2.5	/experiments/knapen_aot/videos/S_yt-NLfzvAJgyJ4_120.mp4	0.0	158.7535581588745	2.508319854736328
20	55.82426691055298	fix_post	2		12.0	18.0	2.5	/experiments/knapen_aot/videos/S_yt-NLfzvAJgyJ4_120.mp4	0.0	161.26187801361084	0.09992718696594238
21	55.92419409751892	fix_pre	0		6.0	19.0	2.5	/experiments/knapen_aot/videos/R_S_ILSVRC2015_train_00574004.mp4	0.0	161.36180520057678	0.050163984298706055
21	55.96608805656433	response	0	2		19.0	2.5	/experiments/knapen_aot/videos/R_S_ILSVRC2015_train_00574004.mp4	0.0	161.4036991596222	
21	55.97435808181763	movie	1		301.0	19.0	2.5	/experiments/knapen_aot/videos/R_S_ILSVRC2015_train_00574004.mp4	0.0	161.4119691848755	2.5082499980926514
21	58.48260807991028	fix_post	2		12.0	19.0	2.5	/experiments/knapen_aot/videos/R_S_ILSVRC2015_train_00574004.mp4	0.0	163.92021918296814	0.09995484352111816
22	58.5825629234314	fix_pre	0		16.0	20.0	2.5	blank	1.0	164.02017402648926	0.13337206840515137
22	58.70774507522583	response	0	2		20.0	2.5	blank	1.0	164.1453561782837	
22	58.71593499183655	movie	1		301.0	20.0	2.5	blank	1.0	164.1535460948944	2.5083580017089844
22	61.22429299354553	fix_post	2		12.0	20.0	2.5	blank	1.0	166.6619040966034	0.09998297691345215
23	61.324275970458984	fix_pre	0		15.0	21.0	2.5	/experiments/knapen_aot/videos/R_S_yt-35i8UeYXjGw_47.mp4	0.0	166.76188707351685	0.12605810165405273
23	61.44098997116089	response	0	2		21.0	2.5	/experiments/knapen_aot/videos/R_S_yt-35i8UeYXjGw_47.mp4	0.0	166.87860107421875	
23	61.45033407211304	movie	1		301.0	21.0	2.5	/experiments/knapen_aot/videos/R_S_yt-35i8UeYXjGw_47.mp4	0.0	166.8879451751709	2.5072548389434814
23	63.95758891105652	fix_post	2		12.0	21.0	2.5	/experiments/knapen_aot/videos/R_S_yt-35i8UeYXjGw_47.mp4	0.0	169.39520001411438	0.10001611709594727
24	64.05760502815247	fix_pre	0		5.0	22.0	2.5	/experiments/knapen_aot/videos/R_S_yt-i3-YlGenYmk_411.mp4	0.0	169.49521613121033	0.05000901222229004
24	64.09109401702881	response	0	2		22.0	2.5	/experiments/knapen_aot/videos/R_S_yt-i3-YlGenYmk_411.mp4	0.0	169.52870512008667	
24	64.10761404037476	movie	1		300.0	22.0	2.5	/experiments/knapen_aot/videos/R_S_yt-i3-YlGenYmk_411.mp4	0.0	169.54522514343262	2.49995493888855
24	66.6075689792633	fix_post	2		12.0	22.0	2.5	/experiments/knapen_aot/videos/R_S_yt-i3-YlGenYmk_411.mp4	0.0	172.04518008232117	0.1001579761505127
25	66.70772695541382	fix_pre	0		14.0	23.0	2.5	/experiments/knapen_aot/videos/S_yt-MNo__ov96eI_22.mp4	0.0	172.14533805847168	0.11755108833312988
25	66.81595993041992	response	0	2		23.0	2.5	/experiments/knapen_aot/videos/S_yt-MNo__ov96eI_22.mp4	0.0	172.25357103347778	
25	66.82527804374695	movie	1		301.0	23.0	2.5	/experiments/knapen_aot/videos/S_yt-MNo__ov96eI_22.mp4	0.0	172.2628891468048	2.507236957550049
25	69.332515001297	fix_post	2		12.0	23.0	2.5	/experiments/knapen_aot/videos/S_yt-MNo__ov96eI_22.mp4	0.0	174.77012610435486	0.10004591941833496
26	69.43256092071533	fix_pre	0		1.0	24.0	2.5	/experiments/knapen_aot/videos/R_S_yt-OFnDCbW9Ebo_31.mp4	0.0	174.8701720237732	0.0110931396484375
26	69.43432211875916	response	0	2		24.0	2.5	/experiments/knapen_aot/videos/R_S_yt-OFnDCbW9Ebo_31.mp4	0.0	174.87193322181702	
26	69.44365406036377	movie	1		301.0	24.0	2.5	/experiments/knapen_aot/videos/R_S_yt-OFnDCbW9Ebo_31.mp4	0.0	174.88126516342163	2.505452871322632
26	71.9491069316864	fix_post	2		12.0	24.0	2.5	/experiments/knapen_aot/videos/R_S_yt-OFnDCbW9Ebo_31.mp4	0.0	177.38671803474426	0.10013008117675781
26	72.0000410079956	response	2	2		24.0	2.5	/experiments/knapen_aot/videos/R_S_yt-OFnDCbW9Ebo_31.mp4	0.0	177.43765211105347	
27	72.04923701286316	fix_pre	0		45.0	25.0	2.5	/experiments/knapen_aot/videos/S_comp_GMT329_113NC_396B_1105_ITALY_v03_SDR_FINAL_20180706_SDR_2K_AVC.mp4	0.0	177.48684811592102	0.3749349117279053
27	72.41596603393555	response	0	2		25.0	2.5	/experiments/knapen_aot/videos/S_comp_GMT329_113NC_396B_1105_ITALY_v03_SDR_FINAL_20180706_SDR_2K_AVC.mp4	0.0	177.8535771369934	
27	72.42417192459106	movie	1		166.0	25.0	2.5	/experiments/knapen_aot/videos/S_comp_GMT329_113NC_396B_1105_ITALY_v03_SDR_FINAL_20180706_SDR_2K_AVC.mp4	0.0	177.86178302764893	2.5083980560302734
27	74.93256998062134	fix_post	2		12.0	25.0	2.5	/experiments/knapen_aot/videos/S_comp_GMT329_113NC_396B_1105_ITALY_v03_SDR_FINAL_20180706_SDR_2K_AVC.mp4	0.0	180.3701810836792	0.10102605819702148
27	75.02424311637878	response	2	2		25.0	2.5	/experiments/knapen_aot/videos/S_comp_GMT329_113NC_396B_1105_ITALY_v03_SDR_FINAL_20180706_SDR_2K_AVC.mp4	0.0	180.46185421943665	
28	75.03359603881836	fix_pre	0		38.0	26.0	2.5	/experiments/knapen_aot/videos/R_S_yt-AiXq1oDrEXI_123.mp4	0.0	180.47120714187622	0.31555700302124023
28	75.34088802337646	response	0	2		26.0	2.5	/experiments/knapen_aot/videos/R_S_yt-AiXq1oDrEXI_123.mp4	0.0	180.77849912643433	
28	75.3491530418396	movie	1		300.0	26.0	2.5	/experiments/knapen_aot/videos/R_S_yt-AiXq1oDrEXI_123.mp4	0.0	180.78676414489746	2.5083789825439453
28	77.85753202438354	fix_post	2		12.0	26.0	2.5	/experiments/knapen_aot/videos/R_S_yt-AiXq1oDrEXI_123.mp4	0.0	183.2951431274414	0.10000300407409668
29	77.95753502845764	fix_pre	0		16.0	27.0	2.5	/experiments/knapen_aot/videos/R_S_ILSVRC2015_train_00756000.mp4	0.0	183.3951461315155	0.13326597213745117
29	78.08285808563232	response	0	2		27.0	2.5	/experiments/knapen_aot/videos/R_S_ILSVRC2015_train_00756000.mp4	0.0	183.52046918869019	
29	78.09080100059509	movie	1		301.0	27.0	2.5	/experiments/knapen_aot/videos/R_S_ILSVRC2015_train_00756000.mp4	0.0	183.52841210365295	2.508291006088257
29	80.59909200668335	fix_post	2		12.0	27.0	2.5	/experiments/knapen_aot/videos/R_S_ILSVRC2015_train_00756000.mp4	0.0	186.0367031097412	0.10004806518554688
30	80.6991400718689	fix_pre	0		22.0	28.0	2.5	blank	1.0	186.13675117492676	0.18338704109191895
30	80.87425589561462	response	0	2		28.0	2.5	blank	1.0	186.31186699867249	
30	80.88252711296082	movie	1		301.0	28.0	2.5	blank	1.0	186.32013821601868	2.5083389282226562
30	83.39086604118347	fix_post	2		12.0	28.0	2.5	blank	1.0	188.82847714424133	0.09992384910583496
31	83.4907898902893	fix_pre	0		23.0	29.0	2.5	/experiments/knapen_aot/videos/S_ILSVRC2015_train_00363000.mp4	0.0	188.92840099334717	0.19166016578674316
31	83.67422604560852	response	0	2		29.0	2.5	/experiments/knapen_aot/videos/S_ILSVRC2015_train_00363000.mp4	0.0	189.11183714866638	
31	83.68245005607605	movie	1		301.0	29.0	2.5	/experiments/knapen_aot/videos/S_ILSVRC2015_train_00363000.mp4	0.0	189.1200611591339	2.5084218978881836
31	86.19087195396423	fix_post	2		12.0	29.0	2.5	/experiments/knapen_aot/videos/S_ILSVRC2015_train_00363000.mp4	0.0	191.6284830570221	0.09996199607849121
32	86.29083395004272	fix_pre	0		45.0	30.0	2.5	/experiments/knapen_aot/videos/S_flickr-reginahart-31964450591_23.mp4	0.0	191.7284450531006	0.3749380111694336
32	86.65762209892273	response	0	2		30.0	2.5	/experiments/knapen_aot/videos/S_flickr-reginahart-31964450591_23.mp4	0.0	192.0952332019806	
32	86.66577196121216	movie	1		168.0	30.0	2.5	/experiments/knapen_aot/videos/S_flickr-reginahart-31964450591_23.mp4	0.0	192.10338306427002	2.5082719326019287
32	89.17404389381409	fix_post	2		12.0	30.0	2.5	/experiments/knapen_aot/videos/S_flickr-reginahart-31964450591_23.mp4	0.0	194.61165499687195	0.1000821590423584
33	89.27412605285645	fix_pre	0		392.0	31.0	2.5	/experiments/knapen_aot/videos/S_yt-2WPmM2vIuBE_41.mp4	0.0	194.7117371559143	3.2665889263153076
33	92.53263092041016	response	0	2		31.0	2.5	/experiments/knapen_aot/videos/S_yt-2WPmM2vIuBE_41.mp4	0.0	197.97024202346802	
33	92.54071497917175	movie	1		301.0	31.0	2.5	/experiments/knapen_aot/videos/S_yt-2WPmM2vIuBE_41.mp4	0.0	197.97832608222961	2.5084400177001953
33	95.04915499687195	fix_post	2		12.0	31.0	2.5	/experiments/knapen_aot/videos/S_yt-2WPmM2vIuBE_41.mp4	0.0	200.4867660999298	0.09998512268066406
34	95.14914011955261	fix_pre	0		8.0	32.0	2.5	/experiments/knapen_aot/videos/R_S_yt-zydTlQGCUjQ_277.mp4	0.0	200.58675122261047	0.06672978401184082
34	95.20775008201599	response	0	2		32.0	2.5	/experiments/knapen_aot/videos/R_S_yt-zydTlQGCUjQ_277.mp4	0.0	200.64536118507385	
34	95.21586990356445	movie	1		301.0	32.0	2.5	/experiments/knapen_aot/videos/R_S_yt-zydTlQGCUjQ_277.mp4	0.0	200.65348100662231	2.5083510875701904
34	97.72422099113464	fix_post	2		12.0	32.0	2.5	/experiments/knapen_aot/videos/R_S_yt-zydTlQGCUjQ_277.mp4	0.0	203.1618320941925	0.0999290943145752
35	97.82415008544922	fix_pre	0		17.0	33.0	2.5	blank	1.0	203.26176118850708	0.1417078971862793
35	97.95759892463684	response	0	2		33.0	2.5	blank	1.0	203.3952100276947	
35	97.9658579826355	movie	1		301.0	33.0	2.5	blank	1.0	203.40346908569336	2.5082650184631348
35	100.47412300109863	fix_post	2		12.0	33.0	2.5	blank	1.0	205.9117341041565	0.10096192359924316
36	100.57508492469788	fix_pre	0		34.0	34.0	2.5	/experiments/knapen_aot/videos/S_G009_C003_UHD_SDR_2K_AVC.mp4	0.0	206.01269602775574	0.28230905532836914
36	100.84925508499146	response	0	2		34.0	2.5	/experiments/knapen_aot/videos/S_G009_C003_UHD_SDR_2K_AVC.mp4	0.0	206.28686618804932	
36	100.85739398002625	movie	1		168.0	34.0	2.5	/experiments/knapen_aot/videos/S_G009_C003_UHD_SDR_2K_AVC.mp4	0.0	206.2950050830841	2.5083439350128174
36	103.36573791503906	fix_post	2		12.0	34.0	2.5	/experiments/knapen_aot/videos/S_G009_C003_UHD_SDR_2K_AVC.mp4	0.0	208.80334901809692	0.10002708435058594
36	103.39090394973755	response	2	2		34.0	2.5	/experiments/knapen_aot/videos/S_G009_C003_UHD_SDR_2K_AVC.mp4	0.0	208.8285150527954	
37	103.46576499938965	fix_pre	0		33.0	35.0	2.5	/experiments/knapen_aot/videos/R_S_comp_GMT314_139M_170NC_NORTH_AMERICA_AURORA__COMP_v22_SDR_20181206_v12CC_SDR_2K_AVC.mp4	0.0	208.9033761024475	0.2758650779724121
37	103.73267698287964	response	0	2		35.0	2.5	/experiments/knapen_aot/videos/R_S_comp_GMT314_139M_170NC_NORTH_AMERICA_AURORA__COMP_v22_SDR_20181206_v12CC_SDR_2K_AVC.mp4	0.0	209.1702880859375	
37	103.74163007736206	movie	1		165.0	35.0	2.5	/experiments/knapen_aot/videos/R_S_comp_GMT314_139M_170NC_NORTH_AMERICA_AURORA__COMP_v22_SDR_20181206_v12CC_SDR_2K_AVC.mp4	0.0	209.17924118041992	2.5074708461761475
37	106.24910092353821	fix_post	2		12.0	35.0	2.5	/experiments/knapen_aot/videos/R_S_comp_GMT314_139M_170NC_NORTH_AMERICA_AURORA__COMP_v22_SDR_20181206_v12CC_SDR_2K_AVC.mp4	0.0	211.68671202659607	0.09992098808288574
37	106.3075659275055	response	2	2		35.0	2.5	/experiments/knapen_aot/videos/R_S_comp_GMT314_139M_170NC_NORTH_AMERICA_AURORA__COMP_v22_SDR_20181206_v12CC_SDR_2K_AVC.mp4	0.0	211.74517703056335	
38	106.3490219116211	fix_pre	0		36.0	36.0	2.5	/experiments/knapen_aot/videos/S_ILSVRC2015_train_00405001.mp4	0.0	211.78663301467896	0.3000152111053467
38	106.63329005241394	response	0	2		36.0	2.5	/experiments/knapen_aot/videos/S_ILSVRC2015_train_00405001.mp4	0.0	212.0709011554718	
38	106.64903712272644	movie	1		301.0	36.0	2.5	/experiments/knapen_aot/videos/S_ILSVRC2015_train_00405001.mp4	0.0	212.0866482257843	2.5083727836608887
38	109.15740990638733	fix_post	2		12.0	36.0	2.5	/experiments/knapen_aot/videos/S_ILSVRC2015_train_00405001.mp4	0.0	214.5950210094452	0.10004305839538574
39	109.25745296478271	fix_pre	0		4.0	37.0	2.5	/experiments/knapen_aot/videos/S_yt-Z4W6l0eZza4_6.mp4	0.0	214.69506406784058	0.03328108787536621
39	109.28250694274902	response	0	2		37.0	2.5	/experiments/knapen_aot/videos/S_yt-Z4W6l0eZza4_6.mp4	0.0	214.72011804580688	
39	109.29073405265808	movie	1		301.0	37.0	2.5	/experiments/knapen_aot/videos/S_yt-Z4W6l0eZza4_6.mp4	0.0	214.72834515571594	2.5083348751068115
39	111.79906892776489	fix_post	2		12.0	37.0	2.5	/experiments/knapen_aot/videos/S_yt-Z4W6l0eZza4_6.mp4	0.0	217.23668003082275	0.09993910789489746
40	111.89900803565979	fix_pre	0		10.0	38.0	2.5	/experiments/knapen_aot/videos/R_S_yt-SkIJvj6KNOo_33.mp4	0.0	217.33661913871765	0.08341407775878906
40	111.9741039276123	response	0	2		38.0	2.5	/experiments/knapen_aot/videos/R_S_yt-SkIJvj6KNOo_33.mp4	0.0	217.41171503067017	
40	111.98242211341858	movie	1		301.0	38.0	2.5	/experiments/knapen_aot/videos/R_S_yt-SkIJvj6KNOo_33.mp4	0.0	217.42003321647644	2.5082759857177734
40	114.49069809913635	fix_post	2		12.0	38.0	2.5	/experiments/knapen_aot/videos/R_S_yt-SkIJvj6KNOo_33.mp4	0.0	219.9283092021942	0.0999908447265625
41	114.59068894386292	fix_pre	0		25.0	39.0	2.5	/experiments/knapen_aot/videos/R_S_pexels-koolshooters-7327401.mp4	0.0	220.02830004692078	0.20832395553588867
41	114.79085612297058	response	0	2		39.0	2.5	/experiments/knapen_aot/videos/R_S_pexels-koolshooters-7327401.mp4	0.0	220.22846722602844	
41	114.7990128993988	movie	1		167.0	39.0	2.5	/experiments/knapen_aot/videos/R_S_pexels-koolshooters-7327401.mp4	0.0	220.23662400245667	2.508362054824829
41	117.30737495422363	fix_post	2		12.0	39.0	2.5	/experiments/knapen_aot/videos/R_S_pexels-koolshooters-7327401.mp4	0.0	222.7449860572815	0.09999704360961914
42	117.40737199783325	fix_pre	0		12.0	40.0	2.5	blank	1.0	222.8449831008911	0.09987902641296387
42	117.49913907051086	response	0	2		40.0	2.5	blank	1.0	222.93675017356873	
42	117.50725102424622	movie	1		301.0	40.0	2.5	blank	1.0	222.94486212730408	2.508409023284912
42	120.01566004753113	fix_post	2		12.0	40.0	2.5	blank	1.0	225.453271150589	0.09999299049377441
43	120.1156530380249	fix_pre	0		37.0	41.0	2.5	/experiments/knapen_aot/videos/S_JApTAOdfunE_1251.mp4	0.0	225.55326414108276	0.30835604667663574
43	120.41577410697937	response	0	2		41.0	2.5	/experiments/knapen_aot/videos/S_JApTAOdfunE_1251.mp4	0.0	225.85338521003723	
43	120.42400908470154	movie	1		301.0	41.0	2.5	/experiments/knapen_aot/videos/S_JApTAOdfunE_1251.mp4	0.0	225.8616201877594	2.5083868503570557
43	122.9323959350586	fix_post	2		12.0	41.0	2.5	/experiments/knapen_aot/videos/S_JApTAOdfunE_1251.mp4	0.0	228.37000703811646	0.100128173828125
44	123.03252410888672	fix_pre	0		14.0	42.0	2.5	/experiments/knapen_aot/videos/R_S_yt-2l6VKd94eAI_151.mp4	0.0	228.47013521194458	0.11648392677307129
44	123.14087700843811	response	0	2		42.0	2.5	/experiments/knapen_aot/videos/R_S_yt-2l6VKd94eAI_151.mp4	0.0	228.57848811149597	
44	123.14900803565979	movie	1		301.0	42.0	2.5	/experiments/knapen_aot/videos/R_S_yt-2l6VKd94eAI_151.mp4	0.0	228.58661913871765	2.5083179473876953
44	125.65732598304749	fix_post	2		12.0	42.0	2.5	/experiments/knapen_aot/videos/R_S_yt-2l6VKd94eAI_151.mp4	0.0	231.09493708610535	0.10006213188171387
45	125.7573881149292	fix_pre	0		2.0	43.0	2.5	/experiments/knapen_aot/videos/S_yt-Fm97IY0Z2LU_79.mp4	0.0	231.19499921798706	0.016665935516357422
45	125.76578998565674	response	0	2		43.0	2.5	/experiments/knapen_aot/videos/S_yt-Fm97IY0Z2LU_79.mp4	0.0	231.2034010887146	
45	125.77405405044556	movie	1		301.0	43.0	2.5	/experiments/knapen_aot/videos/S_yt-Fm97IY0Z2LU_79.mp4	0.0	231.21166515350342	2.5082850456237793
45	128.28233909606934	fix_post	2		12.0	43.0	2.5	/experiments/knapen_aot/videos/S_yt-Fm97IY0Z2LU_79.mp4	0.0	233.7199501991272	0.09994292259216309
46	128.3822820186615	fix_pre	0		12.0	44.0	2.5	/experiments/knapen_aot/videos/S_yt-aSEKRE_FNaI_62.mp4	0.0	233.81989312171936	0.09999990463256836
46	128.47409105300903	response	0	2		44.0	2.5	/experiments/knapen_aot/videos/S_yt-aSEKRE_FNaI_62.mp4	0.0	233.9117021560669	
46	128.48228192329407	movie	1		301.0	44.0	2.5	/experiments/knapen_aot/videos/S_yt-aSEKRE_FNaI_62.mp4	0.0	233.91989302635193	2.5083811283111572
46	130.99066305160522	fix_post	2		12.0	44.0	2.5	/experiments/knapen_aot/videos/S_yt-aSEKRE_FNaI_62.mp4	0.0	236.4282741546631	0.09996795654296875
47	131.0906310081482	fix_pre	0		12.0	45.0	2.5	/experiments/knapen_aot/videos/R_S_yt-2WPmM2vIuBE_41.mp4	0.0	236.52824211120605	0.10000109672546387
47	131.1824939250946	response	0	2		45.0	2.5	/experiments/knapen_aot/videos/R_S_yt-2WPmM2vIuBE_41.mp4	0.0	236.62010502815247	
47	131.19063210487366	movie	1		301.0	45.0	2.5	/experiments/knapen_aot/videos/R_S_yt-2WPmM2vIuBE_41.mp4	0.0	236.62824320793152	2.508309841156006
47	133.69894194602966	fix_post	2		12.0	45.0	2.5	/experiments/knapen_aot/videos/R_S_yt-2WPmM2vIuBE_41.mp4	0.0	239.13655304908752	0.09997916221618652
48	133.79892110824585	fix_pre	0		4.0	46.0	2.5	/experiments/knapen_aot/videos/R_S_yt-5ws2gxbcjs4_381.mp4	0.0	239.2365322113037	0.033368825912475586
48	133.82406997680664	response	0	2		46.0	2.5	/experiments/knapen_aot/videos/R_S_yt-5ws2gxbcjs4_381.mp4	0.0	239.2616810798645	
48	133.83228993415833	movie	1		301.0	46.0	2.5	/experiments/knapen_aot/videos/R_S_yt-5ws2gxbcjs4_381.mp4	0.0	239.2699010372162	2.5083391666412354
48	136.29069805145264	response	1	2		46.0	2.5	/experiments/knapen_aot/videos/R_S_yt-5ws2gxbcjs4_381.mp4	0.0	241.7283091545105	
48	136.34062910079956	fix_post	2		12.0	46.0	2.5	/experiments/knapen_aot/videos/R_S_yt-5ws2gxbcjs4_381.mp4	0.0	241.77824020385742	0.10009884834289551
49	136.44072794914246	fix_pre	0		35.0	47.0	2.5	blank	1.0	241.87833905220032	0.2915079593658447
49	136.71663093566895	response	0	2		47.0	2.5	blank	1.0	242.1542420387268	
49	136.7322359085083	movie	1		301.0	47.0	2.5	blank	1.0	242.16984701156616	2.5083770751953125
49	139.2406129837036	fix_post	2		12.0	47.0	2.5	blank	1.0	244.67822408676147	0.0999290943145752
50	139.3405420780182	fix_pre	0		43.0	48.0	2.5	/experiments/knapen_aot/videos/R_S_comp_GMT329_113NC_396B_1105_ITALY_v03_SDR_FINAL_20180706_SDR_2K_AVC.mp4	0.0	244.77815318107605	0.35912299156188965
50	139.69070100784302	response	0	2		48.0	2.5	/experiments/knapen_aot/videos/R_S_comp_GMT329_113NC_396B_1105_ITALY_v03_SDR_FINAL_20180706_SDR_2K_AVC.mp4	0.0	245.12831211090088	
50	139.69966506958008	movie	1		167.0	48.0	2.5	/experiments/knapen_aot/videos/R_S_comp_GMT329_113NC_396B_1105_ITALY_v03_SDR_FINAL_20180706_SDR_2K_AVC.mp4	0.0	245.13727617263794	2.5076119899749756
50	142.20727705955505	fix_post	2		12.0	48.0	2.5	/experiments/knapen_aot/videos/R_S_comp_GMT329_113NC_396B_1105_ITALY_v03_SDR_FINAL_20180706_SDR_2K_AVC.mp4	0.0	247.64488816261292	0.10003495216369629
50	142.24999403953552	response	2	2		48.0	2.5	/experiments/knapen_aot/videos/R_S_comp_GMT329_113NC_396B_1105_ITALY_v03_SDR_FINAL_20180706_SDR_2K_AVC.mp4	0.0	247.68760514259338	
51	142.30731201171875	fix_pre	0		40.0	49.0	2.5	/experiments/knapen_aot/videos/R_S_yt-bTcbsBET7gc_270.mp4	0.0	247.7449231147766	0.33321404457092285
51	142.63235092163086	response	0	2		49.0	2.5	/experiments/knapen_aot/videos/R_S_yt-bTcbsBET7gc_270.mp4	0.0	248.06996202468872	
51	142.64052605628967	movie	1		301.0	49.0	2.5	/experiments/knapen_aot/videos/R_S_yt-bTcbsBET7gc_270.mp4	0.0	248.07813715934753	2.5083298683166504
51	145.14885592460632	fix_post	2		12.0	49.0	2.5	/experiments/knapen_aot/videos/R_S_yt-bTcbsBET7gc_270.mp4	0.0	250.58646702766418	0.10006499290466309
51	145.23235702514648	response	2	2		49.0	2.5	/experiments/knapen_aot/videos/R_S_yt-bTcbsBET7gc_270.mp4	0.0	250.66996812820435	
52	145.248920917511	fix_pre	0		41.0	50.0	2.5	/experiments/knapen_aot/videos/R_S_pexels-c-technical-6753390_2.mp4	0.0	250.68653202056885	0.34159016609191895
52	145.58236289024353	response	0	2		50.0	2.5	/experiments/knapen_aot/videos/R_S_pexels-c-technical-6753390_2.mp4	0.0	251.0199739933014	
52	145.5905110836029	movie	1		205.0	50.0	2.5	/experiments/knapen_aot/videos/R_S_pexels-c-technical-6753390_2.mp4	0.0	251.02812218666077	2.5083348751068115
52	148.09884595870972	fix_post	2		12.0	50.0	2.5	/experiments/knapen_aot/videos/R_S_pexels-c-technical-6753390_2.mp4	0.0	253.53645706176758	0.10002398490905762
53	148.19886994361877	fix_pre	0		4.0	51.0	2.5	/experiments/knapen_aot/videos/S_ILSVRC2015_train_00689000.mp4	0.0	253.63648104667664	0.03338003158569336
53	148.22396111488342	response	0	2		51.0	2.5	/experiments/knapen_aot/videos/S_ILSVRC2015_train_00689000.mp4	0.0	253.66157221794128	
53	148.23224997520447	movie	1		301.0	51.0	2.5	/experiments/knapen_aot/videos/S_ILSVRC2015_train_00689000.mp4	0.0	253.66986107826233	2.5083119869232178
53	150.74056196212769	fix_post	2		12.0	51.0	2.5	/experiments/knapen_aot/videos/S_ILSVRC2015_train_00689000.mp4	0.0	256.17817306518555	0.09998798370361328
54	150.8405499458313	fix_pre	0		11.0	52.0	2.5	/experiments/knapen_aot/videos/S_yt-mQRzWCcKOR8_28.mp4	0.0	256.27816104888916	0.09162616729736328
54	150.92406010627747	response	0	2		52.0	2.5	/experiments/knapen_aot/videos/S_yt-mQRzWCcKOR8_28.mp4	0.0	256.3616712093353	
54	150.93217611312866	movie	1		301.0	52.0	2.5	/experiments/knapen_aot/videos/S_yt-mQRzWCcKOR8_28.mp4	0.0	256.3697872161865	2.508387804031372
54	153.44056391716003	fix_post	2		12.0	52.0	2.5	/experiments/knapen_aot/videos/S_yt-mQRzWCcKOR8_28.mp4	0.0	258.8781750202179	0.10000419616699219
55	153.54056811332703	fix_pre	0		25.0	53.0	2.5	/experiments/knapen_aot/videos/S_ILSVRC2015_train_00715000.mp4	0.0	258.9781792163849	0.20833182334899902
55	153.74064111709595	response	0	2		53.0	2.5	/experiments/knapen_aot/videos/S_ILSVRC2015_train_00715000.mp4	0.0	259.1782522201538	
55	153.74889993667603	movie	1		301.0	53.0	2.5	/experiments/knapen_aot/videos/S_ILSVRC2015_train_00715000.mp4	0.0	259.1865110397339	2.5082900524139404
55	156.25718998908997	fix_post	2		12.0	53.0	2.5	/experiments/knapen_aot/videos/S_ILSVRC2015_train_00715000.mp4	0.0	261.6948010921478	0.09998011589050293
56	156.35717010498047	fix_pre	0		15.0	54.0	2.5	/experiments/knapen_aot/videos/R_S_yt-w_e3sxIzepA_115.mp4	0.0	261.79478120803833	0.12502479553222656
56	156.4740390777588	response	0	2		54.0	2.5	/experiments/knapen_aot/videos/R_S_yt-w_e3sxIzepA_115.mp4	0.0	261.91165018081665	
56	156.4821949005127	movie	1		301.0	54.0	2.5	/experiments/knapen_aot/videos/R_S_yt-w_e3sxIzepA_115.mp4	0.0	261.91980600357056	2.5082809925079346
56	158.99047589302063	fix_post	2		12.0	54.0	2.5	/experiments/knapen_aot/videos/R_S_yt-w_e3sxIzepA_115.mp4	0.0	264.4280869960785	0.09994816780090332
56	159.07390999794006	response	2	2		54.0	2.5	/experiments/knapen_aot/videos/R_S_yt-w_e3sxIzepA_115.mp4	0.0	264.5115211009979	
57	159.09042406082153	fix_pre	0		38.0	55.0	2.5	blank	1.0	264.5280351638794	0.31737685203552246
57	159.39895296096802	response	0	2		55.0	2.5	blank	1.0	264.8365640640259	
57	159.40780091285706	movie	1		301.0	55.0	2.5	blank	1.0	264.8454120159149	2.5077850818634033
57	161.91558599472046	fix_post	2		12.0	55.0	2.5	blank	1.0	267.3531970977783	0.09999203681945801
58	162.01557803153992	fix_pre	0		19.0	56.0	2.5	/experiments/knapen_aot/videos/S_yt--a-d97T4Gak_75.mp4	0.0	267.4531891345978	0.15826702117919922
58	162.16558194160461	response	0	2		56.0	2.5	/experiments/knapen_aot/videos/S_yt--a-d97T4Gak_75.mp4	0.0	267.6031930446625	
58	162.17384505271912	movie	1		297.0	56.0	2.5	/experiments/knapen_aot/videos/S_yt--a-d97T4Gak_75.mp4	0.0	267.611456155777	2.5083420276641846
58	164.6821870803833	fix_post	2		12.0	56.0	2.5	/experiments/knapen_aot/videos/S_yt--a-d97T4Gak_75.mp4	0.0	270.11979818344116	0.10012292861938477
59	164.78231000900269	fix_pre	0		6.0	57.0	2.5	/experiments/knapen_aot/videos/S_yt-LGwEki4ghNw_69.mp4	0.0	270.21992111206055	0.049868106842041016
59	164.82389998435974	response	0	2		57.0	2.5	/experiments/knapen_aot/videos/S_yt-LGwEki4ghNw_69.mp4	0.0	270.2615110874176	
59	164.83217811584473	movie	1		301.0	57.0	2.5	/experiments/knapen_aot/videos/S_yt-LGwEki4ghNw_69.mp4	0.0	270.2697892189026	2.508298873901367
59	167.3404769897461	fix_post	2		12.0	57.0	2.5	/experiments/knapen_aot/videos/S_yt-LGwEki4ghNw_69.mp4	0.0	272.77808809280396	0.09998512268066406
60	167.44046211242676	fix_pre	0		9.0	58.0	2.5	/experiments/knapen_aot/videos/R_S_yt-lkpfs_4qAGE_50.mp4	0.0	272.8780732154846	0.09222197532653809
60	167.5239269733429	response	0	2		58.0	2.5	/experiments/knapen_aot/videos/R_S_yt-lkpfs_4qAGE_50.mp4	0.0	272.96153807640076	
60	167.5326840877533	movie	1		301.0	58.0	2.5	/experiments/knapen_aot/videos/R_S_yt-lkpfs_4qAGE_50.mp4	0.0	272.97029519081116	2.5078330039978027
60	170.0405170917511	fix_post	2		12.0	58.0	2.5	/experiments/knapen_aot/videos/R_S_yt-lkpfs_4qAGE_50.mp4	0.0	275.47812819480896	0.09995794296264648
61	170.14047503471375	fix_pre	0		5.0	59.0	2.5	/experiments/knapen_aot/videos/R_S_yt-v8e_DlCsP4w_10.mp4	0.0	275.5780861377716	0.04167008399963379
61	170.17390608787537	response	0	2		59.0	2.5	/experiments/knapen_aot/videos/R_S_yt-v8e_DlCsP4w_10.mp4	0.0	275.6115171909332	
61	170.18214511871338	movie	1		301.0	59.0	2.5	/experiments/knapen_aot/videos/R_S_yt-v8e_DlCsP4w_10.mp4	0.0	275.61975622177124	2.508380889892578
61	172.69052600860596	fix_post	2		12.0	59.0	2.5	/experiments/knapen_aot/videos/R_S_yt-v8e_DlCsP4w_10.mp4	0.0	278.1281371116638	0.10001206398010254
62	172.79053807258606	fix_pre	0		4.0	60.0	2.5	/experiments/knapen_aot/videos/S_yt-yXJr3FR2xrM_27.mp4	0.0	278.2281491756439	0.03410482406616211
62	172.8156259059906	response	0	2		60.0	2.5	/experiments/knapen_aot/videos/S_yt-yXJr3FR2xrM_27.mp4	0.0	278.25323700904846	
62	172.82464289665222	movie	1		301.0	60.0	2.5	/experiments/knapen_aot/videos/S_yt-yXJr3FR2xrM_27.mp4	0.0	278.2622539997101	2.5075881481170654
62	175.3322310447693	fix_post	2		12.0	60.0	2.5	/experiments/knapen_aot/videos/S_yt-yXJr3FR2xrM_27.mp4	0.0	280.76984214782715	0.09995508193969727
63	175.43218612670898	fix_pre	0		9.0	61.0	2.5	/experiments/knapen_aot/videos/R_S_yt-QD74nNliDvI_10.mp4	0.0	280.86979722976685	0.07495379447937012
63	175.4989619255066	response	0	2		61.0	2.5	/experiments/knapen_aot/videos/R_S_yt-QD74nNliDvI_10.mp4	0.0	280.93657302856445	
63	175.50713992118835	movie	1		299.0	61.0	2.5	/experiments/knapen_aot/videos/R_S_yt-QD74nNliDvI_10.mp4	0.0	280.9447510242462	2.508272171020508
63	178.01541209220886	fix_post	2		12.0	61.0	2.5	/experiments/knapen_aot/videos/R_S_yt-QD74nNliDvI_10.mp4	0.0	283.4530231952667	0.10009598731994629
64	178.1155080795288	fix_pre	0		6.0	62.0	2.5	/experiments/knapen_aot/videos/R_S_yt-wrfAMDCg93Y_8.mp4	0.0	283.55311918258667	0.04996085166931152
64	178.15727400779724	response	0	2		62.0	2.5	/experiments/knapen_aot/videos/R_S_yt-wrfAMDCg93Y_8.mp4	0.0	283.5948851108551	
64	178.16546893119812	movie	1		301.0	62.0	2.5	/experiments/knapen_aot/videos/R_S_yt-wrfAMDCg93Y_8.mp4	0.0	283.603080034256	2.508376121520996
64	180.67384505271912	fix_post	2		12.0	62.0	2.5	/experiments/knapen_aot/videos/R_S_yt-wrfAMDCg93Y_8.mp4	0.0	286.111456155777	0.09991598129272461
65	180.77376103401184	fix_pre	0		15.0	63.0	2.5	blank	1.0	286.2113721370697	0.12496399879455566
65	180.89059805870056	response	0	2		63.0	2.5	blank	1.0	286.3282091617584	
65	180.8987250328064	movie	1		301.0	63.0	2.5	blank	1.0	286.33633613586426	2.508370876312256
65	183.40709590911865	fix_post	2		12.0	63.0	2.5	blank	1.0	288.8447070121765	0.09989118576049805
66	183.50698709487915	fix_pre	0		18.0	64.0	2.5	/experiments/knapen_aot/videos/S_yt-OFnDCbW9Ebo_31.mp4	0.0	288.944598197937	0.15056991577148438
66	183.64886593818665	response	0	2		64.0	2.5	/experiments/knapen_aot/videos/S_yt-OFnDCbW9Ebo_31.mp4	0.0	289.0864770412445	
66	183.65755701065063	movie	1		301.0	64.0	2.5	/experiments/knapen_aot/videos/S_yt-OFnDCbW9Ebo_31.mp4	0.0	289.0951681137085	2.507827043533325
66	186.16538405418396	fix_post	2		12.0	64.0	2.5	/experiments/knapen_aot/videos/S_yt-OFnDCbW9Ebo_31.mp4	0.0	291.6029951572418	0.10003805160522461
67	186.26542210578918	fix_pre	0		16.0	65.0	2.5	/experiments/knapen_aot/videos/S_ILSVRC2015_train_00404003.mp4	0.0	291.70303320884705	0.13336181640625
67	186.39054489135742	response	0	2		65.0	2.5	/experiments/knapen_aot/videos/S_ILSVRC2015_train_00404003.mp4	0.0	291.8281559944153	
67	186.39878392219543	movie	1		298.0	65.0	2.5	/experiments/knapen_aot/videos/S_ILSVRC2015_train_00404003.mp4	0.0	291.8363950252533	2.5082991123199463
67	188.90708303451538	fix_post	2		12.0	65.0	2.5	/experiments/knapen_aot/videos/S_ILSVRC2015_train_00404003.mp4	0.0	294.34469413757324	0.09999394416809082
68	189.00707697868347	fix_pre	0		7.0	66.0	2.5	/experiments/knapen_aot/videos/R_S_comp_GL_G010_C006_PSNK_NOSUN_v12_SDR_PS_FINAL_20180709_SDR_2K_AVC.mp4	0.0	294.44468808174133	0.05833005905151367
68	189.0571529865265	response	0	2		66.0	2.5	/experiments/knapen_aot/videos/R_S_comp_GL_G010_C006_PSNK_NOSUN_v12_SDR_PS_FINAL_20180709_SDR_2K_AVC.mp4	0.0	294.49476408958435	
68	189.06540703773499	movie	1		163.0	66.0	2.5	/experiments/knapen_aot/videos/R_S_comp_GL_G010_C006_PSNK_NOSUN_v12_SDR_PS_FINAL_20180709_SDR_2K_AVC.mp4	0.0	294.50301814079285	2.508286952972412
68	191.5736939907074	fix_post	2		12.0	66.0	2.5	/experiments/knapen_aot/videos/R_S_comp_GL_G010_C006_PSNK_NOSUN_v12_SDR_PS_FINAL_20180709_SDR_2K_AVC.mp4	0.0	297.01130509376526	0.1000669002532959
69	191.6737608909607	fix_pre	0		2.0	67.0	2.5	/experiments/knapen_aot/videos/S_yt-tEzCpMrjOHs_24.mp4	0.0	297.11137199401855	0.016619205474853516
69	191.68220210075378	response	0	2		67.0	2.5	/experiments/knapen_aot/videos/S_yt-tEzCpMrjOHs_24.mp4	0.0	297.11981320381165	
69	191.69038009643555	movie	1		301.0	67.0	2.5	/experiments/knapen_aot/videos/S_yt-tEzCpMrjOHs_24.mp4	0.0	297.1279911994934	2.508319854736328
69	194.19869995117188	fix_post	2		12.0	67.0	2.5	/experiments/knapen_aot/videos/S_yt-tEzCpMrjOHs_24.mp4	0.0	299.63631105422974	0.09995913505554199
70	194.29865908622742	fix_pre	0		10.0	68.0	2.5	blank	1.0	299.7362701892853	0.08333086967468262
70	194.37375211715698	response	0	2		68.0	2.5	blank	1.0	299.81136322021484	
70	194.3819899559021	movie	1		301.0	68.0	2.5	blank	1.0	299.81960105895996	2.5083730220794678
70	196.89036297798157	fix_post	2		12.0	68.0	2.5	blank	1.0	302.32797408103943	0.10000205039978027
71	196.99036502838135	fix_pre	0		27.0	69.0	2.5	/experiments/knapen_aot/videos/R_S_yt-28ODBE9bVh0_44.mp4	0.0	302.4279761314392	0.22501206398010254
71	197.20739006996155	response	0	2		69.0	2.5	/experiments/knapen_aot/videos/R_S_yt-28ODBE9bVh0_44.mp4	0.0	302.6450011730194	
71	197.21537709236145	movie	1		301.0	69.0	2.5	/experiments/knapen_aot/videos/R_S_yt-28ODBE9bVh0_44.mp4	0.0	302.6529881954193	2.5082108974456787
71	199.72358798980713	fix_post	2		12.0	69.0	2.5	/experiments/knapen_aot/videos/R_S_yt-28ODBE9bVh0_44.mp4	0.0	305.161199092865	0.10004091262817383
72	199.8236289024353	fix_pre	0		21.0	70.0	2.5	/experiments/knapen_aot/videos/R_S_yt-aSEKRE_FNaI_62.mp4	0.0	305.26124000549316	0.1750321388244629
72	199.98295307159424	response	0	2		70.0	2.5	/experiments/knapen_aot/videos/R_S_yt-aSEKRE_FNaI_62.mp4	0.0	305.4205641746521	
72	199.99866104125977	movie	1		301.0	70.0	2.5	/experiments/knapen_aot/videos/R_S_yt-aSEKRE_FNaI_62.mp4	0.0	305.4362721443176	2.5082380771636963
72	202.50689911842346	fix_post	2		12.0	70.0	2.5	/experiments/knapen_aot/videos/R_S_yt-aSEKRE_FNaI_62.mp4	0.0	307.9445102214813	0.10006093978881836
73	202.60696005821228	fix_pre	0		21.0	71.0	2.5	/experiments/knapen_aot/videos/S_yt-mJzkLd3Mr_c_35.mp4	0.0	308.04457116127014	0.1754288673400879
73	202.77382898330688	response	0	2		71.0	2.5	/experiments/knapen_aot/videos/S_yt-mJzkLd3Mr_c_35.mp4	0.0	308.21144008636475	
73	202.78238892555237	movie	1		301.0	71.0	2.5	/experiments/knapen_aot/videos/S_yt-mJzkLd3Mr_c_35.mp4	0.0	308.22000002861023	2.5079030990600586
73	205.29029202461243	fix_post	2		12.0	71.0	2.5	/experiments/knapen_aot/videos/S_yt-mJzkLd3Mr_c_35.mp4	0.0	310.7279031276703	0.10000205039978027
74	205.3902940750122	fix_pre	0		17.0	72.0	2.5	/experiments/knapen_aot/videos/S_comp_A009_C001_010181A_v09_SDR_PS_FINAL_20180725_SDR_2K_AVC.mp4	0.0	310.82790517807007	0.14205503463745117
74	205.52382493019104	response	0	2		72.0	2.5	/experiments/knapen_aot/videos/S_comp_A009_C001_010181A_v09_SDR_PS_FINAL_20180725_SDR_2K_AVC.mp4	0.0	310.9614360332489	
74	205.53234910964966	movie	1		163.0	72.0	2.5	/experiments/knapen_aot/videos/S_comp_A009_C001_010181A_v09_SDR_PS_FINAL_20180725_SDR_2K_AVC.mp4	0.0	310.9699602127075	2.5078787803649902
74	208.04022789001465	fix_post	2		12.0	72.0	2.5	/experiments/knapen_aot/videos/S_comp_A009_C001_010181A_v09_SDR_PS_FINAL_20180725_SDR_2K_AVC.mp4	0.0	313.4778389930725	0.10004806518554688
75	208.1402759552002	fix_pre	0		11.0	73.0	2.5	/experiments/knapen_aot/videos/R_S_ILSVRC2015_train_00415005.mp4	0.0	313.57788705825806	0.09168815612792969
75	208.22369194030762	response	0	2		73.0	2.5	/experiments/knapen_aot/videos/R_S_ILSVRC2015_train_00415005.mp4	0.0	313.6613030433655	
75	208.23196411132812	movie	1		301.0	73.0	2.5	/experiments/knapen_aot/videos/R_S_ILSVRC2015_train_00415005.mp4	0.0	313.669575214386	2.5082969665527344
75	210.74026107788086	fix_post	2		12.0	73.0	2.5	/experiments/knapen_aot/videos/R_S_ILSVRC2015_train_00415005.mp4	0.0	316.1778721809387	0.09994292259216309
76	210.84020400047302	fix_pre	0		5.0	74.0	2.5	/experiments/knapen_aot/videos/S_yt-feTWuKPZA_k_34.mp4	0.0	316.2778151035309	0.04175591468811035
76	210.87393307685852	response	0	2		74.0	2.5	/experiments/knapen_aot/videos/S_yt-feTWuKPZA_k_34.mp4	0.0	316.3115441799164	
76	210.88195991516113	movie	1		301.0	74.0	2.5	/experiments/knapen_aot/videos/S_yt-feTWuKPZA_k_34.mp4	0.0	316.319571018219	2.508333206176758
76	213.3902931213379	fix_post	2		12.0	74.0	2.5	/experiments/knapen_aot/videos/S_yt-feTWuKPZA_k_34.mp4	0.0	318.82790422439575	0.10035300254821777
77	213.4906461238861	fix_pre	0		12.0	75.0	2.5	/experiments/knapen_aot/videos/S_xTlFOCRvy68_1564.mp4	0.0	318.92825722694397	0.09956789016723633
77	213.5746989250183	response	0	2		75.0	2.5	/experiments/knapen_aot/videos/S_xTlFOCRvy68_1564.mp4	0.0	319.0123100280762	
77	213.59021401405334	movie	1		301.0	75.0	2.5	/experiments/knapen_aot/videos/S_xTlFOCRvy68_1564.mp4	0.0	319.0278251171112	2.5083510875701904
77	216.09856510162354	fix_post	2		12.0	75.0	2.5	/experiments/knapen_aot/videos/S_xTlFOCRvy68_1564.mp4	0.0	321.5361762046814	0.10003185272216797
78	216.1985969543457	fix_pre	0		12.0	76.0	2.5	blank	1.0	321.63620805740356	0.09995794296264648
78	216.2904040813446	response	0	2		76.0	2.5	blank	1.0	321.72801518440247	
78	216.29855489730835	movie	1		301.0	76.0	2.5	blank	1.0	321.7361660003662	2.5083930492401123
78	218.80694794654846	fix_post	2		12.0	76.0	2.5	blank	1.0	324.2445590496063	0.10033512115478516
79	218.90728306770325	fix_pre	0		57.0	77.0	2.5	/experiments/knapen_aot/videos/R_S_comp_LA_A005_C009_PSNK_ALT_v09_SDR_PS_201809134_SDR_2K_AVC.mp4	0.0	324.3448941707611	0.47463083267211914
79	219.37370610237122	response	0	2		77.0	2.5	/experiments/knapen_aot/videos/R_S_comp_LA_A005_C009_PSNK_ALT_v09_SDR_PS_201809134_SDR_2K_AVC.mp4	0.0	324.8113172054291	
79	219.38191390037537	movie	1		170.0	77.0	2.5	/experiments/knapen_aot/videos/R_S_comp_LA_A005_C009_PSNK_ALT_v09_SDR_PS_201809134_SDR_2K_AVC.mp4	0.0	324.8195250034332	2.508352041244507
79	221.89026594161987	fix_post	2		12.0	77.0	2.5	/experiments/knapen_aot/videos/R_S_comp_LA_A005_C009_PSNK_ALT_v09_SDR_PS_201809134_SDR_2K_AVC.mp4	0.0	327.32787704467773	0.1003260612487793
79	221.98204493522644	response	2	2		77.0	2.5	/experiments/knapen_aot/videos/R_S_comp_LA_A005_C009_PSNK_ALT_v09_SDR_PS_201809134_SDR_2K_AVC.mp4	0.0	327.4196560382843	
80	221.99059200286865	fix_pre	0		45.0	78.0	2.5	/experiments/knapen_aot/videos/R_S_comp_LW_L001_C006_PSNK_DENOISE_v02_SDR_PS_FINAL_20180709_SDR_2K_AVC.mp4	0.0	327.4282031059265	0.3749868869781494
80	222.357027053833	response	0	2		78.0	2.5	/experiments/knapen_aot/videos/R_S_comp_LW_L001_C006_PSNK_DENOISE_v02_SDR_PS_FINAL_20180709_SDR_2K_AVC.mp4	0.0	327.79463815689087	
80	222.3655788898468	movie	1		166.0	78.0	2.5	/experiments/knapen_aot/videos/R_S_comp_LW_L001_C006_PSNK_DENOISE_v02_SDR_PS_FINAL_20180709_SDR_2K_AVC.mp4	0.0	327.80318999290466	2.5080220699310303
80	224.87360095977783	fix_post	2		12.0	78.0	2.5	/experiments/knapen_aot/videos/R_S_comp_LW_L001_C006_PSNK_DENOISE_v02_SDR_PS_FINAL_20180709_SDR_2K_AVC.mp4	0.0	330.3112120628357	0.09999394416809082
80	224.93200397491455	response	2	2		78.0	2.5	/experiments/knapen_aot/videos/R_S_comp_LW_L001_C006_PSNK_DENOISE_v02_SDR_PS_FINAL_20180709_SDR_2K_AVC.mp4	0.0	330.3696150779724	
81	224.97359490394592	fix_pre	0		27.0	79.0	2.5	/experiments/knapen_aot/videos/S_Pexels_Videos_2795731_1.mp4	0.0	330.4112060070038	0.22522521018981934
81	225.19040703773499	response	0	2		79.0	2.5	/experiments/knapen_aot/videos/S_Pexels_Videos_2795731_1.mp4	0.0	330.62801814079285	
81	225.19882011413574	movie	1		165.0	79.0	2.5	/experiments/knapen_aot/videos/S_Pexels_Videos_2795731_1.mp4	0.0	330.6364312171936	2.508063793182373
81	227.70688390731812	fix_post	2		12.0	79.0	2.5	/experiments/knapen_aot/videos/S_Pexels_Videos_2795731_1.mp4	0.0	333.144495010376	0.10002398490905762
82	227.80690789222717	fix_pre	0		10.0	80.0	2.5	/experiments/knapen_aot/videos/S_yt-yXJr3FR2xrM_27.mp4	0.0	333.24451899528503	0.08328819274902344
82	227.88205790519714	response	0	2		80.0	2.5	/experiments/knapen_aot/videos/S_yt-yXJr3FR2xrM_27.mp4	0.0	333.319669008255	
82	227.8901960849762	movie	1		301.0	80.0	2.5	/experiments/knapen_aot/videos/S_yt-yXJr3FR2xrM_27.mp4	0.0	333.32780718803406	2.508302927017212
82	230.3984990119934	fix_post	2		12.0	80.0	2.5	/experiments/knapen_aot/videos/S_yt-yXJr3FR2xrM_27.mp4	0.0	335.83611011505127	0.10005807876586914
83	230.49855709075928	fix_pre	0		3.0	81.0	2.5	/experiments/knapen_aot/videos/R_S_yt-kkbtZP78JxQ_96.mp4	0.0	335.93616819381714	0.025053977966308594
83	230.51535511016846	response	0	2		81.0	2.5	/experiments/knapen_aot/videos/R_S_yt-kkbtZP78JxQ_96.mp4	0.0	335.9529662132263	
83	230.5236110687256	movie	1		301.0	81.0	2.5	/experiments/knapen_aot/videos/R_S_yt-kkbtZP78JxQ_96.mp4	0.0	335.96122217178345	2.5082859992980957
83	233.03189706802368	fix_post	2		12.0	81.0	2.5	/experiments/knapen_aot/videos/R_S_yt-kkbtZP78JxQ_96.mp4	0.0	338.46950817108154	0.10000991821289062
84	233.13190698623657	fix_pre	0		5.0	82.0	2.5	/experiments/knapen_aot/videos/S_yt-dqcUJzNOzbM_156.mp4	0.0	338.56951808929443	0.04167795181274414
84	233.16535711288452	response	0	2		82.0	2.5	/experiments/knapen_aot/videos/S_yt-dqcUJzNOzbM_156.mp4	0.0	338.6029682159424	
84	233.17358493804932	movie	1		301.0	82.0	2.5	/experiments/knapen_aot/videos/S_yt-dqcUJzNOzbM_156.mp4	0.0	338.6111960411072	2.5083401203155518
84	235.68192505836487	fix_post	2		12.0	82.0	2.5	/experiments/knapen_aot/videos/S_yt-dqcUJzNOzbM_156.mp4	0.0	341.11953616142273	0.10014486312866211
85	235.78206992149353	fix_pre	0		16.0	83.0	2.5	blank	1.0	341.2196810245514	0.13310599327087402
85	235.9070110321045	response	0	2		83.0	2.5	blank	1.0	341.34462213516235	
85	235.9151759147644	movie	1		301.0	83.0	2.5	blank	1.0	341.35278701782227	2.5083701610565186
85	238.42354607582092	fix_post	2		12.0	83.0	2.5	blank	1.0	343.8611571788788	0.09998393058776855
87	238.5235300064087	stim	0		82.0					343.96114110946655	0.6833150386810303
87	238.68196392059326	response	0	2						344.1195750236511	
87	239.20105695724487	response	0	space						344.63866806030273	
