trial_nr	onset	event_type	phase	response	nr_frames	movie_index	movie_duration	movie_file	blank	onset_abs	duration
0	0.15855717658996582	stim	0		48.0					155.439435005188	0.39975786209106445
0	0.16002607345581055	response	0	escape						155.44090390205383	
0	0.5427181720733643	response	0	space						155.8235960006714	
1	0.5583150386810303	stim	0		121.0					155.83919286727905	1.0079679489135742
1	1.391319990158081	response	0	space						156.6721978187561	
1	1.5662829875946045	stim	1		120.0					156.84716081619263	0.9999511241912842
1	1.6830601692199707	response	1	space						156.963937997818	
1	1.9246420860290527	response	1	space						157.20551991462708	
1	2.342367172241211	response	1	space						157.62324500083923	
2	2.5662341117858887	fix_pre	0		36.0	0.0	2.5	/experiments/knapen_aot/videos/S_yt-rIQoRErqnlI_17.mp4	0.0	157.8471119403839	0.30035400390625
2	2.8581461906433105	response	0	space		0.0	2.5	/experiments/knapen_aot/videos/S_yt-rIQoRErqnlI_17.mp4	0.0	158.13902401924133	
2	2.8665881156921387	movie	1		300.0	0.0	2.5	/experiments/knapen_aot/videos/S_yt-rIQoRErqnlI_17.mp4	0.0	158.14746594429016	2.5079829692840576
2	5.374571084976196	fix_post	2		12.0	0.0	2.5	/experiments/knapen_aot/videos/S_yt-rIQoRErqnlI_17.mp4	0.0	160.65544891357422	0.10004305839538574
3	5.474614143371582	fix_pre	0		2.0	1.0	2.5	/experiments/knapen_aot/videos/S_comp_N003_C006_PS_v01_SDR_PS_20180925_SDR_2K_AVC.mp4	0.0	160.7554919719696	0.02498483657836914
3	5.482673168182373	response	0	2		1.0	2.5	/experiments/knapen_aot/videos/S_comp_N003_C006_PS_v01_SDR_PS_20180925_SDR_2K_AVC.mp4	0.0	160.7635509967804	
3	5.499598979949951	movie	1		170.0	1.0	2.5	/experiments/knapen_aot/videos/S_comp_N003_C006_PS_v01_SDR_PS_20180925_SDR_2K_AVC.mp4	0.0	160.78047680854797	2.508371114730835
3	8.007970094680786	fix_post	2		12.0	1.0	2.5	/experiments/knapen_aot/videos/S_comp_N003_C006_PS_v01_SDR_PS_20180925_SDR_2K_AVC.mp4	0.0	163.2888479232788	0.10166501998901367
3	8.083052158355713	response	2	2		1.0	2.5	/experiments/knapen_aot/videos/S_comp_N003_C006_PS_v01_SDR_PS_20180925_SDR_2K_AVC.mp4	0.0	163.36392998695374	
4	8.1096351146698	fix_pre	0		32.0	2.0	2.5	/experiments/knapen_aot/videos/R_S_yt-w_e3sxIzepA_27.mp4	0.0	163.39051294326782	0.2649369239807129
4	8.366334199905396	response	0	2		2.0	2.5	/experiments/knapen_aot/videos/R_S_yt-w_e3sxIzepA_27.mp4	0.0	163.64721202850342	
4	8.374572038650513	movie	1		301.0	2.0	2.5	/experiments/knapen_aot/videos/R_S_yt-w_e3sxIzepA_27.mp4	0.0	163.65544986724854	2.5083630084991455
4	10.882935047149658	fix_post	2		12.0	2.0	2.5	/experiments/knapen_aot/videos/R_S_yt-w_e3sxIzepA_27.mp4	0.0	166.16381287574768	0.09999704360961914
5	10.982932090759277	fix_pre	0		3.0	3.0	2.5	/experiments/knapen_aot/videos/R_S_yt-J_FnFAl1uL0_143.mp4	0.0	166.2638099193573	0.024975061416625977
5	10.999768018722534	response	0	2		3.0	2.5	/experiments/knapen_aot/videos/R_S_yt-J_FnFAl1uL0_143.mp4	0.0	166.28064584732056	
5	11.007907152175903	movie	1		301.0	3.0	2.5	/experiments/knapen_aot/videos/R_S_yt-J_FnFAl1uL0_143.mp4	0.0	166.28878498077393	2.5083389282226562
5	13.51624608039856	fix_post	2		12.0	3.0	2.5	/experiments/knapen_aot/videos/R_S_yt-J_FnFAl1uL0_143.mp4	0.0	168.79712390899658	0.10030102729797363
6	13.616547107696533	fix_pre	0		4.0	4.0	2.5	/experiments/knapen_aot/videos/R_S_wc-NVeGRb_y_y_5_36.mp4	0.0	168.89742493629456	0.033087968826293945
6	13.63426399230957	response	0	2		4.0	2.5	/experiments/knapen_aot/videos/R_S_wc-NVeGRb_y_y_5_36.mp4	0.0	168.9151418209076	
6	13.649635076522827	movie	1		163.0	4.0	2.5	/experiments/knapen_aot/videos/R_S_wc-NVeGRb_y_y_5_36.mp4	0.0	168.93051290512085	2.5083138942718506
6	16.157948970794678	fix_post	2		12.0	4.0	2.5	/experiments/knapen_aot/videos/R_S_wc-NVeGRb_y_y_5_36.mp4	0.0	171.4388267993927	0.09993314743041992
7	16.257882118225098	fix_pre	0		1.0	5.0	2.5	/experiments/knapen_aot/videos/S_yt-1uk2k3PnTNw_37.0.mp4	0.0	171.53875994682312	0.008322000503540039
7	16.25960612297058	response	0	2		5.0	2.5	/experiments/knapen_aot/videos/S_yt-1uk2k3PnTNw_37.0.mp4	0.0	171.5404839515686	
7	16.266204118728638	movie	1		300.0	5.0	2.5	/experiments/knapen_aot/videos/S_yt-1uk2k3PnTNw_37.0.mp4	0.0	171.54708194732666	2.508305072784424
7	18.77450919151306	fix_post	2		12.0	5.0	2.5	/experiments/knapen_aot/videos/S_yt-1uk2k3PnTNw_37.0.mp4	0.0	174.05538702011108	0.10000395774841309
8	18.874513149261475	fix_pre	0		7.0	6.0	2.5	/experiments/knapen_aot/videos/S_yt-AbJBxqEYoMg_105.mp4	0.0	174.1553909778595	0.058287858963012695
8	18.92466711997986	response	0	2		6.0	2.5	/experiments/knapen_aot/videos/S_yt-AbJBxqEYoMg_105.mp4	0.0	174.20554494857788	
8	18.932801008224487	movie	1		301.0	6.0	2.5	/experiments/knapen_aot/videos/S_yt-AbJBxqEYoMg_105.mp4	0.0	174.2136788368225	2.5082850456237793
8	21.441086053848267	fix_post	2		12.0	6.0	2.5	/experiments/knapen_aot/videos/S_yt-AbJBxqEYoMg_105.mp4	0.0	176.7219638824463	0.10002708435058594
9	21.541113138198853	fix_pre	0		8.0	7.0	2.5	blank	1.0	176.82199096679688	0.0666358470916748
9	21.59961199760437	response	0	2		7.0	2.5	blank	1.0	176.8804898262024	
9	21.607748985290527	movie	1		301.0	7.0	2.5	blank	1.0	176.88862681388855	2.5083751678466797
9	24.116124153137207	fix_post	2		12.0	7.0	2.5	blank	1.0	179.39700198173523	0.09999299049377441
10	24.21611714363098	fix_pre	0		22.0	8.0	2.5	/experiments/knapen_aot/videos/S_comp_N003_C006_PS_v01_SDR_PS_20180925_SDR_2K_AVC.mp4	0.0	179.496994972229	0.1833178997039795
10	24.391263008117676	response	0	2		8.0	2.5	/experiments/knapen_aot/videos/S_comp_N003_C006_PS_v01_SDR_PS_20180925_SDR_2K_AVC.mp4	0.0	179.6721408367157	
10	24.39943504333496	movie	1		170.0	8.0	2.5	/experiments/knapen_aot/videos/S_comp_N003_C006_PS_v01_SDR_PS_20180925_SDR_2K_AVC.mp4	0.0	179.68031287193298	2.508535146713257
10	26.907970190048218	fix_post	2		12.0	8.0	2.5	/experiments/knapen_aot/videos/S_comp_N003_C006_PS_v01_SDR_PS_20180925_SDR_2K_AVC.mp4	0.0	182.18884801864624	0.09986090660095215
11	27.00783109664917	fix_pre	0		9.0	9.0	2.5	/experiments/knapen_aot/videos/S_yt-XtzmBXKYEWk_60.mp4	0.0	182.2887089252472	0.07497906684875488
11	27.074642181396484	response	0	2		9.0	2.5	/experiments/knapen_aot/videos/S_yt-XtzmBXKYEWk_60.mp4	0.0	182.3555200099945	
11	27.082810163497925	movie	1		301.0	9.0	2.5	/experiments/knapen_aot/videos/S_yt-XtzmBXKYEWk_60.mp4	0.0	182.36368799209595	2.508291006088257
11	29.541244983673096	response	1	2		9.0	2.5	/experiments/knapen_aot/videos/S_yt-XtzmBXKYEWk_60.mp4	0.0	184.82212281227112	
11	29.59110116958618	fix_post	2		12.0	9.0	2.5	/experiments/knapen_aot/videos/S_yt-XtzmBXKYEWk_60.mp4	0.0	184.8719789981842	0.09996581077575684
12	29.69106698036194	fix_pre	0		20.0	10.0	2.5	/experiments/knapen_aot/videos/S_zr0tzAC2XHk_334.mp4	0.0	184.97194480895996	0.1666731834411621
12	29.849553108215332	response	0	2		10.0	2.5	/experiments/knapen_aot/videos/S_zr0tzAC2XHk_334.mp4	0.0	185.13043093681335	
12	29.8577401638031	movie	1		301.0	10.0	2.5	/experiments/knapen_aot/videos/S_zr0tzAC2XHk_334.mp4	0.0	185.13861799240112	2.5085909366607666
12	32.36633110046387	fix_post	2		12.0	10.0	2.5	/experiments/knapen_aot/videos/S_zr0tzAC2XHk_334.mp4	0.0	187.6472089290619	0.0998220443725586
13	32.466153144836426	fix_pre	0		6.0	11.0	2.5	/experiments/knapen_aot/videos/R_S_yt-1n1jTroiwJs_163.mp4	0.0	187.74703097343445	0.0500798225402832
13	32.508358001708984	response	0	2		11.0	2.5	/experiments/knapen_aot/videos/R_S_yt-1n1jTroiwJs_163.mp4	0.0	187.789235830307	
13	32.51623296737671	movie	1		301.0	11.0	2.5	/experiments/knapen_aot/videos/R_S_yt-1n1jTroiwJs_163.mp4	0.0	187.79711079597473	2.5082550048828125
13	35.02448797225952	fix_post	2		12.0	11.0	2.5	/experiments/knapen_aot/videos/R_S_yt-1n1jTroiwJs_163.mp4	0.0	190.30536580085754	0.09996318817138672
13	35.07458519935608	response	2	2		11.0	2.5	/experiments/knapen_aot/videos/R_S_yt-1n1jTroiwJs_163.mp4	0.0	190.3554630279541	
14	35.12445116043091	fix_pre	0		30.0	12.0	2.5	/experiments/knapen_aot/videos/S_ILSVRC2015_train_00704000.mp4	0.0	190.40532898902893	0.24990081787109375
14	35.36621713638306	response	0	2		12.0	2.5	/experiments/knapen_aot/videos/S_ILSVRC2015_train_00704000.mp4	0.0	190.64709496498108	
14	35.374351978302	movie	1		301.0	12.0	2.5	/experiments/knapen_aot/videos/S_ILSVRC2015_train_00704000.mp4	0.0	190.65522980690002	2.508331060409546
14	37.88268303871155	fix_post	2		12.0	12.0	2.5	/experiments/knapen_aot/videos/S_ILSVRC2015_train_00704000.mp4	0.0	193.16356086730957	0.10007905960083008
14	37.92550706863403	response	2	2		12.0	2.5	/experiments/knapen_aot/videos/S_ILSVRC2015_train_00704000.mp4	0.0	193.20638489723206	
15	37.98276209831238	fix_pre	0		26.0	13.0	2.5	/experiments/knapen_aot/videos/R_S_pexels-koolshooters-7327412_1.mp4	0.0	193.2636399269104	0.2167949676513672
15	38.19110417366028	response	0	2		13.0	2.5	/experiments/knapen_aot/videos/R_S_pexels-koolshooters-7327412_1.mp4	0.0	193.4719820022583	
15	38.199557065963745	movie	1		162.0	13.0	2.5	/experiments/knapen_aot/videos/R_S_pexels-koolshooters-7327412_1.mp4	0.0	193.48043489456177	2.5081229209899902
15	40.357933044433594	response	1	2		13.0	2.5	/experiments/knapen_aot/videos/R_S_pexels-koolshooters-7327412_1.mp4	0.0	195.63881087303162	
15	40.56773400306702	response	1	2		13.0	2.5	/experiments/knapen_aot/videos/R_S_pexels-koolshooters-7327412_1.mp4	0.0	195.84861183166504	
15	40.707679986953735	fix_post	2		12.0	13.0	2.5	/experiments/knapen_aot/videos/R_S_pexels-koolshooters-7327412_1.mp4	0.0	195.98855781555176	0.10012412071228027
16	40.807804107666016	fix_pre	0		1.0	14.0	2.5	blank	1.0	196.08868193626404	0.009820938110351562
16	40.8094961643219	response	0	2		14.0	2.5	blank	1.0	196.09037399291992	
16	40.81762504577637	movie	1		301.0	14.0	2.5	blank	1.0	196.0985028743744	2.5068349838256836
16	43.32446002960205	fix_post	2		12.0	14.0	2.5	blank	1.0	198.60533785820007	0.09993815422058105
17	43.42439818382263	fix_pre	0		18.0	15.0	2.5	/experiments/knapen_aot/videos/R_S_yt-IPiZqn4dG9k_9.mp4	0.0	198.70527601242065	0.1500859260559082
17	43.56615614891052	response	0	2		15.0	2.5	/experiments/knapen_aot/videos/R_S_yt-IPiZqn4dG9k_9.mp4	0.0	198.84703397750854	
17	43.57448410987854	movie	1		301.0	15.0	2.5	/experiments/knapen_aot/videos/R_S_yt-IPiZqn4dG9k_9.mp4	0.0	198.85536193847656	2.508249044418335
17	46.082733154296875	fix_post	2		12.0	15.0	2.5	/experiments/knapen_aot/videos/R_S_yt-IPiZqn4dG9k_9.mp4	0.0	201.3636109828949	0.09995889663696289
18	46.18269205093384	fix_pre	0		7.0	16.0	2.5	/experiments/knapen_aot/videos/R_S_production_ID_4121250.mp4	0.0	201.46356987953186	0.05849313735961914
18	46.23286509513855	response	0	2		16.0	2.5	/experiments/knapen_aot/videos/R_S_production_ID_4121250.mp4	0.0	201.51374292373657	
18	46.24118518829346	movie	1		164.0	16.0	2.5	/experiments/knapen_aot/videos/R_S_production_ID_4121250.mp4	0.0	201.52206301689148	2.5082178115844727
18	48.28997611999512	response	1	2		16.0	2.5	/experiments/knapen_aot/videos/R_S_production_ID_4121250.mp4	0.0	203.57085394859314	
18	48.560657024383545	response	1	2		16.0	2.5	/experiments/knapen_aot/videos/R_S_production_ID_4121250.mp4	0.0	203.84153485298157	
18	48.74940299987793	fix_post	2		12.0	16.0	2.5	/experiments/knapen_aot/videos/R_S_production_ID_4121250.mp4	0.0	204.03028082847595	0.09992504119873047
18	48.816572189331055	response	2	2		16.0	2.5	/experiments/knapen_aot/videos/R_S_production_ID_4121250.mp4	0.0	204.09745001792908	
19	48.84932804107666	fix_pre	0		44.0	17.0	2.5	/experiments/knapen_aot/videos/S_flickr-53807584@N00-5565833509_7.mp4	0.0	204.13020586967468	0.3666980266571045
19	49.20785117149353	response	0	2		17.0	2.5	/experiments/knapen_aot/videos/S_flickr-53807584@N00-5565833509_7.mp4	0.0	204.48872900009155	
19	49.216026067733765	movie	1		301.0	17.0	2.5	/experiments/knapen_aot/videos/S_flickr-53807584@N00-5565833509_7.mp4	0.0	204.4969038963318	2.5083160400390625
19	51.72434210777283	fix_post	2		12.0	17.0	2.5	/experiments/knapen_aot/videos/S_flickr-53807584@N00-5565833509_7.mp4	0.0	207.00521993637085	0.10007905960083008
20	51.82442116737366	fix_pre	0		6.0	18.0	2.5	/experiments/knapen_aot/videos/S_pexels-kampus-production-5991896.mp4	0.0	207.10529899597168	0.04994392395019531
20	51.86621117591858	response	0	2		18.0	2.5	/experiments/knapen_aot/videos/S_pexels-kampus-production-5991896.mp4	0.0	207.1470890045166	
20	51.87436509132385	movie	1		164.0	18.0	2.5	/experiments/knapen_aot/videos/S_pexels-kampus-production-5991896.mp4	0.0	207.15524291992188	2.508270025253296
20	54.38263511657715	fix_post	2		11.0	18.0	2.5	/experiments/knapen_aot/videos/S_pexels-kampus-production-5991896.mp4	0.0	209.66351294517517	0.09456992149353027
20	54.466392993927	response	2	2		18.0	2.5	/experiments/knapen_aot/videos/S_pexels-kampus-production-5991896.mp4	0.0	209.74727082252502	
21	54.47720503807068	fix_pre	0		37.0	19.0	2.5	blank	1.0	209.7580828666687	0.30549097061157227
21	54.77441215515137	response	0	2		19.0	2.5	blank	1.0	210.0552899837494	
21	54.78269600868225	movie	1		301.0	19.0	2.5	blank	1.0	210.06357383728027	2.508242130279541
21	57.29093813896179	fix_post	2		12.0	19.0	2.5	blank	1.0	212.57181596755981	0.10001587867736816
22	57.39095401763916	fix_pre	0		13.0	20.0	2.5	/experiments/knapen_aot/videos/S_yt-AbJBxqEYoMg_105.mp4	0.0	212.67183184623718	0.10836100578308105
22	57.491114139556885	response	0	2		20.0	2.5	/experiments/knapen_aot/videos/S_yt-AbJBxqEYoMg_105.mp4	0.0	212.7719919681549	
22	57.49931502342224	movie	1		299.0	20.0	2.5	/experiments/knapen_aot/videos/S_yt-AbJBxqEYoMg_105.mp4	0.0	212.78019285202026	2.508347988128662
22	60.0076630115509	fix_post	2		12.0	20.0	2.5	/experiments/knapen_aot/videos/S_yt-AbJBxqEYoMg_105.mp4	0.0	215.28854084014893	0.09998416900634766
23	60.10764718055725	fix_pre	0		10.0	21.0	2.5	/experiments/knapen_aot/videos/R_S_pexels-koolshooters-7327401_1.mp4	0.0	215.38852500915527	0.08333182334899902
23	60.18276906013489	response	0	2		21.0	2.5	/experiments/knapen_aot/videos/R_S_pexels-koolshooters-7327401_1.mp4	0.0	215.4636468887329	
23	60.19097900390625	movie	1		165.0	21.0	2.5	/experiments/knapen_aot/videos/R_S_pexels-koolshooters-7327401_1.mp4	0.0	215.47185683250427	2.5083651542663574
23	62.69934415817261	fix_post	2		12.0	21.0	2.5	/experiments/knapen_aot/videos/R_S_pexels-koolshooters-7327401_1.mp4	0.0	217.98022198677063	0.0999598503112793
24	62.79930400848389	fix_pre	0		2.0	22.0	2.5	/experiments/knapen_aot/videos/S_yt-nn-8LZcafGs_35.mp4	0.0	218.0801818370819	0.01668405532836914
24	62.807697057724	response	0	2		22.0	2.5	/experiments/knapen_aot/videos/S_yt-nn-8LZcafGs_35.mp4	0.0	218.08857488632202	
24	62.815988063812256	movie	1		301.0	22.0	2.5	/experiments/knapen_aot/videos/S_yt-nn-8LZcafGs_35.mp4	0.0	218.09686589241028	2.508371114730835
24	65.32435917854309	fix_post	2		12.0	22.0	2.5	/experiments/knapen_aot/videos/S_yt-nn-8LZcafGs_35.mp4	0.0	220.6052370071411	0.09999299049377441
25	65.42435216903687	fix_pre	0		3.0	23.0	2.5	/experiments/knapen_aot/videos/S_wc-dwTccI0TNwps_15.mp4	0.0	220.7052299976349	0.0250089168548584
25	65.4413411617279	response	0	2		23.0	2.5	/experiments/knapen_aot/videos/S_wc-dwTccI0TNwps_15.mp4	0.0	220.72221899032593	
25	65.44936108589172	movie	1		301.0	23.0	2.5	/experiments/knapen_aot/videos/S_wc-dwTccI0TNwps_15.mp4	0.0	220.73023891448975	2.5083019733428955
25	67.92442202568054	response	1	2		23.0	2.5	/experiments/knapen_aot/videos/S_wc-dwTccI0TNwps_15.mp4	0.0	223.20529985427856	
25	67.95766305923462	fix_post	2		12.0	23.0	2.5	/experiments/knapen_aot/videos/S_wc-dwTccI0TNwps_15.mp4	0.0	223.23854088783264	0.10001707077026367
26	68.05768013000488	fix_pre	0		29.0	24.0	2.5	/experiments/knapen_aot/videos/S_yt-8fQ9LaF8U10_382.mp4	0.0	223.3385579586029	0.24163198471069336
26	68.2910361289978	response	0	2		24.0	2.5	/experiments/knapen_aot/videos/S_yt-8fQ9LaF8U10_382.mp4	0.0	223.57191395759583	
26	68.29931211471558	movie	1		300.0	24.0	2.5	/experiments/knapen_aot/videos/S_yt-8fQ9LaF8U10_382.mp4	0.0	223.5801899433136	2.5083038806915283
26	70.8076159954071	fix_post	2		12.0	24.0	2.5	/experiments/knapen_aot/videos/S_yt-8fQ9LaF8U10_382.mp4	0.0	226.08849382400513	0.09996414184570312
26	70.85778999328613	response	2	2		24.0	2.5	/experiments/knapen_aot/videos/S_yt-8fQ9LaF8U10_382.mp4	0.0	226.13866782188416	
27	70.90758013725281	fix_pre	0		35.0	25.0	2.5	/experiments/knapen_aot/videos/S_yt-IPiZqn4dG9k_9.mp4	0.0	226.18845796585083	0.2916388511657715
27	71.1910400390625	response	0	2		25.0	2.5	/experiments/knapen_aot/videos/S_yt-IPiZqn4dG9k_9.mp4	0.0	226.47191786766052	
27	71.19921898841858	movie	1		300.0	25.0	2.5	/experiments/knapen_aot/videos/S_yt-IPiZqn4dG9k_9.mp4	0.0	226.4800968170166	2.508350133895874
27	73.70756912231445	fix_post	2		12.0	25.0	2.5	/experiments/knapen_aot/videos/S_yt-IPiZqn4dG9k_9.mp4	0.0	228.98844695091248	0.0999898910522461
27	73.79934215545654	response	2	2		25.0	2.5	/experiments/knapen_aot/videos/S_yt-IPiZqn4dG9k_9.mp4	0.0	229.08021998405457	
28	73.8075590133667	fix_pre	0		38.0	26.0	2.5	/experiments/knapen_aot/videos/R_S_yt-7NjoFHBdP7c_102.mp4	0.0	229.08843684196472	0.31667208671569824
28	74.11604809761047	response	0	2		26.0	2.5	/experiments/knapen_aot/videos/R_S_yt-7NjoFHBdP7c_102.mp4	0.0	229.3969259262085	
28	74.1242311000824	movie	1		301.0	26.0	2.5	/experiments/knapen_aot/videos/R_S_yt-7NjoFHBdP7c_102.mp4	0.0	229.40510892868042	2.5083420276641846
28	76.63257312774658	fix_post	2		12.0	26.0	2.5	/experiments/knapen_aot/videos/R_S_yt-7NjoFHBdP7c_102.mp4	0.0	231.9134509563446	0.0999300479888916
29	76.73250317573547	fix_pre	0		10.0	27.0	2.5	blank	1.0	232.0133810043335	0.08338689804077148
29	76.80765104293823	response	0	2		27.0	2.5	blank	1.0	232.08852887153625	
29	76.81589007377625	movie	1		301.0	27.0	2.5	blank	1.0	232.09676790237427	2.5083279609680176
29	79.32421803474426	fix_post	2		12.0	27.0	2.5	blank	1.0	234.60509586334229	0.0999760627746582
30	79.42419409751892	fix_pre	0		16.0	28.0	2.5	/experiments/knapen_aot/videos/R_S_yt-VrEuTDQxtD0_226.mp4	0.0	234.70507192611694	0.1334230899810791
30	79.54939913749695	response	0	2		28.0	2.5	/experiments/knapen_aot/videos/R_S_yt-VrEuTDQxtD0_226.mp4	0.0	234.83027696609497	
30	79.5576171875	movie	1		301.0	28.0	2.5	/experiments/knapen_aot/videos/R_S_yt-VrEuTDQxtD0_226.mp4	0.0	234.83849501609802	2.5082709789276123
30	82.06588816642761	fix_post	2		12.0	28.0	2.5	/experiments/knapen_aot/videos/R_S_yt-VrEuTDQxtD0_226.mp4	0.0	237.34676599502563	0.09995579719543457
31	82.16584396362305	fix_pre	0		2.0	29.0	2.5	/experiments/knapen_aot/videos/S_yt-9mWz93En7Gw_97.mp4	0.0	237.44672179222107	0.016733169555664062
31	82.17433214187622	response	0	2		29.0	2.5	/experiments/knapen_aot/videos/S_yt-9mWz93En7Gw_97.mp4	0.0	237.45520997047424	
31	82.18257713317871	movie	1		301.0	29.0	2.5	/experiments/knapen_aot/videos/S_yt-9mWz93En7Gw_97.mp4	0.0	237.46345496177673	2.508298873901367
31	84.69087600708008	fix_post	2		12.0	29.0	2.5	/experiments/knapen_aot/videos/S_yt-9mWz93En7Gw_97.mp4	0.0	239.9717538356781	0.09995007514953613
32	84.79082608222961	fix_pre	0		11.0	30.0	2.5	/experiments/knapen_aot/videos/R_S_yt-8RmEimCI80g_35.mp4	0.0	240.07170391082764	0.0916450023651123
32	84.87436604499817	response	0	2		30.0	2.5	/experiments/knapen_aot/videos/R_S_yt-8RmEimCI80g_35.mp4	0.0	240.1552438735962	
32	84.88247108459473	movie	1		299.0	30.0	2.5	/experiments/knapen_aot/videos/R_S_yt-8RmEimCI80g_35.mp4	0.0	240.16334891319275	2.508418083190918
32	87.39088916778564	fix_post	2		12.0	30.0	2.5	/experiments/knapen_aot/videos/R_S_yt-8RmEimCI80g_35.mp4	0.0	242.67176699638367	0.10001397132873535
33	87.49090313911438	fix_pre	0		7.0	31.0	2.5	/experiments/knapen_aot/videos/R_S_production_ID_4510883.mp4	0.0	242.7717809677124	0.05835604667663574
33	87.54104208946228	response	0	2		31.0	2.5	/experiments/knapen_aot/videos/R_S_production_ID_4510883.mp4	0.0	242.8219199180603	
33	87.54925918579102	movie	1		165.0	31.0	2.5	/experiments/knapen_aot/videos/R_S_production_ID_4510883.mp4	0.0	242.83013701438904	2.508356809616089
33	90.0576159954071	fix_post	2		12.0	31.0	2.5	/experiments/knapen_aot/videos/R_S_production_ID_4510883.mp4	0.0	245.33849382400513	0.09991717338562012
33	90.14938807487488	response	2	2		31.0	2.5	/experiments/knapen_aot/videos/R_S_production_ID_4510883.mp4	0.0	245.4302659034729	
34	90.15753316879272	fix_pre	0		35.0	32.0	2.5	/experiments/knapen_aot/videos/S_yt-ejSzwn8tY8g_49.mp4	0.0	245.43841099739075	0.29158997535705566
34	90.43335008621216	response	0	2		32.0	2.5	/experiments/knapen_aot/videos/S_yt-ejSzwn8tY8g_49.mp4	0.0	245.71422791481018	
34	90.44912314414978	movie	1		301.0	32.0	2.5	/experiments/knapen_aot/videos/S_yt-ejSzwn8tY8g_49.mp4	0.0	245.7300009727478	2.5084309577941895
34	92.95755410194397	fix_post	2		12.0	32.0	2.5	/experiments/knapen_aot/videos/S_yt-ejSzwn8tY8g_49.mp4	0.0	248.238431930542	0.0999290943145752
35	93.05748319625854	fix_pre	0		15.0	33.0	2.5	/experiments/knapen_aot/videos/S_wc-eJe3wXMgTLRV_20.mp4	0.0	248.33836102485657	0.12500381469726562
35	93.16692018508911	response	0	2		33.0	2.5	/experiments/knapen_aot/videos/S_wc-eJe3wXMgTLRV_20.mp4	0.0	248.44779801368713	
35	93.18248701095581	movie	1		162.0	33.0	2.5	/experiments/knapen_aot/videos/S_wc-eJe3wXMgTLRV_20.mp4	0.0	248.46336483955383	2.508305072784424
35	95.69079208374023	fix_post	2		12.0	33.0	2.5	/experiments/knapen_aot/videos/S_wc-eJe3wXMgTLRV_20.mp4	0.0	250.97166991233826	0.09998703002929688
36	95.79077911376953	fix_pre	0		14.0	34.0	2.5	/experiments/knapen_aot/videos/S_yt-XbigWWtnGL4_75.mp4	0.0	251.07165694236755	0.11663389205932617
36	95.89924502372742	response	0	2		34.0	2.5	/experiments/knapen_aot/videos/S_yt-XbigWWtnGL4_75.mp4	0.0	251.18012285232544	
36	95.90741300582886	movie	1		301.0	34.0	2.5	/experiments/knapen_aot/videos/S_yt-XbigWWtnGL4_75.mp4	0.0	251.18829083442688	2.5084190368652344
36	98.41583204269409	fix_post	2		12.0	34.0	2.5	/experiments/knapen_aot/videos/S_yt-XbigWWtnGL4_75.mp4	0.0	253.69670987129211	0.09998893737792969
37	98.51582098007202	fix_pre	0		29.0	35.0	2.5	blank	1.0	253.79669880867004	0.24162721633911133
37	98.74923014640808	response	0	2		35.0	2.5	blank	1.0	254.0301079750061	
37	98.75744819641113	movie	1		301.0	35.0	2.5	blank	1.0	254.03832602500916	2.5083529949188232
37	101.26580119132996	fix_post	2		12.0	35.0	2.5	blank	1.0	256.546679019928	0.09996700286865234
38	101.36576819419861	fix_pre	0		20.0	36.0	2.5	/experiments/knapen_aot/videos/R_S_yt-fA0nOetbOJY_580.mp4	0.0	256.64664602279663	0.16672086715698242
38	101.5242691040039	response	0	2		36.0	2.5	/experiments/knapen_aot/videos/R_S_yt-fA0nOetbOJY_580.mp4	0.0	256.80514693260193	
38	101.53248906135559	movie	1		301.0	36.0	2.5	/experiments/knapen_aot/videos/R_S_yt-fA0nOetbOJY_580.mp4	0.0	256.8133668899536	2.50823712348938
38	104.04072618484497	fix_post	2		12.0	36.0	2.5	/experiments/knapen_aot/videos/R_S_yt-fA0nOetbOJY_580.mp4	0.0	259.321604013443	0.10012388229370117
39	104.14085006713867	fix_pre	0		39.0	37.0	2.5	/experiments/knapen_aot/videos/R_S_video_inspire_california_big-sur_bixby_005.1080-h264.mp4	0.0	259.4217278957367	0.3249959945678711
39	104.4576621055603	response	0	2		37.0	2.5	/experiments/knapen_aot/videos/R_S_video_inspire_california_big-sur_bixby_005.1080-h264.mp4	0.0	259.7385399341583	
39	104.46584606170654	movie	1		169.0	37.0	2.5	/experiments/knapen_aot/videos/R_S_video_inspire_california_big-sur_bixby_005.1080-h264.mp4	0.0	259.74672389030457	2.508350133895874
39	106.97419619560242	fix_post	2		12.0	37.0	2.5	/experiments/knapen_aot/videos/R_S_video_inspire_california_big-sur_bixby_005.1080-h264.mp4	0.0	262.25507402420044	0.09997296333312988
40	107.07416915893555	fix_pre	0		8.0	38.0	2.5	/experiments/knapen_aot/videos/R_S_wc-TAGpcap1KdAS_212.mp4	0.0	262.35504698753357	0.06661486625671387
40	107.13268804550171	response	0	2		38.0	2.5	/experiments/knapen_aot/videos/R_S_wc-TAGpcap1KdAS_212.mp4	0.0	262.41356587409973	
40	107.14078402519226	movie	1		301.0	38.0	2.5	/experiments/knapen_aot/videos/R_S_wc-TAGpcap1KdAS_212.mp4	0.0	262.4216618537903	2.5083730220794678
40	109.64915704727173	fix_post	2		12.0	38.0	2.5	/experiments/knapen_aot/videos/R_S_wc-TAGpcap1KdAS_212.mp4	0.0	264.93003487586975	0.10000801086425781
41	109.74916505813599	fix_pre	0		23.0	39.0	2.5	/experiments/knapen_aot/videos/S_pexels-anastasia-shuraeva-601407_2.mp4	0.0	265.030042886734	0.19279909133911133
41	109.93255114555359	response	0	2		39.0	2.5	/experiments/knapen_aot/videos/S_pexels-anastasia-shuraeva-601407_2.mp4	0.0	265.2134289741516	
41	109.9419641494751	movie	1		197.0	39.0	2.5	/experiments/knapen_aot/videos/S_pexels-anastasia-shuraeva-601407_2.mp4	0.0	265.2228419780731	2.5070910453796387
41	112.44905519485474	fix_post	2		12.0	39.0	2.5	/experiments/knapen_aot/videos/S_pexels-anastasia-shuraeva-601407_2.mp4	0.0	267.72993302345276	0.09999990463256836
41	112.54089117050171	response	2	2		39.0	2.5	/experiments/knapen_aot/videos/S_pexels-anastasia-shuraeva-601407_2.mp4	0.0	267.82176899909973	
42	112.5490550994873	fix_pre	0		35.0	40.0	2.5	/experiments/knapen_aot/videos/R_S_production_ID_4510883.mp4	0.0	267.8299329280853	0.2916069030761719
42	112.83251404762268	response	0	2		40.0	2.5	/experiments/knapen_aot/videos/R_S_production_ID_4510883.mp4	0.0	268.1133918762207	
42	112.84066200256348	movie	1		168.0	40.0	2.5	/experiments/knapen_aot/videos/R_S_production_ID_4510883.mp4	0.0	268.1215398311615	2.5084149837493896
42	115.34907698631287	fix_post	2		12.0	40.0	2.5	/experiments/knapen_aot/videos/R_S_production_ID_4510883.mp4	0.0	270.6299548149109	0.0999910831451416
42	115.4409019947052	response	2	2		40.0	2.5	/experiments/knapen_aot/videos/R_S_production_ID_4510883.mp4	0.0	270.7217798233032	
43	115.44906806945801	fix_pre	0		41.0	41.0	2.5	/experiments/knapen_aot/videos/S_ILSVRC2015_train_00165012.mp4	0.0	270.72994589805603	0.3416171073913574
43	115.78248810768127	response	0	2		41.0	2.5	/experiments/knapen_aot/videos/S_ILSVRC2015_train_00165012.mp4	0.0	271.0633659362793	
43	115.79068517684937	movie	1		301.0	41.0	2.5	/experiments/knapen_aot/videos/S_ILSVRC2015_train_00165012.mp4	0.0	271.0715630054474	2.5083508491516113
43	118.29903602600098	fix_post	2		12.0	41.0	2.5	/experiments/knapen_aot/videos/S_ILSVRC2015_train_00165012.mp4	0.0	273.579913854599	0.10001397132873535
44	118.39904999732971	fix_pre	0		4.0	42.0	2.5	blank	1.0	273.67992782592773	0.033288002014160156
44	118.42419815063477	response	0	2		42.0	2.5	blank	1.0	273.7050759792328	
44	118.43233799934387	movie	1		301.0	42.0	2.5	blank	1.0	273.7132158279419	2.5083231925964355
44	120.94066119194031	fix_post	2		12.0	42.0	2.5	blank	1.0	276.22153902053833	0.10003495216369629
45	121.040696144104	fix_pre	0		19.0	43.0	2.5	/experiments/knapen_aot/videos/S_pexels-tima-miroshnichenko-8724308.mp4	0.0	276.321573972702	0.1583540439605713
45	121.19089412689209	response	0	2		43.0	2.5	/experiments/knapen_aot/videos/S_pexels-tima-miroshnichenko-8724308.mp4	0.0	276.4717719554901	
45	121.19905018806458	movie	1		209.0	43.0	2.5	/experiments/knapen_aot/videos/S_pexels-tima-miroshnichenko-8724308.mp4	0.0	276.4799280166626	2.5082318782806396
45	123.70728206634521	fix_post	2		12.0	43.0	2.5	/experiments/knapen_aot/videos/S_pexels-tima-miroshnichenko-8724308.mp4	0.0	278.98815989494324	0.10005903244018555
45	123.78242611885071	response	2	2		43.0	2.5	/experiments/knapen_aot/videos/S_pexels-tima-miroshnichenko-8724308.mp4	0.0	279.06330394744873	
46	123.8073410987854	fix_pre	0		31.0	44.0	2.5	/experiments/knapen_aot/videos/R_S_bing-www_dailymotion_com_video_x64hzm7_8.mp4	0.0	279.0882189273834	0.25945186614990234
46	124.05735611915588	response	0	2		44.0	2.5	/experiments/knapen_aot/videos/R_S_bing-www_dailymotion_com_video_x64hzm7_8.mp4	0.0	279.3382339477539	
46	124.0667929649353	movie	1		167.0	44.0	2.5	/experiments/knapen_aot/videos/R_S_bing-www_dailymotion_com_video_x64hzm7_8.mp4	0.0	279.3476707935333	2.5072312355041504
46	126.57402420043945	fix_post	2		12.0	44.0	2.5	/experiments/knapen_aot/videos/R_S_bing-www_dailymotion_com_video_x64hzm7_8.mp4	0.0	281.8549020290375	0.1000058650970459
46	126.66582918167114	response	2	2		44.0	2.5	/experiments/knapen_aot/videos/R_S_bing-www_dailymotion_com_video_x64hzm7_8.mp4	0.0	281.94670701026917	
47	126.6740300655365	fix_pre	0		47.0	45.0	2.5	/experiments/knapen_aot/videos/R_S_yt-CeOZeB1LXwE_79.mp4	0.0	281.9549078941345	0.3927340507507324
47	127.05760216712952	response	0	2		45.0	2.5	/experiments/knapen_aot/videos/R_S_yt-CeOZeB1LXwE_79.mp4	0.0	282.33847999572754	
47	127.06676411628723	movie	1		300.0	45.0	2.5	/experiments/knapen_aot/videos/R_S_yt-CeOZeB1LXwE_79.mp4	0.0	282.34764194488525	2.507188081741333
47	129.57395219802856	fix_post	2		12.0	45.0	2.5	/experiments/knapen_aot/videos/R_S_yt-CeOZeB1LXwE_79.mp4	0.0	284.8548300266266	0.1000359058380127
47	129.6325089931488	response	2	2		45.0	2.5	/experiments/knapen_aot/videos/R_S_yt-CeOZeB1LXwE_79.mp4	0.0	284.9133868217468	
48	129.67398810386658	fix_pre	0		30.0	46.0	2.5	/experiments/knapen_aot/videos/S_yt-IPiZqn4dG9k_9.mp4	0.0	284.9548659324646	0.24995207786560059
48	129.91573214530945	response	0	2		46.0	2.5	/experiments/knapen_aot/videos/S_yt-IPiZqn4dG9k_9.mp4	0.0	285.19660997390747	
48	129.92394018173218	movie	1		301.0	46.0	2.5	/experiments/knapen_aot/videos/S_yt-IPiZqn4dG9k_9.mp4	0.0	285.2048180103302	2.508312940597534
48	132.4322531223297	fix_post	2		12.0	46.0	2.5	/experiments/knapen_aot/videos/S_yt-IPiZqn4dG9k_9.mp4	0.0	287.71313095092773	0.10004997253417969
49	132.5323030948639	fix_pre	0		9.0	47.0	2.5	/experiments/knapen_aot/videos/S_yt-CJeyOFsd3lg_80.mp4	0.0	287.8131809234619	0.07607793807983398
49	132.5990710258484	response	0	2		47.0	2.5	/experiments/knapen_aot/videos/S_yt-CJeyOFsd3lg_80.mp4	0.0	287.8799488544464	
49	132.60838103294373	movie	1		301.0	47.0	2.5	/experiments/knapen_aot/videos/S_yt-CJeyOFsd3lg_80.mp4	0.0	287.88925886154175	2.507233142852783
49	135.1156141757965	fix_post	2		12.0	47.0	2.5	/experiments/knapen_aot/videos/S_yt-CJeyOFsd3lg_80.mp4	0.0	290.39649200439453	0.1000359058380127
50	135.21565008163452	fix_pre	0		16.0	48.0	2.5	/experiments/knapen_aot/videos/S_yt-i3-YlGenYmk_411.mp4	0.0	290.49652791023254	0.1333019733428955
50	135.34074211120605	response	0	2		48.0	2.5	/experiments/knapen_aot/videos/S_yt-i3-YlGenYmk_411.mp4	0.0	290.6216199398041	
50	135.34895205497742	movie	1		301.0	48.0	2.5	/experiments/knapen_aot/videos/S_yt-i3-YlGenYmk_411.mp4	0.0	290.62982988357544	2.5082569122314453
50	137.85720896720886	fix_post	2		12.0	48.0	2.5	/experiments/knapen_aot/videos/S_yt-i3-YlGenYmk_411.mp4	0.0	293.1380867958069	0.10010910034179688
51	137.95731806755066	fix_pre	0		8.0	49.0	2.5	blank	1.0	293.2381958961487	0.06663799285888672
51	138.00819396972656	response	0	2		49.0	2.5	blank	1.0	293.2890717983246	
51	138.02395606040955	movie	1		301.0	49.0	2.5	blank	1.0	293.30483388900757	2.508331060409546
51	140.5322871208191	fix_post	2		12.0	49.0	2.5	blank	1.0	295.8131649494171	0.10001397132873535
52	140.63230109214783	fix_pre	0		22.0	50.0	2.5	/experiments/knapen_aot/videos/R_S_yt-HwEfWfFJhRo_73.mp4	0.0	295.91317892074585	0.18433904647827148
52	140.80740213394165	response	0	2		50.0	2.5	/experiments/knapen_aot/videos/R_S_yt-HwEfWfFJhRo_73.mp4	0.0	296.0882799625397	
52	140.8166401386261	movie	1		299.0	50.0	2.5	/experiments/knapen_aot/videos/R_S_yt-HwEfWfFJhRo_73.mp4	0.0	296.0975179672241	2.5072999000549316
52	143.32394003868103	fix_post	2		12.0	50.0	2.5	/experiments/knapen_aot/videos/R_S_yt-HwEfWfFJhRo_73.mp4	0.0	298.60481786727905	0.09995603561401367
53	143.42389607429504	fix_pre	0		6.0	51.0	2.5	/experiments/knapen_aot/videos/R_S_yt-mHLTJkMrkZI_143.mp4	0.0	298.70477390289307	0.05005812644958496
53	143.4658601284027	response	0	2		51.0	2.5	/experiments/knapen_aot/videos/R_S_yt-mHLTJkMrkZI_143.mp4	0.0	298.74673795700073	
53	143.47395420074463	movie	1		301.0	51.0	2.5	/experiments/knapen_aot/videos/R_S_yt-mHLTJkMrkZI_143.mp4	0.0	298.75483202934265	2.508354902267456
53	145.51812314987183	response	1	2		51.0	2.5	/experiments/knapen_aot/videos/R_S_yt-mHLTJkMrkZI_143.mp4	0.0	300.79900097846985	
53	145.82397198677063	response	1	2		51.0	2.5	/experiments/knapen_aot/videos/R_S_yt-mHLTJkMrkZI_143.mp4	0.0	301.10484981536865	
53	145.98230910301208	fix_post	2		12.0	51.0	2.5	/experiments/knapen_aot/videos/R_S_yt-mHLTJkMrkZI_143.mp4	0.0	301.2631869316101	0.09997892379760742
54	146.0822880268097	fix_pre	0		14.0	52.0	2.5	/experiments/knapen_aot/videos/R_S_comp_N003_C006_PS_v01_SDR_PS_20180925_SDR_2K_AVC.mp4	0.0	301.3631658554077	0.11661505699157715
54	146.19076299667358	response	0	2		52.0	2.5	/experiments/knapen_aot/videos/R_S_comp_N003_C006_PS_v01_SDR_PS_20180925_SDR_2K_AVC.mp4	0.0	301.4716408252716	
54	146.19890308380127	movie	1		168.0	52.0	2.5	/experiments/knapen_aot/videos/R_S_comp_N003_C006_PS_v01_SDR_PS_20180925_SDR_2K_AVC.mp4	0.0	301.4797809123993	2.508392095565796
54	148.70729517936707	fix_post	2		12.0	52.0	2.5	/experiments/knapen_aot/videos/R_S_comp_N003_C006_PS_v01_SDR_PS_20180925_SDR_2K_AVC.mp4	0.0	303.9881730079651	0.09995889663696289
55	148.80725407600403	fix_pre	0		5.0	53.0	2.5	/experiments/knapen_aot/videos/R_S_yt-I2n2eo2zoZs_112.mp4	0.0	304.08813190460205	0.041632890701293945
55	148.84075617790222	response	0	2		53.0	2.5	/experiments/knapen_aot/videos/R_S_yt-I2n2eo2zoZs_112.mp4	0.0	304.12163400650024	
55	148.84888696670532	movie	1		301.0	53.0	2.5	/experiments/knapen_aot/videos/R_S_yt-I2n2eo2zoZs_112.mp4	0.0	304.12976479530334	2.50835919380188
55	151.3572461605072	fix_post	2		12.0	53.0	2.5	/experiments/knapen_aot/videos/R_S_yt-I2n2eo2zoZs_112.mp4	0.0	306.6381239891052	0.09999299049377441
56	151.45723915100098	fix_pre	0		7.0	54.0	2.5	/experiments/knapen_aot/videos/S_yt-9mWz93En7Gw_97.mp4	0.0	306.738116979599	0.05834197998046875
56	151.5072991847992	response	0	2		54.0	2.5	/experiments/knapen_aot/videos/S_yt-9mWz93En7Gw_97.mp4	0.0	306.7881770133972	
56	151.51558113098145	movie	1		301.0	54.0	2.5	/experiments/knapen_aot/videos/S_yt-9mWz93En7Gw_97.mp4	0.0	306.79645895957947	2.5083348751068115
56	154.02391600608826	fix_post	2		12.0	54.0	2.5	/experiments/knapen_aot/videos/S_yt-9mWz93En7Gw_97.mp4	0.0	309.3047938346863	0.09997701644897461
57	154.12389302253723	fix_pre	0		7.0	55.0	2.5	blank	1.0	309.40477085113525	0.05832815170288086
57	154.1741590499878	response	0	2		55.0	2.5	blank	1.0	309.4550368785858	
57	154.1822211742401	movie	1		301.0	55.0	2.5	blank	1.0	309.46309900283813	2.508293867111206
57	156.69051504135132	fix_post	2		12.0	55.0	2.5	blank	1.0	311.97139286994934	0.10004615783691406
58	156.79056119918823	fix_pre	0		20.0	56.0	2.5	/experiments/knapen_aot/videos/R_S_yt-2i53vKte7SA_117.mp4	0.0	312.07143902778625	0.16660189628601074
58	156.94901418685913	response	0	2		56.0	2.5	/experiments/knapen_aot/videos/R_S_yt-2i53vKte7SA_117.mp4	0.0	312.22989201545715	
58	156.95716309547424	movie	1		301.0	56.0	2.5	/experiments/knapen_aot/videos/R_S_yt-2i53vKte7SA_117.mp4	0.0	312.23804092407227	2.5083630084991455
58	159.4655261039734	fix_post	2		12.0	56.0	2.5	/experiments/knapen_aot/videos/R_S_yt-2i53vKte7SA_117.mp4	0.0	314.7464039325714	0.09992003440856934
59	159.56544613838196	fix_pre	0		6.0	57.0	2.5	/experiments/knapen_aot/videos/R_S_yt-EKPrSw5xF7k_112.mp4	0.0	314.84632396698	0.05028486251831055
59	159.60061717033386	response	0	2		57.0	2.5	/experiments/knapen_aot/videos/R_S_yt-EKPrSw5xF7k_112.mp4	0.0	314.8814949989319	
59	159.61573100090027	movie	1		301.0	57.0	2.5	/experiments/knapen_aot/videos/R_S_yt-EKPrSw5xF7k_112.mp4	0.0	314.8966088294983	2.508195161819458
59	162.12392616271973	fix_post	2		12.0	57.0	2.5	/experiments/knapen_aot/videos/R_S_yt-EKPrSw5xF7k_112.mp4	0.0	317.40480399131775	0.09994387626647949
60	162.2238700389862	fix_pre	0		7.0	58.0	2.5	/experiments/knapen_aot/videos/R_S_yt-tfHCqgH1guY_235.mp4	0.0	317.50474786758423	0.05835294723510742
60	162.27410101890564	response	0	2		58.0	2.5	/experiments/knapen_aot/videos/R_S_yt-tfHCqgH1guY_235.mp4	0.0	317.55497884750366	
60	162.2822229862213	movie	1		299.0	58.0	2.5	/experiments/knapen_aot/videos/R_S_yt-tfHCqgH1guY_235.mp4	0.0	317.56310081481934	2.508284091949463
60	164.79050707817078	fix_post	2		12.0	58.0	2.5	/experiments/knapen_aot/videos/R_S_yt-tfHCqgH1guY_235.mp4	0.0	320.0713849067688	0.10000395774841309
60	164.8748471736908	response	2	2		58.0	2.5	/experiments/knapen_aot/videos/R_S_yt-tfHCqgH1guY_235.mp4	0.0	320.1557250022888	
61	164.8905110359192	fix_pre	0		40.0	59.0	2.5	/experiments/knapen_aot/videos/R_S_yt-8gCfc-o3pyk_85.mp4	0.0	320.1713888645172	0.33330798149108887
61	165.21557307243347	response	0	2		59.0	2.5	/experiments/knapen_aot/videos/R_S_yt-8gCfc-o3pyk_85.mp4	0.0	320.4964509010315	
61	165.22381901741028	movie	1		301.0	59.0	2.5	/experiments/knapen_aot/videos/R_S_yt-8gCfc-o3pyk_85.mp4	0.0	320.5046968460083	2.508296012878418
61	167.7321150302887	fix_post	2		12.0	59.0	2.5	/experiments/knapen_aot/videos/R_S_yt-8gCfc-o3pyk_85.mp4	0.0	323.0129928588867	0.10001611709594727
62	167.83213114738464	fix_pre	0		12.0	60.0	2.5	/experiments/knapen_aot/videos/S_yt-3EZOeAbiMQE_10.mp4	0.0	323.11300897598267	0.09999799728393555
62	167.9239330291748	response	0	2		60.0	2.5	/experiments/knapen_aot/videos/S_yt-3EZOeAbiMQE_10.mp4	0.0	323.2048108577728	
62	167.93212914466858	movie	1		299.0	60.0	2.5	/experiments/knapen_aot/videos/S_yt-3EZOeAbiMQE_10.mp4	0.0	323.2130069732666	2.508481979370117
62	170.4406111240387	fix_post	2		12.0	60.0	2.5	/experiments/knapen_aot/videos/S_yt-3EZOeAbiMQE_10.mp4	0.0	325.7214889526367	0.09988284111022949
63	170.54049396514893	fix_pre	0		23.0	61.0	2.5	/experiments/knapen_aot/videos/S_ILSVRC2015_train_00628000.mp4	0.0	325.82137179374695	0.19253110885620117
63	170.72390413284302	response	0	2		61.0	2.5	/experiments/knapen_aot/videos/S_ILSVRC2015_train_00628000.mp4	0.0	326.00478196144104	
63	170.73302507400513	movie	1		301.0	61.0	2.5	/experiments/knapen_aot/videos/S_ILSVRC2015_train_00628000.mp4	0.0	326.01390290260315	2.5074338912963867
63	173.2404589653015	fix_post	2		12.0	61.0	2.5	/experiments/knapen_aot/videos/S_ILSVRC2015_train_00628000.mp4	0.0	328.52133679389954	0.09995818138122559
64	173.34041714668274	fix_pre	0		15.0	62.0	2.5	/experiments/knapen_aot/videos/S_yt-aTEGTeQuDWM_93.mp4	0.0	328.62129497528076	0.12500691413879395
64	173.4572789669037	response	0	2		62.0	2.5	/experiments/knapen_aot/videos/S_yt-aTEGTeQuDWM_93.mp4	0.0	328.7381567955017	
64	173.46542406082153	movie	1		301.0	62.0	2.5	/experiments/knapen_aot/videos/S_yt-aTEGTeQuDWM_93.mp4	0.0	328.74630188941956	2.5083470344543457
64	175.97377109527588	fix_post	2		12.0	62.0	2.5	/experiments/knapen_aot/videos/S_yt-aTEGTeQuDWM_93.mp4	0.0	331.2546489238739	0.10002803802490234
65	176.07379913330078	fix_pre	0		36.0	63.0	2.5	blank	1.0	331.3546769618988	0.3000049591064453
65	176.36559915542603	response	0	2		63.0	2.5	blank	1.0	331.64647698402405	
65	176.37380409240723	movie	1		301.0	63.0	2.5	blank	1.0	331.65468192100525	2.5083389282226562
65	178.88214302062988	fix_post	2		12.0	63.0	2.5	blank	1.0	334.1630208492279	0.09995317459106445
66	178.98209619522095	fix_pre	0		20.0	64.0	2.5	/experiments/knapen_aot/videos/R_S_yt-Dwgpjoikt84_71.mp4	0.0	334.26297402381897	0.1674947738647461
66	179.14062309265137	response	0	2		64.0	2.5	/experiments/knapen_aot/videos/R_S_yt-Dwgpjoikt84_71.mp4	0.0	334.4215009212494	
66	179.1495909690857	movie	1		301.0	64.0	2.5	/experiments/knapen_aot/videos/R_S_yt-Dwgpjoikt84_71.mp4	0.0	334.4304687976837	2.5075161457061768
66	181.65710711479187	fix_post	2		12.0	64.0	2.5	/experiments/knapen_aot/videos/R_S_yt-Dwgpjoikt84_71.mp4	0.0	336.9379849433899	0.10001897811889648
67	181.75712609291077	fix_pre	0		31.0	65.0	2.5	/experiments/knapen_aot/videos/R_S_yt-lazG9z4VQAw_99.mp4	0.0	337.0380039215088	0.2582979202270508
67	182.0072591304779	response	0	2		65.0	2.5	/experiments/knapen_aot/videos/R_S_yt-lazG9z4VQAw_99.mp4	0.0	337.2881369590759	
67	182.01542401313782	movie	1		298.0	65.0	2.5	/experiments/knapen_aot/videos/R_S_yt-lazG9z4VQAw_99.mp4	0.0	337.29630184173584	2.5083870887756348
67	184.52381110191345	fix_post	2		12.0	65.0	2.5	/experiments/knapen_aot/videos/R_S_yt-lazG9z4VQAw_99.mp4	0.0	339.8046889305115	0.09985709190368652
68	184.62366819381714	fix_pre	0		4.0	66.0	2.5	/experiments/knapen_aot/videos/R_S_b6-4.mp4	0.0	339.90454602241516	0.0336458683013916
68	184.64883708953857	response	0	2		66.0	2.5	/experiments/knapen_aot/videos/R_S_b6-4.mp4	0.0	339.9297149181366	
68	184.65731406211853	movie	1		164.0	66.0	2.5	/experiments/knapen_aot/videos/R_S_b6-4.mp4	0.0	339.93819189071655	2.508105993270874
68	187.1654200553894	fix_post	2		12.0	66.0	2.5	/experiments/knapen_aot/videos/R_S_b6-4.mp4	0.0	342.4462978839874	0.09993696212768555
69	187.2653570175171	fix_pre	0		4.0	67.0	2.5	/experiments/knapen_aot/videos/R_S_BO_A018_C029_SDR_20190812_SDR_2K_AVC.mp4	0.0	342.5462348461151	0.03344106674194336
69	187.2906060218811	response	0	2		67.0	2.5	/experiments/knapen_aot/videos/R_S_BO_A018_C029_SDR_20190812_SDR_2K_AVC.mp4	0.0	342.5714838504791	
69	187.29879808425903	movie	1		167.0	67.0	2.5	/experiments/knapen_aot/videos/R_S_BO_A018_C029_SDR_20190812_SDR_2K_AVC.mp4	0.0	342.57967591285706	2.5083560943603516
69	189.80715417861938	fix_post	2		12.0	67.0	2.5	/experiments/knapen_aot/videos/R_S_BO_A018_C029_SDR_20190812_SDR_2K_AVC.mp4	0.0	345.0880320072174	0.09993791580200195
70	189.9070920944214	fix_pre	0		3.0	68.0	2.5	blank	1.0	345.1879699230194	0.02501988410949707
70	189.92420506477356	response	0	2		68.0	2.5	blank	1.0	345.2050828933716	
70	189.93211197853088	movie	1		301.0	68.0	2.5	blank	1.0	345.2129898071289	2.5083260536193848
70	192.44043803215027	fix_post	2		12.0	68.0	2.5	blank	1.0	347.7213158607483	0.09992408752441406
71	192.54036211967468	fix_pre	0		18.0	69.0	2.5	/experiments/knapen_aot/videos/S_m-aeoYPMqfg_185.mp4	0.0	347.8212399482727	0.1507580280303955
71	192.68216514587402	response	0	2		69.0	2.5	/experiments/knapen_aot/videos/S_m-aeoYPMqfg_185.mp4	0.0	347.96304297447205	
71	192.69112014770508	movie	1		301.0	69.0	2.5	/experiments/knapen_aot/videos/S_m-aeoYPMqfg_185.mp4	0.0	347.9719979763031	2.5076229572296143
71	195.1987431049347	fix_post	2		12.0	69.0	2.5	/experiments/knapen_aot/videos/S_m-aeoYPMqfg_185.mp4	0.0	350.4796209335327	0.10012602806091309
72	195.2988691329956	fix_pre	0		7.0	70.0	2.5	/experiments/knapen_aot/videos/R_S_yt-Tt_LkR4iAt4_11.mp4	0.0	350.5797469615936	0.05892801284790039
72	195.34886503219604	response	0	2		70.0	2.5	/experiments/knapen_aot/videos/R_S_yt-Tt_LkR4iAt4_11.mp4	0.0	350.62974286079407	
72	195.3577971458435	movie	1		301.0	70.0	2.5	/experiments/knapen_aot/videos/R_S_yt-Tt_LkR4iAt4_11.mp4	0.0	350.6386749744415	2.5075600147247314
72	197.86535716056824	fix_post	2		12.0	70.0	2.5	/experiments/knapen_aot/videos/R_S_yt-Tt_LkR4iAt4_11.mp4	0.0	353.14623498916626	0.10000896453857422
73	197.9653661251068	fix_pre	0		1.0	71.0	2.5	/experiments/knapen_aot/videos/S_pexels-kelly-lacy-6756531.mp4	0.0	353.24624395370483	0.010474920272827148
73	197.9669840335846	response	0	2		71.0	2.5	/experiments/knapen_aot/videos/S_pexels-kelly-lacy-6756531.mp4	0.0	353.2478618621826	
73	197.97584104537964	movie	1		169.0	71.0	2.5	/experiments/knapen_aot/videos/S_pexels-kelly-lacy-6756531.mp4	0.0	353.25671887397766	2.5061769485473633
73	200.482017993927	fix_post	2		12.0	71.0	2.5	/experiments/knapen_aot/videos/S_pexels-kelly-lacy-6756531.mp4	0.0	355.762895822525	0.09997010231018066
73	200.52383017539978	response	2	2		71.0	2.5	/experiments/knapen_aot/videos/S_pexels-kelly-lacy-6756531.mp4	0.0	355.8047080039978	
74	200.58198809623718	fix_pre	0		26.0	72.0	2.5	/experiments/knapen_aot/videos/R_S_comp_GL_G004_C010_PSNK_v04_SDR_PS_FINAL_20180709_SDR_2K_AVC.mp4	0.0	355.8628659248352	0.21668291091918945
74	200.79041814804077	response	0	2		72.0	2.5	/experiments/knapen_aot/videos/R_S_comp_GL_G004_C010_PSNK_v04_SDR_PS_FINAL_20180709_SDR_2K_AVC.mp4	0.0	356.0712959766388	
74	200.79867100715637	movie	1		170.0	72.0	2.5	/experiments/knapen_aot/videos/R_S_comp_GL_G004_C010_PSNK_v04_SDR_PS_FINAL_20180709_SDR_2K_AVC.mp4	0.0	356.0795488357544	2.508329153060913
74	203.30700016021729	fix_post	2		12.0	72.0	2.5	/experiments/knapen_aot/videos/R_S_comp_GL_G004_C010_PSNK_v04_SDR_PS_FINAL_20180709_SDR_2K_AVC.mp4	0.0	358.5878779888153	0.09997892379760742
74	203.32545614242554	response	2	2		72.0	2.5	/experiments/knapen_aot/videos/R_S_comp_GL_G004_C010_PSNK_v04_SDR_PS_FINAL_20180709_SDR_2K_AVC.mp4	0.0	358.60633397102356	
75	203.4069790840149	fix_pre	0		16.0	73.0	2.5	/experiments/knapen_aot/videos/S_yt-mdLT282PVbE_6.mp4	0.0	358.6878569126129	0.13332390785217285
75	203.53204917907715	response	0	2		73.0	2.5	/experiments/knapen_aot/videos/S_yt-mdLT282PVbE_6.mp4	0.0	358.81292700767517	
75	203.54030299186707	movie	1		301.0	73.0	2.5	/experiments/knapen_aot/videos/S_yt-mdLT282PVbE_6.mp4	0.0	358.8211808204651	2.5083200931549072
75	206.04862308502197	fix_post	2		12.0	73.0	2.5	/experiments/knapen_aot/videos/S_yt-mdLT282PVbE_6.mp4	0.0	361.32950091362	0.10070395469665527
76	206.14932703971863	fix_pre	0		5.0	74.0	2.5	/experiments/knapen_aot/videos/R_S_yt-uSHBdUi8_V0_24.mp4	0.0	361.43020486831665	0.04178905487060547
76	206.18241500854492	response	0	2		74.0	2.5	/experiments/knapen_aot/videos/R_S_yt-uSHBdUi8_V0_24.mp4	0.0	361.46329283714294	
76	206.19111609458923	movie	1		300.0	74.0	2.5	/experiments/knapen_aot/videos/R_S_yt-uSHBdUi8_V0_24.mp4	0.0	361.47199392318726	2.5076000690460205
76	208.69871616363525	fix_post	2		12.0	74.0	2.5	/experiments/knapen_aot/videos/R_S_yt-uSHBdUi8_V0_24.mp4	0.0	363.9795939922333	0.09991192817687988
77	208.79862809181213	fix_pre	0		4.0	75.0	2.5	/experiments/knapen_aot/videos/R_S_yt-y-boY803u9A_12.mp4	0.0	364.07950592041016	0.03330397605895996
77	208.82382011413574	response	0	2		75.0	2.5	/experiments/knapen_aot/videos/R_S_yt-y-boY803u9A_12.mp4	0.0	364.10469794273376	
77	208.8319320678711	movie	1		301.0	75.0	2.5	/experiments/knapen_aot/videos/R_S_yt-y-boY803u9A_12.mp4	0.0	364.1128098964691	2.5084121227264404
77	211.34034419059753	fix_post	2		12.0	75.0	2.5	/experiments/knapen_aot/videos/R_S_yt-y-boY803u9A_12.mp4	0.0	366.62122201919556	0.10063695907592773
78	211.44098114967346	fix_pre	0		17.0	76.0	2.5	/experiments/knapen_aot/videos/S_yt-hWXr5bv2_uA_48.mp4	0.0	366.7218589782715	0.14099383354187012
78	211.57377004623413	response	0	2		76.0	2.5	/experiments/knapen_aot/videos/S_yt-hWXr5bv2_uA_48.mp4	0.0	366.85464787483215	
78	211.58197498321533	movie	1		299.0	76.0	2.5	/experiments/knapen_aot/videos/S_yt-hWXr5bv2_uA_48.mp4	0.0	366.86285281181335	2.508369207382202
78	214.09034419059753	fix_post	2		12.0	76.0	2.5	/experiments/knapen_aot/videos/S_yt-hWXr5bv2_uA_48.mp4	0.0	369.37122201919556	0.10059285163879395
79	214.19093704223633	fix_pre	0		9.0	77.0	2.5	blank	1.0	369.47181487083435	0.07437515258789062
79	214.25702500343323	response	0	2		77.0	2.5	blank	1.0	369.53790283203125	
79	214.26531219482422	movie	1		301.0	77.0	2.5	blank	1.0	369.54619002342224	2.50830078125
79	216.77361297607422	fix_post	2		12.0	77.0	2.5	blank	1.0	372.05449080467224	0.09996819496154785
80	216.87358117103577	fix_pre	0		26.0	78.0	2.5	/experiments/knapen_aot/videos/R_S_P007_C027_UHD_SDR_2K_AVC.mp4	0.0	372.1544589996338	0.2167220115661621
80	217.07451605796814	response	0	2		78.0	2.5	/experiments/knapen_aot/videos/R_S_P007_C027_UHD_SDR_2K_AVC.mp4	0.0	372.35539388656616	
80	217.09030318260193	movie	1		170.0	78.0	2.5	/experiments/knapen_aot/videos/R_S_P007_C027_UHD_SDR_2K_AVC.mp4	0.0	372.37118101119995	2.508330821990967
80	219.5986340045929	fix_post	2		12.0	78.0	2.5	/experiments/knapen_aot/videos/R_S_P007_C027_UHD_SDR_2K_AVC.mp4	0.0	374.8795118331909	0.10001397132873535
80	219.60775899887085	response	2	2		78.0	2.5	/experiments/knapen_aot/videos/R_S_P007_C027_UHD_SDR_2K_AVC.mp4	0.0	374.8886368274689	
81	219.69864797592163	fix_pre	0		23.0	79.0	2.5	/experiments/knapen_aot/videos/S_yt-w_e3sxIzepA_27.mp4	0.0	374.97952580451965	0.19166803359985352
81	219.8745059967041	response	0	2		79.0	2.5	/experiments/knapen_aot/videos/S_yt-w_e3sxIzepA_27.mp4	0.0	375.1553838253021	
81	219.89031600952148	movie	1		301.0	79.0	2.5	/experiments/knapen_aot/videos/S_yt-w_e3sxIzepA_27.mp4	0.0	375.1711938381195	2.5083200931549072
81	222.3986361026764	fix_post	2		12.0	79.0	2.5	/experiments/knapen_aot/videos/S_yt-w_e3sxIzepA_27.mp4	0.0	377.6795139312744	0.10006093978881836
82	222.4986970424652	fix_pre	0		14.0	80.0	2.5	/experiments/knapen_aot/videos/R_S_pexels-cottonbro-6789231.mp4	0.0	377.77957487106323	0.1165471076965332
82	222.60707902908325	response	0	2		80.0	2.5	/experiments/knapen_aot/videos/R_S_pexels-cottonbro-6789231.mp4	0.0	377.8879568576813	
82	222.61524415016174	movie	1		194.0	80.0	2.5	/experiments/knapen_aot/videos/R_S_pexels-cottonbro-6789231.mp4	0.0	377.89612197875977	2.5083048343658447
82	225.1235489845276	fix_post	2		12.0	80.0	2.5	/experiments/knapen_aot/videos/R_S_pexels-cottonbro-6789231.mp4	0.0	380.4044268131256	0.10004615783691406
82	225.2070209980011	response	2	2		80.0	2.5	/experiments/knapen_aot/videos/R_S_pexels-cottonbro-6789231.mp4	0.0	380.4878988265991	
83	225.2235951423645	fix_pre	0		39.0	81.0	2.5	/experiments/knapen_aot/videos/R_S_yt-PvWkOmfZuSY_4.mp4	0.0	380.5044729709625	0.32491397857666016
83	225.54030799865723	response	0	2		81.0	2.5	/experiments/knapen_aot/videos/R_S_yt-PvWkOmfZuSY_4.mp4	0.0	380.82118582725525	
83	225.54850912094116	movie	1		301.0	81.0	2.5	/experiments/knapen_aot/videos/R_S_yt-PvWkOmfZuSY_4.mp4	0.0	380.8293869495392	2.5083389282226562
83	228.05684804916382	fix_post	2		11.0	81.0	2.5	/experiments/knapen_aot/videos/R_S_yt-PvWkOmfZuSY_4.mp4	0.0	383.33772587776184	0.09224891662597656
83	228.12386298179626	response	2	2		81.0	2.5	/experiments/knapen_aot/videos/R_S_yt-PvWkOmfZuSY_4.mp4	0.0	383.4047408103943	
84	228.1490969657898	fix_pre	0		31.0	82.0	2.5	/experiments/knapen_aot/videos/R_S_pexels-mart-production-8435081.mp4	0.0	383.4299747943878	0.257824182510376
84	228.398668050766	response	0	2		82.0	2.5	/experiments/knapen_aot/videos/R_S_pexels-mart-production-8435081.mp4	0.0	383.679545879364	
84	228.40692114830017	movie	1		184.0	82.0	2.5	/experiments/knapen_aot/videos/R_S_pexels-mart-production-8435081.mp4	0.0	383.6877989768982	2.508309841156006
84	230.91523098945618	fix_post	2		12.0	82.0	2.5	/experiments/knapen_aot/videos/R_S_pexels-mart-production-8435081.mp4	0.0	386.1961088180542	0.10003018379211426
84	230.94873714447021	response	2	2		82.0	2.5	/experiments/knapen_aot/videos/R_S_pexels-mart-production-8435081.mp4	0.0	386.22961497306824	
85	231.0152611732483	fix_pre	0		26.0	83.0	2.5	blank	1.0	386.2961390018463	0.21718096733093262
85	231.22364115715027	response	0	2		83.0	2.5	blank	1.0	386.5045189857483	
85	231.23244214057922	movie	1		301.0	83.0	2.5	blank	1.0	386.51331996917725	2.507823944091797
85	233.20701503753662	response	1	2		83.0	2.5	blank	1.0	388.48789286613464	
85	233.49859809875488	response	1	2		83.0	2.5	blank	1.0	388.7794759273529	
85	233.74026608467102	fix_post	2		12.0	83.0	2.5	blank	1.0	389.02114391326904	0.09999895095825195
85	233.74869799613953	response	2	2		83.0	2.5	blank	1.0	389.02957582473755	
87	233.84026503562927	stim	0		277.0					389.1211428642273	2.308791160583496
87	236.14207220077515	response	0	space						391.42295002937317	
