trial_nr	onset	event_type	phase	response	nr_frames	movie_index	movie_duration	movie_file	blank	onset_abs	duration
0	0.1526660919189453	stim	0		26.0					81.05604100227356	0.21536898612976074
0	0.35779595375061035	response	0	space						81.26117086410522	
1	0.36803507804870605	stim	0		121.0					81.27140998840332	1.006415843963623
1	1.308103084564209	response	0	space						82.21147799491882	
1	1.374450922012329	stim	1		120.0					82.27782583236694	1.0001912117004395
1	1.5412189960479736	response	1	space						82.44459390640259	
1	1.7158880233764648	response	1	space						82.61926293373108	
1	1.9575490951538086	response	1	space						82.86092400550842	
1	2.1408820152282715	response	1	space						83.04425692558289	
2	2.3746421337127686	fix_pre	0		62.0	0.0	2.5	/experiments/knapen_aot/videos/S_production_ID_4121250.mp4	0.0	83.27801704406738	0.5161290168762207
2	2.8826229572296143	response	0	space		0.0	2.5	/experiments/knapen_aot/videos/S_production_ID_4121250.mp4	0.0	83.78599786758423	
2	2.8907711505889893	movie	1		165.0	0.0	2.5	/experiments/knapen_aot/videos/S_production_ID_4121250.mp4	0.0	83.7941460609436	2.5082669258117676
2	5.399038076400757	fix_post	2		12.0	0.0	2.5	/experiments/knapen_aot/videos/S_production_ID_4121250.mp4	0.0	86.30241298675537	0.10000205039978027
3	5.499040126800537	fix_pre	0		19.0	1.0	2.5	/experiments/knapen_aot/videos/R_S_comp_GL_G004_C010_PSNK_v04_SDR_PS_FINAL_20180709_SDR_2K_AVC.mp4	0.0	86.40241503715515	0.16019392013549805
3	5.6527259349823	response	0	2		1.0	2.5	/experiments/knapen_aot/videos/R_S_comp_GL_G004_C010_PSNK_v04_SDR_PS_FINAL_20180709_SDR_2K_AVC.mp4	0.0	86.55610084533691	
3	5.659234046936035	movie	1		167.0	1.0	2.5	/experiments/knapen_aot/videos/R_S_comp_GL_G004_C010_PSNK_v04_SDR_PS_FINAL_20180709_SDR_2K_AVC.mp4	0.0	86.56260895729065	2.5064780712127686
3	8.165712118148804	fix_post	2		12.0	1.0	2.5	/experiments/knapen_aot/videos/R_S_comp_GL_G004_C010_PSNK_v04_SDR_PS_FINAL_20180709_SDR_2K_AVC.mp4	0.0	89.06908702850342	0.10001397132873535
4	8.265726089477539	fix_pre	0		27.0	2.0	2.5	/experiments/knapen_aot/videos/R_S_yt-w_C-15eJeCQ_191.mp4	0.0	89.16910099983215	0.2250080108642578
4	8.475157022476196	response	0	2		2.0	2.5	/experiments/knapen_aot/videos/R_S_yt-w_C-15eJeCQ_191.mp4	0.0	89.37853193283081	
4	8.490734100341797	movie	1		301.0	2.0	2.5	/experiments/knapen_aot/videos/R_S_yt-w_C-15eJeCQ_191.mp4	0.0	89.39410901069641	2.5083248615264893
4	10.73584508895874	response	1	2		2.0	2.5	/experiments/knapen_aot/videos/R_S_yt-w_C-15eJeCQ_191.mp4	0.0	91.63921999931335	
4	10.999058961868286	fix_post	2		11.0	2.0	2.5	/experiments/knapen_aot/videos/R_S_yt-w_C-15eJeCQ_191.mp4	0.0	91.9024338722229	0.10005903244018555
5	11.099117994308472	fix_pre	0		44.0	3.0	2.5	/experiments/knapen_aot/videos/S_pexels-rodnae-productions-5993671.mp4	0.0	92.00249290466309	0.3665800094604492
5	11.457523107528687	response	0	2		3.0	2.5	/experiments/knapen_aot/videos/S_pexels-rodnae-productions-5993671.mp4	0.0	92.3608980178833	
5	11.465698003768921	movie	1		167.0	3.0	2.5	/experiments/knapen_aot/videos/S_pexels-rodnae-productions-5993671.mp4	0.0	92.36907291412354	2.508388042449951
5	13.974086046218872	fix_post	2		12.0	3.0	2.5	/experiments/knapen_aot/videos/S_pexels-rodnae-productions-5993671.mp4	0.0	94.87746095657349	0.09994387626647949
6	14.074029922485352	fix_pre	0		8.0	4.0	2.5	/experiments/knapen_aot/videos/S_yt-kiEFK7bDssE_14.mp4	0.0	94.97740483283997	0.0666961669921875
6	14.13324499130249	response	0	2		4.0	2.5	/experiments/knapen_aot/videos/S_yt-kiEFK7bDssE_14.mp4	0.0	95.0366199016571	
6	14.140726089477539	movie	1		301.0	4.0	2.5	/experiments/knapen_aot/videos/S_yt-kiEFK7bDssE_14.mp4	0.0	95.04410099983215	2.508249044418335
6	16.648975133895874	fix_post	2		12.0	4.0	2.5	/experiments/knapen_aot/videos/S_yt-kiEFK7bDssE_14.mp4	0.0	97.55235004425049	0.10001993179321289
7	16.748995065689087	fix_pre	0		8.0	5.0	2.5	blank	1.0	97.6523699760437	0.06666398048400879
7	16.807440042495728	response	0	2		5.0	2.5	blank	1.0	97.71081495285034	
7	16.815659046173096	movie	1		301.0	5.0	2.5	blank	1.0	97.71903395652771	2.508362054824829
7	19.324021100997925	fix_post	2		12.0	5.0	2.5	blank	1.0	100.22739601135254	0.09995698928833008
8	19.423978090286255	fix_pre	0		1.0	6.0	2.5	/experiments/knapen_aot/videos/S_yt-w_e3sxIzepA_115.mp4	0.0	100.32735300064087	0.008384943008422852
8	19.425568103790283	response	0	2		6.0	2.5	/experiments/knapen_aot/videos/S_yt-w_e3sxIzepA_115.mp4	0.0	100.3289430141449	
8	19.432363033294678	movie	1		301.0	6.0	2.5	/experiments/knapen_aot/videos/S_yt-w_e3sxIzepA_115.mp4	0.0	100.33573794364929	2.508327007293701
8	21.94069004058838	fix_post	2		12.0	6.0	2.5	/experiments/knapen_aot/videos/S_yt-w_e3sxIzepA_115.mp4	0.0	102.844064950943	0.10001707077026367
9	22.040707111358643	fix_pre	0		8.0	7.0	2.5	/experiments/knapen_aot/videos/R_S_yt-_BvMLZo0MG0_1226.mp4	0.0	102.94408202171326	0.06675982475280762
9	22.099354028701782	response	0	2		7.0	2.5	/experiments/knapen_aot/videos/R_S_yt-_BvMLZo0MG0_1226.mp4	0.0	103.0027289390564	
9	22.10746693611145	movie	1		301.0	7.0	2.5	/experiments/knapen_aot/videos/R_S_yt-_BvMLZo0MG0_1226.mp4	0.0	103.01084184646606	2.5082030296325684
9	24.16655993461609	response	1	2		7.0	2.5	/experiments/knapen_aot/videos/R_S_yt-_BvMLZo0MG0_1226.mp4	0.0	105.0699348449707	
9	24.61566996574402	fix_post	2		12.0	7.0	2.5	/experiments/knapen_aot/videos/R_S_yt-_BvMLZo0MG0_1226.mp4	0.0	105.51904487609863	0.10001301765441895
10	24.715682983398438	fix_pre	0		8.0	8.0	2.5	/experiments/knapen_aot/videos/R_S_Ds4EKTLx_RI_51.mp4	0.0	105.61905789375305	0.06664800643920898
10	24.77401113510132	response	0	2		8.0	2.5	/experiments/knapen_aot/videos/R_S_Ds4EKTLx_RI_51.mp4	0.0	105.67738604545593	
10	24.782330989837646	movie	1		299.0	8.0	2.5	/experiments/knapen_aot/videos/R_S_Ds4EKTLx_RI_51.mp4	0.0	105.68570590019226	2.508281946182251
10	27.290612936019897	fix_post	2		12.0	8.0	2.5	/experiments/knapen_aot/videos/R_S_Ds4EKTLx_RI_51.mp4	0.0	108.19398784637451	0.10006213188171387
11	27.39067506790161	fix_pre	0		20.0	9.0	2.5	/experiments/knapen_aot/videos/R_S_yt-8fQ9LaF8U10_382.mp4	0.0	108.29404997825623	0.16655492782592773
11	27.54915499687195	response	0	2		9.0	2.5	/experiments/knapen_aot/videos/R_S_yt-8fQ9LaF8U10_382.mp4	0.0	108.45252990722656	
11	27.55722999572754	movie	1		301.0	9.0	2.5	/experiments/knapen_aot/videos/R_S_yt-8fQ9LaF8U10_382.mp4	0.0	108.46060490608215	2.50833797454834
11	30.06556797027588	fix_post	2		12.0	9.0	2.5	/experiments/knapen_aot/videos/R_S_yt-8fQ9LaF8U10_382.mp4	0.0	110.9689428806305	0.10010600090026855
12	30.165673971176147	fix_pre	0		12.0	10.0	2.5	/experiments/knapen_aot/videos/S_yt-MsSEF0krKE4_149.mp4	0.0	111.06904888153076	0.09986305236816406
12	30.257416009902954	response	0	2		10.0	2.5	/experiments/knapen_aot/videos/S_yt-MsSEF0krKE4_149.mp4	0.0	111.16079092025757	
12	30.26553702354431	movie	1		301.0	10.0	2.5	/experiments/knapen_aot/videos/S_yt-MsSEF0krKE4_149.mp4	0.0	111.16891193389893	2.5084009170532227
12	32.773937940597534	fix_post	2		12.0	10.0	2.5	/experiments/knapen_aot/videos/S_yt-MsSEF0krKE4_149.mp4	0.0	113.67731285095215	0.10038304328918457
13	32.87432098388672	fix_pre	0		76.0	11.0	2.5	/experiments/knapen_aot/videos/S_production_ID_3761571.mp4	0.0	113.77769589424133	0.6328980922698975
13	33.49146795272827	response	0	2		11.0	2.5	/experiments/knapen_aot/videos/S_production_ID_3761571.mp4	0.0	114.39484286308289	
13	33.507219076156616	movie	1		163.0	11.0	2.5	/experiments/knapen_aot/videos/S_production_ID_3761571.mp4	0.0	114.41059398651123	2.5084800720214844
13	36.0156991481781	fix_post	2		12.0	11.0	2.5	/experiments/knapen_aot/videos/S_production_ID_3761571.mp4	0.0	116.91907405853271	0.09989786148071289
14	36.11559700965881	fix_pre	0		7.0	12.0	2.5	/experiments/knapen_aot/videos/S_yt-3eQHOLBzOqA_100.mp4	0.0	117.01897192001343	0.058975934982299805
14	36.16651105880737	response	0	2		12.0	2.5	/experiments/knapen_aot/videos/S_yt-3eQHOLBzOqA_100.mp4	0.0	117.06988596916199	
14	36.17457294464111	movie	1		301.0	12.0	2.5	/experiments/knapen_aot/videos/S_yt-3eQHOLBzOqA_100.mp4	0.0	117.07794785499573	2.507721185684204
14	38.68229413032532	fix_post	2		12.0	12.0	2.5	/experiments/knapen_aot/videos/S_yt-3eQHOLBzOqA_100.mp4	0.0	119.58566904067993	0.10004782676696777
15	38.782341957092285	fix_pre	0		31.0	13.0	2.5	blank	1.0	119.6857168674469	0.25861406326293945
15	39.032488107681274	response	0	2		13.0	2.5	blank	1.0	119.93586301803589	
15	39.040956020355225	movie	1		301.0	13.0	2.5	blank	1.0	119.94433093070984	2.5080149173736572
15	41.54897093772888	fix_post	2		12.0	13.0	2.5	blank	1.0	122.4523458480835	0.09998321533203125
16	41.64895415306091	fix_pre	0		22.0	14.0	2.5	/experiments/knapen_aot/videos/S_ILSVRC2015_train_00654000.mp4	0.0	122.55232906341553	0.18360090255737305
16	41.82406806945801	response	0	2		14.0	2.5	/experiments/knapen_aot/videos/S_ILSVRC2015_train_00654000.mp4	0.0	122.72744297981262	
16	41.832555055618286	movie	1		301.0	14.0	2.5	/experiments/knapen_aot/videos/S_ILSVRC2015_train_00654000.mp4	0.0	122.7359299659729	2.5079689025878906
16	44.34052395820618	fix_post	2		12.0	14.0	2.5	/experiments/knapen_aot/videos/S_ILSVRC2015_train_00654000.mp4	0.0	125.24389886856079	0.10004115104675293
17	44.44056510925293	fix_pre	0		8.0	15.0	2.5	/experiments/knapen_aot/videos/S_I003_C015_SDR_2K_AVC.mp4	0.0	125.34394001960754	0.06671500205993652
17	44.49230694770813	response	0	2		15.0	2.5	/experiments/knapen_aot/videos/S_I003_C015_SDR_2K_AVC.mp4	0.0	125.39568185806274	
17	44.507280111312866	movie	1		170.0	15.0	2.5	/experiments/knapen_aot/videos/S_I003_C015_SDR_2K_AVC.mp4	0.0	125.41065502166748	2.508280038833618
17	47.015560150146484	fix_post	2		12.0	15.0	2.5	/experiments/knapen_aot/videos/S_I003_C015_SDR_2K_AVC.mp4	0.0	127.9189350605011	0.1000518798828125
18	47.1156120300293	fix_pre	0		38.0	16.0	2.5	/experiments/knapen_aot/videos/R_S_X-D3lUv-atE_376.mp4	0.0	128.0189869403839	0.3166229724884033
18	47.42407512664795	response	0	2		16.0	2.5	/experiments/knapen_aot/videos/R_S_X-D3lUv-atE_376.mp4	0.0	128.32745003700256	
18	47.4322350025177	movie	1		300.0	16.0	2.5	/experiments/knapen_aot/videos/R_S_X-D3lUv-atE_376.mp4	0.0	128.33560991287231	2.508388042449951
18	49.94062304496765	fix_post	2		12.0	16.0	2.5	/experiments/knapen_aot/videos/R_S_X-D3lUv-atE_376.mp4	0.0	130.84399795532227	0.10023689270019531
19	50.04085993766785	fix_pre	0		12.0	17.0	2.5	/experiments/knapen_aot/videos/R_S_ILSVRC2015_train_00165012.mp4	0.0	130.94423484802246	0.09971213340759277
19	50.132375955581665	response	0	2		17.0	2.5	/experiments/knapen_aot/videos/R_S_ILSVRC2015_train_00165012.mp4	0.0	131.03575086593628	
19	50.14057207107544	movie	1		301.0	17.0	2.5	/experiments/knapen_aot/videos/R_S_ILSVRC2015_train_00165012.mp4	0.0	131.04394698143005	2.508357048034668
19	52.64892911911011	fix_post	2		12.0	17.0	2.5	/experiments/knapen_aot/videos/R_S_ILSVRC2015_train_00165012.mp4	0.0	133.55230402946472	0.1002340316772461
20	52.74916315078735	fix_pre	0		3.0	18.0	2.5	/experiments/knapen_aot/videos/R_S_yt-CJeyOFsd3lg_80.mp4	0.0	133.65253806114197	0.024721860885620117
20	52.75815796852112	response	0	2		18.0	2.5	/experiments/knapen_aot/videos/R_S_yt-CJeyOFsd3lg_80.mp4	0.0	133.66153287887573	
20	52.773885011672974	movie	1		299.0	18.0	2.5	/experiments/knapen_aot/videos/R_S_yt-CJeyOFsd3lg_80.mp4	0.0	133.6772599220276	2.508280038833618
20	55.28216505050659	fix_post	2		12.0	18.0	2.5	/experiments/knapen_aot/videos/R_S_yt-CJeyOFsd3lg_80.mp4	0.0	136.1855399608612	0.0999610424041748
21	55.38212609291077	fix_pre	0		12.0	19.0	2.5	/experiments/knapen_aot/videos/R_S_pexels-kindel-media-8165572.mp4	0.0	136.28550100326538	0.10001683235168457
21	55.473958015441895	response	0	2		19.0	2.5	/experiments/knapen_aot/videos/R_S_pexels-kindel-media-8165572.mp4	0.0	136.3773329257965	
21	55.48214292526245	movie	1		167.0	19.0	2.5	/experiments/knapen_aot/videos/R_S_pexels-kindel-media-8165572.mp4	0.0	136.38551783561707	2.5083630084991455
21	57.9905059337616	fix_post	2		12.0	19.0	2.5	/experiments/knapen_aot/videos/R_S_pexels-kindel-media-8165572.mp4	0.0	138.8938808441162	0.10003304481506348
22	58.09053897857666	fix_pre	0		14.0	20.0	2.5	blank	1.0	138.99391388893127	0.11686897277832031
22	58.198997020721436	response	0	2		20.0	2.5	blank	1.0	139.10237193107605	
22	58.20740795135498	movie	1		301.0	20.0	2.5	blank	1.0	139.1107828617096	2.508085012435913
22	60.715492963790894	fix_post	2		12.0	20.0	2.5	blank	1.0	141.6188678741455	0.09994697570800781
23	60.8154399394989	fix_pre	0		52.0	21.0	2.5	/experiments/knapen_aot/videos/R_S_bing-www_yahoo_com_entertainment_anastasia-karanikolaou-chantel-jeffries-discuss-182400502_html_9.mp4	0.0	141.71881484985352	0.4336721897125244
23	61.24057102203369	response	0	2		21.0	2.5	/experiments/knapen_aot/videos/R_S_bing-www_yahoo_com_entertainment_anastasia-karanikolaou-chantel-jeffries-discuss-182400502_html_9.mp4	0.0	142.1439459323883	
23	61.249112129211426	movie	1		163.0	21.0	2.5	/experiments/knapen_aot/videos/R_S_bing-www_yahoo_com_entertainment_anastasia-karanikolaou-chantel-jeffries-discuss-182400502_html_9.mp4	0.0	142.15248703956604	2.50801682472229
23	63.757128953933716	fix_post	2		12.0	21.0	2.5	/experiments/knapen_aot/videos/R_S_bing-www_yahoo_com_entertainment_anastasia-karanikolaou-chantel-jeffries-discuss-182400502_html_9.mp4	0.0	144.66050386428833	0.09991312026977539
24	63.85704207420349	fix_pre	0		6.0	22.0	2.5	/experiments/knapen_aot/videos/R_S_pexels-cottonbro-6788024.mp4	0.0	144.7604169845581	0.05010104179382324
24	63.899001121520996	response	0	2		22.0	2.5	/experiments/knapen_aot/videos/R_S_pexels-cottonbro-6788024.mp4	0.0	144.8023760318756	
24	63.907143115997314	movie	1		190.0	22.0	2.5	/experiments/knapen_aot/videos/R_S_pexels-cottonbro-6788024.mp4	0.0	144.81051802635193	2.5083420276641846
24	66.4154851436615	fix_post	2		12.0	22.0	2.5	/experiments/knapen_aot/videos/R_S_pexels-cottonbro-6788024.mp4	0.0	147.3188600540161	0.09987497329711914
25	66.51536011695862	fix_pre	0		7.0	23.0	2.5	/experiments/knapen_aot/videos/S_yt-8RmEimCI80g_35.mp4	0.0	147.41873502731323	0.060040950775146484
25	66.5656750202179	response	0	2		23.0	2.5	/experiments/knapen_aot/videos/S_yt-8RmEimCI80g_35.mp4	0.0	147.4690499305725	
25	66.57540106773376	movie	1		301.0	23.0	2.5	/experiments/knapen_aot/videos/S_yt-8RmEimCI80g_35.mp4	0.0	147.47877597808838	2.5066909790039062
25	69.08209204673767	fix_post	2		12.0	23.0	2.5	/experiments/knapen_aot/videos/S_yt-8RmEimCI80g_35.mp4	0.0	149.98546695709229	0.10001587867736816
26	69.18210792541504	fix_pre	0		9.0	24.0	2.5	/experiments/knapen_aot/videos/S_ILSVRC2015_train_00682003.mp4	0.0	150.08548283576965	0.07504105567932129
26	69.24936008453369	response	0	2		24.0	2.5	/experiments/knapen_aot/videos/S_ILSVRC2015_train_00682003.mp4	0.0	150.1527349948883	
26	69.25714898109436	movie	1		300.0	24.0	2.5	/experiments/knapen_aot/videos/S_ILSVRC2015_train_00682003.mp4	0.0	150.16052389144897	2.508437156677246
26	71.7655861377716	fix_post	2		12.0	24.0	2.5	/experiments/knapen_aot/videos/S_ILSVRC2015_train_00682003.mp4	0.0	152.66896104812622	0.09991693496704102
27	71.86550307273865	fix_pre	0		8.0	25.0	2.5	/experiments/knapen_aot/videos/S_FK_U009_C004_SDR_20191220_SDR_2K_AVC.mp4	0.0	152.76887798309326	0.06665205955505371
27	71.92404699325562	response	0	2		25.0	2.5	/experiments/knapen_aot/videos/S_FK_U009_C004_SDR_20191220_SDR_2K_AVC.mp4	0.0	152.82742190361023	
27	71.9321551322937	movie	1		161.0	25.0	2.5	/experiments/knapen_aot/videos/S_FK_U009_C004_SDR_20191220_SDR_2K_AVC.mp4	0.0	152.83553004264832	2.508269786834717
27	74.44042491912842	fix_post	2		12.0	25.0	2.5	/experiments/knapen_aot/videos/S_FK_U009_C004_SDR_20191220_SDR_2K_AVC.mp4	0.0	155.34379982948303	0.10011601448059082
28	74.54054093360901	fix_pre	0		24.0	26.0	2.5	/experiments/knapen_aot/videos/R_S_yt-1_xoCNmTn3Y_1.mp4	0.0	155.44391584396362	0.19980406761169434
28	74.73228812217712	response	0	2		26.0	2.5	/experiments/knapen_aot/videos/R_S_yt-1_xoCNmTn3Y_1.mp4	0.0	155.63566303253174	
28	74.7403450012207	movie	1		301.0	26.0	2.5	/experiments/knapen_aot/videos/R_S_yt-1_xoCNmTn3Y_1.mp4	0.0	155.64371991157532	2.5085010528564453
28	77.24884605407715	fix_post	2		12.0	26.0	2.5	/experiments/knapen_aot/videos/R_S_yt-1_xoCNmTn3Y_1.mp4	0.0	158.15222096443176	0.09989190101623535
29	77.34873795509338	fix_pre	0		9.0	27.0	2.5	/experiments/knapen_aot/videos/R_S_yt-GyMWMiWvuiA_237.mp4	0.0	158.252112865448	0.0749959945678711
29	77.41579413414001	response	0	2		27.0	2.5	/experiments/knapen_aot/videos/R_S_yt-GyMWMiWvuiA_237.mp4	0.0	158.31916904449463	
29	77.42373394966125	movie	1		301.0	27.0	2.5	/experiments/knapen_aot/videos/R_S_yt-GyMWMiWvuiA_237.mp4	0.0	158.32710886001587	2.5083000659942627
29	79.93203401565552	fix_post	2		12.0	27.0	2.5	/experiments/knapen_aot/videos/R_S_yt-GyMWMiWvuiA_237.mp4	0.0	160.83540892601013	0.10004210472106934
30	80.03207612037659	fix_pre	0		24.0	28.0	2.5	blank	1.0	160.9354510307312	0.1999518871307373
30	80.22384309768677	response	0	2		28.0	2.5	blank	1.0	161.12721800804138	
30	80.23202800750732	movie	1		301.0	28.0	2.5	blank	1.0	161.13540291786194	2.508350133895874
30	82.7403781414032	fix_post	2		12.0	28.0	2.5	blank	1.0	163.6437530517578	0.10000991821289062
31	82.84038805961609	fix_pre	0		34.0	29.0	2.5	/experiments/knapen_aot/videos/S_yt-JkKOG9Fxykc_94.mp4	0.0	163.7437629699707	0.28339695930480957
31	83.11548399925232	response	0	2		29.0	2.5	/experiments/knapen_aot/videos/S_yt-JkKOG9Fxykc_94.mp4	0.0	164.01885890960693	
31	83.1237850189209	movie	1		301.0	29.0	2.5	/experiments/knapen_aot/videos/S_yt-JkKOG9Fxykc_94.mp4	0.0	164.0271599292755	2.508286952972412
31	85.63207197189331	fix_post	2		12.0	29.0	2.5	/experiments/knapen_aot/videos/S_yt-JkKOG9Fxykc_94.mp4	0.0	166.53544688224792	0.09998011589050293
32	85.73205208778381	fix_pre	0		49.0	30.0	2.5	/experiments/knapen_aot/videos/R_S_yt-3EZOeAbiMQE_10.mp4	0.0	166.63542699813843	0.408344030380249
32	86.13228106498718	response	0	2		30.0	2.5	/experiments/knapen_aot/videos/R_S_yt-3EZOeAbiMQE_10.mp4	0.0	167.0356559753418	
32	86.14039611816406	movie	1		300.0	30.0	2.5	/experiments/knapen_aot/videos/R_S_yt-3EZOeAbiMQE_10.mp4	0.0	167.04377102851868	2.508267879486084
32	88.64866399765015	fix_post	2		12.0	30.0	2.5	/experiments/knapen_aot/videos/R_S_yt-3EZOeAbiMQE_10.mp4	0.0	169.55203890800476	0.1002800464630127
33	88.74894404411316	fix_pre	0		30.0	31.0	2.5	/experiments/knapen_aot/videos/R_S_production_ID_4101307.mp4	0.0	169.65231895446777	0.24982309341430664
33	88.9904510974884	response	0	2		31.0	2.5	/experiments/knapen_aot/videos/R_S_production_ID_4101307.mp4	0.0	169.89382600784302	
33	88.99876713752747	movie	1		198.0	31.0	2.5	/experiments/knapen_aot/videos/R_S_production_ID_4101307.mp4	0.0	169.90214204788208	2.5083208084106445
33	90.45725512504578	response	1	2		31.0	2.5	/experiments/knapen_aot/videos/R_S_production_ID_4101307.mp4	0.0	171.3606300354004	
33	91.50708794593811	fix_post	2		12.0	31.0	2.5	/experiments/knapen_aot/videos/R_S_production_ID_4101307.mp4	0.0	172.41046285629272	0.09996604919433594
34	91.60705399513245	fix_pre	0		7.0	32.0	2.5	/experiments/knapen_aot/videos/S_yt-w_e3sxIzepA_115.mp4	0.0	172.51042890548706	0.05890202522277832
34	91.65736603736877	response	0	2		32.0	2.5	/experiments/knapen_aot/videos/S_yt-w_e3sxIzepA_115.mp4	0.0	172.5607409477234	
34	91.66595602035522	movie	1		301.0	32.0	2.5	/experiments/knapen_aot/videos/S_yt-w_e3sxIzepA_115.mp4	0.0	172.56933093070984	2.5077760219573975
34	94.17373204231262	fix_post	2		12.0	32.0	2.5	/experiments/knapen_aot/videos/S_yt-w_e3sxIzepA_115.mp4	0.0	175.07710695266724	0.09999895095825195
35	94.27373099327087	fix_pre	0		17.0	33.0	2.5	blank	1.0	175.1771059036255	0.14165210723876953
35	94.4071991443634	response	0	2		33.0	2.5	blank	1.0	175.31057405471802	
35	94.41538310050964	movie	1		301.0	33.0	2.5	blank	1.0	175.31875801086426	2.508288860321045
35	96.92367196083069	fix_post	2		12.0	33.0	2.5	blank	1.0	177.8270468711853	0.10003995895385742
36	97.02371191978455	fix_pre	0		23.0	34.0	2.5	/experiments/knapen_aot/videos/S_yt-oPq1uvbw-lQ_62.mp4	0.0	177.92708683013916	0.19159817695617676
36	97.20717906951904	response	0	2		34.0	2.5	/experiments/knapen_aot/videos/S_yt-oPq1uvbw-lQ_62.mp4	0.0	178.11055397987366	
36	97.21531009674072	movie	1		301.0	34.0	2.5	/experiments/knapen_aot/videos/S_yt-oPq1uvbw-lQ_62.mp4	0.0	178.11868500709534	2.50839900970459
36	99.72370910644531	fix_post	2		12.0	34.0	2.5	/experiments/knapen_aot/videos/S_yt-oPq1uvbw-lQ_62.mp4	0.0	180.62708401679993	0.09993386268615723
37	99.82364296913147	fix_pre	0		37.0	35.0	2.5	/experiments/knapen_aot/videos/R_S_yt-1n1jTroiwJs_163.mp4	0.0	180.72701787948608	0.3082411289215088
37	100.12380504608154	response	0	2		35.0	2.5	/experiments/knapen_aot/videos/R_S_yt-1n1jTroiwJs_163.mp4	0.0	181.02717995643616	
37	100.13188409805298	movie	1		301.0	35.0	2.5	/experiments/knapen_aot/videos/R_S_yt-1n1jTroiwJs_163.mp4	0.0	181.0352590084076	2.5083930492401123
37	102.64027714729309	fix_post	2		12.0	35.0	2.5	/experiments/knapen_aot/videos/R_S_yt-1n1jTroiwJs_163.mp4	0.0	183.5436520576477	0.09999990463256836
38	102.74027705192566	fix_pre	0		15.0	36.0	2.5	/experiments/knapen_aot/videos/S_FK_U009_C004_SDR_20191220_SDR_2K_AVC.mp4	0.0	183.64365196228027	0.12501788139343262
38	102.8570909500122	response	0	2		36.0	2.5	/experiments/knapen_aot/videos/S_FK_U009_C004_SDR_20191220_SDR_2K_AVC.mp4	0.0	183.76046586036682	
38	102.86529493331909	movie	1		160.0	36.0	2.5	/experiments/knapen_aot/videos/S_FK_U009_C004_SDR_20191220_SDR_2K_AVC.mp4	0.0	183.7686698436737	2.5083210468292236
38	105.37361598014832	fix_post	2		12.0	36.0	2.5	/experiments/knapen_aot/videos/S_FK_U009_C004_SDR_20191220_SDR_2K_AVC.mp4	0.0	186.27699089050293	0.10004401206970215
39	105.47365999221802	fix_pre	0		28.0	37.0	2.5	/experiments/knapen_aot/videos/S_ILSVRC2015_train_00682003.mp4	0.0	186.37703490257263	0.2333071231842041
39	105.69876909255981	response	0	2		37.0	2.5	/experiments/knapen_aot/videos/S_ILSVRC2015_train_00682003.mp4	0.0	186.60214400291443	
39	105.70696711540222	movie	1		301.0	37.0	2.5	/experiments/knapen_aot/videos/S_ILSVRC2015_train_00682003.mp4	0.0	186.61034202575684	2.508251905441284
39	108.2152190208435	fix_post	2		12.0	37.0	2.5	/experiments/knapen_aot/videos/S_ILSVRC2015_train_00682003.mp4	0.0	189.11859393119812	0.10001707077026367
40	108.31523609161377	fix_pre	0		21.0	38.0	2.5	/experiments/knapen_aot/videos/S_yt-2LCHVTVwJ5E_235.mp4	0.0	189.21861100196838	0.17641305923461914
40	108.48210597038269	response	0	2		38.0	2.5	/experiments/knapen_aot/videos/S_yt-2LCHVTVwJ5E_235.mp4	0.0	189.3854808807373	
40	108.49164915084839	movie	1		301.0	38.0	2.5	/experiments/knapen_aot/videos/S_yt-2LCHVTVwJ5E_235.mp4	0.0	189.395024061203	2.5069258213043213
40	110.99857497215271	fix_post	2		12.0	38.0	2.5	/experiments/knapen_aot/videos/S_yt-2LCHVTVwJ5E_235.mp4	0.0	191.90194988250732	0.100067138671875
41	111.09864211082458	fix_pre	0		14.0	39.0	2.5	/experiments/knapen_aot/videos/R_S_yt-ejSzwn8tY8g_49.mp4	0.0	192.0020170211792	0.11663699150085449
41	111.20710706710815	response	0	2		39.0	2.5	/experiments/knapen_aot/videos/R_S_yt-ejSzwn8tY8g_49.mp4	0.0	192.11048197746277	
41	111.21527910232544	movie	1		301.0	39.0	2.5	/experiments/knapen_aot/videos/R_S_yt-ejSzwn8tY8g_49.mp4	0.0	192.11865401268005	2.508333921432495
41	113.72361302375793	fix_post	2		12.0	39.0	2.5	/experiments/knapen_aot/videos/R_S_yt-ejSzwn8tY8g_49.mp4	0.0	194.62698793411255	0.09999203681945801
42	113.82360506057739	fix_pre	0		21.0	40.0	2.5	/experiments/knapen_aot/videos/R_S_yt-kuzdrmHa-W0_39.mp4	0.0	194.726979970932	0.17493486404418945
42	113.9904351234436	response	0	2		40.0	2.5	/experiments/knapen_aot/videos/R_S_yt-kuzdrmHa-W0_39.mp4	0.0	194.89381003379822	
42	113.99853992462158	movie	1		300.0	40.0	2.5	/experiments/knapen_aot/videos/R_S_yt-kuzdrmHa-W0_39.mp4	0.0	194.9019148349762	2.5084102153778076
42	116.50695013999939	fix_post	2		12.0	40.0	2.5	/experiments/knapen_aot/videos/R_S_yt-kuzdrmHa-W0_39.mp4	0.0	197.410325050354	0.09997296333312988
43	116.60692310333252	fix_pre	0		11.0	41.0	2.5	/experiments/knapen_aot/videos/S_yt-r4st6Mt4EE8_85.mp4	0.0	197.51029801368713	0.09296798706054688
43	116.69060707092285	response	0	2		41.0	2.5	/experiments/knapen_aot/videos/S_yt-r4st6Mt4EE8_85.mp4	0.0	197.59398198127747	
43	116.69989109039307	movie	1		301.0	41.0	2.5	/experiments/knapen_aot/videos/S_yt-r4st6Mt4EE8_85.mp4	0.0	197.60326600074768	2.506976842880249
43	119.20686793327332	fix_post	2		12.0	41.0	2.5	/experiments/knapen_aot/videos/S_yt-r4st6Mt4EE8_85.mp4	0.0	200.11024284362793	0.1000370979309082
44	119.30690503120422	fix_pre	0		20.0	42.0	2.5	blank	1.0	200.21027994155884	0.16660499572753906
44	119.4653480052948	response	0	2		42.0	2.5	blank	1.0	200.3687229156494	
44	119.47351002693176	movie	1		301.0	42.0	2.5	blank	1.0	200.37688493728638	2.5083389282226562
44	121.98184895515442	fix_post	2		12.0	42.0	2.5	blank	1.0	202.88522386550903	0.10000014305114746
45	122.08184909820557	fix_pre	0		24.0	43.0	2.5	/experiments/knapen_aot/videos/S_yt-2i53vKte7SA_117.mp4	0.0	202.98522400856018	0.20000195503234863
45	122.26609206199646	response	0	2		43.0	2.5	/experiments/knapen_aot/videos/S_yt-2i53vKte7SA_117.mp4	0.0	203.16946697235107	
45	122.28185105323792	movie	1		301.0	43.0	2.5	/experiments/knapen_aot/videos/S_yt-2i53vKte7SA_117.mp4	0.0	203.18522596359253	2.5083580017089844
45	124.7902090549469	fix_post	2		12.0	43.0	2.5	/experiments/knapen_aot/videos/S_yt-2i53vKte7SA_117.mp4	0.0	205.6935839653015	0.10000991821289062
46	124.89021897315979	fix_pre	0		3.0	44.0	2.5	/experiments/knapen_aot/videos/S_ILSVRC2015_train_00697001.mp4	0.0	205.7935938835144	0.02498602867126465
46	124.90705609321594	response	0	2		44.0	2.5	/experiments/knapen_aot/videos/S_ILSVRC2015_train_00697001.mp4	0.0	205.81043100357056	
46	124.91520500183105	movie	1		301.0	44.0	2.5	/experiments/knapen_aot/videos/S_ILSVRC2015_train_00697001.mp4	0.0	205.81857991218567	2.508319139480591
46	127.42352414131165	fix_post	2		12.0	44.0	2.5	/experiments/knapen_aot/videos/S_ILSVRC2015_train_00697001.mp4	0.0	208.32689905166626	0.09995579719543457
47	127.52347993850708	fix_pre	0		6.0	45.0	2.5	/experiments/knapen_aot/videos/R_S_yt-3eQHOLBzOqA_100.mp4	0.0	208.4268548488617	0.05134701728820801
47	127.5578019618988	response	0	2		45.0	2.5	/experiments/knapen_aot/videos/R_S_yt-3eQHOLBzOqA_100.mp4	0.0	208.46117687225342	
47	127.57482695579529	movie	1		301.0	45.0	2.5	/experiments/knapen_aot/videos/R_S_yt-3eQHOLBzOqA_100.mp4	0.0	208.4782018661499	2.5070621967315674
47	130.08188915252686	fix_post	2		12.0	45.0	2.5	/experiments/knapen_aot/videos/R_S_yt-3eQHOLBzOqA_100.mp4	0.0	210.98526406288147	0.10002899169921875
48	130.18191814422607	fix_pre	0		22.0	46.0	2.5	/experiments/knapen_aot/videos/R_S_production_ID_3967181.mp4	0.0	211.0852930545807	0.1845088005065918
48	130.3569929599762	response	0	2		46.0	2.5	/experiments/knapen_aot/videos/R_S_production_ID_3967181.mp4	0.0	211.2603678703308	
48	130.36642694473267	movie	1		183.0	46.0	2.5	/experiments/knapen_aot/videos/R_S_production_ID_3967181.mp4	0.0	211.26980185508728	2.5070691108703613
48	132.87349605560303	fix_post	2		12.0	46.0	2.5	/experiments/knapen_aot/videos/R_S_production_ID_3967181.mp4	0.0	213.77687096595764	0.10002493858337402
49	132.9735209941864	fix_pre	0		7.0	47.0	2.5	/experiments/knapen_aot/videos/R_S_yt-0bovQBIUZho_15.mp4	0.0	213.87689590454102	0.05959510803222656
49	133.02367901802063	response	0	2		47.0	2.5	/experiments/knapen_aot/videos/R_S_yt-0bovQBIUZho_15.mp4	0.0	213.92705392837524	
49	133.03311610221863	movie	1		301.0	47.0	2.5	/experiments/knapen_aot/videos/R_S_yt-0bovQBIUZho_15.mp4	0.0	213.93649101257324	2.5070929527282715
49	135.5402090549469	fix_post	2		12.0	47.0	2.5	/experiments/knapen_aot/videos/R_S_yt-0bovQBIUZho_15.mp4	0.0	216.4435839653015	0.09995603561401367
50	135.6401650905609	fix_pre	0		17.0	48.0	2.5	blank	1.0	216.54354000091553	0.14171290397644043
50	135.7735869884491	response	0	2		48.0	2.5	blank	1.0	216.6769618988037	
50	135.78187799453735	movie	1		301.0	48.0	2.5	blank	1.0	216.68525290489197	2.5082759857177734
50	138.29015398025513	fix_post	2		12.0	48.0	2.5	blank	1.0	219.19352889060974	0.09991312026977539
51	138.3900671005249	fix_pre	0		26.0	49.0	2.5	/experiments/knapen_aot/videos/R_S_yt-xlHdGsXVZFU_83.mp4	0.0	219.29344201087952	0.21667885780334473
51	138.59866309165955	response	0	2		49.0	2.5	/experiments/knapen_aot/videos/R_S_yt-xlHdGsXVZFU_83.mp4	0.0	219.50203800201416	
51	138.60674595832825	movie	1		301.0	49.0	2.5	/experiments/knapen_aot/videos/R_S_yt-xlHdGsXVZFU_83.mp4	0.0	219.51012086868286	2.508341073989868
51	140.62685203552246	response	1	2		49.0	2.5	/experiments/knapen_aot/videos/R_S_yt-xlHdGsXVZFU_83.mp4	0.0	221.53022694587708	
51	141.11508703231812	fix_post	2		12.0	49.0	2.5	/experiments/knapen_aot/videos/R_S_yt-xlHdGsXVZFU_83.mp4	0.0	222.01846194267273	0.1000521183013916
52	141.2151391506195	fix_pre	0		2.0	50.0	2.5	/experiments/knapen_aot/videos/R_S_yt-JkKOG9Fxykc_94.mp4	0.0	222.11851406097412	0.01668095588684082
52	141.2236020565033	response	0	2		50.0	2.5	/experiments/knapen_aot/videos/R_S_yt-JkKOG9Fxykc_94.mp4	0.0	222.1269769668579	
52	141.23182010650635	movie	1		301.0	50.0	2.5	/experiments/knapen_aot/videos/R_S_yt-JkKOG9Fxykc_94.mp4	0.0	222.13519501686096	2.508265972137451
52	143.7400860786438	fix_post	2		12.0	50.0	2.5	/experiments/knapen_aot/videos/R_S_yt-JkKOG9Fxykc_94.mp4	0.0	224.6434609889984	0.10001587867736816
53	143.84010195732117	fix_pre	0		12.0	51.0	2.5	/experiments/knapen_aot/videos/S_JApTAOdfunE_1251.mp4	0.0	224.74347686767578	0.09993314743041992
53	143.93194103240967	response	0	2		51.0	2.5	/experiments/knapen_aot/videos/S_JApTAOdfunE_1251.mp4	0.0	224.83531594276428	
53	143.9400351047516	movie	1		301.0	51.0	2.5	/experiments/knapen_aot/videos/S_JApTAOdfunE_1251.mp4	0.0	224.8434100151062	2.5083909034729004
53	146.4484260082245	fix_post	2		12.0	51.0	2.5	/experiments/knapen_aot/videos/S_JApTAOdfunE_1251.mp4	0.0	227.3518009185791	0.10005307197570801
54	146.5484790802002	fix_pre	0		23.0	52.0	2.5	/experiments/knapen_aot/videos/R_S_ILSVRC2015_train_00404000.mp4	0.0	227.4518539905548	0.1928269863128662
54	146.7318630218506	response	0	2		52.0	2.5	/experiments/knapen_aot/videos/R_S_ILSVRC2015_train_00404000.mp4	0.0	227.6352379322052	
54	146.74130606651306	movie	1		301.0	52.0	2.5	/experiments/knapen_aot/videos/R_S_ILSVRC2015_train_00404000.mp4	0.0	227.64468097686768	2.5071499347686768
54	149.24845600128174	fix_post	2		12.0	52.0	2.5	/experiments/knapen_aot/videos/R_S_ILSVRC2015_train_00404000.mp4	0.0	230.15183091163635	0.09997701644897461
55	149.3484330177307	fix_pre	0		7.0	53.0	2.5	/experiments/knapen_aot/videos/R_S_production_ID_4101307.mp4	0.0	230.25180792808533	0.05956101417541504
55	149.39216208457947	response	0	2		53.0	2.5	/experiments/knapen_aot/videos/R_S_production_ID_4101307.mp4	0.0	230.29553699493408	
55	149.40799403190613	movie	1		192.0	53.0	2.5	/experiments/knapen_aot/videos/R_S_production_ID_4101307.mp4	0.0	230.31136894226074	2.5070741176605225
55	151.91506814956665	fix_post	2		12.0	53.0	2.5	/experiments/knapen_aot/videos/R_S_production_ID_4101307.mp4	0.0	232.81844305992126	0.10010480880737305
56	152.01517295837402	fix_pre	0		1.0	54.0	2.5	/experiments/knapen_aot/videos/R_S_production_ID_3761571.mp4	0.0	232.91854786872864	0.01079416275024414
56	152.01679801940918	response	0	2		54.0	2.5	/experiments/knapen_aot/videos/R_S_production_ID_3761571.mp4	0.0	232.9201729297638	
56	152.02596712112427	movie	1		166.0	54.0	2.5	/experiments/knapen_aot/videos/R_S_production_ID_3761571.mp4	0.0	232.92934203147888	2.5057568550109863
56	154.53172397613525	fix_post	2		12.0	54.0	2.5	/experiments/knapen_aot/videos/R_S_production_ID_3761571.mp4	0.0	235.43509888648987	0.10006594657897949
57	154.63178992271423	fix_pre	0		24.0	55.0	2.5	blank	1.0	235.53516483306885	0.19997715950012207
57	154.82356810569763	response	0	2		55.0	2.5	blank	1.0	235.72694301605225	
57	154.83176708221436	movie	1		301.0	55.0	2.5	blank	1.0	235.73514199256897	2.5083348751068115
57	157.34010195732117	fix_post	2		12.0	55.0	2.5	blank	1.0	238.24347686767578	0.09996914863586426
58	157.44007110595703	fix_pre	0		30.0	56.0	2.5	/experiments/knapen_aot/videos/R_S_m-aeoYPMqfg_185.mp4	0.0	238.34344601631165	0.24994492530822754
58	157.6818130016327	response	0	2		56.0	2.5	/experiments/knapen_aot/videos/R_S_m-aeoYPMqfg_185.mp4	0.0	238.5851879119873	
58	157.69001603126526	movie	1		301.0	56.0	2.5	/experiments/knapen_aot/videos/R_S_m-aeoYPMqfg_185.mp4	0.0	238.59339094161987	2.5084080696105957
58	160.19842410087585	fix_post	2		12.0	56.0	2.5	/experiments/knapen_aot/videos/R_S_m-aeoYPMqfg_185.mp4	0.0	241.10179901123047	0.09989404678344727
59	160.2983181476593	fix_pre	0		25.0	57.0	2.5	/experiments/knapen_aot/videos/R_S_yt-r4st6Mt4EE8_85.mp4	0.0	241.20169305801392	0.20838594436645508
59	160.49848699569702	response	0	2		57.0	2.5	/experiments/knapen_aot/videos/R_S_yt-r4st6Mt4EE8_85.mp4	0.0	241.40186190605164	
59	160.50670409202576	movie	1		301.0	57.0	2.5	/experiments/knapen_aot/videos/R_S_yt-r4st6Mt4EE8_85.mp4	0.0	241.41007900238037	2.508327007293701
59	163.01503109931946	fix_post	2		12.0	57.0	2.5	/experiments/knapen_aot/videos/R_S_yt-r4st6Mt4EE8_85.mp4	0.0	243.91840600967407	0.10004901885986328
60	163.11508011817932	fix_pre	0		17.0	58.0	2.5	/experiments/knapen_aot/videos/S_yt-1n1jTroiwJs_163.mp4	0.0	244.01845502853394	0.14165997505187988
60	163.24846196174622	response	0	2		58.0	2.5	/experiments/knapen_aot/videos/S_yt-1n1jTroiwJs_163.mp4	0.0	244.15183687210083	
60	163.2567400932312	movie	1		300.0	58.0	2.5	/experiments/knapen_aot/videos/S_yt-1n1jTroiwJs_163.mp4	0.0	244.16011500358582	2.508296012878418
60	165.76503610610962	fix_post	2		12.0	58.0	2.5	/experiments/knapen_aot/videos/S_yt-1n1jTroiwJs_163.mp4	0.0	246.66841101646423	0.10002398490905762
61	165.86506009101868	fix_pre	0		24.0	59.0	2.5	/experiments/knapen_aot/videos/R_S_yt-jQrMcUCmAaM_44.mp4	0.0	246.7684350013733	0.20003199577331543
61	166.05675601959229	response	0	2		59.0	2.5	/experiments/knapen_aot/videos/R_S_yt-jQrMcUCmAaM_44.mp4	0.0	246.9601309299469	
61	166.065092086792	movie	1		301.0	59.0	2.5	/experiments/knapen_aot/videos/R_S_yt-jQrMcUCmAaM_44.mp4	0.0	246.9684669971466	2.5082669258117676
61	168.57335901260376	fix_post	2		12.0	59.0	2.5	/experiments/knapen_aot/videos/R_S_yt-jQrMcUCmAaM_44.mp4	0.0	249.47673392295837	0.10002708435058594
62	168.67338609695435	fix_pre	0		17.0	60.0	2.5	/experiments/knapen_aot/videos/S_yt-eLQydFSMGCU_75.mp4	0.0	249.57676100730896	0.1415879726409912
62	168.80687713623047	response	0	2		60.0	2.5	/experiments/knapen_aot/videos/S_yt-eLQydFSMGCU_75.mp4	0.0	249.71025204658508	
62	168.81497406959534	movie	1		301.0	60.0	2.5	/experiments/knapen_aot/videos/S_yt-eLQydFSMGCU_75.mp4	0.0	249.71834897994995	2.508441925048828
62	171.32341599464417	fix_post	2		12.0	60.0	2.5	/experiments/knapen_aot/videos/S_yt-eLQydFSMGCU_75.mp4	0.0	252.22679090499878	0.0999600887298584
63	171.42337608337402	fix_pre	0		23.0	61.0	2.5	/experiments/knapen_aot/videos/S_yt-Xegmd8whqBs_230.mp4	0.0	252.32675099372864	0.1926419734954834
63	171.60682797431946	response	0	2		61.0	2.5	/experiments/knapen_aot/videos/S_yt-Xegmd8whqBs_230.mp4	0.0	252.51020288467407	
63	171.6160180568695	movie	1		301.0	61.0	2.5	/experiments/knapen_aot/videos/S_yt-Xegmd8whqBs_230.mp4	0.0	252.51939296722412	2.5073020458221436
63	174.12332010269165	fix_post	2		12.0	61.0	2.5	/experiments/knapen_aot/videos/S_yt-Xegmd8whqBs_230.mp4	0.0	255.02669501304626	0.09998583793640137
64	174.22330594062805	fix_pre	0		13.0	62.0	2.5	/experiments/knapen_aot/videos/R_S_yt-ejSzwn8tY8g_49.mp4	0.0	255.12668085098267	0.10830211639404297
64	174.3234441280365	response	0	2		62.0	2.5	/experiments/knapen_aot/videos/R_S_yt-ejSzwn8tY8g_49.mp4	0.0	255.2268190383911	
64	174.3316080570221	movie	1		301.0	62.0	2.5	/experiments/knapen_aot/videos/R_S_yt-ejSzwn8tY8g_49.mp4	0.0	255.2349829673767	2.508404016494751
64	176.84001207351685	fix_post	2		12.0	62.0	2.5	/experiments/knapen_aot/videos/R_S_yt-ejSzwn8tY8g_49.mp4	0.0	257.74338698387146	0.1000058650970459
65	176.9400179386139	fix_pre	0		12.0	63.0	2.5	blank	1.0	257.8433928489685	0.09995698928833008
65	177.0317919254303	response	0	2		63.0	2.5	blank	1.0	257.9351668357849	
65	177.03997492790222	movie	1		301.0	63.0	2.5	blank	1.0	257.94334983825684	2.508268117904663
65	179.54824304580688	fix_post	2		12.0	63.0	2.5	blank	1.0	260.4516179561615	0.10002303123474121
66	179.64826607704163	fix_pre	0		25.0	64.0	2.5	/experiments/knapen_aot/videos/S_ILSVRC2015_train_00594000.mp4	0.0	260.55164098739624	0.20829391479492188
66	179.84839391708374	response	0	2		64.0	2.5	/experiments/knapen_aot/videos/S_ILSVRC2015_train_00594000.mp4	0.0	260.75176882743835	
66	179.85655999183655	movie	1		301.0	64.0	2.5	/experiments/knapen_aot/videos/S_ILSVRC2015_train_00594000.mp4	0.0	260.75993490219116	2.5083091259002686
66	182.36486911773682	fix_post	2		12.0	64.0	2.5	/experiments/knapen_aot/videos/S_ILSVRC2015_train_00594000.mp4	0.0	263.26824402809143	0.10010886192321777
67	182.46497797966003	fix_pre	0		12.0	65.0	2.5	/experiments/knapen_aot/videos/S_yt-dqcUJzNOzbM_156.mp4	0.0	263.36835289001465	0.09996294975280762
67	182.5567901134491	response	0	2		65.0	2.5	/experiments/knapen_aot/videos/S_yt-dqcUJzNOzbM_156.mp4	0.0	263.4601650238037	
67	182.56494092941284	movie	1		301.0	65.0	2.5	/experiments/knapen_aot/videos/S_yt-dqcUJzNOzbM_156.mp4	0.0	263.46831583976746	2.5083131790161133
67	185.07325410842896	fix_post	2		12.0	65.0	2.5	/experiments/knapen_aot/videos/S_yt-dqcUJzNOzbM_156.mp4	0.0	265.97662901878357	0.10006093978881836
68	185.17331504821777	fix_pre	0		13.0	66.0	2.5	/experiments/knapen_aot/videos/R_S_yt-JkKOG9Fxykc_94.mp4	0.0	266.0766899585724	0.10923910140991211
68	185.27335500717163	response	0	2		66.0	2.5	/experiments/knapen_aot/videos/R_S_yt-JkKOG9Fxykc_94.mp4	0.0	266.17672991752625	
68	185.28255414962769	movie	1		301.0	66.0	2.5	/experiments/knapen_aot/videos/R_S_yt-JkKOG9Fxykc_94.mp4	0.0	266.1859290599823	2.5073068141937256
68	187.7898609638214	fix_post	2		12.0	66.0	2.5	/experiments/knapen_aot/videos/R_S_yt-JkKOG9Fxykc_94.mp4	0.0	268.693235874176	0.10008001327514648
69	187.88994097709656	fix_pre	0		36.0	67.0	2.5	/experiments/knapen_aot/videos/R_S_yt-w_C-15eJeCQ_191.mp4	0.0	268.7933158874512	0.3000049591064453
69	188.18169903755188	response	0	2		67.0	2.5	/experiments/knapen_aot/videos/R_S_yt-w_C-15eJeCQ_191.mp4	0.0	269.0850739479065	
69	188.189945936203	movie	1		298.0	67.0	2.5	/experiments/knapen_aot/videos/R_S_yt-w_C-15eJeCQ_191.mp4	0.0	269.0933208465576	2.508371114730835
69	190.44326400756836	response	1	2		67.0	2.5	/experiments/knapen_aot/videos/R_S_yt-w_C-15eJeCQ_191.mp4	0.0	271.346638917923	
69	190.69831705093384	fix_post	2		12.0	67.0	2.5	/experiments/knapen_aot/videos/R_S_yt-w_C-15eJeCQ_191.mp4	0.0	271.60169196128845	0.09998893737792969
70	190.79830598831177	fix_pre	0		30.0	68.0	2.5	blank	1.0	271.7016808986664	0.2499980926513672
70	191.04010200500488	response	0	2		68.0	2.5	blank	1.0	271.9434769153595	
70	191.04830408096313	movie	1		301.0	68.0	2.5	blank	1.0	271.95167899131775	2.5083138942718506
70	193.55661797523499	fix_post	2		12.0	68.0	2.5	blank	1.0	274.4599928855896	0.1000211238861084
71	193.6566390991211	fix_pre	0		12.0	69.0	2.5	/experiments/knapen_aot/videos/R_S_yt-Y3pi1bgUwIg_78.mp4	0.0	274.5600140094757	0.0999448299407959
71	193.74844098091125	response	0	2		69.0	2.5	/experiments/knapen_aot/videos/R_S_yt-Y3pi1bgUwIg_78.mp4	0.0	274.65181589126587	
71	193.7565839290619	movie	1		301.0	69.0	2.5	/experiments/knapen_aot/videos/R_S_yt-Y3pi1bgUwIg_78.mp4	0.0	274.6599588394165	2.508350133895874
71	196.26493406295776	fix_post	2		12.0	69.0	2.5	/experiments/knapen_aot/videos/R_S_yt-Y3pi1bgUwIg_78.mp4	0.0	277.1683089733124	0.09999704360961914
72	196.36493110656738	fix_pre	0		34.0	70.0	2.5	/experiments/knapen_aot/videos/S_BO_A018_C029_SDR_20190812_SDR_2K_AVC.mp4	0.0	277.268306016922	0.28339385986328125
72	196.6400909423828	response	0	2		70.0	2.5	/experiments/knapen_aot/videos/S_BO_A018_C029_SDR_20190812_SDR_2K_AVC.mp4	0.0	277.5434658527374	
72	196.64832496643066	movie	1		168.0	70.0	2.5	/experiments/knapen_aot/videos/S_BO_A018_C029_SDR_20190812_SDR_2K_AVC.mp4	0.0	277.5516998767853	2.5082130432128906
72	199.15653800964355	fix_post	2		12.0	70.0	2.5	/experiments/knapen_aot/videos/S_BO_A018_C029_SDR_20190812_SDR_2K_AVC.mp4	0.0	280.05991291999817	0.1000070571899414
73	199.2565450668335	fix_pre	0		17.0	71.0	2.5	/experiments/knapen_aot/videos/R_S_yt-VrEuTDQxtD0_226.mp4	0.0	280.1599199771881	0.14177489280700684
73	199.3900101184845	response	0	2		71.0	2.5	/experiments/knapen_aot/videos/R_S_yt-VrEuTDQxtD0_226.mp4	0.0	280.2933850288391	
73	199.3983199596405	movie	1		301.0	71.0	2.5	/experiments/knapen_aot/videos/R_S_yt-VrEuTDQxtD0_226.mp4	0.0	280.3016948699951	2.5082759857177734
73	201.90659594535828	fix_post	2		12.0	71.0	2.5	/experiments/knapen_aot/videos/R_S_yt-VrEuTDQxtD0_226.mp4	0.0	282.8099708557129	0.09997200965881348
74	202.0065679550171	fix_pre	0		44.0	72.0	2.5	/experiments/knapen_aot/videos/R_S_yt-9mWz93En7Gw_97.mp4	0.0	282.9099428653717	0.36663103103637695
74	202.36503410339355	response	0	2		72.0	2.5	/experiments/knapen_aot/videos/R_S_yt-9mWz93En7Gw_97.mp4	0.0	283.26840901374817	
74	202.37319898605347	movie	1		301.0	72.0	2.5	/experiments/knapen_aot/videos/R_S_yt-9mWz93En7Gw_97.mp4	0.0	283.2765738964081	2.5083301067352295
74	204.8815290927887	fix_post	2		12.0	72.0	2.5	/experiments/knapen_aot/videos/R_S_yt-9mWz93En7Gw_97.mp4	0.0	285.7849040031433	0.1000528335571289
75	204.98158192634583	fix_pre	0		13.0	73.0	2.5	/experiments/knapen_aot/videos/R_S_FK_U009_C004_SDR_20191220_SDR_2K_AVC.mp4	0.0	285.88495683670044	0.10830903053283691
75	205.0816740989685	response	0	2		73.0	2.5	/experiments/knapen_aot/videos/R_S_FK_U009_C004_SDR_20191220_SDR_2K_AVC.mp4	0.0	285.9850490093231	
75	205.08989095687866	movie	1		165.0	73.0	2.5	/experiments/knapen_aot/videos/R_S_FK_U009_C004_SDR_20191220_SDR_2K_AVC.mp4	0.0	285.9932658672333	2.508315086364746
75	207.5982060432434	fix_post	2		12.0	73.0	2.5	/experiments/knapen_aot/videos/R_S_FK_U009_C004_SDR_20191220_SDR_2K_AVC.mp4	0.0	288.501580953598	0.10003089904785156
76	207.69823694229126	fix_pre	0		9.0	74.0	2.5	/experiments/knapen_aot/videos/S_yt-kuzdrmHa-W0_39.mp4	0.0	288.6016118526459	0.07502603530883789
76	207.7650430202484	response	0	2		74.0	2.5	/experiments/knapen_aot/videos/S_yt-kuzdrmHa-W0_39.mp4	0.0	288.668417930603	
76	207.7732629776001	movie	1		301.0	74.0	2.5	/experiments/knapen_aot/videos/S_yt-kuzdrmHa-W0_39.mp4	0.0	288.6766378879547	2.50827693939209
76	210.2815399169922	fix_post	2		12.0	74.0	2.5	/experiments/knapen_aot/videos/S_yt-kuzdrmHa-W0_39.mp4	0.0	291.1849148273468	0.0999751091003418
77	210.38151502609253	fix_pre	0		17.0	75.0	2.5	blank	1.0	291.28488993644714	0.14170598983764648
77	210.5149691104889	response	0	2		75.0	2.5	blank	1.0	291.4183440208435	
77	210.52322101593018	movie	1		301.0	75.0	2.5	blank	1.0	291.4265959262848	2.5083069801330566
77	213.03152799606323	fix_post	2		12.0	75.0	2.5	blank	1.0	293.93490290641785	0.09997010231018066
78	213.1314980983734	fix_pre	0		19.0	76.0	2.5	/experiments/knapen_aot/videos/S_yt-1n1jTroiwJs_163.mp4	0.0	294.034873008728	0.15825390815734863
78	213.281574010849	response	0	2		76.0	2.5	/experiments/knapen_aot/videos/S_yt-1n1jTroiwJs_163.mp4	0.0	294.1849489212036	
78	213.28975200653076	movie	1		301.0	76.0	2.5	/experiments/knapen_aot/videos/S_yt-1n1jTroiwJs_163.mp4	0.0	294.1931269168854	2.508366107940674
78	215.79811811447144	fix_post	2		12.0	76.0	2.5	/experiments/knapen_aot/videos/S_yt-1n1jTroiwJs_163.mp4	0.0	296.70149302482605	0.09998297691345215
79	215.8981010913849	fix_pre	0		7.0	77.0	2.5	/experiments/knapen_aot/videos/R_S_yt-kuzdrmHa-W0_39.mp4	0.0	296.8014760017395	0.05836606025695801
79	215.94824504852295	response	0	2		77.0	2.5	/experiments/knapen_aot/videos/R_S_yt-kuzdrmHa-W0_39.mp4	0.0	296.85161995887756	
79	215.95646715164185	movie	1		301.0	77.0	2.5	/experiments/knapen_aot/videos/R_S_yt-kuzdrmHa-W0_39.mp4	0.0	296.85984206199646	2.5082969665527344
79	218.46476411819458	fix_post	2		12.0	77.0	2.5	/experiments/knapen_aot/videos/R_S_yt-kuzdrmHa-W0_39.mp4	0.0	299.3681390285492	0.09993600845336914
80	218.56470012664795	fix_pre	0		15.0	78.0	2.5	/experiments/knapen_aot/videos/R_S_yt-XtzmBXKYEWk_60.mp4	0.0	299.46807503700256	0.12507295608520508
80	218.68159103393555	response	0	2		78.0	2.5	/experiments/knapen_aot/videos/R_S_yt-XtzmBXKYEWk_60.mp4	0.0	299.58496594429016	
80	218.68977308273315	movie	1		301.0	78.0	2.5	/experiments/knapen_aot/videos/R_S_yt-XtzmBXKYEWk_60.mp4	0.0	299.59314799308777	2.5083999633789062
80	221.19817304611206	fix_post	2		12.0	78.0	2.5	/experiments/knapen_aot/videos/R_S_yt-XtzmBXKYEWk_60.mp4	0.0	302.1015479564667	0.09995102882385254
81	221.2981240749359	fix_pre	0		11.0	79.0	2.5	/experiments/knapen_aot/videos/S_yt-CJeyOFsd3lg_80.mp4	0.0	302.2014989852905	0.09166598320007324
81	221.38162112236023	response	0	2		79.0	2.5	/experiments/knapen_aot/videos/S_yt-CJeyOFsd3lg_80.mp4	0.0	302.28499603271484	
81	221.389790058136	movie	1		301.0	79.0	2.5	/experiments/knapen_aot/videos/S_yt-CJeyOFsd3lg_80.mp4	0.0	302.2931649684906	2.5083489418029785
81	223.89813899993896	fix_post	2		12.0	79.0	2.5	/experiments/knapen_aot/videos/S_yt-CJeyOFsd3lg_80.mp4	0.0	304.8015139102936	0.10000300407409668
82	223.99814200401306	fix_pre	0		23.0	80.0	2.5	/experiments/knapen_aot/videos/R_S_yt-eLQydFSMGCU_75.mp4	0.0	304.9015169143677	0.19165802001953125
82	224.18167400360107	response	0	2		80.0	2.5	/experiments/knapen_aot/videos/R_S_yt-eLQydFSMGCU_75.mp4	0.0	305.0850489139557	
82	224.1898000240326	movie	1		301.0	80.0	2.5	/experiments/knapen_aot/videos/R_S_yt-eLQydFSMGCU_75.mp4	0.0	305.0931749343872	2.5082950592041016
82	226.6980950832367	fix_post	2		10.0	80.0	2.5	/experiments/knapen_aot/videos/R_S_yt-eLQydFSMGCU_75.mp4	0.0	307.6014699935913	0.10003399848937988
83	226.79812908172607	fix_pre	0		28.0	81.0	2.5	/experiments/knapen_aot/videos/S_yt-HRuCkU_kBoE_239.mp4	0.0	307.7015039920807	0.23405003547668457
83	227.0232539176941	response	0	2		81.0	2.5	/experiments/knapen_aot/videos/S_yt-HRuCkU_kBoE_239.mp4	0.0	307.9266288280487	
83	227.03217911720276	movie	1		301.0	81.0	2.5	/experiments/knapen_aot/videos/S_yt-HRuCkU_kBoE_239.mp4	0.0	307.9355540275574	2.5075809955596924
83	229.53976011276245	fix_post	2		12.0	81.0	2.5	/experiments/knapen_aot/videos/S_yt-HRuCkU_kBoE_239.mp4	0.0	310.44313502311707	0.10003495216369629
84	229.63979506492615	fix_pre	0		27.0	82.0	2.5	/experiments/knapen_aot/videos/S_b6-4.mp4	0.0	310.54316997528076	0.2257249355316162
84	229.8565571308136	response	0	2		82.0	2.5	/experiments/knapen_aot/videos/S_b6-4.mp4	0.0	310.7599320411682	
84	229.86552000045776	movie	1		166.0	82.0	2.5	/experiments/knapen_aot/videos/S_b6-4.mp4	0.0	310.7688949108124	2.5075600147247314
84	232.3730800151825	fix_post	2		12.0	82.0	2.5	/experiments/knapen_aot/videos/S_b6-4.mp4	0.0	313.2764549255371	0.09998512268066406
84	232.4649441242218	response	2	2		82.0	2.5	/experiments/knapen_aot/videos/S_b6-4.mp4	0.0	313.3683190345764	
85	232.47306513786316	fix_pre	0		61.0	83.0	2.5	blank	1.0	313.3764400482178	0.5083918571472168
85	232.97319102287292	response	0	2		83.0	2.5	blank	1.0	313.87656593322754	
85	232.98145699501038	movie	1		301.0	83.0	2.5	blank	1.0	313.884831905365	2.5083539485931396
85	235.48981094360352	fix_post	2		12.0	83.0	2.5	blank	1.0	316.39318585395813	0.09993600845336914
87	235.58974695205688	stim	0		235.0					316.4931218624115	1.9583160877227783
87	235.7565519809723	response	0	2						316.6599268913269	
87	237.5375120639801	response	0	space						318.4408869743347	
