trial_nr	onset	event_type	phase	response	nr_frames	movie_index	movie_duration	movie_file	blank	onset_abs	duration
0	0.16072297096252441	stim	0		200.0					120.94459891319275	1.6639430522918701
0	1.8164920806884766	response	0	space						122.6003680229187	
1	1.8246660232543945	stim	0		121.0					122.60854196548462	1.0083880424499512
1	2.283076047897339	response	0	space						123.06695199012756	
1	2.599804162979126	response	0	space						123.38368010520935	
1	2.8330540657043457	stim	1		120.0					123.61693000793457	0.9999799728393555
2	3.833034038543701	fix_pre	0		110.0	0.0	2.5	/experiments/knapen_aot/oldvideos/R_S_yt-2y6A9DJPsDU_65.mp4	0.0	124.61690998077393	0.9178171157836914
2	4.741440057754517	response	0	space		0.0	2.5	/experiments/knapen_aot/oldvideos/R_S_yt-2y6A9DJPsDU_65.mp4	0.0	125.52531599998474	
2	4.750851154327393	movie	1		300.0	0.0	2.5	/experiments/knapen_aot/oldvideos/R_S_yt-2y6A9DJPsDU_65.mp4	0.0	125.53472709655762	2.507143020629883
2	7.257994174957275	fix_post	2		12.0	0.0	2.5	/experiments/knapen_aot/oldvideos/R_S_yt-2y6A9DJPsDU_65.mp4	0.0	128.0418701171875	0.10012984275817871
3	7.358124017715454	fix_pre	0		49.0	1.0	2.5	/experiments/knapen_aot/oldvideos/S_yt-nYi_FfCjepk_74.mp4	0.0	128.14199995994568	0.4083099365234375
3	7.758310079574585	response	0	4		1.0	2.5	/experiments/knapen_aot/oldvideos/S_yt-nYi_FfCjepk_74.mp4	0.0	128.5421860218048	
3	7.766433954238892	movie	1		301.0	1.0	2.5	/experiments/knapen_aot/oldvideos/S_yt-nYi_FfCjepk_74.mp4	0.0	128.55030989646912	2.5082662105560303
3	10.274700164794922	fix_post	2		12.0	1.0	2.5	/experiments/knapen_aot/oldvideos/S_yt-nYi_FfCjepk_74.mp4	0.0	131.05857610702515	0.09988689422607422
4	10.374587059020996	fix_pre	0		41.0	2.0	2.5	/experiments/knapen_aot/oldvideos/R_S_ILSVRC2015_train_00323000.mp4	0.0	131.15846300125122	0.34166598320007324
4	10.708099126815796	response	0	4		2.0	2.5	/experiments/knapen_aot/oldvideos/R_S_ILSVRC2015_train_00323000.mp4	0.0	131.49197506904602	
4	10.71625304222107	movie	1		301.0	2.0	2.5	/experiments/knapen_aot/oldvideos/R_S_ILSVRC2015_train_00323000.mp4	0.0	131.5001289844513	2.508376121520996
4	13.224629163742065	fix_post	2		12.0	2.0	2.5	/experiments/knapen_aot/oldvideos/R_S_ILSVRC2015_train_00323000.mp4	0.0	134.0085051059723	0.10002994537353516
5	13.3246591091156	fix_pre	0		32.0	3.0	2.5	/experiments/knapen_aot/oldvideos/S_yt-Fdv-V--QlR0_117.mp4	0.0	134.10853505134583	0.2665870189666748
5	13.583055019378662	response	0	4		3.0	2.5	/experiments/knapen_aot/oldvideos/S_yt-Fdv-V--QlR0_117.mp4	0.0	134.3669309616089	
5	13.591246128082275	movie	1		301.0	3.0	2.5	/experiments/knapen_aot/oldvideos/S_yt-Fdv-V--QlR0_117.mp4	0.0	134.3751220703125	2.5084290504455566
5	16.099675178527832	fix_post	2		12.0	3.0	2.5	/experiments/knapen_aot/oldvideos/S_yt-Fdv-V--QlR0_117.mp4	0.0	136.88355112075806	0.09997296333312988
6	16.199648141860962	fix_pre	0		57.0	4.0	2.5	/experiments/knapen_aot/oldvideos/S_yt-W00vtWnXgIk_73.mp4	0.0	136.9835240840912	0.47496700286865234
6	16.666476011276245	response	0	4		4.0	2.5	/experiments/knapen_aot/oldvideos/S_yt-W00vtWnXgIk_73.mp4	0.0	137.45035195350647	
6	16.674615144729614	movie	1		301.0	4.0	2.5	/experiments/knapen_aot/oldvideos/S_yt-W00vtWnXgIk_73.mp4	0.0	137.45849108695984	2.508370876312256
6	19.18298602104187	fix_post	2		12.0	4.0	2.5	/experiments/knapen_aot/oldvideos/S_yt-W00vtWnXgIk_73.mp4	0.0	139.9668619632721	0.09980511665344238
7	19.282791137695312	fix_pre	0		48.0	5.0	2.5	/experiments/knapen_aot/oldvideos/R_S_bing-www_nbcnews_com_storyline_isis-terror_fall-isis-stronghold-raqqa-will-change-war-extremists-not-end-n808621_86.mp4	0.0	140.06666707992554	0.40015101432800293
7	19.667112112045288	response	0	4		5.0	2.5	/experiments/knapen_aot/oldvideos/R_S_bing-www_nbcnews_com_storyline_isis-terror_fall-isis-stronghold-raqqa-will-change-war-extremists-not-end-n808621_86.mp4	0.0	140.4509880542755	
7	19.682942152023315	movie	1		166.0	5.0	2.5	/experiments/knapen_aot/oldvideos/R_S_bing-www_nbcnews_com_storyline_isis-terror_fall-isis-stronghold-raqqa-will-change-war-extremists-not-end-n808621_86.mp4	0.0	140.46681809425354	2.5085928440093994
7	22.191534996032715	fix_post	2		12.0	5.0	2.5	/experiments/knapen_aot/oldvideos/R_S_bing-www_nbcnews_com_storyline_isis-terror_fall-isis-stronghold-raqqa-will-change-war-extremists-not-end-n808621_86.mp4	0.0	142.97541093826294	0.09975004196166992
8	22.291285037994385	fix_pre	0		37.0	6.0	2.5	blank	1.0	143.0751609802246	0.30831313133239746
8	22.591398000717163	response	0	4		6.0	2.5	blank	1.0	143.3752739429474	
8	22.599598169326782	movie	1		301.0	6.0	2.5	blank	1.0	143.383474111557	2.508413791656494
8	25.108011960983276	fix_post	2		12.0	6.0	2.5	blank	1.0	145.8918879032135	0.09993815422058105
9	25.207950115203857	fix_pre	0		23.0	7.0	2.5	/experiments/knapen_aot/oldvideos/R_S_yt-tneuR3EtSZE_72.mp4	0.0	145.99182605743408	0.19161486625671387
9	25.39134907722473	response	0	4		7.0	2.5	/experiments/knapen_aot/oldvideos/R_S_yt-tneuR3EtSZE_72.mp4	0.0	146.17522501945496	
9	25.39956498146057	movie	1		301.0	7.0	2.5	/experiments/knapen_aot/oldvideos/R_S_yt-tneuR3EtSZE_72.mp4	0.0	146.1834409236908	2.508368968963623
9	27.907933950424194	fix_post	2		12.0	7.0	2.5	/experiments/knapen_aot/oldvideos/R_S_yt-tneuR3EtSZE_72.mp4	0.0	148.69180989265442	0.10021305084228516
10	28.00814700126648	fix_pre	0		38.0	8.0	2.5	/experiments/knapen_aot/oldvideos/S_yt-4i1b6NQ9NKs_5.mp4	0.0	148.7920229434967	0.3163950443267822
10	28.316338062286377	response	0	4		8.0	2.5	/experiments/knapen_aot/oldvideos/S_yt-4i1b6NQ9NKs_5.mp4	0.0	149.1002140045166	
10	28.32454204559326	movie	1		301.0	8.0	2.5	/experiments/knapen_aot/oldvideos/S_yt-4i1b6NQ9NKs_5.mp4	0.0	149.1084179878235	2.508603096008301
10	30.833145141601562	fix_post	2		12.0	8.0	2.5	/experiments/knapen_aot/oldvideos/S_yt-4i1b6NQ9NKs_5.mp4	0.0	151.6170210838318	0.09974288940429688
11	30.93288803100586	fix_pre	0		14.0	9.0	2.5	/experiments/knapen_aot/oldvideos/S_flickr-reginahart-31964450591_23.mp4	0.0	151.71676397323608	0.11661195755004883
11	31.0414400100708	response	0	4		9.0	2.5	/experiments/knapen_aot/oldvideos/S_flickr-reginahart-31964450591_23.mp4	0.0	151.82531595230103	
11	31.049499988555908	movie	1		178.0	9.0	2.5	/experiments/knapen_aot/oldvideos/S_flickr-reginahart-31964450591_23.mp4	0.0	151.83337593078613	2.5084850788116455
11	33.557985067367554	fix_post	2		12.0	9.0	2.5	/experiments/knapen_aot/oldvideos/S_flickr-reginahart-31964450591_23.mp4	0.0	154.34186100959778	0.09990501403808594
12	33.65789008140564	fix_pre	0		44.0	10.0	2.5	/experiments/knapen_aot/oldvideos/S_yt-cjndulbUtRc_51.mp4	0.0	154.44176602363586	0.3666250705718994
12	34.00888514518738	response	0	4		10.0	2.5	/experiments/knapen_aot/oldvideos/S_yt-cjndulbUtRc_51.mp4	0.0	154.7927610874176	
12	34.02451515197754	movie	1		301.0	10.0	2.5	/experiments/knapen_aot/oldvideos/S_yt-cjndulbUtRc_51.mp4	0.0	154.80839109420776	2.5085887908935547
12	36.533103942871094	fix_post	2		12.0	10.0	2.5	/experiments/knapen_aot/oldvideos/S_yt-cjndulbUtRc_51.mp4	0.0	157.31697988510132	0.09975814819335938
13	36.63286209106445	fix_pre	0		20.0	11.0	2.5	/experiments/knapen_aot/oldvideos/R_S_production_ID_3735542.mp4	0.0	157.41673803329468	0.16663193702697754
13	36.791337966918945	response	0	4		11.0	2.5	/experiments/knapen_aot/oldvideos/R_S_production_ID_3735542.mp4	0.0	157.57521390914917	
13	36.79949402809143	movie	1		163.0	11.0	2.5	/experiments/knapen_aot/oldvideos/R_S_production_ID_3735542.mp4	0.0	157.58336997032166	2.5084080696105957
13	39.307902097702026	fix_post	2		12.0	11.0	2.5	/experiments/knapen_aot/oldvideos/R_S_production_ID_3735542.mp4	0.0	160.09177803993225	0.0999300479888916
14	39.40783214569092	fix_pre	0		42.0	12.0	2.5	/experiments/knapen_aot/oldvideos/S_yt-jy7rAnpu0u8_128.mp4	0.0	160.19170808792114	0.3500039577484131
14	39.749664068222046	response	0	4		12.0	2.5	/experiments/knapen_aot/oldvideos/S_yt-jy7rAnpu0u8_128.mp4	0.0	160.53354001045227	
14	39.75783610343933	movie	1		301.0	12.0	2.5	/experiments/knapen_aot/oldvideos/S_yt-jy7rAnpu0u8_128.mp4	0.0	160.54171204566956	2.5083069801330566
14	42.26614308357239	fix_post	2		12.0	12.0	2.5	/experiments/knapen_aot/oldvideos/S_yt-jy7rAnpu0u8_128.mp4	0.0	163.0500190258026	0.10012197494506836
15	42.366265058517456	fix_pre	0		59.0	13.0	2.5	blank	1.0	163.15014100074768	0.49156999588012695
15	42.84967517852783	response	0	4		13.0	2.5	blank	1.0	163.63355112075806	
15	42.85783505439758	movie	1		301.0	13.0	2.5	blank	1.0	163.6417109966278	2.508539915084839
15	45.36637496948242	fix_post	2		12.0	13.0	2.5	blank	1.0	166.15025091171265	0.09981918334960938
16	45.46619415283203	fix_pre	0		156.0	14.0	2.5	/experiments/knapen_aot/oldvideos/R_S_wc-WgOBK5IL7vex_4.mp4	0.0	166.25007009506226	1.2999448776245117
16	46.75051498413086	response	0	4		14.0	2.5	/experiments/knapen_aot/oldvideos/R_S_wc-WgOBK5IL7vex_4.mp4	0.0	167.53439092636108	
16	46.76613903045654	movie	1		163.0	14.0	2.5	/experiments/knapen_aot/oldvideos/R_S_wc-WgOBK5IL7vex_4.mp4	0.0	167.55001497268677	2.5083770751953125
16	49.274516105651855	fix_post	2		12.0	14.0	2.5	/experiments/knapen_aot/oldvideos/R_S_wc-WgOBK5IL7vex_4.mp4	0.0	170.05839204788208	0.09999585151672363
17	49.37451195716858	fix_pre	0		70.0	15.0	2.5	/experiments/knapen_aot/oldvideos/R_S_ILSVRC2015_train_00469000.mp4	0.0	170.1583878993988	0.5858421325683594
17	49.949625968933105	response	0	4		15.0	2.5	/experiments/knapen_aot/oldvideos/R_S_ILSVRC2015_train_00469000.mp4	0.0	170.73350191116333	
17	49.96035408973694	movie	1		301.0	15.0	2.5	/experiments/knapen_aot/oldvideos/R_S_ILSVRC2015_train_00469000.mp4	0.0	170.74423003196716	2.5058209896087646
17	52.4661750793457	fix_post	2		12.0	15.0	2.5	/experiments/knapen_aot/oldvideos/R_S_ILSVRC2015_train_00469000.mp4	0.0	173.25005102157593	0.0999290943145752
18	52.56610417366028	fix_pre	0		36.0	16.0	2.5	/experiments/knapen_aot/oldvideos/R_S_yt-_BvMLZo0MG0_1226.mp4	0.0	173.3499801158905	0.29998779296875
18	52.85789608955383	response	0	4		16.0	2.5	/experiments/knapen_aot/oldvideos/R_S_yt-_BvMLZo0MG0_1226.mp4	0.0	173.64177203178406	
18	52.86609196662903	movie	1		301.0	16.0	2.5	/experiments/knapen_aot/oldvideos/R_S_yt-_BvMLZo0MG0_1226.mp4	0.0	173.64996790885925	2.508409023284912
18	55.37450098991394	fix_post	2		12.0	16.0	2.5	/experiments/knapen_aot/oldvideos/R_S_yt-_BvMLZo0MG0_1226.mp4	0.0	176.15837693214417	0.09999513626098633
19	55.47449612617493	fix_pre	0		31.0	17.0	2.5	/experiments/knapen_aot/oldvideos/S_ILSVRC2015_train_00479002.mp4	0.0	176.25837206840515	0.2582828998565674
19	55.724595069885254	response	0	4		17.0	2.5	/experiments/knapen_aot/oldvideos/S_ILSVRC2015_train_00479002.mp4	0.0	176.50847101211548	
19	55.732779026031494	movie	1		301.0	17.0	2.5	/experiments/knapen_aot/oldvideos/S_ILSVRC2015_train_00479002.mp4	0.0	176.51665496826172	2.5084569454193115
19	58.241235971450806	fix_post	2		12.0	17.0	2.5	/experiments/knapen_aot/oldvideos/S_ILSVRC2015_train_00479002.mp4	0.0	179.02511191368103	0.09997320175170898
20	58.341209173202515	fix_pre	0		35.0	18.0	2.5	/experiments/knapen_aot/oldvideos/R_S_Person_Going_Through_A_Bible.mp4	0.0	179.12508511543274	0.2915458679199219
20	58.62455701828003	response	0	4		18.0	2.5	/experiments/knapen_aot/oldvideos/R_S_Person_Going_Through_A_Bible.mp4	0.0	179.40843296051025	
20	58.63275504112244	movie	1		166.0	18.0	2.5	/experiments/knapen_aot/oldvideos/R_S_Person_Going_Through_A_Bible.mp4	0.0	179.41663098335266	2.508284091949463
20	61.1410391330719	fix_post	2		12.0	18.0	2.5	/experiments/knapen_aot/oldvideos/R_S_Person_Going_Through_A_Bible.mp4	0.0	181.92491507530212	0.10018801689147949
21	61.24122714996338	fix_pre	0		17.0	19.0	2.5	blank	1.0	182.0251030921936	0.14151692390441895
21	61.37450313568115	response	0	4		19.0	2.5	blank	1.0	182.15837907791138	
21	61.3827440738678	movie	1		301.0	19.0	2.5	blank	1.0	182.16662001609802	2.5083439350128174
21	63.891088008880615	fix_post	2		12.0	19.0	2.5	blank	1.0	184.67496395111084	0.0999760627746582
22	63.99106407165527	fix_pre	0		33.0	20.0	2.5	/experiments/knapen_aot/oldvideos/S_yt-a5TGHnldsKg_102.mp4	0.0	184.7749400138855	0.2750389575958252
22	64.25785207748413	response	0	4		20.0	2.5	/experiments/knapen_aot/oldvideos/S_yt-a5TGHnldsKg_102.mp4	0.0	185.04172801971436	
22	64.2661030292511	movie	1		301.0	20.0	2.5	/experiments/knapen_aot/oldvideos/S_yt-a5TGHnldsKg_102.mp4	0.0	185.04997897148132	2.5082881450653076
22	66.7743911743164	fix_post	2		12.0	20.0	2.5	/experiments/knapen_aot/oldvideos/S_yt-a5TGHnldsKg_102.mp4	0.0	187.55826711654663	0.09997677803039551
23	66.8743679523468	fix_pre	0		30.0	21.0	2.5	/experiments/knapen_aot/oldvideos/R_S_ILSVRC2015_train_00379000.mp4	0.0	187.65824389457703	0.2508091926574707
23	67.11612010002136	response	0	4		21.0	2.5	/experiments/knapen_aot/oldvideos/R_S_ILSVRC2015_train_00379000.mp4	0.0	187.8999960422516	
23	67.12517714500427	movie	1		301.0	21.0	2.5	/experiments/knapen_aot/oldvideos/R_S_ILSVRC2015_train_00379000.mp4	0.0	187.9090530872345	2.507619857788086
23	69.63279700279236	fix_post	2		12.0	21.0	2.5	/experiments/knapen_aot/oldvideos/R_S_ILSVRC2015_train_00379000.mp4	0.0	190.41667294502258	0.09989714622497559
24	69.73269414901733	fix_pre	0		12.0	22.0	2.5	/experiments/knapen_aot/oldvideos/S_ILSVRC2015_train_00545000.mp4	0.0	190.51657009124756	0.10081791877746582
24	69.82452607154846	response	0	4		22.0	2.5	/experiments/knapen_aot/oldvideos/S_ILSVRC2015_train_00545000.mp4	0.0	190.6084020137787	
24	69.8335120677948	movie	1		300.0	22.0	2.5	/experiments/knapen_aot/oldvideos/S_ILSVRC2015_train_00545000.mp4	0.0	190.61738801002502	2.507575035095215
24	72.34108710289001	fix_post	2		12.0	22.0	2.5	/experiments/knapen_aot/oldvideos/S_ILSVRC2015_train_00545000.mp4	0.0	193.12496304512024	0.1000208854675293
25	72.44110798835754	fix_pre	0		20.0	23.0	2.5	/experiments/knapen_aot/oldvideos/S_comp_A009_C001_010181A_v09_SDR_PS_FINAL_20180725_SDR_2K_AVC.mp4	0.0	193.22498393058777	0.1665651798248291
25	72.59945702552795	response	0	4		23.0	2.5	/experiments/knapen_aot/oldvideos/S_comp_A009_C001_010181A_v09_SDR_PS_FINAL_20180725_SDR_2K_AVC.mp4	0.0	193.38333296775818	
25	72.60767316818237	movie	1		165.0	23.0	2.5	/experiments/knapen_aot/oldvideos/S_comp_A009_C001_010181A_v09_SDR_PS_FINAL_20180725_SDR_2K_AVC.mp4	0.0	193.3915491104126	2.508401870727539
25	75.11607503890991	fix_post	2		12.0	23.0	2.5	/experiments/knapen_aot/oldvideos/S_comp_A009_C001_010181A_v09_SDR_PS_FINAL_20180725_SDR_2K_AVC.mp4	0.0	195.89995098114014	0.09996700286865234
26	75.21604204177856	fix_pre	0		19.0	24.0	2.5	/experiments/knapen_aot/oldvideos/R_S_yt-jy7rAnpu0u8_128.mp4	0.0	195.9999179840088	0.1591629981994629
26	75.36616516113281	response	0	4		24.0	2.5	/experiments/knapen_aot/oldvideos/R_S_yt-jy7rAnpu0u8_128.mp4	0.0	196.15004110336304	
26	75.37520503997803	movie	1		301.0	24.0	2.5	/experiments/knapen_aot/oldvideos/R_S_yt-jy7rAnpu0u8_128.mp4	0.0	196.15908098220825	2.5075600147247314
26	77.88276505470276	fix_post	2		12.0	24.0	2.5	/experiments/knapen_aot/oldvideos/R_S_yt-jy7rAnpu0u8_128.mp4	0.0	198.66664099693298	0.09996199607849121
27	77.98272705078125	fix_pre	0		33.0	25.0	2.5	/experiments/knapen_aot/oldvideos/S_yt-W00vtWnXgIk_73.mp4	0.0	198.76660299301147	0.2749791145324707
27	78.24944305419922	response	0	4		25.0	2.5	/experiments/knapen_aot/oldvideos/S_yt-W00vtWnXgIk_73.mp4	0.0	199.03331899642944	
27	78.25770616531372	movie	1		301.0	25.0	2.5	/experiments/knapen_aot/oldvideos/S_yt-W00vtWnXgIk_73.mp4	0.0	199.04158210754395	2.5083208084106445
27	80.76602697372437	fix_post	2		12.0	25.0	2.5	/experiments/knapen_aot/oldvideos/S_yt-W00vtWnXgIk_73.mp4	0.0	201.5499029159546	0.100006103515625
28	80.86603307723999	fix_pre	0		9.0	26.0	2.5	blank	1.0	201.64990901947021	0.07496905326843262
28	80.93272805213928	response	0	4		26.0	2.5	blank	1.0	201.7166039943695	
28	80.94100213050842	movie	1		301.0	26.0	2.5	blank	1.0	201.72487807273865	2.5083329677581787
28	83.4493350982666	fix_post	2		12.0	26.0	2.5	blank	1.0	204.23321104049683	0.10001492500305176
29	83.54935002326965	fix_pre	0		36.0	27.0	2.5	/experiments/knapen_aot/oldvideos/R_S_yt-_BvMLZo0MG0_1226.mp4	0.0	204.33322596549988	0.29998111724853516
29	83.84114003181458	response	0	4		27.0	2.5	/experiments/knapen_aot/oldvideos/R_S_yt-_BvMLZo0MG0_1226.mp4	0.0	204.6250159740448	
29	83.84933114051819	movie	1		301.0	27.0	2.5	/experiments/knapen_aot/oldvideos/R_S_yt-_BvMLZo0MG0_1226.mp4	0.0	204.6332070827484	2.5083868503570557
29	86.35771799087524	fix_post	2		12.0	27.0	2.5	/experiments/knapen_aot/oldvideos/R_S_yt-_BvMLZo0MG0_1226.mp4	0.0	207.14159393310547	0.10020208358764648
30	86.45792007446289	fix_pre	0		20.0	28.0	2.5	/experiments/knapen_aot/oldvideos/R_S_yt-DWsFRl5bXs8_23.mp4	0.0	207.24179601669312	0.16713190078735352
30	86.60852599143982	response	0	4		28.0	2.5	/experiments/knapen_aot/oldvideos/R_S_yt-DWsFRl5bXs8_23.mp4	0.0	207.39240193367004	
30	86.62505197525024	movie	1		301.0	28.0	2.5	/experiments/knapen_aot/oldvideos/R_S_yt-DWsFRl5bXs8_23.mp4	0.0	207.40892791748047	2.507519006729126
30	89.13257098197937	fix_post	2		12.0	28.0	2.5	/experiments/knapen_aot/oldvideos/R_S_yt-DWsFRl5bXs8_23.mp4	0.0	209.9164469242096	0.10007715225219727
31	89.23264813423157	fix_pre	0		30.0	29.0	2.5	/experiments/knapen_aot/oldvideos/R_S_comp_HK_H004_C001_PSNK_DENOISE_v14_SDR_PS_FINAL_20180731_SDR_2K_AVC.mp4	0.0	210.0165240764618	0.24992084503173828
31	89.47442817687988	response	0	4		29.0	2.5	/experiments/knapen_aot/oldvideos/R_S_comp_HK_H004_C001_PSNK_DENOISE_v14_SDR_PS_FINAL_20180731_SDR_2K_AVC.mp4	0.0	210.2583041191101	
31	89.4825689792633	movie	1		169.0	29.0	2.5	/experiments/knapen_aot/oldvideos/R_S_comp_HK_H004_C001_PSNK_DENOISE_v14_SDR_PS_FINAL_20180731_SDR_2K_AVC.mp4	0.0	210.26644492149353	2.5084521770477295
31	91.99102115631104	fix_post	2		12.0	29.0	2.5	/experiments/knapen_aot/oldvideos/R_S_comp_HK_H004_C001_PSNK_DENOISE_v14_SDR_PS_FINAL_20180731_SDR_2K_AVC.mp4	0.0	212.77489709854126	0.0999608039855957
32	92.09098196029663	fix_pre	0		10.0	30.0	2.5	/experiments/knapen_aot/oldvideos/R_S_production_ID_4325513.mp4	0.0	212.87485790252686	0.0832819938659668
32	92.15851712226868	response	0	4		30.0	2.5	/experiments/knapen_aot/oldvideos/R_S_production_ID_4325513.mp4	0.0	212.9423930644989	
32	92.1742639541626	movie	1		205.0	30.0	2.5	/experiments/knapen_aot/oldvideos/R_S_production_ID_4325513.mp4	0.0	212.95813989639282	2.5083820819854736
32	94.68264603614807	fix_post	2		12.0	30.0	2.5	/experiments/knapen_aot/oldvideos/R_S_production_ID_4325513.mp4	0.0	215.4665219783783	0.09993600845336914
33	94.78258204460144	fix_pre	0		51.0	31.0	2.5	/experiments/knapen_aot/oldvideos/S_bing-www_nbcnews_com_storyline_isis-terror_fall-isis-stronghold-raqqa-will-change-war-extremists-not-end-n808621_86.mp4	0.0	215.56645798683167	0.4257829189300537
33	95.19939613342285	response	0	4		31.0	2.5	/experiments/knapen_aot/oldvideos/S_bing-www_nbcnews_com_storyline_isis-terror_fall-isis-stronghold-raqqa-will-change-war-extremists-not-end-n808621_86.mp4	0.0	215.98327207565308	
33	95.2083649635315	movie	1		170.0	31.0	2.5	/experiments/knapen_aot/oldvideos/S_bing-www_nbcnews_com_storyline_isis-terror_fall-isis-stronghold-raqqa-will-change-war-extremists-not-end-n808621_86.mp4	0.0	215.99224090576172	2.5075271129608154
33	97.71589207649231	fix_post	2		12.0	31.0	2.5	/experiments/knapen_aot/oldvideos/S_bing-www_nbcnews_com_storyline_isis-terror_fall-isis-stronghold-raqqa-will-change-war-extremists-not-end-n808621_86.mp4	0.0	218.49976801872253	0.10008406639099121
34	97.8159761428833	fix_pre	0		21.0	32.0	2.5	/experiments/knapen_aot/oldvideos/S_yt-v9WGfC67DPk_50.mp4	0.0	218.59985208511353	0.1750178337097168
34	97.97507405281067	response	0	4		32.0	2.5	/experiments/knapen_aot/oldvideos/S_yt-v9WGfC67DPk_50.mp4	0.0	218.7589499950409	
34	97.99099397659302	movie	1		301.0	32.0	2.5	/experiments/knapen_aot/oldvideos/S_yt-v9WGfC67DPk_50.mp4	0.0	218.77486991882324	2.5082571506500244
34	100.49925112724304	fix_post	2		12.0	32.0	2.5	/experiments/knapen_aot/oldvideos/S_yt-v9WGfC67DPk_50.mp4	0.0	221.28312706947327	0.10011982917785645
35	100.5993709564209	fix_pre	0		55.0	33.0	2.5	blank	1.0	221.38324689865112	0.45815420150756836
35	101.04944396018982	response	0	4		33.0	2.5	blank	1.0	221.83331990242004	
35	101.05752515792847	movie	1		301.0	33.0	2.5	blank	1.0	221.8414011001587	2.508430004119873
35	103.56595516204834	fix_post	2		12.0	33.0	2.5	blank	1.0	224.34983110427856	0.10001492500305176
36	103.66597008705139	fix_pre	0		34.0	34.0	2.5	/experiments/knapen_aot/oldvideos/S_yt-MUfa26F8dfE_97.mp4	0.0	224.44984602928162	0.2832520008087158
36	103.94107794761658	response	0	4		34.0	2.5	/experiments/knapen_aot/oldvideos/S_yt-MUfa26F8dfE_97.mp4	0.0	224.7249538898468	
36	103.94922208786011	movie	1		301.0	34.0	2.5	/experiments/knapen_aot/oldvideos/S_yt-MUfa26F8dfE_97.mp4	0.0	224.73309803009033	2.5084118843078613
36	106.45763397216797	fix_post	2		12.0	34.0	2.5	/experiments/knapen_aot/oldvideos/S_yt-MUfa26F8dfE_97.mp4	0.0	227.2415099143982	0.09999299049377441
37	106.55762696266174	fix_pre	0		30.0	35.0	2.5	/experiments/knapen_aot/oldvideos/S_comp_LA_A008_C004_ALTB_ED_FROM_FLAME_RETIME_v46_SDR_PS_20180917_SDR_2K_AVC.mp4	0.0	227.34150290489197	0.24994516372680664
37	106.7994339466095	response	0	4		35.0	2.5	/experiments/knapen_aot/oldvideos/S_comp_LA_A008_C004_ALTB_ED_FROM_FLAME_RETIME_v46_SDR_PS_20180917_SDR_2K_AVC.mp4	0.0	227.58330988883972	
37	106.80757212638855	movie	1		169.0	35.0	2.5	/experiments/knapen_aot/oldvideos/S_comp_LA_A008_C004_ALTB_ED_FROM_FLAME_RETIME_v46_SDR_PS_20180917_SDR_2K_AVC.mp4	0.0	227.59144806861877	2.5083699226379395
37	109.31594204902649	fix_post	2		12.0	35.0	2.5	/experiments/knapen_aot/oldvideos/S_comp_LA_A008_C004_ALTB_ED_FROM_FLAME_RETIME_v46_SDR_PS_20180917_SDR_2K_AVC.mp4	0.0	230.0998179912567	0.09999990463256836
38	109.41594195365906	fix_pre	0		13.0	36.0	2.5	/experiments/knapen_aot/oldvideos/R_S_yt-Fdv-V--QlR0_117.mp4	0.0	230.19981789588928	0.10829806327819824
38	109.50855207443237	response	0	4		36.0	2.5	/experiments/knapen_aot/oldvideos/R_S_yt-Fdv-V--QlR0_117.mp4	0.0	230.2924280166626	
38	109.52424001693726	movie	1		301.0	36.0	2.5	/experiments/knapen_aot/oldvideos/R_S_yt-Fdv-V--QlR0_117.mp4	0.0	230.30811595916748	2.508310079574585
38	112.03255009651184	fix_post	2		12.0	36.0	2.5	/experiments/knapen_aot/oldvideos/R_S_yt-Fdv-V--QlR0_117.mp4	0.0	232.81642603874207	0.10003900527954102
39	112.13258910179138	fix_pre	0		174.0	37.0	2.5	/experiments/knapen_aot/oldvideos/R_S_pexels-laker-5793000.mp4	0.0	232.9164650440216	1.4505999088287354
39	113.56685996055603	response	0	4		37.0	2.5	/experiments/knapen_aot/oldvideos/R_S_pexels-laker-5793000.mp4	0.0	234.35073590278625	
39	113.58318901062012	movie	1		165.0	37.0	2.5	/experiments/knapen_aot/oldvideos/R_S_pexels-laker-5793000.mp4	0.0	234.36706495285034	2.507742166519165
39	116.09093117713928	fix_post	2		12.0	37.0	2.5	/experiments/knapen_aot/oldvideos/R_S_pexels-laker-5793000.mp4	0.0	236.8748071193695	0.10006594657897949
40	116.19099712371826	fix_pre	0		37.0	38.0	2.5	/experiments/knapen_aot/oldvideos/S_I005_C008_CROP_SDR_2K_AVC.mp4	0.0	236.9748730659485	0.30873894691467285
40	116.4910831451416	response	0	4		38.0	2.5	/experiments/knapen_aot/oldvideos/S_I005_C008_CROP_SDR_2K_AVC.mp4	0.0	237.27495908737183	
40	116.49973607063293	movie	1		170.0	38.0	2.5	/experiments/knapen_aot/oldvideos/S_I005_C008_CROP_SDR_2K_AVC.mp4	0.0	237.28361201286316	2.5077919960021973
40	119.00752806663513	fix_post	2		12.0	38.0	2.5	/experiments/knapen_aot/oldvideos/S_I005_C008_CROP_SDR_2K_AVC.mp4	0.0	239.79140400886536	0.10004806518554688
41	119.10757613182068	fix_pre	0		10.0	39.0	2.5	/experiments/knapen_aot/oldvideos/S_wc-7ugQ0V4lxYkJ_131.mp4	0.0	239.8914520740509	0.0832679271697998
41	119.18262505531311	response	0	4		39.0	2.5	/experiments/knapen_aot/oldvideos/S_wc-7ugQ0V4lxYkJ_131.mp4	0.0	239.96650099754333	
41	119.19084405899048	movie	1		301.0	39.0	2.5	/experiments/knapen_aot/oldvideos/S_wc-7ugQ0V4lxYkJ_131.mp4	0.0	239.9747200012207	2.508270025253296
41	121.69911408424377	fix_post	2		12.0	39.0	2.5	/experiments/knapen_aot/oldvideos/S_wc-7ugQ0V4lxYkJ_131.mp4	0.0	242.482990026474	0.10013604164123535
42	121.79925012588501	fix_pre	0		24.0	40.0	2.5	/experiments/knapen_aot/oldvideos/R_S_production_ID_5049072.mp4	0.0	242.58312606811523	0.20055484771728516
42	121.99093794822693	response	0	4		40.0	2.5	/experiments/knapen_aot/oldvideos/R_S_production_ID_5049072.mp4	0.0	242.77481389045715	
42	121.9998049736023	movie	1		164.0	40.0	2.5	/experiments/knapen_aot/oldvideos/R_S_production_ID_5049072.mp4	0.0	242.78368091583252	2.507688045501709
42	124.507493019104	fix_post	2		12.0	40.0	2.5	/experiments/knapen_aot/oldvideos/R_S_production_ID_5049072.mp4	0.0	245.29136896133423	0.09999799728393555
43	124.60749101638794	fix_pre	0		7.0	41.0	2.5	/experiments/knapen_aot/oldvideos/R_S_flickr-53807584@N00-5566422012_16.mp4	0.0	245.39136695861816	0.05891108512878418
43	124.65759110450745	response	0	4		41.0	2.5	/experiments/knapen_aot/oldvideos/R_S_flickr-53807584@N00-5566422012_16.mp4	0.0	245.44146704673767	
43	124.66640210151672	movie	1		301.0	41.0	2.5	/experiments/knapen_aot/oldvideos/R_S_flickr-53807584@N00-5566422012_16.mp4	0.0	245.45027804374695	2.5077929496765137
43	127.17419505119324	fix_post	2		12.0	41.0	2.5	/experiments/knapen_aot/oldvideos/R_S_flickr-53807584@N00-5566422012_16.mp4	0.0	247.95807099342346	0.10004711151123047
44	127.27424216270447	fix_pre	0		23.0	42.0	2.5	blank	1.0	248.0581181049347	0.191558837890625
44	127.45754194259644	response	0	4		42.0	2.5	blank	1.0	248.24141788482666	
44	127.46580100059509	movie	1		301.0	42.0	2.5	blank	1.0	248.24967694282532	2.5083370208740234
44	129.97413802146912	fix_post	2		12.0	42.0	2.5	blank	1.0	250.75801396369934	0.10031795501708984
45	130.0744559764862	fix_pre	0		174.0	43.0	2.5	/experiments/knapen_aot/oldvideos/R_S_yt-WrwPgZYBXlA_34.mp4	0.0	250.85833191871643	1.4496171474456787
45	131.5159661769867	response	0	4		43.0	2.5	/experiments/knapen_aot/oldvideos/R_S_yt-WrwPgZYBXlA_34.mp4	0.0	252.29984211921692	
45	131.52407312393188	movie	1		301.0	43.0	2.5	/experiments/knapen_aot/oldvideos/R_S_yt-WrwPgZYBXlA_34.mp4	0.0	252.3079490661621	2.5084409713745117
45	134.0325140953064	fix_post	2		12.0	43.0	2.5	/experiments/knapen_aot/oldvideos/R_S_yt-WrwPgZYBXlA_34.mp4	0.0	254.81639003753662	0.09995198249816895
46	134.13246607780457	fix_pre	0		38.0	44.0	2.5	/experiments/knapen_aot/oldvideos/R_S_yt-bH4nJibL4Jo_164.mp4	0.0	254.9163420200348	0.31662893295288086
46	134.44084000587463	response	0	4		44.0	2.5	/experiments/knapen_aot/oldvideos/R_S_yt-bH4nJibL4Jo_164.mp4	0.0	255.22471594810486	
46	134.44909501075745	movie	1		301.0	44.0	2.5	/experiments/knapen_aot/oldvideos/R_S_yt-bH4nJibL4Jo_164.mp4	0.0	255.23297095298767	2.5083670616149902
46	136.95746207237244	fix_post	2		12.0	44.0	2.5	/experiments/knapen_aot/oldvideos/R_S_yt-bH4nJibL4Jo_164.mp4	0.0	257.74133801460266	0.09997892379760742
47	137.05744099617004	fix_pre	0		23.0	45.0	2.5	/experiments/knapen_aot/oldvideos/R_S_pexels-anthony-shkraba-7569650.mp4	0.0	257.84131693840027	0.19215917587280273
47	137.23341298103333	response	0	4		45.0	2.5	/experiments/knapen_aot/oldvideos/R_S_pexels-anthony-shkraba-7569650.mp4	0.0	258.01728892326355	
47	137.24960017204285	movie	1		191.0	45.0	2.5	/experiments/knapen_aot/oldvideos/R_S_pexels-anthony-shkraba-7569650.mp4	0.0	258.03347611427307	2.5077638626098633
47	139.7573640346527	fix_post	2		12.0	45.0	2.5	/experiments/knapen_aot/oldvideos/R_S_pexels-anthony-shkraba-7569650.mp4	0.0	260.54123997688293	0.10005998611450195
48	139.8574240207672	fix_pre	0		18.0	46.0	2.5	/experiments/knapen_aot/oldvideos/R_S_production_ID_5049072.mp4	0.0	260.64129996299744	0.15000009536743164
48	139.9917130470276	response	0	4		46.0	2.5	/experiments/knapen_aot/oldvideos/R_S_production_ID_5049072.mp4	0.0	260.7755889892578	
48	140.00742411613464	movie	1		177.0	46.0	2.5	/experiments/knapen_aot/oldvideos/R_S_production_ID_5049072.mp4	0.0	260.79130005836487	2.5083329677581787
48	142.51575708389282	fix_post	2		12.0	46.0	2.5	/experiments/knapen_aot/oldvideos/R_S_production_ID_5049072.mp4	0.0	263.29963302612305	0.09999990463256836
49	142.6157569885254	fix_pre	0		12.0	47.0	2.5	/experiments/knapen_aot/oldvideos/R_S_yt-fCjjH_4i8Fg_115.mp4	0.0	263.3996329307556	0.09994196891784668
49	142.7001190185547	response	0	4		47.0	2.5	/experiments/knapen_aot/oldvideos/R_S_yt-fCjjH_4i8Fg_115.mp4	0.0	263.4839949607849	
49	142.71569895744324	movie	1		301.0	47.0	2.5	/experiments/knapen_aot/oldvideos/R_S_yt-fCjjH_4i8Fg_115.mp4	0.0	263.49957489967346	2.508371114730835
49	145.22407007217407	fix_post	2		12.0	47.0	2.5	/experiments/knapen_aot/oldvideos/R_S_yt-fCjjH_4i8Fg_115.mp4	0.0	266.0079460144043	0.10001707077026367
50	145.32408714294434	fix_pre	0		20.0	48.0	2.5	/experiments/knapen_aot/oldvideos/R_S_yt-urJgH6tpfkU_204.mp4	0.0	266.10796308517456	0.16662096977233887
50	145.48248314857483	response	0	4		48.0	2.5	/experiments/knapen_aot/oldvideos/R_S_yt-urJgH6tpfkU_204.mp4	0.0	266.26635909080505	
50	145.49070811271667	movie	1		301.0	48.0	2.5	/experiments/knapen_aot/oldvideos/R_S_yt-urJgH6tpfkU_204.mp4	0.0	266.2745840549469	2.5083839893341064
50	147.99909210205078	fix_post	2		12.0	48.0	2.5	/experiments/knapen_aot/oldvideos/R_S_yt-urJgH6tpfkU_204.mp4	0.0	268.782968044281	0.09992384910583496
51	148.09901595115662	fix_pre	0		46.0	49.0	2.5	blank	1.0	268.88289189338684	0.38333821296691895
51	148.46668696403503	response	0	4		49.0	2.5	blank	1.0	269.25056290626526	
51	148.48235416412354	movie	1		301.0	49.0	2.5	blank	1.0	269.26623010635376	2.508358955383301
51	150.99071311950684	fix_post	2		12.0	49.0	2.5	blank	1.0	271.77458906173706	0.10001802444458008
52	151.09073114395142	fix_pre	0		34.0	50.0	2.5	/experiments/knapen_aot/oldvideos/S_pexels-roman-odintsov-8232443.mp4	0.0	271.87460708618164	0.2836418151855469
52	151.35828399658203	response	0	4		50.0	2.5	/experiments/knapen_aot/oldvideos/S_pexels-roman-odintsov-8232443.mp4	0.0	272.14215993881226	
52	151.37437295913696	movie	1		198.0	50.0	2.5	/experiments/knapen_aot/oldvideos/S_pexels-roman-odintsov-8232443.mp4	0.0	272.1582489013672	2.5080010890960693
52	153.88237404823303	fix_post	2		12.0	50.0	2.5	/experiments/knapen_aot/oldvideos/S_pexels-roman-odintsov-8232443.mp4	0.0	274.66624999046326	0.10000801086425781
53	153.9823820590973	fix_pre	0		41.0	51.0	2.5	/experiments/knapen_aot/oldvideos/R_S_ILSVRC2015_train_00479002.mp4	0.0	274.7662580013275	0.3416779041290283
53	154.31583309173584	response	0	4		51.0	2.5	/experiments/knapen_aot/oldvideos/R_S_ILSVRC2015_train_00479002.mp4	0.0	275.09970903396606	
53	154.32405996322632	movie	1		301.0	51.0	2.5	/experiments/knapen_aot/oldvideos/R_S_ILSVRC2015_train_00479002.mp4	0.0	275.10793590545654	2.508324146270752
53	156.83238410949707	fix_post	2		12.0	51.0	2.5	/experiments/knapen_aot/oldvideos/R_S_ILSVRC2015_train_00479002.mp4	0.0	277.6162600517273	0.09993100166320801
54	156.93231511116028	fix_pre	0		121.0	52.0	2.5	/experiments/knapen_aot/oldvideos/R_S_video_inspire_california_big-sur_2020_00001.1080-h264.mp4	0.0	277.7161910533905	1.0083248615264893
54	157.93250799179077	response	0	2		52.0	2.5	/experiments/knapen_aot/oldvideos/R_S_video_inspire_california_big-sur_2020_00001.1080-h264.mp4	0.0	278.716383934021	
54	157.94063997268677	movie	1		172.0	52.0	2.5	/experiments/knapen_aot/oldvideos/R_S_video_inspire_california_big-sur_2020_00001.1080-h264.mp4	0.0	278.724515914917	2.5084011554718018
54	160.44904112815857	fix_post	2		12.0	52.0	2.5	/experiments/knapen_aot/oldvideos/R_S_video_inspire_california_big-sur_2020_00001.1080-h264.mp4	0.0	281.2329170703888	0.09998893737792969
55	160.5490300655365	fix_pre	0		59.0	53.0	2.5	/experiments/knapen_aot/oldvideos/R_S_comp_LA_A008_C004_ALTB_ED_FROM_FLAME_RETIME_v46_SDR_PS_20180917_SDR_2K_AVC.mp4	0.0	281.3329060077667	0.49190497398376465
55	161.03249502182007	response	0	2		53.0	2.5	/experiments/knapen_aot/oldvideos/R_S_comp_LA_A008_C004_ALTB_ED_FROM_FLAME_RETIME_v46_SDR_PS_20180917_SDR_2K_AVC.mp4	0.0	281.8163709640503	
55	161.04093503952026	movie	1		171.0	53.0	2.5	/experiments/knapen_aot/oldvideos/R_S_comp_LA_A008_C004_ALTB_ED_FROM_FLAME_RETIME_v46_SDR_PS_20180917_SDR_2K_AVC.mp4	0.0	281.8248109817505	2.5081660747528076
55	163.54910111427307	fix_post	2		12.0	53.0	2.5	/experiments/knapen_aot/oldvideos/R_S_comp_LA_A008_C004_ALTB_ED_FROM_FLAME_RETIME_v46_SDR_PS_20180917_SDR_2K_AVC.mp4	0.0	284.3329770565033	0.10014104843139648
56	163.64924216270447	fix_pre	0		287.0	54.0	2.5	/experiments/knapen_aot/oldvideos/S_production_ID_3735542.mp4	0.0	284.4331181049347	2.3917479515075684
56	166.03244304656982	response	0	2		54.0	2.5	/experiments/knapen_aot/oldvideos/S_production_ID_3735542.mp4	0.0	286.81631898880005	
56	166.04099011421204	movie	1		165.0	54.0	2.5	/experiments/knapen_aot/oldvideos/S_production_ID_3735542.mp4	0.0	286.82486605644226	2.5081679821014404
56	168.54915809631348	fix_post	2		12.0	54.0	2.5	/experiments/knapen_aot/oldvideos/S_production_ID_3735542.mp4	0.0	289.3330340385437	0.09977006912231445
57	168.6489281654358	fix_pre	0		111.0	55.0	2.5	/experiments/knapen_aot/oldvideos/S_yt-MNo__ov96eI_22.mp4	0.0	289.432804107666	0.9250259399414062
57	169.56572699546814	response	0	2		55.0	2.5	/experiments/knapen_aot/oldvideos/S_yt-MNo__ov96eI_22.mp4	0.0	290.34960293769836	
57	169.5739541053772	movie	1		301.0	55.0	2.5	/experiments/knapen_aot/oldvideos/S_yt-MNo__ov96eI_22.mp4	0.0	290.3578300476074	2.508419990539551
57	172.08237409591675	fix_post	2		12.0	55.0	2.5	/experiments/knapen_aot/oldvideos/S_yt-MNo__ov96eI_22.mp4	0.0	292.866250038147	0.09998798370361328
58	172.18236207962036	fix_pre	0		40.0	56.0	2.5	blank	1.0	292.9662380218506	0.33313703536987305
58	172.50743699073792	response	0	2		56.0	2.5	blank	1.0	293.29131293296814	
58	172.51549911499023	movie	1		301.0	56.0	2.5	blank	1.0	293.29937505722046	2.508553981781006
58	175.02405309677124	fix_post	2		12.0	56.0	2.5	blank	1.0	295.80792903900146	0.10016298294067383
59	175.1242160797119	fix_pre	0		25.0	57.0	2.5	/experiments/knapen_aot/oldvideos/S_yt-316ecr1BT84_44.mp4	0.0	295.90809202194214	0.20829296112060547
59	175.32400798797607	response	0	2		57.0	2.5	/experiments/knapen_aot/oldvideos/S_yt-316ecr1BT84_44.mp4	0.0	296.1078839302063	
59	175.33250904083252	movie	1		301.0	57.0	2.5	/experiments/knapen_aot/oldvideos/S_yt-316ecr1BT84_44.mp4	0.0	296.11638498306274	2.508125066757202
59	177.84063410758972	fix_post	2		12.0	57.0	2.5	/experiments/knapen_aot/oldvideos/S_yt-316ecr1BT84_44.mp4	0.0	298.62451004981995	0.09996891021728516
60	177.940603017807	fix_pre	0		23.0	58.0	2.5	/experiments/knapen_aot/oldvideos/S_pexels-pavel-danilyuk-8626652.mp4	0.0	298.72447896003723	0.19170594215393066
60	178.12407898902893	response	0	2		58.0	2.5	/experiments/knapen_aot/oldvideos/S_pexels-pavel-danilyuk-8626652.mp4	0.0	298.90795493125916	
60	178.13230895996094	movie	1		168.0	58.0	2.5	/experiments/knapen_aot/oldvideos/S_pexels-pavel-danilyuk-8626652.mp4	0.0	298.91618490219116	2.5083131790161133
60	180.64062213897705	fix_post	2		12.0	58.0	2.5	/experiments/knapen_aot/oldvideos/S_pexels-pavel-danilyuk-8626652.mp4	0.0	301.4244980812073	0.10001802444458008
61	180.74064016342163	fix_pre	0		28.0	59.0	2.5	/experiments/knapen_aot/oldvideos/R_S_yt-C0iWlRWU21o_5.mp4	0.0	301.52451610565186	0.23322796821594238
61	180.96566104888916	response	0	2		59.0	2.5	/experiments/knapen_aot/oldvideos/R_S_yt-C0iWlRWU21o_5.mp4	0.0	301.7495369911194	
61	180.97386813163757	movie	1		301.0	59.0	2.5	/experiments/knapen_aot/oldvideos/R_S_yt-C0iWlRWU21o_5.mp4	0.0	301.7577440738678	2.508471965789795
61	183.48234009742737	fix_post	2		12.0	59.0	2.5	/experiments/knapen_aot/oldvideos/R_S_yt-C0iWlRWU21o_5.mp4	0.0	304.2662160396576	0.10026288032531738
62	183.58260297775269	fix_pre	0		21.0	60.0	2.5	/experiments/knapen_aot/oldvideos/R_S_yt-Rqwi-Fk9IJQ_114.mp4	0.0	304.3664789199829	0.17459797859191895
62	183.74909901618958	response	0	2		60.0	2.5	/experiments/knapen_aot/oldvideos/R_S_yt-Rqwi-Fk9IJQ_114.mp4	0.0	304.5329749584198	
62	183.7572009563446	movie	1		301.0	60.0	2.5	/experiments/knapen_aot/oldvideos/R_S_yt-Rqwi-Fk9IJQ_114.mp4	0.0	304.54107689857483	2.5083470344543457
62	186.26554799079895	fix_post	2		12.0	60.0	2.5	/experiments/knapen_aot/oldvideos/R_S_yt-Rqwi-Fk9IJQ_114.mp4	0.0	307.0494239330292	0.10002017021179199
63	186.36556816101074	fix_pre	0		37.0	61.0	2.5	/experiments/knapen_aot/oldvideos/S_wc-PX_MIe5L43_3_16.mp4	0.0	307.14944410324097	0.3083188533782959
63	186.6656050682068	response	0	2		61.0	2.5	/experiments/knapen_aot/oldvideos/S_wc-PX_MIe5L43_3_16.mp4	0.0	307.449481010437	
63	186.67388701438904	movie	1		301.0	61.0	2.5	/experiments/knapen_aot/oldvideos/S_wc-PX_MIe5L43_3_16.mp4	0.0	307.45776295661926	2.508319139480591
63	189.18220615386963	fix_post	2		12.0	61.0	2.5	/experiments/knapen_aot/oldvideos/S_wc-PX_MIe5L43_3_16.mp4	0.0	309.96608209609985	0.10013580322265625
64	189.28234195709229	fix_pre	0		45.0	62.0	2.5	/experiments/knapen_aot/oldvideos/S_pexels-pavel-danilyuk-8626652.mp4	0.0	310.0662178993225	0.37484312057495117
64	189.64912605285645	response	0	2		62.0	2.5	/experiments/knapen_aot/oldvideos/S_pexels-pavel-danilyuk-8626652.mp4	0.0	310.43300199508667	
64	189.65718507766724	movie	1		165.0	62.0	2.5	/experiments/knapen_aot/oldvideos/S_pexels-pavel-danilyuk-8626652.mp4	0.0	310.44106101989746	2.5085229873657227
64	192.16570806503296	fix_post	2		12.0	62.0	2.5	/experiments/knapen_aot/oldvideos/S_pexels-pavel-danilyuk-8626652.mp4	0.0	312.9495840072632	0.09982991218566895
65	192.26553797721863	fix_pre	0		5.0	63.0	2.5	blank	1.0	313.04941391944885	0.04165911674499512
65	192.29902815818787	response	0	2		63.0	2.5	blank	1.0	313.0829041004181	
65	192.30719709396362	movie	1		301.0	63.0	2.5	blank	1.0	313.09107303619385	2.5083138942718506
65	194.81551098823547	fix_post	2		12.0	63.0	2.5	blank	1.0	315.5993869304657	0.10010099411010742
66	194.91561198234558	fix_pre	0		129.0	64.0	2.5	/experiments/knapen_aot/oldvideos/R_S_video_inspire_oregon_lone-ranch-beach_00001.1080-h264.mp4	0.0	315.6994879245758	1.0749080181121826
66	195.9747829437256	response	0	2		64.0	2.5	/experiments/knapen_aot/oldvideos/R_S_video_inspire_oregon_lone-ranch-beach_00001.1080-h264.mp4	0.0	316.7586588859558	
66	195.99052000045776	movie	1		177.0	64.0	2.5	/experiments/knapen_aot/oldvideos/R_S_video_inspire_oregon_lone-ranch-beach_00001.1080-h264.mp4	0.0	316.774395942688	2.5083260536193848
66	198.49884605407715	fix_post	2		12.0	64.0	2.5	/experiments/knapen_aot/oldvideos/R_S_video_inspire_oregon_lone-ranch-beach_00001.1080-h264.mp4	0.0	319.2827219963074	0.10008096694946289
67	198.5989270210266	fix_pre	0		31.0	65.0	2.5	/experiments/knapen_aot/oldvideos/S_yt-_BvMLZo0MG0_1226.mp4	0.0	319.38280296325684	0.25820112228393555
67	198.84895706176758	response	0	2		65.0	2.5	/experiments/knapen_aot/oldvideos/S_yt-_BvMLZo0MG0_1226.mp4	0.0	319.6328330039978	
67	198.85712814331055	movie	1		301.0	65.0	2.5	/experiments/knapen_aot/oldvideos/S_yt-_BvMLZo0MG0_1226.mp4	0.0	319.64100408554077	2.5083799362182617
67	201.3655080795288	fix_post	2		12.0	65.0	2.5	/experiments/knapen_aot/oldvideos/S_yt-_BvMLZo0MG0_1226.mp4	0.0	322.14938402175903	0.1000220775604248
68	201.46553015708923	fix_pre	0		39.0	66.0	2.5	/experiments/knapen_aot/oldvideos/S_comp_N008_C009_PS_v01_SDR_PS_20180925_SDR_2K_AVC.mp4	0.0	322.24940609931946	0.32497096061706543
68	201.78226804733276	response	0	2		66.0	2.5	/experiments/knapen_aot/oldvideos/S_comp_N008_C009_PS_v01_SDR_PS_20180925_SDR_2K_AVC.mp4	0.0	322.566143989563	
68	201.7905011177063	movie	1		172.0	66.0	2.5	/experiments/knapen_aot/oldvideos/S_comp_N008_C009_PS_v01_SDR_PS_20180925_SDR_2K_AVC.mp4	0.0	322.5743770599365	2.508342981338501
68	204.2988440990448	fix_post	2		12.0	66.0	2.5	/experiments/knapen_aot/oldvideos/S_comp_N008_C009_PS_v01_SDR_PS_20180925_SDR_2K_AVC.mp4	0.0	325.082720041275	0.09995198249816895
69	204.39879608154297	fix_pre	0		34.0	67.0	2.5	/experiments/knapen_aot/oldvideos/R_S_yt-Gc1p5CnDbDY_22.mp4	0.0	325.1826720237732	0.2832949161529541
69	204.67395496368408	response	0	2		67.0	2.5	/experiments/knapen_aot/oldvideos/R_S_yt-Gc1p5CnDbDY_22.mp4	0.0	325.4578309059143	
69	204.68209099769592	movie	1		301.0	67.0	2.5	/experiments/knapen_aot/oldvideos/R_S_yt-Gc1p5CnDbDY_22.mp4	0.0	325.46596693992615	2.5084121227264404
69	207.19050312042236	fix_post	2		12.0	67.0	2.5	/experiments/knapen_aot/oldvideos/R_S_yt-Gc1p5CnDbDY_22.mp4	0.0	327.9743790626526	0.10076594352722168
70	207.29126906394958	fix_pre	0		49.0	68.0	2.5	blank	1.0	328.0751450061798	0.40751004219055176
70	207.6830461025238	response	0	2		68.0	2.5	blank	1.0	328.466922044754	
70	207.69877910614014	movie	1		301.0	68.0	2.5	blank	1.0	328.48265504837036	2.5084118843078613
70	210.207190990448	fix_post	2		12.0	68.0	2.5	blank	1.0	330.9910669326782	0.09994816780090332
71	210.3071391582489	fix_pre	0		40.0	69.0	2.5	/experiments/knapen_aot/oldvideos/R_S_ILSVRC2015_train_00042002.mp4	0.0	331.0910151004791	0.33326196670532227
71	210.63226103782654	response	0	2		69.0	2.5	/experiments/knapen_aot/oldvideos/R_S_ILSVRC2015_train_00042002.mp4	0.0	331.41613698005676	
71	210.64040112495422	movie	1		301.0	69.0	2.5	/experiments/knapen_aot/oldvideos/R_S_ILSVRC2015_train_00042002.mp4	0.0	331.42427706718445	2.5083680152893066
71	213.14876914024353	fix_post	2		12.0	69.0	2.5	/experiments/knapen_aot/oldvideos/R_S_ILSVRC2015_train_00042002.mp4	0.0	333.93264508247375	0.10003781318664551
72	213.24880695343018	fix_pre	0		31.0	70.0	2.5	/experiments/knapen_aot/oldvideos/S_yt-2y6A9DJPsDU_65.mp4	0.0	334.0326828956604	0.25826215744018555
72	213.49135398864746	response	0	2		70.0	2.5	/experiments/knapen_aot/oldvideos/S_yt-2y6A9DJPsDU_65.mp4	0.0	334.2752299308777	
72	213.50706911087036	movie	1		301.0	70.0	2.5	/experiments/knapen_aot/oldvideos/S_yt-2y6A9DJPsDU_65.mp4	0.0	334.2909450531006	2.508301019668579
72	216.01537013053894	fix_post	2		12.0	70.0	2.5	/experiments/knapen_aot/oldvideos/S_yt-2y6A9DJPsDU_65.mp4	0.0	336.79924607276917	0.10027384757995605
73	216.1156439781189	fix_pre	0		17.0	71.0	2.5	/experiments/knapen_aot/oldvideos/R_S_ILSVRC2015_train_00460000.mp4	0.0	336.8995199203491	0.14142704010009766
73	216.24895405769348	response	0	2		71.0	2.5	/experiments/knapen_aot/oldvideos/R_S_ILSVRC2015_train_00460000.mp4	0.0	337.0328299999237	
73	216.257071018219	movie	1		301.0	71.0	2.5	/experiments/knapen_aot/oldvideos/R_S_ILSVRC2015_train_00460000.mp4	0.0	337.0409469604492	2.508263111114502
73	218.7653341293335	fix_post	2		12.0	71.0	2.5	/experiments/knapen_aot/oldvideos/R_S_ILSVRC2015_train_00460000.mp4	0.0	339.5492100715637	0.10009384155273438
74	218.86542797088623	fix_pre	0		19.0	72.0	2.5	/experiments/knapen_aot/oldvideos/S_yt-y3tyx6cZjmA_412.mp4	0.0	339.64930391311646	0.15828704833984375
74	219.01551294326782	response	0	2		72.0	2.5	/experiments/knapen_aot/oldvideos/S_yt-y3tyx6cZjmA_412.mp4	0.0	339.79938888549805	
74	219.02371501922607	movie	1		301.0	72.0	2.5	/experiments/knapen_aot/oldvideos/S_yt-y3tyx6cZjmA_412.mp4	0.0	339.8075909614563	2.5083770751953125
74	221.5320920944214	fix_post	2		12.0	72.0	2.5	/experiments/knapen_aot/oldvideos/S_yt-y3tyx6cZjmA_412.mp4	0.0	342.3159680366516	0.10000205039978027
75	221.63209414482117	fix_pre	0		34.0	73.0	2.5	/experiments/knapen_aot/oldvideos/S_ILSVRC2015_train_00042002.mp4	0.0	342.4159700870514	0.28321194648742676
75	221.90718412399292	response	0	2		73.0	2.5	/experiments/knapen_aot/oldvideos/S_ILSVRC2015_train_00042002.mp4	0.0	342.69106006622314	
75	221.9153060913086	movie	1		301.0	73.0	2.5	/experiments/knapen_aot/oldvideos/S_ILSVRC2015_train_00042002.mp4	0.0	342.6991820335388	2.5084240436553955
75	224.423730134964	fix_post	2		12.0	73.0	2.5	/experiments/knapen_aot/oldvideos/S_ILSVRC2015_train_00042002.mp4	0.0	345.2076060771942	0.10001301765441895
76	224.5237431526184	fix_pre	0		27.0	74.0	2.5	/experiments/knapen_aot/oldvideos/R_S_yt-H5LQq4MPIao_660.mp4	0.0	345.30761909484863	0.22495484352111816
76	224.74055409431458	response	0	2		74.0	2.5	/experiments/knapen_aot/oldvideos/R_S_yt-H5LQq4MPIao_660.mp4	0.0	345.5244300365448	
76	224.74869799613953	movie	1		301.0	74.0	2.5	/experiments/knapen_aot/oldvideos/R_S_yt-H5LQq4MPIao_660.mp4	0.0	345.53257393836975	2.5083911418914795
76	227.257089138031	fix_post	2		12.0	74.0	2.5	/experiments/knapen_aot/oldvideos/R_S_yt-H5LQq4MPIao_660.mp4	0.0	348.04096508026123	0.0999758243560791
77	227.35706496238708	fix_pre	0		14.0	75.0	2.5	/experiments/knapen_aot/oldvideos/R_S_yt-4BAsE47kJNk_88.mp4	0.0	348.1409409046173	0.1166222095489502
77	227.46554017066956	response	0	2		75.0	2.5	/experiments/knapen_aot/oldvideos/R_S_yt-4BAsE47kJNk_88.mp4	0.0	348.2494161128998	
77	227.47368717193604	movie	1		301.0	75.0	2.5	/experiments/knapen_aot/oldvideos/R_S_yt-4BAsE47kJNk_88.mp4	0.0	348.25756311416626	2.508408784866333
77	229.98209595680237	fix_post	2		12.0	75.0	2.5	/experiments/knapen_aot/oldvideos/R_S_yt-4BAsE47kJNk_88.mp4	0.0	350.7659718990326	0.10001611709594727
78	230.08211207389832	fix_pre	0		38.0	76.0	2.5	blank	1.0	350.86598801612854	0.3164808750152588
78	230.39053606987	response	0	2		76.0	2.5	blank	1.0	351.1744120121002	
78	230.39859294891357	movie	1		301.0	76.0	2.5	blank	1.0	351.1824688911438	2.5083930492401123
78	232.9069859981537	fix_post	2		12.0	76.0	2.5	blank	1.0	353.6908619403839	0.10007810592651367
79	233.0070641040802	fix_pre	0		31.0	77.0	2.5	/experiments/knapen_aot/oldvideos/R_S_yt-nYi_FfCjepk_74.mp4	0.0	353.7909400463104	0.26247406005859375
79	233.2573070526123	response	0	2		77.0	2.5	/experiments/knapen_aot/oldvideos/R_S_yt-nYi_FfCjepk_74.mp4	0.0	354.04118299484253	
79	233.2695381641388	movie	1		301.0	77.0	2.5	/experiments/knapen_aot/oldvideos/R_S_yt-nYi_FfCjepk_74.mp4	0.0	354.053414106369	2.5041677951812744
79	235.77370595932007	fix_post	2		12.0	77.0	2.5	/experiments/knapen_aot/oldvideos/R_S_yt-nYi_FfCjepk_74.mp4	0.0	356.5575819015503	0.09998321533203125
80	235.8736891746521	fix_pre	0		76.0	78.0	2.5	/experiments/knapen_aot/oldvideos/R_S_pexels-roman-odintsov-8232443.mp4	0.0	356.6575651168823	0.6332957744598389
80	236.49879097938538	response	0	2		78.0	2.5	/experiments/knapen_aot/oldvideos/R_S_pexels-roman-odintsov-8232443.mp4	0.0	357.2826669216156	
80	236.50698494911194	movie	1		202.0	78.0	2.5	/experiments/knapen_aot/oldvideos/R_S_pexels-roman-odintsov-8232443.mp4	0.0	357.29086089134216	2.508392095565796
80	239.01537704467773	fix_post	2		12.0	78.0	2.5	/experiments/knapen_aot/oldvideos/R_S_pexels-roman-odintsov-8232443.mp4	0.0	359.79925298690796	0.0999760627746582
81	239.1153531074524	fix_pre	0		26.0	79.0	2.5	/experiments/knapen_aot/oldvideos/S_yt-uX7qYKQm_pg_277.mp4	0.0	359.8992290496826	0.21661090850830078
81	239.32372403144836	response	0	2		79.0	2.5	/experiments/knapen_aot/oldvideos/S_yt-uX7qYKQm_pg_277.mp4	0.0	360.1075999736786	
81	239.3319640159607	movie	1		301.0	79.0	2.5	/experiments/knapen_aot/oldvideos/S_yt-uX7qYKQm_pg_277.mp4	0.0	360.1158399581909	2.5083811283111572
81	241.84034514427185	fix_post	2		12.0	79.0	2.5	/experiments/knapen_aot/oldvideos/S_yt-uX7qYKQm_pg_277.mp4	0.0	362.6242210865021	0.09996795654296875
82	241.94031310081482	fix_pre	0		22.0	80.0	2.5	/experiments/knapen_aot/oldvideos/S_yt-Faxdis4m3Fw_9.mp4	0.0	362.72418904304504	0.1834850311279297
82	242.11544799804688	response	0	2		80.0	2.5	/experiments/knapen_aot/oldvideos/S_yt-Faxdis4m3Fw_9.mp4	0.0	362.8993239402771	
82	242.12379813194275	movie	1		301.0	80.0	2.5	/experiments/knapen_aot/oldvideos/S_yt-Faxdis4m3Fw_9.mp4	0.0	362.907674074173	2.508204936981201
82	244.63200306892395	fix_post	2		12.0	80.0	2.5	/experiments/knapen_aot/oldvideos/S_yt-Faxdis4m3Fw_9.mp4	0.0	365.4158790111542	0.09999704360961914
83	244.73200011253357	fix_pre	0		25.0	81.0	2.5	/experiments/knapen_aot/oldvideos/R_S_yt-Iu2ZPHLqXuY_32.mp4	0.0	365.5158760547638	0.20833587646484375
83	244.93204617500305	response	0	2		81.0	2.5	/experiments/knapen_aot/oldvideos/R_S_yt-Iu2ZPHLqXuY_32.mp4	0.0	365.7159221172333	
83	244.9403359889984	movie	1		301.0	81.0	2.5	/experiments/knapen_aot/oldvideos/R_S_yt-Iu2ZPHLqXuY_32.mp4	0.0	365.72421193122864	2.5083119869232178
83	247.44864797592163	fix_post	2		12.0	81.0	2.5	/experiments/knapen_aot/oldvideos/R_S_yt-Iu2ZPHLqXuY_32.mp4	0.0	368.23252391815186	0.09992408752441406
84	247.54857206344604	fix_pre	0		2.0	82.0	2.5	/experiments/knapen_aot/oldvideos/R_S_yt-NuZy8Rjk4d0_156.mp4	0.0	368.33244800567627	0.016742944717407227
84	247.55710411071777	response	0	2		82.0	2.5	/experiments/knapen_aot/oldvideos/R_S_yt-NuZy8Rjk4d0_156.mp4	0.0	368.340980052948	
84	247.56531500816345	movie	1		301.0	82.0	2.5	/experiments/knapen_aot/oldvideos/R_S_yt-NuZy8Rjk4d0_156.mp4	0.0	368.3491909503937	2.50829815864563
84	250.07361316680908	fix_post	2		12.0	82.0	2.5	/experiments/knapen_aot/oldvideos/R_S_yt-NuZy8Rjk4d0_156.mp4	0.0	370.8574891090393	0.10026693344116211
85	250.17388010025024	fix_pre	0		110.0	83.0	2.5	blank	1.0	370.95775604248047	0.9164190292358398
85	251.08210015296936	response	0	2		83.0	2.5	blank	1.0	371.8659760951996	
85	251.09029912948608	movie	1		301.0	83.0	2.5	blank	1.0	371.8741750717163	2.5083398818969727
85	253.59863901138306	fix_post	2		12.0	83.0	2.5	blank	1.0	374.3825149536133	0.09995293617248535
87	253.69859194755554	stim	0		279.0					374.48246788978577	2.327571153640747
87	256.01925015449524	response	0	space						376.80312609672546	
