trial_nr	onset	event_type	phase	response	nr_frames	movie_index	movie_duration	movie_file	blank	onset_abs	duration
0	0.13141107559204102	stim	0		31.0					79.31767392158508	0.26023197174072266
0	0.3834500312805176	response	0	space						79.56971287727356	
1	0.39164304733276367	stim	0		121.0					79.5779058933258	1.0080270767211914
1	1.2510640621185303	response	0	space						80.43732690811157	
1	1.399670124053955	stim	1		120.0					80.585932970047	0.9999659061431885
1	1.8164689540863037	response	1	space						81.00273180007935	
1	2.074786901473999	response	1	space						81.26104974746704	
1	2.391371965408325	response	1	space						81.57763481140137	
2	2.3996360301971436	fix_pre	0		32.0	0.0	2.5	/experiments/knapen_aot/videos/S_yt-lzXao6Reec4_14.mp4	0.0	81.58589887619019	0.266618013381958
2	2.6581249237060547	response	0	space		0.0	2.5	/experiments/knapen_aot/videos/S_yt-lzXao6Reec4_14.mp4	0.0	81.8443877696991	
2	2.6662540435791016	movie	1		301.0	0.0	2.5	/experiments/knapen_aot/videos/S_yt-lzXao6Reec4_14.mp4	0.0	81.85251688957214	2.5083138942718506
2	5.174567937850952	fix_post	2		12.0	0.0	2.5	/experiments/knapen_aot/videos/S_yt-lzXao6Reec4_14.mp4	0.0	84.360830783844	0.10007500648498535
3	5.2746429443359375	fix_pre	0		84.0	1.0	2.5	/experiments/knapen_aot/videos/R_S_yt-3JApfnMu5cU_378.mp4	0.0	84.46090579032898	0.7035770416259766
3	5.970612049102783	response	0	2		1.0	2.5	/experiments/knapen_aot/videos/R_S_yt-3JApfnMu5cU_378.mp4	0.0	85.15687489509583	
3	5.978219985961914	movie	1		297.0	1.0	2.5	/experiments/knapen_aot/videos/R_S_yt-3JApfnMu5cU_378.mp4	0.0	85.16448283195496	2.5047430992126465
3	8.48296308517456	fix_post	2		12.0	1.0	2.5	/experiments/knapen_aot/videos/R_S_yt-3JApfnMu5cU_378.mp4	0.0	87.6692259311676	0.10002589225769043
4	8.582988977432251	fix_pre	0		84.0	2.0	2.5	/experiments/knapen_aot/videos/S_yt-Ojy5TMPX8_Q_165.mp4	0.0	87.7692518234253	0.7007250785827637
4	9.267197132110596	response	0	2		2.0	2.5	/experiments/knapen_aot/videos/S_yt-Ojy5TMPX8_Q_165.mp4	0.0	88.45345997810364	
4	9.283714056015015	movie	1		300.0	2.0	2.5	/experiments/knapen_aot/videos/S_yt-Ojy5TMPX8_Q_165.mp4	0.0	88.46997690200806	2.5076019763946533
4	11.791316032409668	fix_post	2		12.0	2.0	2.5	/experiments/knapen_aot/videos/S_yt-Ojy5TMPX8_Q_165.mp4	0.0	90.97757887840271	0.09998893737792969
5	11.891304969787598	fix_pre	0		61.0	3.0	2.5	/experiments/knapen_aot/videos/R_S_yt-5rC42egLl5E_387.mp4	0.0	91.07756781578064	0.5082850456237793
5	12.39143991470337	response	0	2		3.0	2.5	/experiments/knapen_aot/videos/R_S_yt-5rC42egLl5E_387.mp4	0.0	91.57770276069641	
5	12.399590015411377	movie	1		301.0	3.0	2.5	/experiments/knapen_aot/videos/R_S_yt-5rC42egLl5E_387.mp4	0.0	91.58585286140442	2.508333921432495
5	14.907923936843872	fix_post	2		12.0	3.0	2.5	/experiments/knapen_aot/videos/R_S_yt-5rC42egLl5E_387.mp4	0.0	94.09418678283691	0.10004711151123047
6	15.007971048355103	fix_pre	0		64.0	4.0	2.5	/experiments/knapen_aot/videos/R_S_comp_H007_C003_PS_v01_SDR_PS_20180925_SDR_2K_AVC.mp4	0.0	94.19423389434814	0.533315896987915
6	15.533069133758545	response	0	2		4.0	2.5	/experiments/knapen_aot/videos/R_S_comp_H007_C003_PS_v01_SDR_PS_20180925_SDR_2K_AVC.mp4	0.0	94.71933197975159	
6	15.541286945343018	movie	1		170.0	4.0	2.5	/experiments/knapen_aot/videos/R_S_comp_H007_C003_PS_v01_SDR_PS_20180925_SDR_2K_AVC.mp4	0.0	94.72754979133606	2.5083250999450684
6	18.049612045288086	fix_post	2		12.0	4.0	2.5	/experiments/knapen_aot/videos/R_S_comp_H007_C003_PS_v01_SDR_PS_20180925_SDR_2K_AVC.mp4	0.0	97.23587489128113	0.10000801086425781
7	18.149620056152344	fix_pre	0		80.0	5.0	2.5	/experiments/knapen_aot/videos/R_S_pexels-rodnae-productions-5993654.mp4	0.0	97.33588290214539	0.6665329933166504
7	18.808093070983887	response	0	2		5.0	2.5	/experiments/knapen_aot/videos/R_S_pexels-rodnae-productions-5993654.mp4	0.0	97.99435591697693	
7	18.816153049468994	movie	1		162.0	5.0	2.5	/experiments/knapen_aot/videos/R_S_pexels-rodnae-productions-5993654.mp4	0.0	98.00241589546204	2.5085110664367676
7	21.32466411590576	fix_post	2		12.0	5.0	2.5	/experiments/knapen_aot/videos/R_S_pexels-rodnae-productions-5993654.mp4	0.0	100.5109269618988	0.0999138355255127
8	21.424577951431274	fix_pre	0		82.0	6.0	2.5	blank	1.0	100.61084079742432	0.6832740306854248
8	22.099663019180298	response	0	2		6.0	2.5	blank	1.0	101.28592586517334	
8	22.1078519821167	movie	1		301.0	6.0	2.5	blank	1.0	101.29411482810974	2.5083861351013184
8	24.616238117218018	fix_post	2		12.0	6.0	2.5	blank	1.0	103.80250096321106	0.09998679161071777
9	24.716224908828735	fix_pre	0		70.0	7.0	2.5	/experiments/knapen_aot/videos/R_S_pexels-pavel-danilyuk-8057714.mp4	0.0	103.90248775482178	0.5833971500396729
9	25.291429042816162	response	0	2		7.0	2.5	/experiments/knapen_aot/videos/R_S_pexels-pavel-danilyuk-8057714.mp4	0.0	104.4776918888092	
9	25.299622058868408	movie	1		163.0	7.0	2.5	/experiments/knapen_aot/videos/R_S_pexels-pavel-danilyuk-8057714.mp4	0.0	104.48588490486145	2.508272886276245
9	27.807894945144653	fix_post	2		12.0	7.0	2.5	/experiments/knapen_aot/videos/R_S_pexels-pavel-danilyuk-8057714.mp4	0.0	106.9941577911377	0.0999000072479248
10	27.907794952392578	fix_pre	0		70.0	8.0	2.5	/experiments/knapen_aot/videos/R_S_yt-fIEGqReekCM_10.mp4	0.0	107.09405779838562	0.5841829776763916
10	28.48301601409912	response	0	2		8.0	2.5	/experiments/knapen_aot/videos/R_S_yt-fIEGqReekCM_10.mp4	0.0	107.66927886009216	
10	28.49197793006897	movie	1		301.0	8.0	2.5	/experiments/knapen_aot/videos/R_S_yt-fIEGqReekCM_10.mp4	0.0	107.67824077606201	2.507672071456909
10	30.99965000152588	fix_post	2		12.0	8.0	2.5	/experiments/knapen_aot/videos/R_S_yt-fIEGqReekCM_10.mp4	0.0	110.18591284751892	0.0998849868774414
11	31.09953498840332	fix_pre	0		52.0	9.0	2.5	/experiments/knapen_aot/videos/S_yt-fIEGqReekCM_10.mp4	0.0	110.28579783439636	0.4340231418609619
11	31.524660110473633	response	0	2		9.0	2.5	/experiments/knapen_aot/videos/S_yt-fIEGqReekCM_10.mp4	0.0	110.71092295646667	
11	31.533558130264282	movie	1		298.0	9.0	2.5	/experiments/knapen_aot/videos/S_yt-fIEGqReekCM_10.mp4	0.0	110.71982097625732	2.507589817047119
11	34.0411479473114	fix_post	2		12.0	9.0	2.5	/experiments/knapen_aot/videos/S_yt-fIEGqReekCM_10.mp4	0.0	113.22741079330444	0.10001611709594727
12	34.14116406440735	fix_pre	0		97.0	10.0	2.5	/experiments/knapen_aot/videos/R_S_production_ID_5139371.mp4	0.0	113.32742691040039	0.8090300559997559
12	34.94133901596069	response	0	2		10.0	2.5	/experiments/knapen_aot/videos/R_S_production_ID_5139371.mp4	0.0	114.12760186195374	
12	34.950194120407104	movie	1		163.0	10.0	2.5	/experiments/knapen_aot/videos/R_S_production_ID_5139371.mp4	0.0	114.13645696640015	2.507694959640503
12	37.45788908004761	fix_post	2		12.0	10.0	2.5	/experiments/knapen_aot/videos/R_S_production_ID_5139371.mp4	0.0	116.64415192604065	0.0999288558959961
13	37.5578179359436	fix_pre	0		65.0	11.0	2.5	/experiments/knapen_aot/videos/R_S_yt-6MwA-jx56AQ_612.mp4	0.0	116.74408078193665	0.5416600704193115
13	38.09132695198059	response	0	2		11.0	2.5	/experiments/knapen_aot/videos/R_S_yt-6MwA-jx56AQ_612.mp4	0.0	117.27758979797363	
13	38.099478006362915	movie	1		301.0	11.0	2.5	/experiments/knapen_aot/videos/R_S_yt-6MwA-jx56AQ_612.mp4	0.0	117.28574085235596	2.508316993713379
13	40.607795000076294	fix_post	2		12.0	11.0	2.5	/experiments/knapen_aot/videos/R_S_yt-6MwA-jx56AQ_612.mp4	0.0	119.79405784606934	0.10001397132873535
14	40.70780897140503	fix_pre	0		115.0	12.0	2.5	blank	1.0	119.89407181739807	0.9583179950714111
14	41.65797400474548	response	0	2		12.0	2.5	blank	1.0	120.84423685073853	
14	41.66612696647644	movie	1		301.0	12.0	2.5	blank	1.0	120.85238981246948	2.5083560943603516
14	44.17448306083679	fix_post	2		12.0	12.0	2.5	blank	1.0	123.36074590682983	0.10009288787841797
15	44.27457594871521	fix_pre	0		73.0	13.0	2.5	/experiments/knapen_aot/videos/S_yt-zhQ32_OayBQ_39.mp4	0.0	123.46083879470825	0.6081850528717041
15	44.874594926834106	response	0	2		13.0	2.5	/experiments/knapen_aot/videos/S_yt-zhQ32_OayBQ_39.mp4	0.0	124.06085777282715	
15	44.882761001586914	movie	1		301.0	13.0	2.5	/experiments/knapen_aot/videos/S_yt-zhQ32_OayBQ_39.mp4	0.0	124.06902384757996	2.508358955383301
15	47.391119956970215	fix_post	2		12.0	13.0	2.5	/experiments/knapen_aot/videos/S_yt-zhQ32_OayBQ_39.mp4	0.0	126.57738280296326	0.10001516342163086
16	47.491135120391846	fix_pre	0		68.0	14.0	2.5	/experiments/knapen_aot/videos/R_S_PA_A001_C007_SDR_20190717_SDR_2K_AVC.mp4	0.0	126.67739796638489	0.5666468143463135
16	48.04962205886841	response	0	2		14.0	2.5	/experiments/knapen_aot/videos/R_S_PA_A001_C007_SDR_20190717_SDR_2K_AVC.mp4	0.0	127.23588490486145	
16	48.05778193473816	movie	1		164.0	14.0	2.5	/experiments/knapen_aot/videos/R_S_PA_A001_C007_SDR_20190717_SDR_2K_AVC.mp4	0.0	127.2440447807312	2.508291006088257
16	50.566072940826416	fix_post	2		12.0	14.0	2.5	/experiments/knapen_aot/videos/R_S_PA_A001_C007_SDR_20190717_SDR_2K_AVC.mp4	0.0	129.75233578681946	0.10005998611450195
17	50.66613292694092	fix_pre	0		70.0	15.0	2.5	/experiments/knapen_aot/videos/R_S_yt-XF0fyyFEgWo_280.mp4	0.0	129.85239577293396	0.5916180610656738
17	51.249594926834106	response	0	2		15.0	2.5	/experiments/knapen_aot/videos/R_S_yt-XF0fyyFEgWo_280.mp4	0.0	130.43585777282715	
17	51.25775098800659	movie	1		301.0	15.0	2.5	/experiments/knapen_aot/videos/R_S_yt-XF0fyyFEgWo_280.mp4	0.0	130.44401383399963	2.5083401203155518
17	53.766091108322144	fix_post	2		12.0	15.0	2.5	/experiments/knapen_aot/videos/R_S_yt-XF0fyyFEgWo_280.mp4	0.0	132.95235395431519	0.09994983673095703
18	53.8660409450531	fix_pre	0		52.0	16.0	2.5	/experiments/knapen_aot/videos/R_S_yt-JQOHHL30Y54_101.mp4	0.0	133.05230379104614	0.43343305587768555
18	54.2912540435791	response	0	2		16.0	2.5	/experiments/knapen_aot/videos/R_S_yt-JQOHHL30Y54_101.mp4	0.0	133.47751688957214	
18	54.299474000930786	movie	1		301.0	16.0	2.5	/experiments/knapen_aot/videos/R_S_yt-JQOHHL30Y54_101.mp4	0.0	133.48573684692383	2.508327007293701
18	56.80780100822449	fix_post	2		12.0	16.0	2.5	/experiments/knapen_aot/videos/R_S_yt-JQOHHL30Y54_101.mp4	0.0	135.99406385421753	0.09989500045776367
19	56.90769600868225	fix_pre	0		85.0	17.0	2.5	/experiments/knapen_aot/videos/S_yt-Fm97IY0Z2LU_79.mp4	0.0	136.0939588546753	0.7089409828186035
19	57.60805296897888	response	0	2		17.0	2.5	/experiments/knapen_aot/videos/S_yt-Fm97IY0Z2LU_79.mp4	0.0	136.79431581497192	
19	57.616636991500854	movie	1		301.0	17.0	2.5	/experiments/knapen_aot/videos/S_yt-Fm97IY0Z2LU_79.mp4	0.0	136.8028998374939	2.5078999996185303
19	60.124536991119385	fix_post	2		12.0	17.0	2.5	/experiments/knapen_aot/videos/S_yt-Fm97IY0Z2LU_79.mp4	0.0	139.31079983711243	0.09993600845336914
20	60.224472999572754	fix_pre	0		95.0	18.0	2.5	/experiments/knapen_aot/videos/S_yt-lv6mhnH7_g4_134.mp4	0.0	139.4107358455658	0.7916469573974609
20	61.00787711143494	response	0	2		18.0	2.5	/experiments/knapen_aot/videos/S_yt-lv6mhnH7_g4_134.mp4	0.0	140.19413995742798	
20	61.016119956970215	movie	1		301.0	18.0	2.5	/experiments/knapen_aot/videos/S_yt-lv6mhnH7_g4_134.mp4	0.0	140.20238280296326	2.508310079574585
20	63.5244300365448	fix_post	2		12.0	18.0	2.5	/experiments/knapen_aot/videos/S_yt-lv6mhnH7_g4_134.mp4	0.0	142.71069288253784	0.10008788108825684
21	63.62451791763306	fix_pre	0		55.0	19.0	2.5	blank	1.0	142.8107807636261	0.4581880569458008
21	64.07456111907959	response	0	2		19.0	2.5	blank	1.0	143.26082396507263	
21	64.08270597457886	movie	1		301.0	19.0	2.5	blank	1.0	143.2689688205719	2.5083811283111572
21	66.59108710289001	fix_post	2		12.0	19.0	2.5	blank	1.0	145.77734994888306	0.09987783432006836
22	66.69096493721008	fix_pre	0		52.0	20.0	2.5	/experiments/knapen_aot/videos/S_yt-etQaTgGOhR4_69.mp4	0.0	145.87722778320312	0.43338704109191895
22	67.11614799499512	response	0	2		20.0	2.5	/experiments/knapen_aot/videos/S_yt-etQaTgGOhR4_69.mp4	0.0	146.30241084098816	
22	67.124351978302	movie	1		301.0	20.0	2.5	/experiments/knapen_aot/videos/S_yt-etQaTgGOhR4_69.mp4	0.0	146.31061482429504	2.5083470344543457
22	69.63269901275635	fix_post	2		12.0	20.0	2.5	/experiments/knapen_aot/videos/S_yt-etQaTgGOhR4_69.mp4	0.0	148.8189618587494	0.0999751091003418
23	69.73267412185669	fix_pre	0		82.0	21.0	2.5	/experiments/knapen_aot/videos/R_S_yt-SkIJvj6KNOo_33.mp4	0.0	148.91893696784973	0.6833159923553467
23	70.40773701667786	response	0	2		21.0	2.5	/experiments/knapen_aot/videos/R_S_yt-SkIJvj6KNOo_33.mp4	0.0	149.5939998626709	
23	70.41599011421204	movie	1		301.0	21.0	2.5	/experiments/knapen_aot/videos/R_S_yt-SkIJvj6KNOo_33.mp4	0.0	149.60225296020508	2.5083940029144287
23	72.92438411712646	fix_post	2		12.0	21.0	2.5	/experiments/knapen_aot/videos/R_S_yt-SkIJvj6KNOo_33.mp4	0.0	152.1106469631195	0.09987878799438477
24	73.02426290512085	fix_pre	0		63.0	22.0	2.5	/experiments/knapen_aot/videos/S_Y011_C008_SDR_2K_AVC.mp4	0.0	152.2105257511139	0.5250601768493652
24	73.54115104675293	response	0	2		22.0	2.5	/experiments/knapen_aot/videos/S_Y011_C008_SDR_2K_AVC.mp4	0.0	152.72741389274597	
24	73.54932308197021	movie	1		168.0	22.0	2.5	/experiments/knapen_aot/videos/S_Y011_C008_SDR_2K_AVC.mp4	0.0	152.73558592796326	2.5083789825439453
24	76.05770206451416	fix_post	2		12.0	22.0	2.5	/experiments/knapen_aot/videos/S_Y011_C008_SDR_2K_AVC.mp4	0.0	155.2439649105072	0.10057902336120605
25	76.15828108787537	fix_pre	0		64.0	23.0	2.5	/experiments/knapen_aot/videos/S_yt-aD-EAuBdpUo_163.mp4	0.0	155.3445439338684	0.5327448844909668
25	76.6829080581665	response	0	2		23.0	2.5	/experiments/knapen_aot/videos/S_yt-aD-EAuBdpUo_163.mp4	0.0	155.86917090415955	
25	76.69102597236633	movie	1		301.0	23.0	2.5	/experiments/knapen_aot/videos/S_yt-aD-EAuBdpUo_163.mp4	0.0	155.87728881835938	2.5082759857177734
25	79.1993019580841	fix_post	2		12.0	23.0	2.5	/experiments/knapen_aot/videos/S_yt-aD-EAuBdpUo_163.mp4	0.0	158.38556480407715	0.09997200965881348
26	79.29927396774292	fix_pre	0		62.0	24.0	2.5	/experiments/knapen_aot/videos/S_ILSVRC2015_train_00418001.mp4	0.0	158.48553681373596	0.5167479515075684
26	79.80026412010193	response	0	2		24.0	2.5	/experiments/knapen_aot/videos/S_ILSVRC2015_train_00418001.mp4	0.0	158.98652696609497	
26	79.81602191925049	movie	1		301.0	24.0	2.5	/experiments/knapen_aot/videos/S_ILSVRC2015_train_00418001.mp4	0.0	159.00228476524353	2.5083060264587402
26	82.32432794570923	fix_post	2		12.0	24.0	2.5	/experiments/knapen_aot/videos/S_ILSVRC2015_train_00418001.mp4	0.0	161.51059079170227	0.10001111030578613
27	82.42433905601501	fix_pre	0		77.0	25.0	2.5	/experiments/knapen_aot/videos/S_yt-SkIJvj6KNOo_33.mp4	0.0	161.61060190200806	0.6416049003601074
27	83.05018210411072	response	0	2		25.0	2.5	/experiments/knapen_aot/videos/S_yt-SkIJvj6KNOo_33.mp4	0.0	162.23644495010376	
27	83.06594395637512	movie	1		297.0	25.0	2.5	/experiments/knapen_aot/videos/S_yt-SkIJvj6KNOo_33.mp4	0.0	162.25220680236816	2.508380174636841
27	85.57432413101196	fix_post	2		12.0	25.0	2.5	/experiments/knapen_aot/videos/S_yt-SkIJvj6KNOo_33.mp4	0.0	164.760586977005	0.09991884231567383
28	85.67424297332764	fix_pre	0		70.0	26.0	2.5	/experiments/knapen_aot/videos/R_S_yt-b7bIulV49DQ_81.mp4	0.0	164.86050581932068	0.5834109783172607
28	86.24946999549866	response	0	2		26.0	2.5	/experiments/knapen_aot/videos/R_S_yt-b7bIulV49DQ_81.mp4	0.0	165.4357328414917	
28	86.2576539516449	movie	1		301.0	26.0	2.5	/experiments/knapen_aot/videos/R_S_yt-b7bIulV49DQ_81.mp4	0.0	165.44391679763794	2.5083580017089844
28	88.76601195335388	fix_post	2		12.0	26.0	2.5	/experiments/knapen_aot/videos/R_S_yt-b7bIulV49DQ_81.mp4	0.0	167.95227479934692	0.09997415542602539
29	88.86598610877991	fix_pre	0		102.0	27.0	2.5	/experiments/knapen_aot/videos/R_S_yt-mL3MuCfKtdY_79.mp4	0.0	168.05224895477295	0.8499729633331299
29	89.70773005485535	response	0	2		27.0	2.5	/experiments/knapen_aot/videos/R_S_yt-mL3MuCfKtdY_79.mp4	0.0	168.8939929008484	
29	89.71595907211304	movie	1		301.0	27.0	2.5	/experiments/knapen_aot/videos/R_S_yt-mL3MuCfKtdY_79.mp4	0.0	168.90222191810608	2.508349895477295
29	92.22430896759033	fix_post	2		12.0	27.0	2.5	/experiments/knapen_aot/videos/R_S_yt-mL3MuCfKtdY_79.mp4	0.0	171.41057181358337	0.10000395774841309
30	92.32431292533875	fix_pre	0		70.0	28.0	2.5	blank	1.0	171.5105757713318	0.5837969779968262
30	92.89942502975464	response	0	2		28.0	2.5	blank	1.0	172.08568787574768	
30	92.90810990333557	movie	1		301.0	28.0	2.5	blank	1.0	172.0943727493286	2.5077731609344482
30	95.41588306427002	fix_post	2		12.0	28.0	2.5	blank	1.0	174.60214591026306	0.09995484352111816
31	95.51583790779114	fix_pre	0		63.0	29.0	2.5	/experiments/knapen_aot/videos/R_S_ILSVRC2015_train_00484001.mp4	0.0	174.70210075378418	0.5250840187072754
31	96.03265500068665	response	0	2		29.0	2.5	/experiments/knapen_aot/videos/R_S_ILSVRC2015_train_00484001.mp4	0.0	175.2189178466797	
31	96.04092192649841	movie	1		301.0	29.0	2.5	/experiments/knapen_aot/videos/R_S_ILSVRC2015_train_00484001.mp4	0.0	175.22718477249146	2.508345127105713
31	98.54926705360413	fix_post	2		12.0	29.0	2.5	/experiments/knapen_aot/videos/R_S_ILSVRC2015_train_00484001.mp4	0.0	177.73552989959717	0.09992384910583496
32	98.64919090270996	fix_pre	0		89.0	30.0	2.5	/experiments/knapen_aot/videos/R_S_yt-ZBhTpmrAlUY_70.mp4	0.0	177.835453748703	0.7416751384735107
32	99.38269591331482	response	0	2		30.0	2.5	/experiments/knapen_aot/videos/R_S_yt-ZBhTpmrAlUY_70.mp4	0.0	178.56895875930786	
32	99.39086604118347	movie	1		301.0	30.0	2.5	/experiments/knapen_aot/videos/R_S_yt-ZBhTpmrAlUY_70.mp4	0.0	178.5771288871765	2.508373975753784
32	101.89924001693726	fix_post	2		12.0	30.0	2.5	/experiments/knapen_aot/videos/R_S_yt-ZBhTpmrAlUY_70.mp4	0.0	181.0855028629303	0.09999990463256836
33	101.99923992156982	fix_pre	0		107.0	31.0	2.5	/experiments/knapen_aot/videos/S_production_ID_5139371.mp4	0.0	181.18550276756287	0.8916242122650146
33	102.88266706466675	response	0	2		31.0	2.5	/experiments/knapen_aot/videos/S_production_ID_5139371.mp4	0.0	182.0689299106598	
33	102.89086413383484	movie	1		162.0	31.0	2.5	/experiments/knapen_aot/videos/S_production_ID_5139371.mp4	0.0	182.07712697982788	2.5083699226379395
33	105.39923405647278	fix_post	2		12.0	31.0	2.5	/experiments/knapen_aot/videos/S_production_ID_5139371.mp4	0.0	184.58549690246582	0.10002899169921875
34	105.499263048172	fix_pre	0		74.0	32.0	2.5	/experiments/knapen_aot/videos/R_S_wc-TAGpcap1KdAS_212.mp4	0.0	184.68552589416504	0.6169278621673584
34	106.10770201683044	response	0	2		32.0	2.5	/experiments/knapen_aot/videos/R_S_wc-TAGpcap1KdAS_212.mp4	0.0	185.2939648628235	
34	106.11619091033936	movie	1		301.0	32.0	2.5	/experiments/knapen_aot/videos/R_S_wc-TAGpcap1KdAS_212.mp4	0.0	185.3024537563324	2.5080440044403076
34	108.62423491477966	fix_post	2		12.0	32.0	2.5	/experiments/knapen_aot/videos/R_S_wc-TAGpcap1KdAS_212.mp4	0.0	187.8104977607727	0.09998202323913574
35	108.7242169380188	fix_pre	0		80.0	33.0	2.5	blank	1.0	187.91047978401184	0.6665921211242676
35	109.38267803192139	response	0	2		33.0	2.5	blank	1.0	188.56894087791443	
35	109.39080905914307	movie	1		301.0	33.0	2.5	blank	1.0	188.5770719051361	2.508352041244507
35	111.89916110038757	fix_post	2		12.0	33.0	2.5	blank	1.0	191.08542394638062	0.10005784034729004
36	111.99921894073486	fix_pre	0		75.0	34.0	2.5	/experiments/knapen_aot/videos/R_S_wc-TAGpcap1KdAS_212.mp4	0.0	191.1854817867279	0.6249489784240723
36	112.61594009399414	response	0	2		34.0	2.5	/experiments/knapen_aot/videos/R_S_wc-TAGpcap1KdAS_212.mp4	0.0	191.80220293998718	
36	112.62416791915894	movie	1		301.0	34.0	2.5	/experiments/knapen_aot/videos/R_S_wc-TAGpcap1KdAS_212.mp4	0.0	191.81043076515198	2.5083470344543457
36	115.13251495361328	fix_post	2		12.0	34.0	2.5	/experiments/knapen_aot/videos/R_S_wc-TAGpcap1KdAS_212.mp4	0.0	194.31877779960632	0.10000395774841309
37	115.2325189113617	fix_pre	0		90.0	35.0	2.5	/experiments/knapen_aot/videos/R_S_video-11.mp4	0.0	194.41878175735474	0.7499761581420898
37	115.97431707382202	response	0	2		35.0	2.5	/experiments/knapen_aot/videos/R_S_video-11.mp4	0.0	195.16057991981506	
37	115.98249506950378	movie	1		166.0	35.0	2.5	/experiments/knapen_aot/videos/R_S_video-11.mp4	0.0	195.16875791549683	2.508281946182251
37	118.49077701568604	fix_post	2		12.0	35.0	2.5	/experiments/knapen_aot/videos/R_S_video-11.mp4	0.0	197.67703986167908	0.09995603561401367
38	118.59073305130005	fix_pre	0		71.0	36.0	2.5	/experiments/knapen_aot/videos/R_S_yt-Xkx53mjgj2E_30.mp4	0.0	197.7769958972931	0.5917439460754395
38	119.166738986969	response	0	2		36.0	2.5	/experiments/knapen_aot/videos/R_S_yt-Xkx53mjgj2E_30.mp4	0.0	198.35300183296204	
38	119.18247699737549	movie	1		301.0	36.0	2.5	/experiments/knapen_aot/videos/R_S_yt-Xkx53mjgj2E_30.mp4	0.0	198.36873984336853	2.508355140686035
38	121.69083213806152	fix_post	2		12.0	36.0	2.5	/experiments/knapen_aot/videos/R_S_yt-Xkx53mjgj2E_30.mp4	0.0	200.87709498405457	0.09998798370361328
39	121.79082012176514	fix_pre	0		101.0	37.0	2.5	/experiments/knapen_aot/videos/R_S_ILSVRC2015_train_00323000.mp4	0.0	200.97708296775818	0.8416709899902344
39	122.62425899505615	response	0	2		37.0	2.5	/experiments/knapen_aot/videos/R_S_ILSVRC2015_train_00323000.mp4	0.0	201.8105218410492	
39	122.63249111175537	movie	1		301.0	37.0	2.5	/experiments/knapen_aot/videos/R_S_ILSVRC2015_train_00323000.mp4	0.0	201.8187539577484	2.5082478523254395
39	125.14073896408081	fix_post	2		12.0	37.0	2.5	/experiments/knapen_aot/videos/R_S_ILSVRC2015_train_00323000.mp4	0.0	204.32700181007385	0.1002810001373291
40	125.24101996421814	fix_pre	0		100.0	38.0	2.5	/experiments/knapen_aot/videos/S_production_ID_4510622.mp4	0.0	204.42728281021118	0.8333470821380615
40	126.06592011451721	response	0	2		38.0	2.5	/experiments/knapen_aot/videos/S_production_ID_4510622.mp4	0.0	205.25218296051025	
40	126.0743670463562	movie	1		167.0	38.0	2.5	/experiments/knapen_aot/videos/S_production_ID_4510622.mp4	0.0	205.26062989234924	2.5080339908599854
40	128.5824010372162	fix_post	2		12.0	38.0	2.5	/experiments/knapen_aot/videos/S_production_ID_4510622.mp4	0.0	207.76866388320923	0.10000991821289062
41	128.68241095542908	fix_pre	0		68.0	39.0	2.5	/experiments/knapen_aot/videos/R_S_yt-n6aLw10f2Yw_317.mp4	0.0	207.86867380142212	0.5680520534515381
41	129.24081802368164	response	0	2		39.0	2.5	/experiments/knapen_aot/videos/R_S_yt-n6aLw10f2Yw_317.mp4	0.0	208.42708086967468	
41	129.25046300888062	movie	1		301.0	39.0	2.5	/experiments/knapen_aot/videos/R_S_yt-n6aLw10f2Yw_317.mp4	0.0	208.43672585487366	2.5070080757141113
41	131.75747108459473	fix_post	2		12.0	39.0	2.5	/experiments/knapen_aot/videos/R_S_yt-n6aLw10f2Yw_317.mp4	0.0	210.94373393058777	0.09999895095825195
42	131.85747003555298	fix_pre	0		78.0	40.0	2.5	/experiments/knapen_aot/videos/R_S_ILSVRC2015_train_00371010.mp4	0.0	211.04373288154602	0.6499490737915039
42	132.49935698509216	response	0	2		40.0	2.5	/experiments/knapen_aot/videos/R_S_ILSVRC2015_train_00371010.mp4	0.0	211.6856198310852	
42	132.50741910934448	movie	1		301.0	40.0	2.5	/experiments/knapen_aot/videos/R_S_ILSVRC2015_train_00371010.mp4	0.0	211.69368195533752	2.5082778930664062
42	135.0156970024109	fix_post	2		12.0	40.0	2.5	/experiments/knapen_aot/videos/R_S_ILSVRC2015_train_00371010.mp4	0.0	214.20195984840393	0.10026311874389648
43	135.11596012115479	fix_pre	0		64.0	41.0	2.5	/experiments/knapen_aot/videos/R_S_yt-1n1jTroiwJs_163.mp4	0.0	214.30222296714783	0.5330989360809326
43	135.6408350467682	response	0	2		41.0	2.5	/experiments/knapen_aot/videos/R_S_yt-1n1jTroiwJs_163.mp4	0.0	214.82709789276123	
43	135.64905905723572	movie	1		301.0	41.0	2.5	/experiments/knapen_aot/videos/R_S_yt-1n1jTroiwJs_163.mp4	0.0	214.83532190322876	2.5085248947143555
43	138.15758395195007	fix_post	2		12.0	41.0	2.5	/experiments/knapen_aot/videos/R_S_yt-1n1jTroiwJs_163.mp4	0.0	217.34384679794312	0.09974408149719238
44	138.25732803344727	fix_pre	0		38.0	42.0	2.5	blank	1.0	217.4435908794403	0.3169119358062744
44	138.558452129364	response	0	2		42.0	2.5	blank	1.0	217.74471497535706	
44	138.57423996925354	movie	1		301.0	42.0	2.5	blank	1.0	217.76050281524658	2.5081470012664795
44	141.08238697052002	fix_post	2		12.0	42.0	2.5	blank	1.0	220.26864981651306	0.10000896453857422
45	141.1823959350586	fix_pre	0		91.0	43.0	2.5	/experiments/knapen_aot/videos/R_S_ILSVRC2015_train_00484001.mp4	0.0	220.36865878105164	0.7582821846008301
45	141.93261098861694	response	0	2		43.0	2.5	/experiments/knapen_aot/videos/R_S_ILSVRC2015_train_00484001.mp4	0.0	221.11887383460999	
45	141.94067811965942	movie	1		301.0	43.0	2.5	/experiments/knapen_aot/videos/R_S_ILSVRC2015_train_00484001.mp4	0.0	221.12694096565247	2.5084447860717773
45	144.4491229057312	fix_post	2		12.0	43.0	2.5	/experiments/knapen_aot/videos/R_S_ILSVRC2015_train_00484001.mp4	0.0	223.63538575172424	0.09996914863586426
46	144.54909205436707	fix_pre	0		85.0	44.0	2.5	/experiments/knapen_aot/videos/R_S_ILSVRC2015_train_00405000.mp4	0.0	223.7353549003601	0.7081890106201172
46	145.24922609329224	response	0	2		44.0	2.5	/experiments/knapen_aot/videos/R_S_ILSVRC2015_train_00405000.mp4	0.0	224.43548893928528	
46	145.25728106498718	movie	1		300.0	44.0	2.5	/experiments/knapen_aot/videos/R_S_ILSVRC2015_train_00405000.mp4	0.0	224.44354391098022	2.5083699226379395
46	147.76565098762512	fix_post	2		12.0	44.0	2.5	/experiments/knapen_aot/videos/R_S_ILSVRC2015_train_00405000.mp4	0.0	226.95191383361816	0.10013413429260254
47	147.86578512191772	fix_pre	0		85.0	45.0	2.5	/experiments/knapen_aot/videos/R_S_yt-4x2eUikn9rw_212.mp4	0.0	227.05204796791077	0.7082958221435547
47	148.5659830570221	response	0	2		45.0	2.5	/experiments/knapen_aot/videos/R_S_yt-4x2eUikn9rw_212.mp4	0.0	227.75224590301514	
47	148.57408094406128	movie	1		301.0	45.0	2.5	/experiments/knapen_aot/videos/R_S_yt-4x2eUikn9rw_212.mp4	0.0	227.76034379005432	2.508242130279541
47	151.08232307434082	fix_post	2		12.0	45.0	2.5	/experiments/knapen_aot/videos/R_S_yt-4x2eUikn9rw_212.mp4	0.0	230.26858592033386	0.10005784034729004
48	151.1823809146881	fix_pre	0		80.0	46.0	2.5	/experiments/knapen_aot/videos/R_S_yt-bmGWhOCsvJo_128.mp4	0.0	230.36864376068115	0.666729211807251
48	151.84086513519287	response	0	2		46.0	2.5	/experiments/knapen_aot/videos/R_S_yt-bmGWhOCsvJo_128.mp4	0.0	231.0271279811859	
48	151.84911012649536	movie	1		301.0	46.0	2.5	/experiments/knapen_aot/videos/R_S_yt-bmGWhOCsvJo_128.mp4	0.0	231.0353729724884	2.5081989765167236
48	154.35730910301208	fix_post	2		12.0	46.0	2.5	/experiments/knapen_aot/videos/R_S_yt-bmGWhOCsvJo_128.mp4	0.0	233.54357194900513	0.10001897811889648
49	154.45732808113098	fix_pre	0		73.0	47.0	2.5	/experiments/knapen_aot/videos/R_S_yt-nlfwzxlwRfk_12.mp4	0.0	233.64359092712402	0.6083438396453857
49	155.04999113082886	response	0	2		47.0	2.5	/experiments/knapen_aot/videos/R_S_yt-nlfwzxlwRfk_12.mp4	0.0	234.2362539768219	
49	155.06567192077637	movie	1		301.0	47.0	2.5	/experiments/knapen_aot/videos/R_S_yt-nlfwzxlwRfk_12.mp4	0.0	234.2519347667694	2.5083491802215576
49	157.57402110099792	fix_post	2		12.0	47.0	2.5	/experiments/knapen_aot/videos/R_S_yt-nlfwzxlwRfk_12.mp4	0.0	236.76028394699097	0.09993696212768555
50	157.6739580631256	fix_pre	0		85.0	48.0	2.5	/experiments/knapen_aot/videos/S_yt-1n1jTroiwJs_163.mp4	0.0	236.86022090911865	0.7083630561828613
50	158.3741500377655	response	0	2		48.0	2.5	/experiments/knapen_aot/videos/S_yt-1n1jTroiwJs_163.mp4	0.0	237.56041288375854	
50	158.38232111930847	movie	1		301.0	48.0	2.5	/experiments/knapen_aot/videos/S_yt-1n1jTroiwJs_163.mp4	0.0	237.5685839653015	2.5082809925079346
50	160.8906021118164	fix_post	2		12.0	48.0	2.5	/experiments/knapen_aot/videos/S_yt-1n1jTroiwJs_163.mp4	0.0	240.07686495780945	0.1000819206237793
51	160.99068403244019	fix_pre	0		71.0	49.0	2.5	blank	1.0	240.17694687843323	0.5916180610656738
51	161.57412600517273	response	0	2		49.0	2.5	blank	1.0	240.76038885116577	
51	161.58230209350586	movie	1		301.0	49.0	2.5	blank	1.0	240.7685649394989	2.508349895477295
51	164.09065198898315	fix_post	2		12.0	49.0	2.5	blank	1.0	243.2769148349762	0.10000395774841309
52	164.19065594673157	fix_pre	0		116.0	50.0	2.5	/experiments/knapen_aot/videos/R_S_yt-lzXao6Reec4_14.mp4	0.0	243.3769187927246	0.9665770530700684
52	165.14909291267395	response	0	2		50.0	2.5	/experiments/knapen_aot/videos/R_S_yt-lzXao6Reec4_14.mp4	0.0	244.335355758667	
52	165.15723299980164	movie	1		301.0	50.0	2.5	/experiments/knapen_aot/videos/R_S_yt-lzXao6Reec4_14.mp4	0.0	244.34349584579468	2.508455991744995
52	167.66568899154663	fix_post	2		12.0	50.0	2.5	/experiments/knapen_aot/videos/R_S_yt-lzXao6Reec4_14.mp4	0.0	246.85195183753967	0.09990501403808594
53	167.76559400558472	fix_pre	0		51.0	51.0	2.5	/experiments/knapen_aot/videos/R_S_P007_C027_UHD_SDR_2K_AVC.mp4	0.0	246.95185685157776	0.4249739646911621
53	168.17498898506165	response	0	2		51.0	2.5	/experiments/knapen_aot/videos/R_S_P007_C027_UHD_SDR_2K_AVC.mp4	0.0	247.3612518310547	
53	168.19056797027588	movie	1		170.0	51.0	2.5	/experiments/knapen_aot/videos/R_S_P007_C027_UHD_SDR_2K_AVC.mp4	0.0	247.37683081626892	2.5083439350128174
53	170.6989119052887	fix_post	2		12.0	51.0	2.5	/experiments/knapen_aot/videos/R_S_P007_C027_UHD_SDR_2K_AVC.mp4	0.0	249.88517475128174	0.09997701644897461
54	170.79888892173767	fix_pre	0		45.0	52.0	2.5	/experiments/knapen_aot/videos/S_Oo8otu7cQ20_112.mp4	0.0	249.9851517677307	0.37502002716064453
54	171.1657350063324	response	0	2		52.0	2.5	/experiments/knapen_aot/videos/S_Oo8otu7cQ20_112.mp4	0.0	250.35199785232544	
54	171.17390894889832	movie	1		299.0	52.0	2.5	/experiments/knapen_aot/videos/S_Oo8otu7cQ20_112.mp4	0.0	250.36017179489136	2.508296012878418
54	173.68220496177673	fix_post	2		12.0	52.0	2.5	/experiments/knapen_aot/videos/S_Oo8otu7cQ20_112.mp4	0.0	252.86846780776978	0.10005402565002441
55	173.78225898742676	fix_pre	0		86.0	53.0	2.5	/experiments/knapen_aot/videos/S_yt-8vm83GUgYxI_1.mp4	0.0	252.9685218334198	0.7166171073913574
55	174.49074006080627	response	0	2		53.0	2.5	/experiments/knapen_aot/videos/S_yt-8vm83GUgYxI_1.mp4	0.0	253.67700290679932	
55	174.49887609481812	movie	1		301.0	53.0	2.5	/experiments/knapen_aot/videos/S_yt-8vm83GUgYxI_1.mp4	0.0	253.68513894081116	2.5083718299865723
55	177.0072479248047	fix_post	2		12.0	53.0	2.5	/experiments/knapen_aot/videos/S_yt-8vm83GUgYxI_1.mp4	0.0	256.19351077079773	0.09996700286865234
56	177.10721492767334	fix_pre	0		66.0	54.0	2.5	/experiments/knapen_aot/videos/S_yt-2cwARrUMj40_67.mp4	0.0	256.2934777736664	0.5499281883239746
56	177.64906811714172	response	0	2		54.0	2.5	/experiments/knapen_aot/videos/S_yt-2cwARrUMj40_67.mp4	0.0	256.83533096313477	
56	177.65714311599731	movie	1		301.0	54.0	2.5	/experiments/knapen_aot/videos/S_yt-2cwARrUMj40_67.mp4	0.0	256.84340596199036	2.508430004119873
56	180.1655731201172	fix_post	2		12.0	54.0	2.5	/experiments/knapen_aot/videos/S_yt-2cwARrUMj40_67.mp4	0.0	259.35183596611023	0.10000300407409668
57	180.26557612419128	fix_pre	0		64.0	55.0	2.5	blank	1.0	259.4518389701843	0.5333089828491211
57	180.79076409339905	response	0	2		55.0	2.5	blank	1.0	259.9770269393921	
57	180.7988851070404	movie	1		301.0	55.0	2.5	blank	1.0	259.98514795303345	2.508281946182251
57	183.30716705322266	fix_post	2		12.0	55.0	2.5	blank	1.0	262.4934298992157	0.10007190704345703
58	183.4072389602661	fix_pre	0		99.0	56.0	2.5	/experiments/knapen_aot/videos/R_S_yt-etQaTgGOhR4_69.mp4	0.0	262.59350180625916	0.826261043548584
58	184.22407793998718	response	0	2		56.0	2.5	/experiments/knapen_aot/videos/R_S_yt-etQaTgGOhR4_69.mp4	0.0	263.4103407859802	
58	184.2335000038147	movie	1		301.0	56.0	2.5	/experiments/knapen_aot/videos/R_S_yt-etQaTgGOhR4_69.mp4	0.0	263.41976284980774	2.5070879459381104
58	186.7405879497528	fix_post	2		12.0	56.0	2.5	/experiments/knapen_aot/videos/R_S_yt-etQaTgGOhR4_69.mp4	0.0	265.92685079574585	0.09999513626098633
59	186.8405830860138	fix_pre	0		69.0	57.0	2.5	/experiments/knapen_aot/videos/S_I003_C015_SDR_2K_AVC.mp4	0.0	266.02684593200684	0.5749478340148926
59	187.40738701820374	response	0	2		57.0	2.5	/experiments/knapen_aot/videos/S_I003_C015_SDR_2K_AVC.mp4	0.0	266.5936498641968	
59	187.4155309200287	movie	1		167.0	57.0	2.5	/experiments/knapen_aot/videos/S_I003_C015_SDR_2K_AVC.mp4	0.0	266.60179376602173	2.508357048034668
59	189.92388796806335	fix_post	2		12.0	57.0	2.5	/experiments/knapen_aot/videos/S_I003_C015_SDR_2K_AVC.mp4	0.0	269.1101508140564	0.09990906715393066
60	190.02379703521729	fix_pre	0		97.0	58.0	2.5	/experiments/knapen_aot/videos/R_S_yt--a-d97T4Gak_75.mp4	0.0	269.2100598812103	0.808366060256958
60	190.82400798797607	response	0	2		58.0	2.5	/experiments/knapen_aot/videos/R_S_yt--a-d97T4Gak_75.mp4	0.0	270.0102708339691	
60	190.83216309547424	movie	1		301.0	58.0	2.5	/experiments/knapen_aot/videos/R_S_yt--a-d97T4Gak_75.mp4	0.0	270.0184259414673	2.5084228515625
60	193.34058594703674	fix_post	2		11.0	58.0	2.5	/experiments/knapen_aot/videos/R_S_yt--a-d97T4Gak_75.mp4	0.0	272.5268487930298	0.09986996650695801
61	193.4404559135437	fix_pre	0		75.0	59.0	2.5	/experiments/knapen_aot/videos/R_S_yt-fCjjH_4i8Fg_115.mp4	0.0	272.62671875953674	0.626291036605835
61	194.0572509765625	response	0	2		59.0	2.5	/experiments/knapen_aot/videos/R_S_yt-fCjjH_4i8Fg_115.mp4	0.0	273.24351382255554	
61	194.06674695014954	movie	1		301.0	59.0	2.5	/experiments/knapen_aot/videos/R_S_yt-fCjjH_4i8Fg_115.mp4	0.0	273.2530097961426	2.507042169570923
61	196.57378911972046	fix_post	2		12.0	59.0	2.5	/experiments/knapen_aot/videos/R_S_yt-fCjjH_4i8Fg_115.mp4	0.0	275.7600519657135	0.09998083114624023
62	196.6737699508667	fix_pre	0		95.0	60.0	2.5	/experiments/knapen_aot/videos/S_SPNvf6JCjGw_123.mp4	0.0	275.86003279685974	0.7916970252990723
62	197.4497139453888	response	0	2		60.0	2.5	/experiments/knapen_aot/videos/S_SPNvf6JCjGw_123.mp4	0.0	276.63597679138184	
62	197.46546697616577	movie	1		298.0	60.0	2.5	/experiments/knapen_aot/videos/S_SPNvf6JCjGw_123.mp4	0.0	276.6517298221588	2.5082850456237793
62	199.97375202178955	fix_post	2		12.0	60.0	2.5	/experiments/knapen_aot/videos/S_SPNvf6JCjGw_123.mp4	0.0	279.1600148677826	0.1000370979309082
63	200.07378911972046	fix_pre	0		90.0	61.0	2.5	/experiments/knapen_aot/videos/S_yt-cvwUZbYSd4Q_35.mp4	0.0	279.2600519657135	0.7499978542327881
63	200.8156750202179	response	0	2		61.0	2.5	/experiments/knapen_aot/videos/S_yt-cvwUZbYSd4Q_35.mp4	0.0	280.00193786621094	
63	200.82378697395325	movie	1		301.0	61.0	2.5	/experiments/knapen_aot/videos/S_yt-cvwUZbYSd4Q_35.mp4	0.0	280.0100498199463	2.508342981338501
63	203.33212995529175	fix_post	2		12.0	61.0	2.5	/experiments/knapen_aot/videos/S_yt-cvwUZbYSd4Q_35.mp4	0.0	282.5183928012848	0.0999441146850586
64	203.4320740699768	fix_pre	0		123.0	62.0	2.5	blank	1.0	282.61833691596985	1.0250020027160645
64	204.4488730430603	response	0	2		62.0	2.5	blank	1.0	283.63513588905334	
64	204.45707607269287	movie	1		301.0	62.0	2.5	blank	1.0	283.6433389186859	2.5083858966827393
64	206.9654619693756	fix_post	2		12.0	62.0	2.5	blank	1.0	286.15172481536865	0.09999704360961914
65	207.06545901298523	fix_pre	0		96.0	63.0	2.5	/experiments/knapen_aot/videos/S_yt-1UFhynm5g6Y_266.mp4	0.0	286.25172185897827	0.8000020980834961
65	207.85720491409302	response	0	2		63.0	2.5	/experiments/knapen_aot/videos/S_yt-1UFhynm5g6Y_266.mp4	0.0	287.04346776008606	
65	207.86546111106873	movie	1		299.0	63.0	2.5	/experiments/knapen_aot/videos/S_yt-1UFhynm5g6Y_266.mp4	0.0	287.05172395706177	2.5083439350128174
65	210.37380504608154	fix_post	2		12.0	63.0	2.5	/experiments/knapen_aot/videos/S_yt-1UFhynm5g6Y_266.mp4	0.0	289.5600678920746	0.10003209114074707
66	210.4738371372223	fix_pre	0		57.0	64.0	2.5	/experiments/knapen_aot/videos/R_S_yt-wqdTPz0bLrM_561.mp4	0.0	289.66009998321533	0.4749288558959961
66	210.94065499305725	response	0	2		64.0	2.5	/experiments/knapen_aot/videos/R_S_yt-wqdTPz0bLrM_561.mp4	0.0	290.1269178390503	
66	210.9487659931183	movie	1		301.0	64.0	2.5	/experiments/knapen_aot/videos/R_S_yt-wqdTPz0bLrM_561.mp4	0.0	290.1350288391113	2.5083680152893066
66	213.4571340084076	fix_post	2		12.0	64.0	2.5	/experiments/knapen_aot/videos/R_S_yt-wqdTPz0bLrM_561.mp4	0.0	292.64339685440063	0.09994912147521973
67	213.5570831298828	fix_pre	0		74.0	65.0	2.5	/experiments/knapen_aot/videos/S_comp_DB_D011_D009_SIGNCMP_v15_6Mbps.mp4	0.0	292.74334597587585	0.6166729927062988
67	214.16565608978271	response	0	2		65.0	2.5	/experiments/knapen_aot/videos/S_comp_DB_D011_D009_SIGNCMP_v15_6Mbps.mp4	0.0	293.35191893577576	
67	214.1737561225891	movie	1		168.0	65.0	2.5	/experiments/knapen_aot/videos/S_comp_DB_D011_D009_SIGNCMP_v15_6Mbps.mp4	0.0	293.36001896858215	2.508356809616089
67	216.6821129322052	fix_post	2		12.0	65.0	2.5	/experiments/knapen_aot/videos/S_comp_DB_D011_D009_SIGNCMP_v15_6Mbps.mp4	0.0	295.86837577819824	0.0999000072479248
68	216.78201293945312	fix_pre	0		102.0	66.0	2.5	/experiments/knapen_aot/videos/R_S_yt-FLMdajcbjcg_35.mp4	0.0	295.96827578544617	0.8500189781188965
68	217.6238889694214	response	0	2		66.0	2.5	/experiments/knapen_aot/videos/R_S_yt-FLMdajcbjcg_35.mp4	0.0	296.81015181541443	
68	217.63203191757202	movie	1		301.0	66.0	2.5	/experiments/knapen_aot/videos/R_S_yt-FLMdajcbjcg_35.mp4	0.0	296.81829476356506	2.508376121520996
68	220.14040803909302	fix_post	2		12.0	66.0	2.5	/experiments/knapen_aot/videos/R_S_yt-FLMdajcbjcg_35.mp4	0.0	299.32667088508606	0.10001206398010254
69	220.24042010307312	fix_pre	0		86.0	67.0	2.5	/experiments/knapen_aot/videos/R_S_yt-tHBOlYmaBuk_96.mp4	0.0	299.42668294906616	0.7166149616241455
69	220.94131112098694	response	0	2		67.0	2.5	/experiments/knapen_aot/videos/R_S_yt-tHBOlYmaBuk_96.mp4	0.0	300.12757396698	
69	220.95703506469727	movie	1		301.0	67.0	2.5	/experiments/knapen_aot/videos/R_S_yt-tHBOlYmaBuk_96.mp4	0.0	300.1432979106903	2.5083389282226562
69	223.46537399291992	fix_post	2		12.0	67.0	2.5	/experiments/knapen_aot/videos/R_S_yt-tHBOlYmaBuk_96.mp4	0.0	302.65163683891296	0.10000991821289062
70	223.5653839111328	fix_pre	0		145.0	68.0	2.5	blank	1.0	302.75164675712585	1.209402084350586
70	224.76568794250488	response	0	2		68.0	2.5	blank	1.0	303.9519507884979	
70	224.7747859954834	movie	1		301.0	68.0	2.5	blank	1.0	303.96104884147644	2.507167100906372
70	227.28195309638977	fix_post	2		12.0	68.0	2.5	blank	1.0	306.4682159423828	0.10010194778442383
71	227.3820550441742	fix_pre	0		156.0	69.0	2.5	/experiments/knapen_aot/videos/S_yt-qurTr1BJMec_244.mp4	0.0	306.56831789016724	1.3024330139160156
71	228.66631293296814	response	0	2		69.0	2.5	/experiments/knapen_aot/videos/S_yt-qurTr1BJMec_244.mp4	0.0	307.8525757789612	
71	228.6844880580902	movie	1		301.0	69.0	2.5	/experiments/knapen_aot/videos/S_yt-qurTr1BJMec_244.mp4	0.0	307.87075090408325	2.5058510303497314
71	231.19033908843994	fix_post	2		12.0	69.0	2.5	/experiments/knapen_aot/videos/S_yt-qurTr1BJMec_244.mp4	0.0	310.376601934433	0.10000205039978027
72	231.29034113883972	fix_pre	0		78.0	70.0	2.5	/experiments/knapen_aot/videos/R_S_yt-PP93D7b7Ni4_10.mp4	0.0	310.47660398483276	0.6510028839111328
72	231.93210291862488	response	0	2		70.0	2.5	/experiments/knapen_aot/videos/R_S_yt-PP93D7b7Ni4_10.mp4	0.0	311.1183657646179	
72	231.94134402275085	movie	1		301.0	70.0	2.5	/experiments/knapen_aot/videos/R_S_yt-PP93D7b7Ni4_10.mp4	0.0	311.1276068687439	2.507283926010132
72	234.448627948761	fix_post	2		12.0	70.0	2.5	/experiments/knapen_aot/videos/R_S_yt-PP93D7b7Ni4_10.mp4	0.0	313.634890794754	0.10001707077026367
73	234.54864501953125	fix_pre	0		68.0	71.0	2.5	/experiments/knapen_aot/videos/S_yt-PP93D7b7Ni4_10.mp4	0.0	313.7349078655243	0.566641092300415
73	235.1071810722351	response	0	2		71.0	2.5	/experiments/knapen_aot/videos/S_yt-PP93D7b7Ni4_10.mp4	0.0	314.29344391822815	
73	235.11528611183167	movie	1		299.0	71.0	2.5	/experiments/knapen_aot/videos/S_yt-PP93D7b7Ni4_10.mp4	0.0	314.3015489578247	2.5083370208740234
73	237.6236231327057	fix_post	2		12.0	71.0	2.5	/experiments/knapen_aot/videos/S_yt-PP93D7b7Ni4_10.mp4	0.0	316.80988597869873	0.10000085830688477
74	237.72362399101257	fix_pre	0		85.0	72.0	2.5	/experiments/knapen_aot/videos/R_S_yt-hvuC_2YXsTQ_73.mp4	0.0	316.9098868370056	0.7083370685577393
74	238.41633296012878	response	0	2		72.0	2.5	/experiments/knapen_aot/videos/R_S_yt-hvuC_2YXsTQ_73.mp4	0.0	317.6025958061218	
74	238.4319610595703	movie	1		301.0	72.0	2.5	/experiments/knapen_aot/videos/R_S_yt-hvuC_2YXsTQ_73.mp4	0.0	317.61822390556335	2.5083370208740234
74	240.94029808044434	fix_post	2		12.0	72.0	2.5	/experiments/knapen_aot/videos/R_S_yt-hvuC_2YXsTQ_73.mp4	0.0	320.1265609264374	0.09997701644897461
75	241.0402750968933	fix_pre	0		78.0	73.0	2.5	/experiments/knapen_aot/videos/R_S_yt-gikcYT6ZLzA_7.mp4	0.0	320.22653794288635	0.6509850025177002
75	241.68208408355713	response	0	2		73.0	2.5	/experiments/knapen_aot/videos/R_S_yt-gikcYT6ZLzA_7.mp4	0.0	320.86834692955017	
75	241.691260099411	movie	1		298.0	73.0	2.5	/experiments/knapen_aot/videos/R_S_yt-gikcYT6ZLzA_7.mp4	0.0	320.87752294540405	2.5073599815368652
75	244.19862008094788	fix_post	2		12.0	73.0	2.5	/experiments/knapen_aot/videos/R_S_yt-gikcYT6ZLzA_7.mp4	0.0	323.3848829269409	0.10002803802490234
76	244.29864811897278	fix_pre	0		40.0	74.0	2.5	/experiments/knapen_aot/videos/S_yt-SkIJvj6KNOo_33.mp4	0.0	323.4849109649658	0.33326101303100586
76	244.62374997138977	response	0	2		74.0	2.5	/experiments/knapen_aot/videos/S_yt-SkIJvj6KNOo_33.mp4	0.0	323.8100128173828	
76	244.63190913200378	movie	1		301.0	74.0	2.5	/experiments/knapen_aot/videos/S_yt-SkIJvj6KNOo_33.mp4	0.0	323.8181719779968	2.508405923843384
76	247.14031505584717	fix_post	2		12.0	74.0	2.5	/experiments/knapen_aot/videos/S_yt-SkIJvj6KNOo_33.mp4	0.0	326.3265779018402	0.0999760627746582
77	247.24029111862183	fix_pre	0		60.0	75.0	2.5	/experiments/knapen_aot/videos/S_yt-ujTY1igjc3E_2.mp4	0.0	326.42655396461487	0.49995899200439453
77	247.73197603225708	response	0	2		75.0	2.5	/experiments/knapen_aot/videos/S_yt-ujTY1igjc3E_2.mp4	0.0	326.9182388782501	
77	247.74025011062622	movie	1		299.0	75.0	2.5	/experiments/knapen_aot/videos/S_yt-ujTY1igjc3E_2.mp4	0.0	326.92651295661926	2.508344888687134
77	250.24859499931335	fix_post	2		12.0	75.0	2.5	/experiments/knapen_aot/videos/S_yt-ujTY1igjc3E_2.mp4	0.0	329.4348578453064	0.0999901294708252
78	250.34858512878418	fix_pre	0		81.0	76.0	2.5	/experiments/knapen_aot/videos/S_yt-deiWoIfK6vg_44.mp4	0.0	329.5348479747772	0.6760900020599365
78	251.01534509658813	response	0	2		76.0	2.5	/experiments/knapen_aot/videos/S_yt-deiWoIfK6vg_44.mp4	0.0	330.2016079425812	
78	251.02467513084412	movie	1		301.0	76.0	2.5	/experiments/knapen_aot/videos/S_yt-deiWoIfK6vg_44.mp4	0.0	330.21093797683716	2.507267951965332
78	253.53194308280945	fix_post	2		12.0	76.0	2.5	/experiments/knapen_aot/videos/S_yt-deiWoIfK6vg_44.mp4	0.0	332.7182059288025	0.09997797012329102
79	253.63192105293274	fix_pre	0		78.0	77.0	2.5	blank	1.0	332.8181838989258	0.6500439643859863
79	254.27373099327087	response	0	2		77.0	2.5	blank	1.0	333.4599938392639	
79	254.28196501731873	movie	1		301.0	77.0	2.5	blank	1.0	333.46822786331177	2.5083041191101074
79	256.79026913642883	fix_post	2		12.0	77.0	2.5	blank	1.0	335.9765319824219	0.09999990463256836
80	256.8902690410614	fix_pre	0		109.0	78.0	2.5	/experiments/knapen_aot/videos/R_S_yt-7K5X1G7Cpls_965.mp4	0.0	336.07653188705444	0.9083089828491211
80	257.7903800010681	response	0	2		78.0	2.5	/experiments/knapen_aot/videos/R_S_yt-7K5X1G7Cpls_965.mp4	0.0	336.97664284706116	
80	257.7985780239105	movie	1		301.0	78.0	2.5	/experiments/knapen_aot/videos/R_S_yt-7K5X1G7Cpls_965.mp4	0.0	336.98484086990356	2.508373975753784
80	260.3069519996643	fix_post	2		12.0	78.0	2.5	/experiments/knapen_aot/videos/R_S_yt-7K5X1G7Cpls_965.mp4	0.0	339.49321484565735	0.10003304481506348
81	260.40698504447937	fix_pre	0		100.0	79.0	2.5	/experiments/knapen_aot/videos/S_yt-XY1n_Oze1kQ_9.mp4	0.0	339.5932478904724	0.8332328796386719
81	261.2320759296417	response	0	2		79.0	2.5	/experiments/knapen_aot/videos/S_yt-XY1n_Oze1kQ_9.mp4	0.0	340.41833877563477	
81	261.24021792411804	movie	1		300.0	79.0	2.5	/experiments/knapen_aot/videos/S_yt-XY1n_Oze1kQ_9.mp4	0.0	340.4264807701111	2.50835919380188
81	263.7485771179199	fix_post	2		12.0	79.0	2.5	/experiments/knapen_aot/videos/S_yt-XY1n_Oze1kQ_9.mp4	0.0	342.93483996391296	0.09999990463256836
82	263.8485770225525	fix_pre	0		74.0	80.0	2.5	/experiments/knapen_aot/videos/S_wc-TAGpcap1KdAS_212.mp4	0.0	343.03483986854553	0.6166379451751709
82	264.4570529460907	response	0	2		80.0	2.5	/experiments/knapen_aot/videos/S_wc-TAGpcap1KdAS_212.mp4	0.0	343.64331579208374	
82	264.46521496772766	movie	1		301.0	80.0	2.5	/experiments/knapen_aot/videos/S_wc-TAGpcap1KdAS_212.mp4	0.0	343.6514778137207	2.508358955383301
82	266.97357392311096	fix_post	2		12.0	80.0	2.5	/experiments/knapen_aot/videos/S_wc-TAGpcap1KdAS_212.mp4	0.0	346.159836769104	0.10000205039978027
83	267.07357597351074	fix_pre	0		96.0	81.0	2.5	/experiments/knapen_aot/videos/S_production_ID_4325585.mp4	0.0	346.2598388195038	0.7999341487884521
83	267.86535000801086	response	0	2		81.0	2.5	/experiments/knapen_aot/videos/S_production_ID_4325585.mp4	0.0	347.0516128540039	
83	267.8735101222992	movie	1		195.0	81.0	2.5	/experiments/knapen_aot/videos/S_production_ID_4325585.mp4	0.0	347.05977296829224	2.508335828781128
83	270.3818459510803	fix_post	2		12.0	81.0	2.5	/experiments/knapen_aot/videos/S_production_ID_4325585.mp4	0.0	349.56810879707336	0.10004305839538574
84	270.4818890094757	fix_pre	0		90.0	82.0	2.5	/experiments/knapen_aot/videos/S_yt--C2DDZ7LOQA_95.mp4	0.0	349.66815185546875	0.7507929801940918
84	271.2237241268158	response	0	2		82.0	2.5	/experiments/knapen_aot/videos/S_yt--C2DDZ7LOQA_95.mp4	0.0	350.40998697280884	
84	271.2326819896698	movie	1		301.0	82.0	2.5	/experiments/knapen_aot/videos/S_yt--C2DDZ7LOQA_95.mp4	0.0	350.41894483566284	2.5074679851531982
84	273.740149974823	fix_post	2		12.0	82.0	2.5	/experiments/knapen_aot/videos/S_yt--C2DDZ7LOQA_95.mp4	0.0	352.92641282081604	0.100006103515625
85	273.8401560783386	fix_pre	0		76.0	83.0	2.5	blank	1.0	353.02641892433167	0.6333329677581787
85	274.4653260707855	response	0	2		83.0	2.5	blank	1.0	353.65158891677856	
85	274.4734890460968	movie	1		301.0	83.0	2.5	blank	1.0	353.65975189208984	2.508310079574585
85	276.9817991256714	fix_post	2		12.0	83.0	2.5	blank	1.0	356.16806197166443	0.10000181198120117
87	277.0818009376526	stim	0		141.0					356.26806378364563	1.1786341667175293
87	278.2515149116516	response	0	space						357.43777775764465	
