trial_nr	onset	event_type	phase	response	nr_frames	movie_index	movie_duration	movie_file	blank	onset_abs	duration
0	0.15846800804138184	stim	0		67.0					103.25005602836609	0.5582180023193359
0	0.7010769844055176	response	0	space						103.79266500473022	
1	0.7166860103607178	stim	0		121.0					103.80827403068542	1.0083448886871338
1	1.5417160987854004	response	0	space						104.63330411911011	
1	1.7250308990478516	stim	1		120.0					104.81661891937256	0.9996371269226074
1	1.8000319004058838	response	1	space						104.89161992073059	
1	2.241260051727295	response	1	space						105.332848072052	
1	2.70045804977417	response	1	space						105.79204607009888	
2	2.724668025970459	fix_pre	0		52.0	0.0	2.5	/experiments/knapen_aot/oldvideos/R_S_yt-qF-69JWJX_Y_55.mp4	0.0	105.81625604629517	0.4331169128417969
2	3.1496410369873047	response	0	space		0.0	2.5	/experiments/knapen_aot/oldvideos/R_S_yt-qF-69JWJX_Y_55.mp4	0.0	106.24122905731201	
2	3.157784938812256	movie	1		300.0	0.0	2.5	/experiments/knapen_aot/oldvideos/R_S_yt-qF-69JWJX_Y_55.mp4	0.0	106.24937295913696	2.508496046066284
2	5.66628098487854	fix_post	2		12.0	0.0	2.5	/experiments/knapen_aot/oldvideos/R_S_yt-qF-69JWJX_Y_55.mp4	0.0	108.75786900520325	0.09991908073425293
3	5.766200065612793	fix_pre	0		77.0	1.0	2.5	/experiments/knapen_aot/oldvideos/S_video_inspire_california_big-sur_bixby_005.1080-h264.mp4	0.0	108.8577880859375	0.6416199207305908
3	6.404512882232666	response	0	2		1.0	2.5	/experiments/knapen_aot/oldvideos/S_video_inspire_california_big-sur_bixby_005.1080-h264.mp4	0.0	109.49610090255737	
3	6.407819986343384	movie	1		168.0	1.0	2.5	/experiments/knapen_aot/oldvideos/S_video_inspire_california_big-sur_bixby_005.1080-h264.mp4	0.0	109.49940800666809	2.508352041244507
3	8.91617202758789	fix_post	2		12.0	1.0	2.5	/experiments/knapen_aot/oldvideos/S_video_inspire_california_big-sur_bixby_005.1080-h264.mp4	0.0	112.0077600479126	0.1000220775604248
4	9.016194105148315	fix_pre	0		340.0	2.0	2.5	/experiments/knapen_aot/oldvideos/S_ILSVRC2015_train_00518001.mp4	0.0	112.10778212547302	2.833284854888916
4	11.833824872970581	response	0	2		2.0	2.5	/experiments/knapen_aot/oldvideos/S_ILSVRC2015_train_00518001.mp4	0.0	114.92541289329529	
4	11.849478960037231	movie	1		301.0	2.0	2.5	/experiments/knapen_aot/oldvideos/S_ILSVRC2015_train_00518001.mp4	0.0	114.94106698036194	2.5082929134368896
4	14.357771873474121	fix_post	2		12.0	2.0	2.5	/experiments/knapen_aot/oldvideos/S_ILSVRC2015_train_00518001.mp4	0.0	117.44935989379883	0.10004615783691406
5	14.457818031311035	fix_pre	0		25.0	3.0	2.5	/experiments/knapen_aot/oldvideos/R_S_I005_C008_CROP_SDR_2K_AVC.mp4	0.0	117.54940605163574	0.20833396911621094
5	14.65041995048523	response	0	2		3.0	2.5	/experiments/knapen_aot/oldvideos/R_S_I005_C008_CROP_SDR_2K_AVC.mp4	0.0	117.74200797080994	
5	14.666152000427246	movie	1		171.0	3.0	2.5	/experiments/knapen_aot/oldvideos/R_S_I005_C008_CROP_SDR_2K_AVC.mp4	0.0	117.75774002075195	2.5083870887756348
5	17.17453908920288	fix_post	2		12.0	3.0	2.5	/experiments/knapen_aot/oldvideos/R_S_I005_C008_CROP_SDR_2K_AVC.mp4	0.0	120.26612710952759	0.0999138355255127
6	17.274452924728394	fix_pre	0		4.0	4.0	2.5	/experiments/knapen_aot/oldvideos/S_yt-2ftSsLqRQnA_84.mp4	0.0	120.3660409450531	0.033406972885131836
6	17.292382955551147	response	0	2		4.0	2.5	/experiments/knapen_aot/oldvideos/S_yt-2ftSsLqRQnA_84.mp4	0.0	120.38397097587585	
6	17.307859897613525	movie	1		301.0	4.0	2.5	/experiments/knapen_aot/oldvideos/S_yt-2ftSsLqRQnA_84.mp4	0.0	120.39944791793823	2.5083441734313965
6	19.816204071044922	fix_post	2		12.0	4.0	2.5	/experiments/knapen_aot/oldvideos/S_yt-2ftSsLqRQnA_84.mp4	0.0	122.90779209136963	0.10000896453857422
7	19.916213035583496	fix_pre	0		28.0	5.0	2.5	blank	1.0	123.0078010559082	0.2340989112854004
7	20.14132809638977	response	0	2		5.0	2.5	blank	1.0	123.23291611671448	
7	20.150311946868896	movie	1		301.0	5.0	2.5	blank	1.0	123.2418999671936	2.507550001144409
7	22.657861948013306	fix_post	2		12.0	5.0	2.5	blank	1.0	125.74944996833801	0.0999910831451416
8	22.757853031158447	fix_pre	0		19.0	6.0	2.5	/experiments/knapen_aot/oldvideos/S_yt-_BvMLZo0MG0_1226.mp4	0.0	125.84944105148315	0.15824103355407715
8	22.907896041870117	response	0	2		6.0	2.5	/experiments/knapen_aot/oldvideos/S_yt-_BvMLZo0MG0_1226.mp4	0.0	125.99948406219482	
8	22.916094064712524	movie	1		301.0	6.0	2.5	/experiments/knapen_aot/oldvideos/S_yt-_BvMLZo0MG0_1226.mp4	0.0	126.00768208503723	2.5083909034729004
8	25.424484968185425	fix_post	2		12.0	6.0	2.5	/experiments/knapen_aot/oldvideos/S_yt-_BvMLZo0MG0_1226.mp4	0.0	128.51607298851013	0.09999394416809082
9	25.524478912353516	fix_pre	0		26.0	7.0	2.5	/experiments/knapen_aot/oldvideos/R_S_yt-738MRS0yI6g_177.mp4	0.0	128.61606693267822	0.21663117408752441
9	25.73294496536255	response	0	2		7.0	2.5	/experiments/knapen_aot/oldvideos/R_S_yt-738MRS0yI6g_177.mp4	0.0	128.82453298568726	
9	25.74111008644104	movie	1		301.0	7.0	2.5	/experiments/knapen_aot/oldvideos/R_S_yt-738MRS0yI6g_177.mp4	0.0	128.83269810676575	2.508455991744995
9	28.249566078186035	fix_post	2		12.0	7.0	2.5	/experiments/knapen_aot/oldvideos/R_S_yt-738MRS0yI6g_177.mp4	0.0	131.34115409851074	0.09993982315063477
10	28.34950590133667	fix_pre	0		37.0	8.0	2.5	/experiments/knapen_aot/oldvideos/S_yt-Gc1p5CnDbDY_22.mp4	0.0	131.44109392166138	0.3082461357116699
10	28.64954710006714	response	0	2		8.0	2.5	/experiments/knapen_aot/oldvideos/S_yt-Gc1p5CnDbDY_22.mp4	0.0	131.74113512039185	
10	28.65775203704834	movie	1		301.0	8.0	2.5	/experiments/knapen_aot/oldvideos/S_yt-Gc1p5CnDbDY_22.mp4	0.0	131.74934005737305	2.508358955383301
10	31.16611099243164	fix_post	2		12.0	8.0	2.5	/experiments/knapen_aot/oldvideos/S_yt-Gc1p5CnDbDY_22.mp4	0.0	134.25769901275635	0.09993910789489746
11	31.266050100326538	fix_pre	0		44.0	9.0	2.5	/experiments/knapen_aot/oldvideos/R_S_yt-wE0cEswyaaM_53.mp4	0.0	134.35763812065125	0.3666648864746094
11	31.624499082565308	response	0	2		9.0	2.5	/experiments/knapen_aot/oldvideos/R_S_yt-wE0cEswyaaM_53.mp4	0.0	134.71608710289001	
11	31.632714986801147	movie	1		301.0	9.0	2.5	/experiments/knapen_aot/oldvideos/R_S_yt-wE0cEswyaaM_53.mp4	0.0	134.72430300712585	2.5083529949188232
11	34.14106798171997	fix_post	2		12.0	9.0	2.5	/experiments/knapen_aot/oldvideos/R_S_yt-wE0cEswyaaM_53.mp4	0.0	137.23265600204468	0.10024094581604004
12	34.24130892753601	fix_pre	0		46.0	10.0	2.5	/experiments/knapen_aot/oldvideos/R_S_pexels-diva-plavalaguna-6985395.mp4	0.0	137.33289694786072	0.38301515579223633
12	34.61615610122681	response	0	2		10.0	2.5	/experiments/knapen_aot/oldvideos/R_S_pexels-diva-plavalaguna-6985395.mp4	0.0	137.7077441215515	
12	34.62432408332825	movie	1		163.0	10.0	2.5	/experiments/knapen_aot/oldvideos/R_S_pexels-diva-plavalaguna-6985395.mp4	0.0	137.71591210365295	2.5083630084991455
12	37.13268709182739	fix_post	2		12.0	10.0	2.5	/experiments/knapen_aot/oldvideos/R_S_pexels-diva-plavalaguna-6985395.mp4	0.0	140.2242751121521	0.10003399848937988
13	37.23272109031677	fix_pre	0		7.0	11.0	2.5	/experiments/knapen_aot/oldvideos/R_S_yt-D6fhzH21T_E_26.mp4	0.0	140.32430911064148	0.05829977989196777
13	37.28280305862427	response	0	2		11.0	2.5	/experiments/knapen_aot/oldvideos/R_S_yt-D6fhzH21T_E_26.mp4	0.0	140.37439107894897	
13	37.29102087020874	movie	1		301.0	11.0	2.5	/experiments/knapen_aot/oldvideos/R_S_yt-D6fhzH21T_E_26.mp4	0.0	140.38260889053345	2.508406162261963
13	39.7994270324707	fix_post	2		12.0	11.0	2.5	/experiments/knapen_aot/oldvideos/R_S_yt-D6fhzH21T_E_26.mp4	0.0	142.8910150527954	0.09988784790039062
14	39.899314880371094	fix_pre	0		30.0	12.0	2.5	/experiments/knapen_aot/oldvideos/S_wc-PX_MIe5L43_3_16.mp4	0.0	142.9909029006958	0.25099611282348633
14	40.14118003845215	response	0	2		12.0	2.5	/experiments/knapen_aot/oldvideos/S_wc-PX_MIe5L43_3_16.mp4	0.0	143.23276805877686	
14	40.15031099319458	movie	1		301.0	12.0	2.5	/experiments/knapen_aot/oldvideos/S_wc-PX_MIe5L43_3_16.mp4	0.0	143.2418990135193	2.50757098197937
14	42.65788197517395	fix_post	2		12.0	12.0	2.5	/experiments/knapen_aot/oldvideos/S_wc-PX_MIe5L43_3_16.mp4	0.0	145.74946999549866	0.09973812103271484
15	42.757620096206665	fix_pre	0		34.0	13.0	2.5	/experiments/knapen_aot/oldvideos/S_yt-316ecr1BT84_44.mp4	0.0	145.84920811653137	0.28342700004577637
15	43.0327410697937	response	0	2		13.0	2.5	/experiments/knapen_aot/oldvideos/S_yt-316ecr1BT84_44.mp4	0.0	146.1243290901184	
15	43.04104709625244	movie	1		301.0	13.0	2.5	/experiments/knapen_aot/oldvideos/S_yt-316ecr1BT84_44.mp4	0.0	146.13263511657715	2.508286952972412
15	45.54933404922485	fix_post	2		12.0	13.0	2.5	/experiments/knapen_aot/oldvideos/S_yt-316ecr1BT84_44.mp4	0.0	148.64092206954956	0.0999448299407959
16	45.64927887916565	fix_pre	0		210.0	14.0	2.5	blank	1.0	148.74086689949036	1.7507450580596924
16	47.39104700088501	response	0	2		14.0	2.5	blank	1.0	150.48263502120972	
16	47.40002393722534	movie	1		301.0	14.0	2.5	blank	1.0	150.49161195755005	2.5076351165771484
16	49.90765905380249	fix_post	2		12.0	14.0	2.5	blank	1.0	152.9992470741272	0.10001087188720703
17	50.0076699256897	fix_pre	0		38.0	15.0	2.5	/experiments/knapen_aot/oldvideos/R_S_yt-a0axt7n0GuQ_19.mp4	0.0	153.0992579460144	0.31660914421081543
17	50.316226959228516	response	0	2		15.0	2.5	/experiments/knapen_aot/oldvideos/R_S_yt-a0axt7n0GuQ_19.mp4	0.0	153.40781497955322	
17	50.32427906990051	movie	1		301.0	15.0	2.5	/experiments/knapen_aot/oldvideos/R_S_yt-a0axt7n0GuQ_19.mp4	0.0	153.41586709022522	2.5085439682006836
17	52.832823038101196	fix_post	2		12.0	15.0	2.5	/experiments/knapen_aot/oldvideos/R_S_yt-a0axt7n0GuQ_19.mp4	0.0	155.9244110584259	0.09981989860534668
18	52.93264293670654	fix_pre	0		24.0	16.0	2.5	/experiments/knapen_aot/oldvideos/R_S_production_ID_4707837.mp4	0.0	156.02423095703125	0.1999831199645996
18	53.1244010925293	response	0	2		16.0	2.5	/experiments/knapen_aot/oldvideos/R_S_production_ID_4707837.mp4	0.0	156.215989112854	
18	53.13262605667114	movie	1		166.0	16.0	2.5	/experiments/knapen_aot/oldvideos/R_S_production_ID_4707837.mp4	0.0	156.22421407699585	2.508363962173462
18	55.640990018844604	fix_post	2		12.0	16.0	2.5	/experiments/knapen_aot/oldvideos/R_S_production_ID_4707837.mp4	0.0	158.7325780391693	0.10013699531555176
19	55.741127014160156	fix_pre	0		17.0	17.0	2.5	/experiments/knapen_aot/oldvideos/R_S_CR_A009_C007_SDR_20191113_SDR_2K_AVC.mp4	0.0	158.83271503448486	0.14147400856018066
19	55.87427997589111	response	0	2		17.0	2.5	/experiments/knapen_aot/oldvideos/R_S_CR_A009_C007_SDR_20191113_SDR_2K_AVC.mp4	0.0	158.96586799621582	
19	55.88260102272034	movie	1		164.0	17.0	2.5	/experiments/knapen_aot/oldvideos/R_S_CR_A009_C007_SDR_20191113_SDR_2K_AVC.mp4	0.0	158.97418904304504	2.5083298683166504
19	58.39093089103699	fix_post	2		12.0	17.0	2.5	/experiments/knapen_aot/oldvideos/R_S_CR_A009_C007_SDR_20191113_SDR_2K_AVC.mp4	0.0	161.4825189113617	0.10000920295715332
20	58.49094009399414	fix_pre	0		165.0	18.0	2.5	/experiments/knapen_aot/oldvideos/R_S_yt-qF-69JWJX_Y_55.mp4	0.0	161.58252811431885	1.375079870223999
20	59.85775804519653	response	0	2		18.0	2.5	/experiments/knapen_aot/oldvideos/R_S_yt-qF-69JWJX_Y_55.mp4	0.0	162.94934606552124	
20	59.86601996421814	movie	1		301.0	18.0	2.5	/experiments/knapen_aot/oldvideos/R_S_yt-qF-69JWJX_Y_55.mp4	0.0	162.95760798454285	2.508286952972412
20	62.37430691719055	fix_post	2		12.0	18.0	2.5	/experiments/knapen_aot/oldvideos/R_S_yt-qF-69JWJX_Y_55.mp4	0.0	165.46589493751526	0.0998990535736084
21	62.47420597076416	fix_pre	0		83.0	19.0	2.5	blank	1.0	165.56579399108887	0.6917200088500977
21	63.157752990722656	response	0	2		19.0	2.5	blank	1.0	166.24934101104736	
21	63.16592597961426	movie	1		301.0	19.0	2.5	blank	1.0	166.25751399993896	2.5083260536193848
21	65.67425203323364	fix_post	2		12.0	19.0	2.5	blank	1.0	168.76584005355835	0.09999799728393555
22	65.77425003051758	fix_pre	0		34.0	20.0	2.5	/experiments/knapen_aot/oldvideos/S_yt-3eQHOLBzOqA_100.mp4	0.0	168.86583805084229	0.2832808494567871
22	66.04940104484558	response	0	2		20.0	2.5	/experiments/knapen_aot/oldvideos/S_yt-3eQHOLBzOqA_100.mp4	0.0	169.1409890651703	
22	66.05753087997437	movie	1		301.0	20.0	2.5	/experiments/knapen_aot/oldvideos/S_yt-3eQHOLBzOqA_100.mp4	0.0	169.14911890029907	2.5084052085876465
22	68.56593608856201	fix_post	2		12.0	20.0	2.5	/experiments/knapen_aot/oldvideos/S_yt-3eQHOLBzOqA_100.mp4	0.0	171.65752410888672	0.09986090660095215
23	68.66579699516296	fix_pre	0		123.0	21.0	2.5	/experiments/knapen_aot/oldvideos/R_S_g201_CA_A016_C002_SDR_20191114_SDR_2K_AVC.mp4	0.0	171.75738501548767	1.0256218910217285
23	69.68267297744751	response	0	2		21.0	2.5	/experiments/knapen_aot/oldvideos/R_S_g201_CA_A016_C002_SDR_20191114_SDR_2K_AVC.mp4	0.0	172.77426099777222	
23	69.69141888618469	movie	1		182.0	21.0	2.5	/experiments/knapen_aot/oldvideos/R_S_g201_CA_A016_C002_SDR_20191114_SDR_2K_AVC.mp4	0.0	172.7830069065094	2.507920026779175
23	72.19933891296387	fix_post	2		12.0	21.0	2.5	/experiments/knapen_aot/oldvideos/R_S_g201_CA_A016_C002_SDR_20191114_SDR_2K_AVC.mp4	0.0	175.29092693328857	0.09992504119873047
24	72.2992639541626	fix_pre	0		93.0	22.0	2.5	/experiments/knapen_aot/oldvideos/R_S_yt-giRwl4yChlw_9.mp4	0.0	175.3908519744873	0.7748899459838867
24	73.06603002548218	response	0	2		22.0	2.5	/experiments/knapen_aot/oldvideos/R_S_yt-giRwl4yChlw_9.mp4	0.0	176.15761804580688	
24	73.07415390014648	movie	1		301.0	22.0	2.5	/experiments/knapen_aot/oldvideos/R_S_yt-giRwl4yChlw_9.mp4	0.0	176.1657419204712	2.508376121520996
24	75.58253002166748	fix_post	2		12.0	22.0	2.5	/experiments/knapen_aot/oldvideos/R_S_yt-giRwl4yChlw_9.mp4	0.0	178.6741180419922	0.1000208854675293
25	75.68255090713501	fix_pre	0		31.0	23.0	2.5	/experiments/knapen_aot/oldvideos/R_S_comp_LA_A006_C008_PSNK_ALL_LOGOS_v10_SDR_PS_FINAL_20180801_SDR_2K_AVC.mp4	0.0	178.77413892745972	0.2589550018310547
25	75.93266105651855	response	0	2		23.0	2.5	/experiments/knapen_aot/oldvideos/R_S_comp_LA_A006_C008_PSNK_ALL_LOGOS_v10_SDR_PS_FINAL_20180801_SDR_2K_AVC.mp4	0.0	179.02424907684326	
25	75.94150590896606	movie	1		172.0	23.0	2.5	/experiments/knapen_aot/oldvideos/R_S_comp_LA_A006_C008_PSNK_ALL_LOGOS_v10_SDR_PS_FINAL_20180801_SDR_2K_AVC.mp4	0.0	179.03309392929077	2.507812023162842
25	78.4493179321289	fix_post	2		12.0	23.0	2.5	/experiments/knapen_aot/oldvideos/R_S_comp_LA_A006_C008_PSNK_ALL_LOGOS_v10_SDR_PS_FINAL_20180801_SDR_2K_AVC.mp4	0.0	181.5409059524536	0.0998990535736084
26	78.54921698570251	fix_pre	0		327.0	24.0	2.5	/experiments/knapen_aot/oldvideos/R_S_yt-QqSceHxY3d0_356.mp4	0.0	181.64080500602722	2.7255380153656006
26	81.26601696014404	response	0	2		24.0	2.5	/experiments/knapen_aot/oldvideos/R_S_yt-QqSceHxY3d0_356.mp4	0.0	184.35760498046875	
26	81.27475500106812	movie	1		301.0	24.0	2.5	/experiments/knapen_aot/oldvideos/R_S_yt-QqSceHxY3d0_356.mp4	0.0	184.36634302139282	2.507797956466675
26	83.78255295753479	fix_post	2		12.0	24.0	2.5	/experiments/knapen_aot/oldvideos/R_S_yt-QqSceHxY3d0_356.mp4	0.0	186.8741409778595	0.09995794296264648
27	83.88251090049744	fix_pre	0		136.0	25.0	2.5	/experiments/knapen_aot/oldvideos/R_S_yt-vDjj0EWFdIU_49.mp4	0.0	186.97409892082214	1.1333131790161133
27	85.007728099823	response	0	2		25.0	2.5	/experiments/knapen_aot/oldvideos/R_S_yt-vDjj0EWFdIU_49.mp4	0.0	188.0993161201477	
27	85.01582407951355	movie	1		301.0	25.0	2.5	/experiments/knapen_aot/oldvideos/R_S_yt-vDjj0EWFdIU_49.mp4	0.0	188.10741209983826	2.508401870727539
27	87.52422595024109	fix_post	2		12.0	25.0	2.5	/experiments/knapen_aot/oldvideos/R_S_yt-vDjj0EWFdIU_49.mp4	0.0	190.6158139705658	0.10000395774841309
28	87.6242299079895	fix_pre	0		38.0	26.0	2.5	/experiments/knapen_aot/oldvideos/S_yt-n6aLw10f2Yw_317.mp4	0.0	190.7158179283142	0.3171060085296631
28	87.92511487007141	response	0	2		26.0	2.5	/experiments/knapen_aot/oldvideos/S_yt-n6aLw10f2Yw_317.mp4	0.0	191.01670289039612	
28	87.94133591651917	movie	1		301.0	26.0	2.5	/experiments/knapen_aot/oldvideos/S_yt-n6aLw10f2Yw_317.mp4	0.0	191.03292393684387	2.507833957672119
28	90.44916987419128	fix_post	2		12.0	26.0	2.5	/experiments/knapen_aot/oldvideos/S_yt-n6aLw10f2Yw_317.mp4	0.0	193.540757894516	0.09991312026977539
29	90.54908299446106	fix_pre	0		49.0	27.0	2.5	/experiments/knapen_aot/oldvideos/R_S_comp_GMT329_113NC_396B_1105_ITALY_v03_SDR_FINAL_20180706_SDR_2K_AVC.mp4	0.0	193.64067101478577	0.40838003158569336
29	90.94925689697266	response	0	2		27.0	2.5	/experiments/knapen_aot/oldvideos/R_S_comp_GMT329_113NC_396B_1105_ITALY_v03_SDR_FINAL_20180706_SDR_2K_AVC.mp4	0.0	194.04084491729736	
29	90.95746302604675	movie	1		170.0	27.0	2.5	/experiments/knapen_aot/oldvideos/R_S_comp_GMT329_113NC_396B_1105_ITALY_v03_SDR_FINAL_20180706_SDR_2K_AVC.mp4	0.0	194.04905104637146	2.5084140300750732
29	93.46587705612183	fix_post	2		12.0	27.0	2.5	/experiments/knapen_aot/oldvideos/R_S_comp_GMT329_113NC_396B_1105_ITALY_v03_SDR_FINAL_20180706_SDR_2K_AVC.mp4	0.0	196.55746507644653	0.10048103332519531
30	93.56635808944702	fix_pre	0		2.0	28.0	2.5	blank	1.0	196.65794610977173	0.016151905059814453
30	93.57439494132996	response	0	2		28.0	2.5	blank	1.0	196.66598296165466	
30	93.58250999450684	movie	1		301.0	28.0	2.5	blank	1.0	196.67409801483154	2.5082790851593018
30	96.09078907966614	fix_post	2		12.0	28.0	2.5	blank	1.0	199.18237709999084	0.10056686401367188
31	96.19135594367981	fix_pre	0		223.0	29.0	2.5	/experiments/knapen_aot/oldvideos/S_yt-bwSRV1Vr21s_435.mp4	0.0	199.28294396400452	1.857694149017334
31	98.04094696044922	response	0	2		29.0	2.5	/experiments/knapen_aot/oldvideos/S_yt-bwSRV1Vr21s_435.mp4	0.0	201.13253498077393	
31	98.04905009269714	movie	1		301.0	29.0	2.5	/experiments/knapen_aot/oldvideos/S_yt-bwSRV1Vr21s_435.mp4	0.0	201.14063811302185	2.508283853530884
31	100.55733394622803	fix_post	2		12.0	29.0	2.5	/experiments/knapen_aot/oldvideos/S_yt-bwSRV1Vr21s_435.mp4	0.0	203.64892196655273	0.1000981330871582
32	100.65743207931519	fix_pre	0		40.0	30.0	2.5	/experiments/knapen_aot/oldvideos/R_S_comp_GMT329_113NC_396B_1105_ITALY_v03_SDR_FINAL_20180706_SDR_2K_AVC.mp4	0.0	203.7490200996399	0.333298921585083
32	100.9825348854065	response	0	2		30.0	2.5	/experiments/knapen_aot/oldvideos/R_S_comp_GMT329_113NC_396B_1105_ITALY_v03_SDR_FINAL_20180706_SDR_2K_AVC.mp4	0.0	204.0741229057312	
32	100.99073100090027	movie	1		166.0	30.0	2.5	/experiments/knapen_aot/oldvideos/R_S_comp_GMT329_113NC_396B_1105_ITALY_v03_SDR_FINAL_20180706_SDR_2K_AVC.mp4	0.0	204.08231902122498	2.5084240436553955
32	103.49915504455566	fix_post	2		12.0	30.0	2.5	/experiments/knapen_aot/oldvideos/R_S_comp_GMT329_113NC_396B_1105_ITALY_v03_SDR_FINAL_20180706_SDR_2K_AVC.mp4	0.0	206.59074306488037	0.10011696815490723
33	103.59927201271057	fix_pre	0		8.0	31.0	2.5	/experiments/knapen_aot/oldvideos/R_S_yt-452RKqKIeRU_16.mp4	0.0	206.69086003303528	0.06645393371582031
33	103.65767192840576	response	0	2		31.0	2.5	/experiments/knapen_aot/oldvideos/R_S_yt-452RKqKIeRU_16.mp4	0.0	206.74925994873047	
33	103.66572594642639	movie	1		301.0	31.0	2.5	/experiments/knapen_aot/oldvideos/R_S_yt-452RKqKIeRU_16.mp4	0.0	206.7573139667511	2.50829815864563
33	106.17402410507202	fix_post	2		12.0	31.0	2.5	/experiments/knapen_aot/oldvideos/R_S_yt-452RKqKIeRU_16.mp4	0.0	209.26561212539673	0.1000828742980957
34	106.27410697937012	fix_pre	0		215.0	32.0	2.5	/experiments/knapen_aot/oldvideos/R_S_yt-VxTTEZNJWjs_110.mp4	0.0	209.36569499969482	1.7920269966125488
34	108.05750393867493	response	0	2		32.0	2.5	/experiments/knapen_aot/oldvideos/R_S_yt-VxTTEZNJWjs_110.mp4	0.0	211.14909195899963	
34	108.06613397598267	movie	1		301.0	32.0	2.5	/experiments/knapen_aot/oldvideos/R_S_yt-VxTTEZNJWjs_110.mp4	0.0	211.15772199630737	2.507905960083008
34	110.57403993606567	fix_post	2		12.0	32.0	2.5	/experiments/knapen_aot/oldvideos/R_S_yt-VxTTEZNJWjs_110.mp4	0.0	213.66562795639038	0.1000220775604248
35	110.6740620136261	fix_pre	0		50.0	33.0	2.5	/experiments/knapen_aot/oldvideos/S_pexels-kindel-media-8164443.mp4	0.0	213.7656500339508	0.4167790412902832
35	111.08255195617676	response	0	2		33.0	2.5	/experiments/knapen_aot/oldvideos/S_pexels-kindel-media-8164443.mp4	0.0	214.17413997650146	
35	111.09084105491638	movie	1		168.0	33.0	2.5	/experiments/knapen_aot/oldvideos/S_pexels-kindel-media-8164443.mp4	0.0	214.1824290752411	2.5082099437713623
35	113.59905099868774	fix_post	2		12.0	33.0	2.5	/experiments/knapen_aot/oldvideos/S_pexels-kindel-media-8164443.mp4	0.0	216.69063901901245	0.10000109672546387
36	113.69905209541321	fix_pre	0		14.0	34.0	2.5	/experiments/knapen_aot/oldvideos/S_yt-ayx4rU9bJrU_179.mp4	0.0	216.79064011573792	0.11704897880554199
36	113.8075110912323	response	0	2		34.0	2.5	/experiments/knapen_aot/oldvideos/S_yt-ayx4rU9bJrU_179.mp4	0.0	216.899099111557	
36	113.81610107421875	movie	1		301.0	34.0	2.5	/experiments/knapen_aot/oldvideos/S_yt-ayx4rU9bJrU_179.mp4	0.0	216.90768909454346	2.507956027984619
36	116.32405710220337	fix_post	2		12.0	34.0	2.5	/experiments/knapen_aot/oldvideos/S_yt-ayx4rU9bJrU_179.mp4	0.0	219.41564512252808	0.09993886947631836
37	116.42399597167969	fix_pre	0		196.0	35.0	2.5	blank	1.0	219.5155839920044	1.6333119869232178
37	118.0491418838501	response	0	2		35.0	2.5	blank	1.0	221.1407299041748	
37	118.0573079586029	movie	1		301.0	35.0	2.5	blank	1.0	221.1488959789276	2.508315086364746
37	120.56562304496765	fix_post	2		12.0	35.0	2.5	blank	1.0	223.65721106529236	0.10015106201171875
38	120.66577410697937	fix_pre	0		37.0	36.0	2.5	/experiments/knapen_aot/oldvideos/S_yt-nE8YJOhW4e4_171.mp4	0.0	223.75736212730408	0.30823397636413574
38	120.96576809883118	response	0	2		36.0	2.5	/experiments/knapen_aot/oldvideos/S_yt-nE8YJOhW4e4_171.mp4	0.0	224.05735611915588	
38	120.9740080833435	movie	1		301.0	36.0	2.5	/experiments/knapen_aot/oldvideos/S_yt-nE8YJOhW4e4_171.mp4	0.0	224.0655961036682	2.508333921432495
38	123.482342004776	fix_post	2		12.0	36.0	2.5	/experiments/knapen_aot/oldvideos/S_yt-nE8YJOhW4e4_171.mp4	0.0	226.5739300251007	0.10000395774841309
39	123.58234596252441	fix_pre	0		218.0	37.0	2.5	/experiments/knapen_aot/oldvideos/R_S_pexels-roman-odintsov-8232443.mp4	0.0	226.67393398284912	1.8169569969177246
39	125.39077305793762	response	0	2		37.0	2.5	/experiments/knapen_aot/oldvideos/R_S_pexels-roman-odintsov-8232443.mp4	0.0	228.48236107826233	
39	125.39930295944214	movie	1		205.0	37.0	2.5	/experiments/knapen_aot/oldvideos/R_S_pexels-roman-odintsov-8232443.mp4	0.0	228.49089097976685	2.5080111026763916
39	127.90731406211853	fix_post	2		12.0	37.0	2.5	/experiments/knapen_aot/oldvideos/R_S_pexels-roman-odintsov-8232443.mp4	0.0	230.99890208244324	0.09993696212768555
40	128.00725102424622	fix_pre	0		46.0	38.0	2.5	/experiments/knapen_aot/oldvideos/S_ILSVRC2015_train_00042002.mp4	0.0	231.09883904457092	0.3833000659942627
40	128.3824188709259	response	0	2		38.0	2.5	/experiments/knapen_aot/oldvideos/S_ILSVRC2015_train_00042002.mp4	0.0	231.4740068912506	
40	128.39055109024048	movie	1		301.0	38.0	2.5	/experiments/knapen_aot/oldvideos/S_ILSVRC2015_train_00042002.mp4	0.0	231.48213911056519	2.508539915084839
40	130.89909100532532	fix_post	2		12.0	38.0	2.5	/experiments/knapen_aot/oldvideos/S_ILSVRC2015_train_00042002.mp4	0.0	233.99067902565002	0.09984493255615234
41	130.99893593788147	fix_pre	0		30.0	39.0	2.5	/experiments/knapen_aot/oldvideos/S_yt-C0iWlRWU21o_5.mp4	0.0	234.09052395820618	0.24994206428527832
41	131.23309087753296	response	0	2		39.0	2.5	/experiments/knapen_aot/oldvideos/S_yt-C0iWlRWU21o_5.mp4	0.0	234.32467889785767	
41	131.24887800216675	movie	1		301.0	39.0	2.5	/experiments/knapen_aot/oldvideos/S_yt-C0iWlRWU21o_5.mp4	0.0	234.34046602249146	2.508502960205078
41	133.75738096237183	fix_post	2		12.0	39.0	2.5	/experiments/knapen_aot/oldvideos/S_yt-C0iWlRWU21o_5.mp4	0.0	236.84896898269653	0.1002190113067627
42	133.8575999736786	fix_pre	0		113.0	40.0	2.5	/experiments/knapen_aot/oldvideos/S_yt-4BAsE47kJNk_88.mp4	0.0	236.9491879940033	0.941338062286377
42	134.7907679080963	response	0	2		40.0	2.5	/experiments/knapen_aot/oldvideos/S_yt-4BAsE47kJNk_88.mp4	0.0	237.88235592842102	
42	134.79893803596497	movie	1		301.0	40.0	2.5	/experiments/knapen_aot/oldvideos/S_yt-4BAsE47kJNk_88.mp4	0.0	237.89052605628967	2.5083420276641846
42	137.30728006362915	fix_post	2		12.0	40.0	2.5	/experiments/knapen_aot/oldvideos/S_yt-4BAsE47kJNk_88.mp4	0.0	240.39886808395386	0.09991788864135742
43	137.4071979522705	fix_pre	0		49.0	41.0	2.5	/experiments/knapen_aot/oldvideos/R_S_wc-eJe3wXMgTLRV_20.mp4	0.0	240.49878597259521	0.40861010551452637
43	137.8073558807373	response	0	2		41.0	2.5	/experiments/knapen_aot/oldvideos/R_S_wc-eJe3wXMgTLRV_20.mp4	0.0	240.898943901062	
43	137.81580805778503	movie	1		166.0	41.0	2.5	/experiments/knapen_aot/oldvideos/R_S_wc-eJe3wXMgTLRV_20.mp4	0.0	240.90739607810974	2.5081028938293457
43	140.32391095161438	fix_post	2		12.0	41.0	2.5	/experiments/knapen_aot/oldvideos/R_S_wc-eJe3wXMgTLRV_20.mp4	0.0	243.4154989719391	0.10004496574401855
44	140.4239559173584	fix_pre	0		220.0	42.0	2.5	blank	1.0	243.5155439376831	1.83331298828125
44	142.2490520477295	response	0	2		42.0	2.5	blank	1.0	245.3406400680542	
44	142.25726890563965	movie	1		301.0	42.0	2.5	blank	1.0	245.34885692596436	2.5083441734313965
44	144.76561307907104	fix_post	2		12.0	42.0	2.5	blank	1.0	247.85720109939575	0.10004401206970215
45	144.86565709114075	fix_pre	0		41.0	43.0	2.5	/experiments/knapen_aot/oldvideos/S_yt-kYMffy4hTMo_107.mp4	0.0	247.95724511146545	0.3415689468383789
45	145.19902801513672	response	0	4		43.0	2.5	/experiments/knapen_aot/oldvideos/S_yt-kYMffy4hTMo_107.mp4	0.0	248.29061603546143	
45	145.20722603797913	movie	1		301.0	43.0	2.5	/experiments/knapen_aot/oldvideos/S_yt-kYMffy4hTMo_107.mp4	0.0	248.29881405830383	2.5083680152893066
45	147.71559405326843	fix_post	2		12.0	43.0	2.5	/experiments/knapen_aot/oldvideos/S_yt-kYMffy4hTMo_107.mp4	0.0	250.80718207359314	0.10009884834289551
46	147.81569290161133	fix_pre	0		42.0	44.0	2.5	/experiments/knapen_aot/oldvideos/S_yt-bH4nJibL4Jo_164.mp4	0.0	250.90728092193604	0.34988999366760254
46	148.15731287002563	response	0	4		44.0	2.5	/experiments/knapen_aot/oldvideos/S_yt-bH4nJibL4Jo_164.mp4	0.0	251.24890089035034	
46	148.16558289527893	movie	1		301.0	44.0	2.5	/experiments/knapen_aot/oldvideos/S_yt-bH4nJibL4Jo_164.mp4	0.0	251.25717091560364	2.508369207382202
46	150.67395210266113	fix_post	2		12.0	44.0	2.5	/experiments/knapen_aot/oldvideos/S_yt-bH4nJibL4Jo_164.mp4	0.0	253.76554012298584	0.10007977485656738
47	150.7740318775177	fix_pre	0		21.0	45.0	2.5	/experiments/knapen_aot/oldvideos/S_ILSVRC2015_train_00594000.mp4	0.0	253.8656198978424	0.17480921745300293
47	150.94064092636108	response	0	4		45.0	2.5	/experiments/knapen_aot/oldvideos/S_ILSVRC2015_train_00594000.mp4	0.0	254.0322289466858	
47	150.9488410949707	movie	1		301.0	45.0	2.5	/experiments/knapen_aot/oldvideos/S_ILSVRC2015_train_00594000.mp4	0.0	254.0404291152954	2.508333921432495
47	153.4571750164032	fix_post	2		12.0	45.0	2.5	/experiments/knapen_aot/oldvideos/S_ILSVRC2015_train_00594000.mp4	0.0	256.5487630367279	0.10003495216369629
48	153.5572099685669	fix_pre	0		217.0	46.0	2.5	/experiments/knapen_aot/oldvideos/R_S_yt-GWgG8PVM1iw_34.mp4	0.0	256.6487979888916	1.8083059787750244
48	155.35733294487	response	0	4		46.0	2.5	/experiments/knapen_aot/oldvideos/R_S_yt-GWgG8PVM1iw_34.mp4	0.0	258.4489209651947	
48	155.36551594734192	movie	1		301.0	46.0	2.5	/experiments/knapen_aot/oldvideos/R_S_yt-GWgG8PVM1iw_34.mp4	0.0	258.4571039676666	2.5083351135253906
48	157.8738510608673	fix_post	2		12.0	46.0	2.5	/experiments/knapen_aot/oldvideos/R_S_yt-GWgG8PVM1iw_34.mp4	0.0	260.965439081192	0.1000368595123291
49	157.97388792037964	fix_pre	0		86.0	47.0	2.5	blank	1.0	261.06547594070435	0.7168240547180176
49	158.68230295181274	response	0	4		47.0	2.5	blank	1.0	261.77389097213745	
49	158.69071197509766	movie	1		301.0	47.0	2.5	blank	1.0	261.78229999542236	2.508073091506958
49	161.19878506660461	fix_post	2		12.0	47.0	2.5	blank	1.0	264.2903730869293	0.0999448299407959
50	161.2987298965454	fix_pre	0		37.0	48.0	2.5	/experiments/knapen_aot/oldvideos/S_yt-N7ztk2fa3Ls_137.mp4	0.0	264.3903179168701	0.3085041046142578
50	161.5989248752594	response	0	4		48.0	2.5	/experiments/knapen_aot/oldvideos/S_yt-N7ztk2fa3Ls_137.mp4	0.0	264.6905128955841	
50	161.60723400115967	movie	1		301.0	48.0	2.5	/experiments/knapen_aot/oldvideos/S_yt-N7ztk2fa3Ls_137.mp4	0.0	264.6988220214844	2.5082879066467285
50	164.1155219078064	fix_post	2		12.0	48.0	2.5	/experiments/knapen_aot/oldvideos/S_yt-N7ztk2fa3Ls_137.mp4	0.0	267.2071099281311	0.09996700286865234
51	164.21548891067505	fix_pre	0		16.0	49.0	2.5	/experiments/knapen_aot/oldvideos/R_S_yt-n1snPiGfg0A_45.mp4	0.0	267.30707693099976	0.1332859992980957
51	164.3405408859253	response	0	4		49.0	2.5	/experiments/knapen_aot/oldvideos/R_S_yt-n1snPiGfg0A_45.mp4	0.0	267.43212890625	
51	164.34877490997314	movie	1		301.0	49.0	2.5	/experiments/knapen_aot/oldvideos/R_S_yt-n1snPiGfg0A_45.mp4	0.0	267.44036293029785	2.508533000946045
51	166.8573079109192	fix_post	2		12.0	49.0	2.5	/experiments/knapen_aot/oldvideos/R_S_yt-n1snPiGfg0A_45.mp4	0.0	269.9488959312439	0.09985017776489258
52	166.95715808868408	fix_pre	0		60.0	50.0	2.5	/experiments/knapen_aot/oldvideos/S_yt-2ftSsLqRQnA_84.mp4	0.0	270.0487461090088	0.49994993209838867
52	167.44901204109192	response	0	4		50.0	2.5	/experiments/knapen_aot/oldvideos/S_yt-2ftSsLqRQnA_84.mp4	0.0	270.5406000614166	
52	167.45710802078247	movie	1		301.0	50.0	2.5	/experiments/knapen_aot/oldvideos/S_yt-2ftSsLqRQnA_84.mp4	0.0	270.5486960411072	2.5083699226379395
52	169.9654779434204	fix_post	2		12.0	50.0	2.5	/experiments/knapen_aot/oldvideos/S_yt-2ftSsLqRQnA_84.mp4	0.0	273.0570659637451	0.10030603408813477
53	170.06578397750854	fix_pre	0		226.0	51.0	2.5	/experiments/knapen_aot/oldvideos/S_Person_Going_Through_A_Bible.mp4	0.0	273.15737199783325	1.882936954498291
53	171.94058799743652	response	0	4		51.0	2.5	/experiments/knapen_aot/oldvideos/S_Person_Going_Through_A_Bible.mp4	0.0	275.03217601776123	
53	171.94872093200684	movie	1		166.0	51.0	2.5	/experiments/knapen_aot/oldvideos/S_Person_Going_Through_A_Bible.mp4	0.0	275.04030895233154	2.508589029312134
53	174.45730996131897	fix_post	2		12.0	51.0	2.5	/experiments/knapen_aot/oldvideos/S_Person_Going_Through_A_Bible.mp4	0.0	277.5488979816437	0.09982013702392578
54	174.5571300983429	fix_pre	0		10.0	52.0	2.5	/experiments/knapen_aot/oldvideos/R_S_yt-3NMDWrZr1Z4_255.mp4	0.0	277.6487181186676	0.08327889442443848
54	174.63220310211182	response	0	4		52.0	2.5	/experiments/knapen_aot/oldvideos/R_S_yt-3NMDWrZr1Z4_255.mp4	0.0	277.7237911224365	
54	174.64040899276733	movie	1		301.0	52.0	2.5	/experiments/knapen_aot/oldvideos/R_S_yt-3NMDWrZr1Z4_255.mp4	0.0	277.73199701309204	2.5084218978881836
54	177.14883089065552	fix_post	2		12.0	52.0	2.5	/experiments/knapen_aot/oldvideos/R_S_yt-3NMDWrZr1Z4_255.mp4	0.0	280.2404189109802	0.09993815422058105
55	177.2487690448761	fix_pre	0		175.0	53.0	2.5	/experiments/knapen_aot/oldvideos/S_yt-YMI27rk5qUQ_117.mp4	0.0	280.3403570652008	1.4582979679107666
55	178.69885993003845	response	0	4		53.0	2.5	/experiments/knapen_aot/oldvideos/S_yt-YMI27rk5qUQ_117.mp4	0.0	281.79044795036316	
55	178.70706701278687	movie	1		301.0	53.0	2.5	/experiments/knapen_aot/oldvideos/S_yt-YMI27rk5qUQ_117.mp4	0.0	281.7986550331116	2.5083658695220947
55	181.21543288230896	fix_post	2		12.0	53.0	2.5	/experiments/knapen_aot/oldvideos/S_yt-YMI27rk5qUQ_117.mp4	0.0	284.30702090263367	0.10007715225219727
56	181.31551003456116	fix_pre	0		67.0	54.0	2.5	/experiments/knapen_aot/oldvideos/R_S_comp_CH_C002_C005_PSNK_v05_SDR_PS_FINAL_20180709_SDR_2K_AVC.mp4	0.0	284.40709805488586	0.5582468509674072
56	181.86553692817688	response	0	4		54.0	2.5	/experiments/knapen_aot/oldvideos/R_S_comp_CH_C002_C005_PSNK_v05_SDR_PS_FINAL_20180709_SDR_2K_AVC.mp4	0.0	284.9571249485016	
56	181.87375688552856	movie	1		173.0	54.0	2.5	/experiments/knapen_aot/oldvideos/R_S_comp_CH_C002_C005_PSNK_v05_SDR_PS_FINAL_20180709_SDR_2K_AVC.mp4	0.0	284.96534490585327	2.508324146270752
56	184.38208103179932	fix_post	2		12.0	54.0	2.5	/experiments/knapen_aot/oldvideos/R_S_comp_CH_C002_C005_PSNK_v05_SDR_PS_FINAL_20180709_SDR_2K_AVC.mp4	0.0	287.473669052124	0.10006999969482422
57	184.48215103149414	fix_pre	0		59.0	55.0	2.5	blank	1.0	287.57373905181885	0.4916210174560547
57	184.9655339717865	response	0	4		55.0	2.5	blank	1.0	288.0571219921112	
57	184.9737720489502	movie	1		301.0	55.0	2.5	blank	1.0	288.0653600692749	2.5083858966827393
57	187.48215794563293	fix_post	2		12.0	55.0	2.5	blank	1.0	290.57374596595764	0.09986400604248047
58	187.58202195167542	fix_pre	0		58.0	56.0	2.5	/experiments/knapen_aot/oldvideos/S_yt-SyePE8wOlxs_321.mp4	0.0	290.6736099720001	0.4833230972290039
58	188.05707001686096	response	0	4		56.0	2.5	/experiments/knapen_aot/oldvideos/S_yt-SyePE8wOlxs_321.mp4	0.0	291.14865803718567	
58	188.06534504890442	movie	1		301.0	56.0	2.5	/experiments/knapen_aot/oldvideos/S_yt-SyePE8wOlxs_321.mp4	0.0	291.1569330692291	2.5084738731384277
58	190.57381892204285	fix_post	2		12.0	56.0	2.5	/experiments/knapen_aot/oldvideos/S_yt-SyePE8wOlxs_321.mp4	0.0	293.66540694236755	0.09995102882385254
59	190.6737699508667	fix_pre	0		104.0	57.0	2.5	/experiments/knapen_aot/oldvideos/R_S_ILSVRC2015_train_00404004.mp4	0.0	293.7653579711914	0.8665430545806885
59	191.53211998939514	response	0	4		57.0	2.5	/experiments/knapen_aot/oldvideos/R_S_ILSVRC2015_train_00404004.mp4	0.0	294.62370800971985	
59	191.5403130054474	movie	1		301.0	57.0	2.5	/experiments/knapen_aot/oldvideos/R_S_ILSVRC2015_train_00404004.mp4	0.0	294.6319010257721	2.5083088874816895
59	194.04862189292908	fix_post	2		12.0	57.0	2.5	/experiments/knapen_aot/oldvideos/R_S_ILSVRC2015_train_00404004.mp4	0.0	297.1402099132538	0.1000821590423584
60	194.14870405197144	fix_pre	0		34.0	58.0	2.5	/experiments/knapen_aot/oldvideos/S_yt-P8vJa4YVcGU_488.mp4	0.0	297.24029207229614	0.28328704833984375
60	194.42383003234863	response	0	4		58.0	2.5	/experiments/knapen_aot/oldvideos/S_yt-P8vJa4YVcGU_488.mp4	0.0	297.51541805267334	
60	194.43199110031128	movie	1		301.0	58.0	2.5	/experiments/knapen_aot/oldvideos/S_yt-P8vJa4YVcGU_488.mp4	0.0	297.523579120636	2.508391857147217
60	196.9403829574585	fix_post	2		12.0	58.0	2.5	/experiments/knapen_aot/oldvideos/S_yt-P8vJa4YVcGU_488.mp4	0.0	300.0319709777832	0.09994196891784668
61	197.04032492637634	fix_pre	0		248.0	59.0	2.5	/experiments/knapen_aot/oldvideos/S_yt-3NMDWrZr1Z4_255.mp4	0.0	300.13191294670105	2.066585063934326
61	199.0911989212036	response	0	4		59.0	2.5	/experiments/knapen_aot/oldvideos/S_yt-3NMDWrZr1Z4_255.mp4	0.0	302.1827869415283	
61	199.10690999031067	movie	1		301.0	59.0	2.5	/experiments/knapen_aot/oldvideos/S_yt-3NMDWrZr1Z4_255.mp4	0.0	302.1984980106354	2.5084259510040283
61	201.6153359413147	fix_post	2		12.0	59.0	2.5	/experiments/knapen_aot/oldvideos/S_yt-3NMDWrZr1Z4_255.mp4	0.0	304.7069239616394	0.10003900527954102
62	201.71537494659424	fix_pre	0		32.0	60.0	2.5	/experiments/knapen_aot/oldvideos/R_S_yt-3eQHOLBzOqA_100.mp4	0.0	304.80696296691895	0.26661014556884766
62	201.9662308692932	response	0	4		60.0	2.5	/experiments/knapen_aot/oldvideos/R_S_yt-3eQHOLBzOqA_100.mp4	0.0	305.0578188896179	
62	201.9819850921631	movie	1		300.0	60.0	2.5	/experiments/knapen_aot/oldvideos/R_S_yt-3eQHOLBzOqA_100.mp4	0.0	305.0735731124878	2.5083229541778564
62	204.49030804634094	fix_post	2		12.0	60.0	2.5	/experiments/knapen_aot/oldvideos/R_S_yt-3eQHOLBzOqA_100.mp4	0.0	307.58189606666565	0.10002684593200684
63	204.59033489227295	fix_pre	0		50.0	61.0	2.5	/experiments/knapen_aot/oldvideos/S_yt-AuQ_WxaNy4Y_255.mp4	0.0	307.68192291259766	0.41663217544555664
63	204.99878597259521	response	0	4		61.0	2.5	/experiments/knapen_aot/oldvideos/S_yt-AuQ_WxaNy4Y_255.mp4	0.0	308.0903739929199	
63	205.0069670677185	movie	1		301.0	61.0	2.5	/experiments/knapen_aot/oldvideos/S_yt-AuQ_WxaNy4Y_255.mp4	0.0	308.0985550880432	2.508347988128662
63	207.51531505584717	fix_post	2		12.0	61.0	2.5	/experiments/knapen_aot/oldvideos/S_yt-AuQ_WxaNy4Y_255.mp4	0.0	310.6069030761719	0.09996604919433594
64	207.6152811050415	fix_pre	0		100.0	62.0	2.5	/experiments/knapen_aot/oldvideos/S_yt-uX7qYKQm_pg_277.mp4	0.0	310.7068691253662	0.8333389759063721
64	208.44040608406067	response	0	4		62.0	2.5	/experiments/knapen_aot/oldvideos/S_yt-uX7qYKQm_pg_277.mp4	0.0	311.5319941043854	
64	208.44862008094788	movie	1		301.0	62.0	2.5	/experiments/knapen_aot/oldvideos/S_yt-uX7qYKQm_pg_277.mp4	0.0	311.5402081012726	2.5087459087371826
64	210.95736598968506	fix_post	2		12.0	62.0	2.5	/experiments/knapen_aot/oldvideos/S_yt-uX7qYKQm_pg_277.mp4	0.0	314.04895401000977	0.09957408905029297
65	211.05694007873535	fix_pre	0		48.0	63.0	2.5	blank	1.0	314.14852809906006	0.39989185333251953
65	211.44879698753357	response	0	4		63.0	2.5	blank	1.0	314.5403850078583	
65	211.45683193206787	movie	1		301.0	63.0	2.5	blank	1.0	314.5484199523926	2.5084400177001953
65	213.96527194976807	fix_post	2		12.0	63.0	2.5	blank	1.0	317.0568599700928	0.100006103515625
66	214.0652780532837	fix_pre	0		211.0	64.0	2.5	/experiments/knapen_aot/oldvideos/S_yt-nYi_FfCjepk_74.mp4	0.0	317.1568660736084	1.7583448886871338
66	215.8153998851776	response	0	4		64.0	2.5	/experiments/knapen_aot/oldvideos/S_yt-nYi_FfCjepk_74.mp4	0.0	318.9069879055023	
66	215.82362294197083	movie	1		301.0	64.0	2.5	/experiments/knapen_aot/oldvideos/S_yt-nYi_FfCjepk_74.mp4	0.0	318.91521096229553	2.508275032043457
66	218.33189797401428	fix_post	2		12.0	64.0	2.5	/experiments/knapen_aot/oldvideos/S_yt-nYi_FfCjepk_74.mp4	0.0	321.423485994339	0.1000220775604248
67	218.4319200515747	fix_pre	0		72.0	65.0	2.5	/experiments/knapen_aot/oldvideos/S_yt--5ls65Ue1RA_52.mp4	0.0	321.5235080718994	0.5999758243560791
67	219.02371406555176	response	0	4		65.0	2.5	/experiments/knapen_aot/oldvideos/S_yt--5ls65Ue1RA_52.mp4	0.0	322.11530208587646	
67	219.0318958759308	movie	1		301.0	65.0	2.5	/experiments/knapen_aot/oldvideos/S_yt--5ls65Ue1RA_52.mp4	0.0	322.1234838962555	2.508357048034668
67	221.54025292396545	fix_post	2		12.0	65.0	2.5	/experiments/knapen_aot/oldvideos/S_yt--5ls65Ue1RA_52.mp4	0.0	324.63184094429016	0.100006103515625
68	221.64025902748108	fix_pre	0		33.0	66.0	2.5	/experiments/knapen_aot/oldvideos/S_yt-xQilXyNKsBw_42.mp4	0.0	324.7318470478058	0.27500295639038086
68	221.90702509880066	response	0	4		66.0	2.5	/experiments/knapen_aot/oldvideos/S_yt-xQilXyNKsBw_42.mp4	0.0	324.99861311912537	
68	221.91526198387146	movie	1		301.0	66.0	2.5	/experiments/knapen_aot/oldvideos/S_yt-xQilXyNKsBw_42.mp4	0.0	325.00685000419617	2.508323907852173
68	224.42358589172363	fix_post	2		12.0	66.0	2.5	/experiments/knapen_aot/oldvideos/S_yt-xQilXyNKsBw_42.mp4	0.0	327.51517391204834	0.09997701644897461
69	224.5235629081726	fix_pre	0		21.0	67.0	2.5	/experiments/knapen_aot/oldvideos/R_S_yt-CNq5mTA8oXY_176.mp4	0.0	327.6151509284973	0.17500519752502441
69	224.69028091430664	response	0	4		67.0	2.5	/experiments/knapen_aot/oldvideos/R_S_yt-CNq5mTA8oXY_176.mp4	0.0	327.78186893463135	
69	224.69856810569763	movie	1		301.0	67.0	2.5	/experiments/knapen_aot/oldvideos/R_S_yt-CNq5mTA8oXY_176.mp4	0.0	327.79015612602234	2.508323907852173
69	227.2068920135498	fix_post	2		12.0	67.0	2.5	/experiments/knapen_aot/oldvideos/R_S_yt-CNq5mTA8oXY_176.mp4	0.0	330.2984800338745	0.10011601448059082
70	227.3070080280304	fix_pre	0		114.0	68.0	2.5	blank	1.0	330.3985960483551	0.9498238563537598
70	228.24866700172424	response	0	4		68.0	2.5	blank	1.0	331.34025502204895	
70	228.25683188438416	movie	1		301.0	68.0	2.5	blank	1.0	331.34841990470886	2.5084280967712402
70	230.7652599811554	fix_post	2		12.0	68.0	2.5	blank	1.0	333.8568480014801	0.09988594055175781
71	230.86514592170715	fix_pre	0		150.0	69.0	2.5	/experiments/knapen_aot/oldvideos/S_comp_LA_A008_C004_ALTB_ED_FROM_FLAME_RETIME_v46_SDR_PS_20180917_SDR_2K_AVC.mp4	0.0	333.95673394203186	1.2499899864196777
71	232.10696291923523	response	0	4		69.0	2.5	/experiments/knapen_aot/oldvideos/S_comp_LA_A008_C004_ALTB_ED_FROM_FLAME_RETIME_v46_SDR_PS_20180917_SDR_2K_AVC.mp4	0.0	335.19855093955994	
71	232.11513590812683	movie	1		169.0	69.0	2.5	/experiments/knapen_aot/oldvideos/S_comp_LA_A008_C004_ALTB_ED_FROM_FLAME_RETIME_v46_SDR_PS_20180917_SDR_2K_AVC.mp4	0.0	335.20672392845154	2.50839900970459
71	234.62353491783142	fix_post	2		12.0	69.0	2.5	/experiments/knapen_aot/oldvideos/S_comp_LA_A008_C004_ALTB_ED_FROM_FLAME_RETIME_v46_SDR_PS_20180917_SDR_2K_AVC.mp4	0.0	337.7151229381561	0.09997916221618652
72	234.7235140800476	fix_pre	0		14.0	70.0	2.5	/experiments/knapen_aot/oldvideos/S_yt-n1snPiGfg0A_45.mp4	0.0	337.8151021003723	0.11675095558166504
72	234.83192992210388	response	0	4		70.0	2.5	/experiments/knapen_aot/oldvideos/S_yt-n1snPiGfg0A_45.mp4	0.0	337.9235179424286	
72	234.84026503562927	movie	1		301.0	70.0	2.5	/experiments/knapen_aot/oldvideos/S_yt-n1snPiGfg0A_45.mp4	0.0	337.931853055954	2.5082859992980957
72	237.34855103492737	fix_post	2		12.0	70.0	2.5	/experiments/knapen_aot/oldvideos/S_yt-n1snPiGfg0A_45.mp4	0.0	340.4401390552521	0.09990191459655762
73	237.44845294952393	fix_pre	0		23.0	71.0	2.5	/experiments/knapen_aot/oldvideos/R_S_yt-Dwgpjoikt84_71.mp4	0.0	340.54004096984863	0.192857027053833
73	237.63185596466064	response	0	4		71.0	2.5	/experiments/knapen_aot/oldvideos/R_S_yt-Dwgpjoikt84_71.mp4	0.0	340.72344398498535	
73	237.64130997657776	movie	1		301.0	71.0	2.5	/experiments/knapen_aot/oldvideos/R_S_yt-Dwgpjoikt84_71.mp4	0.0	340.73289799690247	2.5072429180145264
73	240.14855289459229	fix_post	2		12.0	71.0	2.5	/experiments/knapen_aot/oldvideos/R_S_yt-Dwgpjoikt84_71.mp4	0.0	343.240140914917	0.09999704360961914
74	240.2485499382019	fix_pre	0		191.0	72.0	2.5	/experiments/knapen_aot/oldvideos/R_S_pexels-cottonbro-5780808.mp4	0.0	343.3401379585266	1.5916030406951904
74	241.8319489955902	response	0	4		72.0	2.5	/experiments/knapen_aot/oldvideos/R_S_pexels-cottonbro-5780808.mp4	0.0	344.9235370159149	
74	241.8401529788971	movie	1		164.0	72.0	2.5	/experiments/knapen_aot/oldvideos/R_S_pexels-cottonbro-5780808.mp4	0.0	344.9317409992218	2.508362054824829
74	244.34851503372192	fix_post	2		12.0	72.0	2.5	/experiments/knapen_aot/oldvideos/R_S_pexels-cottonbro-5780808.mp4	0.0	347.44010305404663	0.09997200965881348
75	244.44848704338074	fix_pre	0		19.0	73.0	2.5	/experiments/knapen_aot/oldvideos/R_S_pexels-kindel-media-8164443.mp4	0.0	347.54007506370544	0.1582658290863037
75	244.5911989212036	response	0	4		73.0	2.5	/experiments/knapen_aot/oldvideos/R_S_pexels-kindel-media-8164443.mp4	0.0	347.6827869415283	
75	244.60675287246704	movie	1		168.0	73.0	2.5	/experiments/knapen_aot/oldvideos/R_S_pexels-kindel-media-8164443.mp4	0.0	347.69834089279175	2.5083680152893066
75	247.11512088775635	fix_post	2		12.0	73.0	2.5	/experiments/knapen_aot/oldvideos/R_S_pexels-kindel-media-8164443.mp4	0.0	350.20670890808105	0.10012507438659668
76	247.21524596214294	fix_pre	0		101.0	74.0	2.5	/experiments/knapen_aot/oldvideos/S_yt-LsCCAQ8BRO8_7.mp4	0.0	350.30683398246765	0.8427779674530029
76	248.04109907150269	response	0	4		74.0	2.5	/experiments/knapen_aot/oldvideos/S_yt-LsCCAQ8BRO8_7.mp4	0.0	351.1326870918274	
76	248.05802392959595	movie	1		301.0	74.0	2.5	/experiments/knapen_aot/oldvideos/S_yt-LsCCAQ8BRO8_7.mp4	0.0	351.14961194992065	2.5071699619293213
76	250.56519389152527	fix_post	2		12.0	74.0	2.5	/experiments/knapen_aot/oldvideos/S_yt-LsCCAQ8BRO8_7.mp4	0.0	353.65678191185	0.09992313385009766
77	250.66511702537537	fix_pre	0		76.0	75.0	2.5	blank	1.0	353.7567050457001	0.6333620548248291
77	251.29029393196106	response	0	4		75.0	2.5	blank	1.0	354.38188195228577	
77	251.2984790802002	movie	1		301.0	75.0	2.5	blank	1.0	354.3900671005249	2.508344888687134
77	253.80682396888733	fix_post	2		12.0	75.0	2.5	blank	1.0	356.89841198921204	0.09996294975280762
78	253.90678691864014	fix_pre	0		141.0	76.0	2.5	/experiments/knapen_aot/oldvideos/R_S_yt-xQilXyNKsBw_42.mp4	0.0	356.99837493896484	1.1749911308288574
78	255.07366704940796	response	0	4		76.0	2.5	/experiments/knapen_aot/oldvideos/R_S_yt-xQilXyNKsBw_42.mp4	0.0	358.16525506973267	
78	255.081778049469	movie	1		301.0	76.0	2.5	/experiments/knapen_aot/oldvideos/R_S_yt-xQilXyNKsBw_42.mp4	0.0	358.1733660697937	2.508340835571289
78	257.5901188850403	fix_post	2		12.0	76.0	2.5	/experiments/knapen_aot/oldvideos/R_S_yt-xQilXyNKsBw_42.mp4	0.0	360.681706905365	0.10010504722595215
79	257.69022393226624	fix_pre	0		17.0	77.0	2.5	/experiments/knapen_aot/oldvideos/R_S_DL_B002_C011_SDR_20191122_SDR_2K_AVC.mp4	0.0	360.78181195259094	0.14153504371643066
79	257.81606698036194	response	0	4		77.0	2.5	/experiments/knapen_aot/oldvideos/R_S_DL_B002_C011_SDR_20191122_SDR_2K_AVC.mp4	0.0	360.90765500068665	
79	257.83175897598267	movie	1		166.0	77.0	2.5	/experiments/knapen_aot/oldvideos/R_S_DL_B002_C011_SDR_20191122_SDR_2K_AVC.mp4	0.0	360.9233469963074	2.5083250999450684
79	260.34008407592773	fix_post	2		12.0	77.0	2.5	/experiments/knapen_aot/oldvideos/R_S_DL_B002_C011_SDR_20191122_SDR_2K_AVC.mp4	0.0	363.43167209625244	0.10002779960632324
80	260.44011187553406	fix_pre	0		63.0	78.0	2.5	/experiments/knapen_aot/oldvideos/S_yt-8N5UuN5WQcY_72.mp4	0.0	363.53169989585876	0.524921178817749
80	260.95688104629517	response	0	4		78.0	2.5	/experiments/knapen_aot/oldvideos/S_yt-8N5UuN5WQcY_72.mp4	0.0	364.0484690666199	
80	260.9650330543518	movie	1		301.0	78.0	2.5	/experiments/knapen_aot/oldvideos/S_yt-8N5UuN5WQcY_72.mp4	0.0	364.0566210746765	2.5084128379821777
80	263.473445892334	fix_post	2		12.0	78.0	2.5	/experiments/knapen_aot/oldvideos/S_yt-8N5UuN5WQcY_72.mp4	0.0	366.5650339126587	0.10001015663146973
81	263.57345604896545	fix_pre	0		231.0	79.0	2.5	/experiments/knapen_aot/oldvideos/R_S_yt-4i1b6NQ9NKs_5.mp4	0.0	366.66504406929016	1.9248859882354736
81	265.49017786979675	response	0	4		79.0	2.5	/experiments/knapen_aot/oldvideos/R_S_yt-4i1b6NQ9NKs_5.mp4	0.0	368.58176589012146	
81	265.4983420372009	movie	1		301.0	79.0	2.5	/experiments/knapen_aot/oldvideos/R_S_yt-4i1b6NQ9NKs_5.mp4	0.0	368.58993005752563	2.5083930492401123
81	268.00673508644104	fix_post	2		12.0	79.0	2.5	/experiments/knapen_aot/oldvideos/R_S_yt-4i1b6NQ9NKs_5.mp4	0.0	371.09832310676575	0.10000181198120117
82	268.10673689842224	fix_pre	0		29.0	80.0	2.5	/experiments/knapen_aot/oldvideos/R_S_yt-sGckFFOLO30_164.mp4	0.0	371.19832491874695	0.24259305000305176
82	268.3401229381561	response	0	4		80.0	2.5	/experiments/knapen_aot/oldvideos/R_S_yt-sGckFFOLO30_164.mp4	0.0	371.43171095848083	
82	268.3493299484253	movie	1		301.0	80.0	2.5	/experiments/knapen_aot/oldvideos/R_S_yt-sGckFFOLO30_164.mp4	0.0	371.44091796875	2.50740909576416
82	270.85673904418945	fix_post	2		12.0	80.0	2.5	/experiments/knapen_aot/oldvideos/R_S_yt-sGckFFOLO30_164.mp4	0.0	373.94832706451416	0.0999760627746582
83	270.9567151069641	fix_pre	0		23.0	81.0	2.5	/experiments/knapen_aot/oldvideos/S_yt-2y6A9DJPsDU_65.mp4	0.0	374.0483031272888	0.19175386428833008
83	271.1326389312744	response	0	4		81.0	2.5	/experiments/knapen_aot/oldvideos/S_yt-2y6A9DJPsDU_65.mp4	0.0	374.2242269515991	
83	271.14846897125244	movie	1		301.0	81.0	2.5	/experiments/knapen_aot/oldvideos/S_yt-2y6A9DJPsDU_65.mp4	0.0	374.24005699157715	2.5082409381866455
83	273.6567099094391	fix_post	2		12.0	81.0	2.5	/experiments/knapen_aot/oldvideos/S_yt-2y6A9DJPsDU_65.mp4	0.0	376.7482979297638	0.09996914863586426
84	273.75667905807495	fix_pre	0		105.0	82.0	2.5	/experiments/knapen_aot/oldvideos/R_S_yt-MUfa26F8dfE_97.mp4	0.0	376.84826707839966	0.8750629425048828
84	274.6234109401703	response	0	4		82.0	2.5	/experiments/knapen_aot/oldvideos/R_S_yt-MUfa26F8dfE_97.mp4	0.0	377.714998960495	
84	274.63174200057983	movie	1		301.0	82.0	2.5	/experiments/knapen_aot/oldvideos/R_S_yt-MUfa26F8dfE_97.mp4	0.0	377.72333002090454	2.5082828998565674
84	277.1400249004364	fix_post	2		12.0	82.0	2.5	/experiments/knapen_aot/oldvideos/R_S_yt-MUfa26F8dfE_97.mp4	0.0	380.2316129207611	0.09997916221618652
85	277.2400040626526	fix_pre	0		26.0	83.0	2.5	blank	1.0	380.3315920829773	0.2165999412536621
85	277.44846987724304	response	0	4		83.0	2.5	blank	1.0	380.54005789756775	
85	277.45660400390625	movie	1		301.0	83.0	2.5	blank	1.0	380.54819202423096	2.508478879928589
85	279.96508288383484	fix_post	2		12.0	83.0	2.5	blank	1.0	383.05667090415955	0.09990620613098145
87	280.0649890899658	stim	0		192.0					383.1565771102905	1.6036570072174072
87	280.215087890625	response	0	4						383.3066759109497	
87	281.66100096702576	response	0	space						384.75258898735046	
