trial_nr	onset	event_type	phase	response	nr_frames	movie_index	movie_duration	movie_file	blank	onset_abs	duration
0	0.1251659393310547	stim	0		21.0					133.28040409088135	0.17365097999572754
0	0.2904980182647705	response	0	space						133.44573616981506	
1	0.2988169193267822	stim	0		121.0					133.45405507087708	1.0079059600830078
1	1.1151690483093262	response	0	space						134.27040719985962	
1	1.30672287940979	stim	1		120.0					134.46196103096008	0.9999711513519287
1	1.6742918491363525	response	1	space						134.82953000068665	
2	2.3066940307617188	fix_pre	0		50.0	0.0	2.5	/experiments/knapen_aot/videos/R_S_yt-EKPrSw5xF7k_112.mp4	0.0	135.461932182312	0.4165918827056885
2	2.7151339054107666	response	0	space		0.0	2.5	/experiments/knapen_aot/videos/R_S_yt-EKPrSw5xF7k_112.mp4	0.0	135.87037205696106	
2	2.7232859134674072	movie	1		300.0	0.0	2.5	/experiments/knapen_aot/videos/R_S_yt-EKPrSw5xF7k_112.mp4	0.0	135.8785240650177	2.50838303565979
2	5.231668949127197	fix_post	2		12.0	0.0	2.5	/experiments/knapen_aot/videos/R_S_yt-EKPrSw5xF7k_112.mp4	0.0	138.3869071006775	0.10000991821289062
3	5.331678867340088	fix_pre	0		41.0	1.0	2.5	/experiments/knapen_aot/videos/R_S_ILSVRC2015_train_00042003.mp4	0.0	138.48691701889038	0.34167909622192383
3	5.665602922439575	response	0	2		1.0	2.5	/experiments/knapen_aot/videos/R_S_ILSVRC2015_train_00042003.mp4	0.0	138.82084107398987	
3	5.673357963562012	movie	1		301.0	1.0	2.5	/experiments/knapen_aot/videos/R_S_ILSVRC2015_train_00042003.mp4	0.0	138.8285961151123	2.5083539485931396
3	8.181711912155151	fix_post	2		12.0	1.0	2.5	/experiments/knapen_aot/videos/R_S_ILSVRC2015_train_00042003.mp4	0.0	141.33695006370544	0.09996509552001953
4	8.281677007675171	fix_pre	0		132.0	2.0	2.5	/experiments/knapen_aot/videos/S_yt-SS7pSyb0_d0_32.mp4	0.0	141.43691515922546	1.0999619960784912
4	9.373431921005249	response	0	2		2.0	2.5	/experiments/knapen_aot/videos/S_yt-SS7pSyb0_d0_32.mp4	0.0	142.52867007255554	
4	9.381639003753662	movie	1		301.0	2.0	2.5	/experiments/knapen_aot/videos/S_yt-SS7pSyb0_d0_32.mp4	0.0	142.53687715530396	2.508319854736328
4	11.88995885848999	fix_post	2		12.0	2.0	2.5	/experiments/knapen_aot/videos/S_yt-SS7pSyb0_d0_32.mp4	0.0	145.04519701004028	0.10004711151123047
5	11.99000597000122	fix_pre	0		69.0	3.0	2.5	/experiments/knapen_aot/videos/R_S_pexels-diva-plavalaguna-6985395.mp4	0.0	145.1452441215515	0.5749650001525879
5	12.556802034378052	response	0	2		3.0	2.5	/experiments/knapen_aot/videos/R_S_pexels-diva-plavalaguna-6985395.mp4	0.0	145.71204018592834	
5	12.564970970153809	movie	1		164.0	3.0	2.5	/experiments/knapen_aot/videos/R_S_pexels-diva-plavalaguna-6985395.mp4	0.0	145.7202091217041	2.5083839893341064
5	15.073354959487915	fix_post	2		12.0	3.0	2.5	/experiments/knapen_aot/videos/R_S_pexels-diva-plavalaguna-6985395.mp4	0.0	148.2285931110382	0.09997200965881348
6	15.173326969146729	fix_pre	0		47.0	4.0	2.5	/experiments/knapen_aot/videos/S_bing-www_break_com_video_like-a-cat-catching-a-fly-3131008_12.mp4	0.0	148.32856512069702	0.39168787002563477
6	15.556819915771484	response	0	2		4.0	2.5	/experiments/knapen_aot/videos/S_bing-www_break_com_video_like-a-cat-catching-a-fly-3131008_12.mp4	0.0	148.71205806732178	
6	15.565014839172363	movie	1		301.0	4.0	2.5	/experiments/knapen_aot/videos/S_bing-www_break_com_video_like-a-cat-catching-a-fly-3131008_12.mp4	0.0	148.72025299072266	2.508345127105713
6	18.073359966278076	fix_post	2		12.0	4.0	2.5	/experiments/knapen_aot/videos/S_bing-www_break_com_video_like-a-cat-catching-a-fly-3131008_12.mp4	0.0	151.22859811782837	0.10032105445861816
7	18.173681020736694	fix_pre	0		49.0	5.0	2.5	/experiments/knapen_aot/videos/S_yt-BrepyEWKrPQ_20.mp4	0.0	151.328919172287	0.40798497200012207
7	18.56592082977295	response	0	2		5.0	2.5	/experiments/knapen_aot/videos/S_yt-BrepyEWKrPQ_20.mp4	0.0	151.72115898132324	
7	18.581665992736816	movie	1		301.0	5.0	2.5	/experiments/knapen_aot/videos/S_yt-BrepyEWKrPQ_20.mp4	0.0	151.7369041442871	2.5083799362182617
7	21.090045928955078	fix_post	2		12.0	5.0	2.5	/experiments/knapen_aot/videos/S_yt-BrepyEWKrPQ_20.mp4	0.0	154.24528408050537	0.0999751091003418
8	21.19002103805542	fix_pre	0		26.0	6.0	2.5	/experiments/knapen_aot/videos/S_yt-YMI27rk5qUQ_117.mp4	0.0	154.3452591896057	0.21660399436950684
8	21.39843988418579	response	0	2		6.0	2.5	/experiments/knapen_aot/videos/S_yt-YMI27rk5qUQ_117.mp4	0.0	154.55367803573608	
8	21.406625032424927	movie	1		301.0	6.0	2.5	/experiments/knapen_aot/videos/S_yt-YMI27rk5qUQ_117.mp4	0.0	154.56186318397522	2.5085418224334717
8	23.9151668548584	fix_post	2		12.0	6.0	2.5	/experiments/knapen_aot/videos/S_yt-YMI27rk5qUQ_117.mp4	0.0	157.0704050064087	0.09982013702392578
9	24.014986991882324	fix_pre	0		21.0	7.0	2.5	blank	1.0	157.17022514343262	0.17500901222229004
9	24.181725025177002	response	0	2		7.0	2.5	blank	1.0	157.3369631767273	
9	24.189996004104614	movie	1		301.0	7.0	2.5	blank	1.0	157.3452341556549	2.508319854736328
9	24.356750965118408	response	1	2		7.0	2.5	blank	1.0	157.5119891166687	
9	26.698315858840942	fix_post	2		12.0	7.0	2.5	blank	1.0	159.85355401039124	0.09998917579650879
10	26.79830503463745	fix_pre	0		30.0	8.0	2.5	/experiments/knapen_aot/videos/S_ILSVRC2015_train_00384000.mp4	0.0	159.95354318618774	0.24992990493774414
10	27.032606840133667	response	0	2		8.0	2.5	/experiments/knapen_aot/videos/S_ILSVRC2015_train_00384000.mp4	0.0	160.18784499168396	
10	27.048234939575195	movie	1		301.0	8.0	2.5	/experiments/knapen_aot/videos/S_ILSVRC2015_train_00384000.mp4	0.0	160.2034730911255	2.508331060409546
10	29.55656599998474	fix_post	2		12.0	8.0	2.5	/experiments/knapen_aot/videos/S_ILSVRC2015_train_00384000.mp4	0.0	162.71180415153503	0.10008883476257324
11	29.656654834747314	fix_pre	0		48.0	9.0	2.5	/experiments/knapen_aot/videos/S_production_ID_5049072.mp4	0.0	162.8118929862976	0.39993810653686523
11	30.048444986343384	response	0	2		9.0	2.5	/experiments/knapen_aot/videos/S_production_ID_5049072.mp4	0.0	163.20368313789368	
11	30.05659294128418	movie	1		164.0	9.0	2.5	/experiments/knapen_aot/videos/S_production_ID_5049072.mp4	0.0	163.21183109283447	2.5083069801330566
11	32.564899921417236	fix_post	2		12.0	9.0	2.5	/experiments/knapen_aot/videos/S_production_ID_5049072.mp4	0.0	165.72013807296753	0.10001897811889648
12	32.66491889953613	fix_pre	0		23.0	10.0	2.5	/experiments/knapen_aot/videos/R_S_yt-e1RAhIW6WAs_535.mp4	0.0	165.82015705108643	0.1916060447692871
12	32.84833288192749	response	0	2		10.0	2.5	/experiments/knapen_aot/videos/R_S_yt-e1RAhIW6WAs_535.mp4	0.0	166.00357103347778	
12	32.85652494430542	movie	1		301.0	10.0	2.5	/experiments/knapen_aot/videos/R_S_yt-e1RAhIW6WAs_535.mp4	0.0	166.0117630958557	2.508392095565796
12	35.364917039871216	fix_post	2		12.0	10.0	2.5	/experiments/knapen_aot/videos/R_S_yt-e1RAhIW6WAs_535.mp4	0.0	168.5201551914215	0.0999917984008789
13	35.464908838272095	fix_pre	0		34.0	11.0	2.5	/experiments/knapen_aot/videos/R_S_3WAnGcPubBY_179.mp4	0.0	168.6201469898224	0.28328609466552734
13	35.732434034347534	response	0	2		11.0	2.5	/experiments/knapen_aot/videos/R_S_3WAnGcPubBY_179.mp4	0.0	168.88767218589783	
13	35.74819493293762	movie	1		301.0	11.0	2.5	/experiments/knapen_aot/videos/R_S_3WAnGcPubBY_179.mp4	0.0	168.90343308448792	2.508358955383301
13	38.25655388832092	fix_post	2		12.0	11.0	2.5	/experiments/knapen_aot/videos/R_S_3WAnGcPubBY_179.mp4	0.0	171.41179203987122	0.09992694854736328
14	38.356480836868286	fix_pre	0		96.0	12.0	2.5	/experiments/knapen_aot/videos/R_S_wc-_W9iefBXz8bi_23.mp4	0.0	171.51171898841858	0.800051212310791
14	39.14832091331482	response	0	2		12.0	2.5	/experiments/knapen_aot/videos/R_S_wc-_W9iefBXz8bi_23.mp4	0.0	172.3035590648651	
14	39.15653204917908	movie	1		166.0	12.0	2.5	/experiments/knapen_aot/videos/R_S_wc-_W9iefBXz8bi_23.mp4	0.0	172.31177020072937	2.5084848403930664
14	41.665016889572144	fix_post	2		12.0	12.0	2.5	/experiments/knapen_aot/videos/R_S_wc-_W9iefBXz8bi_23.mp4	0.0	174.82025504112244	0.09998106956481934
15	41.76499795913696	fix_pre	0		176.0	13.0	2.5	blank	1.0	174.92023611068726	1.4665319919586182
15	43.21589684486389	response	0	2		13.0	2.5	blank	1.0	176.37113499641418	
15	43.23152995109558	movie	1		301.0	13.0	2.5	blank	1.0	176.38676810264587	2.508302927017212
15	45.73983287811279	fix_post	2		12.0	13.0	2.5	blank	1.0	178.8950710296631	0.09994816780090332
16	45.839781045913696	fix_pre	0		25.0	14.0	2.5	/experiments/knapen_aot/videos/R_S_ux8Mvi8P16k_168.mp4	0.0	178.995019197464	0.20838689804077148
16	46.03985285758972	response	0	2		14.0	2.5	/experiments/knapen_aot/videos/R_S_ux8Mvi8P16k_168.mp4	0.0	179.19509100914001	
16	46.04816794395447	movie	1		301.0	14.0	2.5	/experiments/knapen_aot/videos/R_S_ux8Mvi8P16k_168.mp4	0.0	179.20340609550476	2.5083179473876953
16	48.55648589134216	fix_post	2		12.0	14.0	2.5	/experiments/knapen_aot/videos/R_S_ux8Mvi8P16k_168.mp4	0.0	181.71172404289246	0.10000896453857422
17	48.65649485588074	fix_pre	0		15.0	15.0	2.5	/experiments/knapen_aot/videos/R_S_yt-O4wUEZwHLyI_114.mp4	0.0	181.81173300743103	0.12498712539672852
17	48.77326989173889	response	0	2		15.0	2.5	/experiments/knapen_aot/videos/R_S_yt-O4wUEZwHLyI_114.mp4	0.0	181.92850804328918	
17	48.781481981277466	movie	1		301.0	15.0	2.5	/experiments/knapen_aot/videos/R_S_yt-O4wUEZwHLyI_114.mp4	0.0	181.93672013282776	2.5084450244903564
17	51.28992700576782	fix_post	2		12.0	15.0	2.5	/experiments/knapen_aot/videos/R_S_yt-O4wUEZwHLyI_114.mp4	0.0	184.44516515731812	0.09984803199768066
18	51.3897750377655	fix_pre	0		49.0	16.0	2.5	/experiments/knapen_aot/videos/R_S_yt-kINZMjys3O4_112.mp4	0.0	184.5450131893158	0.40836000442504883
18	51.78994393348694	response	0	2		16.0	2.5	/experiments/knapen_aot/videos/R_S_yt-kINZMjys3O4_112.mp4	0.0	184.94518208503723	
18	51.79813504219055	movie	1		301.0	16.0	2.5	/experiments/knapen_aot/videos/R_S_yt-kINZMjys3O4_112.mp4	0.0	184.95337319374084	2.5083119869232178
18	54.30644702911377	fix_post	2		12.0	16.0	2.5	/experiments/knapen_aot/videos/R_S_yt-kINZMjys3O4_112.mp4	0.0	187.46168518066406	0.10002279281616211
19	54.40646982192993	fix_pre	0		24.0	17.0	2.5	/experiments/knapen_aot/videos/R_S_ILSVRC2015_train_00369002.mp4	0.0	187.56170797348022	0.20005512237548828
19	54.59819483757019	response	0	2		17.0	2.5	/experiments/knapen_aot/videos/R_S_ILSVRC2015_train_00369002.mp4	0.0	187.75343298912048	
19	54.60652494430542	movie	1		301.0	17.0	2.5	/experiments/knapen_aot/videos/R_S_ILSVRC2015_train_00369002.mp4	0.0	187.7617630958557	2.5083389282226562
19	57.114863872528076	fix_post	2		12.0	17.0	2.5	/experiments/knapen_aot/videos/R_S_ILSVRC2015_train_00369002.mp4	0.0	190.27010202407837	0.09992599487304688
20	57.21478986740112	fix_pre	0		44.0	18.0	2.5	/experiments/knapen_aot/videos/R_S_yt-1iB2ofPY1U8_16.mp4	0.0	190.37002801895142	0.3676259517669678
20	57.56576204299927	response	0	2		18.0	2.5	/experiments/knapen_aot/videos/R_S_yt-1iB2ofPY1U8_16.mp4	0.0	190.72100019454956	
20	57.58241581916809	movie	1		301.0	18.0	2.5	/experiments/knapen_aot/videos/R_S_yt-1iB2ofPY1U8_16.mp4	0.0	190.73765397071838	2.5075571537017822
20	60.08997297286987	fix_post	2		12.0	18.0	2.5	/experiments/knapen_aot/videos/R_S_yt-1iB2ofPY1U8_16.mp4	0.0	193.24521112442017	0.09998488426208496
21	60.18995785713196	fix_pre	0		32.0	19.0	2.5	/experiments/knapen_aot/videos/R_S_yt-y6JsUW0eSW8_32.mp4	0.0	193.34519600868225	0.2675330638885498
21	60.448220014572144	response	0	2		19.0	2.5	/experiments/knapen_aot/videos/R_S_yt-y6JsUW0eSW8_32.mp4	0.0	193.60345816612244	
21	60.45749092102051	movie	1		301.0	19.0	2.5	/experiments/knapen_aot/videos/R_S_yt-y6JsUW0eSW8_32.mp4	0.0	193.6127290725708	2.507317066192627
21	62.964807987213135	fix_post	2		12.0	19.0	2.5	/experiments/knapen_aot/videos/R_S_yt-y6JsUW0eSW8_32.mp4	0.0	196.12004613876343	0.09998583793640137
22	63.064793825149536	fix_pre	0		20.0	20.0	2.5	/experiments/knapen_aot/videos/R_S_ILSVRC2015_train_00723001.mp4	0.0	196.22003197669983	0.1666121482849121
22	63.22324204444885	response	0	2		20.0	2.5	/experiments/knapen_aot/videos/R_S_ILSVRC2015_train_00723001.mp4	0.0	196.37848019599915	
22	63.23140597343445	movie	1		301.0	20.0	2.5	/experiments/knapen_aot/videos/R_S_ILSVRC2015_train_00723001.mp4	0.0	196.38664412498474	2.5083389282226562
22	65.7397449016571	fix_post	2		12.0	20.0	2.5	/experiments/knapen_aot/videos/R_S_ILSVRC2015_train_00723001.mp4	0.0	198.8949830532074	0.10002493858337402
23	65.83976984024048	fix_pre	0		31.0	21.0	2.5	blank	1.0	198.99500799179077	0.2584500312805176
23	66.08254599571228	response	0	2		21.0	2.5	blank	1.0	199.23778414726257	
23	66.098219871521	movie	1		301.0	21.0	2.5	blank	1.0	199.2534580230713	2.5081911087036133
23	68.60641098022461	fix_post	2		12.0	21.0	2.5	blank	1.0	201.7616491317749	0.09994697570800781
24	68.70635795593262	fix_pre	0		51.0	22.0	2.5	/experiments/knapen_aot/videos/R_S_yt-qycUhA3Isjg_76.mp4	0.0	201.8615961074829	0.4249899387359619
24	69.12332391738892	response	0	2		22.0	2.5	/experiments/knapen_aot/videos/R_S_yt-qycUhA3Isjg_76.mp4	0.0	202.2785620689392	
24	69.13134789466858	movie	1		301.0	22.0	2.5	/experiments/knapen_aot/videos/R_S_yt-qycUhA3Isjg_76.mp4	0.0	202.28658604621887	2.50833797454834
24	71.63968586921692	fix_post	2		12.0	22.0	2.5	/experiments/knapen_aot/videos/R_S_yt-qycUhA3Isjg_76.mp4	0.0	204.7949240207672	0.10007596015930176
25	71.73976182937622	fix_pre	0		34.0	23.0	2.5	/experiments/knapen_aot/videos/S_video_inspire_california_catalina_avalon_00053.1080-h264.mp4	0.0	204.8949999809265	0.2833261489868164
25	72.01488900184631	response	0	2		23.0	2.5	/experiments/knapen_aot/videos/S_video_inspire_california_catalina_avalon_00053.1080-h264.mp4	0.0	205.1701271533966	
25	72.02308797836304	movie	1		165.0	23.0	2.5	/experiments/knapen_aot/videos/S_video_inspire_california_catalina_avalon_00053.1080-h264.mp4	0.0	205.17832612991333	2.5084328651428223
25	74.53152084350586	fix_post	2		12.0	23.0	2.5	/experiments/knapen_aot/videos/S_video_inspire_california_catalina_avalon_00053.1080-h264.mp4	0.0	207.68675899505615	0.09986209869384766
26	74.6313829421997	fix_pre	0		39.0	24.0	2.5	/experiments/knapen_aot/videos/S_Pexels_Videos_2786546.mp4	0.0	207.78662109375	0.32616305351257324
26	74.94065403938293	response	0	2		24.0	2.5	/experiments/knapen_aot/videos/S_Pexels_Videos_2786546.mp4	0.0	208.09589219093323	
26	74.95754599571228	movie	1		164.0	24.0	2.5	/experiments/knapen_aot/videos/S_Pexels_Videos_2786546.mp4	0.0	208.11278414726257	2.507145881652832
26	77.46469187736511	fix_post	2		12.0	24.0	2.5	/experiments/knapen_aot/videos/S_Pexels_Videos_2786546.mp4	0.0	210.6199300289154	0.09996199607849121
27	77.5646538734436	fix_pre	0		25.0	25.0	2.5	/experiments/knapen_aot/videos/R_S_yt-w_e3sxIzepA_27.mp4	0.0	210.7198920249939	0.20833301544189453
27	77.75724983215332	response	0	2		25.0	2.5	/experiments/knapen_aot/videos/R_S_yt-w_e3sxIzepA_27.mp4	0.0	210.9124879837036	
27	77.7729868888855	movie	1		301.0	25.0	2.5	/experiments/knapen_aot/videos/R_S_yt-w_e3sxIzepA_27.mp4	0.0	210.9282250404358	2.508437156677246
27	80.28142404556274	fix_post	2		12.0	25.0	2.5	/experiments/knapen_aot/videos/R_S_yt-w_e3sxIzepA_27.mp4	0.0	213.43666219711304	0.09998083114624023
28	80.38140487670898	fix_pre	0		35.0	26.0	2.5	/experiments/knapen_aot/videos/R_S_comp_L007_C007_PS_v01_SDR_PS_20180925_SDR_2K_AVC.mp4	0.0	213.53664302825928	0.29164910316467285
28	80.66486287117004	response	0	2		26.0	2.5	/experiments/knapen_aot/videos/R_S_comp_L007_C007_PS_v01_SDR_PS_20180925_SDR_2K_AVC.mp4	0.0	213.82010102272034	
28	80.67305397987366	movie	1		171.0	26.0	2.5	/experiments/knapen_aot/videos/R_S_comp_L007_C007_PS_v01_SDR_PS_20180925_SDR_2K_AVC.mp4	0.0	213.82829213142395	2.5082759857177734
28	83.18132996559143	fix_post	2		12.0	26.0	2.5	/experiments/knapen_aot/videos/R_S_comp_L007_C007_PS_v01_SDR_PS_20180925_SDR_2K_AVC.mp4	0.0	216.33656811714172	0.10001707077026367
29	83.2813470363617	fix_pre	0		31.0	27.0	2.5	/experiments/knapen_aot/videos/S_pexels-diva-plavalaguna-6985395.mp4	0.0	216.436585187912	0.2592198848724365
29	83.53147888183594	response	0	2		27.0	2.5	/experiments/knapen_aot/videos/S_pexels-diva-plavalaguna-6985395.mp4	0.0	216.68671703338623	
29	83.54056692123413	movie	1		168.0	27.0	2.5	/experiments/knapen_aot/videos/S_pexels-diva-plavalaguna-6985395.mp4	0.0	216.69580507278442	2.507441997528076
29	86.0480089187622	fix_post	2		12.0	27.0	2.5	/experiments/knapen_aot/videos/S_pexels-diva-plavalaguna-6985395.mp4	0.0	219.2032470703125	0.10000801086425781
30	86.14801692962646	fix_pre	0		22.0	28.0	2.5	blank	1.0	219.30325508117676	0.1842210292816162
30	86.32312083244324	response	0	2		28.0	2.5	blank	1.0	219.47835898399353	
30	86.33223795890808	movie	1		301.0	28.0	2.5	blank	1.0	219.48747611045837	2.5073790550231934
30	88.83961701393127	fix_post	2		12.0	28.0	2.5	blank	1.0	221.99485516548157	0.1000359058380127
31	88.93965291976929	fix_pre	0		27.0	29.0	2.5	/experiments/knapen_aot/videos/S_yt-0Zze3Ff12Ys_58.mp4	0.0	222.09489107131958	0.22587800025939941
31	89.15644097328186	response	0	2		29.0	2.5	/experiments/knapen_aot/videos/S_yt-0Zze3Ff12Ys_58.mp4	0.0	222.31167912483215	
31	89.16553092002869	movie	1		301.0	29.0	2.5	/experiments/knapen_aot/videos/S_yt-0Zze3Ff12Ys_58.mp4	0.0	222.32076907157898	2.5074689388275146
31	91.6729998588562	fix_post	2		12.0	29.0	2.5	/experiments/knapen_aot/videos/S_yt-0Zze3Ff12Ys_58.mp4	0.0	224.8282380104065	0.10000801086425781
32	91.77300786972046	fix_pre	0		33.0	30.0	2.5	/experiments/knapen_aot/videos/R_S_video_inspire_texas_pecos_foggy-landscape_00018.1080-h264.mp4	0.0	224.92824602127075	0.2749810218811035
32	92.03977489471436	response	0	2		30.0	2.5	/experiments/knapen_aot/videos/R_S_video_inspire_texas_pecos_foggy-landscape_00018.1080-h264.mp4	0.0	225.19501304626465	
32	92.04798889160156	movie	1		170.0	30.0	2.5	/experiments/knapen_aot/videos/R_S_video_inspire_texas_pecos_foggy-landscape_00018.1080-h264.mp4	0.0	225.20322704315186	2.508242130279541
32	94.5562310218811	fix_post	2		12.0	30.0	2.5	/experiments/knapen_aot/videos/R_S_video_inspire_texas_pecos_foggy-landscape_00018.1080-h264.mp4	0.0	227.7114691734314	0.10008883476257324
33	94.65631985664368	fix_pre	0		29.0	31.0	2.5	/experiments/knapen_aot/videos/S_yt-hvuC_2YXsTQ_159.mp4	0.0	227.81155800819397	0.24172210693359375
33	94.88218402862549	response	0	2		31.0	2.5	/experiments/knapen_aot/videos/S_yt-hvuC_2YXsTQ_159.mp4	0.0	228.03742218017578	
33	94.89804196357727	movie	1		301.0	31.0	2.5	/experiments/knapen_aot/videos/S_yt-hvuC_2YXsTQ_159.mp4	0.0	228.05328011512756	2.5082669258117676
33	97.40630888938904	fix_post	2		12.0	31.0	2.5	/experiments/knapen_aot/videos/S_yt-hvuC_2YXsTQ_159.mp4	0.0	230.56154704093933	0.09991192817687988
34	97.50622081756592	fix_pre	0		26.0	32.0	2.5	/experiments/knapen_aot/videos/S_yt-PK-Eip9wFr0_24.mp4	0.0	230.6614589691162	0.21667909622192383
34	97.71476602554321	response	0	2		32.0	2.5	/experiments/knapen_aot/videos/S_yt-PK-Eip9wFr0_24.mp4	0.0	230.8700041770935	
34	97.72289991378784	movie	1		301.0	32.0	2.5	/experiments/knapen_aot/videos/S_yt-PK-Eip9wFr0_24.mp4	0.0	230.87813806533813	2.5084269046783447
34	100.23132681846619	fix_post	2		12.0	32.0	2.5	/experiments/knapen_aot/videos/S_yt-PK-Eip9wFr0_24.mp4	0.0	233.38656497001648	0.09992814064025879
35	100.33125495910645	fix_pre	0		33.0	33.0	2.5	/experiments/knapen_aot/videos/R_S_yt-4wYTkhggZNM_90.mp4	0.0	233.48649311065674	0.27492189407348633
35	100.5981240272522	response	0	2		33.0	2.5	/experiments/knapen_aot/videos/R_S_yt-4wYTkhggZNM_90.mp4	0.0	233.7533621788025	
35	100.60617685317993	movie	1		301.0	33.0	2.5	/experiments/knapen_aot/videos/R_S_yt-4wYTkhggZNM_90.mp4	0.0	233.76141500473022	2.508424997329712
35	103.11460185050964	fix_post	2		12.0	33.0	2.5	/experiments/knapen_aot/videos/R_S_yt-4wYTkhggZNM_90.mp4	0.0	236.26984000205994	0.10004901885986328
36	103.2146508693695	fix_pre	0		19.0	34.0	2.5	blank	1.0	236.3698890209198	0.15909814834594727
36	103.36470293998718	response	0	2		34.0	2.5	blank	1.0	236.51994109153748	
36	103.37374901771545	movie	1		301.0	34.0	2.5	blank	1.0	236.52898716926575	2.5074408054351807
36	105.88118982315063	fix_post	2		12.0	34.0	2.5	blank	1.0	239.03642797470093	0.10005521774291992
37	105.98124504089355	fix_pre	0		29.0	35.0	2.5	/experiments/knapen_aot/videos/R_S_yt-9mWz93En7Gw_97.mp4	0.0	239.13648319244385	0.2416238784790039
37	106.21468091011047	response	0	2		35.0	2.5	/experiments/knapen_aot/videos/R_S_yt-9mWz93En7Gw_97.mp4	0.0	239.36991906166077	
37	106.22286891937256	movie	1		301.0	35.0	2.5	/experiments/knapen_aot/videos/R_S_yt-9mWz93En7Gw_97.mp4	0.0	239.37810707092285	2.5083580017089844
37	108.73122692108154	fix_post	2		12.0	35.0	2.5	/experiments/knapen_aot/videos/R_S_yt-9mWz93En7Gw_97.mp4	0.0	241.88646507263184	0.09998512268066406
38	108.8312120437622	fix_pre	0		19.0	36.0	2.5	/experiments/knapen_aot/videos/S_production_ID_4584682.mp4	0.0	241.9864501953125	0.15832781791687012
38	108.98134088516235	response	0	2		36.0	2.5	/experiments/knapen_aot/videos/S_production_ID_4584682.mp4	0.0	242.13657903671265	
38	108.98953986167908	movie	1		163.0	36.0	2.5	/experiments/knapen_aot/videos/S_production_ID_4584682.mp4	0.0	242.14477801322937	2.508350133895874
38	111.49788999557495	fix_post	2		12.0	36.0	2.5	/experiments/knapen_aot/videos/S_production_ID_4584682.mp4	0.0	244.65312814712524	0.1000070571899414
39	111.59789705276489	fix_pre	0		29.0	37.0	2.5	/experiments/knapen_aot/videos/S_ILSVRC2015_train_00601000.mp4	0.0	244.75313520431519	0.2416079044342041
39	111.83133387565613	response	0	2		37.0	2.5	/experiments/knapen_aot/videos/S_ILSVRC2015_train_00601000.mp4	0.0	244.98657202720642	
39	111.8395049571991	movie	1		301.0	37.0	2.5	/experiments/knapen_aot/videos/S_ILSVRC2015_train_00601000.mp4	0.0	244.9947431087494	2.508302927017212
39	114.34780788421631	fix_post	2		12.0	37.0	2.5	/experiments/knapen_aot/videos/S_ILSVRC2015_train_00601000.mp4	0.0	247.5030460357666	0.10005998611450195
40	114.44786787033081	fix_pre	0		26.0	38.0	2.5	/experiments/knapen_aot/videos/S_yt-2jVJb1PR2XA_16.mp4	0.0	247.6031060218811	0.21737909317016602
40	114.65639901161194	response	0	2		38.0	2.5	/experiments/knapen_aot/videos/S_yt-2jVJb1PR2XA_16.mp4	0.0	247.81163716316223	
40	114.66524696350098	movie	1		300.0	38.0	2.5	/experiments/knapen_aot/videos/S_yt-2jVJb1PR2XA_16.mp4	0.0	247.82048511505127	2.5077240467071533
40	117.17297101020813	fix_post	2		12.0	38.0	2.5	/experiments/knapen_aot/videos/S_yt-2jVJb1PR2XA_16.mp4	0.0	250.32820916175842	0.09990286827087402
41	117.272873878479	fix_pre	0		25.0	39.0	2.5	/experiments/knapen_aot/videos/S_yt-qBPDvSQD0XY_5.mp4	0.0	250.4281120300293	0.20828604698181152
41	117.47298502922058	response	0	2		39.0	2.5	/experiments/knapen_aot/videos/S_yt-qBPDvSQD0XY_5.mp4	0.0	250.62822318077087	
41	117.48115992546082	movie	1		301.0	39.0	2.5	/experiments/knapen_aot/videos/S_yt-qBPDvSQD0XY_5.mp4	0.0	250.6363980770111	2.508345127105713
41	119.98950505256653	fix_post	2		12.0	39.0	2.5	/experiments/knapen_aot/videos/S_yt-qBPDvSQD0XY_5.mp4	0.0	253.14474320411682	0.1000518798828125
42	120.08955693244934	fix_pre	0		41.0	40.0	2.5	blank	1.0	253.24479508399963	0.34174108505249023
42	120.42310094833374	response	0	2		40.0	2.5	blank	1.0	253.57833909988403	
42	120.43129801750183	movie	1		301.0	40.0	2.5	blank	1.0	253.58653616905212	2.508232831954956
42	122.93953084945679	fix_post	2		12.0	40.0	2.5	blank	1.0	256.0947690010071	0.10001897811889648
43	123.03954982757568	fix_pre	0		38.0	41.0	2.5	/experiments/knapen_aot/videos/R_S_yt-uE9XoCLZlFo_1.mp4	0.0	256.194787979126	0.316561222076416
43	123.34797596931458	response	0	2		41.0	2.5	/experiments/knapen_aot/videos/R_S_yt-uE9XoCLZlFo_1.mp4	0.0	256.50321412086487	
43	123.3561110496521	movie	1		301.0	41.0	2.5	/experiments/knapen_aot/videos/R_S_yt-uE9XoCLZlFo_1.mp4	0.0	256.5113492012024	2.5083999633789062
43	125.864511013031	fix_post	2		12.0	41.0	2.5	/experiments/knapen_aot/videos/R_S_yt-uE9XoCLZlFo_1.mp4	0.0	259.0197491645813	0.10000181198120117
44	125.9645128250122	fix_pre	0		21.0	42.0	2.5	/experiments/knapen_aot/videos/S_yt-pPIHiIYSjW8_653.mp4	0.0	259.1197509765625	0.17496919631958008
44	126.13127303123474	response	0	2		42.0	2.5	/experiments/knapen_aot/videos/S_yt-pPIHiIYSjW8_653.mp4	0.0	259.28651118278503	
44	126.13948202133179	movie	1		301.0	42.0	2.5	/experiments/knapen_aot/videos/S_yt-pPIHiIYSjW8_653.mp4	0.0	259.2947201728821	2.508387804031372
44	128.64786982536316	fix_post	2		12.0	42.0	2.5	/experiments/knapen_aot/videos/S_yt-pPIHiIYSjW8_653.mp4	0.0	261.80310797691345	0.09997701644897461
45	128.74784684181213	fix_pre	0		32.0	43.0	2.5	/experiments/knapen_aot/videos/S_yt-aD-EAuBdpUo_163.mp4	0.0	261.9030849933624	0.2666051387786865
45	129.0063009262085	response	0	2		43.0	2.5	/experiments/knapen_aot/videos/S_yt-aD-EAuBdpUo_163.mp4	0.0	262.1615390777588	
45	129.01445198059082	movie	1		301.0	43.0	2.5	/experiments/knapen_aot/videos/S_yt-aD-EAuBdpUo_163.mp4	0.0	262.1696901321411	2.5083980560302734
45	131.5228500366211	fix_post	2		12.0	43.0	2.5	/experiments/knapen_aot/videos/S_yt-aD-EAuBdpUo_163.mp4	0.0	264.6780881881714	0.09992694854736328
46	131.62277698516846	fix_pre	0		44.0	44.0	2.5	/experiments/knapen_aot/videos/R_S_wc-AJxbR6daLxMM_5.mp4	0.0	264.77801513671875	0.36669397354125977
46	131.98126482963562	response	0	2		44.0	2.5	/experiments/knapen_aot/videos/R_S_wc-AJxbR6daLxMM_5.mp4	0.0	265.1365029811859	
46	131.98947095870972	movie	1		170.0	44.0	2.5	/experiments/knapen_aot/videos/R_S_wc-AJxbR6daLxMM_5.mp4	0.0	265.14470911026	2.508526086807251
46	134.49799704551697	fix_post	2		12.0	44.0	2.5	/experiments/knapen_aot/videos/R_S_wc-AJxbR6daLxMM_5.mp4	0.0	267.65323519706726	0.09978985786437988
47	134.59778690338135	fix_pre	0		11.0	45.0	2.5	/experiments/knapen_aot/videos/S_yt-gMqeZkpA_1Q_61.mp4	0.0	267.75302505493164	0.09161996841430664
47	134.68131184577942	response	0	2		45.0	2.5	/experiments/knapen_aot/videos/S_yt-gMqeZkpA_1Q_61.mp4	0.0	267.8365499973297	
47	134.68940687179565	movie	1		301.0	45.0	2.5	/experiments/knapen_aot/videos/S_yt-gMqeZkpA_1Q_61.mp4	0.0	267.84464502334595	2.5083670616149902
47	137.19777393341064	fix_post	2		12.0	45.0	2.5	/experiments/knapen_aot/videos/S_yt-gMqeZkpA_1Q_61.mp4	0.0	270.35301208496094	0.1001589298248291
48	137.29793286323547	fix_pre	0		21.0	46.0	2.5	/experiments/knapen_aot/videos/R_S_wc-AJxbR6daLxMM_5.mp4	0.0	270.45317101478577	0.17485499382019043
48	137.4647970199585	response	0	2		46.0	2.5	/experiments/knapen_aot/videos/R_S_wc-AJxbR6daLxMM_5.mp4	0.0	270.6200351715088	
48	137.47278785705566	movie	1		168.0	46.0	2.5	/experiments/knapen_aot/videos/R_S_wc-AJxbR6daLxMM_5.mp4	0.0	270.62802600860596	2.5083670616149902
48	139.98115491867065	fix_post	2		12.0	46.0	2.5	/experiments/knapen_aot/videos/R_S_wc-AJxbR6daLxMM_5.mp4	0.0	273.13639307022095	0.10004901885986328
49	140.08120393753052	fix_pre	0		29.0	47.0	2.5	blank	1.0	273.2364420890808	0.24151897430419922
49	140.3145468235016	response	0	2		47.0	2.5	blank	1.0	273.4697849750519	
49	140.32272291183472	movie	1		301.0	47.0	2.5	blank	1.0	273.477961063385	2.5084030628204346
49	142.83112597465515	fix_post	2		12.0	47.0	2.5	blank	1.0	275.98636412620544	0.09990787506103516
50	142.9310338497162	fix_pre	0		52.0	48.0	2.5	/experiments/knapen_aot/videos/S_yt-EFrazkRaYbs_21.mp4	0.0	276.0862720012665	0.43335819244384766
50	143.35619401931763	response	0	2		48.0	2.5	/experiments/knapen_aot/videos/S_yt-EFrazkRaYbs_21.mp4	0.0	276.5114321708679	
50	143.36439204216003	movie	1		301.0	48.0	2.5	/experiments/knapen_aot/videos/S_yt-EFrazkRaYbs_21.mp4	0.0	276.5196301937103	2.508408784866333
50	145.87280082702637	fix_post	2		12.0	48.0	2.5	/experiments/knapen_aot/videos/S_yt-EFrazkRaYbs_21.mp4	0.0	279.02803897857666	0.09989309310913086
51	145.9726939201355	fix_pre	0		36.0	49.0	2.5	/experiments/knapen_aot/videos/S_yt-7e6Z9QQieAk_183.mp4	0.0	279.1279320716858	0.300029993057251
51	146.26453495025635	response	0	2		49.0	2.5	/experiments/knapen_aot/videos/S_yt-7e6Z9QQieAk_183.mp4	0.0	279.41977310180664	
51	146.27272391319275	movie	1		301.0	49.0	2.5	/experiments/knapen_aot/videos/S_yt-7e6Z9QQieAk_183.mp4	0.0	279.42796206474304	2.508394956588745
51	148.7811188697815	fix_post	2		12.0	49.0	2.5	/experiments/knapen_aot/videos/S_yt-7e6Z9QQieAk_183.mp4	0.0	281.9363570213318	0.0999910831451416
52	148.88110995292664	fix_pre	0		32.0	50.0	2.5	/experiments/knapen_aot/videos/R_S_yt-WrwPgZYBXlA_34.mp4	0.0	282.03634810447693	0.26661205291748047
52	149.13953685760498	response	0	2		50.0	2.5	/experiments/knapen_aot/videos/R_S_yt-WrwPgZYBXlA_34.mp4	0.0	282.2947750091553	
52	149.14772200584412	movie	1		301.0	50.0	2.5	/experiments/knapen_aot/videos/R_S_yt-WrwPgZYBXlA_34.mp4	0.0	282.3029601573944	2.508312940597534
52	151.65603494644165	fix_post	2		12.0	50.0	2.5	/experiments/knapen_aot/videos/R_S_yt-WrwPgZYBXlA_34.mp4	0.0	284.81127309799194	0.09996700286865234
53	151.7560019493103	fix_pre	0		33.0	51.0	2.5	/experiments/knapen_aot/videos/R_S_yt-2OoHcgS8sss_7.mp4	0.0	284.9112401008606	0.2750060558319092
53	152.02283883094788	response	0	2		51.0	2.5	/experiments/knapen_aot/videos/R_S_yt-2OoHcgS8sss_7.mp4	0.0	285.17807698249817	
53	152.0310080051422	movie	1		301.0	51.0	2.5	/experiments/knapen_aot/videos/R_S_yt-2OoHcgS8sss_7.mp4	0.0	285.1862461566925	2.508436918258667
53	154.53944492340088	fix_post	2		12.0	51.0	2.5	/experiments/knapen_aot/videos/R_S_yt-2OoHcgS8sss_7.mp4	0.0	287.6946830749512	0.09997797012329102
54	154.63942289352417	fix_pre	0		48.0	52.0	2.5	/experiments/knapen_aot/videos/S_yt-2OoHcgS8sss_7.mp4	0.0	287.79466104507446	0.4004099369049072
54	155.0312728881836	response	0	2		52.0	2.5	/experiments/knapen_aot/videos/S_yt-2OoHcgS8sss_7.mp4	0.0	288.1865110397339	
54	155.03983283042908	movie	1		301.0	52.0	2.5	/experiments/knapen_aot/videos/S_yt-2OoHcgS8sss_7.mp4	0.0	288.19507098197937	2.50793719291687
54	157.54777002334595	fix_post	2		12.0	52.0	2.5	/experiments/knapen_aot/videos/S_yt-2OoHcgS8sss_7.mp4	0.0	290.70300817489624	0.0999460220336914
55	157.64771604537964	fix_pre	0		37.0	53.0	2.5	/experiments/knapen_aot/videos/R_S_yt-xCh0LI9VKeI_28.mp4	0.0	290.80295419692993	0.30873799324035645
55	157.94777488708496	response	0	2		53.0	2.5	/experiments/knapen_aot/videos/R_S_yt-xCh0LI9VKeI_28.mp4	0.0	291.10301303863525	
55	157.95645403862	movie	1		301.0	53.0	2.5	/experiments/knapen_aot/videos/R_S_yt-xCh0LI9VKeI_28.mp4	0.0	291.1116921901703	2.5079197883605957
55	160.4643738269806	fix_post	2		12.0	53.0	2.5	/experiments/knapen_aot/videos/R_S_yt-xCh0LI9VKeI_28.mp4	0.0	293.6196119785309	0.10001111030578613
56	160.56438493728638	fix_pre	0		21.0	54.0	2.5	blank	1.0	293.71962308883667	0.17494797706604004
56	160.7311089038849	response	0	2		54.0	2.5	blank	1.0	293.8863470554352	
56	160.73933291435242	movie	1		301.0	54.0	2.5	blank	1.0	293.8945710659027	2.508371114730835
56	163.24770402908325	fix_post	2		12.0	54.0	2.5	blank	1.0	296.40294218063354	0.10005879402160645
57	163.34776282310486	fix_pre	0		57.0	55.0	2.5	/experiments/knapen_aot/videos/S_yt-LsCCAQ8BRO8_7.mp4	0.0	296.50300097465515	0.4748861789703369
57	163.81442785263062	response	0	2		55.0	2.5	/experiments/knapen_aot/videos/S_yt-LsCCAQ8BRO8_7.mp4	0.0	296.9696660041809	
57	163.8226490020752	movie	1		301.0	55.0	2.5	/experiments/knapen_aot/videos/S_yt-LsCCAQ8BRO8_7.mp4	0.0	296.9778871536255	2.508359909057617
57	166.3310089111328	fix_post	2		12.0	55.0	2.5	/experiments/knapen_aot/videos/S_yt-LsCCAQ8BRO8_7.mp4	0.0	299.4862470626831	0.10016512870788574
58	166.4311740398407	fix_pre	0		53.0	56.0	2.5	/experiments/knapen_aot/videos/R_S_AK_A004_C012_SDR_20191217_SDR_2K_AVC.mp4	0.0	299.586412191391	0.44191598892211914
58	166.86444401741028	response	0	2		56.0	2.5	/experiments/knapen_aot/videos/R_S_AK_A004_C012_SDR_20191217_SDR_2K_AVC.mp4	0.0	300.01968216896057	
58	166.87309002876282	movie	1		165.0	56.0	2.5	/experiments/knapen_aot/videos/R_S_AK_A004_C012_SDR_20191217_SDR_2K_AVC.mp4	0.0	300.0283281803131	2.5079100131988525
58	169.38100004196167	fix_post	2		12.0	56.0	2.5	/experiments/knapen_aot/videos/R_S_AK_A004_C012_SDR_20191217_SDR_2K_AVC.mp4	0.0	302.53623819351196	0.09999299049377441
59	169.48099303245544	fix_pre	0		33.0	57.0	2.5	/experiments/knapen_aot/videos/S_yt-qycUhA3Isjg_76.mp4	0.0	302.63623118400574	0.2749979496002197
59	169.74772095680237	response	0	2		57.0	2.5	/experiments/knapen_aot/videos/S_yt-qycUhA3Isjg_76.mp4	0.0	302.90295910835266	
59	169.75599098205566	movie	1		301.0	57.0	2.5	/experiments/knapen_aot/videos/S_yt-qycUhA3Isjg_76.mp4	0.0	302.91122913360596	2.508347988128662
59	172.26433897018433	fix_post	2		12.0	57.0	2.5	/experiments/knapen_aot/videos/S_yt-qycUhA3Isjg_76.mp4	0.0	305.4195771217346	0.10003900527954102
60	172.36437797546387	fix_pre	0		34.0	58.0	2.5	/experiments/knapen_aot/videos/R_S_yt-4wYTkhggZNM_90.mp4	0.0	305.51961612701416	0.28325390815734863
60	172.63946199417114	response	0	2		58.0	2.5	/experiments/knapen_aot/videos/R_S_yt-4wYTkhggZNM_90.mp4	0.0	305.79470014572144	
60	172.64763188362122	movie	1		301.0	58.0	2.5	/experiments/knapen_aot/videos/R_S_yt-4wYTkhggZNM_90.mp4	0.0	305.8028700351715	2.508350133895874
60	175.1559820175171	fix_post	2		12.0	58.0	2.5	/experiments/knapen_aot/videos/R_S_yt-4wYTkhggZNM_90.mp4	0.0	308.3112201690674	0.10007095336914062
61	175.25605297088623	fix_pre	0		33.0	59.0	2.5	/experiments/knapen_aot/videos/S_I003_C004_SDR_2K_AVC.mp4	0.0	308.4112911224365	0.2748720645904541
61	175.5228078365326	response	0	2		59.0	2.5	/experiments/knapen_aot/videos/S_I003_C004_SDR_2K_AVC.mp4	0.0	308.6780459880829	
61	175.53092503547668	movie	1		169.0	59.0	2.5	/experiments/knapen_aot/videos/S_I003_C004_SDR_2K_AVC.mp4	0.0	308.686163187027	2.5083889961242676
61	178.03931403160095	fix_post	2		12.0	59.0	2.5	/experiments/knapen_aot/videos/S_I003_C004_SDR_2K_AVC.mp4	0.0	311.19455218315125	0.09991288185119629
62	178.13922691345215	fix_pre	0		46.0	60.0	2.5	/experiments/knapen_aot/videos/R_S_ILSVRC2015_train_00515001.mp4	0.0	311.29446506500244	0.3833489418029785
62	178.5145709514618	response	0	2		60.0	2.5	/experiments/knapen_aot/videos/R_S_ILSVRC2015_train_00515001.mp4	0.0	311.6698091030121	
62	178.52257585525513	movie	1		301.0	60.0	2.5	/experiments/knapen_aot/videos/R_S_ILSVRC2015_train_00515001.mp4	0.0	311.6778140068054	2.508378028869629
62	181.03095388412476	fix_post	2		12.0	60.0	2.5	/experiments/knapen_aot/videos/R_S_ILSVRC2015_train_00515001.mp4	0.0	314.18619203567505	0.09992814064025879
63	181.13088202476501	fix_pre	0		27.0	61.0	2.5	blank	1.0	314.2861201763153	0.22503399848937988
63	181.34769201278687	response	0	2		61.0	2.5	blank	1.0	314.50293016433716	
63	181.3559160232544	movie	1		301.0	61.0	2.5	blank	1.0	314.5111541748047	2.5083909034729004
63	183.8643069267273	fix_post	2		12.0	61.0	2.5	blank	1.0	317.0195450782776	0.10028195381164551
64	183.96458888053894	fix_pre	0		43.0	62.0	2.5	/experiments/knapen_aot/videos/S_ILSVRC2015_train_00568002.mp4	0.0	317.11982703208923	0.3579690456390381
64	184.31430888175964	response	0	2		62.0	2.5	/experiments/knapen_aot/videos/S_ILSVRC2015_train_00568002.mp4	0.0	317.46954703330994	
64	184.32255792617798	movie	1		301.0	62.0	2.5	/experiments/knapen_aot/videos/S_ILSVRC2015_train_00568002.mp4	0.0	317.47779607772827	2.5083940029144287
64	186.8309519290924	fix_post	2		12.0	62.0	2.5	/experiments/knapen_aot/videos/S_ILSVRC2015_train_00568002.mp4	0.0	319.9861900806427	0.10000491142272949
65	186.93095684051514	fix_pre	0		40.0	63.0	2.5	/experiments/knapen_aot/videos/R_S_yt-FoO02U39gy4_398.mp4	0.0	320.08619499206543	0.3332071304321289
65	187.25598883628845	response	0	2		63.0	2.5	/experiments/knapen_aot/videos/R_S_yt-FoO02U39gy4_398.mp4	0.0	320.41122698783875	
65	187.26416397094727	movie	1		301.0	63.0	2.5	/experiments/knapen_aot/videos/R_S_yt-FoO02U39gy4_398.mp4	0.0	320.41940212249756	2.5084550380706787
65	189.77261900901794	fix_post	2		12.0	63.0	2.5	/experiments/knapen_aot/videos/R_S_yt-FoO02U39gy4_398.mp4	0.0	322.92785716056824	0.10032200813293457
66	189.87294101715088	fix_pre	0		110.0	64.0	2.5	/experiments/knapen_aot/videos/S_yt-J2PiBa1MXI0_210.mp4	0.0	323.0281791687012	0.9165349006652832
66	190.78104400634766	response	0	2		64.0	2.5	/experiments/knapen_aot/videos/S_yt-J2PiBa1MXI0_210.mp4	0.0	323.93628215789795	
66	190.78947591781616	movie	1		301.0	64.0	2.5	/experiments/knapen_aot/videos/S_yt-J2PiBa1MXI0_210.mp4	0.0	323.94471406936646	2.5080690383911133
66	193.29754495620728	fix_post	2		12.0	64.0	2.5	/experiments/knapen_aot/videos/S_yt-J2PiBa1MXI0_210.mp4	0.0	326.45278310775757	0.10004305839538574
67	193.39758801460266	fix_pre	0		34.0	65.0	2.5	/experiments/knapen_aot/videos/R_S_yt-GWOOQZ19-oU_331.mp4	0.0	326.55282616615295	0.2832939624786377
67	193.67266392707825	response	0	2		65.0	2.5	/experiments/knapen_aot/videos/R_S_yt-GWOOQZ19-oU_331.mp4	0.0	326.82790207862854	
67	193.6808819770813	movie	1		301.0	65.0	2.5	/experiments/knapen_aot/videos/R_S_yt-GWOOQZ19-oU_331.mp4	0.0	326.8361201286316	2.508305072784424
67	196.18918704986572	fix_post	2		12.0	65.0	2.5	/experiments/knapen_aot/videos/R_S_yt-GWOOQZ19-oU_331.mp4	0.0	329.344425201416	0.1002957820892334
68	196.28948283195496	fix_pre	0		29.0	66.0	2.5	/experiments/knapen_aot/videos/S_yt-thmqgEV-sYY_91.mp4	0.0	329.44472098350525	0.24137401580810547
68	196.51517701148987	response	0	2		66.0	2.5	/experiments/knapen_aot/videos/S_yt-thmqgEV-sYY_91.mp4	0.0	329.67041516304016	
68	196.53085684776306	movie	1		301.0	66.0	2.5	/experiments/knapen_aot/videos/S_yt-thmqgEV-sYY_91.mp4	0.0	329.68609499931335	2.5083460807800293
68	199.0392029285431	fix_post	2		12.0	66.0	2.5	/experiments/knapen_aot/videos/S_yt-thmqgEV-sYY_91.mp4	0.0	332.1944410800934	0.10038590431213379
69	199.13958883285522	fix_pre	0		11.0	67.0	2.5	/experiments/knapen_aot/videos/S_yt-KNdCiW8m1uY_168.mp4	0.0	332.2948269844055	0.09124016761779785
69	199.22264790534973	response	0	2		67.0	2.5	/experiments/knapen_aot/videos/S_yt-KNdCiW8m1uY_168.mp4	0.0	332.3778860569	
69	199.23082900047302	movie	1		301.0	67.0	2.5	/experiments/knapen_aot/videos/S_yt-KNdCiW8m1uY_168.mp4	0.0	332.3860671520233	2.508366823196411
69	201.73919582366943	fix_post	2		12.0	67.0	2.5	/experiments/knapen_aot/videos/S_yt-KNdCiW8m1uY_168.mp4	0.0	334.8944339752197	0.09999203681945801
70	201.8391878604889	fix_pre	0		45.0	68.0	2.5	blank	1.0	334.9944260120392	0.3750021457672119
70	202.20594882965088	response	0	2		68.0	2.5	blank	1.0	335.3611869812012	
70	202.2141900062561	movie	1		301.0	68.0	2.5	blank	1.0	335.3694281578064	2.508344888687134
70	204.72253489494324	fix_post	2		12.0	68.0	2.5	blank	1.0	337.87777304649353	0.10008502006530762
71	204.82261991500854	fix_pre	0		30.0	69.0	2.5	/experiments/knapen_aot/videos/S_yt-0Zze3Ff12Ys_58.mp4	0.0	337.97785806655884	0.24982404708862305
71	205.06427693367004	response	0	2		69.0	2.5	/experiments/knapen_aot/videos/S_yt-0Zze3Ff12Ys_58.mp4	0.0	338.21951508522034	
71	205.07244396209717	movie	1		301.0	69.0	2.5	/experiments/knapen_aot/videos/S_yt-0Zze3Ff12Ys_58.mp4	0.0	338.22768211364746	2.508449077606201
71	207.58089303970337	fix_post	2		12.0	69.0	2.5	/experiments/knapen_aot/videos/S_yt-0Zze3Ff12Ys_58.mp4	0.0	340.73613119125366	0.09988880157470703
72	207.68078184127808	fix_pre	0		28.0	70.0	2.5	/experiments/knapen_aot/videos/S_yt-M8wvzt_BMXM_173.mp4	0.0	340.83601999282837	0.23366308212280273
72	207.90593600273132	response	0	2		70.0	2.5	/experiments/knapen_aot/videos/S_yt-M8wvzt_BMXM_173.mp4	0.0	341.0611741542816	
72	207.91444492340088	movie	1		301.0	70.0	2.5	/experiments/knapen_aot/videos/S_yt-M8wvzt_BMXM_173.mp4	0.0	341.0696830749512	2.5080549716949463
72	210.42249989509583	fix_post	2		12.0	70.0	2.5	/experiments/knapen_aot/videos/S_yt-M8wvzt_BMXM_173.mp4	0.0	343.5777380466461	0.09991598129272461
73	210.52241587638855	fix_pre	0		35.0	71.0	2.5	/experiments/knapen_aot/videos/R_S_yt-VJ65ukWmdxQ_193.mp4	0.0	343.67765402793884	0.29166507720947266
73	210.80587887763977	response	0	2		71.0	2.5	/experiments/knapen_aot/videos/R_S_yt-VJ65ukWmdxQ_193.mp4	0.0	343.96111702919006	
73	210.81408095359802	movie	1		301.0	71.0	2.5	/experiments/knapen_aot/videos/R_S_yt-VJ65ukWmdxQ_193.mp4	0.0	343.9693191051483	2.5084218978881836
73	213.3225028514862	fix_post	2		12.0	71.0	2.5	/experiments/knapen_aot/videos/R_S_yt-VJ65ukWmdxQ_193.mp4	0.0	346.4777410030365	0.10006213188171387
74	213.42256498336792	fix_pre	0		39.0	72.0	2.5	/experiments/knapen_aot/videos/S_yt-6xXEMHBQ08A_28.mp4	0.0	346.5778031349182	0.32511091232299805
74	213.73922085762024	response	0	2		72.0	2.5	/experiments/knapen_aot/videos/S_yt-6xXEMHBQ08A_28.mp4	0.0	346.89445900917053	
74	213.74767589569092	movie	1		301.0	72.0	2.5	/experiments/knapen_aot/videos/S_yt-6xXEMHBQ08A_28.mp4	0.0	346.9029140472412	2.508064031600952
74	216.25573992729187	fix_post	2		12.0	72.0	2.5	/experiments/knapen_aot/videos/S_yt-6xXEMHBQ08A_28.mp4	0.0	349.41097807884216	0.10006499290466309
75	216.35580492019653	fix_pre	0		37.0	73.0	2.5	/experiments/knapen_aot/videos/R_S_yt-LdHRVIb4nIE_6.mp4	0.0	349.5110430717468	0.30845093727111816
75	216.6559009552002	response	0	2		73.0	2.5	/experiments/knapen_aot/videos/R_S_yt-LdHRVIb4nIE_6.mp4	0.0	349.8111391067505	
75	216.66425585746765	movie	1		301.0	73.0	2.5	/experiments/knapen_aot/videos/R_S_yt-LdHRVIb4nIE_6.mp4	0.0	349.81949400901794	2.5081980228424072
75	219.17245388031006	fix_post	2		12.0	73.0	2.5	/experiments/knapen_aot/videos/R_S_yt-LdHRVIb4nIE_6.mp4	0.0	352.32769203186035	0.10001897811889648
76	219.27247285842896	fix_pre	0		36.0	74.0	2.5	/experiments/knapen_aot/videos/R_S_production_ID_4101225.mp4	0.0	352.42771100997925	0.29990410804748535
76	219.55673599243164	response	0	2		74.0	2.5	/experiments/knapen_aot/videos/R_S_production_ID_4101225.mp4	0.0	352.71197414398193	
76	219.57237696647644	movie	1		199.0	74.0	2.5	/experiments/knapen_aot/videos/R_S_production_ID_4101225.mp4	0.0	352.72761511802673	2.5086610317230225
76	222.08103799819946	fix_post	2		12.0	74.0	2.5	/experiments/knapen_aot/videos/R_S_production_ID_4101225.mp4	0.0	355.23627614974976	0.09974288940429688
77	222.18078088760376	fix_pre	0		28.0	75.0	2.5	/experiments/knapen_aot/videos/S_Y005_C003_SDR_2K_AVC.mp4	0.0	355.33601903915405	0.23337793350219727
77	222.4059088230133	response	0	2		75.0	2.5	/experiments/knapen_aot/videos/S_Y005_C003_SDR_2K_AVC.mp4	0.0	355.5611469745636	
77	222.41415882110596	movie	1		166.0	75.0	2.5	/experiments/knapen_aot/videos/S_Y005_C003_SDR_2K_AVC.mp4	0.0	355.56939697265625	2.5083532333374023
77	224.92251205444336	fix_post	2		12.0	75.0	2.5	/experiments/knapen_aot/videos/S_Y005_C003_SDR_2K_AVC.mp4	0.0	358.07775020599365	0.0998988151550293
78	225.0224108695984	fix_pre	0		49.0	76.0	2.5	blank	1.0	358.1776490211487	0.4083290100097656
78	225.42242693901062	response	0	2		76.0	2.5	blank	1.0	358.5776650905609	
78	225.43073987960815	movie	1		301.0	76.0	2.5	blank	1.0	358.58597803115845	2.5083460807800293
78	227.93908596038818	fix_post	2		12.0	76.0	2.5	blank	1.0	361.0943241119385	0.10016608238220215
79	228.03925204277039	fix_pre	0		42.0	77.0	2.5	/experiments/knapen_aot/videos/S_pexels-cottonbro-6789228.mp4	0.0	361.1944901943207	0.3497629165649414
79	228.3810739517212	response	0	2		77.0	2.5	/experiments/knapen_aot/videos/S_pexels-cottonbro-6789228.mp4	0.0	361.5363121032715	
79	228.38901495933533	movie	1		195.0	77.0	2.5	/experiments/knapen_aot/videos/S_pexels-cottonbro-6789228.mp4	0.0	361.5442531108856	2.5084068775177
79	230.89742183685303	fix_post	2		12.0	77.0	2.5	/experiments/knapen_aot/videos/S_pexels-cottonbro-6789228.mp4	0.0	364.0526599884033	0.10013103485107422
80	230.9975528717041	fix_pre	0		38.0	78.0	2.5	/experiments/knapen_aot/videos/R_S_production_ID_4325506.mp4	0.0	364.1527910232544	0.3164520263671875
80	231.30593490600586	response	0	2		78.0	2.5	/experiments/knapen_aot/videos/R_S_production_ID_4325506.mp4	0.0	364.46117305755615	
80	231.3140048980713	movie	1		196.0	78.0	2.5	/experiments/knapen_aot/videos/R_S_production_ID_4325506.mp4	0.0	364.4692430496216	2.508634090423584
80	233.82263898849487	fix_post	2		12.0	78.0	2.5	/experiments/knapen_aot/videos/R_S_production_ID_4325506.mp4	0.0	366.97787714004517	0.09987783432006836
81	233.92251682281494	fix_pre	0		45.0	79.0	2.5	/experiments/knapen_aot/videos/S_Pexels_Videos_2786546.mp4	0.0	367.07775497436523	0.3748321533203125
81	234.2816379070282	response	0	2		79.0	2.5	/experiments/knapen_aot/videos/S_Pexels_Videos_2786546.mp4	0.0	367.4368760585785	
81	234.29734897613525	movie	1		166.0	79.0	2.5	/experiments/knapen_aot/videos/S_Pexels_Videos_2786546.mp4	0.0	367.45258712768555	2.5083138942718506
81	236.8056628704071	fix_post	2		12.0	79.0	2.5	/experiments/knapen_aot/videos/S_Pexels_Videos_2786546.mp4	0.0	369.9609010219574	0.10005617141723633
82	236.90571904182434	fix_pre	0		28.0	80.0	2.5	/experiments/knapen_aot/videos/S_ILSVRC2015_train_00704000.mp4	0.0	370.06095719337463	0.23330187797546387
82	237.13077998161316	response	0	2		80.0	2.5	/experiments/knapen_aot/videos/S_ILSVRC2015_train_00704000.mp4	0.0	370.28601813316345	
82	237.1390209197998	movie	1		301.0	80.0	2.5	/experiments/knapen_aot/videos/S_ILSVRC2015_train_00704000.mp4	0.0	370.2942590713501	2.5082719326019287
82	239.64729285240173	fix_post	2		12.0	80.0	2.5	/experiments/knapen_aot/videos/S_ILSVRC2015_train_00704000.mp4	0.0	372.802531003952	0.10015606880187988
83	239.7474489212036	fix_pre	0		15.0	81.0	2.5	/experiments/knapen_aot/videos/R_S_yt-cG2qDR5ka5w_119.mp4	0.0	372.9026870727539	0.12495303153991699
83	239.86410403251648	response	0	2		81.0	2.5	/experiments/knapen_aot/videos/R_S_yt-cG2qDR5ka5w_119.mp4	0.0	373.0193421840668	
83	239.87240195274353	movie	1		301.0	81.0	2.5	/experiments/knapen_aot/videos/R_S_yt-cG2qDR5ka5w_119.mp4	0.0	373.0276401042938	2.508488893508911
83	242.38089084625244	fix_post	2		12.0	81.0	2.5	/experiments/knapen_aot/videos/R_S_yt-cG2qDR5ka5w_119.mp4	0.0	375.53612899780273	0.0998070240020752
84	242.48069787025452	fix_pre	0		18.0	82.0	2.5	/experiments/knapen_aot/videos/R_S_yt-NQSCGMpo-p8_118.mp4	0.0	375.6359360218048	0.15000605583190918
84	242.62244296073914	response	0	2		82.0	2.5	/experiments/knapen_aot/videos/R_S_yt-NQSCGMpo-p8_118.mp4	0.0	375.77768111228943	
84	242.63070392608643	movie	1		301.0	82.0	2.5	/experiments/knapen_aot/videos/R_S_yt-NQSCGMpo-p8_118.mp4	0.0	375.7859420776367	2.508315086364746
84	245.13901901245117	fix_post	2		12.0	82.0	2.5	/experiments/knapen_aot/videos/R_S_yt-NQSCGMpo-p8_118.mp4	0.0	378.29425716400146	0.1000068187713623
85	245.23902583122253	fix_pre	0		39.0	83.0	2.5	blank	1.0	378.3942639827728	0.32491207122802734
85	245.5557849407196	response	0	2		83.0	2.5	blank	1.0	378.7110230922699	
85	245.56393790245056	movie	1		301.0	83.0	2.5	blank	1.0	378.71917605400085	2.508404016494751
85	245.9940629005432	response	1	space		83.0	2.5	blank	1.0	379.1493010520935	
85	248.0723419189453	fix_post	2		12.0	83.0	2.5	blank	1.0	381.2275800704956	0.10008406639099121
87	248.1724259853363	stim	0		86.0					381.3276641368866	0.7166130542755127
87	248.8807249069214	response	0	space						382.0359630584717	
