trial_nr	onset	event_type	phase	response	nr_frames	movie_index	movie_duration	movie_file	blank	onset_abs	duration
0	0.12486791610717773	stim	0		34.0					60.77245903015137	0.28418612480163574
0	0.4000411033630371	response	0	space						61.04763221740723	
1	0.4090540409088135	stim	0		121.0					61.056645154953	1.0072109699249268
1	1.0250511169433594	response	0	space						61.67264223098755	
1	1.2996559143066406	response	0	space						61.94724702835083	
1	1.4162650108337402	stim	1		120.0					62.06385612487793	0.9999649524688721
1	2.3664159774780273	response	1	space						63.01400709152222	
2	2.4162299633026123	fix_pre	0		37.0	0.0	2.5	/experiments/knapen_aot/videos/R_S_yt-w_C-15eJeCQ_191.mp4	0.0	63.0638210773468	0.30827903747558594
2	2.7088420391082764	response	0	space		0.0	2.5	/experiments/knapen_aot/videos/R_S_yt-w_C-15eJeCQ_191.mp4	0.0	63.356433153152466	
2	2.7245090007781982	movie	1		301.0	0.0	2.5	/experiments/knapen_aot/videos/R_S_yt-w_C-15eJeCQ_191.mp4	0.0	63.37210011482239	2.508375883102417
2	5.232884883880615	fix_post	2		12.0	0.0	2.5	/experiments/knapen_aot/videos/R_S_yt-w_C-15eJeCQ_191.mp4	0.0	65.8804759979248	0.1000511646270752
3	5.33293604850769	fix_pre	0		76.0	1.0	2.5	/experiments/knapen_aot/videos/R_S_comp_GMT329_117NC_401C_1037_IRELAND_TO_ASIA_v48_SDR_PS_FINAL_20180725_F0F6300_SDR_2K_AVC.mp4	0.0	65.98052716255188	0.6332728862762451
3	5.9609129428863525	response	0	2		1.0	2.5	/experiments/knapen_aot/videos/R_S_comp_GMT329_117NC_401C_1037_IRELAND_TO_ASIA_v48_SDR_PS_FINAL_20180725_F0F6300_SDR_2K_AVC.mp4	0.0	66.60850405693054	
3	5.9662089347839355	movie	1		165.0	1.0	2.5	/experiments/knapen_aot/videos/R_S_comp_GMT329_117NC_401C_1037_IRELAND_TO_ASIA_v48_SDR_PS_FINAL_20180725_F0F6300_SDR_2K_AVC.mp4	0.0	66.61380004882812	2.5083351135253906
3	8.474544048309326	fix_post	2		12.0	1.0	2.5	/experiments/knapen_aot/videos/R_S_comp_GMT329_117NC_401C_1037_IRELAND_TO_ASIA_v48_SDR_PS_FINAL_20180725_F0F6300_SDR_2K_AVC.mp4	0.0	69.12213516235352	0.1000528335571289
4	8.574596881866455	fix_pre	0		76.0	2.0	2.5	/experiments/knapen_aot/videos/S_video_inspire_sanfrancisco_castro_005.1080-h264.mp4	0.0	69.22218799591064	0.6332650184631348
4	9.192147016525269	response	0	2		2.0	2.5	/experiments/knapen_aot/videos/S_video_inspire_sanfrancisco_castro_005.1080-h264.mp4	0.0	69.83973813056946	
4	9.20786190032959	movie	1		168.0	2.0	2.5	/experiments/knapen_aot/videos/S_video_inspire_sanfrancisco_castro_005.1080-h264.mp4	0.0	69.85545301437378	2.5084571838378906
4	11.71631908416748	fix_post	2		12.0	2.0	2.5	/experiments/knapen_aot/videos/S_video_inspire_sanfrancisco_castro_005.1080-h264.mp4	0.0	72.36391019821167	0.09992098808288574
5	11.816240072250366	fix_pre	0		53.0	3.0	2.5	/experiments/knapen_aot/videos/R_S_yt-78k6vUHDWAI_206.mp4	0.0	72.46383118629456	0.44164586067199707
5	12.249685049057007	response	0	2		3.0	2.5	/experiments/knapen_aot/videos/R_S_yt-78k6vUHDWAI_206.mp4	0.0	72.8972761631012	
5	12.257885932922363	movie	1		301.0	3.0	2.5	/experiments/knapen_aot/videos/R_S_yt-78k6vUHDWAI_206.mp4	0.0	72.90547704696655	2.5085079669952393
5	14.766393899917603	fix_post	2		12.0	3.0	2.5	/experiments/knapen_aot/videos/R_S_yt-78k6vUHDWAI_206.mp4	0.0	75.41398501396179	0.09986710548400879
6	14.866261005401611	fix_pre	0		62.0	4.0	2.5	/experiments/knapen_aot/videos/R_S_production_ID_4997166.mp4	0.0	75.5138521194458	0.5166850090026855
6	15.374712944030762	response	0	2		4.0	2.5	/experiments/knapen_aot/videos/R_S_production_ID_4997166.mp4	0.0	76.02230405807495	
6	15.382946014404297	movie	1		170.0	4.0	2.5	/experiments/knapen_aot/videos/R_S_production_ID_4997166.mp4	0.0	76.03053712844849	2.5083560943603516
6	17.89130210876465	fix_post	2		12.0	4.0	2.5	/experiments/knapen_aot/videos/R_S_production_ID_4997166.mp4	0.0	78.53889322280884	0.09990191459655762
7	17.991204023361206	fix_pre	0		43.0	5.0	2.5	/experiments/knapen_aot/videos/S_yt-Ryb0K9lGPrg_5.mp4	0.0	78.6387951374054	0.35832786560058594
7	18.34129309654236	response	0	2		5.0	2.5	/experiments/knapen_aot/videos/S_yt-Ryb0K9lGPrg_5.mp4	0.0	78.98888421058655	
7	18.349531888961792	movie	1		301.0	5.0	2.5	/experiments/knapen_aot/videos/S_yt-Ryb0K9lGPrg_5.mp4	0.0	78.99712300300598	2.508406162261963
7	20.857938051223755	fix_post	2		12.0	5.0	2.5	/experiments/knapen_aot/videos/S_yt-Ryb0K9lGPrg_5.mp4	0.0	81.50552916526794	0.09994196891784668
8	20.9578800201416	fix_pre	0		65.0	6.0	2.5	/experiments/knapen_aot/videos/R_S_yt-4GDusA21cEA_170.mp4	0.0	81.60547113418579	0.5415999889373779
8	21.49134111404419	response	0	2		6.0	2.5	/experiments/knapen_aot/videos/R_S_yt-4GDusA21cEA_170.mp4	0.0	82.13893222808838	
8	21.49948000907898	movie	1		301.0	6.0	2.5	/experiments/knapen_aot/videos/R_S_yt-4GDusA21cEA_170.mp4	0.0	82.14707112312317	2.5084779262542725
8	24.007957935333252	fix_post	2		12.0	6.0	2.5	/experiments/knapen_aot/videos/R_S_yt-4GDusA21cEA_170.mp4	0.0	84.65554904937744	0.09995198249816895
9	24.10790991783142	fix_pre	0		64.0	7.0	2.5	blank	1.0	84.75550103187561	0.5333070755004883
9	24.625521898269653	response	0	2		7.0	2.5	blank	1.0	85.27311301231384	
9	24.64121699333191	movie	1		301.0	7.0	2.5	blank	1.0	85.2888081073761	2.5083909034729004
9	27.14960789680481	fix_post	2		12.0	7.0	2.5	blank	1.0	87.797199010849	0.0999140739440918
10	27.2495219707489	fix_pre	0		75.0	8.0	2.5	/experiments/knapen_aot/videos/S_yt-fIEGqReekCM_10.mp4	0.0	87.89711308479309	0.6249709129333496
10	27.866273880004883	response	0	2		8.0	2.5	/experiments/knapen_aot/videos/S_yt-fIEGqReekCM_10.mp4	0.0	88.51386499404907	
10	27.87449288368225	movie	1		301.0	8.0	2.5	/experiments/knapen_aot/videos/S_yt-fIEGqReekCM_10.mp4	0.0	88.52208399772644	2.508416175842285
10	30.382909059524536	fix_post	2		12.0	8.0	2.5	/experiments/knapen_aot/videos/S_yt-fIEGqReekCM_10.mp4	0.0	91.03050017356873	0.09999895095825195
11	30.482908010482788	fix_pre	0		136.0	9.0	2.5	/experiments/knapen_aot/videos/S_yt-k-MRlbCOzZU_163.mp4	0.0	91.13049912452698	1.1339120864868164
11	31.607891082763672	response	0	2		9.0	2.5	/experiments/knapen_aot/videos/S_yt-k-MRlbCOzZU_163.mp4	0.0	92.25548219680786	
11	31.616820096969604	movie	1		301.0	9.0	2.5	/experiments/knapen_aot/videos/S_yt-k-MRlbCOzZU_163.mp4	0.0	92.2644112110138	2.5076639652252197
11	34.124484062194824	fix_post	2		12.0	9.0	2.5	/experiments/knapen_aot/videos/S_yt-k-MRlbCOzZU_163.mp4	0.0	94.77207517623901	0.09993886947631836
12	34.22442293167114	fix_pre	0		117.0	10.0	2.5	/experiments/knapen_aot/videos/S_yt-Q4edV5qiqu0_578.mp4	0.0	94.87201404571533	0.9758110046386719
12	35.191253900527954	response	0	2		10.0	2.5	/experiments/knapen_aot/videos/S_yt-Q4edV5qiqu0_578.mp4	0.0	95.83884501457214	
12	35.200233936309814	movie	1		301.0	10.0	2.5	/experiments/knapen_aot/videos/S_yt-Q4edV5qiqu0_578.mp4	0.0	95.847825050354	2.5075271129608154
12	37.70776104927063	fix_post	2		12.0	10.0	2.5	/experiments/knapen_aot/videos/S_yt-Q4edV5qiqu0_578.mp4	0.0	98.35535216331482	0.10002684593200684
13	37.80778789520264	fix_pre	0		95.0	11.0	2.5	/experiments/knapen_aot/videos/S_ILSVRC2015_train_00584001.mp4	0.0	98.45537900924683	0.7917160987854004
13	38.59127688407898	response	0	2		11.0	2.5	/experiments/knapen_aot/videos/S_ILSVRC2015_train_00584001.mp4	0.0	99.23886799812317	
13	38.59950399398804	movie	1		301.0	11.0	2.5	/experiments/knapen_aot/videos/S_ILSVRC2015_train_00584001.mp4	0.0	99.24709510803223	2.508280038833618
13	41.107784032821655	fix_post	2		12.0	11.0	2.5	/experiments/knapen_aot/videos/S_ILSVRC2015_train_00584001.mp4	0.0	101.75537514686584	0.10009884834289551
14	41.20788288116455	fix_pre	0		134.0	12.0	2.5	blank	1.0	101.85547399520874	1.1171832084655762
14	42.308554887771606	response	0	2		12.0	2.5	blank	1.0	102.9561460018158	
14	42.32506608963013	movie	1		301.0	12.0	2.5	blank	1.0	102.97265720367432	2.507668972015381
14	44.83273506164551	fix_post	2		12.0	12.0	2.5	blank	1.0	105.4803261756897	0.10004281997680664
15	44.932777881622314	fix_pre	0		79.0	13.0	2.5	/experiments/knapen_aot/videos/S_yt-l6WPyKg_3is_154.mp4	0.0	105.5803689956665	0.6583042144775391
15	45.58286690711975	response	0	2		13.0	2.5	/experiments/knapen_aot/videos/S_yt-l6WPyKg_3is_154.mp4	0.0	106.23045802116394	
15	45.59108209609985	movie	1		301.0	13.0	2.5	/experiments/knapen_aot/videos/S_yt-l6WPyKg_3is_154.mp4	0.0	106.23867321014404	2.508316993713379
15	48.09939908981323	fix_post	2		12.0	13.0	2.5	/experiments/knapen_aot/videos/S_yt-l6WPyKg_3is_154.mp4	0.0	108.74699020385742	0.1002810001373291
16	48.19968008995056	fix_pre	0		80.0	14.0	2.5	/experiments/knapen_aot/videos/R_S_yt-DWsFRl5bXs8_23.mp4	0.0	108.84727120399475	0.6669588088989258
16	48.857911109924316	response	0	2		14.0	2.5	/experiments/knapen_aot/videos/R_S_yt-DWsFRl5bXs8_23.mp4	0.0	109.5055022239685	
16	48.86663889884949	movie	1		301.0	14.0	2.5	/experiments/knapen_aot/videos/R_S_yt-DWsFRl5bXs8_23.mp4	0.0	109.51423001289368	2.5077340602874756
16	51.37437295913696	fix_post	2		12.0	14.0	2.5	/experiments/knapen_aot/videos/R_S_yt-DWsFRl5bXs8_23.mp4	0.0	112.02196407318115	0.10001802444458008
17	51.47439098358154	fix_pre	0		88.0	15.0	2.5	/experiments/knapen_aot/videos/S_yt-JtR6WZXT2kU_8.mp4	0.0	112.12198209762573	0.7334079742431641
17	52.191948890686035	response	0	2		15.0	2.5	/experiments/knapen_aot/videos/S_yt-JtR6WZXT2kU_8.mp4	0.0	112.83954000473022	
17	52.20779895782471	movie	1		301.0	15.0	2.5	/experiments/knapen_aot/videos/S_yt-JtR6WZXT2kU_8.mp4	0.0	112.8553900718689	2.5082271099090576
17	54.716026067733765	fix_post	2		12.0	15.0	2.5	/experiments/knapen_aot/videos/S_yt-JtR6WZXT2kU_8.mp4	0.0	115.36361718177795	0.10002303123474121
18	54.816049098968506	fix_pre	0		94.0	16.0	2.5	/experiments/knapen_aot/videos/R_S_-IkGMlLHrOI_108.mp4	0.0	115.4636402130127	0.7832248210906982
18	55.59116888046265	response	0	2		16.0	2.5	/experiments/knapen_aot/videos/R_S_-IkGMlLHrOI_108.mp4	0.0	116.23875999450684	
18	55.599273920059204	movie	1		301.0	16.0	2.5	/experiments/knapen_aot/videos/R_S_-IkGMlLHrOI_108.mp4	0.0	116.2468650341034	2.5083680152893066
18	58.10764193534851	fix_post	2		12.0	16.0	2.5	/experiments/knapen_aot/videos/R_S_-IkGMlLHrOI_108.mp4	0.0	118.7552330493927	0.10010409355163574
19	58.20774602890015	fix_pre	0		84.0	17.0	2.5	/experiments/knapen_aot/videos/S_yt-mJzkLd3Mr_c_35.mp4	0.0	118.85533714294434	0.7004609107971191
19	58.89963698387146	response	0	2		17.0	2.5	/experiments/knapen_aot/videos/S_yt-mJzkLd3Mr_c_35.mp4	0.0	119.54722809791565	
19	58.908206939697266	movie	1		301.0	17.0	2.5	/experiments/knapen_aot/videos/S_yt-mJzkLd3Mr_c_35.mp4	0.0	119.55579805374146	2.507765054702759
19	61.415971994400024	fix_post	2		12.0	17.0	2.5	/experiments/knapen_aot/videos/S_yt-mJzkLd3Mr_c_35.mp4	0.0	122.06356310844421	0.09999799728393555
20	61.51596999168396	fix_pre	0		76.0	18.0	2.5	/experiments/knapen_aot/videos/R_S_yt-n2PnABmSpxI_115.mp4	0.0	122.16356110572815	0.6332271099090576
20	62.1410710811615	response	0	2		18.0	2.5	/experiments/knapen_aot/videos/R_S_yt-n2PnABmSpxI_115.mp4	0.0	122.78866219520569	
20	62.14919710159302	movie	1		301.0	18.0	2.5	/experiments/knapen_aot/videos/R_S_yt-n2PnABmSpxI_115.mp4	0.0	122.7967882156372	2.508389949798584
20	64.6575870513916	fix_post	2		12.0	18.0	2.5	/experiments/knapen_aot/videos/R_S_yt-n2PnABmSpxI_115.mp4	0.0	125.30517816543579	0.10014891624450684
21	64.75773596763611	fix_pre	0		68.0	19.0	2.5	/experiments/knapen_aot/videos/R_S_yt-t8NfuFA7OlM_26.mp4	0.0	125.4053270816803	0.5670731067657471
21	65.31595396995544	response	0	2		19.0	2.5	/experiments/knapen_aot/videos/R_S_yt-t8NfuFA7OlM_26.mp4	0.0	125.96354508399963	
21	65.32480907440186	movie	1		301.0	19.0	2.5	/experiments/knapen_aot/videos/R_S_yt-t8NfuFA7OlM_26.mp4	0.0	125.97240018844604	2.5078389644622803
21	67.83264803886414	fix_post	2		12.0	19.0	2.5	/experiments/knapen_aot/videos/R_S_yt-t8NfuFA7OlM_26.mp4	0.0	128.48023915290833	0.10002398490905762
22	67.9326720237732	fix_pre	0		81.0	20.0	2.5	/experiments/knapen_aot/videos/R_S_yt-9CY7rDYBYUI_40.mp4	0.0	128.58026313781738	0.674921989440918
22	68.5993869304657	response	0	2		20.0	2.5	/experiments/knapen_aot/videos/R_S_yt-9CY7rDYBYUI_40.mp4	0.0	129.2469780445099	
22	68.60759401321411	movie	1		301.0	20.0	2.5	/experiments/knapen_aot/videos/R_S_yt-9CY7rDYBYUI_40.mp4	0.0	129.2551851272583	2.5083560943603516
22	71.11595010757446	fix_post	2		12.0	20.0	2.5	/experiments/knapen_aot/videos/R_S_yt-9CY7rDYBYUI_40.mp4	0.0	131.76354122161865	0.09995293617248535
23	71.21590304374695	fix_pre	0		67.0	21.0	2.5	blank	1.0	131.86349415779114	0.5583999156951904
23	71.76604509353638	response	0	2		21.0	2.5	blank	1.0	132.41363620758057	
23	71.77430295944214	movie	1		301.0	21.0	2.5	blank	1.0	132.42189407348633	2.5083019733428955
23	74.28260493278503	fix_post	2		12.0	21.0	2.5	blank	1.0	134.93019604682922	0.09998297691345215
24	74.38258790969849	fix_pre	0		77.0	22.0	2.5	/experiments/knapen_aot/videos/S_yt--5ls65Ue1RA_52.mp4	0.0	135.03017902374268	0.6416041851043701
24	75.01600790023804	response	0	2		22.0	2.5	/experiments/knapen_aot/videos/S_yt--5ls65Ue1RA_52.mp4	0.0	135.66359901428223	
24	75.02419209480286	movie	1		301.0	22.0	2.5	/experiments/knapen_aot/videos/S_yt--5ls65Ue1RA_52.mp4	0.0	135.67178320884705	2.5084497928619385
24	77.5326418876648	fix_post	2		12.0	22.0	2.5	/experiments/knapen_aot/videos/S_yt--5ls65Ue1RA_52.mp4	0.0	138.18023300170898	0.09993314743041992
25	77.63257503509521	fix_pre	0		74.0	23.0	2.5	/experiments/knapen_aot/videos/R_S_comp_C001_C005_PS_v01_SDR_PS_20180925_SDR_2K_AVC.mp4	0.0	138.2801661491394	0.6165800094604492
25	78.2410409450531	response	0	2		23.0	2.5	/experiments/knapen_aot/videos/R_S_comp_C001_C005_PS_v01_SDR_PS_20180925_SDR_2K_AVC.mp4	0.0	138.8886320590973	
25	78.24915504455566	movie	1		169.0	23.0	2.5	/experiments/knapen_aot/videos/R_S_comp_C001_C005_PS_v01_SDR_PS_20180925_SDR_2K_AVC.mp4	0.0	138.89674615859985	2.508570909500122
25	80.75772595405579	fix_post	2		12.0	23.0	2.5	/experiments/knapen_aot/videos/R_S_comp_C001_C005_PS_v01_SDR_PS_20180925_SDR_2K_AVC.mp4	0.0	141.40531706809998	0.09990715980529785
26	80.85763311386108	fix_pre	0		78.0	24.0	2.5	/experiments/knapen_aot/videos/R_S_production_ID_4997166.mp4	0.0	141.50522422790527	0.6499319076538086
26	81.49936604499817	response	0	2		24.0	2.5	/experiments/knapen_aot/videos/R_S_production_ID_4997166.mp4	0.0	142.14695715904236	
26	81.50756502151489	movie	1		166.0	24.0	2.5	/experiments/knapen_aot/videos/R_S_production_ID_4997166.mp4	0.0	142.15515613555908	2.5082929134368896
26	84.01585793495178	fix_post	2		12.0	24.0	2.5	/experiments/knapen_aot/videos/R_S_production_ID_4997166.mp4	0.0	144.66344904899597	0.10048198699951172
27	84.1163399219513	fix_pre	0		79.0	25.0	2.5	/experiments/knapen_aot/videos/R_S_yt-yJmHtBFyhH4_15.mp4	0.0	144.76393103599548	0.6579489707946777
27	84.76595687866211	response	0	2		25.0	2.5	/experiments/knapen_aot/videos/R_S_yt-yJmHtBFyhH4_15.mp4	0.0	145.4135479927063	
27	84.77428889274597	movie	1		301.0	25.0	2.5	/experiments/knapen_aot/videos/R_S_yt-yJmHtBFyhH4_15.mp4	0.0	145.42188000679016	2.5082809925079346
27	87.2825698852539	fix_post	2		12.0	25.0	2.5	/experiments/knapen_aot/videos/R_S_yt-yJmHtBFyhH4_15.mp4	0.0	147.9301609992981	0.09990501403808594
28	87.38247489929199	fix_pre	0		89.0	26.0	2.5	/experiments/knapen_aot/videos/R_S_yt-qxtmtMnUfD0_124.mp4	0.0	148.03006601333618	0.7416751384735107
28	88.11592197418213	response	0	2		26.0	2.5	/experiments/knapen_aot/videos/R_S_yt-qxtmtMnUfD0_124.mp4	0.0	148.76351308822632	
28	88.1241500377655	movie	1		301.0	26.0	2.5	/experiments/knapen_aot/videos/R_S_yt-qxtmtMnUfD0_124.mp4	0.0	148.7717411518097	2.508341073989868
28	90.63249111175537	fix_post	2		12.0	26.0	2.5	/experiments/knapen_aot/videos/R_S_yt-qxtmtMnUfD0_124.mp4	0.0	151.28008222579956	0.09998893737792969
29	90.7324800491333	fix_pre	0		142.0	27.0	2.5	blank	1.0	151.3800711631775	1.1833748817443848
29	91.90757298469543	response	0	2		27.0	2.5	blank	1.0	152.55516409873962	
29	91.91585493087769	movie	1		301.0	27.0	2.5	blank	1.0	152.56344604492188	2.508303165435791
29	94.42415809631348	fix_post	2		12.0	27.0	2.5	blank	1.0	155.07174921035767	0.10002493858337402
30	94.52418303489685	fix_pre	0		79.0	28.0	2.5	/experiments/knapen_aot/videos/S_yt-WTxvvlP8xnw_113.mp4	0.0	155.17177414894104	0.658289909362793
30	95.17424607276917	response	0	2		28.0	2.5	/experiments/knapen_aot/videos/S_yt-WTxvvlP8xnw_113.mp4	0.0	155.82183718681335	
30	95.18247294425964	movie	1		301.0	28.0	2.5	/experiments/knapen_aot/videos/S_yt-WTxvvlP8xnw_113.mp4	0.0	155.83006405830383	2.508411169052124
30	97.69088411331177	fix_post	2		12.0	28.0	2.5	/experiments/knapen_aot/videos/S_yt-WTxvvlP8xnw_113.mp4	0.0	158.33847522735596	0.09986686706542969
31	97.7907509803772	fix_pre	0		79.0	29.0	2.5	/experiments/knapen_aot/videos/R_S_yt-tEzCpMrjOHs_24.mp4	0.0	158.4383420944214	0.6587240695953369
31	98.44092011451721	response	0	2		29.0	2.5	/experiments/knapen_aot/videos/R_S_yt-tEzCpMrjOHs_24.mp4	0.0	159.0885112285614	
31	98.44947504997253	movie	1		301.0	29.0	2.5	/experiments/knapen_aot/videos/R_S_yt-tEzCpMrjOHs_24.mp4	0.0	159.09706616401672	2.5080628395080566
31	100.95753788948059	fix_post	2		12.0	29.0	2.5	/experiments/knapen_aot/videos/R_S_yt-tEzCpMrjOHs_24.mp4	0.0	161.60512900352478	0.09995818138122559
32	101.05749607086182	fix_pre	0		64.0	30.0	2.5	/experiments/knapen_aot/videos/R_S_yt-WASlRH1zA8c_175.mp4	0.0	161.705087184906	0.5332539081573486
32	101.5824990272522	response	0	2		30.0	2.5	/experiments/knapen_aot/videos/R_S_yt-WASlRH1zA8c_175.mp4	0.0	162.2300901412964	
32	101.59074997901917	movie	1		301.0	30.0	2.5	/experiments/knapen_aot/videos/R_S_yt-WASlRH1zA8c_175.mp4	0.0	162.23834109306335	2.508409023284912
32	104.09915900230408	fix_post	2		12.0	30.0	2.5	/experiments/knapen_aot/videos/R_S_yt-WASlRH1zA8c_175.mp4	0.0	164.74675011634827	0.10045695304870605
33	104.19961595535278	fix_pre	0		66.0	31.0	2.5	/experiments/knapen_aot/videos/R_S_yt-31WwM4UgsVI_322.mp4	0.0	164.84720706939697	0.5495269298553467
33	104.74096703529358	response	0	2		31.0	2.5	/experiments/knapen_aot/videos/R_S_yt-31WwM4UgsVI_322.mp4	0.0	165.38855814933777	
33	104.74914288520813	movie	1		301.0	31.0	2.5	/experiments/knapen_aot/videos/R_S_yt-31WwM4UgsVI_322.mp4	0.0	165.39673399925232	2.508287191390991
33	107.25743007659912	fix_post	2		12.0	31.0	2.5	/experiments/knapen_aot/videos/R_S_yt-31WwM4UgsVI_322.mp4	0.0	167.9050211906433	0.1000208854675293
34	107.35745096206665	fix_pre	0		90.0	32.0	2.5	/experiments/knapen_aot/videos/S_yt-mdxs8FCKLFc_232.mp4	0.0	168.00504207611084	0.7500309944152832
34	108.09920310974121	response	0	2		32.0	2.5	/experiments/knapen_aot/videos/S_yt-mdxs8FCKLFc_232.mp4	0.0	168.7467942237854	
34	108.10748195648193	movie	1		301.0	32.0	2.5	/experiments/knapen_aot/videos/S_yt-mdxs8FCKLFc_232.mp4	0.0	168.75507307052612	2.5082809925079346
34	110.61576294898987	fix_post	2		12.0	32.0	2.5	/experiments/knapen_aot/videos/S_yt-mdxs8FCKLFc_232.mp4	0.0	171.26335406303406	0.10002803802490234
35	110.71579098701477	fix_pre	0		81.0	33.0	2.5	/experiments/knapen_aot/videos/S_yt-LhP0mZ6xxIg_111.mp4	0.0	171.36338210105896	0.6749410629272461
35	111.3825740814209	response	0	2		33.0	2.5	/experiments/knapen_aot/videos/S_yt-LhP0mZ6xxIg_111.mp4	0.0	172.0301651954651	
35	111.39073204994202	movie	1		301.0	33.0	2.5	/experiments/knapen_aot/videos/S_yt-LhP0mZ6xxIg_111.mp4	0.0	172.0383231639862	2.508457899093628
35	113.89918994903564	fix_post	2		12.0	33.0	2.5	/experiments/knapen_aot/videos/S_yt-LhP0mZ6xxIg_111.mp4	0.0	174.54678106307983	0.09987807273864746
36	113.99906802177429	fix_pre	0		67.0	34.0	2.5	/experiments/knapen_aot/videos/S_ILSVRC2015_train_00042003.mp4	0.0	174.64665913581848	0.5583970546722412
36	114.54918003082275	response	0	2		34.0	2.5	/experiments/knapen_aot/videos/S_ILSVRC2015_train_00042003.mp4	0.0	175.19677114486694	
36	114.55746507644653	movie	1		301.0	34.0	2.5	/experiments/knapen_aot/videos/S_ILSVRC2015_train_00042003.mp4	0.0	175.20505619049072	2.508275032043457
36	117.06574010848999	fix_post	2		12.0	34.0	2.5	/experiments/knapen_aot/videos/S_ILSVRC2015_train_00042003.mp4	0.0	177.71333122253418	0.09996891021728516
37	117.16570901870728	fix_pre	0		76.0	35.0	2.5	blank	1.0	177.81330013275146	0.6333808898925781
37	117.78335499763489	response	0	2		35.0	2.5	blank	1.0	178.43094611167908	
37	117.79908990859985	movie	1		301.0	35.0	2.5	blank	1.0	178.44668102264404	2.5083580017089844
37	120.30744791030884	fix_post	2		12.0	35.0	2.5	blank	1.0	180.95503902435303	0.10021305084228516
38	120.40766096115112	fix_pre	0		77.0	36.0	2.5	/experiments/knapen_aot/videos/R_S_yt-xBwq6sHHF5M_21.mp4	0.0	181.0552520751953	0.6413891315460205
38	121.04082703590393	response	0	2		36.0	2.5	/experiments/knapen_aot/videos/R_S_yt-xBwq6sHHF5M_21.mp4	0.0	181.68841814994812	
38	121.04905009269714	movie	1		301.0	36.0	2.5	/experiments/knapen_aot/videos/R_S_yt-xBwq6sHHF5M_21.mp4	0.0	181.69664120674133	2.508323907852173
38	123.55737400054932	fix_post	2		12.0	36.0	2.5	/experiments/knapen_aot/videos/R_S_yt-xBwq6sHHF5M_21.mp4	0.0	184.2049651145935	0.10032510757446289
39	123.65769910812378	fix_pre	0		56.0	37.0	2.5	/experiments/knapen_aot/videos/R_S_yt-Wf-RauSbVgA_56.mp4	0.0	184.30529022216797	0.4663119316101074
39	124.11584806442261	response	0	2		37.0	2.5	/experiments/knapen_aot/videos/R_S_yt-Wf-RauSbVgA_56.mp4	0.0	184.7634391784668	
39	124.12401103973389	movie	1		301.0	37.0	2.5	/experiments/knapen_aot/videos/R_S_yt-Wf-RauSbVgA_56.mp4	0.0	184.77160215377808	2.5083019733428955
39	126.63231301307678	fix_post	2		12.0	37.0	2.5	/experiments/knapen_aot/videos/R_S_yt-Wf-RauSbVgA_56.mp4	0.0	187.27990412712097	0.10004687309265137
40	126.73235988616943	fix_pre	0		71.0	38.0	2.5	/experiments/knapen_aot/videos/R_S_yt-PYP0fEQ357c_89.mp4	0.0	187.37995100021362	0.591846227645874
40	127.31585693359375	response	0	2		38.0	2.5	/experiments/knapen_aot/videos/R_S_yt-PYP0fEQ357c_89.mp4	0.0	187.96344804763794	
40	127.32420611381531	movie	1		301.0	38.0	2.5	/experiments/knapen_aot/videos/R_S_yt-PYP0fEQ357c_89.mp4	0.0	187.9717972278595	2.5081517696380615
40	129.83235788345337	fix_post	2		12.0	38.0	2.5	/experiments/knapen_aot/videos/R_S_yt-PYP0fEQ357c_89.mp4	0.0	190.47994899749756	0.09993410110473633
41	129.9322919845581	fix_pre	0		115.0	39.0	2.5	/experiments/knapen_aot/videos/R_S_ILSVRC2015_train_00042003.mp4	0.0	190.5798830986023	0.9583449363708496
41	130.88248801231384	response	0	2		39.0	2.5	/experiments/knapen_aot/videos/R_S_ILSVRC2015_train_00042003.mp4	0.0	191.53007912635803	
41	130.89063692092896	movie	1		301.0	39.0	2.5	/experiments/knapen_aot/videos/R_S_ILSVRC2015_train_00042003.mp4	0.0	191.53822803497314	2.5083601474761963
41	133.39899706840515	fix_post	2		12.0	39.0	2.5	/experiments/knapen_aot/videos/R_S_ILSVRC2015_train_00042003.mp4	0.0	194.04658818244934	0.1001749038696289
42	133.49917197227478	fix_pre	0		75.0	40.0	2.5	/experiments/knapen_aot/videos/R_S_Y011_C008_SDR_2K_AVC.mp4	0.0	194.14676308631897	0.6248259544372559
42	134.11573195457458	response	0	2		40.0	2.5	/experiments/knapen_aot/videos/R_S_Y011_C008_SDR_2K_AVC.mp4	0.0	194.76332306861877	
42	134.12399792671204	movie	1		173.0	40.0	2.5	/experiments/knapen_aot/videos/R_S_Y011_C008_SDR_2K_AVC.mp4	0.0	194.77158904075623	2.5083751678466797
42	136.63237309455872	fix_post	2		12.0	40.0	2.5	/experiments/knapen_aot/videos/R_S_Y011_C008_SDR_2K_AVC.mp4	0.0	197.2799642086029	0.0999448299407959
43	136.7323179244995	fix_pre	0		70.0	41.0	2.5	blank	1.0	197.3799090385437	0.5832991600036621
43	137.3074140548706	response	0	2		41.0	2.5	blank	1.0	197.9550051689148	
43	137.31561708450317	movie	1		301.0	41.0	2.5	blank	1.0	197.96320819854736	2.508539915084839
43	139.824156999588	fix_post	2		12.0	41.0	2.5	blank	1.0	200.4717481136322	0.09982800483703613
44	139.92398500442505	fix_pre	0		77.0	42.0	2.5	/experiments/knapen_aot/videos/S_video_inspire_uk_london_hampstead-heath_003.1080-h264.mp4	0.0	200.57157611846924	0.6416349411010742
44	140.54992699623108	response	0	2		42.0	2.5	/experiments/knapen_aot/videos/S_video_inspire_uk_london_hampstead-heath_003.1080-h264.mp4	0.0	201.19751811027527	
44	140.56561994552612	movie	1		168.0	42.0	2.5	/experiments/knapen_aot/videos/S_video_inspire_uk_london_hampstead-heath_003.1080-h264.mp4	0.0	201.2132110595703	2.508599042892456
44	143.07421898841858	fix_post	2		12.0	42.0	2.5	/experiments/knapen_aot/videos/S_video_inspire_uk_london_hampstead-heath_003.1080-h264.mp4	0.0	203.72181010246277	0.09976410865783691
45	143.17398309707642	fix_pre	0		86.0	43.0	2.5	/experiments/knapen_aot/videos/R_S_ILSVRC2015_train_00697001.mp4	0.0	203.8215742111206	0.7166259288787842
45	143.88235306739807	response	0	2		43.0	2.5	/experiments/knapen_aot/videos/R_S_ILSVRC2015_train_00697001.mp4	0.0	204.52994418144226	
45	143.8906090259552	movie	1		301.0	43.0	2.5	/experiments/knapen_aot/videos/R_S_ILSVRC2015_train_00697001.mp4	0.0	204.5382001399994	2.5083420276641846
45	146.39895105361938	fix_post	2		12.0	43.0	2.5	/experiments/knapen_aot/videos/R_S_ILSVRC2015_train_00697001.mp4	0.0	207.04654216766357	0.09996891021728516
46	146.49891996383667	fix_pre	0		69.0	44.0	2.5	/experiments/knapen_aot/videos/S_yt-oxUpc8I5wWQ_238.mp4	0.0	207.14651107788086	0.575127124786377
46	147.06574511528015	response	0	2		44.0	2.5	/experiments/knapen_aot/videos/S_yt-oxUpc8I5wWQ_238.mp4	0.0	207.71333622932434	
46	147.07404708862305	movie	1		301.0	44.0	2.5	/experiments/knapen_aot/videos/S_yt-oxUpc8I5wWQ_238.mp4	0.0	207.72163820266724	2.508145809173584
46	149.58219289779663	fix_post	2		12.0	44.0	2.5	/experiments/knapen_aot/videos/S_yt-oxUpc8I5wWQ_238.mp4	0.0	210.22978401184082	0.10004520416259766
47	149.68223810195923	fix_pre	0		104.0	45.0	2.5	/experiments/knapen_aot/videos/R_S_yt-X6ivH9SqGu8_306.mp4	0.0	210.32982921600342	0.8666307926177979
47	150.54073905944824	response	0	2		45.0	2.5	/experiments/knapen_aot/videos/R_S_yt-X6ivH9SqGu8_306.mp4	0.0	211.18833017349243	
47	150.54886889457703	movie	1		301.0	45.0	2.5	/experiments/knapen_aot/videos/R_S_yt-X6ivH9SqGu8_306.mp4	0.0	211.19646000862122	2.50835919380188
47	153.0572280883789	fix_post	2		12.0	45.0	2.5	/experiments/knapen_aot/videos/R_S_yt-X6ivH9SqGu8_306.mp4	0.0	213.7048192024231	0.10015702247619629
48	153.1573851108551	fix_pre	0		86.0	46.0	2.5	/experiments/knapen_aot/videos/R_S_yt-0d5TkclKWVA_146.mp4	0.0	213.8049762248993	0.7165498733520508
48	153.86570692062378	response	0	2		46.0	2.5	/experiments/knapen_aot/videos/R_S_yt-0d5TkclKWVA_146.mp4	0.0	214.51329803466797	
48	153.87393498420715	movie	1		301.0	46.0	2.5	/experiments/knapen_aot/videos/R_S_yt-0d5TkclKWVA_146.mp4	0.0	214.52152609825134	2.5082809925079346
48	156.3822159767151	fix_post	2		12.0	46.0	2.5	/experiments/knapen_aot/videos/R_S_yt-0d5TkclKWVA_146.mp4	0.0	217.02980709075928	0.09999203681945801
49	156.48220801353455	fix_pre	0		88.0	47.0	2.5	blank	1.0	217.12979912757874	0.7333219051361084
49	157.20734095573425	response	0	2		47.0	2.5	blank	1.0	217.85493206977844	
49	157.21552991867065	movie	1		301.0	47.0	2.5	blank	1.0	217.86312103271484	2.508331060409546
49	159.7238609790802	fix_post	2		12.0	47.0	2.5	blank	1.0	220.3714520931244	0.10026812553405762
50	159.82412910461426	fix_pre	0		110.0	48.0	2.5	/experiments/knapen_aot/videos/S_ILSVRC2015_train_00569007.mp4	0.0	220.47172021865845	0.9164209365844727
50	160.732351064682	response	0	2		48.0	2.5	/experiments/knapen_aot/videos/S_ILSVRC2015_train_00569007.mp4	0.0	221.3799421787262	
50	160.74055004119873	movie	1		301.0	48.0	2.5	/experiments/knapen_aot/videos/S_ILSVRC2015_train_00569007.mp4	0.0	221.38814115524292	2.508450984954834
50	163.24900102615356	fix_post	2		12.0	48.0	2.5	/experiments/knapen_aot/videos/S_ILSVRC2015_train_00569007.mp4	0.0	223.89659214019775	0.09988999366760254
51	163.34889101982117	fix_pre	0		69.0	49.0	2.5	/experiments/knapen_aot/videos/S_production_ID_4802716.mp4	0.0	223.99648213386536	0.5749568939208984
51	163.91565990447998	response	0	2		49.0	2.5	/experiments/knapen_aot/videos/S_production_ID_4802716.mp4	0.0	224.56325101852417	
51	163.92384791374207	movie	1		168.0	49.0	2.5	/experiments/knapen_aot/videos/S_production_ID_4802716.mp4	0.0	224.57143902778625	2.5083651542663574
51	166.43221306800842	fix_post	2		12.0	49.0	2.5	/experiments/knapen_aot/videos/S_production_ID_4802716.mp4	0.0	227.0798041820526	0.09999704360961914
52	166.53221011161804	fix_pre	0		70.0	50.0	2.5	/experiments/knapen_aot/videos/S_yt-xBwq6sHHF5M_21.mp4	0.0	227.17980122566223	0.5832788944244385
52	167.1072700023651	response	0	2		50.0	2.5	/experiments/knapen_aot/videos/S_yt-xBwq6sHHF5M_21.mp4	0.0	227.7548611164093	
52	167.11548900604248	movie	1		301.0	50.0	2.5	/experiments/knapen_aot/videos/S_yt-xBwq6sHHF5M_21.mp4	0.0	227.76308012008667	2.5083138942718506
52	169.62380290031433	fix_post	2		12.0	50.0	2.5	/experiments/knapen_aot/videos/S_yt-xBwq6sHHF5M_21.mp4	0.0	230.27139401435852	0.10005307197570801
53	169.72385597229004	fix_pre	0		72.0	51.0	2.5	/experiments/knapen_aot/videos/R_S_ILSVRC2015_train_00517000.mp4	0.0	230.37144708633423	0.5999319553375244
53	170.3156979084015	response	0	2		51.0	2.5	/experiments/knapen_aot/videos/R_S_ILSVRC2015_train_00517000.mp4	0.0	230.96328902244568	
53	170.32378792762756	movie	1		301.0	51.0	2.5	/experiments/knapen_aot/videos/R_S_ILSVRC2015_train_00517000.mp4	0.0	230.97137904167175	2.508465051651001
53	172.83225297927856	fix_post	2		12.0	51.0	2.5	/experiments/knapen_aot/videos/R_S_ILSVRC2015_train_00517000.mp4	0.0	233.47984409332275	0.09988594055175781
54	172.93213891983032	fix_pre	0		76.0	52.0	2.5	/experiments/knapen_aot/videos/R_S_comp_H012_C009_PS_v01_SDR_PS_20180925_SDR_2K_AVC.mp4	0.0	233.5797300338745	0.6332659721374512
54	173.55725693702698	response	0	2		52.0	2.5	/experiments/knapen_aot/videos/R_S_comp_H012_C009_PS_v01_SDR_PS_20180925_SDR_2K_AVC.mp4	0.0	234.20484805107117	
54	173.56540489196777	movie	1		163.0	52.0	2.5	/experiments/knapen_aot/videos/R_S_comp_H012_C009_PS_v01_SDR_PS_20180925_SDR_2K_AVC.mp4	0.0	234.21299600601196	2.5083820819854736
54	176.07378697395325	fix_post	2		12.0	52.0	2.5	/experiments/knapen_aot/videos/R_S_comp_H012_C009_PS_v01_SDR_PS_20180925_SDR_2K_AVC.mp4	0.0	236.72137808799744	0.09997200965881348
55	176.17375898361206	fix_pre	0		80.0	53.0	2.5	/experiments/knapen_aot/videos/S_ILSVRC2015_train_00423000.mp4	0.0	236.82135009765625	0.6666450500488281
55	176.83224892616272	response	0	2		53.0	2.5	/experiments/knapen_aot/videos/S_ILSVRC2015_train_00423000.mp4	0.0	237.4798400402069	
55	176.8404040336609	movie	1		301.0	53.0	2.5	/experiments/knapen_aot/videos/S_ILSVRC2015_train_00423000.mp4	0.0	237.48799514770508	2.5084939002990723
55	179.34889793395996	fix_post	2		12.0	53.0	2.5	/experiments/knapen_aot/videos/S_ILSVRC2015_train_00423000.mp4	0.0	239.99648904800415	0.09989714622497559
56	179.44879508018494	fix_pre	0		107.0	54.0	2.5	/experiments/knapen_aot/videos/S_yt-H5LQq4MPIao_660.mp4	0.0	240.09638619422913	0.8916440010070801
56	180.33227396011353	response	0	2		54.0	2.5	/experiments/knapen_aot/videos/S_yt-H5LQq4MPIao_660.mp4	0.0	240.97986507415771	
56	180.34043908119202	movie	1		301.0	54.0	2.5	/experiments/knapen_aot/videos/S_yt-H5LQq4MPIao_660.mp4	0.0	240.9880301952362	2.508359909057617
56	182.84879899024963	fix_post	2		12.0	54.0	2.5	/experiments/knapen_aot/videos/S_yt-H5LQq4MPIao_660.mp4	0.0	243.49639010429382	0.10015606880187988
57	182.9489550590515	fix_pre	0		85.0	55.0	2.5	/experiments/knapen_aot/videos/R_S_yt-FsXOl6JjzSY_15.mp4	0.0	243.5965461730957	0.7081258296966553
57	183.641282081604	response	0	2		55.0	2.5	/experiments/knapen_aot/videos/R_S_yt-FsXOl6JjzSY_15.mp4	0.0	244.2888731956482	
57	183.65708088874817	movie	1		301.0	55.0	2.5	/experiments/knapen_aot/videos/R_S_yt-FsXOl6JjzSY_15.mp4	0.0	244.30467200279236	2.508519172668457
57	186.16560006141663	fix_post	2		12.0	55.0	2.5	/experiments/knapen_aot/videos/R_S_yt-FsXOl6JjzSY_15.mp4	0.0	246.81319117546082	0.09984087944030762
58	186.26544094085693	fix_pre	0		77.0	56.0	2.5	blank	1.0	246.91303205490112	0.6416139602661133
58	186.89887595176697	response	0	2		56.0	2.5	blank	1.0	247.54646706581116	
58	186.90705490112305	movie	1		301.0	56.0	2.5	blank	1.0	247.55464601516724	2.508646011352539
58	189.4157009124756	fix_post	2		12.0	56.0	2.5	blank	1.0	250.06329202651978	0.0998830795288086
59	189.5155839920044	fix_pre	0		83.0	57.0	2.5	/experiments/knapen_aot/videos/R_S_video_inspire_uk_london_hampstead-heath_003.1080-h264.mp4	0.0	250.16317510604858	0.6914501190185547
59	190.1912660598755	response	0	2		57.0	2.5	/experiments/knapen_aot/videos/R_S_video_inspire_uk_london_hampstead-heath_003.1080-h264.mp4	0.0	250.83885717391968	
59	190.20703411102295	movie	1		172.0	57.0	2.5	/experiments/knapen_aot/videos/R_S_video_inspire_uk_london_hampstead-heath_003.1080-h264.mp4	0.0	250.85462522506714	2.508356809616089
59	192.71539092063904	fix_post	2		12.0	57.0	2.5	/experiments/knapen_aot/videos/R_S_video_inspire_uk_london_hampstead-heath_003.1080-h264.mp4	0.0	253.36298203468323	0.10000419616699219
60	192.81539511680603	fix_pre	0		100.0	58.0	2.5	/experiments/knapen_aot/videos/S_production_ID_4997166.mp4	0.0	253.46298623085022	0.8345749378204346
60	193.64054703712463	response	0	2		58.0	2.5	/experiments/knapen_aot/videos/S_production_ID_4997166.mp4	0.0	254.28813815116882	
60	193.64997005462646	movie	1		164.0	58.0	2.5	/experiments/knapen_aot/videos/S_production_ID_4997166.mp4	0.0	254.29756116867065	2.507071018218994
60	196.15704107284546	fix_post	2		12.0	58.0	2.5	/experiments/knapen_aot/videos/S_production_ID_4997166.mp4	0.0	256.80463218688965	0.10031580924987793
61	196.25735688209534	fix_pre	0		78.0	59.0	2.5	/experiments/knapen_aot/videos/R_S_ILSVRC2015_train_00479003.mp4	0.0	256.9049479961395	0.6496541500091553
61	196.89884400367737	response	0	2		59.0	2.5	/experiments/knapen_aot/videos/R_S_ILSVRC2015_train_00479003.mp4	0.0	257.54643511772156	
61	196.9070110321045	movie	1		301.0	59.0	2.5	/experiments/knapen_aot/videos/R_S_ILSVRC2015_train_00479003.mp4	0.0	257.5546021461487	2.5083580017089844
61	199.41536903381348	fix_post	2		12.0	59.0	2.5	/experiments/knapen_aot/videos/R_S_ILSVRC2015_train_00479003.mp4	0.0	260.06296014785767	0.09999990463256836
62	199.51536893844604	fix_pre	0		69.0	60.0	2.5	/experiments/knapen_aot/videos/R_S_yt-XbNHfZjXuVM_43.mp4	0.0	260.16296005249023	0.5750260353088379
62	200.0821990966797	response	0	2		60.0	2.5	/experiments/knapen_aot/videos/R_S_yt-XbNHfZjXuVM_43.mp4	0.0	260.7297902107239	
62	200.09039497375488	movie	1		301.0	60.0	2.5	/experiments/knapen_aot/videos/R_S_yt-XbNHfZjXuVM_43.mp4	0.0	260.7379860877991	2.508307933807373
62	202.59870290756226	fix_post	2		12.0	60.0	2.5	/experiments/knapen_aot/videos/R_S_yt-XbNHfZjXuVM_43.mp4	0.0	263.24629402160645	0.09999799728393555
63	202.6987009048462	fix_pre	0		75.0	61.0	2.5	/experiments/knapen_aot/videos/S_yt-x7NWmdlvVIQ_183.mp4	0.0	263.3462920188904	0.6249129772186279
63	203.3154969215393	response	0	2		61.0	2.5	/experiments/knapen_aot/videos/S_yt-x7NWmdlvVIQ_183.mp4	0.0	263.9630880355835	
63	203.32361388206482	movie	1		301.0	61.0	2.5	/experiments/knapen_aot/videos/S_yt-x7NWmdlvVIQ_183.mp4	0.0	263.971204996109	2.508742094039917
63	205.83235597610474	fix_post	2		12.0	61.0	2.5	/experiments/knapen_aot/videos/S_yt-x7NWmdlvVIQ_183.mp4	0.0	266.4799470901489	0.09959912300109863
64	205.93195509910583	fix_pre	0		72.0	62.0	2.5	blank	1.0	266.57954621315	0.6000428199768066
64	206.52376890182495	response	0	2		62.0	2.5	blank	1.0	267.17136001586914	
64	206.53199791908264	movie	1		301.0	62.0	2.5	blank	1.0	267.17958903312683	2.508341073989868
64	209.0403389930725	fix_post	2		12.0	62.0	2.5	blank	1.0	269.6879301071167	0.09994912147521973
65	209.14028811454773	fix_pre	0		83.0	63.0	2.5	/experiments/knapen_aot/videos/R_S_yt-tEzCpMrjOHs_24.mp4	0.0	269.7878792285919	0.6916768550872803
65	209.82382798194885	response	0	2		63.0	2.5	/experiments/knapen_aot/videos/R_S_yt-tEzCpMrjOHs_24.mp4	0.0	270.47141909599304	
65	209.831964969635	movie	1		301.0	63.0	2.5	/experiments/knapen_aot/videos/R_S_yt-tEzCpMrjOHs_24.mp4	0.0	270.4795560836792	2.5085530281066895
65	212.3405179977417	fix_post	2		12.0	63.0	2.5	/experiments/knapen_aot/videos/R_S_yt-tEzCpMrjOHs_24.mp4	0.0	272.9881091117859	0.09980106353759766
66	212.4403190612793	fix_pre	0		125.0	64.0	2.5	/experiments/knapen_aot/videos/S_yt-WASlRH1zA8c_175.mp4	0.0	273.0879101753235	1.0428798198699951
66	213.47379803657532	response	0	2		64.0	2.5	/experiments/knapen_aot/videos/S_yt-WASlRH1zA8c_175.mp4	0.0	274.1213891506195	
66	213.4831988811493	movie	1		301.0	64.0	2.5	/experiments/knapen_aot/videos/S_yt-WASlRH1zA8c_175.mp4	0.0	274.1307899951935	2.507359027862549
66	215.99055790901184	fix_post	2		12.0	64.0	2.5	/experiments/knapen_aot/videos/S_yt-WASlRH1zA8c_175.mp4	0.0	276.63814902305603	0.09972715377807617
67	216.09028506278992	fix_pre	0		88.0	65.0	2.5	/experiments/knapen_aot/videos/S_yt-yJmHtBFyhH4_15.mp4	0.0	276.7378761768341	0.7333269119262695
67	216.81536889076233	response	0	2		65.0	2.5	/experiments/knapen_aot/videos/S_yt-yJmHtBFyhH4_15.mp4	0.0	277.4629600048065	
67	216.8236119747162	movie	1		301.0	65.0	2.5	/experiments/knapen_aot/videos/S_yt-yJmHtBFyhH4_15.mp4	0.0	277.4712030887604	2.5083460807800293
67	219.33195805549622	fix_post	2		12.0	65.0	2.5	/experiments/knapen_aot/videos/S_yt-yJmHtBFyhH4_15.mp4	0.0	279.9795491695404	0.09998893737792969
68	219.43194699287415	fix_pre	0		77.0	66.0	2.5	/experiments/knapen_aot/videos/R_S_pexels-mart-production-7698911_1.mp4	0.0	280.07953810691833	0.6416690349578857
68	220.0653519630432	response	0	2		66.0	2.5	/experiments/knapen_aot/videos/R_S_pexels-mart-production-7698911_1.mp4	0.0	280.7129430770874	
68	220.07361602783203	movie	1		180.0	66.0	2.5	/experiments/knapen_aot/videos/R_S_pexels-mart-production-7698911_1.mp4	0.0	280.7212071418762	2.5083630084991455
68	222.58197903633118	fix_post	2		12.0	66.0	2.5	/experiments/knapen_aot/videos/R_S_pexels-mart-production-7698911_1.mp4	0.0	283.22957015037537	0.09991693496704102
69	222.68189597129822	fix_pre	0		109.0	67.0	2.5	/experiments/knapen_aot/videos/S_video_inspire_california_vineyard_sierra-mar_sunrise_110.1080-h264.mp4	0.0	283.3294870853424	0.9083449840545654
69	223.5820870399475	response	0	2		67.0	2.5	/experiments/knapen_aot/videos/S_video_inspire_california_vineyard_sierra-mar_sunrise_110.1080-h264.mp4	0.0	284.2296781539917	
69	223.59024095535278	movie	1		171.0	67.0	2.5	/experiments/knapen_aot/videos/S_video_inspire_california_vineyard_sierra-mar_sunrise_110.1080-h264.mp4	0.0	284.237832069397	2.508350133895874
69	226.09859108924866	fix_post	2		12.0	67.0	2.5	/experiments/knapen_aot/videos/S_video_inspire_california_vineyard_sierra-mar_sunrise_110.1080-h264.mp4	0.0	286.74618220329285	0.09994888305664062
70	226.1985399723053	fix_pre	0		66.0	68.0	2.5	/experiments/knapen_aot/videos/S_yt-78k6vUHDWAI_206.mp4	0.0	286.8461310863495	0.5499610900878906
70	226.74035692214966	response	0	2		68.0	2.5	/experiments/knapen_aot/videos/S_yt-78k6vUHDWAI_206.mp4	0.0	287.38794803619385	
70	226.7485010623932	movie	1		301.0	68.0	2.5	/experiments/knapen_aot/videos/S_yt-78k6vUHDWAI_206.mp4	0.0	287.3960921764374	2.508568048477173
70	229.25706911087036	fix_post	2		12.0	68.0	2.5	/experiments/knapen_aot/videos/S_yt-78k6vUHDWAI_206.mp4	0.0	289.90466022491455	0.09982490539550781
71	229.35689401626587	fix_pre	0		91.0	69.0	2.5	/experiments/knapen_aot/videos/S_comp_GMT329_117NC_401C_1037_IRELAND_TO_ASIA_v48_SDR_PS_FINAL_20180725_F0F6300_SDR_2K_AVC.mp4	0.0	290.00448513031006	0.758368968963623
71	230.1070818901062	response	0	2		69.0	2.5	/experiments/knapen_aot/videos/S_comp_GMT329_117NC_401C_1037_IRELAND_TO_ASIA_v48_SDR_PS_FINAL_20180725_F0F6300_SDR_2K_AVC.mp4	0.0	290.7546730041504	
71	230.1152629852295	movie	1		163.0	69.0	2.5	/experiments/knapen_aot/videos/S_comp_GMT329_117NC_401C_1037_IRELAND_TO_ASIA_v48_SDR_PS_FINAL_20180725_F0F6300_SDR_2K_AVC.mp4	0.0	290.7628540992737	2.508357048034668
71	232.62362003326416	fix_post	2		12.0	69.0	2.5	/experiments/knapen_aot/videos/S_comp_GMT329_117NC_401C_1037_IRELAND_TO_ASIA_v48_SDR_PS_FINAL_20180725_F0F6300_SDR_2K_AVC.mp4	0.0	293.27121114730835	0.10000991821289062
72	232.72362995147705	fix_pre	0		67.0	70.0	2.5	blank	1.0	293.37122106552124	0.5583310127258301
72	233.2737009525299	response	0	2		70.0	2.5	blank	1.0	293.9212920665741	
72	233.28196096420288	movie	1		301.0	70.0	2.5	blank	1.0	293.92955207824707	2.5082249641418457
72	235.79018592834473	fix_post	2		12.0	70.0	2.5	blank	1.0	296.4377770423889	0.10004711151123047
73	235.89023303985596	fix_pre	0		52.0	71.0	2.5	/experiments/knapen_aot/videos/R_S_ILSVRC2015_train_00652001.mp4	0.0	296.53782415390015	0.43324899673461914
73	236.31523299217224	response	0	2		71.0	2.5	/experiments/knapen_aot/videos/R_S_ILSVRC2015_train_00652001.mp4	0.0	296.96282410621643	
73	236.32348203659058	movie	1		301.0	71.0	2.5	/experiments/knapen_aot/videos/R_S_ILSVRC2015_train_00652001.mp4	0.0	296.97107315063477	2.5083909034729004
73	238.83187294006348	fix_post	2		12.0	71.0	2.5	/experiments/knapen_aot/videos/R_S_ILSVRC2015_train_00652001.mp4	0.0	299.47946405410767	0.09999895095825195
74	238.93187189102173	fix_pre	0		63.0	72.0	2.5	/experiments/knapen_aot/videos/R_S_production_ID_4325506.mp4	0.0	299.5794630050659	0.5249330997467041
74	239.44866299629211	response	0	2		72.0	2.5	/experiments/knapen_aot/videos/R_S_production_ID_4325506.mp4	0.0	300.0962541103363	
74	239.45680499076843	movie	1		205.0	72.0	2.5	/experiments/knapen_aot/videos/R_S_production_ID_4325506.mp4	0.0	300.1043961048126	2.508323907852173
74	241.9651288986206	fix_post	2		12.0	72.0	2.5	/experiments/knapen_aot/videos/R_S_production_ID_4325506.mp4	0.0	302.6127200126648	0.1000070571899414
75	242.06513595581055	fix_pre	0		75.0	73.0	2.5	/experiments/knapen_aot/videos/R_S_yt-GFcuvjHJmS4_86.mp4	0.0	302.71272706985474	0.6261401176452637
75	242.6819829940796	response	0	2		73.0	2.5	/experiments/knapen_aot/videos/R_S_yt-GFcuvjHJmS4_86.mp4	0.0	303.3295741081238	
75	242.6912760734558	movie	1		301.0	73.0	2.5	/experiments/knapen_aot/videos/R_S_yt-GFcuvjHJmS4_86.mp4	0.0	303.3388671875	2.5073318481445312
75	245.19860792160034	fix_post	2		12.0	73.0	2.5	/experiments/knapen_aot/videos/R_S_yt-GFcuvjHJmS4_86.mp4	0.0	305.84619903564453	0.09983515739440918
76	245.29844307899475	fix_pre	0		89.0	74.0	2.5	/experiments/knapen_aot/videos/S_yt-8vm83GUgYxI_1.mp4	0.0	305.94603419303894	0.7417209148406982
76	246.031888961792	response	0	2		74.0	2.5	/experiments/knapen_aot/videos/S_yt-8vm83GUgYxI_1.mp4	0.0	306.6794800758362	
76	246.04016399383545	movie	1		301.0	74.0	2.5	/experiments/knapen_aot/videos/S_yt-8vm83GUgYxI_1.mp4	0.0	306.68775510787964	2.5083200931549072
76	248.54848408699036	fix_post	2		12.0	74.0	2.5	/experiments/knapen_aot/videos/S_yt-8vm83GUgYxI_1.mp4	0.0	309.19607520103455	0.10001683235168457
77	248.64850091934204	fix_pre	0		70.0	75.0	2.5	/experiments/knapen_aot/videos/R_S_pexels-ron-lach-8071987.mp4	0.0	309.29609203338623	0.5843160152435303
77	249.22358798980713	response	0	2		75.0	2.5	/experiments/knapen_aot/videos/R_S_pexels-ron-lach-8071987.mp4	0.0	309.8711791038513	
77	249.23281693458557	movie	1		203.0	75.0	2.5	/experiments/knapen_aot/videos/R_S_pexels-ron-lach-8071987.mp4	0.0	309.88040804862976	2.507349967956543
77	251.74016690254211	fix_post	2		12.0	75.0	2.5	/experiments/knapen_aot/videos/R_S_pexels-ron-lach-8071987.mp4	0.0	312.3877580165863	0.09996318817138672
78	251.8401300907135	fix_pre	0		104.0	76.0	2.5	blank	1.0	312.4877212047577	0.8666718006134033
78	252.69860410690308	response	0	2		76.0	2.5	blank	1.0	313.34619522094727	
78	252.7068018913269	movie	1		301.0	76.0	2.5	blank	1.0	313.3543930053711	2.508305072784424
78	255.21510696411133	fix_post	2		12.0	76.0	2.5	blank	1.0	315.8626980781555	0.10003495216369629
79	255.31514191627502	fix_pre	0		88.0	77.0	2.5	/experiments/knapen_aot/videos/R_S_production_ID_5102663.mp4	0.0	315.9627330303192	0.7333111763000488
79	256.04024600982666	response	0	2		77.0	2.5	/experiments/knapen_aot/videos/R_S_production_ID_5102663.mp4	0.0	316.68783712387085	
79	256.0484530925751	movie	1		191.0	77.0	2.5	/experiments/knapen_aot/videos/R_S_production_ID_5102663.mp4	0.0	316.69604420661926	2.5083818435668945
79	258.55683493614197	fix_post	2		12.0	77.0	2.5	/experiments/knapen_aot/videos/R_S_production_ID_5102663.mp4	0.0	319.20442605018616	0.09985899925231934
80	258.6566939353943	fix_pre	0		71.0	78.0	2.5	/experiments/knapen_aot/videos/R_S_yt-gikcYT6ZLzA_7.mp4	0.0	319.3042850494385	0.5917031764984131
80	259.24023604393005	response	0	2		78.0	2.5	/experiments/knapen_aot/videos/R_S_yt-gikcYT6ZLzA_7.mp4	0.0	319.88782715797424	
80	259.2483971118927	movie	1		301.0	78.0	2.5	/experiments/knapen_aot/videos/R_S_yt-gikcYT6ZLzA_7.mp4	0.0	319.8959882259369	2.508387804031372
80	261.7567849159241	fix_post	2		12.0	78.0	2.5	/experiments/knapen_aot/videos/R_S_yt-gikcYT6ZLzA_7.mp4	0.0	322.40437602996826	0.09996318817138672
81	261.85674810409546	fix_pre	0		66.0	79.0	2.5	/experiments/knapen_aot/videos/R_S_ILSVRC2015_train_00569006.mp4	0.0	322.50433921813965	0.5499777793884277
81	262.3910450935364	response	0	2		79.0	2.5	/experiments/knapen_aot/videos/R_S_ILSVRC2015_train_00569006.mp4	0.0	323.03863620758057	
81	262.4067258834839	movie	1		301.0	79.0	2.5	/experiments/knapen_aot/videos/R_S_ILSVRC2015_train_00569006.mp4	0.0	323.0543169975281	2.5084240436553955
81	264.9151499271393	fix_post	2		12.0	79.0	2.5	/experiments/knapen_aot/videos/R_S_ILSVRC2015_train_00569006.mp4	0.0	325.5627410411835	0.09988999366760254
82	265.0150399208069	fix_pre	0		49.0	80.0	2.5	/experiments/knapen_aot/videos/S_yt-QJ2k6vA8aco_12.mp4	0.0	325.6626310348511	0.4083240032196045
82	265.41531801223755	response	0	2		80.0	2.5	/experiments/knapen_aot/videos/S_yt-QJ2k6vA8aco_12.mp4	0.0	326.06290912628174	
82	265.4233639240265	movie	1		301.0	80.0	2.5	/experiments/knapen_aot/videos/S_yt-QJ2k6vA8aco_12.mp4	0.0	326.0709550380707	2.5083770751953125
82	267.9317409992218	fix_post	2		12.0	80.0	2.5	/experiments/knapen_aot/videos/S_yt-QJ2k6vA8aco_12.mp4	0.0	328.579332113266	0.099884033203125
83	268.0316250324249	fix_pre	0		57.0	81.0	2.5	/experiments/knapen_aot/videos/R_S_video_inspire_uk_london_hampstead-heath_003.1080-h264.mp4	0.0	328.6792161464691	0.4750940799713135
83	268.49106097221375	response	0	2		81.0	2.5	/experiments/knapen_aot/videos/R_S_video_inspire_uk_london_hampstead-heath_003.1080-h264.mp4	0.0	329.13865208625793	
83	268.50671911239624	movie	1		171.0	81.0	2.5	/experiments/knapen_aot/videos/R_S_video_inspire_uk_london_hampstead-heath_003.1080-h264.mp4	0.0	329.15431022644043	2.5083539485931396
83	271.0150730609894	fix_post	2		12.0	81.0	2.5	/experiments/knapen_aot/videos/R_S_video_inspire_uk_london_hampstead-heath_003.1080-h264.mp4	0.0	331.66266417503357	0.09993505477905273
84	271.11500811576843	fix_pre	0		59.0	82.0	2.5	blank	1.0	331.7625992298126	0.4927079677581787
84	271.59854197502136	response	0	2		82.0	2.5	blank	1.0	332.24613308906555	
84	271.6077160835266	movie	1		301.0	82.0	2.5	blank	1.0	332.2553071975708	2.507267951965332
84	274.11498403549194	fix_post	2		12.0	82.0	2.5	blank	1.0	334.76257514953613	0.10007095336914062
85	274.2150549888611	fix_pre	0		91.0	83.0	2.5	/experiments/knapen_aot/videos/S_yt-GyMWMiWvuiA_237.mp4	0.0	334.8626461029053	0.758307933807373
85	274.9650490283966	response	0	2		83.0	2.5	/experiments/knapen_aot/videos/S_yt-GyMWMiWvuiA_237.mp4	0.0	335.6126401424408	
85	274.97336292266846	movie	1		301.0	83.0	2.5	/experiments/knapen_aot/videos/S_yt-GyMWMiWvuiA_237.mp4	0.0	335.62095403671265	2.508404016494751
85	277.4817669391632	fix_post	2		12.0	83.0	2.5	/experiments/knapen_aot/videos/S_yt-GyMWMiWvuiA_237.mp4	0.0	338.1293580532074	0.09993195533752441
87	277.58169889450073	stim	0		196.0					338.2292900085449	1.636951208114624
87	279.210599899292	response	0	space						339.8581910133362	
