trial_nr	onset	event_type	phase	response	nr_frames	movie_index	movie_duration	movie_file	blank	onset_abs	duration
0	0.12485194206237793	stim	0		77.0					59.5959210395813	0.6417839527130127
0	0.7583389282226562	response	0	space						60.22940802574158	
1	0.7666358947753906	stim	0		121.0					60.23770499229431	1.0079500675201416
1	1.7745859622955322	stim	1		120.0					61.24565505981445	1.000072956085205
2	2.7746589183807373	fix_pre	0		3.0	0.0	2.5	/experiments/knapen_aot/videos/R_S_pexels-cottonbro-9063801.mp4	0.0	62.24572801589966	0.024936914443969727
2	2.7914628982543945	response	0	space		0.0	2.5	/experiments/knapen_aot/videos/R_S_pexels-cottonbro-9063801.mp4	0.0	62.262531995773315	
2	2.799595832824707	movie	1		192.0	0.0	2.5	/experiments/knapen_aot/videos/R_S_pexels-cottonbro-9063801.mp4	0.0	62.27066493034363	2.5083601474761963
2	5.307955980300903	fix_post	2		12.0	0.0	2.5	/experiments/knapen_aot/videos/R_S_pexels-cottonbro-9063801.mp4	0.0	64.77902507781982	0.09993791580200195
3	5.407893896102905	fix_pre	0		5.0	1.0	2.5	/experiments/knapen_aot/videos/S_video_inspire_oregon_portland_00064.1080-h264.mp4	0.0	64.87896299362183	0.04275798797607422
3	5.445780992507935	response	0	2		1.0	2.5	/experiments/knapen_aot/videos/S_video_inspire_oregon_portland_00064.1080-h264.mp4	0.0	64.91685009002686	
3	5.4506518840789795	movie	1		165.0	1.0	2.5	/experiments/knapen_aot/videos/S_video_inspire_oregon_portland_00064.1080-h264.mp4	0.0	64.9217209815979	2.5072340965270996
3	7.957885980606079	fix_post	2		12.0	1.0	2.5	/experiments/knapen_aot/videos/S_video_inspire_oregon_portland_00064.1080-h264.mp4	0.0	67.428955078125	0.10004091262817383
4	8.057926893234253	fix_pre	0		1.0	2.0	2.5	/experiments/knapen_aot/videos/R_S_BsNCrwV7d8Q_9.mp4	0.0	67.52899599075317	0.01080012321472168
4	8.05959701538086	response	0	2		2.0	2.5	/experiments/knapen_aot/videos/R_S_BsNCrwV7d8Q_9.mp4	0.0	67.53066611289978	
4	8.068727016448975	movie	1		301.0	2.0	2.5	/experiments/knapen_aot/videos/R_S_BsNCrwV7d8Q_9.mp4	0.0	67.5397961139679	2.50586199760437
4	10.574589014053345	fix_post	2		12.0	2.0	2.5	/experiments/knapen_aot/videos/R_S_BsNCrwV7d8Q_9.mp4	0.0	70.04565811157227	0.10002779960632324
5	10.674616813659668	fix_pre	0		17.0	3.0	2.5	/experiments/knapen_aot/videos/S_production_ID_5146014.mp4	0.0	70.14568591117859	0.1416020393371582
5	10.80798888206482	response	0	2		3.0	2.5	/experiments/knapen_aot/videos/S_production_ID_5146014.mp4	0.0	70.27905797958374	
5	10.816218852996826	movie	1		166.0	3.0	2.5	/experiments/knapen_aot/videos/S_production_ID_5146014.mp4	0.0	70.28728795051575	2.508315086364746
5	13.324533939361572	fix_post	2		12.0	3.0	2.5	/experiments/knapen_aot/videos/S_production_ID_5146014.mp4	0.0	72.7956030368805	0.09993696212768555
5	13.416291952133179	response	2	2		3.0	2.5	/experiments/knapen_aot/videos/S_production_ID_5146014.mp4	0.0	72.8873610496521	
6	13.424470901489258	fix_pre	0		35.0	4.0	2.5	/experiments/knapen_aot/videos/S_yt-1n1jTroiwJs_163.mp4	0.0	72.89553999900818	0.29170703887939453
6	13.707927942276001	response	0	2		4.0	2.5	/experiments/knapen_aot/videos/S_yt-1n1jTroiwJs_163.mp4	0.0	73.17899703979492	
6	13.716177940368652	movie	1		301.0	4.0	2.5	/experiments/knapen_aot/videos/S_yt-1n1jTroiwJs_163.mp4	0.0	73.18724703788757	2.5083470344543457
6	16.224524974822998	fix_post	2		12.0	4.0	2.5	/experiments/knapen_aot/videos/S_yt-1n1jTroiwJs_163.mp4	0.0	75.69559407234192	0.0999610424041748
7	16.324486017227173	fix_pre	0		9.0	5.0	2.5	blank	1.0	75.7955551147461	0.07503700256347656
7	16.39131999015808	response	0	2		5.0	2.5	blank	1.0	75.862389087677	
7	16.39952301979065	movie	1		301.0	5.0	2.5	blank	1.0	75.87059211730957	2.5083038806915283
7	18.907826900482178	fix_post	2		12.0	5.0	2.5	blank	1.0	78.3788959980011	0.10004997253417969
8	19.007876873016357	fix_pre	0		19.0	6.0	2.5	/experiments/knapen_aot/videos/S_yt-NqyG4Ar2JWo_10.mp4	0.0	78.47894597053528	0.1582789421081543
8	19.157925844192505	response	0	2		6.0	2.5	/experiments/knapen_aot/videos/S_yt-NqyG4Ar2JWo_10.mp4	0.0	78.62899494171143	
8	19.16615581512451	movie	1		301.0	6.0	2.5	/experiments/knapen_aot/videos/S_yt-NqyG4Ar2JWo_10.mp4	0.0	78.63722491264343	2.508411169052124
8	21.674566984176636	fix_post	2		12.0	6.0	2.5	/experiments/knapen_aot/videos/S_yt-NqyG4Ar2JWo_10.mp4	0.0	81.14563608169556	0.10015583038330078
9	21.774722814559937	fix_pre	0		8.0	7.0	2.5	/experiments/knapen_aot/videos/R_S_pexels-mart-production-7698911_1.mp4	0.0	81.24579191207886	0.06643414497375488
9	21.825491905212402	response	0	2		7.0	2.5	/experiments/knapen_aot/videos/R_S_pexels-mart-production-7698911_1.mp4	0.0	81.29656100273132	
9	21.84115695953369	movie	1		196.0	7.0	2.5	/experiments/knapen_aot/videos/R_S_pexels-mart-production-7698911_1.mp4	0.0	81.31222605705261	2.508272886276245
9	24.349429845809937	fix_post	2		12.0	7.0	2.5	/experiments/knapen_aot/videos/R_S_pexels-mart-production-7698911_1.mp4	0.0	83.82049894332886	0.10009002685546875
10	24.449519872665405	fix_pre	0		6.0	8.0	2.5	/experiments/knapen_aot/videos/R_S_yt--_ZMybcaUOw_254.mp4	0.0	83.92058897018433	0.04994702339172363
10	24.491267919540405	response	0	2		8.0	2.5	/experiments/knapen_aot/videos/R_S_yt--_ZMybcaUOw_254.mp4	0.0	83.96233701705933	
10	24.49946689605713	movie	1		301.0	8.0	2.5	/experiments/knapen_aot/videos/R_S_yt--_ZMybcaUOw_254.mp4	0.0	83.97053599357605	2.508327007293701
10	27.00779390335083	fix_post	2		12.0	8.0	2.5	/experiments/knapen_aot/videos/R_S_yt--_ZMybcaUOw_254.mp4	0.0	86.47886300086975	0.1000211238861084
11	27.10781502723694	fix_pre	0		7.0	9.0	2.5	/experiments/knapen_aot/videos/S_production_ID_4153808.mp4	0.0	86.57888412475586	0.058319807052612305
11	27.157871961593628	response	0	2		9.0	2.5	/experiments/knapen_aot/videos/S_production_ID_4153808.mp4	0.0	86.62894105911255	
11	27.16613483428955	movie	1		200.0	9.0	2.5	/experiments/knapen_aot/videos/S_production_ID_4153808.mp4	0.0	86.63720393180847	2.5083770751953125
11	29.674511909484863	fix_post	2		12.0	9.0	2.5	/experiments/knapen_aot/videos/S_production_ID_4153808.mp4	0.0	89.14558100700378	0.10004901885986328
12	29.774560928344727	fix_pre	0		10.0	10.0	2.5	/experiments/knapen_aot/videos/S_yt-wPXrAuiiRZg_1062.mp4	0.0	89.24563002586365	0.08320307731628418
12	29.849547863006592	response	0	2		10.0	2.5	/experiments/knapen_aot/videos/S_yt-wPXrAuiiRZg_1062.mp4	0.0	89.32061696052551	
12	29.85776400566101	movie	1		301.0	10.0	2.5	/experiments/knapen_aot/videos/S_yt-wPXrAuiiRZg_1062.mp4	0.0	89.32883310317993	2.5083699226379395
12	32.36613392829895	fix_post	2		12.0	10.0	2.5	/experiments/knapen_aot/videos/S_yt-wPXrAuiiRZg_1062.mp4	0.0	91.83720302581787	0.09998106956481934
13	32.46611499786377	fix_pre	0		14.0	11.0	2.5	/experiments/knapen_aot/videos/S_comp_A009_C001_010181A_v09_SDR_PS_FINAL_20180725_SDR_2K_AVC.mp4	0.0	91.93718409538269	0.11665081977844238
13	32.56706690788269	response	0	2		11.0	2.5	/experiments/knapen_aot/videos/S_comp_A009_C001_010181A_v09_SDR_PS_FINAL_20180725_SDR_2K_AVC.mp4	0.0	92.03813600540161	
13	32.58276581764221	movie	1		163.0	11.0	2.5	/experiments/knapen_aot/videos/S_comp_A009_C001_010181A_v09_SDR_PS_FINAL_20180725_SDR_2K_AVC.mp4	0.0	92.05383491516113	2.5083351135253906
13	35.0911009311676	fix_post	2		12.0	11.0	2.5	/experiments/knapen_aot/videos/S_comp_A009_C001_010181A_v09_SDR_PS_FINAL_20180725_SDR_2K_AVC.mp4	0.0	94.56217002868652	0.1000828742980957
14	35.1911838054657	fix_pre	0		4.0	12.0	2.5	blank	1.0	94.66225290298462	0.033236026763916016
14	35.21624684333801	response	0	2		12.0	2.5	blank	1.0	94.68731594085693	
14	35.224419832229614	movie	1		301.0	12.0	2.5	blank	1.0	94.69548892974854	2.508376121520996
14	37.73279595375061	fix_post	2		12.0	12.0	2.5	blank	1.0	97.20386505126953	0.09995508193969727
15	37.83275103569031	fix_pre	0		19.0	13.0	2.5	/experiments/knapen_aot/videos/S_cST9H3zu3zQ_126.mp4	0.0	97.30382013320923	0.15941381454467773
15	37.982836961746216	response	0	2		13.0	2.5	/experiments/knapen_aot/videos/S_cST9H3zu3zQ_126.mp4	0.0	97.45390605926514	
15	37.992164850234985	movie	1		301.0	13.0	2.5	/experiments/knapen_aot/videos/S_cST9H3zu3zQ_126.mp4	0.0	97.4632339477539	2.50726318359375
15	40.499428033828735	fix_post	2		12.0	13.0	2.5	/experiments/knapen_aot/videos/S_cST9H3zu3zQ_126.mp4	0.0	99.97049713134766	0.09997677803039551
16	40.59940481185913	fix_pre	0		7.0	14.0	2.5	/experiments/knapen_aot/videos/R_S_yt-wPXrAuiiRZg_1062.mp4	0.0	100.07047390937805	0.059325218200683594
16	40.64962697029114	response	0	2		14.0	2.5	/experiments/knapen_aot/videos/R_S_yt-wPXrAuiiRZg_1062.mp4	0.0	100.12069606781006	
16	40.658730030059814	movie	1		301.0	14.0	2.5	/experiments/knapen_aot/videos/R_S_yt-wPXrAuiiRZg_1062.mp4	0.0	100.12979912757874	2.5073788166046143
16	43.16610884666443	fix_post	2		12.0	14.0	2.5	/experiments/knapen_aot/videos/R_S_yt-wPXrAuiiRZg_1062.mp4	0.0	102.63717794418335	0.10004997253417969
17	43.26615881919861	fix_pre	0		16.0	15.0	2.5	/experiments/knapen_aot/videos/R_S_Pexels_Videos_2795731.mp4	0.0	102.73722791671753	0.13326120376586914
17	43.39124298095703	response	0	2		15.0	2.5	/experiments/knapen_aot/videos/R_S_Pexels_Videos_2795731.mp4	0.0	102.86231207847595	
17	43.39942002296448	movie	1		168.0	15.0	2.5	/experiments/knapen_aot/videos/R_S_Pexels_Videos_2795731.mp4	0.0	102.8704891204834	2.5083398818969727
17	45.63289785385132	response	1	2		15.0	2.5	/experiments/knapen_aot/videos/R_S_Pexels_Videos_2795731.mp4	0.0	105.10396695137024	
17	45.90775990486145	fix_post	2		12.0	15.0	2.5	/experiments/knapen_aot/videos/R_S_Pexels_Videos_2795731.mp4	0.0	105.37882900238037	0.09998202323913574
18	46.007741928100586	fix_pre	0		21.0	16.0	2.5	/experiments/knapen_aot/videos/R_S_ILSVRC2015_train_00303005.mp4	0.0	105.4788110256195	0.17495298385620117
18	46.17447781562805	response	0	2		16.0	2.5	/experiments/knapen_aot/videos/R_S_ILSVRC2015_train_00303005.mp4	0.0	105.64554691314697	
18	46.18269491195679	movie	1		301.0	16.0	2.5	/experiments/knapen_aot/videos/R_S_ILSVRC2015_train_00303005.mp4	0.0	105.65376400947571	2.508347988128662
18	48.69104290008545	fix_post	2		12.0	16.0	2.5	/experiments/knapen_aot/videos/R_S_ILSVRC2015_train_00303005.mp4	0.0	108.16211199760437	0.10035896301269531
19	48.791401863098145	fix_pre	0		15.0	17.0	2.5	/experiments/knapen_aot/videos/S_ILSVRC2015_train_00484001.mp4	0.0	108.26247096061707	0.12457704544067383
19	48.907819986343384	response	0	2		17.0	2.5	/experiments/knapen_aot/videos/S_ILSVRC2015_train_00484001.mp4	0.0	108.3788890838623	
19	48.91597890853882	movie	1		301.0	17.0	2.5	/experiments/knapen_aot/videos/S_ILSVRC2015_train_00484001.mp4	0.0	108.38704800605774	2.5085809230804443
19	51.42455983161926	fix_post	2		12.0	17.0	2.5	/experiments/knapen_aot/videos/S_ILSVRC2015_train_00484001.mp4	0.0	110.89562892913818	0.09984016418457031
20	51.52439999580383	fix_pre	0		9.0	18.0	2.5	/experiments/knapen_aot/videos/R_S_yt-fIEGqReekCM_10.mp4	0.0	110.99546909332275	0.07495594024658203
20	51.583662033081055	response	0	2		18.0	2.5	/experiments/knapen_aot/videos/R_S_yt-fIEGqReekCM_10.mp4	0.0	111.05473113059998	
20	51.599355936050415	movie	1		301.0	18.0	2.5	/experiments/knapen_aot/videos/R_S_yt-fIEGqReekCM_10.mp4	0.0	111.07042503356934	2.508419990539551
20	54.107775926589966	fix_post	2		12.0	18.0	2.5	/experiments/knapen_aot/videos/R_S_yt-fIEGqReekCM_10.mp4	0.0	113.57884502410889	0.09993410110473633
21	54.2077100276947	fix_pre	0		9.0	19.0	2.5	/experiments/knapen_aot/videos/R_S_yt-HwGg4-zeWi8_364.mp4	0.0	113.67877912521362	0.07590198516845703
21	54.27442383766174	response	0	2		19.0	2.5	/experiments/knapen_aot/videos/R_S_yt-HwGg4-zeWi8_364.mp4	0.0	113.74549293518066	
21	54.28361201286316	movie	1		301.0	19.0	2.5	/experiments/knapen_aot/videos/R_S_yt-HwGg4-zeWi8_364.mp4	0.0	113.75468111038208	2.5073609352111816
21	56.79097294807434	fix_post	2		12.0	19.0	2.5	/experiments/knapen_aot/videos/R_S_yt-HwGg4-zeWi8_364.mp4	0.0	116.26204204559326	0.10035490989685059
22	56.89132785797119	fix_pre	0		11.0	20.0	2.5	/experiments/knapen_aot/videos/S_yt-PK-Eip9wFr0_24.mp4	0.0	116.36239695549011	0.09133505821228027
22	56.97435998916626	response	0	2		20.0	2.5	/experiments/knapen_aot/videos/S_yt-PK-Eip9wFr0_24.mp4	0.0	116.44542908668518	
22	56.98266291618347	movie	1		301.0	20.0	2.5	/experiments/knapen_aot/videos/S_yt-PK-Eip9wFr0_24.mp4	0.0	116.45373201370239	2.508394956588745
22	59.49105787277222	fix_post	2		12.0	20.0	2.5	/experiments/knapen_aot/videos/S_yt-PK-Eip9wFr0_24.mp4	0.0	118.96212697029114	0.0999910831451416
23	59.59104895591736	fix_pre	0		12.0	21.0	2.5	blank	1.0	119.06211805343628	0.0999288558959961
23	59.682668924331665	response	0	2		21.0	2.5	blank	1.0	119.15373802185059	
23	59.690977811813354	movie	1		301.0	21.0	2.5	blank	1.0	119.16204690933228	2.508395195007324
23	62.19937300682068	fix_post	2		12.0	21.0	2.5	blank	1.0	121.6704421043396	0.10000395774841309
24	62.29937696456909	fix_pre	0		14.0	22.0	2.5	/experiments/knapen_aot/videos/S_pexels-polina-tankilevitch-8203088.mp4	0.0	121.77044606208801	0.11658692359924316
24	62.407824993133545	response	0	2		22.0	2.5	/experiments/knapen_aot/videos/S_pexels-polina-tankilevitch-8203088.mp4	0.0	121.87889409065247	
24	62.415963888168335	movie	1		164.0	22.0	2.5	/experiments/knapen_aot/videos/S_pexels-polina-tankilevitch-8203088.mp4	0.0	121.88703298568726	2.5084400177001953
24	64.92440390586853	fix_post	2		12.0	22.0	2.5	/experiments/knapen_aot/videos/S_pexels-polina-tankilevitch-8203088.mp4	0.0	124.39547300338745	0.0999140739440918
25	65.02431797981262	fix_pre	0		7.0	23.0	2.5	/experiments/knapen_aot/videos/R_S_ILSVRC2015_train_00425000.mp4	0.0	124.49538707733154	0.058328866958618164
25	65.06696486473083	response	0	2		23.0	2.5	/experiments/knapen_aot/videos/R_S_ILSVRC2015_train_00425000.mp4	0.0	124.53803396224976	
25	65.08264684677124	movie	1		301.0	23.0	2.5	/experiments/knapen_aot/videos/R_S_ILSVRC2015_train_00425000.mp4	0.0	124.55371594429016	2.508345127105713
25	67.59099197387695	fix_post	2		12.0	23.0	2.5	/experiments/knapen_aot/videos/R_S_ILSVRC2015_train_00425000.mp4	0.0	127.06206107139587	0.10002899169921875
26	67.69102096557617	fix_pre	0		25.0	24.0	2.5	/experiments/knapen_aot/videos/R_S_xTlFOCRvy68_1564.mp4	0.0	127.16209006309509	0.20839285850524902
26	67.88359189033508	response	0	2		24.0	2.5	/experiments/knapen_aot/videos/R_S_xTlFOCRvy68_1564.mp4	0.0	127.354660987854	
26	67.89941382408142	movie	1		301.0	24.0	2.5	/experiments/knapen_aot/videos/R_S_xTlFOCRvy68_1564.mp4	0.0	127.37048292160034	2.508287191390991
26	70.40770101547241	fix_post	2		12.0	24.0	2.5	/experiments/knapen_aot/videos/R_S_xTlFOCRvy68_1564.mp4	0.0	129.87877011299133	0.09998178482055664
26	70.49941301345825	response	2	2		24.0	2.5	/experiments/knapen_aot/videos/R_S_xTlFOCRvy68_1564.mp4	0.0	129.97048211097717	
27	70.50768280029297	fix_pre	0		35.0	25.0	2.5	/experiments/knapen_aot/videos/S_yt-YTQXM5ZjRgg_116.mp4	0.0	129.9787518978119	0.29172515869140625
27	70.79110193252563	response	0	2		25.0	2.5	/experiments/knapen_aot/videos/S_yt-YTQXM5ZjRgg_116.mp4	0.0	130.26217103004456	
27	70.79940795898438	movie	1		301.0	25.0	2.5	/experiments/knapen_aot/videos/S_yt-YTQXM5ZjRgg_116.mp4	0.0	130.2704770565033	2.5082080364227295
27	73.3076159954071	fix_post	2		12.0	25.0	2.5	/experiments/knapen_aot/videos/S_yt-YTQXM5ZjRgg_116.mp4	0.0	132.77868509292603	0.10001897811889648
28	73.407634973526	fix_pre	0		14.0	26.0	2.5	/experiments/knapen_aot/videos/R_S_yt-QXsedpZh800_275.mp4	0.0	132.87870407104492	0.11665797233581543
28	73.51605701446533	response	0	2		26.0	2.5	/experiments/knapen_aot/videos/R_S_yt-QXsedpZh800_275.mp4	0.0	132.98712611198425	
28	73.52429294586182	movie	1		301.0	26.0	2.5	/experiments/knapen_aot/videos/R_S_yt-QXsedpZh800_275.mp4	0.0	132.99536204338074	2.5083909034729004
28	76.03268384933472	fix_post	2		12.0	26.0	2.5	/experiments/knapen_aot/videos/R_S_yt-QXsedpZh800_275.mp4	0.0	135.50375294685364	0.09991216659545898
29	76.13259601593018	fix_pre	0		20.0	27.0	2.5	blank	1.0	135.6036651134491	0.1666247844696045
29	76.29105281829834	response	0	2		27.0	2.5	blank	1.0	135.76212191581726	
29	76.29922080039978	movie	1		301.0	27.0	2.5	blank	1.0	135.7702898979187	2.508331060409546
29	78.80755186080933	fix_post	2		12.0	27.0	2.5	blank	1.0	138.27862095832825	0.1000370979309082
30	78.90758895874023	fix_pre	0		11.0	28.0	2.5	/experiments/knapen_aot/videos/R_S_yt-Tn563IPZfg4_55.mp4	0.0	138.37865805625916	0.09164595603942871
30	78.9910798072815	response	0	2		28.0	2.5	/experiments/knapen_aot/videos/R_S_yt-Tn563IPZfg4_55.mp4	0.0	138.46214890480042	
30	78.99923491477966	movie	1		301.0	28.0	2.5	/experiments/knapen_aot/videos/R_S_yt-Tn563IPZfg4_55.mp4	0.0	138.47030401229858	2.508341073989868
30	81.50757598876953	fix_post	2		12.0	28.0	2.5	/experiments/knapen_aot/videos/R_S_yt-Tn563IPZfg4_55.mp4	0.0	140.97864508628845	0.10007691383361816
31	81.60765290260315	fix_pre	0		16.0	29.0	2.5	/experiments/knapen_aot/videos/S_yt-feTWuKPZA_k_34.mp4	0.0	141.07872200012207	0.1339869499206543
31	81.73269200325012	response	0	2		29.0	2.5	/experiments/knapen_aot/videos/S_yt-feTWuKPZA_k_34.mp4	0.0	141.20376110076904	
31	81.7416398525238	movie	1		301.0	29.0	2.5	/experiments/knapen_aot/videos/S_yt-feTWuKPZA_k_34.mp4	0.0	141.21270895004272	2.507789134979248
31	84.24942898750305	fix_post	2		12.0	29.0	2.5	/experiments/knapen_aot/videos/S_yt-feTWuKPZA_k_34.mp4	0.0	143.72049808502197	0.09982085227966309
32	84.34924983978271	fix_pre	0		16.0	30.0	2.5	/experiments/knapen_aot/videos/R_S_yt-Zn0YwrsCFOQ_44.mp4	0.0	143.82031893730164	0.13329815864562988
32	84.47434782981873	response	0	2		30.0	2.5	/experiments/knapen_aot/videos/R_S_yt-Zn0YwrsCFOQ_44.mp4	0.0	143.94541692733765	
32	84.48254799842834	movie	1		301.0	30.0	2.5	/experiments/knapen_aot/videos/R_S_yt-Zn0YwrsCFOQ_44.mp4	0.0	143.95361709594727	2.508445978164673
32	86.99099397659302	fix_post	2		12.0	30.0	2.5	/experiments/knapen_aot/videos/R_S_yt-Zn0YwrsCFOQ_44.mp4	0.0	146.46206307411194	0.0998990535736084
33	87.09089303016663	fix_pre	0		15.0	31.0	2.5	/experiments/knapen_aot/videos/S_yt-H2ce6U0SbVA_542.mp4	0.0	146.56196212768555	0.12496089935302734
33	87.20768785476685	response	0	2		31.0	2.5	/experiments/knapen_aot/videos/S_yt-H2ce6U0SbVA_542.mp4	0.0	146.67875695228577	
33	87.21585392951965	movie	1		301.0	31.0	2.5	/experiments/knapen_aot/videos/S_yt-H2ce6U0SbVA_542.mp4	0.0	146.68692302703857	2.5085039138793945
33	89.72435784339905	fix_post	2		12.0	31.0	2.5	/experiments/knapen_aot/videos/S_yt-H2ce6U0SbVA_542.mp4	0.0	149.19542694091797	0.10059618949890137
34	89.82495403289795	fix_pre	0		19.0	32.0	2.5	/experiments/knapen_aot/videos/S_wc-sd8_iKx0t7s7_9.mp4	0.0	149.29602313041687	0.15756893157958984
34	89.97442293167114	response	0	2		32.0	2.5	/experiments/knapen_aot/videos/S_wc-sd8_iKx0t7s7_9.mp4	0.0	149.44549202919006	
34	89.98252296447754	movie	1		174.0	32.0	2.5	/experiments/knapen_aot/videos/S_wc-sd8_iKx0t7s7_9.mp4	0.0	149.45359206199646	2.5083868503570557
34	92.4909098148346	fix_post	2		12.0	32.0	2.5	/experiments/knapen_aot/videos/S_wc-sd8_iKx0t7s7_9.mp4	0.0	151.96197891235352	0.1000361442565918
35	92.59094595909119	fix_pre	0		27.0	33.0	2.5	blank	1.0	152.0620150566101	0.2249128818511963
35	92.80762100219727	response	0	2		33.0	2.5	blank	1.0	152.2786900997162	
35	92.81585884094238	movie	1		301.0	33.0	2.5	blank	1.0	152.2869279384613	2.508331060409546
35	95.32418990135193	fix_post	2		12.0	33.0	2.5	blank	1.0	154.79525899887085	0.10003399848937988
36	95.42422389984131	fix_pre	0		15.0	34.0	2.5	/experiments/knapen_aot/videos/R_S_yt-etF_WUW5D68_3.mp4	0.0	154.89529299736023	0.12494707107543945
36	95.54094195365906	response	0	2		34.0	2.5	/experiments/knapen_aot/videos/R_S_yt-etF_WUW5D68_3.mp4	0.0	155.01201105117798	
36	95.54917097091675	movie	1		301.0	34.0	2.5	/experiments/knapen_aot/videos/R_S_yt-etF_WUW5D68_3.mp4	0.0	155.02024006843567	2.5083999633789062
36	98.05757093429565	fix_post	2		12.0	34.0	2.5	/experiments/knapen_aot/videos/R_S_yt-etF_WUW5D68_3.mp4	0.0	157.52864003181458	0.09993791580200195
37	98.15750885009766	fix_pre	0		12.0	35.0	2.5	/experiments/knapen_aot/videos/S_yt-Rsfo57AlpLA_332.mp4	0.0	157.62857794761658	0.10001707077026367
37	98.2493109703064	response	0	2		35.0	2.5	/experiments/knapen_aot/videos/S_yt-Rsfo57AlpLA_332.mp4	0.0	157.72038006782532	
37	98.25752592086792	movie	1		301.0	35.0	2.5	/experiments/knapen_aot/videos/S_yt-Rsfo57AlpLA_332.mp4	0.0	157.72859501838684	2.508357048034668
37	100.76588296890259	fix_post	2		12.0	35.0	2.5	/experiments/knapen_aot/videos/S_yt-Rsfo57AlpLA_332.mp4	0.0	160.2369520664215	0.10007691383361816
38	100.8659598827362	fix_pre	0		28.0	36.0	2.5	/experiments/knapen_aot/videos/R_S_yt-N1EsjM9gD5Q_21.mp4	0.0	160.33702898025513	0.23320698738098145
38	101.09085893630981	response	0	2		36.0	2.5	/experiments/knapen_aot/videos/R_S_yt-N1EsjM9gD5Q_21.mp4	0.0	160.56192803382874	
38	101.09916687011719	movie	1		301.0	36.0	2.5	/experiments/knapen_aot/videos/R_S_yt-N1EsjM9gD5Q_21.mp4	0.0	160.5702359676361	2.5083999633789062
38	103.6075668334961	fix_post	2		12.0	36.0	2.5	/experiments/knapen_aot/videos/R_S_yt-N1EsjM9gD5Q_21.mp4	0.0	163.07863593101501	0.09991812705993652
39	103.70748496055603	fix_pre	0		47.0	37.0	2.5	/experiments/knapen_aot/videos/S_video-11.mp4	0.0	163.17855405807495	0.39165687561035156
39	104.09094381332397	response	0	2		37.0	2.5	/experiments/knapen_aot/videos/S_video-11.mp4	0.0	163.5620129108429	
39	104.09914183616638	movie	1		165.0	37.0	2.5	/experiments/knapen_aot/videos/S_video-11.mp4	0.0	163.5702109336853	2.5084500312805176
39	106.6075918674469	fix_post	2		12.0	37.0	2.5	/experiments/knapen_aot/videos/S_video-11.mp4	0.0	166.07866096496582	0.09988212585449219
40	106.70747399330139	fix_pre	0		21.0	38.0	2.5	/experiments/knapen_aot/videos/S_ILSVRC2015_train_00601000.mp4	0.0	166.1785430908203	0.17496395111083984
40	106.87420392036438	response	0	2		38.0	2.5	/experiments/knapen_aot/videos/S_ILSVRC2015_train_00601000.mp4	0.0	166.3452730178833	
40	106.88243794441223	movie	1		301.0	38.0	2.5	/experiments/knapen_aot/videos/S_ILSVRC2015_train_00601000.mp4	0.0	166.35350704193115	2.5083279609680176
40	109.39076590538025	fix_post	2		12.0	38.0	2.5	/experiments/knapen_aot/videos/S_ILSVRC2015_train_00601000.mp4	0.0	168.86183500289917	0.10004496574401855
41	109.49081087112427	fix_pre	0		22.0	39.0	2.5	/experiments/knapen_aot/videos/R_S_yt-GaJaxp546lc_22.mp4	0.0	168.9618799686432	0.18329715728759766
41	109.66579389572144	response	0	2		39.0	2.5	/experiments/knapen_aot/videos/R_S_yt-GaJaxp546lc_22.mp4	0.0	169.13686299324036	
41	109.67410802841187	movie	1		301.0	39.0	2.5	/experiments/knapen_aot/videos/R_S_yt-GaJaxp546lc_22.mp4	0.0	169.1451771259308	2.508363962173462
41	112.18247199058533	fix_post	2		12.0	39.0	2.5	/experiments/knapen_aot/videos/R_S_yt-GaJaxp546lc_22.mp4	0.0	171.65354108810425	0.09991788864135742
42	112.28238987922668	fix_pre	0		29.0	40.0	2.5	blank	1.0	171.7534589767456	0.24161911010742188
42	112.51594996452332	response	0	2		40.0	2.5	blank	1.0	171.98701906204224	
42	112.5240089893341	movie	1		301.0	40.0	2.5	blank	1.0	171.99507808685303	2.508435010910034
42	115.03244400024414	fix_post	2		12.0	40.0	2.5	blank	1.0	174.50351309776306	0.10003781318664551
43	115.13248181343079	fix_pre	0		20.0	41.0	2.5	/experiments/knapen_aot/videos/S_yt-dESxu60Cl10_24.mp4	0.0	174.6035509109497	0.16661620140075684
43	115.29081583023071	response	0	2		41.0	2.5	/experiments/knapen_aot/videos/S_yt-dESxu60Cl10_24.mp4	0.0	174.76188492774963	
43	115.29909801483154	movie	1		301.0	41.0	2.5	/experiments/knapen_aot/videos/S_yt-dESxu60Cl10_24.mp4	0.0	174.77016711235046	2.508389949798584
43	117.80748796463013	fix_post	2		12.0	41.0	2.5	/experiments/knapen_aot/videos/S_yt-dESxu60Cl10_24.mp4	0.0	177.27855706214905	0.09996700286865234
44	117.90745496749878	fix_pre	0		46.0	42.0	2.5	/experiments/knapen_aot/videos/R_S_ILSVRC2015_train_00628000.mp4	0.0	177.3785240650177	0.3832850456237793
44	118.28252482414246	response	0	2		42.0	2.5	/experiments/knapen_aot/videos/R_S_ILSVRC2015_train_00628000.mp4	0.0	177.75359392166138	
44	118.29074001312256	movie	1		301.0	42.0	2.5	/experiments/knapen_aot/videos/R_S_ILSVRC2015_train_00628000.mp4	0.0	177.76180911064148	2.5086889266967773
44	120.79942893981934	fix_post	2		12.0	42.0	2.5	/experiments/knapen_aot/videos/R_S_ILSVRC2015_train_00628000.mp4	0.0	180.27049803733826	0.09967589378356934
45	120.8991048336029	fix_pre	0		14.0	43.0	2.5	/experiments/knapen_aot/videos/S_yt-kQpE9L-fsNE_55.mp4	0.0	180.37017393112183	0.11658406257629395
45	121.00750303268433	response	0	2		43.0	2.5	/experiments/knapen_aot/videos/S_yt-kQpE9L-fsNE_55.mp4	0.0	180.47857213020325	
45	121.0156888961792	movie	1		301.0	43.0	2.5	/experiments/knapen_aot/videos/S_yt-kQpE9L-fsNE_55.mp4	0.0	180.48675799369812	2.5083980560302734
45	123.52408695220947	fix_post	2		12.0	43.0	2.5	/experiments/knapen_aot/videos/S_yt-kQpE9L-fsNE_55.mp4	0.0	182.9951560497284	0.09999299049377441
46	123.62407994270325	fix_pre	0		12.0	44.0	2.5	/experiments/knapen_aot/videos/S_yt-mMnlzv6cfH4_134.mp4	0.0	183.09514904022217	0.09998607635498047
46	123.71579480171204	response	0	2		44.0	2.5	/experiments/knapen_aot/videos/S_yt-mMnlzv6cfH4_134.mp4	0.0	183.18686389923096	
46	123.72406601905823	movie	1		301.0	44.0	2.5	/experiments/knapen_aot/videos/S_yt-mMnlzv6cfH4_134.mp4	0.0	183.19513511657715	2.508384943008423
46	126.23245096206665	fix_post	2		12.0	44.0	2.5	/experiments/knapen_aot/videos/S_yt-mMnlzv6cfH4_134.mp4	0.0	185.70352005958557	0.09996199607849121
47	126.33241295814514	fix_pre	0		30.0	45.0	2.5	/experiments/knapen_aot/videos/R_S_yt-9yxWUrtQJnw_11.mp4	0.0	185.80348205566406	0.24991989135742188
47	126.56672382354736	response	0	2		45.0	2.5	/experiments/knapen_aot/videos/R_S_yt-9yxWUrtQJnw_11.mp4	0.0	186.03779292106628	
47	126.58233284950256	movie	1		301.0	45.0	2.5	/experiments/knapen_aot/videos/R_S_yt-9yxWUrtQJnw_11.mp4	0.0	186.05340194702148	2.508402109146118
47	129.09073495864868	fix_post	2		12.0	45.0	2.5	/experiments/knapen_aot/videos/R_S_yt-9yxWUrtQJnw_11.mp4	0.0	188.5618040561676	0.09999203681945801
48	129.19072699546814	fix_pre	0		13.0	46.0	2.5	/experiments/knapen_aot/videos/R_S_yt-H45g6700wbc_159.mp4	0.0	188.66179609298706	0.1083059310913086
48	129.29082989692688	response	0	2		46.0	2.5	/experiments/knapen_aot/videos/R_S_yt-H45g6700wbc_159.mp4	0.0	188.7618989944458	
48	129.29903292655945	movie	1		301.0	46.0	2.5	/experiments/knapen_aot/videos/R_S_yt-H45g6700wbc_159.mp4	0.0	188.77010202407837	2.508389949798584
48	131.80742287635803	fix_post	2		12.0	46.0	2.5	/experiments/knapen_aot/videos/R_S_yt-H45g6700wbc_159.mp4	0.0	191.27849197387695	0.099945068359375
49	131.9073679447174	fix_pre	0		34.0	47.0	2.5	/experiments/knapen_aot/videos/R_S_yt-QI6k6mhpxLo_453.mp4	0.0	191.37843704223633	0.2833430767059326
49	132.1825029850006	response	0	2		47.0	2.5	/experiments/knapen_aot/videos/R_S_yt-QI6k6mhpxLo_453.mp4	0.0	191.65357208251953	
49	132.19071102142334	movie	1		301.0	47.0	2.5	/experiments/knapen_aot/videos/R_S_yt-QI6k6mhpxLo_453.mp4	0.0	191.66178011894226	2.5084469318389893
49	134.69915795326233	fix_post	2		12.0	47.0	2.5	/experiments/knapen_aot/videos/R_S_yt-QI6k6mhpxLo_453.mp4	0.0	194.17022705078125	0.10023689270019531
50	134.79939484596252	fix_pre	0		16.0	48.0	2.5	/experiments/knapen_aot/videos/R_S_yt-O4wUEZwHLyI_114.mp4	0.0	194.27046394348145	0.13291096687316895
50	134.92417001724243	response	0	2		48.0	2.5	/experiments/knapen_aot/videos/R_S_yt-O4wUEZwHLyI_114.mp4	0.0	194.39523911476135	
50	134.9323058128357	movie	1		301.0	48.0	2.5	/experiments/knapen_aot/videos/R_S_yt-O4wUEZwHLyI_114.mp4	0.0	194.40337491035461	2.5085041522979736
50	137.44080996513367	fix_post	2		12.0	48.0	2.5	/experiments/knapen_aot/videos/R_S_yt-O4wUEZwHLyI_114.mp4	0.0	196.9118790626526	0.09985589981079102
51	137.54066586494446	fix_pre	0		16.0	49.0	2.5	blank	1.0	197.01173496246338	0.13337206840515137
51	137.6657748222351	response	0	2		49.0	2.5	blank	1.0	197.13684391975403	
51	137.6740379333496	movie	1		301.0	49.0	2.5	blank	1.0	197.14510703086853	2.5083119869232178
51	140.18234992027283	fix_post	2		12.0	49.0	2.5	blank	1.0	199.65341901779175	0.10001111030578613
52	140.2823610305786	fix_pre	0		28.0	50.0	2.5	/experiments/knapen_aot/videos/S_comp_GL_G004_C010_PSNK_v04_SDR_PS_FINAL_20180709_SDR_2K_AVC.mp4	0.0	199.75343012809753	0.23324799537658691
52	140.50746893882751	response	0	2		50.0	2.5	/experiments/knapen_aot/videos/S_comp_GL_G004_C010_PSNK_v04_SDR_PS_FINAL_20180709_SDR_2K_AVC.mp4	0.0	199.97853803634644	
52	140.5156090259552	movie	1		167.0	50.0	2.5	/experiments/knapen_aot/videos/S_comp_GL_G004_C010_PSNK_v04_SDR_PS_FINAL_20180709_SDR_2K_AVC.mp4	0.0	199.98667812347412	2.50846791267395
52	143.02407693862915	fix_post	2		12.0	50.0	2.5	/experiments/knapen_aot/videos/S_comp_GL_G004_C010_PSNK_v04_SDR_PS_FINAL_20180709_SDR_2K_AVC.mp4	0.0	202.49514603614807	0.09993195533752441
52	143.09991192817688	response	2	2		50.0	2.5	/experiments/knapen_aot/videos/S_comp_GL_G004_C010_PSNK_v04_SDR_PS_FINAL_20180709_SDR_2K_AVC.mp4	0.0	202.5709810256958	
53	143.12400889396667	fix_pre	0		43.0	51.0	2.5	/experiments/knapen_aot/videos/S_ILSVRC2015_train_00628000.mp4	0.0	202.5950779914856	0.3583810329437256
53	143.47406387329102	response	0	2		51.0	2.5	/experiments/knapen_aot/videos/S_ILSVRC2015_train_00628000.mp4	0.0	202.94513297080994	
53	143.4823899269104	movie	1		301.0	51.0	2.5	/experiments/knapen_aot/videos/S_ILSVRC2015_train_00628000.mp4	0.0	202.95345902442932	2.50826096534729
53	145.9906508922577	fix_post	2		12.0	51.0	2.5	/experiments/knapen_aot/videos/S_ILSVRC2015_train_00628000.mp4	0.0	205.4617199897766	0.09998893737792969
54	146.09063982963562	fix_pre	0		15.0	52.0	2.5	/experiments/knapen_aot/videos/S_Y009_C015_SDR_2K_AVC.mp4	0.0	205.56170892715454	0.12495207786560059
54	146.20744395256042	response	0	2		52.0	2.5	/experiments/knapen_aot/videos/S_Y009_C015_SDR_2K_AVC.mp4	0.0	205.67851305007935	
54	146.21559190750122	movie	1		171.0	52.0	2.5	/experiments/knapen_aot/videos/S_Y009_C015_SDR_2K_AVC.mp4	0.0	205.68666100502014	2.508484125137329
54	148.72407603263855	fix_post	2		12.0	52.0	2.5	/experiments/knapen_aot/videos/S_Y009_C015_SDR_2K_AVC.mp4	0.0	208.19514513015747	0.1004037857055664
55	148.82447981834412	fix_pre	0		1.0	53.0	2.5	/experiments/knapen_aot/videos/S_yt-J2PiBa1MXI0_210.mp4	0.0	208.29554891586304	0.007839202880859375
55	148.82623100280762	response	0	2		53.0	2.5	/experiments/knapen_aot/videos/S_yt-J2PiBa1MXI0_210.mp4	0.0	208.29730010032654	
55	148.83231902122498	movie	1		301.0	53.0	2.5	/experiments/knapen_aot/videos/S_yt-J2PiBa1MXI0_210.mp4	0.0	208.3033881187439	2.5082998275756836
55	151.34061884880066	fix_post	2		12.0	53.0	2.5	/experiments/knapen_aot/videos/S_yt-J2PiBa1MXI0_210.mp4	0.0	210.81168794631958	0.09995818138122559
56	151.44057703018188	fix_pre	0		13.0	54.0	2.5	/experiments/knapen_aot/videos/S_yt-O4wUEZwHLyI_114.mp4	0.0	210.9116461277008	0.10827779769897461
56	151.54075002670288	response	0	2		54.0	2.5	/experiments/knapen_aot/videos/S_yt-O4wUEZwHLyI_114.mp4	0.0	211.0118191242218	
56	151.54885482788086	movie	1		301.0	54.0	2.5	/experiments/knapen_aot/videos/S_yt-O4wUEZwHLyI_114.mp4	0.0	211.01992392539978	2.5084362030029297
56	154.0572910308838	fix_post	2		12.0	54.0	2.5	/experiments/knapen_aot/videos/S_yt-O4wUEZwHLyI_114.mp4	0.0	213.5283601284027	0.0999898910522461
57	154.15728092193604	fix_pre	0		23.0	55.0	2.5	/experiments/knapen_aot/videos/S_ILSVRC2015_train_00318000.mp4	0.0	213.62835001945496	0.19163990020751953
57	154.34072089195251	response	0	2		55.0	2.5	/experiments/knapen_aot/videos/S_ILSVRC2015_train_00318000.mp4	0.0	213.81178998947144	
57	154.34892082214355	movie	1		301.0	55.0	2.5	/experiments/knapen_aot/videos/S_ILSVRC2015_train_00318000.mp4	0.0	213.81998991966248	2.5083441734313965
57	156.85726499557495	fix_post	2		12.0	55.0	2.5	/experiments/knapen_aot/videos/S_ILSVRC2015_train_00318000.mp4	0.0	216.32833409309387	0.09999680519104004
58	156.957261800766	fix_pre	0		12.0	56.0	2.5	blank	1.0	216.4283308982849	0.10014915466308594
58	157.04895401000977	response	0	2		56.0	2.5	blank	1.0	216.5200231075287	
58	157.05741095542908	movie	1		301.0	56.0	2.5	blank	1.0	216.528480052948	2.5082249641418457
58	159.56563591957092	fix_post	2		12.0	56.0	2.5	blank	1.0	219.03670501708984	0.09993505477905273
59	159.66557097434998	fix_pre	0		274.0	57.0	2.5	/experiments/knapen_aot/videos/R_S_yt-XPRNMelf5Fs_235.mp4	0.0	219.1366400718689	2.2836239337921143
59	161.93326902389526	response	0	2		57.0	2.5	/experiments/knapen_aot/videos/R_S_yt-XPRNMelf5Fs_235.mp4	0.0	221.40433812141418	
59	161.9491949081421	movie	1		301.0	57.0	2.5	/experiments/knapen_aot/videos/R_S_yt-XPRNMelf5Fs_235.mp4	0.0	221.420264005661	2.508052110671997
59	164.4572470188141	fix_post	2		12.0	57.0	2.5	/experiments/knapen_aot/videos/R_S_yt-XPRNMelf5Fs_235.mp4	0.0	223.928316116333	0.09993386268615723
59	164.54062700271606	response	2	2		57.0	2.5	/experiments/knapen_aot/videos/R_S_yt-XPRNMelf5Fs_235.mp4	0.0	224.01169610023499	
60	164.55718088150024	fix_pre	0		54.0	58.0	2.5	/experiments/knapen_aot/videos/R_S_ILSVRC2015_train_00563000.mp4	0.0	224.02824997901917	0.4500150680541992
60	164.99894094467163	response	0	2		58.0	2.5	/experiments/knapen_aot/videos/R_S_ILSVRC2015_train_00563000.mp4	0.0	224.47001004219055	
60	165.00719594955444	movie	1		301.0	58.0	2.5	/experiments/knapen_aot/videos/R_S_ILSVRC2015_train_00563000.mp4	0.0	224.47826504707336	2.5083649158477783
60	167.51556086540222	fix_post	2		12.0	58.0	2.5	/experiments/knapen_aot/videos/R_S_ILSVRC2015_train_00563000.mp4	0.0	226.98662996292114	0.10037612915039062
61	167.6159369945526	fix_pre	0		9.0	59.0	2.5	/experiments/knapen_aot/videos/R_S_yt-xSGPe0KemD4_384.mp4	0.0	227.08700609207153	0.07467293739318848
61	167.68225598335266	response	0	2		59.0	2.5	/experiments/knapen_aot/videos/R_S_yt-xSGPe0KemD4_384.mp4	0.0	227.15332508087158	
61	167.6906099319458	movie	1		301.0	59.0	2.5	/experiments/knapen_aot/videos/R_S_yt-xSGPe0KemD4_384.mp4	0.0	227.16167902946472	2.5082759857177734
61	170.19888591766357	fix_post	2		12.0	59.0	2.5	/experiments/knapen_aot/videos/R_S_yt-xSGPe0KemD4_384.mp4	0.0	229.6699550151825	0.09998011589050293
62	170.29886603355408	fix_pre	0		3.0	60.0	2.5	/experiments/knapen_aot/videos/S_yt-YyKEeu2gLrI_158.mp4	0.0	229.769935131073	0.02572488784790039
62	170.31570196151733	response	0	2		60.0	2.5	/experiments/knapen_aot/videos/S_yt-YyKEeu2gLrI_158.mp4	0.0	229.78677105903625	
62	170.32459092140198	movie	1		301.0	60.0	2.5	/experiments/knapen_aot/videos/S_yt-YyKEeu2gLrI_158.mp4	0.0	229.7956600189209	2.507633924484253
62	172.83222484588623	fix_post	2		12.0	60.0	2.5	/experiments/knapen_aot/videos/S_yt-YyKEeu2gLrI_158.mp4	0.0	232.30329394340515	0.0999441146850586
62	172.91641402244568	response	2	2		60.0	2.5	/experiments/knapen_aot/videos/S_yt-YyKEeu2gLrI_158.mp4	0.0	232.3874831199646	
63	172.9321689605713	fix_pre	0		36.0	61.0	2.5	/experiments/knapen_aot/videos/R_S_wc-q23aBNJMZbnZ_27.mp4	0.0	232.4032380580902	0.3000068664550781
63	173.22393488883972	response	0	2		61.0	2.5	/experiments/knapen_aot/videos/R_S_wc-q23aBNJMZbnZ_27.mp4	0.0	232.69500398635864	
63	173.23217582702637	movie	1		163.0	61.0	2.5	/experiments/knapen_aot/videos/R_S_wc-q23aBNJMZbnZ_27.mp4	0.0	232.7032449245453	2.5083510875701904
63	175.74052691459656	fix_post	2		12.0	61.0	2.5	/experiments/knapen_aot/videos/R_S_wc-q23aBNJMZbnZ_27.mp4	0.0	235.21159601211548	0.10004496574401855
64	175.84057188034058	fix_pre	0		12.0	62.0	2.5	/experiments/knapen_aot/videos/S_ILSVRC2015_train_00610000.mp4	0.0	235.3116409778595	0.09992098808288574
64	175.93230891227722	response	0	2		62.0	2.5	/experiments/knapen_aot/videos/S_ILSVRC2015_train_00610000.mp4	0.0	235.40337800979614	
64	175.94049286842346	movie	1		301.0	62.0	2.5	/experiments/knapen_aot/videos/S_ILSVRC2015_train_00610000.mp4	0.0	235.41156196594238	2.5082831382751465
64	178.4487760066986	fix_post	2		12.0	62.0	2.5	/experiments/knapen_aot/videos/S_ILSVRC2015_train_00610000.mp4	0.0	237.91984510421753	0.10007286071777344
64	178.50728297233582	response	2	2		62.0	2.5	/experiments/knapen_aot/videos/S_ILSVRC2015_train_00610000.mp4	0.0	237.97835206985474	
65	178.54884886741638	fix_pre	0		31.0	63.0	2.5	blank	1.0	238.0199179649353	0.2583150863647461
65	178.79891395568848	response	0	2		63.0	2.5	blank	1.0	238.2699830532074	
65	178.80716395378113	movie	1		301.0	63.0	2.5	blank	1.0	238.27823305130005	2.5083539485931396
65	181.31551790237427	fix_post	2		12.0	63.0	2.5	blank	1.0	240.7865869998932	0.10010790824890137
66	181.41562581062317	fix_pre	0		18.0	64.0	2.5	/experiments/knapen_aot/videos/R_S_yt-Wr5pSPApQDw_235.mp4	0.0	240.8866949081421	0.14980316162109375
66	181.55727291107178	response	0	2		64.0	2.5	/experiments/knapen_aot/videos/R_S_yt-Wr5pSPApQDw_235.mp4	0.0	241.0283420085907	
66	181.56542897224426	movie	1		301.0	64.0	2.5	/experiments/knapen_aot/videos/R_S_yt-Wr5pSPApQDw_235.mp4	0.0	241.03649806976318	2.5084328651428223
66	184.07386183738708	fix_post	2		12.0	64.0	2.5	/experiments/knapen_aot/videos/R_S_yt-Wr5pSPApQDw_235.mp4	0.0	243.544930934906	0.09995412826538086
67	184.17381596565247	fix_pre	0		4.0	65.0	2.5	/experiments/knapen_aot/videos/R_S_pexels-polina-tankilevitch-8203088.mp4	0.0	243.6448850631714	0.033303022384643555
67	184.19896697998047	response	0	2		65.0	2.5	/experiments/knapen_aot/videos/R_S_pexels-polina-tankilevitch-8203088.mp4	0.0	243.6700360774994	
67	184.2071189880371	movie	1		163.0	65.0	2.5	/experiments/knapen_aot/videos/R_S_pexels-polina-tankilevitch-8203088.mp4	0.0	243.67818808555603	2.508373975753784
67	186.7154929637909	fix_post	2		12.0	65.0	2.5	/experiments/knapen_aot/videos/R_S_pexels-polina-tankilevitch-8203088.mp4	0.0	246.18656206130981	0.10001301765441895
67	186.7988359928131	response	2	2		65.0	2.5	/experiments/knapen_aot/videos/R_S_pexels-polina-tankilevitch-8203088.mp4	0.0	246.26990509033203	
68	186.8155059814453	fix_pre	0		33.0	66.0	2.5	/experiments/knapen_aot/videos/R_S_pexels-artem-podrez-5457692.mp4	0.0	246.28657507896423	0.27492594718933105
68	187.07463884353638	response	0	2		66.0	2.5	/experiments/knapen_aot/videos/R_S_pexels-artem-podrez-5457692.mp4	0.0	246.5457079410553	
68	187.09043192863464	movie	1		164.0	66.0	2.5	/experiments/knapen_aot/videos/R_S_pexels-artem-podrez-5457692.mp4	0.0	246.56150102615356	2.5083649158477783
68	189.59879684448242	fix_post	2		12.0	66.0	2.5	/experiments/knapen_aot/videos/R_S_pexels-artem-podrez-5457692.mp4	0.0	249.06986594200134	0.10018205642700195
68	189.68322587013245	response	2	2		66.0	2.5	/experiments/knapen_aot/videos/R_S_pexels-artem-podrez-5457692.mp4	0.0	249.15429496765137	
69	189.69897890090942	fix_pre	0		33.0	67.0	2.5	/experiments/knapen_aot/videos/S_yt-3V8US8ZD3NU_229.mp4	0.0	249.17004799842834	0.2748219966888428
69	189.96544289588928	response	0	2		67.0	2.5	/experiments/knapen_aot/videos/S_yt-3V8US8ZD3NU_229.mp4	0.0	249.4365119934082	
69	189.97380089759827	movie	1		301.0	67.0	2.5	/experiments/knapen_aot/videos/S_yt-3V8US8ZD3NU_229.mp4	0.0	249.4448699951172	2.508331060409546
69	192.4821319580078	fix_post	2		12.0	67.0	2.5	/experiments/knapen_aot/videos/S_yt-3V8US8ZD3NU_229.mp4	0.0	251.95320105552673	0.09996485710144043
70	192.58209681510925	fix_pre	0		12.0	68.0	2.5	/experiments/knapen_aot/videos/S_flickr-reginahart-31964450591_23.mp4	0.0	252.05316591262817	0.10001015663146973
70	192.67391300201416	response	0	2		68.0	2.5	/experiments/knapen_aot/videos/S_flickr-reginahart-31964450591_23.mp4	0.0	252.14498209953308	
70	192.68210697174072	movie	1		169.0	68.0	2.5	/experiments/knapen_aot/videos/S_flickr-reginahart-31964450591_23.mp4	0.0	252.15317606925964	2.508420944213867
70	195.1905279159546	fix_post	2		12.0	68.0	2.5	/experiments/knapen_aot/videos/S_flickr-reginahart-31964450591_23.mp4	0.0	254.6615970134735	0.09994196891784668
71	195.29046988487244	fix_pre	0		12.0	69.0	2.5	blank	1.0	254.76153898239136	0.09996294975280762
71	195.38225388526917	response	0	2		69.0	2.5	blank	1.0	254.8533229827881	
71	195.39043283462524	movie	1		301.0	69.0	2.5	blank	1.0	254.86150193214417	2.508258104324341
71	197.89869093894958	fix_post	2		12.0	69.0	2.5	blank	1.0	257.3697600364685	0.1001749038696289
72	197.9988658428192	fix_pre	0		70.0	70.0	2.5	/experiments/knapen_aot/videos/S_yt-4wjGeLyvfjY_223.mp4	0.0	257.46993494033813	0.5831780433654785
72	198.57398080825806	response	0	2		70.0	2.5	/experiments/knapen_aot/videos/S_yt-4wjGeLyvfjY_223.mp4	0.0	258.045049905777	
72	198.5820438861847	movie	1		301.0	70.0	2.5	/experiments/knapen_aot/videos/S_yt-4wjGeLyvfjY_223.mp4	0.0	258.0531129837036	2.508723020553589
72	201.09076690673828	fix_post	2		12.0	70.0	2.5	/experiments/knapen_aot/videos/S_yt-4wjGeLyvfjY_223.mp4	0.0	260.5618360042572	0.0996699333190918
73	201.19043684005737	fix_pre	0		4.0	71.0	2.5	/experiments/knapen_aot/videos/R_S_wc-Mf8SQpviaD6D_17.mp4	0.0	260.6615059375763	0.03328704833984375
73	201.21560883522034	response	0	2		71.0	2.5	/experiments/knapen_aot/videos/R_S_wc-Mf8SQpviaD6D_17.mp4	0.0	260.68667793273926	
73	201.22372388839722	movie	1		169.0	71.0	2.5	/experiments/knapen_aot/videos/R_S_wc-Mf8SQpviaD6D_17.mp4	0.0	260.69479298591614	2.5082719326019287
73	203.73199582099915	fix_post	2		12.0	71.0	2.5	/experiments/knapen_aot/videos/R_S_wc-Mf8SQpviaD6D_17.mp4	0.0	263.20306491851807	0.10019516944885254
74	203.832190990448	fix_pre	0		3.0	72.0	2.5	/experiments/knapen_aot/videos/R_S_pexels-vlada-karpovich-8044792.mp4	0.0	263.3032600879669	0.024849891662597656
74	203.84131598472595	response	0	2		72.0	2.5	/experiments/knapen_aot/videos/R_S_pexels-vlada-karpovich-8044792.mp4	0.0	263.3123850822449	
74	203.8570408821106	movie	1		166.0	72.0	2.5	/experiments/knapen_aot/videos/R_S_pexels-vlada-karpovich-8044792.mp4	0.0	263.3281099796295	2.5088860988616943
74	206.3659269809723	fix_post	2		12.0	72.0	2.5	/experiments/knapen_aot/videos/R_S_pexels-vlada-karpovich-8044792.mp4	0.0	265.8369960784912	0.09942889213562012
75	206.4653558731079	fix_pre	0		14.0	73.0	2.5	/experiments/knapen_aot/videos/R_S_yt-mdxs8FCKLFc_232.mp4	0.0	265.93642497062683	0.11668109893798828
75	206.57376885414124	response	0	2		73.0	2.5	/experiments/knapen_aot/videos/R_S_yt-mdxs8FCKLFc_232.mp4	0.0	266.04483795166016	
75	206.5820369720459	movie	1		301.0	73.0	2.5	/experiments/knapen_aot/videos/R_S_yt-mdxs8FCKLFc_232.mp4	0.0	266.0531060695648	2.508347988128662
75	209.09038496017456	fix_post	2		12.0	73.0	2.5	/experiments/knapen_aot/videos/R_S_yt-mdxs8FCKLFc_232.mp4	0.0	268.5614540576935	0.09997200965881348
76	209.19035696983337	fix_pre	0		14.0	74.0	2.5	/experiments/knapen_aot/videos/S_yt-VrEuTDQxtD0_226.mp4	0.0	268.6614260673523	0.11679387092590332
76	209.29885983467102	response	0	2		74.0	2.5	/experiments/knapen_aot/videos/S_yt-VrEuTDQxtD0_226.mp4	0.0	268.76992893218994	
76	209.30715084075928	movie	1		301.0	74.0	2.5	/experiments/knapen_aot/videos/S_yt-VrEuTDQxtD0_226.mp4	0.0	268.7782199382782	2.5085530281066895
76	211.81570386886597	fix_post	2		12.0	74.0	2.5	/experiments/knapen_aot/videos/S_yt-VrEuTDQxtD0_226.mp4	0.0	271.2867729663849	0.09963107109069824
77	211.91533493995667	fix_pre	0		19.0	75.0	2.5	blank	1.0	271.3864040374756	0.15842509269714355
77	212.05793595314026	response	0	2		75.0	2.5	blank	1.0	271.5290050506592	
77	212.0737600326538	movie	1		301.0	75.0	2.5	blank	1.0	271.54482913017273	2.508176803588867
77	214.58193683624268	fix_post	2		12.0	75.0	2.5	blank	1.0	274.0530059337616	0.100128173828125
78	214.6820650100708	fix_pre	0		19.0	76.0	2.5	/experiments/knapen_aot/videos/S_yt-O4wUEZwHLyI_114.mp4	0.0	274.1531341075897	0.15822196006774902
78	214.8321180343628	response	0	2		76.0	2.5	/experiments/knapen_aot/videos/S_yt-O4wUEZwHLyI_114.mp4	0.0	274.3031871318817	
78	214.84028697013855	movie	1		301.0	76.0	2.5	/experiments/knapen_aot/videos/S_yt-O4wUEZwHLyI_114.mp4	0.0	274.31135606765747	2.5083799362182617
78	217.3486669063568	fix_post	2		12.0	76.0	2.5	/experiments/knapen_aot/videos/S_yt-O4wUEZwHLyI_114.mp4	0.0	276.81973600387573	0.10009002685546875
79	217.44875693321228	fix_pre	0		18.0	77.0	2.5	/experiments/knapen_aot/videos/S_yt-PK-Eip9wFr0_24.mp4	0.0	276.9198260307312	0.1528000831604004
79	217.59044885635376	response	0	2		77.0	2.5	/experiments/knapen_aot/videos/S_yt-PK-Eip9wFr0_24.mp4	0.0	277.0615179538727	
79	217.60155701637268	movie	1		301.0	77.0	2.5	/experiments/knapen_aot/videos/S_yt-PK-Eip9wFr0_24.mp4	0.0	277.0726261138916	2.505523920059204
79	220.10708093643188	fix_post	2		12.0	77.0	2.5	/experiments/knapen_aot/videos/S_yt-PK-Eip9wFr0_24.mp4	0.0	279.5781500339508	0.09992790222167969
80	220.20700883865356	fix_pre	0		16.0	78.0	2.5	/experiments/knapen_aot/videos/R_S_ILSVRC2015_train_00318000.mp4	0.0	279.6780779361725	0.13330817222595215
80	220.33203101158142	response	0	2		78.0	2.5	/experiments/knapen_aot/videos/R_S_ILSVRC2015_train_00318000.mp4	0.0	279.80310010910034	
80	220.34031701087952	movie	1		301.0	78.0	2.5	/experiments/knapen_aot/videos/R_S_ILSVRC2015_train_00318000.mp4	0.0	279.81138610839844	2.5083959102630615
80	222.84871292114258	fix_post	2		12.0	78.0	2.5	/experiments/knapen_aot/videos/R_S_ILSVRC2015_train_00318000.mp4	0.0	282.3197820186615	0.0999910831451416
81	222.94870400428772	fix_pre	0		19.0	79.0	2.5	/experiments/knapen_aot/videos/S_flickr-reginahart-31964450591_23.mp4	0.0	282.41977310180664	0.15820789337158203
81	223.09883189201355	response	0	2		79.0	2.5	/experiments/knapen_aot/videos/S_flickr-reginahart-31964450591_23.mp4	0.0	282.56990098953247	
81	223.1069118976593	movie	1		168.0	79.0	2.5	/experiments/knapen_aot/videos/S_flickr-reginahart-31964450591_23.mp4	0.0	282.5779809951782	2.5084590911865234
81	225.61537098884583	fix_post	2		12.0	79.0	2.5	/experiments/knapen_aot/videos/S_flickr-reginahart-31964450591_23.mp4	0.0	285.08644008636475	0.09993886947631836
82	225.71530985832214	fix_pre	0		6.0	80.0	2.5	/experiments/knapen_aot/videos/S_ILSVRC2015_train_00652001.mp4	0.0	285.18637895584106	0.04989910125732422
82	225.75709581375122	response	0	2		80.0	2.5	/experiments/knapen_aot/videos/S_ILSVRC2015_train_00652001.mp4	0.0	285.22816491127014	
82	225.76520895957947	movie	1		301.0	80.0	2.5	/experiments/knapen_aot/videos/S_ILSVRC2015_train_00652001.mp4	0.0	285.2362780570984	2.508739948272705
82	228.27394890785217	fix_post	2		12.0	80.0	2.5	/experiments/knapen_aot/videos/S_ILSVRC2015_train_00652001.mp4	0.0	287.7450180053711	0.09972095489501953
83	228.3736698627472	fix_pre	0		17.0	81.0	2.5	/experiments/knapen_aot/videos/R_S_video_inspire_oregon_lone-ranch-beach_00001.1080-h264.mp4	0.0	287.8447389602661	0.1416339874267578
83	228.49957489967346	response	0	2		81.0	2.5	/experiments/knapen_aot/videos/R_S_video_inspire_oregon_lone-ranch-beach_00001.1080-h264.mp4	0.0	287.9706439971924	
83	228.51530385017395	movie	1		166.0	81.0	2.5	/experiments/knapen_aot/videos/R_S_video_inspire_oregon_lone-ranch-beach_00001.1080-h264.mp4	0.0	287.98637294769287	2.5083279609680176
83	231.02363181114197	fix_post	2		12.0	81.0	2.5	/experiments/knapen_aot/videos/R_S_video_inspire_oregon_lone-ranch-beach_00001.1080-h264.mp4	0.0	290.4947009086609	0.10003113746643066
84	231.1236629486084	fix_pre	0		12.0	82.0	2.5	blank	1.0	290.5947320461273	0.09994006156921387
84	231.20802998542786	response	0	2		82.0	2.5	blank	1.0	290.6790990829468	
84	231.2236030101776	movie	1		301.0	82.0	2.5	blank	1.0	290.69467210769653	2.5083298683166504
84	233.73193287849426	fix_post	2		12.0	82.0	2.5	blank	1.0	293.2030019760132	0.09998703002929688
85	233.83191990852356	fix_pre	0		21.0	83.0	2.5	/experiments/knapen_aot/videos/S_yt-etF_WUW5D68_3.mp4	0.0	293.3029890060425	0.17510700225830078
85	233.99865889549255	response	0	2		83.0	2.5	/experiments/knapen_aot/videos/S_yt-etF_WUW5D68_3.mp4	0.0	293.4697279930115	
85	234.00702691078186	movie	1		301.0	83.0	2.5	/experiments/knapen_aot/videos/S_yt-etF_WUW5D68_3.mp4	0.0	293.4780960083008	2.5082879066467285
85	236.5153148174286	fix_post	2		12.0	83.0	2.5	/experiments/knapen_aot/videos/S_yt-etF_WUW5D68_3.mp4	0.0	295.9863839149475	0.0999441146850586
87	236.61525893211365	stim	0		53.0					296.08632802963257	0.44439697265625
87	236.64037084579468	response	0	2						296.1114399433136	
87	237.05391883850098	response	0	space						296.5249879360199	
