trial_nr	onset	event_type	phase	response	nr_frames	movie_index	movie_duration	movie_file	blank	onset_abs	duration
0	0.1319108009338379	stim	0		59.0					124.4397177696228	0.490070104598999
0	0.6139168739318848	response	0	space						124.92172384262085	
1	0.6219809055328369	stim	0		121.0					124.9297878742218	1.008120059967041
1	1.0138838291168213	response	0	space						125.32169079780579	
1	1.2801978588104248	response	0	space						125.58800482749939	
1	1.630100965499878	stim	1		120.0					125.93790793418884	0.9999380111694336
1	1.6309750080108643	response	1	space						125.93878197669983	
1	1.9884679317474365	response	1	space						126.2962749004364	
1	2.605179786682129	response	1	space						126.9129867553711	
2	2.6300389766693115	fix_pre	0		39.0	0.0	2.5	/experiments/knapen_aot/videos/R_S_yt-JtR6WZXT2kU_8.mp4	0.0	126.93784594535828	0.32496094703674316
2	2.9468469619750977	response	0	space		0.0	2.5	/experiments/knapen_aot/videos/R_S_yt-JtR6WZXT2kU_8.mp4	0.0	127.25465393066406	
2	2.9549999237060547	movie	1		301.0	0.0	2.5	/experiments/knapen_aot/videos/R_S_yt-JtR6WZXT2kU_8.mp4	0.0	127.26280689239502	2.5084168910980225
2	5.463416814804077	fix_post	2		12.0	0.0	2.5	/experiments/knapen_aot/videos/R_S_yt-JtR6WZXT2kU_8.mp4	0.0	129.77122378349304	0.10001301765441895
3	5.563429832458496	fix_pre	0		4.0	1.0	2.5	/experiments/knapen_aot/videos/R_S_yt-xNKgc8sFYvU_35.mp4	0.0	129.87123680114746	0.03338217735290527
3	5.588895797729492	response	0	2		1.0	2.5	/experiments/knapen_aot/videos/R_S_yt-xNKgc8sFYvU_35.mp4	0.0	129.89670276641846	
3	5.596812009811401	movie	1		301.0	1.0	2.5	/experiments/knapen_aot/videos/R_S_yt-xNKgc8sFYvU_35.mp4	0.0	129.90461897850037	2.508295774459839
3	8.10510778427124	fix_post	2		12.0	1.0	2.5	/experiments/knapen_aot/videos/R_S_yt-xNKgc8sFYvU_35.mp4	0.0	132.4129147529602	0.10000205039978027
4	8.20510983467102	fix_pre	0		4.0	2.0	2.5	/experiments/knapen_aot/videos/S_yt-gmiyqQDGN78_7.mp4	0.0	132.51291680335999	0.0333101749420166
4	8.230203866958618	response	0	2		2.0	2.5	/experiments/knapen_aot/videos/S_yt-gmiyqQDGN78_7.mp4	0.0	132.53801083564758	
4	8.238420009613037	movie	1		301.0	2.0	2.5	/experiments/knapen_aot/videos/S_yt-gmiyqQDGN78_7.mp4	0.0	132.546226978302	2.5082528591156006
4	10.746672868728638	fix_post	2		12.0	2.0	2.5	/experiments/knapen_aot/videos/S_yt-gmiyqQDGN78_7.mp4	0.0	135.0544798374176	0.1000370979309082
5	10.846709966659546	fix_pre	0		3.0	3.0	2.5	/experiments/knapen_aot/videos/R_S_ILSVRC2015_train_00155004.mp4	0.0	135.1545169353485	0.02499103546142578
5	10.863500833511353	response	0	2		3.0	2.5	/experiments/knapen_aot/videos/R_S_ILSVRC2015_train_00155004.mp4	0.0	135.17130780220032	
5	10.871701002120972	movie	1		301.0	3.0	2.5	/experiments/knapen_aot/videos/R_S_ILSVRC2015_train_00155004.mp4	0.0	135.17950797080994	2.508328914642334
5	13.380029916763306	fix_post	2		12.0	3.0	2.5	/experiments/knapen_aot/videos/R_S_ILSVRC2015_train_00155004.mp4	0.0	137.68783688545227	0.10021686553955078
6	13.480246782302856	fix_pre	0		1.0	4.0	2.5	/experiments/knapen_aot/videos/R_S_yt-2SVpSaBAxsw_78.mp4	0.0	137.78805375099182	0.008046150207519531
6	13.481828927993774	response	0	2		4.0	2.5	/experiments/knapen_aot/videos/R_S_yt-2SVpSaBAxsw_78.mp4	0.0	137.78963589668274	
6	13.488292932510376	movie	1		301.0	4.0	2.5	/experiments/knapen_aot/videos/R_S_yt-2SVpSaBAxsw_78.mp4	0.0	137.79609990119934	2.5084118843078613
6	15.996704816818237	fix_post	2		12.0	4.0	2.5	/experiments/knapen_aot/videos/R_S_yt-2SVpSaBAxsw_78.mp4	0.0	140.3045117855072	0.10005617141723633
7	16.096760988235474	fix_pre	0		19.0	5.0	2.5	blank	1.0	140.40456795692444	0.15819597244262695
7	16.246843814849854	response	0	2		5.0	2.5	blank	1.0	140.55465078353882	
7	16.2549569606781	movie	1		301.0	5.0	2.5	blank	1.0	140.56276392936707	2.508358955383301
7	18.7633159160614	fix_post	2		12.0	5.0	2.5	blank	1.0	143.07112288475037	0.10019898414611816
8	18.86351490020752	fix_pre	0		24.0	6.0	2.5	/experiments/knapen_aot/videos/S_yt-KQq7vTlXUiQ_173.mp4	0.0	143.17132186889648	0.1997981071472168
8	19.04758596420288	response	0	2		6.0	2.5	/experiments/knapen_aot/videos/S_yt-KQq7vTlXUiQ_173.mp4	0.0	143.35539293289185	
8	19.063313007354736	movie	1		301.0	6.0	2.5	/experiments/knapen_aot/videos/S_yt-KQq7vTlXUiQ_173.mp4	0.0	143.3711199760437	2.508384943008423
8	21.57169795036316	fix_post	2		12.0	6.0	2.5	/experiments/knapen_aot/videos/S_yt-KQq7vTlXUiQ_173.mp4	0.0	145.87950491905212	0.10001087188720703
9	21.671708822250366	fix_pre	0		25.0	7.0	2.5	/experiments/knapen_aot/videos/R_S_ILSVRC2015_train_00434000.mp4	0.0	145.97951579093933	0.20830202102661133
9	21.871848821640015	response	0	2		7.0	2.5	/experiments/knapen_aot/videos/R_S_ILSVRC2015_train_00434000.mp4	0.0	146.17965579032898	
9	21.880010843276978	movie	1		301.0	7.0	2.5	/experiments/knapen_aot/videos/R_S_ILSVRC2015_train_00434000.mp4	0.0	146.18781781196594	2.5083250999450684
9	24.388335943222046	fix_post	2		12.0	7.0	2.5	/experiments/knapen_aot/videos/R_S_ILSVRC2015_train_00434000.mp4	0.0	148.696142911911	0.09999895095825195
9	24.480084896087646	response	2	2		7.0	2.5	/experiments/knapen_aot/videos/R_S_ILSVRC2015_train_00434000.mp4	0.0	148.7878918647766	
10	24.488334894180298	fix_pre	0		41.0	8.0	2.5	/experiments/knapen_aot/videos/S_yt-s5YONFy3vb4_46.mp4	0.0	148.79614186286926	0.34163403511047363
10	24.821744918823242	response	0	2		8.0	2.5	/experiments/knapen_aot/videos/S_yt-s5YONFy3vb4_46.mp4	0.0	149.1295518875122	
10	24.82996892929077	movie	1		301.0	8.0	2.5	/experiments/knapen_aot/videos/S_yt-s5YONFy3vb4_46.mp4	0.0	149.13777589797974	2.5083680152893066
10	27.124456882476807	response	1	2		8.0	2.5	/experiments/knapen_aot/videos/S_yt-s5YONFy3vb4_46.mp4	0.0	151.43226385116577	
10	27.31340193748474	response	1	2		8.0	2.5	/experiments/knapen_aot/videos/S_yt-s5YONFy3vb4_46.mp4	0.0	151.6212089061737	
10	27.338336944580078	fix_post	2		12.0	8.0	2.5	/experiments/knapen_aot/videos/S_yt-s5YONFy3vb4_46.mp4	0.0	151.64614391326904	0.10001492500305176
11	27.43835186958313	fix_pre	0		11.0	9.0	2.5	/experiments/knapen_aot/videos/R_S_wc-PsidKmkEV7Km_14.mp4	0.0	151.7461588382721	0.09164714813232422
11	27.521723985671997	response	0	2		9.0	2.5	/experiments/knapen_aot/videos/R_S_wc-PsidKmkEV7Km_14.mp4	0.0	151.82953095436096	
11	27.529999017715454	movie	1		167.0	9.0	2.5	/experiments/knapen_aot/videos/R_S_wc-PsidKmkEV7Km_14.mp4	0.0	151.83780598640442	2.5083799362182617
11	30.038378953933716	fix_post	2		12.0	9.0	2.5	/experiments/knapen_aot/videos/R_S_wc-PsidKmkEV7Km_14.mp4	0.0	154.34618592262268	0.09994888305664062
12	30.138327836990356	fix_pre	0		8.0	10.0	2.5	/experiments/knapen_aot/videos/R_S_flickr-clarkstonscamp-4863427159_1.mp4	0.0	154.44613480567932	0.06659317016601562
12	30.196736812591553	response	0	2		10.0	2.5	/experiments/knapen_aot/videos/R_S_flickr-clarkstonscamp-4863427159_1.mp4	0.0	154.50454378128052	
12	30.204921007156372	movie	1		301.0	10.0	2.5	/experiments/knapen_aot/videos/R_S_flickr-clarkstonscamp-4863427159_1.mp4	0.0	154.51272797584534	2.50839900970459
12	32.71332001686096	fix_post	2		12.0	10.0	2.5	/experiments/knapen_aot/videos/R_S_flickr-clarkstonscamp-4863427159_1.mp4	0.0	157.02112698554993	0.0999598503112793
13	32.81327986717224	fix_pre	0		4.0	11.0	2.5	/experiments/knapen_aot/videos/S_production_ID_4101307.mp4	0.0	157.1210868358612	0.03335714340209961
13	32.83846998214722	response	0	2		11.0	2.5	/experiments/knapen_aot/videos/S_production_ID_4101307.mp4	0.0	157.14627695083618	
13	32.84663701057434	movie	1		196.0	11.0	2.5	/experiments/knapen_aot/videos/S_production_ID_4101307.mp4	0.0	157.1544439792633	2.50837779045105
13	35.35501480102539	fix_post	2		12.0	11.0	2.5	/experiments/knapen_aot/videos/S_production_ID_4101307.mp4	0.0	159.66282176971436	0.09994816780090332
14	35.454962968826294	fix_pre	0		33.0	12.0	2.5	/experiments/knapen_aot/videos/S_ILSVRC2015_train_00538001.mp4	0.0	159.76276993751526	0.27495694160461426
14	35.72174882888794	response	0	2		12.0	2.5	/experiments/knapen_aot/videos/S_ILSVRC2015_train_00538001.mp4	0.0	160.0295557975769	
14	35.72991991043091	movie	1		301.0	12.0	2.5	/experiments/knapen_aot/videos/S_ILSVRC2015_train_00538001.mp4	0.0	160.03772687911987	2.508358955383301
14	38.23827886581421	fix_post	2		12.0	12.0	2.5	/experiments/knapen_aot/videos/S_ILSVRC2015_train_00538001.mp4	0.0	162.54608583450317	0.09996199607849121
15	38.3382408618927	fix_pre	0		76.0	13.0	2.5	blank	1.0	162.64604783058167	0.633263111114502
15	38.963346004486084	response	0	2		13.0	2.5	blank	1.0	163.27115297317505	
15	38.9715039730072	movie	1		301.0	13.0	2.5	blank	1.0	163.27931094169617	2.50862193107605
15	41.48012590408325	fix_post	2		12.0	13.0	2.5	blank	1.0	165.78793287277222	0.09979605674743652
16	41.57992196083069	fix_pre	0		27.0	14.0	2.5	/experiments/knapen_aot/videos/R_S_yt-bH4nJibL4Jo_164.mp4	0.0	165.88772892951965	0.22497987747192383
16	41.796631813049316	response	0	2		14.0	2.5	/experiments/knapen_aot/videos/R_S_yt-bH4nJibL4Jo_164.mp4	0.0	166.10443878173828	
16	41.80490183830261	movie	1		301.0	14.0	2.5	/experiments/knapen_aot/videos/R_S_yt-bH4nJibL4Jo_164.mp4	0.0	166.11270880699158	2.508345127105713
16	44.313246965408325	fix_post	2		12.0	14.0	2.5	/experiments/knapen_aot/videos/R_S_yt-bH4nJibL4Jo_164.mp4	0.0	168.6210539340973	0.10000991821289062
17	44.413256883621216	fix_pre	0		13.0	15.0	2.5	/experiments/knapen_aot/videos/R_S_yt-GaJaxp546lc_22.mp4	0.0	168.72106385231018	0.10828399658203125
17	44.51334095001221	response	0	2		15.0	2.5	/experiments/knapen_aot/videos/R_S_yt-GaJaxp546lc_22.mp4	0.0	168.82114791870117	
17	44.52154088020325	movie	1		301.0	15.0	2.5	/experiments/knapen_aot/videos/R_S_yt-GaJaxp546lc_22.mp4	0.0	168.8293478488922	2.508354902267456
17	47.0298957824707	fix_post	2		12.0	15.0	2.5	/experiments/knapen_aot/videos/R_S_yt-GaJaxp546lc_22.mp4	0.0	171.33770275115967	0.09994721412658691
17	47.07998085021973	response	2	2		15.0	2.5	/experiments/knapen_aot/videos/R_S_yt-GaJaxp546lc_22.mp4	0.0	171.3877878189087	
18	47.12984299659729	fix_pre	0		33.0	16.0	2.5	/experiments/knapen_aot/videos/S_yt-tEzCpMrjOHs_24.mp4	0.0	171.43764996528625	0.27501893043518066
18	47.39671778678894	response	0	2		16.0	2.5	/experiments/knapen_aot/videos/S_yt-tEzCpMrjOHs_24.mp4	0.0	171.7045247554779	
18	47.40486192703247	movie	1		301.0	16.0	2.5	/experiments/knapen_aot/videos/S_yt-tEzCpMrjOHs_24.mp4	0.0	171.71266889572144	2.508272886276245
18	49.913134813308716	fix_post	2		12.0	16.0	2.5	/experiments/knapen_aot/videos/S_yt-tEzCpMrjOHs_24.mp4	0.0	174.22094178199768	0.10008406639099121
18	49.95502281188965	response	2	2		16.0	2.5	/experiments/knapen_aot/videos/S_yt-tEzCpMrjOHs_24.mp4	0.0	174.2628297805786	
19	50.01321887969971	fix_pre	0		23.0	17.0	2.5	/experiments/knapen_aot/videos/R_S_Y004_C015_SDR_2K_AVC.mp4	0.0	174.32102584838867	0.19156908988952637
19	50.19664001464844	response	0	2		17.0	2.5	/experiments/knapen_aot/videos/R_S_Y004_C015_SDR_2K_AVC.mp4	0.0	174.5044469833374	
19	50.20478796958923	movie	1		168.0	17.0	2.5	/experiments/knapen_aot/videos/R_S_Y004_C015_SDR_2K_AVC.mp4	0.0	174.5125949382782	2.5084168910980225
19	52.713204860687256	fix_post	2		12.0	17.0	2.5	/experiments/knapen_aot/videos/R_S_Y004_C015_SDR_2K_AVC.mp4	0.0	177.02101182937622	0.09999513626098633
20	52.81319999694824	fix_pre	0		12.0	18.0	2.5	/experiments/knapen_aot/videos/R_S_comp_L004_C011_PS_v01_SDR_PS_20180925_SDR_2K_AVC.mp4	0.0	177.1210069656372	0.0999598503112793
20	52.904889822006226	response	0	2		18.0	2.5	/experiments/knapen_aot/videos/R_S_comp_L004_C011_PS_v01_SDR_PS_20180925_SDR_2K_AVC.mp4	0.0	177.2126967906952	
20	52.91315984725952	movie	1		168.0	18.0	2.5	/experiments/knapen_aot/videos/R_S_comp_L004_C011_PS_v01_SDR_PS_20180925_SDR_2K_AVC.mp4	0.0	177.2209668159485	2.5084259510040283
20	55.42158579826355	fix_post	2		12.0	18.0	2.5	/experiments/knapen_aot/videos/R_S_comp_L004_C011_PS_v01_SDR_PS_20180925_SDR_2K_AVC.mp4	0.0	179.72939276695251	0.10002613067626953
20	55.47996497154236	response	2	2		18.0	2.5	/experiments/knapen_aot/videos/R_S_comp_L004_C011_PS_v01_SDR_PS_20180925_SDR_2K_AVC.mp4	0.0	179.78777194023132	
21	55.52161192893982	fix_pre	0		36.0	19.0	2.5	/experiments/knapen_aot/videos/R_S_yt-CEQnXB0LxQU_278.mp4	0.0	179.82941889762878	0.29982495307922363
21	55.81323289871216	response	0	2		19.0	2.5	/experiments/knapen_aot/videos/R_S_yt-CEQnXB0LxQU_278.mp4	0.0	180.12103986740112	
21	55.82143688201904	movie	1		301.0	19.0	2.5	/experiments/knapen_aot/videos/R_S_yt-CEQnXB0LxQU_278.mp4	0.0	180.129243850708	2.5084829330444336
21	58.02995586395264	response	1	2		19.0	2.5	/experiments/knapen_aot/videos/R_S_yt-CEQnXB0LxQU_278.mp4	0.0	182.3377628326416	
21	58.19092679023743	response	1	2		19.0	2.5	/experiments/knapen_aot/videos/R_S_yt-CEQnXB0LxQU_278.mp4	0.0	182.4987337589264	
21	58.32991981506348	fix_post	2		12.0	19.0	2.5	/experiments/knapen_aot/videos/R_S_yt-CEQnXB0LxQU_278.mp4	0.0	182.63772678375244	0.09989118576049805
21	58.388269901275635	response	2	2		19.0	2.5	/experiments/knapen_aot/videos/R_S_yt-CEQnXB0LxQU_278.mp4	0.0	182.6960768699646	
22	58.429811000823975	fix_pre	0		50.0	20.0	2.5	/experiments/knapen_aot/videos/S_ILSVRC2015_train_00434000.mp4	0.0	182.73761796951294	0.4166719913482666
22	58.8382568359375	response	0	2		20.0	2.5	/experiments/knapen_aot/videos/S_ILSVRC2015_train_00434000.mp4	0.0	183.14606380462646	
22	58.84648299217224	movie	1		301.0	20.0	2.5	/experiments/knapen_aot/videos/S_ILSVRC2015_train_00434000.mp4	0.0	183.1542899608612	2.5083417892456055
22	61.20504093170166	response	1	2		20.0	2.5	/experiments/knapen_aot/videos/S_ILSVRC2015_train_00434000.mp4	0.0	185.51284790039062	
22	61.35482478141785	fix_post	2		12.0	20.0	2.5	/experiments/knapen_aot/videos/S_ILSVRC2015_train_00434000.mp4	0.0	185.6626317501068	0.100006103515625
22	61.37153482437134	response	2	2		20.0	2.5	/experiments/knapen_aot/videos/S_ILSVRC2015_train_00434000.mp4	0.0	185.6793417930603	
23	61.45483088493347	fix_pre	0		30.0	21.0	2.5	blank	1.0	185.76263785362244	0.2499680519104004
23	61.69669485092163	response	0	2		21.0	2.5	blank	1.0	186.0045018196106	
23	61.70479893684387	movie	1		301.0	21.0	2.5	blank	1.0	186.01260590553284	2.5083060264587402
23	64.21310496330261	fix_post	2		12.0	21.0	2.5	blank	1.0	188.52091193199158	0.1000208854675293
24	64.31312584877014	fix_pre	0		12.0	22.0	2.5	/experiments/knapen_aot/videos/R_S_yt--DXkjCUzThU_413.mp4	0.0	188.6209328174591	0.10000014305114746
24	64.40487384796143	response	0	2		22.0	2.5	/experiments/knapen_aot/videos/R_S_yt--DXkjCUzThU_413.mp4	0.0	188.7126808166504	
24	64.41312599182129	movie	1		301.0	22.0	2.5	/experiments/knapen_aot/videos/R_S_yt--DXkjCUzThU_413.mp4	0.0	188.72093296051025	2.5084128379821777
24	66.25608992576599	response	1	2		22.0	2.5	/experiments/knapen_aot/videos/R_S_yt--DXkjCUzThU_413.mp4	0.0	190.56389689445496	
24	66.54765200614929	response	1	2		22.0	2.5	/experiments/knapen_aot/videos/R_S_yt--DXkjCUzThU_413.mp4	0.0	190.85545897483826	
24	66.92153882980347	fix_post	2		12.0	22.0	2.5	/experiments/knapen_aot/videos/R_S_yt--DXkjCUzThU_413.mp4	0.0	191.22934579849243	0.09994006156921387
25	67.02147889137268	fix_pre	0		1.0	23.0	2.5	/experiments/knapen_aot/videos/S_yt-eVAlSjH8E8k_127.mp4	0.0	191.32928586006165	0.00831294059753418
25	67.02308893203735	response	0	2		23.0	2.5	/experiments/knapen_aot/videos/S_yt-eVAlSjH8E8k_127.mp4	0.0	191.33089590072632	
25	67.02979183197021	movie	1		301.0	23.0	2.5	/experiments/knapen_aot/videos/S_yt-eVAlSjH8E8k_127.mp4	0.0	191.33759880065918	2.5083160400390625
25	68.9382598400116	response	1	2		23.0	2.5	/experiments/knapen_aot/videos/S_yt-eVAlSjH8E8k_127.mp4	0.0	193.24606680870056	
25	69.16321587562561	response	1	2		23.0	2.5	/experiments/knapen_aot/videos/S_yt-eVAlSjH8E8k_127.mp4	0.0	193.47102284431458	
25	69.37408995628357	response	1	2		23.0	2.5	/experiments/knapen_aot/videos/S_yt-eVAlSjH8E8k_127.mp4	0.0	193.68189692497253	
25	69.53810787200928	fix_post	2		12.0	23.0	2.5	/experiments/knapen_aot/videos/S_yt-eVAlSjH8E8k_127.mp4	0.0	193.84591484069824	0.09996700286865234
25	69.57162594795227	response	2	2		23.0	2.5	/experiments/knapen_aot/videos/S_yt-eVAlSjH8E8k_127.mp4	0.0	193.87943291664124	
26	69.63807487487793	fix_pre	0		13.0	24.0	2.5	/experiments/knapen_aot/videos/S_yt-aSEKRE_FNaI_62.mp4	0.0	193.9458818435669	0.10827493667602539
26	69.73812484741211	response	0	2		24.0	2.5	/experiments/knapen_aot/videos/S_yt-aSEKRE_FNaI_62.mp4	0.0	194.04593181610107	
26	69.74634981155396	movie	1		301.0	24.0	2.5	/experiments/knapen_aot/videos/S_yt-aSEKRE_FNaI_62.mp4	0.0	194.05415678024292	2.5084381103515625
26	72.25478792190552	fix_post	2		12.0	24.0	2.5	/experiments/knapen_aot/videos/S_yt-aSEKRE_FNaI_62.mp4	0.0	196.56259489059448	0.10004496574401855
27	72.35483288764954	fix_pre	0		20.0	25.0	2.5	/experiments/knapen_aot/videos/R_S_yt-GfPep7IhZIU_47.mp4	0.0	196.6626398563385	0.1665349006652832
27	72.51311087608337	response	0	2		25.0	2.5	/experiments/knapen_aot/videos/R_S_yt-GfPep7IhZIU_47.mp4	0.0	196.82091784477234	
27	72.52136778831482	movie	1		301.0	25.0	2.5	/experiments/knapen_aot/videos/R_S_yt-GfPep7IhZIU_47.mp4	0.0	196.82917475700378	2.50835919380188
27	75.0297269821167	fix_post	2		12.0	25.0	2.5	/experiments/knapen_aot/videos/R_S_yt-GfPep7IhZIU_47.mp4	0.0	199.33753395080566	0.1000969409942627
28	75.12982392311096	fix_pre	0		13.0	26.0	2.5	blank	1.0	199.43763089179993	0.10825991630554199
28	75.22988486289978	response	0	2		26.0	2.5	blank	1.0	199.53769183158875	
28	75.2380838394165	movie	1		301.0	26.0	2.5	blank	1.0	199.54589080810547	2.5083611011505127
28	77.74644494056702	fix_post	2		12.0	26.0	2.5	blank	1.0	202.05425190925598	0.09998488426208496
29	77.8464298248291	fix_pre	0		12.0	27.0	2.5	/experiments/knapen_aot/videos/R_S_yt-CR86bVrRwfo_13.mp4	0.0	202.15423679351807	0.09991097450256348
29	77.9381639957428	response	0	2		27.0	2.5	/experiments/knapen_aot/videos/R_S_yt-CR86bVrRwfo_13.mp4	0.0	202.24597096443176	
29	77.94634079933167	movie	1		301.0	27.0	2.5	/experiments/knapen_aot/videos/R_S_yt-CR86bVrRwfo_13.mp4	0.0	202.25414776802063	2.5084621906280518
29	80.45480298995972	fix_post	2		12.0	27.0	2.5	/experiments/knapen_aot/videos/R_S_yt-CR86bVrRwfo_13.mp4	0.0	204.76260995864868	0.0998690128326416
29	80.54653978347778	response	2	2		27.0	2.5	/experiments/knapen_aot/videos/R_S_yt-CR86bVrRwfo_13.mp4	0.0	204.85434675216675	
30	80.55467200279236	fix_pre	0		71.0	28.0	2.5	/experiments/knapen_aot/videos/R_S_pexels-kampus-production-6022792.mp4	0.0	204.86247897148132	0.5917088985443115
30	81.13810086250305	response	0	2		28.0	2.5	/experiments/knapen_aot/videos/R_S_pexels-kampus-production-6022792.mp4	0.0	205.44590783119202	
30	81.14638090133667	movie	1		165.0	28.0	2.5	/experiments/knapen_aot/videos/R_S_pexels-kampus-production-6022792.mp4	0.0	205.45418787002563	2.5083470344543457
30	83.65472793579102	fix_post	2		12.0	28.0	2.5	/experiments/knapen_aot/videos/R_S_pexels-kampus-production-6022792.mp4	0.0	207.96253490447998	0.1000368595123291
31	83.75476479530334	fix_pre	0		1.0	29.0	2.5	/experiments/knapen_aot/videos/R_S_yt-iKe-0YNR5Eo_164.mp4	0.0	208.0625717639923	0.008262157440185547
31	83.75648498535156	response	0	2		29.0	2.5	/experiments/knapen_aot/videos/R_S_yt-iKe-0YNR5Eo_164.mp4	0.0	208.06429195404053	
31	83.76302695274353	movie	1		301.0	29.0	2.5	/experiments/knapen_aot/videos/R_S_yt-iKe-0YNR5Eo_164.mp4	0.0	208.0708339214325	2.50838303565979
31	84.19650197029114	response	1	2		29.0	2.5	/experiments/knapen_aot/videos/R_S_yt-iKe-0YNR5Eo_164.mp4	0.0	208.5043089389801	
31	86.27140998840332	fix_post	2		12.0	29.0	2.5	/experiments/knapen_aot/videos/R_S_yt-iKe-0YNR5Eo_164.mp4	0.0	210.57921695709229	0.0999917984008789
32	86.3714017868042	fix_pre	0		20.0	30.0	2.5	/experiments/knapen_aot/videos/R_S_yt-4wjGeLyvfjY_223.mp4	0.0	210.67920875549316	0.16658520698547363
32	86.52982187271118	response	0	2		30.0	2.5	/experiments/knapen_aot/videos/R_S_yt-4wjGeLyvfjY_223.mp4	0.0	210.83762884140015	
32	86.53798699378967	movie	1		301.0	30.0	2.5	/experiments/knapen_aot/videos/R_S_yt-4wjGeLyvfjY_223.mp4	0.0	210.84579396247864	2.5083699226379395
32	89.04635691642761	fix_post	2		12.0	30.0	2.5	/experiments/knapen_aot/videos/R_S_yt-4wjGeLyvfjY_223.mp4	0.0	213.35416388511658	0.09994792938232422
33	89.14630484580994	fix_pre	0		10.0	31.0	2.5	/experiments/knapen_aot/videos/R_S_production_ID_4510883.mp4	0.0	213.4541118144989	0.0833430290222168
33	89.2214879989624	response	0	2		31.0	2.5	/experiments/knapen_aot/videos/R_S_production_ID_4510883.mp4	0.0	213.52929496765137	
33	89.22964787483215	movie	1		165.0	31.0	2.5	/experiments/knapen_aot/videos/R_S_production_ID_4510883.mp4	0.0	213.53745484352112	2.508436918258667
33	91.73808479309082	fix_post	2		12.0	31.0	2.5	/experiments/knapen_aot/videos/R_S_production_ID_4510883.mp4	0.0	216.04589176177979	0.09995698928833008
34	91.83804178237915	fix_pre	0		14.0	32.0	2.5	/experiments/knapen_aot/videos/R_S_yt-gmiyqQDGN78_7.mp4	0.0	216.14584875106812	0.11652421951293945
34	91.94650387763977	response	0	2		32.0	2.5	/experiments/knapen_aot/videos/R_S_yt-gmiyqQDGN78_7.mp4	0.0	216.25431084632874	
34	91.95456600189209	movie	1		301.0	32.0	2.5	/experiments/knapen_aot/videos/R_S_yt-gmiyqQDGN78_7.mp4	0.0	216.26237297058105	2.50862979888916
34	94.46319580078125	fix_post	2		12.0	32.0	2.5	/experiments/knapen_aot/videos/R_S_yt-gmiyqQDGN78_7.mp4	0.0	218.77100276947021	0.09983706474304199
35	94.56303286552429	fix_pre	0		13.0	33.0	2.5	/experiments/knapen_aot/videos/R_S_yt-x7TqP8l4lCA_39.mp4	0.0	218.87083983421326	0.10933399200439453
35	94.66305184364319	response	0	2		33.0	2.5	/experiments/knapen_aot/videos/R_S_yt-x7TqP8l4lCA_39.mp4	0.0	218.97085881233215	
35	94.67236685752869	movie	1		301.0	33.0	2.5	/experiments/knapen_aot/videos/R_S_yt-x7TqP8l4lCA_39.mp4	0.0	218.98017382621765	2.5072691440582275
35	97.17963600158691	fix_post	2		12.0	33.0	2.5	/experiments/knapen_aot/videos/R_S_yt-x7TqP8l4lCA_39.mp4	0.0	221.48744297027588	0.10003185272216797
36	97.27966785430908	fix_pre	0		24.0	34.0	2.5	/experiments/knapen_aot/videos/S_wc-PsidKmkEV7Km_14.mp4	0.0	221.58747482299805	0.19991493225097656
36	97.47145986557007	response	0	2		34.0	2.5	/experiments/knapen_aot/videos/S_wc-PsidKmkEV7Km_14.mp4	0.0	221.77926683425903	
36	97.47958278656006	movie	1		164.0	34.0	2.5	/experiments/knapen_aot/videos/S_wc-PsidKmkEV7Km_14.mp4	0.0	221.78738975524902	2.5084550380706787
36	99.98803782463074	fix_post	2		12.0	34.0	2.5	/experiments/knapen_aot/videos/S_wc-PsidKmkEV7Km_14.mp4	0.0	224.2958447933197	0.09998297691345215
37	100.08802080154419	fix_pre	0		31.0	35.0	2.5	blank	1.0	224.39582777023315	0.2583281993865967
37	100.338143825531	response	0	2		35.0	2.5	blank	1.0	224.64595079421997	
37	100.34634900093079	movie	1		301.0	35.0	2.5	blank	1.0	224.65415596961975	2.508305788040161
37	102.85465478897095	fix_post	2		12.0	35.0	2.5	blank	1.0	227.1624617576599	0.10005402565002441
38	102.95470881462097	fix_pre	0		34.0	36.0	2.5	/experiments/knapen_aot/videos/R_S_yt-0buqUbXVTn8_48.mp4	0.0	227.26251578330994	0.2832670211791992
38	103.22974991798401	response	0	2		36.0	2.5	/experiments/knapen_aot/videos/R_S_yt-0buqUbXVTn8_48.mp4	0.0	227.53755688667297	
38	103.23797583580017	movie	1		301.0	36.0	2.5	/experiments/knapen_aot/videos/R_S_yt-0buqUbXVTn8_48.mp4	0.0	227.54578280448914	2.5083889961242676
38	105.74636483192444	fix_post	2		12.0	36.0	2.5	/experiments/knapen_aot/videos/R_S_yt-0buqUbXVTn8_48.mp4	0.0	230.0541718006134	0.099945068359375
39	105.84630990028381	fix_pre	0		23.0	37.0	2.5	/experiments/knapen_aot/videos/R_S_yt-SjPYdaUBi7A_37.mp4	0.0	230.15411686897278	0.19165992736816406
39	106.02976489067078	response	0	2		37.0	2.5	/experiments/knapen_aot/videos/R_S_yt-SjPYdaUBi7A_37.mp4	0.0	230.33757185935974	
39	106.03796982765198	movie	1		301.0	37.0	2.5	/experiments/knapen_aot/videos/R_S_yt-SjPYdaUBi7A_37.mp4	0.0	230.34577679634094	2.508305072784424
39	108.5462749004364	fix_post	2		12.0	37.0	2.5	/experiments/knapen_aot/videos/R_S_yt-SjPYdaUBi7A_37.mp4	0.0	232.85408186912537	0.09998893737792969
40	108.64626383781433	fix_pre	0		5.0	38.0	2.5	/experiments/knapen_aot/videos/R_S_yt-aiWUhl8MCto_71.mp4	0.0	232.9540708065033	0.04166007041931152
40	108.67970085144043	response	0	2		38.0	2.5	/experiments/knapen_aot/videos/R_S_yt-aiWUhl8MCto_71.mp4	0.0	232.9875078201294	
40	108.68792390823364	movie	1		301.0	38.0	2.5	/experiments/knapen_aot/videos/R_S_yt-aiWUhl8MCto_71.mp4	0.0	232.9957308769226	2.5084640979766846
40	111.19638800621033	fix_post	2		12.0	38.0	2.5	/experiments/knapen_aot/videos/R_S_yt-aiWUhl8MCto_71.mp4	0.0	235.5041949748993	0.09991693496704102
41	111.29630494117737	fix_pre	0		18.0	39.0	2.5	/experiments/knapen_aot/videos/R_S_ILSVRC2015_train_00405001.mp4	0.0	235.60411190986633	0.14987993240356445
41	111.43803691864014	response	0	2		39.0	2.5	/experiments/knapen_aot/videos/R_S_ILSVRC2015_train_00405001.mp4	0.0	235.7458438873291	
41	111.44618487358093	movie	1		301.0	39.0	2.5	/experiments/knapen_aot/videos/R_S_ILSVRC2015_train_00405001.mp4	0.0	235.7539918422699	2.5083811283111572
41	113.95456600189209	fix_post	2		12.0	39.0	2.5	/experiments/knapen_aot/videos/R_S_ILSVRC2015_train_00405001.mp4	0.0	238.26237297058105	0.10002994537353516
42	114.05459594726562	fix_pre	0		76.0	40.0	2.5	/experiments/knapen_aot/videos/S_yt-nYi_FfCjepk_74.mp4	0.0	238.3624029159546	0.633296012878418
42	114.67970490455627	response	0	2		40.0	2.5	/experiments/knapen_aot/videos/S_yt-nYi_FfCjepk_74.mp4	0.0	238.98751187324524	
42	114.68789196014404	movie	1		301.0	40.0	2.5	/experiments/knapen_aot/videos/S_yt-nYi_FfCjepk_74.mp4	0.0	238.995698928833	2.5083370208740234
42	117.19622898101807	fix_post	2		12.0	40.0	2.5	/experiments/knapen_aot/videos/S_yt-nYi_FfCjepk_74.mp4	0.0	241.50403594970703	0.09998083114624023
43	117.2962098121643	fix_pre	0		12.0	41.0	2.5	blank	1.0	241.60401678085327	0.09995818138122559
43	117.38803696632385	response	0	2		41.0	2.5	blank	1.0	241.69584393501282	
43	117.39616799354553	movie	1		301.0	41.0	2.5	blank	1.0	241.7039749622345	2.5083699226379395
43	119.90453791618347	fix_post	2		12.0	41.0	2.5	blank	1.0	244.21234488487244	0.10000991821289062
44	120.00454783439636	fix_pre	0		13.0	42.0	2.5	/experiments/knapen_aot/videos/S_yt-GWO7FHN1Jb4_142.mp4	0.0	244.31235480308533	0.1083230972290039
44	120.10463190078735	response	0	2		42.0	2.5	/experiments/knapen_aot/videos/S_yt-GWO7FHN1Jb4_142.mp4	0.0	244.41243886947632	
44	120.11287093162537	movie	1		301.0	42.0	2.5	/experiments/knapen_aot/videos/S_yt-GWO7FHN1Jb4_142.mp4	0.0	244.42067790031433	2.5083348751068115
44	122.62120580673218	fix_post	2		12.0	42.0	2.5	/experiments/knapen_aot/videos/S_yt-GWO7FHN1Jb4_142.mp4	0.0	246.92901277542114	0.10003900527954102
44	122.69640493392944	response	2	2		42.0	2.5	/experiments/knapen_aot/videos/S_yt-GWO7FHN1Jb4_142.mp4	0.0	247.0042119026184	
45	122.72124481201172	fix_pre	0		43.0	43.0	2.5	/experiments/knapen_aot/videos/S_ILSVRC2015_train_00463000.mp4	0.0	247.02905178070068	0.35826802253723145
45	123.07131695747375	response	0	2		43.0	2.5	/experiments/knapen_aot/videos/S_ILSVRC2015_train_00463000.mp4	0.0	247.37912392616272	
45	123.07951283454895	movie	1		301.0	43.0	2.5	/experiments/knapen_aot/videos/S_ILSVRC2015_train_00463000.mp4	0.0	247.38731980323792	2.508352041244507
45	125.58786487579346	fix_post	2		12.0	43.0	2.5	/experiments/knapen_aot/videos/S_ILSVRC2015_train_00463000.mp4	0.0	249.89567184448242	0.09999704360961914
46	125.68786191940308	fix_pre	0		12.0	44.0	2.5	/experiments/knapen_aot/videos/R_S_yt-SjPYdaUBi7A_37.mp4	0.0	249.99566888809204	0.09996604919433594
46	125.77960181236267	response	0	2		44.0	2.5	/experiments/knapen_aot/videos/R_S_yt-SjPYdaUBi7A_37.mp4	0.0	250.08740878105164	
46	125.78782796859741	movie	1		301.0	44.0	2.5	/experiments/knapen_aot/videos/R_S_yt-SjPYdaUBi7A_37.mp4	0.0	250.09563493728638	2.50846791267395
46	128.29629588127136	fix_post	2		12.0	44.0	2.5	/experiments/knapen_aot/videos/R_S_yt-SjPYdaUBi7A_37.mp4	0.0	252.60410284996033	0.10005807876586914
47	128.39635396003723	fix_pre	0		15.0	45.0	2.5	/experiments/knapen_aot/videos/S_yt-AuQ_WxaNy4Y_255.mp4	0.0	252.7041609287262	0.12479996681213379
47	128.51298689842224	response	0	2		45.0	2.5	/experiments/knapen_aot/videos/S_yt-AuQ_WxaNy4Y_255.mp4	0.0	252.8207938671112	
47	128.52115392684937	movie	1		301.0	45.0	2.5	/experiments/knapen_aot/videos/S_yt-AuQ_WxaNy4Y_255.mp4	0.0	252.82896089553833	2.5085818767547607
47	131.02973580360413	fix_post	2		12.0	45.0	2.5	/experiments/knapen_aot/videos/S_yt-AuQ_WxaNy4Y_255.mp4	0.0	255.3375427722931	0.09975218772888184
48	131.129487991333	fix_pre	0		40.0	46.0	2.5	/experiments/knapen_aot/videos/S_yt-ibDaDIEazxg_3.mp4	0.0	255.43729496002197	0.3340878486633301
48	131.45456099510193	response	0	2		46.0	2.5	/experiments/knapen_aot/videos/S_yt-ibDaDIEazxg_3.mp4	0.0	255.7623679637909	
48	131.46357583999634	movie	1		301.0	46.0	2.5	/experiments/knapen_aot/videos/S_yt-ibDaDIEazxg_3.mp4	0.0	255.7713828086853	2.507707118988037
48	133.97128295898438	fix_post	2		12.0	46.0	2.5	/experiments/knapen_aot/videos/S_yt-ibDaDIEazxg_3.mp4	0.0	258.27908992767334	0.09995388984680176
49	134.07123684883118	fix_pre	0		12.0	47.0	2.5	/experiments/knapen_aot/videos/R_S_production_ID_4122384.mp4	0.0	258.37904381752014	0.10069704055786133
49	134.16295099258423	response	0	2		47.0	2.5	/experiments/knapen_aot/videos/R_S_production_ID_4122384.mp4	0.0	258.4707579612732	
49	134.17193388938904	movie	1		165.0	47.0	2.5	/experiments/knapen_aot/videos/R_S_production_ID_4122384.mp4	0.0	258.479740858078	2.5075550079345703
49	136.6794888973236	fix_post	2		12.0	47.0	2.5	/experiments/knapen_aot/videos/R_S_production_ID_4122384.mp4	0.0	260.9872958660126	0.10001206398010254
50	136.7795009613037	fix_pre	0		13.0	48.0	2.5	/experiments/knapen_aot/videos/S_yt-JQOHHL30Y54_101.mp4	0.0	261.0873079299927	0.10830402374267578
50	136.8796157836914	response	0	2		48.0	2.5	/experiments/knapen_aot/videos/S_yt-JQOHHL30Y54_101.mp4	0.0	261.18742275238037	
50	136.8878049850464	movie	1		301.0	48.0	2.5	/experiments/knapen_aot/videos/S_yt-JQOHHL30Y54_101.mp4	0.0	261.19561195373535	2.5083818435668945
50	139.39618682861328	fix_post	2		12.0	48.0	2.5	/experiments/knapen_aot/videos/S_yt-JQOHHL30Y54_101.mp4	0.0	263.70399379730225	0.09993815422058105
51	139.49612498283386	fix_pre	0		35.0	49.0	2.5	blank	1.0	263.8039319515228	0.2916829586029053
51	139.77952694892883	response	0	2		49.0	2.5	blank	1.0	264.0873339176178	
51	139.78780794143677	movie	1		301.0	49.0	2.5	blank	1.0	264.09561491012573	2.5082550048828125
51	142.29606294631958	fix_post	2		12.0	49.0	2.5	blank	1.0	266.60386991500854	0.1000509262084961
52	142.39611387252808	fix_pre	0		29.0	50.0	2.5	/experiments/knapen_aot/videos/R_S_yt-eVAlSjH8E8k_127.mp4	0.0	266.70392084121704	0.24164295196533203
52	142.6295988559723	response	0	2		50.0	2.5	/experiments/knapen_aot/videos/R_S_yt-eVAlSjH8E8k_127.mp4	0.0	266.93740582466125	
52	142.6377568244934	movie	1		301.0	50.0	2.5	/experiments/knapen_aot/videos/R_S_yt-eVAlSjH8E8k_127.mp4	0.0	266.9455637931824	2.50833797454834
52	144.99832487106323	response	1	2		50.0	2.5	/experiments/knapen_aot/videos/R_S_yt-eVAlSjH8E8k_127.mp4	0.0	269.3061318397522	
52	145.14609479904175	fix_post	2		12.0	50.0	2.5	/experiments/knapen_aot/videos/R_S_yt-eVAlSjH8E8k_127.mp4	0.0	269.4539017677307	0.10003399848937988
53	145.24612879753113	fix_pre	0		13.0	51.0	2.5	/experiments/knapen_aot/videos/R_S_yt-nMWqezngycw_10.mp4	0.0	269.5539357662201	0.10827803611755371
53	145.33869695663452	response	0	2		51.0	2.5	/experiments/knapen_aot/videos/R_S_yt-nMWqezngycw_10.mp4	0.0	269.6465039253235	
53	145.35440683364868	movie	1		301.0	51.0	2.5	/experiments/knapen_aot/videos/R_S_yt-nMWqezngycw_10.mp4	0.0	269.66221380233765	2.5083720684051514
53	147.86277890205383	fix_post	2		12.0	51.0	2.5	/experiments/knapen_aot/videos/R_S_yt-nMWqezngycw_10.mp4	0.0	272.1705858707428	0.09998106956481934
54	147.96275997161865	fix_pre	0		18.0	52.0	2.5	/experiments/knapen_aot/videos/S_yt--I4Ggi6-QOE_23.mp4	0.0	272.2705669403076	0.1499009132385254
54	148.10455989837646	response	0	2		52.0	2.5	/experiments/knapen_aot/videos/S_yt--I4Ggi6-QOE_23.mp4	0.0	272.41236686706543	
54	148.11266088485718	movie	1		301.0	52.0	2.5	/experiments/knapen_aot/videos/S_yt--I4Ggi6-QOE_23.mp4	0.0	272.42046785354614	2.5084331035614014
54	150.62109398841858	fix_post	2		12.0	52.0	2.5	/experiments/knapen_aot/videos/S_yt--I4Ggi6-QOE_23.mp4	0.0	274.92890095710754	0.10008692741394043
55	150.72118091583252	fix_pre	0		761.0	53.0	2.5	/experiments/knapen_aot/videos/S_video_inspire_oregon_lone-ranch-beach_00001.1080-h264.mp4	0.0	275.0289878845215	6.341517925262451
55	157.05448698997498	response	0	2		53.0	2.5	/experiments/knapen_aot/videos/S_video_inspire_oregon_lone-ranch-beach_00001.1080-h264.mp4	0.0	281.36229395866394	
55	157.06269884109497	movie	1		164.0	53.0	2.5	/experiments/knapen_aot/videos/S_video_inspire_oregon_lone-ranch-beach_00001.1080-h264.mp4	0.0	281.37050580978394	2.508484125137329
55	159.5711829662323	fix_post	2		12.0	53.0	2.5	/experiments/knapen_aot/videos/S_video_inspire_oregon_lone-ranch-beach_00001.1080-h264.mp4	0.0	283.87898993492126	0.09987998008728027
56	159.67106294631958	fix_pre	0		14.0	54.0	2.5	blank	1.0	283.97886991500854	0.1166388988494873
56	159.7794759273529	response	0	2		54.0	2.5	blank	1.0	284.08728289604187	
56	159.78770184516907	movie	1		301.0	54.0	2.5	blank	1.0	284.09550881385803	2.508404016494751
56	162.29610586166382	fix_post	2		12.0	54.0	2.5	blank	1.0	286.6039128303528	0.0999300479888916
57	162.3960359096527	fix_pre	0		17.0	55.0	2.5	/experiments/knapen_aot/videos/S_yt-nMWqezngycw_10.mp4	0.0	286.7038428783417	0.14154291152954102
57	162.52950286865234	response	0	2		55.0	2.5	/experiments/knapen_aot/videos/S_yt-nMWqezngycw_10.mp4	0.0	286.8373098373413	
57	162.53757882118225	movie	1		301.0	55.0	2.5	/experiments/knapen_aot/videos/S_yt-nMWqezngycw_10.mp4	0.0	286.8453857898712	2.5090861320495605
57	165.0466649532318	fix_post	2		12.0	55.0	2.5	/experiments/knapen_aot/videos/S_yt-nMWqezngycw_10.mp4	0.0	289.3544719219208	0.09939002990722656
58	165.14605498313904	fix_pre	0		3.0	56.0	2.5	/experiments/knapen_aot/videos/R_S_yt-nE8YJOhW4e4_171.mp4	0.0	289.453861951828	0.02569580078125
58	165.1627550125122	response	0	2		56.0	2.5	/experiments/knapen_aot/videos/R_S_yt-nE8YJOhW4e4_171.mp4	0.0	289.4705619812012	
58	165.1717507839203	movie	1		301.0	56.0	2.5	/experiments/knapen_aot/videos/R_S_yt-nE8YJOhW4e4_171.mp4	0.0	289.47955775260925	2.507606029510498
58	167.6793568134308	fix_post	2		12.0	56.0	2.5	/experiments/knapen_aot/videos/R_S_yt-nE8YJOhW4e4_171.mp4	0.0	291.98716378211975	0.09998416900634766
59	167.77934098243713	fix_pre	0		14.0	57.0	2.5	/experiments/knapen_aot/videos/S_yt-bH4nJibL4Jo_164.mp4	0.0	292.0871479511261	0.11662602424621582
59	167.88781189918518	response	0	2		57.0	2.5	/experiments/knapen_aot/videos/S_yt-bH4nJibL4Jo_164.mp4	0.0	292.19561886787415	
59	167.89596700668335	movie	1		301.0	57.0	2.5	/experiments/knapen_aot/videos/S_yt-bH4nJibL4Jo_164.mp4	0.0	292.2037739753723	2.508349895477295
59	170.40431690216064	fix_post	2		12.0	57.0	2.5	/experiments/knapen_aot/videos/S_yt-bH4nJibL4Jo_164.mp4	0.0	294.7121238708496	0.09998798370361328
60	170.50430488586426	fix_pre	0		7.0	58.0	2.5	/experiments/knapen_aot/videos/R_S_g201_TH_803_A001_8_SDR_20191031_SDR_2K_AVC.mp4	0.0	294.8121118545532	0.05825996398925781
60	170.55442881584167	response	0	2		58.0	2.5	/experiments/knapen_aot/videos/R_S_g201_TH_803_A001_8_SDR_20191031_SDR_2K_AVC.mp4	0.0	294.86223578453064	
60	170.56256484985352	movie	1		166.0	58.0	2.5	/experiments/knapen_aot/videos/R_S_g201_TH_803_A001_8_SDR_20191031_SDR_2K_AVC.mp4	0.0	294.8703718185425	2.5084569454193115
60	173.07102179527283	fix_post	2		12.0	58.0	2.5	/experiments/knapen_aot/videos/R_S_g201_TH_803_A001_8_SDR_20191031_SDR_2K_AVC.mp4	0.0	297.3788287639618	0.10052800178527832
61	173.1715497970581	fix_pre	0		1.0	59.0	2.5	/experiments/knapen_aot/videos/S_yt-CR86bVrRwfo_13.mp4	0.0	297.47935676574707	0.007791042327880859
61	173.16456484794617	response	0	2		59.0	2.5	/experiments/knapen_aot/videos/S_yt-CR86bVrRwfo_13.mp4	0.0	297.47237181663513	
61	173.179340839386	movie	1		301.0	59.0	2.5	/experiments/knapen_aot/videos/S_yt-CR86bVrRwfo_13.mp4	0.0	297.48714780807495	2.508402109146118
61	175.6877429485321	fix_post	2		12.0	59.0	2.5	/experiments/knapen_aot/videos/S_yt-CR86bVrRwfo_13.mp4	0.0	299.99554991722107	0.10007786750793457
62	175.78782081604004	fix_pre	0		17.0	60.0	2.5	/experiments/knapen_aot/videos/S_yt-OdTWn1U1mO4_68.mp4	0.0	300.095627784729	0.14150714874267578
62	175.92109084129333	response	0	2		60.0	2.5	/experiments/knapen_aot/videos/S_yt-OdTWn1U1mO4_68.mp4	0.0	300.2288978099823	
62	175.92932796478271	movie	1		301.0	60.0	2.5	/experiments/knapen_aot/videos/S_yt-OdTWn1U1mO4_68.mp4	0.0	300.2371349334717	2.5083088874816895
62	178.4376368522644	fix_post	2		12.0	60.0	2.5	/experiments/knapen_aot/videos/S_yt-OdTWn1U1mO4_68.mp4	0.0	302.74544382095337	0.09997105598449707
63	178.5376079082489	fix_pre	0		107.0	61.0	2.5	/experiments/knapen_aot/videos/S_yt-Dwgpjoikt84_122.mp4	0.0	302.84541487693787	0.8917009830474854
63	179.42106294631958	response	0	2		61.0	2.5	/experiments/knapen_aot/videos/S_yt-Dwgpjoikt84_122.mp4	0.0	303.72886991500854	
63	179.4293088912964	movie	1		301.0	61.0	2.5	/experiments/knapen_aot/videos/S_yt-Dwgpjoikt84_122.mp4	0.0	303.73711585998535	2.5087249279022217
63	181.9380338191986	fix_post	2		12.0	61.0	2.5	/experiments/knapen_aot/videos/S_yt-Dwgpjoikt84_122.mp4	0.0	306.2458407878876	0.0995781421661377
64	182.03761196136475	fix_pre	0		19.0	62.0	2.5	/experiments/knapen_aot/videos/S_comp_GL_G002_C002_PSNK_v03_SDR_PS_20180925_SDR_2K_AVC.mp4	0.0	306.3454189300537	0.15834283828735352
64	182.1877088546753	response	0	2		62.0	2.5	/experiments/knapen_aot/videos/S_comp_GL_G002_C002_PSNK_v03_SDR_PS_20180925_SDR_2K_AVC.mp4	0.0	306.49551582336426	
64	182.1959547996521	movie	1		166.0	62.0	2.5	/experiments/knapen_aot/videos/S_comp_GL_G002_C002_PSNK_v03_SDR_PS_20180925_SDR_2K_AVC.mp4	0.0	306.50376176834106	2.5083491802215576
64	184.70430397987366	fix_post	2		12.0	62.0	2.5	/experiments/knapen_aot/videos/S_comp_GL_G002_C002_PSNK_v03_SDR_PS_20180925_SDR_2K_AVC.mp4	0.0	309.0121109485626	0.09995889663696289
65	184.80426287651062	fix_pre	0		20.0	63.0	2.5	blank	1.0	309.1120698451996	0.16663813591003418
65	184.9551978111267	response	0	2		63.0	2.5	blank	1.0	309.2630047798157	
65	184.97090101242065	movie	1		301.0	63.0	2.5	blank	1.0	309.2787079811096	2.508283853530884
65	187.47918486595154	fix_post	2		12.0	63.0	2.5	blank	1.0	311.7869918346405	0.10004305839538574
66	187.57922792434692	fix_pre	0		37.0	64.0	2.5	/experiments/knapen_aot/videos/R_S_yt-JQOHHL30Y54_101.mp4	0.0	311.8870348930359	0.30833888053894043
66	187.8793168067932	response	0	2		64.0	2.5	/experiments/knapen_aot/videos/R_S_yt-JQOHHL30Y54_101.mp4	0.0	312.1871237754822	
66	187.88756680488586	movie	1		301.0	64.0	2.5	/experiments/knapen_aot/videos/R_S_yt-JQOHHL30Y54_101.mp4	0.0	312.19537377357483	2.508362054824829
66	190.3959288597107	fix_post	2		12.0	64.0	2.5	/experiments/knapen_aot/videos/R_S_yt-JQOHHL30Y54_101.mp4	0.0	314.70373582839966	0.09997010231018066
67	190.49589896202087	fix_pre	0		7.0	65.0	2.5	/experiments/knapen_aot/videos/R_S_yt-zam74qlzGtQ_122.mp4	0.0	314.80370593070984	0.05825686454772949
67	190.54605984687805	response	0	2		65.0	2.5	/experiments/knapen_aot/videos/R_S_yt-zam74qlzGtQ_122.mp4	0.0	314.853866815567	
67	190.5541558265686	movie	1		301.0	65.0	2.5	/experiments/knapen_aot/videos/R_S_yt-zam74qlzGtQ_122.mp4	0.0	314.86196279525757	2.5083401203155518
67	193.06249594688416	fix_post	2		12.0	65.0	2.5	/experiments/knapen_aot/videos/R_S_yt-zam74qlzGtQ_122.mp4	0.0	317.3703029155731	0.1000509262084961
68	193.16254687309265	fix_pre	0		8.0	66.0	2.5	/experiments/knapen_aot/videos/R_S_yt-wz2opOBqClo_14.mp4	0.0	317.4703538417816	0.0666351318359375
68	193.22097492218018	response	0	2		66.0	2.5	/experiments/knapen_aot/videos/R_S_yt-wz2opOBqClo_14.mp4	0.0	317.52878189086914	
68	193.2291820049286	movie	1		301.0	66.0	2.5	/experiments/knapen_aot/videos/R_S_yt-wz2opOBqClo_14.mp4	0.0	317.53698897361755	2.508431911468506
68	195.7376139163971	fix_post	2		12.0	66.0	2.5	/experiments/knapen_aot/videos/R_S_yt-wz2opOBqClo_14.mp4	0.0	320.04542088508606	0.09996891021728516
69	195.83758282661438	fix_pre	0		19.0	67.0	2.5	/experiments/knapen_aot/videos/S_yt-2kPrGwVmRfE_169.mp4	0.0	320.14538979530334	0.1583549976348877
69	195.9878489971161	response	0	2		67.0	2.5	/experiments/knapen_aot/videos/S_yt-2kPrGwVmRfE_169.mp4	0.0	320.29565596580505	
69	195.99593782424927	movie	1		301.0	67.0	2.5	/experiments/knapen_aot/videos/S_yt-2kPrGwVmRfE_169.mp4	0.0	320.30374479293823	2.508296012878418
69	198.50423383712769	fix_post	2		12.0	67.0	2.5	/experiments/knapen_aot/videos/S_yt-2kPrGwVmRfE_169.mp4	0.0	322.81204080581665	0.10000896453857422
70	198.60424280166626	fix_pre	0		36.0	68.0	2.5	blank	1.0	322.9120497703552	0.30005812644958496
70	198.89605593681335	response	0	2		68.0	2.5	blank	1.0	323.2038629055023	
70	198.90430092811584	movie	1		301.0	68.0	2.5	blank	1.0	323.2121078968048	2.508331060409546
70	201.4126319885254	fix_post	2		12.0	68.0	2.5	blank	1.0	325.72043895721436	0.09992599487304688
71	201.51255798339844	fix_pre	0		19.0	69.0	2.5	/experiments/knapen_aot/videos/R_S_G009_C014_UHD_SDR_2K_AVC.mp4	0.0	325.8203649520874	0.1586778163909912
71	201.66264581680298	response	0	2		69.0	2.5	/experiments/knapen_aot/videos/R_S_G009_C014_UHD_SDR_2K_AVC.mp4	0.0	325.97045278549194	
71	201.67123579978943	movie	1		179.0	69.0	2.5	/experiments/knapen_aot/videos/R_S_G009_C014_UHD_SDR_2K_AVC.mp4	0.0	325.9790427684784	2.508437156677246
71	204.17967295646667	fix_post	2		12.0	69.0	2.5	/experiments/knapen_aot/videos/R_S_G009_C014_UHD_SDR_2K_AVC.mp4	0.0	328.48747992515564	0.09957003593444824
72	204.27924299240112	fix_pre	0		6.0	70.0	2.5	/experiments/knapen_aot/videos/S_Y004_C015_SDR_2K_AVC.mp4	0.0	328.5870499610901	0.0498960018157959
72	204.32097792625427	response	0	2		70.0	2.5	/experiments/knapen_aot/videos/S_Y004_C015_SDR_2K_AVC.mp4	0.0	328.62878489494324	
72	204.32913899421692	movie	1		168.0	70.0	2.5	/experiments/knapen_aot/videos/S_Y004_C015_SDR_2K_AVC.mp4	0.0	328.6369459629059	2.5083889961242676
72	206.8375279903412	fix_post	2		12.0	70.0	2.5	/experiments/knapen_aot/videos/S_Y004_C015_SDR_2K_AVC.mp4	0.0	331.14533495903015	0.09989595413208008
72	206.90430879592896	response	2	2		70.0	2.5	/experiments/knapen_aot/videos/S_Y004_C015_SDR_2K_AVC.mp4	0.0	331.2121157646179	
73	206.93742394447327	fix_pre	0		34.0	71.0	2.5	/experiments/knapen_aot/videos/S_yt-CEQnXB0LxQU_278.mp4	0.0	331.24523091316223	0.2833678722381592
73	207.21244382858276	response	0	2		71.0	2.5	/experiments/knapen_aot/videos/S_yt-CEQnXB0LxQU_278.mp4	0.0	331.52025079727173	
73	207.22079181671143	movie	1		301.0	71.0	2.5	/experiments/knapen_aot/videos/S_yt-CEQnXB0LxQU_278.mp4	0.0	331.5285987854004	2.508500099182129
73	209.72929191589355	fix_post	2		12.0	71.0	2.5	/experiments/knapen_aot/videos/S_yt-CEQnXB0LxQU_278.mp4	0.0	334.0370988845825	0.0999460220336914
74	209.82923793792725	fix_pre	0		13.0	72.0	2.5	/experiments/knapen_aot/videos/S_yt-3E02UEHdoZ4_752.mp4	0.0	334.1370449066162	0.10834407806396484
74	209.9293568134308	response	0	2		72.0	2.5	/experiments/knapen_aot/videos/S_yt-3E02UEHdoZ4_752.mp4	0.0	334.23716378211975	
74	209.9375820159912	movie	1		301.0	72.0	2.5	/experiments/knapen_aot/videos/S_yt-3E02UEHdoZ4_752.mp4	0.0	334.2453889846802	2.5082499980926514
74	212.44583201408386	fix_post	2		12.0	72.0	2.5	/experiments/knapen_aot/videos/S_yt-3E02UEHdoZ4_752.mp4	0.0	336.7536389827728	0.10017180442810059
75	212.54600381851196	fix_pre	0		25.0	73.0	2.5	/experiments/knapen_aot/videos/R_S_yt-4BAsE47kJNk_88.mp4	0.0	336.8538107872009	0.20844006538391113
75	212.74589800834656	response	0	2		73.0	2.5	/experiments/knapen_aot/videos/R_S_yt-4BAsE47kJNk_88.mp4	0.0	337.0537049770355	
75	212.75444388389587	movie	1		301.0	73.0	2.5	/experiments/knapen_aot/videos/R_S_yt-4BAsE47kJNk_88.mp4	0.0	337.06225085258484	2.508357048034668
75	215.26280093193054	fix_post	2		12.0	73.0	2.5	/experiments/knapen_aot/videos/R_S_yt-4BAsE47kJNk_88.mp4	0.0	339.5706079006195	0.09960293769836426
75	215.32102394104004	response	2	2		73.0	2.5	/experiments/knapen_aot/videos/R_S_yt-4BAsE47kJNk_88.mp4	0.0	339.628830909729	
76	215.3624038696289	fix_pre	0		32.0	74.0	2.5	/experiments/knapen_aot/videos/R_S_yt-LdHRVIb4nIE_6.mp4	0.0	339.67021083831787	0.267117977142334
76	215.61332988739014	response	0	2		74.0	2.5	/experiments/knapen_aot/videos/R_S_yt-LdHRVIb4nIE_6.mp4	0.0	339.9211368560791	
76	215.62952184677124	movie	1		301.0	74.0	2.5	/experiments/knapen_aot/videos/R_S_yt-LdHRVIb4nIE_6.mp4	0.0	339.9373288154602	2.5083091259002686
76	218.1378309726715	fix_post	2		12.0	74.0	2.5	/experiments/knapen_aot/videos/R_S_yt-LdHRVIb4nIE_6.mp4	0.0	342.4456379413605	0.09956192970275879
77	218.23739290237427	fix_pre	0		19.0	75.0	2.5	blank	1.0	342.54519987106323	0.15839505195617676
77	218.38752484321594	response	0	2		75.0	2.5	blank	1.0	342.6953318119049	
77	218.39578795433044	movie	1		301.0	75.0	2.5	blank	1.0	342.7035949230194	2.5083048343658447
77	220.9040927886963	fix_post	2		12.0	75.0	2.5	blank	1.0	345.21189975738525	0.10001111030578613
78	221.00410389900208	fix_pre	0		16.0	76.0	2.5	/experiments/knapen_aot/videos/S_yt-GaJaxp546lc_22.mp4	0.0	345.31191086769104	0.1333310604095459
78	221.12919187545776	response	0	2		76.0	2.5	/experiments/knapen_aot/videos/S_yt-GaJaxp546lc_22.mp4	0.0	345.43699884414673	
78	221.13743495941162	movie	1		301.0	76.0	2.5	/experiments/knapen_aot/videos/S_yt-GaJaxp546lc_22.mp4	0.0	345.4452419281006	2.5082778930664062
78	223.64571285247803	fix_post	2		12.0	76.0	2.5	/experiments/knapen_aot/videos/S_yt-GaJaxp546lc_22.mp4	0.0	347.953519821167	0.10017800331115723
79	223.74589085578918	fix_pre	0		17.0	77.0	2.5	/experiments/knapen_aot/videos/R_S_comp_LA_A008_C004_ALTB_ED_FROM_FLAME_RETIME_v46_SDR_PS_20180917_SDR_2K_AVC.mp4	0.0	348.05369782447815	0.14147114753723145
79	223.87925100326538	response	0	2		77.0	2.5	/experiments/knapen_aot/videos/R_S_comp_LA_A008_C004_ALTB_ED_FROM_FLAME_RETIME_v46_SDR_PS_20180917_SDR_2K_AVC.mp4	0.0	348.18705797195435	
79	223.88736200332642	movie	1		172.0	77.0	2.5	/experiments/knapen_aot/videos/R_S_comp_LA_A008_C004_ALTB_ED_FROM_FLAME_RETIME_v46_SDR_PS_20180917_SDR_2K_AVC.mp4	0.0	348.1951689720154	2.5083799362182617
79	226.39574193954468	fix_post	2		12.0	77.0	2.5	/experiments/knapen_aot/videos/R_S_comp_LA_A008_C004_ALTB_ED_FROM_FLAME_RETIME_v46_SDR_PS_20180917_SDR_2K_AVC.mp4	0.0	350.70354890823364	0.10006093978881836
80	226.4958028793335	fix_pre	0		5.0	78.0	2.5	/experiments/knapen_aot/videos/S_yt-osdlC1buTaM_4.mp4	0.0	350.80360984802246	0.04163813591003418
80	226.52924990653992	response	0	2		78.0	2.5	/experiments/knapen_aot/videos/S_yt-osdlC1buTaM_4.mp4	0.0	350.8370568752289	
80	226.53744101524353	movie	1		301.0	78.0	2.5	/experiments/knapen_aot/videos/S_yt-osdlC1buTaM_4.mp4	0.0	350.8452479839325	2.508370876312256
80	229.0458118915558	fix_post	2		12.0	78.0	2.5	/experiments/knapen_aot/videos/S_yt-osdlC1buTaM_4.mp4	0.0	353.35361886024475	0.09996509552001953
81	229.1457769870758	fix_pre	0		12.0	79.0	2.5	/experiments/knapen_aot/videos/S_yt-fymgyhmYnMI_557.mp4	0.0	353.45358395576477	0.09992694854736328
81	229.23746490478516	response	0	2		79.0	2.5	/experiments/knapen_aot/videos/S_yt-fymgyhmYnMI_557.mp4	0.0	353.5452718734741	
81	229.24570393562317	movie	1		301.0	79.0	2.5	/experiments/knapen_aot/videos/S_yt-fymgyhmYnMI_557.mp4	0.0	353.55351090431213	2.508363962173462
81	231.75406789779663	fix_post	2		12.0	79.0	2.5	/experiments/knapen_aot/videos/S_yt-fymgyhmYnMI_557.mp4	0.0	356.0618748664856	0.10008406639099121
82	231.85415196418762	fix_pre	0		25.0	80.0	2.5	/experiments/knapen_aot/videos/R_S_comp_N013_C004_PS_v01_SDR_PS_20180925_F1970F7193_SDR_2K_AVC.mp4	0.0	356.1619589328766	0.20817184448242188
82	232.05437588691711	response	0	2		80.0	2.5	/experiments/knapen_aot/videos/R_S_comp_N013_C004_PS_v01_SDR_PS_20180925_F1970F7193_SDR_2K_AVC.mp4	0.0	356.3621828556061	
82	232.06232380867004	movie	1		166.0	80.0	2.5	/experiments/knapen_aot/videos/R_S_comp_N013_C004_PS_v01_SDR_PS_20180925_F1970F7193_SDR_2K_AVC.mp4	0.0	356.370130777359	2.5084052085876465
82	234.5707290172577	fix_post	2		12.0	80.0	2.5	/experiments/knapen_aot/videos/R_S_comp_N013_C004_PS_v01_SDR_PS_20180925_F1970F7193_SDR_2K_AVC.mp4	0.0	358.87853598594666	0.10030198097229004
83	234.67103099822998	fix_pre	0		5.0	81.0	2.5	/experiments/knapen_aot/videos/S_yt-4wjGeLyvfjY_223.mp4	0.0	358.97883796691895	0.04155302047729492
83	234.6968219280243	response	0	2		81.0	2.5	/experiments/knapen_aot/videos/S_yt-4wjGeLyvfjY_223.mp4	0.0	359.00462889671326	
83	234.71258401870728	movie	1		301.0	81.0	2.5	/experiments/knapen_aot/videos/S_yt-4wjGeLyvfjY_223.mp4	0.0	359.02039098739624	2.508237838745117
83	237.2208218574524	fix_post	2		12.0	81.0	2.5	/experiments/knapen_aot/videos/S_yt-4wjGeLyvfjY_223.mp4	0.0	361.52862882614136	0.09991002082824707
84	237.32073187828064	fix_pre	0		40.0	82.0	2.5	/experiments/knapen_aot/videos/R_S_yt-fymgyhmYnMI_76.mp4	0.0	361.6285388469696	0.3332481384277344
84	237.64578294754028	response	0	2		82.0	2.5	/experiments/knapen_aot/videos/R_S_yt-fymgyhmYnMI_76.mp4	0.0	361.95358991622925	
84	237.65398001670837	movie	1		301.0	82.0	2.5	/experiments/knapen_aot/videos/R_S_yt-fymgyhmYnMI_76.mp4	0.0	361.96178698539734	2.5084328651428223
84	240.1624128818512	fix_post	2		12.0	82.0	2.5	/experiments/knapen_aot/videos/R_S_yt-fymgyhmYnMI_76.mp4	0.0	364.47021985054016	0.09996891021728516
85	240.26238179206848	fix_pre	0		20.0	83.0	2.5	blank	1.0	364.57018876075745	0.1665511131286621
85	240.42080998420715	response	0	2		83.0	2.5	blank	1.0	364.7286169528961	
85	240.42893290519714	movie	1		301.0	83.0	2.5	blank	1.0	364.7367398738861	2.50846004486084
85	242.93739295005798	fix_post	2		12.0	83.0	2.5	blank	1.0	367.24519991874695	0.09993696212768555
87	243.03732991218567	stim	0		209.0					367.34513688087463	1.7446379661560059
87	243.18743181228638	response	0	2						367.49523878097534	
87	244.7751739025116	response	0	space						369.08298087120056	
