trial_nr	onset	event_type	phase	response	nr_frames	movie_index	movie_duration	movie_file	blank	onset_abs	duration
0	0.15322113037109375	stim	0		11.0					63.91427803039551	0.08999490737915039
0	0.22623014450073242	response	0	space						63.98728704452515	
1	0.24321603775024414	stim	0		121.0					64.00427293777466	1.0062761306762695
1	1.2494921684265137	stim	1		120.0					65.01054906845093	0.9999759197235107
1	1.4580700397491455	response	1	space						65.21912693977356	
1	1.9412391185760498	response	1	space						65.70229601860046	
2	2.2494680881500244	fix_pre	0		34.0	0.0	2.5	/experiments/knapen_aot/videos/S_9smWynsk6sI_158.mp4	0.0	66.01052498817444	0.28333497047424316
2	2.5245871543884277	response	0	space		0.0	2.5	/experiments/knapen_aot/videos/S_9smWynsk6sI_158.mp4	0.0	66.28564405441284	
2	2.5328030586242676	movie	1		300.0	0.0	2.5	/experiments/knapen_aot/videos/S_9smWynsk6sI_158.mp4	0.0	66.29385995864868	2.508389949798584
2	5.041193008422852	fix_post	2		12.0	0.0	2.5	/experiments/knapen_aot/videos/S_9smWynsk6sI_158.mp4	0.0	68.80224990844727	0.1000070571899414
3	5.141200065612793	fix_pre	0		10.0	1.0	2.5	/experiments/knapen_aot/videos/R_S_yt-3TF_RGo9cLs_541.mp4	0.0	68.9022569656372	0.08782696723937988
3	5.221079111099243	response	0	2		1.0	2.5	/experiments/knapen_aot/videos/R_S_yt-3TF_RGo9cLs_541.mp4	0.0	68.98213601112366	
3	5.229027032852173	movie	1		290.0	1.0	2.5	/experiments/knapen_aot/videos/R_S_yt-3TF_RGo9cLs_541.mp4	0.0	68.99008393287659	2.5036630630493164
3	7.732690095901489	fix_post	2		12.0	1.0	2.5	/experiments/knapen_aot/videos/R_S_yt-3TF_RGo9cLs_541.mp4	0.0	71.4937469959259	0.10050010681152344
4	7.833190202713013	fix_pre	0		7.0	2.0	2.5	/experiments/knapen_aot/videos/R_S_video_inspire_uk_london_hampstead-heath_003.1080-h264.mp4	0.0	71.59424710273743	0.05792498588562012
4	7.882951974868774	response	0	2		2.0	2.5	/experiments/knapen_aot/videos/R_S_video_inspire_uk_london_hampstead-heath_003.1080-h264.mp4	0.0	71.64400887489319	
4	7.891115188598633	movie	1		171.0	2.0	2.5	/experiments/knapen_aot/videos/R_S_video_inspire_uk_london_hampstead-heath_003.1080-h264.mp4	0.0	71.65217208862305	2.508327007293701
4	10.399442195892334	fix_post	2		12.0	2.0	2.5	/experiments/knapen_aot/videos/R_S_video_inspire_uk_london_hampstead-heath_003.1080-h264.mp4	0.0	74.16049909591675	0.10043692588806152
4	10.402031183242798	response	2	2		2.0	2.5	/experiments/knapen_aot/videos/R_S_video_inspire_uk_london_hampstead-heath_003.1080-h264.mp4	0.0	74.16308808326721	
5	10.499879121780396	fix_pre	0		24.0	3.0	2.5	/experiments/knapen_aot/videos/S_yt-54kx8P3L1ns_6.mp4	0.0	74.26093602180481	0.19958996772766113
5	10.683698177337646	response	0	2		3.0	2.5	/experiments/knapen_aot/videos/S_yt-54kx8P3L1ns_6.mp4	0.0	74.44475507736206	
5	10.699469089508057	movie	1		301.0	3.0	2.5	/experiments/knapen_aot/videos/S_yt-54kx8P3L1ns_6.mp4	0.0	74.46052598953247	2.508315086364746
5	13.207784175872803	fix_post	2		12.0	3.0	2.5	/experiments/knapen_aot/videos/S_yt-54kx8P3L1ns_6.mp4	0.0	76.96884107589722	0.10000991821289062
6	13.307794094085693	fix_pre	0		8.0	4.0	2.5	/experiments/knapen_aot/videos/R_S_yt-_HuBzj8EPBc_62.mp4	0.0	77.06885099411011	0.06697392463684082
6	13.358844995498657	response	0	2		4.0	2.5	/experiments/knapen_aot/videos/R_S_yt-_HuBzj8EPBc_62.mp4	0.0	77.11990189552307	
6	13.374768018722534	movie	1		301.0	4.0	2.5	/experiments/knapen_aot/videos/R_S_yt-_HuBzj8EPBc_62.mp4	0.0	77.13582491874695	2.5080080032348633
6	15.882776021957397	fix_post	2		12.0	4.0	2.5	/experiments/knapen_aot/videos/R_S_yt-_HuBzj8EPBc_62.mp4	0.0	79.64383292198181	0.09998202323913574
7	15.982758045196533	fix_pre	0		18.0	5.0	2.5	/experiments/knapen_aot/videos/S_yt-QFGyhhr1KSQ_9.mp4	0.0	79.74381494522095	0.1499781608581543
7	16.12455105781555	response	0	2		5.0	2.5	/experiments/knapen_aot/videos/S_yt-QFGyhhr1KSQ_9.mp4	0.0	79.88560795783997	
7	16.132736206054688	movie	1		301.0	5.0	2.5	/experiments/knapen_aot/videos/S_yt-QFGyhhr1KSQ_9.mp4	0.0	79.8937931060791	2.508286952972412
7	18.6410231590271	fix_post	2		12.0	5.0	2.5	/experiments/knapen_aot/videos/S_yt-QFGyhhr1KSQ_9.mp4	0.0	82.40208005905151	0.1000368595123291
8	18.74106001853943	fix_pre	0		13.0	6.0	2.5	blank	1.0	82.50211691856384	0.10828304290771484
8	18.841156005859375	response	0	2		6.0	2.5	blank	1.0	82.60221290588379	
8	18.849343061447144	movie	1		301.0	6.0	2.5	blank	1.0	82.61039996147156	2.508359909057617
8	21.35770297050476	fix_post	2		12.0	6.0	2.5	blank	1.0	85.11875987052917	0.10033917427062988
9	21.45804214477539	fix_pre	0		24.0	7.0	2.5	/experiments/knapen_aot/videos/S_yt-urJgH6tpfkU_204.mp4	0.0	85.2190990447998	0.19964098930358887
9	21.649473190307617	response	0	2		7.0	2.5	/experiments/knapen_aot/videos/S_yt-urJgH6tpfkU_204.mp4	0.0	85.41053009033203	
9	21.65768313407898	movie	1		301.0	7.0	2.5	/experiments/knapen_aot/videos/S_yt-urJgH6tpfkU_204.mp4	0.0	85.4187400341034	2.50833797454834
9	24.16602110862732	fix_post	2		12.0	7.0	2.5	/experiments/knapen_aot/videos/S_yt-urJgH6tpfkU_204.mp4	0.0	87.92707800865173	0.09994387626647949
10	24.2659649848938	fix_pre	0		2.0	8.0	2.5	/experiments/knapen_aot/videos/R_S_flickr-53807584@N00-5565833509_7.mp4	0.0	88.02702188491821	0.016729116439819336
10	24.274490118026733	response	0	2		8.0	2.5	/experiments/knapen_aot/videos/R_S_flickr-53807584@N00-5565833509_7.mp4	0.0	88.03554701805115	
10	24.282694101333618	movie	1		301.0	8.0	2.5	/experiments/knapen_aot/videos/R_S_flickr-53807584@N00-5565833509_7.mp4	0.0	88.04375100135803	2.508336067199707
10	26.791030168533325	fix_post	2		12.0	8.0	2.5	/experiments/knapen_aot/videos/R_S_flickr-53807584@N00-5565833509_7.mp4	0.0	90.55208706855774	0.09995198249816895
11	26.890982151031494	fix_pre	0		11.0	9.0	2.5	/experiments/knapen_aot/videos/S_pexels-cottonbro-10640532.mp4	0.0	90.65203905105591	0.09166288375854492
11	26.974456071853638	response	0	2		9.0	2.5	/experiments/knapen_aot/videos/S_pexels-cottonbro-10640532.mp4	0.0	90.73551297187805	
11	26.98264503479004	movie	1		202.0	9.0	2.5	/experiments/knapen_aot/videos/S_pexels-cottonbro-10640532.mp4	0.0	90.74370193481445	2.50829815864563
11	29.49094319343567	fix_post	2		12.0	9.0	2.5	/experiments/knapen_aot/videos/S_pexels-cottonbro-10640532.mp4	0.0	93.25200009346008	0.10006093978881836
12	29.591004133224487	fix_pre	0		7.0	10.0	2.5	/experiments/knapen_aot/videos/R_S_yt-qjg6kRxNXK8_217.mp4	0.0	93.3520610332489	0.05834197998046875
12	29.641179084777832	response	0	2		10.0	2.5	/experiments/knapen_aot/videos/R_S_yt-qjg6kRxNXK8_217.mp4	0.0	93.40223598480225	
12	29.649346113204956	movie	1		301.0	10.0	2.5	/experiments/knapen_aot/videos/R_S_yt-qjg6kRxNXK8_217.mp4	0.0	93.41040301322937	2.508312940597534
12	32.15765905380249	fix_post	2		12.0	10.0	2.5	/experiments/knapen_aot/videos/R_S_yt-qjg6kRxNXK8_217.mp4	0.0	95.9187159538269	0.09997892379760742
13	32.2576379776001	fix_pre	0		7.0	11.0	2.5	/experiments/knapen_aot/videos/S_Ds4EKTLx_RI_51.mp4	0.0	96.01869487762451	0.0584111213684082
13	32.307892084121704	response	0	2		11.0	2.5	/experiments/knapen_aot/videos/S_Ds4EKTLx_RI_51.mp4	0.0	96.06894898414612	
13	32.316049098968506	movie	1		301.0	11.0	2.5	/experiments/knapen_aot/videos/S_Ds4EKTLx_RI_51.mp4	0.0	96.07710599899292	2.5081820487976074
13	34.82423114776611	fix_post	2		12.0	11.0	2.5	/experiments/knapen_aot/videos/S_Ds4EKTLx_RI_51.mp4	0.0	98.58528804779053	0.10007500648498535
14	34.9243061542511	fix_pre	0		3.0	12.0	2.5	/experiments/knapen_aot/videos/R_S_yt-BJsMGxfjrZk_59.mp4	0.0	98.68536305427551	0.02502298355102539
14	34.94113111495972	response	0	2		12.0	2.5	/experiments/knapen_aot/videos/R_S_yt-BJsMGxfjrZk_59.mp4	0.0	98.70218801498413	
14	34.949329137802124	movie	1		301.0	12.0	2.5	/experiments/knapen_aot/videos/R_S_yt-BJsMGxfjrZk_59.mp4	0.0	98.71038603782654	2.5082828998565674
14	37.45761203765869	fix_post	2		12.0	12.0	2.5	/experiments/knapen_aot/videos/R_S_yt-BJsMGxfjrZk_59.mp4	0.0	101.2186689376831	0.10004806518554688
15	37.55766010284424	fix_pre	0		23.0	13.0	2.5	blank	1.0	101.31871700286865	0.19186091423034668
15	37.7411470413208	response	0	2		13.0	2.5	blank	1.0	101.50220394134521	
15	37.749521017074585	movie	1		301.0	13.0	2.5	blank	1.0	101.510577917099	2.5081090927124023
15	40.25763010978699	fix_post	2		12.0	13.0	2.5	blank	1.0	104.0186870098114	0.09993791580200195
16	40.35756802558899	fix_pre	0		21.0	14.0	2.5	/experiments/knapen_aot/videos/R_S_yt-4NjyKFnwHBo_13.mp4	0.0	104.1186249256134	0.1750640869140625
16	40.52432203292847	response	0	2		14.0	2.5	/experiments/knapen_aot/videos/R_S_yt-4NjyKFnwHBo_13.mp4	0.0	104.28537893295288	
16	40.53263211250305	movie	1		301.0	14.0	2.5	/experiments/knapen_aot/videos/R_S_yt-4NjyKFnwHBo_13.mp4	0.0	104.29368901252747	2.5083460807800293
16	43.04097819328308	fix_post	2		12.0	14.0	2.5	/experiments/knapen_aot/videos/R_S_yt-4NjyKFnwHBo_13.mp4	0.0	106.8020350933075	0.0999758243560791
17	43.14095401763916	fix_pre	0		18.0	15.0	2.5	/experiments/knapen_aot/videos/R_S_pexels-roman-odintsov-8231493.mp4	0.0	106.90201091766357	0.1501610279083252
17	43.282747983932495	response	0	2		15.0	2.5	/experiments/knapen_aot/videos/R_S_pexels-roman-odintsov-8231493.mp4	0.0	107.04380488395691	
17	43.291115045547485	movie	1		201.0	15.0	2.5	/experiments/knapen_aot/videos/R_S_pexels-roman-odintsov-8231493.mp4	0.0	107.0521719455719	2.508223056793213
17	45.7993381023407	fix_post	2		12.0	15.0	2.5	/experiments/knapen_aot/videos/R_S_pexels-roman-odintsov-8231493.mp4	0.0	109.56039500236511	0.09994101524353027
18	45.89927911758423	fix_pre	0		5.0	16.0	2.5	/experiments/knapen_aot/videos/R_S_yt-xnqqB-leeaQ_128.mp4	0.0	109.66033601760864	0.04230189323425293
18	45.93288612365723	response	0	2		16.0	2.5	/experiments/knapen_aot/videos/R_S_yt-xnqqB-leeaQ_128.mp4	0.0	109.69394302368164	
18	45.94158101081848	movie	1		301.0	16.0	2.5	/experiments/knapen_aot/videos/R_S_yt-xnqqB-leeaQ_128.mp4	0.0	109.7026379108429	2.5076920986175537
18	48.449273109436035	fix_post	2		12.0	16.0	2.5	/experiments/knapen_aot/videos/R_S_yt-xnqqB-leeaQ_128.mp4	0.0	112.21033000946045	0.09993195533752441
19	48.54920506477356	fix_pre	0		8.0	17.0	2.5	/experiments/knapen_aot/videos/S_pexels-mikhail-nilov-8410084_1.mp4	0.0	112.31026196479797	0.06666994094848633
19	48.60775709152222	response	0	2		17.0	2.5	/experiments/knapen_aot/videos/S_pexels-mikhail-nilov-8410084_1.mp4	0.0	112.36881399154663	
19	48.615875005722046	movie	1		164.0	17.0	2.5	/experiments/knapen_aot/videos/S_pexels-mikhail-nilov-8410084_1.mp4	0.0	112.37693190574646	2.508519172668457
19	51.1243941783905	fix_post	2		12.0	17.0	2.5	/experiments/knapen_aot/videos/S_pexels-mikhail-nilov-8410084_1.mp4	0.0	114.88545107841492	0.09987187385559082
20	51.224266052246094	fix_pre	0		3.0	18.0	2.5	/experiments/knapen_aot/videos/S_FZ0hLmjCR0s_26.mp4	0.0	114.98532295227051	0.025495052337646484
20	51.24108910560608	response	0	2		18.0	2.5	/experiments/knapen_aot/videos/S_FZ0hLmjCR0s_26.mp4	0.0	115.0021460056305	
20	51.24976110458374	movie	1		301.0	18.0	2.5	/experiments/knapen_aot/videos/S_FZ0hLmjCR0s_26.mp4	0.0	115.01081800460815	2.5078439712524414
20	53.75760507583618	fix_post	2		12.0	18.0	2.5	/experiments/knapen_aot/videos/S_FZ0hLmjCR0s_26.mp4	0.0	117.5186619758606	0.09999704360961914
21	53.8576021194458	fix_pre	0		6.0	19.0	2.5	blank	1.0	117.61865901947021	0.050006866455078125
21	53.899439096450806	response	0	2		19.0	2.5	blank	1.0	117.66049599647522	
21	53.90760898590088	movie	1		301.0	19.0	2.5	blank	1.0	117.6686658859253	2.5084621906280518
21	56.41607117652893	fix_post	2		12.0	19.0	2.5	blank	1.0	120.17712807655334	0.09982085227966309
22	56.515892028808594	fix_pre	0		33.0	20.0	2.5	/experiments/knapen_aot/videos/S_video_inspire_oregon_lone-ranch-beach_00001.1080-h264.mp4	0.0	120.27694892883301	0.27509403228759766
22	56.782591104507446	response	0	2		20.0	2.5	/experiments/knapen_aot/videos/S_video_inspire_oregon_lone-ranch-beach_00001.1080-h264.mp4	0.0	120.54364800453186	
22	56.79098606109619	movie	1		167.0	20.0	2.5	/experiments/knapen_aot/videos/S_video_inspire_oregon_lone-ranch-beach_00001.1080-h264.mp4	0.0	120.5520429611206	2.508255958557129
22	59.29924201965332	fix_post	2		11.0	20.0	2.5	/experiments/knapen_aot/videos/S_video_inspire_oregon_lone-ranch-beach_00001.1080-h264.mp4	0.0	123.06029891967773	0.09163904190063477
22	59.382734060287476	response	2	2		20.0	2.5	/experiments/knapen_aot/videos/S_video_inspire_oregon_lone-ranch-beach_00001.1080-h264.mp4	0.0	123.14379096031189	
23	59.390881061553955	fix_pre	0		40.0	21.0	2.5	/experiments/knapen_aot/videos/R_S_yt-Fm97IY0Z2LU_79.mp4	0.0	123.15193796157837	0.3333580493927002
23	59.708460092544556	response	0	2		21.0	2.5	/experiments/knapen_aot/videos/R_S_yt-Fm97IY0Z2LU_79.mp4	0.0	123.46951699256897	
23	59.724239110946655	movie	1		301.0	21.0	2.5	/experiments/knapen_aot/videos/R_S_yt-Fm97IY0Z2LU_79.mp4	0.0	123.48529601097107	2.508233070373535
23	62.23247218132019	fix_post	2		12.0	21.0	2.5	/experiments/knapen_aot/videos/R_S_yt-Fm97IY0Z2LU_79.mp4	0.0	125.9935290813446	0.10018181800842285
24	62.33265399932861	fix_pre	0		10.0	22.0	2.5	/experiments/knapen_aot/videos/S_yt-JkKOG9Fxykc_94.mp4	0.0	126.09371089935303	0.08341217041015625
24	62.40083312988281	response	0	2		22.0	2.5	/experiments/knapen_aot/videos/S_yt-JkKOG9Fxykc_94.mp4	0.0	126.16189002990723	
24	62.41606616973877	movie	1		301.0	22.0	2.5	/experiments/knapen_aot/videos/S_yt-JkKOG9Fxykc_94.mp4	0.0	126.17712306976318	2.50815486907959
24	64.92422103881836	fix_post	2		12.0	22.0	2.5	/experiments/knapen_aot/videos/S_yt-JkKOG9Fxykc_94.mp4	0.0	128.68527793884277	0.10002803802490234
25	65.02424907684326	fix_pre	0		13.0	23.0	2.5	/experiments/knapen_aot/videos/S_yt-sIXdPhfS67U_203.mp4	0.0	128.78530597686768	0.10821390151977539
25	65.12431502342224	response	0	2		23.0	2.5	/experiments/knapen_aot/videos/S_yt-sIXdPhfS67U_203.mp4	0.0	128.88537192344666	
25	65.13246297836304	movie	1		300.0	23.0	2.5	/experiments/knapen_aot/videos/S_yt-sIXdPhfS67U_203.mp4	0.0	128.89351987838745	2.508366107940674
25	67.64082908630371	fix_post	2		12.0	23.0	2.5	/experiments/knapen_aot/videos/S_yt-sIXdPhfS67U_203.mp4	0.0	131.40188598632812	0.10004210472106934
26	67.74087119102478	fix_pre	0		10.0	24.0	2.5	/experiments/knapen_aot/videos/R_S_yt-Iu2ZPHLqXuY_32.mp4	0.0	131.5019280910492	0.08486580848693848
26	67.80918598175049	response	0	2		24.0	2.5	/experiments/knapen_aot/videos/R_S_yt-Iu2ZPHLqXuY_32.mp4	0.0	131.5702428817749	
26	67.82573699951172	movie	1		301.0	24.0	2.5	/experiments/knapen_aot/videos/R_S_yt-Iu2ZPHLqXuY_32.mp4	0.0	131.58679389953613	2.5068089962005615
26	70.33254599571228	fix_post	2		12.0	24.0	2.5	/experiments/knapen_aot/videos/R_S_yt-Iu2ZPHLqXuY_32.mp4	0.0	134.0936028957367	0.09988903999328613
27	70.43243503570557	fix_pre	0		7.0	25.0	2.5	/experiments/knapen_aot/videos/S_xq822dX6DDM_1.mp4	0.0	134.19349193572998	0.058381080627441406
27	70.48262906074524	response	0	2		25.0	2.5	/experiments/knapen_aot/videos/S_xq822dX6DDM_1.mp4	0.0	134.24368596076965	
27	70.49081611633301	movie	1		301.0	25.0	2.5	/experiments/knapen_aot/videos/S_xq822dX6DDM_1.mp4	0.0	134.25187301635742	2.5083439350128174
27	72.99916005134583	fix_post	2		12.0	25.0	2.5	/experiments/knapen_aot/videos/S_xq822dX6DDM_1.mp4	0.0	136.76021695137024	0.10003995895385742
28	73.09920001029968	fix_pre	0		19.0	26.0	2.5	/experiments/knapen_aot/videos/R_S_yt-ZYrQIw9VUok_111.mp4	0.0	136.8602569103241	0.1582200527191162
28	73.24928998947144	response	0	2		26.0	2.5	/experiments/knapen_aot/videos/R_S_yt-ZYrQIw9VUok_111.mp4	0.0	137.01034688949585	
28	73.2574200630188	movie	1		299.0	26.0	2.5	/experiments/knapen_aot/videos/R_S_yt-ZYrQIw9VUok_111.mp4	0.0	137.0184769630432	2.5083670616149902
28	75.76578712463379	fix_post	2		12.0	26.0	2.5	/experiments/knapen_aot/videos/R_S_yt-ZYrQIw9VUok_111.mp4	0.0	139.5268440246582	0.10001087188720703
29	75.865797996521	fix_pre	0		7.0	27.0	2.5	blank	1.0	139.6268548965454	0.05836820602416992
29	75.91594815254211	response	0	2		27.0	2.5	blank	1.0	139.67700505256653	
29	75.92416620254517	movie	1		301.0	27.0	2.5	blank	1.0	139.68522310256958	2.5083229541778564
29	78.43248915672302	fix_post	2		12.0	27.0	2.5	blank	1.0	142.19354605674744	0.09992599487304688
30	78.53241515159607	fix_pre	0		23.0	28.0	2.5	/experiments/knapen_aot/videos/R_S_yt-h8wy6x6oytA_25.mp4	0.0	142.29347205162048	0.19170093536376953
30	78.71590900421143	response	0	2		28.0	2.5	/experiments/knapen_aot/videos/R_S_yt-h8wy6x6oytA_25.mp4	0.0	142.47696590423584	
30	78.72411608695984	movie	1		301.0	28.0	2.5	/experiments/knapen_aot/videos/R_S_yt-h8wy6x6oytA_25.mp4	0.0	142.48517298698425	2.5083630084991455
30	81.23247909545898	fix_post	2		12.0	28.0	2.5	/experiments/knapen_aot/videos/R_S_yt-h8wy6x6oytA_25.mp4	0.0	144.9935359954834	0.10000896453857422
31	81.33248805999756	fix_pre	0		18.0	29.0	2.5	/experiments/knapen_aot/videos/S_yt-wrfAMDCg93Y_8.mp4	0.0	145.09354496002197	0.1499779224395752
31	81.47425508499146	response	0	2		29.0	2.5	/experiments/knapen_aot/videos/S_yt-wrfAMDCg93Y_8.mp4	0.0	145.23531198501587	
31	81.48246598243713	movie	1		301.0	29.0	2.5	/experiments/knapen_aot/videos/S_yt-wrfAMDCg93Y_8.mp4	0.0	145.24352288246155	2.5082790851593018
31	83.99074506759644	fix_post	2		12.0	29.0	2.5	/experiments/knapen_aot/videos/S_yt-wrfAMDCg93Y_8.mp4	0.0	147.75180196762085	0.10005712509155273
32	84.09080219268799	fix_pre	0		77.0	30.0	2.5	/experiments/knapen_aot/videos/S_yt-urJgH6tpfkU_204.mp4	0.0	147.8518590927124	0.641638994216919
32	84.72420811653137	response	0	2		30.0	2.5	/experiments/knapen_aot/videos/S_yt-urJgH6tpfkU_204.mp4	0.0	148.4852650165558	
32	84.73244118690491	movie	1		301.0	30.0	2.5	/experiments/knapen_aot/videos/S_yt-urJgH6tpfkU_204.mp4	0.0	148.49349808692932	2.508391857147217
32	87.24083304405212	fix_post	2		12.0	30.0	2.5	/experiments/knapen_aot/videos/S_yt-urJgH6tpfkU_204.mp4	0.0	151.00188994407654	0.09996795654296875
33	87.34080100059509	fix_pre	0		20.0	31.0	2.5	/experiments/knapen_aot/videos/S_yt-FE5srhxadno_73.mp4	0.0	151.1018579006195	0.16662812232971191
33	87.49925518035889	response	0	2		31.0	2.5	/experiments/knapen_aot/videos/S_yt-FE5srhxadno_73.mp4	0.0	151.2603120803833	
33	87.5074291229248	movie	1		301.0	31.0	2.5	/experiments/knapen_aot/videos/S_yt-FE5srhxadno_73.mp4	0.0	151.26848602294922	2.5083320140838623
33	90.01576113700867	fix_post	2		12.0	31.0	2.5	/experiments/knapen_aot/videos/S_yt-FE5srhxadno_73.mp4	0.0	153.77681803703308	0.099945068359375
34	90.11570620536804	fix_pre	0		19.0	32.0	2.5	/experiments/knapen_aot/videos/S_ILSVRC2015_train_00473001.mp4	0.0	153.87676310539246	0.15836095809936523
34	90.26593112945557	response	0	2		32.0	2.5	/experiments/knapen_aot/videos/S_ILSVRC2015_train_00473001.mp4	0.0	154.02698802947998	
34	90.27406716346741	movie	1		301.0	32.0	2.5	/experiments/knapen_aot/videos/S_ILSVRC2015_train_00473001.mp4	0.0	154.03512406349182	2.508327007293701
34	92.78239417076111	fix_post	2		12.0	32.0	2.5	/experiments/knapen_aot/videos/S_ILSVRC2015_train_00473001.mp4	0.0	156.54345107078552	0.10002303123474121
35	92.88241720199585	fix_pre	0		11.0	33.0	2.5	blank	1.0	156.64347410202026	0.09159994125366211
35	92.95911312103271	response	0	2		33.0	2.5	blank	1.0	156.72017002105713	
35	92.97401714324951	movie	1		301.0	33.0	2.5	blank	1.0	156.73507404327393	2.5083930492401123
35	95.48241019248962	fix_post	2		12.0	33.0	2.5	blank	1.0	159.24346709251404	0.0999598503112793
36	95.5823700428009	fix_pre	0		16.0	34.0	2.5	/experiments/knapen_aot/videos/R_S_yt-l6WPyKg_3is_154.mp4	0.0	159.34342694282532	0.1333169937133789
36	95.70758199691772	response	0	2		34.0	2.5	/experiments/knapen_aot/videos/R_S_yt-l6WPyKg_3is_154.mp4	0.0	159.46863889694214	
36	95.71568703651428	movie	1		301.0	34.0	2.5	/experiments/knapen_aot/videos/R_S_yt-l6WPyKg_3is_154.mp4	0.0	159.4767439365387	2.508389949798584
36	98.22407698631287	fix_post	2		12.0	34.0	2.5	/experiments/knapen_aot/videos/R_S_yt-l6WPyKg_3is_154.mp4	0.0	161.98513388633728	0.09995102882385254
37	98.32402801513672	fix_pre	0		8.0	35.0	2.5	/experiments/knapen_aot/videos/S_yt-he_RSdeVinA_68.mp4	0.0	162.08508491516113	0.06674504280090332
37	98.38252401351929	response	0	2		35.0	2.5	/experiments/knapen_aot/videos/S_yt-he_RSdeVinA_68.mp4	0.0	162.1435809135437	
37	98.39077305793762	movie	1		301.0	35.0	2.5	/experiments/knapen_aot/videos/S_yt-he_RSdeVinA_68.mp4	0.0	162.15182995796204	2.5082550048828125
37	100.89902806282043	fix_post	2		12.0	35.0	2.5	/experiments/knapen_aot/videos/S_yt-he_RSdeVinA_68.mp4	0.0	164.66008496284485	0.09994196891784668
38	100.99897003173828	fix_pre	0		18.0	36.0	2.5	/experiments/knapen_aot/videos/S_pexels-anthony-shkraba-7569650.mp4	0.0	164.7600269317627	0.1500530242919922
38	101.14085102081299	response	0	2		36.0	2.5	/experiments/knapen_aot/videos/S_pexels-anthony-shkraba-7569650.mp4	0.0	164.9019079208374	
38	101.14902305603027	movie	1		199.0	36.0	2.5	/experiments/knapen_aot/videos/S_pexels-anthony-shkraba-7569650.mp4	0.0	164.9100799560547	2.5082690715789795
38	103.65729212760925	fix_post	2		12.0	36.0	2.5	/experiments/knapen_aot/videos/S_pexels-anthony-shkraba-7569650.mp4	0.0	167.41834902763367	0.10002684593200684
39	103.75731897354126	fix_pre	0		19.0	37.0	2.5	/experiments/knapen_aot/videos/S_Pexels_Videos_278654_1.mp4	0.0	167.51837587356567	0.15831303596496582
39	103.90750098228455	response	0	2		37.0	2.5	/experiments/knapen_aot/videos/S_Pexels_Videos_278654_1.mp4	0.0	167.66855788230896	
39	103.91563200950623	movie	1		162.0	37.0	2.5	/experiments/knapen_aot/videos/S_Pexels_Videos_278654_1.mp4	0.0	167.67668890953064	2.5084071159362793
39	106.4240391254425	fix_post	2		12.0	37.0	2.5	/experiments/knapen_aot/videos/S_Pexels_Videos_278654_1.mp4	0.0	170.18509602546692	0.09992504119873047
39	106.50739812850952	response	2	2		37.0	2.5	/experiments/knapen_aot/videos/S_Pexels_Videos_278654_1.mp4	0.0	170.26845502853394	
40	106.52396416664124	fix_pre	0		84.0	38.0	2.5	/experiments/knapen_aot/videos/R_S_yt-PP93D7b7Ni4_10.mp4	0.0	170.28502106666565	0.7000210285186768
40	107.21574306488037	response	0	2		38.0	2.5	/experiments/knapen_aot/videos/R_S_yt-PP93D7b7Ni4_10.mp4	0.0	170.97679996490479	
40	107.22398519515991	movie	1		300.0	38.0	2.5	/experiments/knapen_aot/videos/R_S_yt-PP93D7b7Ni4_10.mp4	0.0	170.98504209518433	2.5084099769592285
40	109.73239517211914	fix_post	2		12.0	38.0	2.5	/experiments/knapen_aot/videos/R_S_yt-PP93D7b7Ni4_10.mp4	0.0	173.49345207214355	0.0999448299407959
41	109.83234000205994	fix_pre	0		9.0	39.0	2.5	/experiments/knapen_aot/videos/R_S_yt-3TF_RGo9cLs_541.mp4	0.0	173.59339690208435	0.07624506950378418
41	109.8990740776062	response	0	2		39.0	2.5	/experiments/knapen_aot/videos/R_S_yt-3TF_RGo9cLs_541.mp4	0.0	173.66013097763062	
41	109.90858507156372	movie	1		301.0	39.0	2.5	/experiments/knapen_aot/videos/R_S_yt-3TF_RGo9cLs_541.mp4	0.0	173.66964197158813	2.5070629119873047
41	112.41564798355103	fix_post	2		12.0	39.0	2.5	/experiments/knapen_aot/videos/R_S_yt-3TF_RGo9cLs_541.mp4	0.0	176.17670488357544	0.10001015663146973
42	112.5156581401825	fix_pre	0		10.0	40.0	2.5	blank	1.0	176.2767150402069	0.08351588249206543
42	112.59134101867676	response	0	2		40.0	2.5	blank	1.0	176.35239791870117	
42	112.59917402267456	movie	1		301.0	40.0	2.5	blank	1.0	176.36023092269897	2.508146047592163
42	115.10732007026672	fix_post	2		12.0	40.0	2.5	blank	1.0	178.86837697029114	0.10003900527954102
43	115.20735907554626	fix_pre	0		24.0	41.0	2.5	/experiments/knapen_aot/videos/S_PA_A004_C003_SDR_20190719_SDR_2K_AVC.mp4	0.0	178.96841597557068	0.19992303848266602
43	115.39901113510132	response	0	2		41.0	2.5	/experiments/knapen_aot/videos/S_PA_A004_C003_SDR_20190719_SDR_2K_AVC.mp4	0.0	179.16006803512573	
43	115.40728211402893	movie	1		167.0	41.0	2.5	/experiments/knapen_aot/videos/S_PA_A004_C003_SDR_20190719_SDR_2K_AVC.mp4	0.0	179.16833901405334	2.5083909034729004
43	117.91567301750183	fix_post	2		12.0	41.0	2.5	/experiments/knapen_aot/videos/S_PA_A004_C003_SDR_20190719_SDR_2K_AVC.mp4	0.0	181.67672991752625	0.09994912147521973
43	118.00735998153687	response	2	2		41.0	2.5	/experiments/knapen_aot/videos/S_PA_A004_C003_SDR_20190719_SDR_2K_AVC.mp4	0.0	181.76841688156128	
44	118.01562213897705	fix_pre	0		45.0	42.0	2.5	/experiments/knapen_aot/videos/R_S_yt-gPhlnZG-pRY_4.mp4	0.0	181.77667903900146	0.37492895126342773
44	118.38240504264832	response	0	2		42.0	2.5	/experiments/knapen_aot/videos/R_S_yt-gPhlnZG-pRY_4.mp4	0.0	182.14346194267273	
44	118.39055109024048	movie	1		301.0	42.0	2.5	/experiments/knapen_aot/videos/R_S_yt-gPhlnZG-pRY_4.mp4	0.0	182.1516079902649	2.5084290504455566
44	120.89898014068604	fix_post	2		12.0	42.0	2.5	/experiments/knapen_aot/videos/R_S_yt-gPhlnZG-pRY_4.mp4	0.0	184.66003704071045	0.09997987747192383
45	120.99896001815796	fix_pre	0		23.0	43.0	2.5	/experiments/knapen_aot/videos/R_S_yt-AbJBxqEYoMg_105.mp4	0.0	184.76001691818237	0.19165802001953125
45	121.18232798576355	response	0	2		43.0	2.5	/experiments/knapen_aot/videos/R_S_yt-AbJBxqEYoMg_105.mp4	0.0	184.94338488578796	
45	121.19061803817749	movie	1		301.0	43.0	2.5	/experiments/knapen_aot/videos/R_S_yt-AbJBxqEYoMg_105.mp4	0.0	184.9516749382019	2.508284091949463
45	123.69890213012695	fix_post	2		12.0	43.0	2.5	/experiments/knapen_aot/videos/R_S_yt-AbJBxqEYoMg_105.mp4	0.0	187.45995903015137	0.09997701644897461
46	123.79887914657593	fix_pre	0		18.0	44.0	2.5	/experiments/knapen_aot/videos/S_yt-OrTpetjDNKs_31.mp4	0.0	187.55993604660034	0.15125393867492676
46	123.94070315361023	response	0	2		44.0	2.5	/experiments/knapen_aot/videos/S_yt-OrTpetjDNKs_31.mp4	0.0	187.70176005363464	
46	123.95013308525085	movie	1		301.0	44.0	2.5	/experiments/knapen_aot/videos/S_yt-OrTpetjDNKs_31.mp4	0.0	187.71118998527527	2.5070950984954834
46	126.45722818374634	fix_post	2		12.0	44.0	2.5	/experiments/knapen_aot/videos/S_yt-OrTpetjDNKs_31.mp4	0.0	190.21828508377075	0.10002899169921875
47	126.55725717544556	fix_pre	0		18.0	45.0	2.5	/experiments/knapen_aot/videos/R_S_yt-JkKOG9Fxykc_94.mp4	0.0	190.31831407546997	0.14998888969421387
47	126.69913601875305	response	0	2		45.0	2.5	/experiments/knapen_aot/videos/R_S_yt-JkKOG9Fxykc_94.mp4	0.0	190.46019291877747	
47	126.70724606513977	movie	1		301.0	45.0	2.5	/experiments/knapen_aot/videos/R_S_yt-JkKOG9Fxykc_94.mp4	0.0	190.46830296516418	2.508331060409546
47	129.21557712554932	fix_post	2		12.0	45.0	2.5	/experiments/knapen_aot/videos/R_S_yt-JkKOG9Fxykc_94.mp4	0.0	192.97663402557373	0.09995007514953613
48	129.31552720069885	fix_pre	0		25.0	46.0	2.5	/experiments/knapen_aot/videos/S_ILSVRC2015_train_00551000.mp4	0.0	193.07658410072327	0.20834898948669434
48	129.51563620567322	response	0	2		46.0	2.5	/experiments/knapen_aot/videos/S_ILSVRC2015_train_00551000.mp4	0.0	193.27669310569763	
48	129.52387619018555	movie	1		301.0	46.0	2.5	/experiments/knapen_aot/videos/S_ILSVRC2015_train_00551000.mp4	0.0	193.28493309020996	2.5083799362182617
48	132.0322561264038	fix_post	2		12.0	46.0	2.5	/experiments/knapen_aot/videos/S_ILSVRC2015_train_00551000.mp4	0.0	195.79331302642822	0.10004687309265137
49	132.13230299949646	fix_pre	0		17.0	47.0	2.5	blank	1.0	195.89335989952087	0.14159703254699707
49	132.2656331062317	response	0	2		47.0	2.5	blank	1.0	196.0266900062561	
49	132.27390003204346	movie	1		301.0	47.0	2.5	blank	1.0	196.03495693206787	2.508352041244507
49	134.78225207328796	fix_post	2		12.0	47.0	2.5	blank	1.0	198.54330897331238	0.09999704360961914
50	134.88224911689758	fix_pre	0		18.0	48.0	2.5	/experiments/knapen_aot/videos/S_yt-kQpE9L-fsNE_55.mp4	0.0	198.643306016922	0.15109896659851074
50	135.02398800849915	response	0	2		48.0	2.5	/experiments/knapen_aot/videos/S_yt-kQpE9L-fsNE_55.mp4	0.0	198.78504490852356	
50	135.0333480834961	movie	1		300.0	48.0	2.5	/experiments/knapen_aot/videos/S_yt-kQpE9L-fsNE_55.mp4	0.0	198.7944049835205	2.507246971130371
50	137.54059505462646	fix_post	2		12.0	48.0	2.5	/experiments/knapen_aot/videos/S_yt-kQpE9L-fsNE_55.mp4	0.0	201.30165195465088	0.09994101524353027
51	137.64053606987	fix_pre	0		10.0	49.0	2.5	/experiments/knapen_aot/videos/R_S_yt-HwZFMTZ7Xko_35.mp4	0.0	201.4015929698944	0.0833890438079834
51	137.71571707725525	response	0	2		49.0	2.5	/experiments/knapen_aot/videos/R_S_yt-HwZFMTZ7Xko_35.mp4	0.0	201.47677397727966	
51	137.72392511367798	movie	1		301.0	49.0	2.5	/experiments/knapen_aot/videos/R_S_yt-HwZFMTZ7Xko_35.mp4	0.0	201.4849820137024	2.508275032043457
51	140.23220014572144	fix_post	2		12.0	49.0	2.5	/experiments/knapen_aot/videos/R_S_yt-HwZFMTZ7Xko_35.mp4	0.0	203.99325704574585	0.09997105598449707
52	140.33217120170593	fix_pre	0		9.0	50.0	2.5	/experiments/knapen_aot/videos/S_yt-K-iCphzt_RE_17.mp4	0.0	204.09322810173035	0.07611393928527832
52	140.39902019500732	response	0	2		50.0	2.5	/experiments/knapen_aot/videos/S_yt-K-iCphzt_RE_17.mp4	0.0	204.16007709503174	
52	140.4082851409912	movie	1		300.0	50.0	2.5	/experiments/knapen_aot/videos/S_yt-K-iCphzt_RE_17.mp4	0.0	204.16934204101562	2.507232904434204
52	142.91551804542542	fix_post	2		12.0	50.0	2.5	/experiments/knapen_aot/videos/S_yt-K-iCphzt_RE_17.mp4	0.0	206.67657494544983	0.10005593299865723
53	143.01557397842407	fix_pre	0		10.0	51.0	2.5	/experiments/knapen_aot/videos/S_wc-16LozRfhUGea_49.mp4	0.0	206.7766308784485	0.08327817916870117
53	143.08320307731628	response	0	2		51.0	2.5	/experiments/knapen_aot/videos/S_wc-16LozRfhUGea_49.mp4	0.0	206.8442599773407	
53	143.09885215759277	movie	1		301.0	51.0	2.5	/experiments/knapen_aot/videos/S_wc-16LozRfhUGea_49.mp4	0.0	206.8599090576172	2.5082828998565674
53	145.60713505744934	fix_post	2		12.0	51.0	2.5	/experiments/knapen_aot/videos/S_wc-16LozRfhUGea_49.mp4	0.0	209.36819195747375	0.09999299049377441
54	145.70712804794312	fix_pre	0		9.0	52.0	2.5	/experiments/knapen_aot/videos/R_S_ILSVRC2015_train_00761000.mp4	0.0	209.46818494796753	0.07612895965576172
54	145.77396416664124	response	0	2		52.0	2.5	/experiments/knapen_aot/videos/R_S_ILSVRC2015_train_00761000.mp4	0.0	209.53502106666565	
54	145.78325700759888	movie	1		301.0	52.0	2.5	/experiments/knapen_aot/videos/R_S_ILSVRC2015_train_00761000.mp4	0.0	209.5443139076233	2.507232189178467
54	148.29048919677734	fix_post	2		12.0	52.0	2.5	/experiments/knapen_aot/videos/R_S_ILSVRC2015_train_00761000.mp4	0.0	212.05154609680176	0.10004377365112305
55	148.39053297042847	fix_pre	0		69.0	53.0	2.5	/experiments/knapen_aot/videos/R_S_yt-pPIHiIYSjW8_653.mp4	0.0	212.15158987045288	0.5749680995941162
55	148.95730710029602	response	0	2		53.0	2.5	/experiments/knapen_aot/videos/R_S_yt-pPIHiIYSjW8_653.mp4	0.0	212.71836400032043	
55	148.96550107002258	movie	1		301.0	53.0	2.5	/experiments/knapen_aot/videos/R_S_yt-pPIHiIYSjW8_653.mp4	0.0	212.726557970047	2.50821590423584
55	151.47371697425842	fix_post	2		12.0	53.0	2.5	/experiments/knapen_aot/videos/R_S_yt-pPIHiIYSjW8_653.mp4	0.0	215.23477387428284	0.10011720657348633
56	151.5738341808319	fix_pre	0		42.0	54.0	2.5	blank	1.0	215.33489108085632	0.350125789642334
56	151.91560912132263	response	0	2		54.0	2.5	blank	1.0	215.67666602134705	
56	151.92395997047424	movie	1		301.0	54.0	2.5	blank	1.0	215.68501687049866	2.508167028427124
56	154.43212699890137	fix_post	2		12.0	54.0	2.5	blank	1.0	218.19318389892578	0.09995317459106445
57	154.53208017349243	fix_pre	0		194.0	55.0	2.5	/experiments/knapen_aot/videos/R_S_yt-N7ztk2fa3Ls_137.mp4	0.0	218.29313707351685	1.616750955581665
57	156.14057207107544	response	0	2		55.0	2.5	/experiments/knapen_aot/videos/R_S_yt-N7ztk2fa3Ls_137.mp4	0.0	219.90162897109985	
57	156.1488311290741	movie	1		301.0	55.0	2.5	/experiments/knapen_aot/videos/R_S_yt-N7ztk2fa3Ls_137.mp4	0.0	219.9098880290985	2.508236885070801
57	158.6570680141449	fix_post	2		12.0	55.0	2.5	/experiments/knapen_aot/videos/R_S_yt-N7ztk2fa3Ls_137.mp4	0.0	222.4181249141693	0.10007119178771973
58	158.75713920593262	fix_pre	0		14.0	56.0	2.5	/experiments/knapen_aot/videos/S_yt-fymgyhmYnMI_76.mp4	0.0	222.51819610595703	0.11663198471069336
58	158.8656461238861	response	0	2		56.0	2.5	/experiments/knapen_aot/videos/S_yt-fymgyhmYnMI_76.mp4	0.0	222.62670302391052	
58	158.8737711906433	movie	1		299.0	56.0	2.5	/experiments/knapen_aot/videos/S_yt-fymgyhmYnMI_76.mp4	0.0	222.63482809066772	2.5083298683166504
58	161.38210105895996	fix_post	2		12.0	56.0	2.5	/experiments/knapen_aot/videos/S_yt-fymgyhmYnMI_76.mp4	0.0	225.14315795898438	0.10001802444458008
59	161.48211908340454	fix_pre	0		6.0	57.0	2.5	/experiments/knapen_aot/videos/R_S_yt-9EnchawJ3pA_90.mp4	0.0	225.24317598342896	0.05094599723815918
59	161.52389097213745	response	0	2		57.0	2.5	/experiments/knapen_aot/videos/R_S_yt-9EnchawJ3pA_90.mp4	0.0	225.28494787216187	
59	161.5330650806427	movie	1		301.0	57.0	2.5	/experiments/knapen_aot/videos/R_S_yt-9EnchawJ3pA_90.mp4	0.0	225.29412198066711	2.5073111057281494
59	164.04037618637085	fix_post	2		12.0	57.0	2.5	/experiments/knapen_aot/videos/R_S_yt-9EnchawJ3pA_90.mp4	0.0	227.80143308639526	0.10002899169921875
60	164.14040517807007	fix_pre	0		10.0	58.0	2.5	/experiments/knapen_aot/videos/R_S_ILSVRC2015_train_00251004.mp4	0.0	227.90146207809448	0.08333492279052734
60	164.20802807807922	response	0	2		58.0	2.5	/experiments/knapen_aot/videos/R_S_ILSVRC2015_train_00251004.mp4	0.0	227.96908497810364	
60	164.2237401008606	movie	1		300.0	58.0	2.5	/experiments/knapen_aot/videos/R_S_ILSVRC2015_train_00251004.mp4	0.0	227.984797000885	2.508359909057617
60	166.7321000099182	fix_post	2		12.0	58.0	2.5	/experiments/knapen_aot/videos/R_S_ILSVRC2015_train_00251004.mp4	0.0	230.49315690994263	0.09998703002929688
61	166.8320870399475	fix_pre	0		35.0	59.0	2.5	/experiments/knapen_aot/videos/R_S_pexels-mart-production-7698911.mp4	0.0	230.59314393997192	0.29166698455810547
61	167.10802602767944	response	0	2		59.0	2.5	/experiments/knapen_aot/videos/R_S_pexels-mart-production-7698911.mp4	0.0	230.86908292770386	
61	167.12375402450562	movie	1		188.0	59.0	2.5	/experiments/knapen_aot/videos/R_S_pexels-mart-production-7698911.mp4	0.0	230.88481092453003	2.508270025253296
61	169.6320240497589	fix_post	2		12.0	59.0	2.5	/experiments/knapen_aot/videos/R_S_pexels-mart-production-7698911.mp4	0.0	233.39308094978333	0.1000370979309082
62	169.73206114768982	fix_pre	0		38.0	60.0	2.5	/experiments/knapen_aot/videos/S_yt-ZTAaH5XbtfE_3.mp4	0.0	233.49311804771423	0.31668782234191895
62	170.0405101776123	response	0	2		60.0	2.5	/experiments/knapen_aot/videos/S_yt-ZTAaH5XbtfE_3.mp4	0.0	233.80156707763672	
62	170.04874897003174	movie	1		301.0	60.0	2.5	/experiments/knapen_aot/videos/S_yt-ZTAaH5XbtfE_3.mp4	0.0	233.80980587005615	2.5083730220794678
62	172.5571219921112	fix_post	2		12.0	60.0	2.5	/experiments/knapen_aot/videos/S_yt-ZTAaH5XbtfE_3.mp4	0.0	236.31817889213562	0.09993100166320801
63	172.6570529937744	fix_pre	0		20.0	61.0	2.5	/experiments/knapen_aot/videos/S_yt-hOtj2y9VWrc_354.mp4	0.0	236.41810989379883	0.16759705543518066
63	172.80801010131836	response	0	2		61.0	2.5	/experiments/knapen_aot/videos/S_yt-hOtj2y9VWrc_354.mp4	0.0	236.56906700134277	
63	172.8246500492096	movie	1		299.0	61.0	2.5	/experiments/knapen_aot/videos/S_yt-hOtj2y9VWrc_354.mp4	0.0	236.585706949234	2.5073089599609375
63	175.33195900917053	fix_post	2		12.0	61.0	2.5	/experiments/knapen_aot/videos/S_yt-hOtj2y9VWrc_354.mp4	0.0	239.09301590919495	0.10007596015930176
64	175.43203496932983	fix_pre	0		29.0	62.0	2.5	/experiments/knapen_aot/videos/S_yt-tqxZlasEvZA_43.mp4	0.0	239.19309186935425	0.24166202545166016
64	175.66556119918823	response	0	2		62.0	2.5	/experiments/knapen_aot/videos/S_yt-tqxZlasEvZA_43.mp4	0.0	239.42661809921265	
64	175.6736969947815	movie	1		301.0	62.0	2.5	/experiments/knapen_aot/videos/S_yt-tqxZlasEvZA_43.mp4	0.0	239.4347538948059	2.508345127105713
64	178.1820421218872	fix_post	2		12.0	62.0	2.5	/experiments/knapen_aot/videos/S_yt-tqxZlasEvZA_43.mp4	0.0	241.94309902191162	0.10000395774841309
65	178.28204607963562	fix_pre	0		44.0	63.0	2.5	blank	1.0	242.04310297966003	0.36666297912597656
65	178.64057207107544	response	0	2		63.0	2.5	blank	1.0	242.40162897109985	
65	178.6487090587616	movie	1		301.0	63.0	2.5	blank	1.0	242.409765958786	2.508342981338501
65	181.1570520401001	fix_post	2		12.0	63.0	2.5	blank	1.0	244.9181089401245	0.09995603561401367
66	181.2570080757141	fix_pre	0		17.0	64.0	2.5	/experiments/knapen_aot/videos/R_S_X-D3lUv-atE_376.mp4	0.0	245.01806497573853	0.14170408248901367
66	181.39045119285583	response	0	2		64.0	2.5	/experiments/knapen_aot/videos/R_S_X-D3lUv-atE_376.mp4	0.0	245.15150809288025	
66	181.39871215820312	movie	1		301.0	64.0	2.5	/experiments/knapen_aot/videos/R_S_X-D3lUv-atE_376.mp4	0.0	245.15976905822754	2.508291006088257
66	183.90700316429138	fix_post	2		12.0	64.0	2.5	/experiments/knapen_aot/videos/R_S_X-D3lUv-atE_376.mp4	0.0	247.6680600643158	0.09994888305664062
67	184.00695204734802	fix_pre	0		17.0	65.0	2.5	/experiments/knapen_aot/videos/S_pexels-rodnae-productions-7467585.mp4	0.0	247.76800894737244	0.1417219638824463
67	184.1405050754547	response	0	2		65.0	2.5	/experiments/knapen_aot/videos/S_pexels-rodnae-productions-7467585.mp4	0.0	247.90156197547913	
67	184.14867401123047	movie	1		165.0	65.0	2.5	/experiments/knapen_aot/videos/S_pexels-rodnae-productions-7467585.mp4	0.0	247.90973091125488	2.5083250999450684
67	186.65699911117554	fix_post	2		12.0	65.0	2.5	/experiments/knapen_aot/videos/S_pexels-rodnae-productions-7467585.mp4	0.0	250.41805601119995	0.10002803802490234
68	186.75702714920044	fix_pre	0		22.0	66.0	2.5	/experiments/knapen_aot/videos/S__9v_wUywaAA_35.mp4	0.0	250.51808404922485	0.18332195281982422
68	186.9321210384369	response	0	2		66.0	2.5	/experiments/knapen_aot/videos/S__9v_wUywaAA_35.mp4	0.0	250.6931779384613	
68	186.94034910202026	movie	1		301.0	66.0	2.5	/experiments/knapen_aot/videos/S__9v_wUywaAA_35.mp4	0.0	250.70140600204468	2.50833797454834
68	189.4486870765686	fix_post	2		12.0	66.0	2.5	/experiments/knapen_aot/videos/S__9v_wUywaAA_35.mp4	0.0	253.20974397659302	0.09994196891784668
69	189.54862904548645	fix_pre	0		20.0	67.0	2.5	/experiments/knapen_aot/videos/R_S_yt-thmqgEV-sYY_91.mp4	0.0	253.30968594551086	0.1666560173034668
69	189.70718717575073	response	0	2		67.0	2.5	/experiments/knapen_aot/videos/R_S_yt-thmqgEV-sYY_91.mp4	0.0	253.46824407577515	
69	189.71528506278992	movie	1		301.0	67.0	2.5	/experiments/knapen_aot/videos/R_S_yt-thmqgEV-sYY_91.mp4	0.0	253.47634196281433	2.508294105529785
69	192.2235791683197	fix_post	2		12.0	67.0	2.5	/experiments/knapen_aot/videos/R_S_yt-thmqgEV-sYY_91.mp4	0.0	255.98463606834412	0.10003995895385742
70	192.32361912727356	fix_pre	0		31.0	68.0	2.5	/experiments/knapen_aot/videos/R_S_yt-RMjo2PPEPEA_112.mp4	0.0	256.084676027298	0.2583179473876953
70	192.57370710372925	response	0	2		68.0	2.5	/experiments/knapen_aot/videos/R_S_yt-RMjo2PPEPEA_112.mp4	0.0	256.33476400375366	
70	192.58193707466125	movie	1		301.0	68.0	2.5	/experiments/knapen_aot/videos/R_S_yt-RMjo2PPEPEA_112.mp4	0.0	256.34299397468567	2.508352041244507
70	195.09028911590576	fix_post	2		12.0	68.0	2.5	/experiments/knapen_aot/videos/R_S_yt-RMjo2PPEPEA_112.mp4	0.0	258.8513460159302	0.09999394416809082
71	195.19028306007385	fix_pre	0		44.0	69.0	2.5	/experiments/knapen_aot/videos/S_yt-khmJAQuCRRE_119.mp4	0.0	258.95133996009827	0.3666529655456543
71	195.54875111579895	response	0	2		69.0	2.5	/experiments/knapen_aot/videos/S_yt-khmJAQuCRRE_119.mp4	0.0	259.30980801582336	
71	195.5569360256195	movie	1		301.0	69.0	2.5	/experiments/knapen_aot/videos/S_yt-khmJAQuCRRE_119.mp4	0.0	259.3179929256439	2.5083529949188232
71	198.06528902053833	fix_post	2		12.0	69.0	2.5	/experiments/knapen_aot/videos/S_yt-khmJAQuCRRE_119.mp4	0.0	261.82634592056274	0.09993505477905273
72	198.16522407531738	fix_pre	0		9.0	70.0	2.5	blank	1.0	261.9262809753418	0.07593297958374023
72	198.23237013816833	response	0	2		70.0	2.5	blank	1.0	261.99342703819275	
72	198.24115705490112	movie	1		301.0	70.0	2.5	blank	1.0	262.00221395492554	2.5074210166931152
72	200.74857807159424	fix_post	2		12.0	70.0	2.5	blank	1.0	264.50963497161865	0.1000521183013916
73	200.84863018989563	fix_pre	0		40.0	71.0	2.5	/experiments/knapen_aot/videos/R_S_yt-FE5srhxadno_73.mp4	0.0	264.60968708992004	0.333284854888916
73	201.1662871837616	response	0	2		71.0	2.5	/experiments/knapen_aot/videos/R_S_yt-FE5srhxadno_73.mp4	0.0	264.927344083786	
73	201.18191504478455	movie	1		301.0	71.0	2.5	/experiments/knapen_aot/videos/R_S_yt-FE5srhxadno_73.mp4	0.0	264.94297194480896	2.5083789825439453
73	203.6902940273285	fix_post	2		12.0	71.0	2.5	/experiments/knapen_aot/videos/R_S_yt-FE5srhxadno_73.mp4	0.0	267.4513509273529	0.09994912147521973
74	203.7902431488037	fix_pre	0		30.0	72.0	2.5	/experiments/knapen_aot/videos/S_yt-9Ow95khYa_M_91.mp4	0.0	267.5513000488281	0.24999785423278809
74	204.03209114074707	response	0	2		72.0	2.5	/experiments/knapen_aot/videos/S_yt-9Ow95khYa_M_91.mp4	0.0	267.7931480407715	
74	204.0402410030365	movie	1		301.0	72.0	2.5	/experiments/knapen_aot/videos/S_yt-9Ow95khYa_M_91.mp4	0.0	267.8012979030609	2.508327007293701
74	206.5485680103302	fix_post	2		12.0	72.0	2.5	/experiments/knapen_aot/videos/S_yt-9Ow95khYa_M_91.mp4	0.0	270.3096249103546	0.09990906715393066
75	206.64847707748413	fix_pre	0		6.0	73.0	2.5	/experiments/knapen_aot/videos/R_S_ILSVRC2015_train_00551000.mp4	0.0	270.40953397750854	0.05122995376586914
75	206.6904411315918	response	0	2		73.0	2.5	/experiments/knapen_aot/videos/R_S_ILSVRC2015_train_00551000.mp4	0.0	270.4514980316162	
75	206.69970703125	movie	1		301.0	73.0	2.5	/experiments/knapen_aot/videos/R_S_ILSVRC2015_train_00551000.mp4	0.0	270.4607639312744	2.5071849822998047
75	209.2068920135498	fix_post	2		12.0	73.0	2.5	/experiments/knapen_aot/videos/R_S_ILSVRC2015_train_00551000.mp4	0.0	272.9679489135742	0.10003805160522461
76	209.30693006515503	fix_pre	0		27.0	74.0	2.5	/experiments/knapen_aot/videos/R_S_yt-7Ya-rGPO8cM_159.mp4	0.0	273.06798696517944	0.22568893432617188
76	209.52366399765015	response	0	2		74.0	2.5	/experiments/knapen_aot/videos/R_S_yt-7Ya-rGPO8cM_159.mp4	0.0	273.28472089767456	
76	209.5326189994812	movie	1		301.0	74.0	2.5	/experiments/knapen_aot/videos/R_S_yt-7Ya-rGPO8cM_159.mp4	0.0	273.2936758995056	2.5075671672821045
76	212.0401861667633	fix_post	2		12.0	74.0	2.5	/experiments/knapen_aot/videos/R_S_yt-7Ya-rGPO8cM_159.mp4	0.0	275.8012430667877	0.10004496574401855
77	212.14023113250732	fix_pre	0		8.0	75.0	2.5	blank	1.0	275.90128803253174	0.06662106513977051
77	212.19872498512268	response	0	2		75.0	2.5	blank	1.0	275.9597818851471	
77	212.2068521976471	movie	1		301.0	75.0	2.5	blank	1.0	275.9679090976715	2.5083069801330566
77	214.71515917778015	fix_post	2		12.0	75.0	2.5	blank	1.0	278.47621607780457	0.10007786750793457
77	214.71685099601746	response	2	2		75.0	2.5	blank	1.0	278.47790789604187	
78	214.8152370452881	fix_pre	0		19.0	76.0	2.5	/experiments/knapen_aot/videos/R_S_ILSVRC2015_train_00303008.mp4	0.0	278.5762939453125	0.158311128616333
78	214.96534514427185	response	0	2		76.0	2.5	/experiments/knapen_aot/videos/R_S_ILSVRC2015_train_00303008.mp4	0.0	278.72640204429626	
78	214.97354817390442	movie	1		301.0	76.0	2.5	/experiments/knapen_aot/videos/R_S_ILSVRC2015_train_00303008.mp4	0.0	278.73460507392883	2.5082778930664062
78	217.48182606697083	fix_post	2		12.0	76.0	2.5	/experiments/knapen_aot/videos/R_S_ILSVRC2015_train_00303008.mp4	0.0	281.24288296699524	0.10003399848937988
79	217.5818600654602	fix_pre	0		25.0	77.0	2.5	/experiments/knapen_aot/videos/R_S_yt-ZTAaH5XbtfE_3.mp4	0.0	281.3429169654846	0.20830297470092773
79	217.78198099136353	response	0	2		77.0	2.5	/experiments/knapen_aot/videos/R_S_yt-ZTAaH5XbtfE_3.mp4	0.0	281.54303789138794	
79	217.79016304016113	movie	1		301.0	77.0	2.5	/experiments/knapen_aot/videos/R_S_yt-ZTAaH5XbtfE_3.mp4	0.0	281.55121994018555	2.5083730220794678
79	220.2985360622406	fix_post	2		12.0	77.0	2.5	/experiments/knapen_aot/videos/R_S_yt-ZTAaH5XbtfE_3.mp4	0.0	284.059592962265	0.09998393058776855
80	220.39851999282837	fix_pre	0		6.0	78.0	2.5	/experiments/knapen_aot/videos/R_S_yt-VQtbKGzI9SE_431.mp4	0.0	284.1595768928528	0.05069708824157715
80	220.4327630996704	response	0	2		78.0	2.5	/experiments/knapen_aot/videos/R_S_yt-VQtbKGzI9SE_431.mp4	0.0	284.1938199996948	
80	220.44921708106995	movie	1		300.0	78.0	2.5	/experiments/knapen_aot/videos/R_S_yt-VQtbKGzI9SE_431.mp4	0.0	284.21027398109436	2.5076000690460205
80	222.95681715011597	fix_post	2		12.0	78.0	2.5	/experiments/knapen_aot/videos/R_S_yt-VQtbKGzI9SE_431.mp4	0.0	286.7178740501404	0.10003900527954102
81	223.0568561553955	fix_pre	0		9.0	79.0	2.5	/experiments/knapen_aot/videos/R_S_yt-VJ65ukWmdxQ_193.mp4	0.0	286.8179130554199	0.07497096061706543
81	223.1236641407013	response	0	2		79.0	2.5	/experiments/knapen_aot/videos/R_S_yt-VJ65ukWmdxQ_193.mp4	0.0	286.8847210407257	
81	223.13182711601257	movie	1		301.0	79.0	2.5	/experiments/knapen_aot/videos/R_S_yt-VJ65ukWmdxQ_193.mp4	0.0	286.892884016037	2.5083329677581787
81	225.64016008377075	fix_post	2		12.0	79.0	2.5	/experiments/knapen_aot/videos/R_S_yt-VJ65ukWmdxQ_193.mp4	0.0	289.40121698379517	0.09997200965881348
82	225.74013209342957	fix_pre	0		13.0	80.0	2.5	/experiments/knapen_aot/videos/R_S_pexels-roman-odintsov-8233166.mp4	0.0	289.501188993454	0.10833096504211426
82	225.8403091430664	response	0	2		80.0	2.5	/experiments/knapen_aot/videos/R_S_pexels-roman-odintsov-8233166.mp4	0.0	289.6013660430908	
82	225.84846305847168	movie	1		206.0	80.0	2.5	/experiments/knapen_aot/videos/R_S_pexels-roman-odintsov-8233166.mp4	0.0	289.6095199584961	2.5083861351013184
82	228.356849193573	fix_post	2		12.0	80.0	2.5	/experiments/knapen_aot/videos/R_S_pexels-roman-odintsov-8233166.mp4	0.0	292.1179060935974	0.0999448299407959
83	228.4567940235138	fix_pre	0		67.0	81.0	2.5	/experiments/knapen_aot/videos/S_yt-Q5wYs9vSzlA_30.mp4	0.0	292.2178509235382	0.5583760738372803
83	229.00699615478516	response	0	2		81.0	2.5	/experiments/knapen_aot/videos/S_yt-Q5wYs9vSzlA_30.mp4	0.0	292.76805305480957	
83	229.01517009735107	movie	1		301.0	81.0	2.5	/experiments/knapen_aot/videos/S_yt-Q5wYs9vSzlA_30.mp4	0.0	292.7762269973755	2.5082740783691406
83	231.52344417572021	fix_post	2		12.0	81.0	2.5	/experiments/knapen_aot/videos/S_yt-Q5wYs9vSzlA_30.mp4	0.0	295.28450107574463	0.10004496574401855
84	231.62348914146423	fix_pre	0		19.0	82.0	2.5	/experiments/knapen_aot/videos/S_ILSVRC2015_train_00568000.mp4	0.0	295.38454604148865	0.15889596939086914
84	231.77368712425232	response	0	2		82.0	2.5	/experiments/knapen_aot/videos/S_ILSVRC2015_train_00568000.mp4	0.0	295.53474402427673	
84	231.7823851108551	movie	1		301.0	82.0	2.5	/experiments/knapen_aot/videos/S_ILSVRC2015_train_00568000.mp4	0.0	295.5434420108795	2.5077500343322754
84	234.29013514518738	fix_post	2		12.0	82.0	2.5	/experiments/knapen_aot/videos/S_ILSVRC2015_train_00568000.mp4	0.0	298.0511920452118	0.10002899169921875
85	234.3901641368866	fix_pre	0		19.0	83.0	2.5	blank	1.0	298.151221036911	0.15832304954528809
85	234.54029202461243	response	0	2		83.0	2.5	blank	1.0	298.30134892463684	
85	234.54848718643188	movie	1		301.0	83.0	2.5	blank	1.0	298.3095440864563	2.5082337856292725
85	237.05672097206116	fix_post	2		12.0	83.0	2.5	blank	1.0	300.81777787208557	0.10069108009338379
87	237.15741205215454	stim	0		127.0					300.91846895217896	1.0577139854431152
87	237.4247441291809	response	0	2						301.1858010292053	
87	238.20984506607056	response	0	space						301.97090196609497	
