trial_nr	onset	event_type	phase	response	nr_frames	movie_index	movie_duration	movie_file	blank	onset_abs	duration
0	0.12463188171386719	stim	0		44.0					187.30457305908203	0.3668661117553711
0	0.48305201530456543	response	0	space						187.66299319267273	
1	0.4914979934692383	stim	0		121.0					187.6714391708374	1.007706880569458
1	1.2159109115600586	response	0	space						188.39585208892822	
1	1.4992048740386963	stim	1		120.0					188.67914605140686	1.0000641345977783
1	2.015918016433716	response	1	space						189.19585919380188	
1	2.3908469676971436	response	1	space						189.5707881450653	
2	2.4992690086364746	fix_pre	0		136.0	0.0	2.5	/experiments/knapen_aot/videos/S_yt-Xs7TCzdnUJQ_79.mp4	0.0	189.67921018600464	1.1331770420074463
2	3.62426495552063	response	0	space		0.0	2.5	/experiments/knapen_aot/videos/S_yt-Xs7TCzdnUJQ_79.mp4	0.0	190.8042061328888	
2	3.632446050643921	movie	1		301.0	0.0	2.5	/experiments/knapen_aot/videos/S_yt-Xs7TCzdnUJQ_79.mp4	0.0	190.81238722801208	2.508420944213867
2	6.140866994857788	fix_post	2		12.0	0.0	2.5	/experiments/knapen_aot/videos/S_yt-Xs7TCzdnUJQ_79.mp4	0.0	193.32080817222595	0.10008096694946289
3	6.240947961807251	fix_pre	0		31.0	1.0	2.5	/experiments/knapen_aot/videos/S_yt-r2jZ0zZrqzQ_45.mp4	0.0	193.42088913917542	0.25818800926208496
3	6.494884014129639	response	0	2		1.0	2.5	/experiments/knapen_aot/videos/S_yt-r2jZ0zZrqzQ_45.mp4	0.0	193.6748251914978	
3	6.499135971069336	movie	1		300.0	1.0	2.5	/experiments/knapen_aot/videos/S_yt-r2jZ0zZrqzQ_45.mp4	0.0	193.6790771484375	2.508439064025879
3	9.007575035095215	fix_post	2		12.0	1.0	2.5	/experiments/knapen_aot/videos/S_yt-r2jZ0zZrqzQ_45.mp4	0.0	196.18751621246338	0.09993386268615723
4	9.107508897781372	fix_pre	0		36.0	2.0	2.5	/experiments/knapen_aot/videos/R_S_G007_C004_UHD_SDR_2K_AVC.mp4	0.0	196.28745007514954	0.30004096031188965
4	9.399415016174316	response	0	2		2.0	2.5	/experiments/knapen_aot/videos/R_S_G007_C004_UHD_SDR_2K_AVC.mp4	0.0	196.57935619354248	
4	9.407549858093262	movie	1		177.0	2.0	2.5	/experiments/knapen_aot/videos/R_S_G007_C004_UHD_SDR_2K_AVC.mp4	0.0	196.58749103546143	2.508294105529785
4	11.915843963623047	fix_post	2		12.0	2.0	2.5	/experiments/knapen_aot/videos/R_S_G007_C004_UHD_SDR_2K_AVC.mp4	0.0	199.0957851409912	0.09998488426208496
5	12.015828847885132	fix_pre	0		30.0	3.0	2.5	/experiments/knapen_aot/videos/R_S_yt-2lnxIdOTxog_157.mp4	0.0	199.1957700252533	0.24997806549072266
5	12.257515907287598	response	0	2		3.0	2.5	/experiments/knapen_aot/videos/R_S_yt-2lnxIdOTxog_157.mp4	0.0	199.43745708465576	
5	12.265806913375854	movie	1		301.0	3.0	2.5	/experiments/knapen_aot/videos/R_S_yt-2lnxIdOTxog_157.mp4	0.0	199.44574809074402	2.5082919597625732
5	14.774098873138428	fix_post	2		12.0	3.0	2.5	/experiments/knapen_aot/videos/R_S_yt-2lnxIdOTxog_157.mp4	0.0	201.9540400505066	0.10003900527954102
6	14.874137878417969	fix_pre	0		36.0	4.0	2.5	/experiments/knapen_aot/videos/S_yt-fk-z6WCvjjA_3.mp4	0.0	202.05407905578613	0.299976110458374
6	15.165940999984741	response	0	2		4.0	2.5	/experiments/knapen_aot/videos/S_yt-fk-z6WCvjjA_3.mp4	0.0	202.3458821773529	
6	15.174113988876343	movie	1		301.0	4.0	2.5	/experiments/knapen_aot/videos/S_yt-fk-z6WCvjjA_3.mp4	0.0	202.3540551662445	2.508333921432495
6	17.682447910308838	fix_post	2		12.0	4.0	2.5	/experiments/knapen_aot/videos/S_yt-fk-z6WCvjjA_3.mp4	0.0	204.862389087677	0.10009098052978516
7	17.782538890838623	fix_pre	0		42.0	5.0	2.5	/experiments/knapen_aot/videos/R_S_yt-3eQHOLBzOqA_100.mp4	0.0	204.9624800682068	0.34988999366760254
7	18.12421202659607	response	0	2		5.0	2.5	/experiments/knapen_aot/videos/R_S_yt-3eQHOLBzOqA_100.mp4	0.0	205.30415320396423	
7	18.132428884506226	movie	1		301.0	5.0	2.5	/experiments/knapen_aot/videos/R_S_yt-3eQHOLBzOqA_100.mp4	0.0	205.3123700618744	2.50871205329895
7	20.641140937805176	fix_post	2		12.0	5.0	2.5	/experiments/knapen_aot/videos/R_S_yt-3eQHOLBzOqA_100.mp4	0.0	207.82108211517334	0.09965896606445312
8	20.74079990386963	fix_pre	0		44.0	6.0	2.5	/experiments/knapen_aot/videos/S_yt-fGN7sGPy8BA_13.mp4	0.0	207.9207410812378	0.3665950298309326
8	21.09922504425049	response	0	2		6.0	2.5	/experiments/knapen_aot/videos/S_yt-fGN7sGPy8BA_13.mp4	0.0	208.27916622161865	
8	21.10739493370056	movie	1		301.0	6.0	2.5	/experiments/knapen_aot/videos/S_yt-fGN7sGPy8BA_13.mp4	0.0	208.28733611106873	2.5089221000671387
8	23.6163170337677	fix_post	2		12.0	6.0	2.5	/experiments/knapen_aot/videos/S_yt-fGN7sGPy8BA_13.mp4	0.0	210.79625821113586	0.09946298599243164
9	23.715780019760132	fix_pre	0		61.0	7.0	2.5	blank	1.0	210.8957211971283	0.5082039833068848
9	24.21589183807373	response	0	2		7.0	2.5	blank	1.0	211.3958330154419	
9	24.223984003067017	movie	1		301.0	7.0	2.5	blank	1.0	211.40392518043518	2.508375883102417
9	26.732359886169434	fix_post	2		12.0	7.0	2.5	blank	1.0	213.9123010635376	0.10014200210571289
10	26.832501888275146	fix_pre	0		66.0	8.0	2.5	/experiments/knapen_aot/videos/R_S_yt-Iu2ZPHLqXuY_32.mp4	0.0	214.0124430656433	0.549875020980835
10	27.366724967956543	response	0	2		8.0	2.5	/experiments/knapen_aot/videos/R_S_yt-Iu2ZPHLqXuY_32.mp4	0.0	214.5466661453247	
10	27.38237690925598	movie	1		301.0	8.0	2.5	/experiments/knapen_aot/videos/R_S_yt-Iu2ZPHLqXuY_32.mp4	0.0	214.56231808662415	2.5083460807800293
10	29.89072299003601	fix_post	2		12.0	8.0	2.5	/experiments/knapen_aot/videos/R_S_yt-Iu2ZPHLqXuY_32.mp4	0.0	217.07066416740417	0.10004091262817383
11	29.990763902664185	fix_pre	0		39.0	9.0	2.5	/experiments/knapen_aot/videos/S_yt-EZCX42e_bkc_78.mp4	0.0	217.17070508003235	0.32497191429138184
11	30.307570934295654	response	0	2		9.0	2.5	/experiments/knapen_aot/videos/S_yt-EZCX42e_bkc_78.mp4	0.0	217.48751211166382	
11	30.315735816955566	movie	1		301.0	9.0	2.5	/experiments/knapen_aot/videos/S_yt-EZCX42e_bkc_78.mp4	0.0	217.49567699432373	2.5083601474761963
11	32.82409596443176	fix_post	2		12.0	9.0	2.5	/experiments/knapen_aot/videos/S_yt-EZCX42e_bkc_78.mp4	0.0	220.00403714179993	0.10001206398010254
12	32.924108028411865	fix_pre	0		34.0	10.0	2.5	/experiments/knapen_aot/videos/R_S_ILSVRC2015_train_00572001.mp4	0.0	220.10404920578003	0.28327488899230957
12	33.19914197921753	response	0	2		10.0	2.5	/experiments/knapen_aot/videos/R_S_ILSVRC2015_train_00572001.mp4	0.0	220.3790831565857	
12	33.207382917404175	movie	1		301.0	10.0	2.5	/experiments/knapen_aot/videos/R_S_ILSVRC2015_train_00572001.mp4	0.0	220.38732409477234	2.5083699226379395
12	35.715752840042114	fix_post	2		12.0	10.0	2.5	/experiments/knapen_aot/videos/R_S_ILSVRC2015_train_00572001.mp4	0.0	222.89569401741028	0.09999299049377441
13	35.81574583053589	fix_pre	0		44.0	11.0	2.5	/experiments/knapen_aot/videos/S_production_ID_3735542.mp4	0.0	222.99568700790405	0.36664605140686035
13	36.17412090301514	response	0	2		11.0	2.5	/experiments/knapen_aot/videos/S_production_ID_3735542.mp4	0.0	223.3540620803833	
13	36.18239188194275	movie	1		163.0	11.0	2.5	/experiments/knapen_aot/videos/S_production_ID_3735542.mp4	0.0	223.3623330593109	2.50832200050354
13	38.69071388244629	fix_post	2		12.0	11.0	2.5	/experiments/knapen_aot/videos/S_production_ID_3735542.mp4	0.0	225.87065505981445	0.10004305839538574
14	38.790756940841675	fix_pre	0		29.0	12.0	2.5	blank	1.0	225.97069811820984	0.24161100387573242
14	39.02412700653076	response	0	2		12.0	2.5	blank	1.0	226.20406818389893	
14	39.03236794471741	movie	1		301.0	12.0	2.5	blank	1.0	226.21230912208557	2.508307933807373
14	41.54067587852478	fix_post	2		12.0	12.0	2.5	blank	1.0	228.72061705589294	0.10002303123474121
15	41.64069890975952	fix_pre	0		43.0	13.0	2.5	/experiments/knapen_aot/videos/R_S_pexels-koolshooters-7689098.mp4	0.0	228.82064008712769	0.35826611518859863
15	41.990779876708984	response	0	2		13.0	2.5	/experiments/knapen_aot/videos/R_S_pexels-koolshooters-7689098.mp4	0.0	229.17072105407715	
15	41.99896502494812	movie	1		164.0	13.0	2.5	/experiments/knapen_aot/videos/R_S_pexels-koolshooters-7689098.mp4	0.0	229.17890620231628	2.508368968963623
15	44.50733399391174	fix_post	2		12.0	13.0	2.5	/experiments/knapen_aot/videos/R_S_pexels-koolshooters-7689098.mp4	0.0	231.6872751712799	0.10003304481506348
16	44.60736703872681	fix_pre	0		36.0	14.0	2.5	/experiments/knapen_aot/videos/R_S_yt-C0iWlRWU21o_5.mp4	0.0	231.78730821609497	0.2999730110168457
16	44.89915704727173	response	0	2		14.0	2.5	/experiments/knapen_aot/videos/R_S_yt-C0iWlRWU21o_5.mp4	0.0	232.0790982246399	
16	44.90734004974365	movie	1		301.0	14.0	2.5	/experiments/knapen_aot/videos/R_S_yt-C0iWlRWU21o_5.mp4	0.0	232.08728122711182	2.508349895477295
16	47.41568994522095	fix_post	2		12.0	14.0	2.5	/experiments/knapen_aot/videos/R_S_yt-C0iWlRWU21o_5.mp4	0.0	234.5956311225891	0.09999608993530273
17	47.51568603515625	fix_pre	0		42.0	15.0	2.5	/experiments/knapen_aot/videos/S_yt-XbigWWtnGL4_75.mp4	0.0	234.6956272125244	0.34996700286865234
17	47.85743594169617	response	0	2		15.0	2.5	/experiments/knapen_aot/videos/S_yt-XbigWWtnGL4_75.mp4	0.0	235.03737711906433	
17	47.8656530380249	movie	1		301.0	15.0	2.5	/experiments/knapen_aot/videos/S_yt-XbigWWtnGL4_75.mp4	0.0	235.04559421539307	2.508535861968994
17	50.3741888999939	fix_post	2		12.0	15.0	2.5	/experiments/knapen_aot/videos/S_yt-XbigWWtnGL4_75.mp4	0.0	237.55413007736206	0.09982705116271973
18	50.474015951156616	fix_pre	0		41.0	16.0	2.5	/experiments/knapen_aot/videos/R_S_ILSVRC2015_train_00697001.mp4	0.0	237.65395712852478	0.34290504455566406
18	50.807425022125244	response	0	2		16.0	2.5	/experiments/knapen_aot/videos/R_S_ILSVRC2015_train_00697001.mp4	0.0	237.9873661994934	
18	50.81692099571228	movie	1		301.0	16.0	2.5	/experiments/knapen_aot/videos/R_S_ILSVRC2015_train_00697001.mp4	0.0	237.99686217308044	2.507030963897705
18	53.323951959609985	fix_post	2		12.0	16.0	2.5	/experiments/knapen_aot/videos/R_S_ILSVRC2015_train_00697001.mp4	0.0	240.50389313697815	0.10002899169921875
19	53.423980951309204	fix_pre	0		41.0	17.0	2.5	/experiments/knapen_aot/videos/R_S_yt-xrWo3lnbshw_80.mp4	0.0	240.60392212867737	0.34162187576293945
19	53.749948024749756	response	0	2		17.0	2.5	/experiments/knapen_aot/videos/R_S_yt-xrWo3lnbshw_80.mp4	0.0	240.92988920211792	
19	53.765602827072144	movie	1		301.0	17.0	2.5	/experiments/knapen_aot/videos/R_S_yt-xrWo3lnbshw_80.mp4	0.0	240.9455440044403	2.5083680152893066
19	56.27397084236145	fix_post	2		12.0	17.0	2.5	/experiments/knapen_aot/videos/R_S_yt-xrWo3lnbshw_80.mp4	0.0	243.45391201972961	0.1000361442565918
20	56.37400698661804	fix_pre	0		30.0	18.0	2.5	/experiments/knapen_aot/videos/R_S_yt-GO26QIueqRw_385.mp4	0.0	243.5539481639862	0.25000596046447754
20	56.61586284637451	response	0	2		18.0	2.5	/experiments/knapen_aot/videos/R_S_yt-GO26QIueqRw_385.mp4	0.0	243.79580402374268	
20	56.62401294708252	movie	1		301.0	18.0	2.5	/experiments/knapen_aot/videos/R_S_yt-GO26QIueqRw_385.mp4	0.0	243.80395412445068	2.5082359313964844
20	59.132248878479004	fix_post	2		12.0	18.0	2.5	/experiments/knapen_aot/videos/R_S_yt-GO26QIueqRw_385.mp4	0.0	246.31219005584717	0.10004496574401855
21	59.23229384422302	fix_pre	0		25.0	19.0	2.5	/experiments/knapen_aot/videos/S_RS_A008_C010_SDR_20191218_SDR_2K_AVC.mp4	0.0	246.4122350215912	0.2095479965209961
21	59.43247199058533	response	0	2		19.0	2.5	/experiments/knapen_aot/videos/S_RS_A008_C010_SDR_20191218_SDR_2K_AVC.mp4	0.0	246.6124131679535	
21	59.44184184074402	movie	1		169.0	19.0	2.5	/experiments/knapen_aot/videos/S_RS_A008_C010_SDR_20191218_SDR_2K_AVC.mp4	0.0	246.62178301811218	2.5070950984954834
21	61.9489369392395	fix_post	2		12.0	19.0	2.5	/experiments/knapen_aot/videos/S_RS_A008_C010_SDR_20191218_SDR_2K_AVC.mp4	0.0	249.12887811660767	0.10001111030578613
22	62.04894804954529	fix_pre	0		58.0	20.0	2.5	blank	1.0	249.22888922691345	0.4848899841308594
22	62.5165069103241	response	0	2		20.0	2.5	blank	1.0	249.69644808769226	
22	62.53383803367615	movie	1		301.0	20.0	2.5	blank	1.0	249.7137792110443	2.506755828857422
22	65.04059386253357	fix_post	2		12.0	20.0	2.5	blank	1.0	252.22053503990173	0.09996604919433594
23	65.1405599117279	fix_pre	0		43.0	21.0	2.5	/experiments/knapen_aot/videos/R_S_ILSVRC2015_train_00155004.mp4	0.0	252.32050108909607	0.35833311080932617
23	65.49063491821289	response	0	2		21.0	2.5	/experiments/knapen_aot/videos/R_S_ILSVRC2015_train_00155004.mp4	0.0	252.67057609558105	
23	65.49889302253723	movie	1		301.0	21.0	2.5	/experiments/knapen_aot/videos/R_S_ILSVRC2015_train_00155004.mp4	0.0	252.6788341999054	2.508356809616089
23	68.00724983215332	fix_post	2		12.0	21.0	2.5	/experiments/knapen_aot/videos/R_S_ILSVRC2015_train_00155004.mp4	0.0	255.18719100952148	0.1000361442565918
24	68.10728597640991	fix_pre	0		33.0	22.0	2.5	/experiments/knapen_aot/videos/R_S_yt-rY_ra5Tb9XU_51.mp4	0.0	255.28722715377808	0.27489399909973145
24	68.37405395507812	response	0	2		22.0	2.5	/experiments/knapen_aot/videos/R_S_yt-rY_ra5Tb9XU_51.mp4	0.0	255.5539951324463	
24	68.38217997550964	movie	1		301.0	22.0	2.5	/experiments/knapen_aot/videos/R_S_yt-rY_ra5Tb9XU_51.mp4	0.0	255.5621211528778	2.5084469318389893
24	70.89062690734863	fix_post	2		12.0	22.0	2.5	/experiments/knapen_aot/videos/R_S_yt-rY_ra5Tb9XU_51.mp4	0.0	258.0705680847168	0.09997892379760742
25	70.99060583114624	fix_pre	0		43.0	23.0	2.5	/experiments/knapen_aot/videos/R_S_CR_A009_C007_SDR_20191113_SDR_2K_AVC.mp4	0.0	258.1705470085144	0.3582730293273926
25	71.34067988395691	response	0	2		23.0	2.5	/experiments/knapen_aot/videos/R_S_CR_A009_C007_SDR_20191113_SDR_2K_AVC.mp4	0.0	258.5206210613251	
25	71.34887886047363	movie	1		165.0	23.0	2.5	/experiments/knapen_aot/videos/R_S_CR_A009_C007_SDR_20191113_SDR_2K_AVC.mp4	0.0	258.5288200378418	2.5083601474761963
25	73.85723900794983	fix_post	2		12.0	23.0	2.5	/experiments/knapen_aot/videos/R_S_CR_A009_C007_SDR_20191113_SDR_2K_AVC.mp4	0.0	261.037180185318	0.09994888305664062
26	73.95718789100647	fix_pre	0		41.0	24.0	2.5	/experiments/knapen_aot/videos/R_S_yt-IC62JSYpq9w_71.mp4	0.0	261.13712906837463	0.3416900634765625
26	74.29065299034119	response	0	2		24.0	2.5	/experiments/knapen_aot/videos/R_S_yt-IC62JSYpq9w_71.mp4	0.0	261.47059416770935	
26	74.29887795448303	movie	1		301.0	24.0	2.5	/experiments/knapen_aot/videos/R_S_yt-IC62JSYpq9w_71.mp4	0.0	261.4788191318512	2.508462905883789
26	76.80734086036682	fix_post	2		12.0	24.0	2.5	/experiments/knapen_aot/videos/R_S_yt-IC62JSYpq9w_71.mp4	0.0	263.987282037735	0.09986495971679688
27	76.90720582008362	fix_pre	0		49.0	25.0	2.5	/experiments/knapen_aot/videos/R_S_ILSVRC2015_train_00473001.mp4	0.0	264.0871469974518	0.40941619873046875
27	77.30721783638	response	0	2		25.0	2.5	/experiments/knapen_aot/videos/R_S_ILSVRC2015_train_00473001.mp4	0.0	264.48715901374817	
27	77.31662201881409	movie	1		301.0	25.0	2.5	/experiments/knapen_aot/videos/R_S_ILSVRC2015_train_00473001.mp4	0.0	264.49656319618225	2.50728702545166
27	79.82390904426575	fix_post	2		12.0	25.0	2.5	/experiments/knapen_aot/videos/R_S_ILSVRC2015_train_00473001.mp4	0.0	267.0038502216339	0.09990286827087402
28	79.92381191253662	fix_pre	0		47.0	26.0	2.5	blank	1.0	267.1037530899048	0.39173293113708496
28	80.30727100372314	response	0	2		26.0	2.5	blank	1.0	267.4872121810913	
28	80.3155448436737	movie	1		301.0	26.0	2.5	blank	1.0	267.49548602104187	2.5084609985351562
28	82.82400584220886	fix_post	2		12.0	26.0	2.5	blank	1.0	270.003947019577	0.09983110427856445
29	82.92383694648743	fix_pre	0		39.0	27.0	2.5	/experiments/knapen_aot/videos/S_yt-bQRBtP9zkms_111.mp4	0.0	270.1037781238556	0.3249778747558594
29	83.24060201644897	response	0	2		27.0	2.5	/experiments/knapen_aot/videos/S_yt-bQRBtP9zkms_111.mp4	0.0	270.42054319381714	
29	83.24881482124329	movie	1		301.0	27.0	2.5	/experiments/knapen_aot/videos/S_yt-bQRBtP9zkms_111.mp4	0.0	270.42875599861145	2.508404016494751
29	85.75721883773804	fix_post	2		12.0	27.0	2.5	/experiments/knapen_aot/videos/S_yt-bQRBtP9zkms_111.mp4	0.0	272.9371600151062	0.0999610424041748
30	85.85717988014221	fix_pre	0		34.0	28.0	2.5	/experiments/knapen_aot/videos/S_yt-l_ioasf6yHg_44.mp4	0.0	273.0371210575104	0.2833080291748047
30	86.13227200508118	response	0	2		28.0	2.5	/experiments/knapen_aot/videos/S_yt-l_ioasf6yHg_44.mp4	0.0	273.31221318244934	
30	86.14048790931702	movie	1		301.0	28.0	2.5	/experiments/knapen_aot/videos/S_yt-l_ioasf6yHg_44.mp4	0.0	273.3204290866852	2.5083200931549072
30	88.64880800247192	fix_post	2		12.0	28.0	2.5	/experiments/knapen_aot/videos/S_yt-l_ioasf6yHg_44.mp4	0.0	275.8287491798401	0.10016798973083496
31	88.74897599220276	fix_pre	0		39.0	29.0	2.5	/experiments/knapen_aot/videos/R_S_yt-AOP7QYQntPI_28.mp4	0.0	275.9289171695709	0.3248310089111328
31	89.06552982330322	response	0	2		29.0	2.5	/experiments/knapen_aot/videos/R_S_yt-AOP7QYQntPI_28.mp4	0.0	276.2454710006714	
31	89.07380700111389	movie	1		301.0	29.0	2.5	/experiments/knapen_aot/videos/R_S_yt-AOP7QYQntPI_28.mp4	0.0	276.25374817848206	2.508342981338501
31	91.58214998245239	fix_post	2		12.0	29.0	2.5	/experiments/knapen_aot/videos/R_S_yt-AOP7QYQntPI_28.mp4	0.0	278.76209115982056	0.09995889663696289
32	91.68210887908936	fix_pre	0		34.0	30.0	2.5	/experiments/knapen_aot/videos/R_S_ILSVRC2015_train_00418004.mp4	0.0	278.8620500564575	0.2833390235900879
32	91.957270860672	response	0	2		30.0	2.5	/experiments/knapen_aot/videos/R_S_ILSVRC2015_train_00418004.mp4	0.0	279.13721203804016	
32	91.96544790267944	movie	1		301.0	30.0	2.5	/experiments/knapen_aot/videos/R_S_ILSVRC2015_train_00418004.mp4	0.0	279.1453890800476	2.508561134338379
32	94.47400903701782	fix_post	2		12.0	30.0	2.5	/experiments/knapen_aot/videos/R_S_ILSVRC2015_train_00418004.mp4	0.0	281.653950214386	0.09984993934631348
33	94.57385897636414	fix_pre	0		31.0	31.0	2.5	/experiments/knapen_aot/videos/S_yt-xqHrTtvFFIs_3.mp4	0.0	281.7538001537323	0.258328914642334
33	94.82392382621765	response	0	2		31.0	2.5	/experiments/knapen_aot/videos/S_yt-xqHrTtvFFIs_3.mp4	0.0	282.0038650035858	
33	94.83218789100647	movie	1		301.0	31.0	2.5	/experiments/knapen_aot/videos/S_yt-xqHrTtvFFIs_3.mp4	0.0	282.01212906837463	2.508301019668579
33	97.34048891067505	fix_post	2		12.0	31.0	2.5	/experiments/knapen_aot/videos/S_yt-xqHrTtvFFIs_3.mp4	0.0	284.5204300880432	0.0999441146850586
34	97.44043302536011	fix_pre	0		40.0	32.0	2.5	/experiments/knapen_aot/videos/S_yt-z68VLDDCFdw_93.mp4	0.0	284.62037420272827	0.33440494537353516
34	97.76553201675415	response	0	2		32.0	2.5	/experiments/knapen_aot/videos/S_yt-z68VLDDCFdw_93.mp4	0.0	284.9454731941223	
34	97.77483797073364	movie	1		301.0	32.0	2.5	/experiments/knapen_aot/videos/S_yt-z68VLDDCFdw_93.mp4	0.0	284.9547791481018	2.5072638988494873
34	100.28210186958313	fix_post	2		12.0	32.0	2.5	/experiments/knapen_aot/videos/S_yt-z68VLDDCFdw_93.mp4	0.0	287.4620430469513	0.10004615783691406
35	100.38214802742004	fix_pre	0		43.0	33.0	2.5	/experiments/knapen_aot/videos/S_yt-n2PnABmSpxI_115.mp4	0.0	287.5620892047882	0.3582439422607422
35	100.73224186897278	response	0	2		33.0	2.5	/experiments/knapen_aot/videos/S_yt-n2PnABmSpxI_115.mp4	0.0	287.91218304634094	
35	100.74039196968079	movie	1		301.0	33.0	2.5	/experiments/knapen_aot/videos/S_yt-n2PnABmSpxI_115.mp4	0.0	287.92033314704895	2.5083630084991455
35	103.24875497817993	fix_post	2		12.0	33.0	2.5	/experiments/knapen_aot/videos/S_yt-n2PnABmSpxI_115.mp4	0.0	290.4286961555481	0.09998106956481934
36	103.34873604774475	fix_pre	0		32.0	34.0	2.5	blank	1.0	290.5286772251129	0.26668596267700195
36	103.60723900794983	response	0	2		34.0	2.5	blank	1.0	290.787180185318	
36	103.61542201042175	movie	1		301.0	34.0	2.5	blank	1.0	290.7953631877899	2.5083680152893066
36	106.12379002571106	fix_post	2		12.0	34.0	2.5	blank	1.0	293.3037312030792	0.10002398490905762
37	106.22381401062012	fix_pre	0		47.0	35.0	2.5	/experiments/knapen_aot/videos/R_S_ILSVRC2015_train_00517000.mp4	0.0	293.4037551879883	0.3915128707885742
37	106.6071548461914	response	0	2		35.0	2.5	/experiments/knapen_aot/videos/R_S_ILSVRC2015_train_00517000.mp4	0.0	293.78709602355957	
37	106.61532688140869	movie	1		301.0	35.0	2.5	/experiments/knapen_aot/videos/R_S_ILSVRC2015_train_00517000.mp4	0.0	293.79526805877686	2.508358955383301
37	109.12368583679199	fix_post	2		12.0	35.0	2.5	/experiments/knapen_aot/videos/R_S_ILSVRC2015_train_00517000.mp4	0.0	296.30362701416016	0.1000220775604248
38	109.22370791435242	fix_pre	0		36.0	36.0	2.5	/experiments/knapen_aot/videos/R_S_production_ID_3735542.mp4	0.0	296.4036490917206	0.30092310905456543
38	109.51550197601318	response	0	2		36.0	2.5	/experiments/knapen_aot/videos/R_S_production_ID_3735542.mp4	0.0	296.69544315338135	
38	109.52463102340698	movie	1		165.0	36.0	2.5	/experiments/knapen_aot/videos/R_S_production_ID_3735542.mp4	0.0	296.70457220077515	2.5073838233947754
38	112.03201484680176	fix_post	2		12.0	36.0	2.5	/experiments/knapen_aot/videos/R_S_production_ID_3735542.mp4	0.0	299.2119560241699	0.09993600845336914
39	112.13195085525513	fix_pre	0		37.0	37.0	2.5	/experiments/knapen_aot/videos/R_S_yt-ol2u_-gd0-o_13.mp4	0.0	299.3118920326233	0.3093750476837158
39	112.43217086791992	response	0	2		37.0	2.5	/experiments/knapen_aot/videos/R_S_yt-ol2u_-gd0-o_13.mp4	0.0	299.6121120452881	
39	112.44132590293884	movie	1		301.0	37.0	2.5	/experiments/knapen_aot/videos/R_S_yt-ol2u_-gd0-o_13.mp4	0.0	299.621267080307	2.507373094558716
39	114.94869899749756	fix_post	2		12.0	37.0	2.5	/experiments/knapen_aot/videos/R_S_yt-ol2u_-gd0-o_13.mp4	0.0	302.1286401748657	0.10003304481506348
40	115.04873204231262	fix_pre	0		40.0	38.0	2.5	/experiments/knapen_aot/videos/S_yt-TqVe93JCGmM_12.mp4	0.0	302.2286732196808	0.33324694633483887
40	115.37382292747498	response	0	2		38.0	2.5	/experiments/knapen_aot/videos/S_yt-TqVe93JCGmM_12.mp4	0.0	302.55376410484314	
40	115.38197898864746	movie	1		301.0	38.0	2.5	/experiments/knapen_aot/videos/S_yt-TqVe93JCGmM_12.mp4	0.0	302.5619201660156	2.5084009170532227
40	117.89037990570068	fix_post	2		12.0	38.0	2.5	/experiments/knapen_aot/videos/S_yt-TqVe93JCGmM_12.mp4	0.0	305.07032108306885	0.09995293617248535
41	117.99033284187317	fix_pre	0		39.0	39.0	2.5	/experiments/knapen_aot/videos/R_S_yt-ThT8utBaywI_68.mp4	0.0	305.17027401924133	0.3259451389312744
41	118.30711698532104	response	0	2		39.0	2.5	/experiments/knapen_aot/videos/R_S_yt-ThT8utBaywI_68.mp4	0.0	305.4870581626892	
41	118.31627798080444	movie	1		301.0	39.0	2.5	/experiments/knapen_aot/videos/R_S_yt-ThT8utBaywI_68.mp4	0.0	305.4962191581726	2.507420063018799
41	120.82369804382324	fix_post	2		12.0	39.0	2.5	/experiments/knapen_aot/videos/R_S_yt-ThT8utBaywI_68.mp4	0.0	308.0036392211914	0.10007882118225098
42	120.9237768650055	fix_pre	0		32.0	40.0	2.5	/experiments/knapen_aot/videos/S_video-2_copy.mp4	0.0	308.10371804237366	0.26747918128967285
42	121.17457389831543	response	0	2		40.0	2.5	/experiments/knapen_aot/videos/S_video-2_copy.mp4	0.0	308.3545150756836	
42	121.19125604629517	movie	1		164.0	40.0	2.5	/experiments/knapen_aot/videos/S_video-2_copy.mp4	0.0	308.37119722366333	2.5074617862701416
42	123.69871783256531	fix_post	2		12.0	40.0	2.5	/experiments/knapen_aot/videos/S_video-2_copy.mp4	0.0	310.8786590099335	0.09994816780090332
43	123.79866600036621	fix_pre	0		50.0	41.0	2.5	blank	1.0	310.9786071777344	0.4166688919067383
43	124.20707392692566	response	0	2		41.0	2.5	blank	1.0	311.3870151042938	
43	124.21533489227295	movie	1		301.0	41.0	2.5	blank	1.0	311.3952760696411	2.5083680152893066
43	126.72370290756226	fix_post	2		12.0	41.0	2.5	blank	1.0	313.9036440849304	0.09995698928833008
44	126.82365989685059	fix_pre	0		36.0	42.0	2.5	/experiments/knapen_aot/videos/R_S_S006_C007_SDR_2K_AVC.mp4	0.0	314.00360107421875	0.30002498626708984
44	127.11546587944031	response	0	2		42.0	2.5	/experiments/knapen_aot/videos/R_S_S006_C007_SDR_2K_AVC.mp4	0.0	314.2954070568085	
44	127.12368488311768	movie	1		166.0	42.0	2.5	/experiments/knapen_aot/videos/R_S_S006_C007_SDR_2K_AVC.mp4	0.0	314.30362606048584	2.5083000659942627
44	129.63198494911194	fix_post	2		12.0	42.0	2.5	/experiments/knapen_aot/videos/R_S_S006_C007_SDR_2K_AVC.mp4	0.0	316.8119261264801	0.09998202323913574
45	129.73196697235107	fix_pre	0		31.0	43.0	2.5	/experiments/knapen_aot/videos/R_S_ILSVRC2015_train_00404004.mp4	0.0	316.91190814971924	0.2583029270172119
45	129.98204803466797	response	0	2		43.0	2.5	/experiments/knapen_aot/videos/R_S_ILSVRC2015_train_00404004.mp4	0.0	317.16198921203613	
45	129.9902698993683	movie	1		301.0	43.0	2.5	/experiments/knapen_aot/videos/R_S_ILSVRC2015_train_00404004.mp4	0.0	317.17021107673645	2.5083980560302734
45	132.49866795539856	fix_post	2		12.0	43.0	2.5	/experiments/knapen_aot/videos/R_S_ILSVRC2015_train_00404004.mp4	0.0	319.6786091327667	0.09996294975280762
46	132.59863090515137	fix_pre	0		48.0	44.0	2.5	/experiments/knapen_aot/videos/S_yt-mmvWYAttrIw_2.mp4	0.0	319.77857208251953	0.39998507499694824
46	132.99035382270813	response	0	2		44.0	2.5	/experiments/knapen_aot/videos/S_yt-mmvWYAttrIw_2.mp4	0.0	320.1702950000763	
46	132.99861598014832	movie	1		301.0	44.0	2.5	/experiments/knapen_aot/videos/S_yt-mmvWYAttrIw_2.mp4	0.0	320.1785571575165	2.5083329677581787
46	135.5069489479065	fix_post	2		12.0	44.0	2.5	/experiments/knapen_aot/videos/S_yt-mmvWYAttrIw_2.mp4	0.0	322.68689012527466	0.10002994537353516
47	135.60697889328003	fix_pre	0		42.0	45.0	2.5	/experiments/knapen_aot/videos/S_yt-xNITUMXoU0g_9.mp4	0.0	322.7869200706482	0.34998106956481934
47	135.94873094558716	response	0	2		45.0	2.5	/experiments/knapen_aot/videos/S_yt-xNITUMXoU0g_9.mp4	0.0	323.1286721229553	
47	135.95695996284485	movie	1		301.0	45.0	2.5	/experiments/knapen_aot/videos/S_yt-xNITUMXoU0g_9.mp4	0.0	323.136901140213	2.508394956588745
47	138.4653549194336	fix_post	2		12.0	45.0	2.5	/experiments/knapen_aot/videos/S_yt-xNITUMXoU0g_9.mp4	0.0	325.64529609680176	0.09991812705993652
48	138.56527304649353	fix_pre	0		33.0	46.0	2.5	/experiments/knapen_aot/videos/R_S_yt-DmlSN7mzczI_62.mp4	0.0	325.7452142238617	0.27498579025268555
48	138.83201694488525	response	0	2		46.0	2.5	/experiments/knapen_aot/videos/R_S_yt-DmlSN7mzczI_62.mp4	0.0	326.0119581222534	
48	138.84025883674622	movie	1		301.0	46.0	2.5	/experiments/knapen_aot/videos/R_S_yt-DmlSN7mzczI_62.mp4	0.0	326.0202000141144	2.5083460807800293
48	141.34860491752625	fix_post	2		12.0	46.0	2.5	/experiments/knapen_aot/videos/R_S_yt-DmlSN7mzczI_62.mp4	0.0	328.5285460948944	0.10000109672546387
49	141.4486060142517	fix_pre	0		31.0	47.0	2.5	/experiments/knapen_aot/videos/R_S_dnLAfffA-kU_53.mp4	0.0	328.6285471916199	0.25829100608825684
49	141.69876289367676	response	0	2		47.0	2.5	/experiments/knapen_aot/videos/R_S_dnLAfffA-kU_53.mp4	0.0	328.8787040710449	
49	141.70689702033997	movie	1		301.0	47.0	2.5	/experiments/knapen_aot/videos/R_S_dnLAfffA-kU_53.mp4	0.0	328.88683819770813	2.50834584236145
49	144.21524286270142	fix_post	2		12.0	47.0	2.5	/experiments/knapen_aot/videos/R_S_dnLAfffA-kU_53.mp4	0.0	331.3951840400696	0.10005307197570801
50	144.31529593467712	fix_pre	0		38.0	48.0	2.5	blank	1.0	331.4952371120453	0.3166038990020752
50	144.62363982200623	response	0	2		48.0	2.5	blank	1.0	331.8035809993744	
50	144.6318998336792	movie	1		301.0	48.0	2.5	blank	1.0	331.81184101104736	2.5085110664367676
50	147.14041090011597	fix_post	2		12.0	48.0	2.5	blank	1.0	334.32035207748413	0.09985113143920898
51	147.24026203155518	fix_pre	0		63.0	49.0	2.5	/experiments/knapen_aot/videos/R_S_ILSVRC2015_test_00001002.mp4	0.0	334.42020320892334	0.5249538421630859
51	147.75702786445618	response	0	2		49.0	2.5	/experiments/knapen_aot/videos/R_S_ILSVRC2015_test_00001002.mp4	0.0	334.93696904182434	
51	147.76521587371826	movie	1		301.0	49.0	2.5	/experiments/knapen_aot/videos/R_S_ILSVRC2015_test_00001002.mp4	0.0	334.9451570510864	2.5083119869232178
51	150.27352786064148	fix_post	2		12.0	49.0	2.5	/experiments/knapen_aot/videos/R_S_ILSVRC2015_test_00001002.mp4	0.0	337.45346903800964	0.09994816780090332
52	150.37347602844238	fix_pre	0		38.0	50.0	2.5	/experiments/knapen_aot/videos/S_yt-xNITUMXoU0g_9.mp4	0.0	337.55341720581055	0.3175179958343506
52	150.6819770336151	response	0	2		50.0	2.5	/experiments/knapen_aot/videos/S_yt-xNITUMXoU0g_9.mp4	0.0	337.8619182109833	
52	150.69099402427673	movie	1		301.0	50.0	2.5	/experiments/knapen_aot/videos/S_yt-xNITUMXoU0g_9.mp4	0.0	337.8709352016449	2.5075550079345703
52	153.1985490322113	fix_post	2		12.0	50.0	2.5	/experiments/knapen_aot/videos/S_yt-xNITUMXoU0g_9.mp4	0.0	340.37849020957947	0.1000068187713623
53	153.29855585098267	fix_pre	0		38.0	51.0	2.5	/experiments/knapen_aot/videos/S_yt-GI8BEHw2Lq8_3.mp4	0.0	340.47849702835083	0.3166351318359375
53	153.60695600509644	response	0	2		51.0	2.5	/experiments/knapen_aot/videos/S_yt-GI8BEHw2Lq8_3.mp4	0.0	340.7868971824646	
53	153.6151909828186	movie	1		301.0	51.0	2.5	/experiments/knapen_aot/videos/S_yt-GI8BEHw2Lq8_3.mp4	0.0	340.79513216018677	2.5083799362182617
53	156.12357091903687	fix_post	2		12.0	51.0	2.5	/experiments/knapen_aot/videos/S_yt-GI8BEHw2Lq8_3.mp4	0.0	343.30351209640503	0.09998202323913574
54	156.223552942276	fix_pre	0		49.0	52.0	2.5	/experiments/knapen_aot/videos/S_production_ID_5182928.mp4	0.0	343.40349411964417	0.40827298164367676
54	156.62363386154175	response	0	2		52.0	2.5	/experiments/knapen_aot/videos/S_production_ID_5182928.mp4	0.0	343.8035750389099	
54	156.63182592391968	movie	1		171.0	52.0	2.5	/experiments/knapen_aot/videos/S_production_ID_5182928.mp4	0.0	343.81176710128784	2.5083160400390625
54	159.14014196395874	fix_post	2		12.0	52.0	2.5	/experiments/knapen_aot/videos/S_production_ID_5182928.mp4	0.0	346.3200831413269	0.09995293617248535
55	159.24009490013123	fix_pre	0		61.0	53.0	2.5	/experiments/knapen_aot/videos/R_S_WO9z7lBUvOs_151.mp4	0.0	346.4200360774994	0.508415937423706
55	159.74031281471252	response	0	2		53.0	2.5	/experiments/knapen_aot/videos/R_S_WO9z7lBUvOs_151.mp4	0.0	346.9202539920807	
55	159.74851083755493	movie	1		301.0	53.0	2.5	/experiments/knapen_aot/videos/R_S_WO9z7lBUvOs_151.mp4	0.0	346.9284520149231	2.5085010528564453
55	162.25701189041138	fix_post	2		12.0	53.0	2.5	/experiments/knapen_aot/videos/R_S_WO9z7lBUvOs_151.mp4	0.0	349.43695306777954	0.09982895851135254
56	162.35684084892273	fix_pre	0		46.0	54.0	2.5	/experiments/knapen_aot/videos/S_yt-PRqnM7xDsus_24.mp4	0.0	349.5367820262909	0.3832261562347412
56	162.7319519519806	response	0	2		54.0	2.5	/experiments/knapen_aot/videos/S_yt-PRqnM7xDsus_24.mp4	0.0	349.91189312934875	
56	162.74006700515747	movie	1		301.0	54.0	2.5	/experiments/knapen_aot/videos/S_yt-PRqnM7xDsus_24.mp4	0.0	349.92000818252563	2.5084049701690674
56	165.24847197532654	fix_post	2		12.0	54.0	2.5	/experiments/knapen_aot/videos/S_yt-PRqnM7xDsus_24.mp4	0.0	352.4284131526947	0.1000359058380127
57	165.34850788116455	fix_pre	0		45.0	55.0	2.5	/experiments/knapen_aot/videos/S_yt-Dj42sI_Z-kQ_38.mp4	0.0	352.5284490585327	0.37488508224487305
57	165.71530199050903	response	0	2		55.0	2.5	/experiments/knapen_aot/videos/S_yt-Dj42sI_Z-kQ_38.mp4	0.0	352.8952431678772	
57	165.72339296340942	movie	1		301.0	55.0	2.5	/experiments/knapen_aot/videos/S_yt-Dj42sI_Z-kQ_38.mp4	0.0	352.9033341407776	2.5084049701690674
57	168.2317979335785	fix_post	2		12.0	55.0	2.5	/experiments/knapen_aot/videos/S_yt-Dj42sI_Z-kQ_38.mp4	0.0	355.41173911094666	0.10003089904785156
58	168.33182883262634	fix_pre	0		30.0	56.0	2.5	blank	1.0	355.5117700099945	0.24988913536071777
58	168.57362294197083	response	0	2		56.0	2.5	blank	1.0	355.753564119339	
58	168.58171796798706	movie	1		301.0	56.0	2.5	blank	1.0	355.7616591453552	2.5083720684051514
58	171.0900900363922	fix_post	2		12.0	56.0	2.5	blank	1.0	358.2700312137604	0.10006380081176758
59	171.19015383720398	fix_pre	0		43.0	57.0	2.5	/experiments/knapen_aot/videos/R_S_pexels-c-technical-6754008.mp4	0.0	358.37009501457214	0.3582580089569092
59	171.5402069091797	response	0	2		57.0	2.5	/experiments/knapen_aot/videos/R_S_pexels-c-technical-6754008.mp4	0.0	358.72014808654785	
59	171.5484118461609	movie	1		190.0	57.0	2.5	/experiments/knapen_aot/videos/R_S_pexels-c-technical-6754008.mp4	0.0	358.72835302352905	2.5083441734313965
59	174.05675601959229	fix_post	2		12.0	57.0	2.5	/experiments/knapen_aot/videos/R_S_pexels-c-technical-6754008.mp4	0.0	361.23669719696045	0.10002684593200684
60	174.1567828655243	fix_pre	0		62.0	58.0	2.5	/experiments/knapen_aot/videos/S_yt-4oT-2eGhmUo_102.mp4	0.0	361.33672404289246	0.5166621208190918
60	174.66524004936218	response	0	2		58.0	2.5	/experiments/knapen_aot/videos/S_yt-4oT-2eGhmUo_102.mp4	0.0	361.84518122673035	
60	174.67344498634338	movie	1		301.0	58.0	2.5	/experiments/knapen_aot/videos/S_yt-4oT-2eGhmUo_102.mp4	0.0	361.85338616371155	2.50834584236145
60	177.18179082870483	fix_post	2		12.0	58.0	2.5	/experiments/knapen_aot/videos/S_yt-4oT-2eGhmUo_102.mp4	0.0	364.361732006073	0.09992408752441406
61	177.28171491622925	fix_pre	0		34.0	59.0	2.5	/experiments/knapen_aot/videos/S_yt-CJeyOFsd3lg_80.mp4	0.0	364.4616560935974	0.2839829921722412
61	177.5569088459015	response	0	2		59.0	2.5	/experiments/knapen_aot/videos/S_yt-CJeyOFsd3lg_80.mp4	0.0	364.73685002326965	
61	177.5656979084015	movie	1		301.0	59.0	2.5	/experiments/knapen_aot/videos/S_yt-CJeyOFsd3lg_80.mp4	0.0	364.74563908576965	2.5077719688415527
61	180.07346987724304	fix_post	2		12.0	59.0	2.5	/experiments/knapen_aot/videos/S_yt-CJeyOFsd3lg_80.mp4	0.0	367.2534110546112	0.10008716583251953
62	180.17355704307556	fix_pre	0		39.0	60.0	2.5	/experiments/knapen_aot/videos/S_yt-m8HxO_-RRq0_127.mp4	0.0	367.3534982204437	0.3248729705810547
62	180.49025988578796	response	0	2		60.0	2.5	/experiments/knapen_aot/videos/S_yt-m8HxO_-RRq0_127.mp4	0.0	367.6702010631561	
62	180.49843001365662	movie	1		301.0	60.0	2.5	/experiments/knapen_aot/videos/S_yt-m8HxO_-RRq0_127.mp4	0.0	367.6783711910248	2.50834584236145
62	183.00677585601807	fix_post	2		12.0	60.0	2.5	/experiments/knapen_aot/videos/S_yt-m8HxO_-RRq0_127.mp4	0.0	370.18671703338623	0.10060405731201172
63	183.10737991333008	fix_pre	0		35.0	61.0	2.5	/experiments/knapen_aot/videos/R_S_yt-EBuE7GbFw7U_180.mp4	0.0	370.28732109069824	0.2916429042816162
63	183.39012789726257	response	0	2		61.0	2.5	/experiments/knapen_aot/videos/R_S_yt-EBuE7GbFw7U_180.mp4	0.0	370.57006907463074	
63	183.3990228176117	movie	1		301.0	61.0	2.5	/experiments/knapen_aot/videos/R_S_yt-EBuE7GbFw7U_180.mp4	0.0	370.57896399497986	2.5076491832733154
63	185.906672000885	fix_post	2		12.0	61.0	2.5	/experiments/knapen_aot/videos/R_S_yt-EBuE7GbFw7U_180.mp4	0.0	373.0866131782532	0.10004281997680664
64	186.00671482086182	fix_pre	0		21.0	62.0	2.5	blank	1.0	373.18665599823	0.17494702339172363
64	186.17349886894226	response	0	2		62.0	2.5	blank	1.0	373.3534400463104	
64	186.18166184425354	movie	1		301.0	62.0	2.5	blank	1.0	373.3616030216217	2.5084099769592285
64	188.69007182121277	fix_post	2		12.0	62.0	2.5	blank	1.0	375.87001299858093	0.10004019737243652
65	188.7901120185852	fix_pre	0		37.0	63.0	2.5	/experiments/knapen_aot/videos/R_S_yt-3roniRu6w58_10.mp4	0.0	375.97005319595337	0.30827879905700684
65	189.09016585350037	response	0	2		63.0	2.5	/experiments/knapen_aot/videos/R_S_yt-3roniRu6w58_10.mp4	0.0	376.27010703086853	
65	189.0983908176422	movie	1		301.0	63.0	2.5	/experiments/knapen_aot/videos/R_S_yt-3roniRu6w58_10.mp4	0.0	376.2783319950104	2.508331060409546
65	191.60672187805176	fix_post	2		12.0	63.0	2.5	/experiments/knapen_aot/videos/R_S_yt-3roniRu6w58_10.mp4	0.0	378.7866630554199	0.09996914863586426
66	191.70669102668762	fix_pre	0		52.0	64.0	2.5	/experiments/knapen_aot/videos/R_S_yt-vY49oIv_dWg_73.mp4	0.0	378.8866322040558	0.4333059787750244
66	192.13172698020935	response	0	2		64.0	2.5	/experiments/knapen_aot/videos/R_S_yt-vY49oIv_dWg_73.mp4	0.0	379.3116681575775	
66	192.13999700546265	movie	1		301.0	64.0	2.5	/experiments/knapen_aot/videos/R_S_yt-vY49oIv_dWg_73.mp4	0.0	379.3199381828308	2.5084288120269775
66	194.64842581748962	fix_post	2		12.0	64.0	2.5	/experiments/knapen_aot/videos/R_S_yt-vY49oIv_dWg_73.mp4	0.0	381.8283669948578	0.0999150276184082
67	194.74834084510803	fix_pre	0		32.0	65.0	2.5	/experiments/knapen_aot/videos/S_production_ID_4820868.mp4	0.0	381.9282820224762	0.2666971683502197
67	195.00684189796448	response	0	2		65.0	2.5	/experiments/knapen_aot/videos/S_production_ID_4820868.mp4	0.0	382.18678307533264	
67	195.01503801345825	movie	1		167.0	65.0	2.5	/experiments/knapen_aot/videos/S_production_ID_4820868.mp4	0.0	382.1949791908264	2.5083248615264893
67	197.52336287498474	fix_post	2		12.0	65.0	2.5	/experiments/knapen_aot/videos/S_production_ID_4820868.mp4	0.0	384.7033040523529	0.09999895095825195
68	197.623361825943	fix_pre	0		16.0	66.0	2.5	/experiments/knapen_aot/videos/R_S_yt-yPl8LcgSMjo_32.mp4	0.0	384.80330300331116	0.13330817222595215
68	197.7484109401703	response	0	2		66.0	2.5	/experiments/knapen_aot/videos/R_S_yt-yPl8LcgSMjo_32.mp4	0.0	384.92835211753845	
68	197.75666999816895	movie	1		301.0	66.0	2.5	/experiments/knapen_aot/videos/R_S_yt-yPl8LcgSMjo_32.mp4	0.0	384.9366111755371	2.508309841156006
68	200.26497983932495	fix_post	2		12.0	66.0	2.5	/experiments/knapen_aot/videos/R_S_yt-yPl8LcgSMjo_32.mp4	0.0	387.4449210166931	0.10004305839538574
69	200.36502289772034	fix_pre	0		58.0	67.0	2.5	/experiments/knapen_aot/videos/S_yt-SCzpSxzt0TA_46.mp4	0.0	387.5449640750885	0.4832041263580322
69	200.84014201164246	response	0	2		67.0	2.5	/experiments/knapen_aot/videos/S_yt-SCzpSxzt0TA_46.mp4	0.0	388.0200831890106	
69	200.84822702407837	movie	1		301.0	67.0	2.5	/experiments/knapen_aot/videos/S_yt-SCzpSxzt0TA_46.mp4	0.0	388.02816820144653	2.5085289478302
69	203.35675597190857	fix_post	2		12.0	67.0	2.5	/experiments/knapen_aot/videos/S_yt-SCzpSxzt0TA_46.mp4	0.0	390.53669714927673	0.09989690780639648
70	203.45665287971497	fix_pre	0		51.0	68.0	2.5	blank	1.0	390.63659405708313	0.4250061511993408
70	203.87337589263916	response	0	2		68.0	2.5	blank	1.0	391.0533170700073	
70	203.8816590309143	movie	1		301.0	68.0	2.5	blank	1.0	391.06160020828247	2.508328914642334
70	206.38998794555664	fix_post	2		12.0	68.0	2.5	blank	1.0	393.5699291229248	0.09992194175720215
71	206.48990988731384	fix_pre	0		53.0	69.0	2.5	/experiments/knapen_aot/videos/R_S_yt-QFGyhhr1KSQ_9.mp4	0.0	393.669851064682	0.44168901443481445
71	206.9234058856964	response	0	2		69.0	2.5	/experiments/knapen_aot/videos/R_S_yt-QFGyhhr1KSQ_9.mp4	0.0	394.1033470630646	
71	206.93159890174866	movie	1		301.0	69.0	2.5	/experiments/knapen_aot/videos/R_S_yt-QFGyhhr1KSQ_9.mp4	0.0	394.1115400791168	2.5084569454193115
71	209.44005584716797	fix_post	2		12.0	69.0	2.5	/experiments/knapen_aot/videos/R_S_yt-QFGyhhr1KSQ_9.mp4	0.0	396.61999702453613	0.09991002082824707
72	209.53996586799622	fix_pre	0		46.0	70.0	2.5	/experiments/knapen_aot/videos/R_S_video.mp4	0.0	396.7199070453644	0.38329100608825684
72	209.915030002594	response	0	2		70.0	2.5	/experiments/knapen_aot/videos/R_S_video.mp4	0.0	397.09497117996216	
72	209.92325687408447	movie	1		170.0	70.0	2.5	/experiments/knapen_aot/videos/R_S_video.mp4	0.0	397.10319805145264	2.5083701610565186
72	212.431627035141	fix_post	2		12.0	70.0	2.5	/experiments/knapen_aot/videos/R_S_video.mp4	0.0	399.61156821250916	0.10006999969482422
73	212.53169703483582	fix_pre	0		40.0	71.0	2.5	/experiments/knapen_aot/videos/R_S_yt-C0iWlRWU21o_5.mp4	0.0	399.711638212204	0.3333017826080322
73	212.8567409515381	response	0	2		71.0	2.5	/experiments/knapen_aot/videos/R_S_yt-C0iWlRWU21o_5.mp4	0.0	400.03668212890625	
73	212.86499881744385	movie	1		301.0	71.0	2.5	/experiments/knapen_aot/videos/R_S_yt-C0iWlRWU21o_5.mp4	0.0	400.044939994812	2.5082831382751465
73	215.373281955719	fix_post	2		12.0	71.0	2.5	/experiments/knapen_aot/videos/R_S_yt-C0iWlRWU21o_5.mp4	0.0	402.55322313308716	0.09998297691345215
74	215.47326493263245	fix_pre	0		37.0	72.0	2.5	/experiments/knapen_aot/videos/R_S_yt-1RVw8p6Dw2Q_20.mp4	0.0	402.6532061100006	0.30826902389526367
74	215.77342295646667	response	0	2		72.0	2.5	/experiments/knapen_aot/videos/R_S_yt-1RVw8p6Dw2Q_20.mp4	0.0	402.95336413383484	
74	215.7815339565277	movie	1		301.0	72.0	2.5	/experiments/knapen_aot/videos/R_S_yt-1RVw8p6Dw2Q_20.mp4	0.0	402.9614751338959	2.508401870727539
74	218.28993582725525	fix_post	2		12.0	72.0	2.5	/experiments/knapen_aot/videos/R_S_yt-1RVw8p6Dw2Q_20.mp4	0.0	405.4698770046234	0.10000205039978027
75	218.38993787765503	fix_pre	0		32.0	73.0	2.5	/experiments/knapen_aot/videos/R_S_yt-4oT-2eGhmUo_102.mp4	0.0	405.5698790550232	0.26654696464538574
75	218.6484079360962	response	0	2		73.0	2.5	/experiments/knapen_aot/videos/R_S_yt-4oT-2eGhmUo_102.mp4	0.0	405.82834911346436	
75	218.65648484230042	movie	1		301.0	73.0	2.5	/experiments/knapen_aot/videos/R_S_yt-4oT-2eGhmUo_102.mp4	0.0	405.8364260196686	2.5084362030029297
75	221.16492104530334	fix_post	2		12.0	73.0	2.5	/experiments/knapen_aot/videos/R_S_yt-4oT-2eGhmUo_102.mp4	0.0	408.3448622226715	0.10001778602600098
76	221.26493883132935	fix_pre	0		22.0	74.0	2.5	/experiments/knapen_aot/videos/S_yt-IlW1U39Dga4_5.mp4	0.0	408.4448800086975	0.18327903747558594
76	221.43995904922485	response	0	2		74.0	2.5	/experiments/knapen_aot/videos/S_yt-IlW1U39Dga4_5.mp4	0.0	408.619900226593	
76	221.44821786880493	movie	1		301.0	74.0	2.5	/experiments/knapen_aot/videos/S_yt-IlW1U39Dga4_5.mp4	0.0	408.6281590461731	2.5083720684051514
76	223.95658993721008	fix_post	2		12.0	74.0	2.5	/experiments/knapen_aot/videos/S_yt-IlW1U39Dga4_5.mp4	0.0	411.13653111457825	0.09996795654296875
77	224.05655789375305	fix_pre	0		35.0	75.0	2.5	/experiments/knapen_aot/videos/S_ILSVRC2015_train_00418004.mp4	0.0	411.2364990711212	0.2916450500488281
77	224.340078830719	response	0	2		75.0	2.5	/experiments/knapen_aot/videos/S_ILSVRC2015_train_00418004.mp4	0.0	411.52002000808716	
77	224.34820294380188	movie	1		301.0	75.0	2.5	/experiments/knapen_aot/videos/S_ILSVRC2015_train_00418004.mp4	0.0	411.52814412117004	2.5085060596466064
77	226.8567090034485	fix_post	2		12.0	75.0	2.5	/experiments/knapen_aot/videos/S_ILSVRC2015_train_00418004.mp4	0.0	414.03665018081665	0.09985494613647461
78	226.95656394958496	fix_pre	0		39.0	76.0	2.5	/experiments/knapen_aot/videos/R_S_yt-0n0uppNuUus_15.mp4	0.0	414.1365051269531	0.3250000476837158
78	227.2733669281006	response	0	2		76.0	2.5	/experiments/knapen_aot/videos/R_S_yt-0n0uppNuUus_15.mp4	0.0	414.45330810546875	
78	227.28156399726868	movie	1		301.0	76.0	2.5	/experiments/knapen_aot/videos/R_S_yt-0n0uppNuUus_15.mp4	0.0	414.46150517463684	2.5083298683166504
78	229.78989386558533	fix_post	2		12.0	76.0	2.5	/experiments/knapen_aot/videos/R_S_yt-0n0uppNuUus_15.mp4	0.0	416.9698350429535	0.09997010231018066
79	229.8898639678955	fix_pre	0		32.0	77.0	2.5	blank	1.0	417.0698051452637	0.26666903495788574
79	230.14832401275635	response	0	2		77.0	2.5	blank	1.0	417.3282651901245	
79	230.1565330028534	movie	1		301.0	77.0	2.5	blank	1.0	417.33647418022156	2.508368968963623
79	232.66490197181702	fix_post	2		12.0	77.0	2.5	blank	1.0	419.8448431491852	0.10000395774841309
80	232.76490592956543	fix_pre	0		51.0	78.0	2.5	/experiments/knapen_aot/videos/R_S_yt-2XRGfGc0q44_37.mp4	0.0	419.9448471069336	0.42528390884399414
80	233.18164682388306	response	0	2		78.0	2.5	/experiments/knapen_aot/videos/R_S_yt-2XRGfGc0q44_37.mp4	0.0	420.3615880012512	
80	233.19018983840942	movie	1		301.0	78.0	2.5	/experiments/knapen_aot/videos/R_S_yt-2XRGfGc0q44_37.mp4	0.0	420.3701310157776	2.5080111026763916
80	235.69820094108582	fix_post	2		12.0	78.0	2.5	/experiments/knapen_aot/videos/R_S_yt-2XRGfGc0q44_37.mp4	0.0	422.878142118454	0.09993100166320801
81	235.79813194274902	fix_pre	0		44.0	79.0	2.5	/experiments/knapen_aot/videos/R_S_yt-xCh0LI9VKeI_28.mp4	0.0	422.9780731201172	0.36667394638061523
81	236.14897894859314	response	0	2		79.0	2.5	/experiments/knapen_aot/videos/R_S_yt-xCh0LI9VKeI_28.mp4	0.0	423.3289201259613	
81	236.16480588912964	movie	1		301.0	79.0	2.5	/experiments/knapen_aot/videos/R_S_yt-xCh0LI9VKeI_28.mp4	0.0	423.3447470664978	2.5083799362182617
81	238.6731858253479	fix_post	2		12.0	79.0	2.5	/experiments/knapen_aot/videos/R_S_yt-xCh0LI9VKeI_28.mp4	0.0	425.85312700271606	0.10006999969482422
82	238.77325582504272	fix_pre	0		21.0	80.0	2.5	/experiments/knapen_aot/videos/S_yt-ycQy_fHCK-U_8.mp4	0.0	425.9531970024109	0.17481112480163574
82	238.9398889541626	response	0	2		80.0	2.5	/experiments/knapen_aot/videos/S_yt-ycQy_fHCK-U_8.mp4	0.0	426.11983013153076	
82	238.94806694984436	movie	1		301.0	80.0	2.5	/experiments/knapen_aot/videos/S_yt-ycQy_fHCK-U_8.mp4	0.0	426.1280081272125	2.5084049701690674
82	241.45647192001343	fix_post	2		12.0	80.0	2.5	/experiments/knapen_aot/videos/S_yt-ycQy_fHCK-U_8.mp4	0.0	428.6364130973816	0.10003495216369629
83	241.55650687217712	fix_pre	0		34.0	81.0	2.5	/experiments/knapen_aot/videos/S_production_ID_5049072.mp4	0.0	428.7364480495453	0.28336596488952637
83	241.83162903785706	response	0	2		81.0	2.5	/experiments/knapen_aot/videos/S_production_ID_5049072.mp4	0.0	429.0115702152252	
83	241.83987283706665	movie	1		165.0	81.0	2.5	/experiments/knapen_aot/videos/S_production_ID_5049072.mp4	0.0	429.0198140144348	2.50832200050354
83	244.3481948375702	fix_post	2		12.0	81.0	2.5	/experiments/knapen_aot/videos/S_production_ID_5049072.mp4	0.0	431.52813601493835	0.09989714622497559
84	244.44809198379517	fix_pre	0		43.0	82.0	2.5	/experiments/knapen_aot/videos/S_yt-GO26QIueqRw_385.mp4	0.0	431.62803316116333	0.3583798408508301
84	244.7982578277588	response	0	2		82.0	2.5	/experiments/knapen_aot/videos/S_yt-GO26QIueqRw_385.mp4	0.0	431.97819900512695	
84	244.806471824646	movie	1		301.0	82.0	2.5	/experiments/knapen_aot/videos/S_yt-GO26QIueqRw_385.mp4	0.0	431.98641300201416	2.5086631774902344
84	247.31513500213623	fix_post	2		12.0	82.0	2.5	/experiments/knapen_aot/videos/S_yt-GO26QIueqRw_385.mp4	0.0	434.4950761795044	0.09970784187316895
85	247.4148428440094	fix_pre	0		45.0	83.0	2.5	blank	1.0	434.59478402137756	0.3749730587005615
85	247.78152990341187	response	0	2		83.0	2.5	blank	1.0	434.96147108078003	
85	247.78981590270996	movie	1		301.0	83.0	2.5	blank	1.0	434.9697570800781	2.5083720684051514
85	250.2981879711151	fix_post	2		12.0	83.0	2.5	blank	1.0	437.4781291484833	0.10063290596008301
87	250.3988208770752	stim	0		261.0					437.57876205444336	2.1742630004882812
87	252.5667269229889	response	0	space						439.74666810035706	
