trial_nr	onset	event_type	phase	response	nr_frames	movie_index	movie_duration	movie_file	blank	onset_abs	duration
0	0.15158510208129883	stim	0		75.0					157.73425316810608	0.6249039173126221
0	0.7595829963684082	response	0	space						158.3422510623932	
1	0.7764890193939209	stim	0		121.0					158.3591570854187	1.0064899921417236
1	1.4746439456939697	response	0	space						159.05731201171875	
1	1.7829790115356445	stim	1		120.0					159.36564707756042	1.0001609325408936
1	1.783715009689331	response	1	space						159.3663830757141	
1	2.4913411140441895	response	1	space						160.07400918006897	
2	2.783139944076538	fix_pre	0		11.0	0.0	2.5	/experiments/knapen_aot/videos/R_S_yt-fLNDhX22diw_98.mp4	0.0	160.36580801010132	0.09138917922973633
2	2.866353988647461	response	0	space		0.0	2.5	/experiments/knapen_aot/videos/R_S_yt-fLNDhX22diw_98.mp4	0.0	160.44902205467224	
2	2.8745291233062744	movie	1		300.0	0.0	2.5	/experiments/knapen_aot/videos/R_S_yt-fLNDhX22diw_98.mp4	0.0	160.45719718933105	2.5083909034729004
2	5.382920026779175	fix_post	2		12.0	0.0	2.5	/experiments/knapen_aot/videos/R_S_yt-fLNDhX22diw_98.mp4	0.0	162.96558809280396	0.10000205039978027
3	5.482922077178955	fix_pre	0		40.0	1.0	2.5	/experiments/knapen_aot/videos/S_PA_A002_C009_SDR_20190730_ALT01_SDR_2K_AVC.mp4	0.0	163.06559014320374	0.334928035736084
3	5.805530071258545	response	0	2		1.0	2.5	/experiments/knapen_aot/videos/S_PA_A002_C009_SDR_20190730_ALT01_SDR_2K_AVC.mp4	0.0	163.38819813728333	
3	5.817850112915039	movie	1		166.0	1.0	2.5	/experiments/knapen_aot/videos/S_PA_A002_C009_SDR_20190730_ALT01_SDR_2K_AVC.mp4	0.0	163.40051817893982	2.5069079399108887
3	8.324758052825928	fix_post	2		12.0	1.0	2.5	/experiments/knapen_aot/videos/S_PA_A002_C009_SDR_20190730_ALT01_SDR_2K_AVC.mp4	0.0	165.9074261188507	0.09972095489501953
4	8.424479007720947	fix_pre	0		32.0	2.0	2.5	/experiments/knapen_aot/videos/S_yt-JTBXPfbkjsA_11.mp4	0.0	166.00714707374573	0.26671504974365234
4	8.683037042617798	response	0	2		2.0	2.5	/experiments/knapen_aot/videos/S_yt-JTBXPfbkjsA_11.mp4	0.0	166.26570510864258	
4	8.6911940574646	movie	1		301.0	2.0	2.5	/experiments/knapen_aot/videos/S_yt-JTBXPfbkjsA_11.mp4	0.0	166.27386212348938	2.5084049701690674
4	11.199599027633667	fix_post	2		12.0	2.0	2.5	/experiments/knapen_aot/videos/S_yt-JTBXPfbkjsA_11.mp4	0.0	168.78226709365845	0.09987497329711914
5	11.299474000930786	fix_pre	0		30.0	3.0	2.5	/experiments/knapen_aot/videos/R_S_ILSVRC2015_test_00012005.mp4	0.0	168.88214206695557	0.25006914138793945
5	11.54134202003479	response	0	2		3.0	2.5	/experiments/knapen_aot/videos/R_S_ILSVRC2015_test_00012005.mp4	0.0	169.12401008605957	
5	11.549543142318726	movie	1		301.0	3.0	2.5	/experiments/knapen_aot/videos/R_S_ILSVRC2015_test_00012005.mp4	0.0	169.1322112083435	2.5083439350128174
5	14.057887077331543	fix_post	2		12.0	3.0	2.5	/experiments/knapen_aot/videos/R_S_ILSVRC2015_test_00012005.mp4	0.0	171.64055514335632	0.1001119613647461
6	14.157999038696289	fix_pre	0		24.0	4.0	2.5	/experiments/knapen_aot/videos/S_video-2_copy.mp4	0.0	171.74066710472107	0.19977998733520508
6	14.349668979644775	response	0	2		4.0	2.5	/experiments/knapen_aot/videos/S_video-2_copy.mp4	0.0	171.93233704566956	
6	14.357779026031494	movie	1		163.0	4.0	2.5	/experiments/knapen_aot/videos/S_video-2_copy.mp4	0.0	171.94044709205627	2.508594036102295
6	16.86637306213379	fix_post	2		12.0	4.0	2.5	/experiments/knapen_aot/videos/S_video-2_copy.mp4	0.0	174.44904112815857	0.09979104995727539
7	16.966164112091064	fix_pre	0		16.0	5.0	2.5	/experiments/knapen_aot/videos/S_ILSVRC2015_train_00001009.mp4	0.0	174.54883217811584	0.13332080841064453
7	17.09123992919922	response	0	2		5.0	2.5	/experiments/knapen_aot/videos/S_ILSVRC2015_train_00001009.mp4	0.0	174.673907995224	
7	17.09948492050171	movie	1		298.0	5.0	2.5	/experiments/knapen_aot/videos/S_ILSVRC2015_train_00001009.mp4	0.0	174.6821529865265	2.5083889961242676
7	19.607873916625977	fix_post	2		12.0	5.0	2.5	/experiments/knapen_aot/videos/S_ILSVRC2015_train_00001009.mp4	0.0	177.19054198265076	0.100006103515625
8	19.7078800201416	fix_pre	0		25.0	6.0	2.5	blank	1.0	177.29054808616638	0.20824909210205078
8	19.908025979995728	response	0	2		6.0	2.5	blank	1.0	177.4906940460205	
8	19.916129112243652	movie	1		301.0	6.0	2.5	blank	1.0	177.49879717826843	2.5083940029144287
8	22.42452311515808	fix_post	2		12.0	6.0	2.5	blank	1.0	180.00719118118286	0.09994697570800781
9	22.52447009086609	fix_pre	0		24.0	7.0	2.5	/experiments/knapen_aot/videos/S_comp_GMT110_112NC_364D_1054_AURORA_ANTARTICA__COMP_FINAL_v34_PS_SDR_20181107_SDR_2K_AVC.mp4	0.0	180.10713815689087	0.20001983642578125
9	22.716161966323853	response	0	2		7.0	2.5	/experiments/knapen_aot/videos/S_comp_GMT110_112NC_364D_1054_AURORA_ANTARTICA__COMP_FINAL_v34_PS_SDR_20181107_SDR_2K_AVC.mp4	0.0	180.29883003234863	
9	22.72448992729187	movie	1		163.0	7.0	2.5	/experiments/knapen_aot/videos/S_comp_GMT110_112NC_364D_1054_AURORA_ANTARTICA__COMP_FINAL_v34_PS_SDR_20181107_SDR_2K_AVC.mp4	0.0	180.30715799331665	2.5083541870117188
9	25.23284411430359	fix_post	2		12.0	7.0	2.5	/experiments/knapen_aot/videos/S_comp_GMT110_112NC_364D_1054_AURORA_ANTARTICA__COMP_FINAL_v34_PS_SDR_20181107_SDR_2K_AVC.mp4	0.0	182.81551218032837	0.0999748706817627
10	25.33281898498535	fix_pre	0		24.0	8.0	2.5	/experiments/knapen_aot/videos/S_comp_A007_C017_01156B_v02_SDR_PS_20180925_SDR_2K_AVC.mp4	0.0	182.91548705101013	0.20011210441589355
10	25.52455997467041	response	0	2		8.0	2.5	/experiments/knapen_aot/videos/S_comp_A007_C017_01156B_v02_SDR_PS_20180925_SDR_2K_AVC.mp4	0.0	183.1072280406952	
10	25.532931089401245	movie	1		164.0	8.0	2.5	/experiments/knapen_aot/videos/S_comp_A007_C017_01156B_v02_SDR_PS_20180925_SDR_2K_AVC.mp4	0.0	183.11559915542603	2.5082809925079346
10	28.04121208190918	fix_post	2		12.0	8.0	2.5	/experiments/knapen_aot/videos/S_comp_A007_C017_01156B_v02_SDR_PS_20180925_SDR_2K_AVC.mp4	0.0	185.62388014793396	0.09997701644897461
11	28.141189098358154	fix_pre	0		27.0	9.0	2.5	/experiments/knapen_aot/videos/S_yt-jy96-k8drRE_1.mp4	0.0	185.72385716438293	0.22502899169921875
11	28.358012914657593	response	0	2		9.0	2.5	/experiments/knapen_aot/videos/S_yt-jy96-k8drRE_1.mp4	0.0	185.94068098068237	
11	28.366218090057373	movie	1		301.0	9.0	2.5	/experiments/knapen_aot/videos/S_yt-jy96-k8drRE_1.mp4	0.0	185.94888615608215	2.508244037628174
11	30.874462127685547	fix_post	2		12.0	9.0	2.5	/experiments/knapen_aot/videos/S_yt-jy96-k8drRE_1.mp4	0.0	188.45713019371033	0.10004782676696777
12	30.974509954452515	fix_pre	0		31.0	10.0	2.5	/experiments/knapen_aot/videos/R_S_yt-BDCyXL5e9S4_223.mp4	0.0	188.5571780204773	0.2583191394805908
12	31.224592924118042	response	0	2		10.0	2.5	/experiments/knapen_aot/videos/R_S_yt-BDCyXL5e9S4_223.mp4	0.0	188.80726099014282	
12	31.232829093933105	movie	1		301.0	10.0	2.5	/experiments/knapen_aot/videos/R_S_yt-BDCyXL5e9S4_223.mp4	0.0	188.81549715995789	2.5084218978881836
12	33.74125099182129	fix_post	2		12.0	10.0	2.5	/experiments/knapen_aot/videos/R_S_yt-BDCyXL5e9S4_223.mp4	0.0	191.32391905784607	0.09990215301513672
13	33.841153144836426	fix_pre	0		35.0	11.0	2.5	/experiments/knapen_aot/videos/S_pexels-c-technical-6754008.mp4	0.0	191.4238212108612	0.2915678024291992
13	34.11699414253235	response	0	2		11.0	2.5	/experiments/knapen_aot/videos/S_pexels-c-technical-6754008.mp4	0.0	191.69966220855713	
13	34.132720947265625	movie	1		198.0	11.0	2.5	/experiments/knapen_aot/videos/S_pexels-c-technical-6754008.mp4	0.0	191.7153890132904	2.5083329677581787
13	36.641053915023804	fix_post	2		12.0	11.0	2.5	/experiments/knapen_aot/videos/S_pexels-c-technical-6754008.mp4	0.0	194.22372198104858	0.10012507438659668
14	36.7411789894104	fix_pre	0		32.0	12.0	2.5	/experiments/knapen_aot/videos/R_S_pexels-ekaterina-bolovtsova-7669220.mp4	0.0	194.32384705543518	0.26653194427490234
14	36.999577045440674	response	0	2		12.0	2.5	/experiments/knapen_aot/videos/R_S_pexels-ekaterina-bolovtsova-7669220.mp4	0.0	194.58224511146545	
14	37.0077109336853	movie	1		161.0	12.0	2.5	/experiments/knapen_aot/videos/R_S_pexels-ekaterina-bolovtsova-7669220.mp4	0.0	194.59037899971008	2.508491039276123
14	39.516201972961426	fix_post	2		12.0	12.0	2.5	/experiments/knapen_aot/videos/R_S_pexels-ekaterina-bolovtsova-7669220.mp4	0.0	197.0988700389862	0.10001206398010254
15	39.61621403694153	fix_pre	0		35.0	13.0	2.5	blank	1.0	197.1988821029663	0.29160308837890625
15	39.89963507652283	response	0	2		13.0	2.5	blank	1.0	197.4823031425476	
15	39.907817125320435	movie	1		301.0	13.0	2.5	blank	1.0	197.49048519134521	2.5082240104675293
15	42.416041135787964	fix_post	2		12.0	13.0	2.5	blank	1.0	199.99870920181274	0.10004687309265137
16	42.516088008880615	fix_pre	0		39.0	14.0	2.5	/experiments/knapen_aot/videos/R_S_yt-y6zr69M0yHI_76.mp4	0.0	200.0987560749054	0.32500195503234863
16	42.83288598060608	response	0	2		14.0	2.5	/experiments/knapen_aot/videos/R_S_yt-y6zr69M0yHI_76.mp4	0.0	200.41555404663086	
16	42.841089963912964	movie	1		301.0	14.0	2.5	/experiments/knapen_aot/videos/R_S_yt-y6zr69M0yHI_76.mp4	0.0	200.42375802993774	2.508327007293701
16	45.349416971206665	fix_post	2		12.0	14.0	2.5	/experiments/knapen_aot/videos/R_S_yt-y6zr69M0yHI_76.mp4	0.0	202.93208503723145	0.10003995895385742
17	45.44945693016052	fix_pre	0		38.0	15.0	2.5	/experiments/knapen_aot/videos/R_S_video_inspire_california_big-sur_bixby_005.1080-h264.mp4	0.0	203.0321249961853	0.31659507751464844
17	45.75786805152893	response	0	2		15.0	2.5	/experiments/knapen_aot/videos/R_S_video_inspire_california_big-sur_bixby_005.1080-h264.mp4	0.0	203.3405361175537	
17	45.76605200767517	movie	1		171.0	15.0	2.5	/experiments/knapen_aot/videos/R_S_video_inspire_california_big-sur_bixby_005.1080-h264.mp4	0.0	203.34872007369995	2.5083110332489014
17	48.27436304092407	fix_post	2		12.0	15.0	2.5	/experiments/knapen_aot/videos/R_S_video_inspire_california_big-sur_bixby_005.1080-h264.mp4	0.0	205.85703110694885	0.09999608993530273
18	48.374359130859375	fix_pre	0		49.0	16.0	2.5	/experiments/knapen_aot/videos/S_yt-xqjVM0Vj4mI_161.mp4	0.0	205.95702719688416	0.40838098526000977
18	48.76712107658386	response	0	2		16.0	2.5	/experiments/knapen_aot/videos/S_yt-xqjVM0Vj4mI_161.mp4	0.0	206.34978914260864	
18	48.782740116119385	movie	1		299.0	16.0	2.5	/experiments/knapen_aot/videos/S_yt-xqjVM0Vj4mI_161.mp4	0.0	206.36540818214417	2.50832200050354
18	51.291062116622925	fix_post	2		12.0	16.0	2.5	/experiments/knapen_aot/videos/S_yt-xqjVM0Vj4mI_161.mp4	0.0	208.8737301826477	0.09997892379760742
19	51.39104104042053	fix_pre	0		57.0	17.0	2.5	/experiments/knapen_aot/videos/R_S_video_inspire_california_big-sur_landscape_054.1080-h264.mp4	0.0	208.9737091064453	0.47502803802490234
19	51.85029602050781	response	0	2		17.0	2.5	/experiments/knapen_aot/videos/R_S_video_inspire_california_big-sur_landscape_054.1080-h264.mp4	0.0	209.4329640865326	
19	51.866069078445435	movie	1		171.0	17.0	2.5	/experiments/knapen_aot/videos/R_S_video_inspire_california_big-sur_landscape_054.1080-h264.mp4	0.0	209.44873714447021	2.5083630084991455
19	54.37443208694458	fix_post	2		12.0	17.0	2.5	/experiments/knapen_aot/videos/R_S_video_inspire_california_big-sur_landscape_054.1080-h264.mp4	0.0	211.95710015296936	0.09996390342712402
20	54.474395990371704	fix_pre	0		34.0	18.0	2.5	/experiments/knapen_aot/videos/R_S_yt-tX3slAQb9yY_13.mp4	0.0	212.05706405639648	0.28329014778137207
20	54.74948692321777	response	0	2		18.0	2.5	/experiments/knapen_aot/videos/R_S_yt-tX3slAQb9yY_13.mp4	0.0	212.33215498924255	
20	54.757686138153076	movie	1		301.0	18.0	2.5	/experiments/knapen_aot/videos/R_S_yt-tX3slAQb9yY_13.mp4	0.0	212.34035420417786	2.508319854736328
20	57.266005992889404	fix_post	2		12.0	18.0	2.5	/experiments/knapen_aot/videos/R_S_yt-tX3slAQb9yY_13.mp4	0.0	214.84867405891418	0.10006999969482422
21	57.36607599258423	fix_pre	0		37.0	19.0	2.5	blank	1.0	214.948744058609	0.308243989944458
21	57.666155099868774	response	0	2		19.0	2.5	blank	1.0	215.24882316589355	
21	57.67431998252869	movie	1		301.0	19.0	2.5	blank	1.0	215.25698804855347	2.50858998298645
21	60.18290996551514	fix_post	2		12.0	19.0	2.5	blank	1.0	217.76557803153992	0.09978008270263672
22	60.28269004821777	fix_pre	0		28.0	20.0	2.5	/experiments/knapen_aot/videos/S_yt-l_ioasf6yHg_44.mp4	0.0	217.86535811424255	0.2333688735961914
22	60.507818937301636	response	0	2		20.0	2.5	/experiments/knapen_aot/videos/S_yt-l_ioasf6yHg_44.mp4	0.0	218.09048700332642	
22	60.516058921813965	movie	1		301.0	20.0	2.5	/experiments/knapen_aot/videos/S_yt-l_ioasf6yHg_44.mp4	0.0	218.09872698783875	2.5083141326904297
22	63.024373054504395	fix_post	2		12.0	20.0	2.5	/experiments/knapen_aot/videos/S_yt-l_ioasf6yHg_44.mp4	0.0	220.60704112052917	0.10001397132873535
23	63.12438702583313	fix_pre	0		59.0	21.0	2.5	/experiments/knapen_aot/videos/S_bing-www_dailymotion_com_video_x64hzm7_8.mp4	0.0	220.7070550918579	0.4915649890899658
23	63.60781812667847	response	0	2		21.0	2.5	/experiments/knapen_aot/videos/S_bing-www_dailymotion_com_video_x64hzm7_8.mp4	0.0	221.19048619270325	
23	63.615952014923096	movie	1		165.0	21.0	2.5	/experiments/knapen_aot/videos/S_bing-www_dailymotion_com_video_x64hzm7_8.mp4	0.0	221.19862008094788	2.5083940029144287
23	66.12434601783752	fix_post	2		12.0	21.0	2.5	/experiments/knapen_aot/videos/S_bing-www_dailymotion_com_video_x64hzm7_8.mp4	0.0	223.7070140838623	0.09995007514953613
24	66.22429609298706	fix_pre	0		41.0	22.0	2.5	/experiments/knapen_aot/videos/S_ILSVRC2015_train_00446000.mp4	0.0	223.80696415901184	0.34297895431518555
24	66.55779004096985	response	0	2		22.0	2.5	/experiments/knapen_aot/videos/S_ILSVRC2015_train_00446000.mp4	0.0	224.14045810699463	
24	66.56727504730225	movie	1		301.0	22.0	2.5	/experiments/knapen_aot/videos/S_ILSVRC2015_train_00446000.mp4	0.0	224.14994311332703	2.507037878036499
24	69.07431292533875	fix_post	2		12.0	22.0	2.5	/experiments/knapen_aot/videos/S_ILSVRC2015_train_00446000.mp4	0.0	226.65698099136353	0.09998202323913574
25	69.17429494857788	fix_pre	0		40.0	23.0	2.5	/experiments/knapen_aot/videos/R_S_yt-V_2XgfjJfeQ_67.mp4	0.0	226.75696301460266	0.33332300186157227
25	69.49190902709961	response	0	2		23.0	2.5	/experiments/knapen_aot/videos/R_S_yt-V_2XgfjJfeQ_67.mp4	0.0	227.0745770931244	
25	69.50761795043945	movie	1		301.0	23.0	2.5	/experiments/knapen_aot/videos/R_S_yt-V_2XgfjJfeQ_67.mp4	0.0	227.09028601646423	2.5083329677581787
25	72.01595091819763	fix_post	2		12.0	23.0	2.5	/experiments/knapen_aot/videos/R_S_yt-V_2XgfjJfeQ_67.mp4	0.0	229.5986189842224	0.10002017021179199
26	72.11597108840942	fix_pre	0		41.0	24.0	2.5	/experiments/knapen_aot/videos/R_S_meta-11482036_235.mp4	0.0	229.6986391544342	0.3416469097137451
26	72.44943714141846	response	0	2		24.0	2.5	/experiments/knapen_aot/videos/R_S_meta-11482036_235.mp4	0.0	230.03210520744324	
26	72.45761799812317	movie	1		299.0	24.0	2.5	/experiments/knapen_aot/videos/R_S_meta-11482036_235.mp4	0.0	230.04028606414795	2.5083749294281006
26	74.96599292755127	fix_post	2		12.0	24.0	2.5	/experiments/knapen_aot/videos/R_S_meta-11482036_235.mp4	0.0	232.54866099357605	0.10000109672546387
27	75.06599402427673	fix_pre	0		32.0	25.0	2.5	/experiments/knapen_aot/videos/R_S_yt-9pYW_TqVpU4_43.mp4	0.0	232.6486620903015	0.2665901184082031
27	75.32449412345886	response	0	2		25.0	2.5	/experiments/knapen_aot/videos/R_S_yt-9pYW_TqVpU4_43.mp4	0.0	232.90716218948364	
27	75.33258414268494	movie	1		301.0	25.0	2.5	/experiments/knapen_aot/videos/R_S_yt-9pYW_TqVpU4_43.mp4	0.0	232.91525220870972	2.5083727836608887
27	77.84095692634583	fix_post	2		12.0	25.0	2.5	/experiments/knapen_aot/videos/R_S_yt-9pYW_TqVpU4_43.mp4	0.0	235.4236249923706	0.09998917579650879
28	77.94094610214233	fix_pre	0		44.0	26.0	2.5	/experiments/knapen_aot/videos/S_yt-giRwl4yChlw_9.mp4	0.0	235.52361416816711	0.3666720390319824
28	78.29938697814941	response	0	2		26.0	2.5	/experiments/knapen_aot/videos/S_yt-giRwl4yChlw_9.mp4	0.0	235.8820550441742	
28	78.30761814117432	movie	1		301.0	26.0	2.5	/experiments/knapen_aot/videos/S_yt-giRwl4yChlw_9.mp4	0.0	235.8902862071991	2.508333921432495
28	80.81595206260681	fix_post	2		12.0	26.0	2.5	/experiments/knapen_aot/videos/S_yt-giRwl4yChlw_9.mp4	0.0	238.3986201286316	0.10001707077026367
29	80.91596913337708	fix_pre	0		37.0	27.0	2.5	blank	1.0	238.49863719940186	0.3082129955291748
29	81.20852899551392	response	0	2		27.0	2.5	blank	1.0	238.7911970615387	
29	81.22418212890625	movie	1		301.0	27.0	2.5	blank	1.0	238.80685019493103	2.508405923843384
29	83.73258805274963	fix_post	2		12.0	27.0	2.5	blank	1.0	241.3152561187744	0.10006093978881836
30	83.83264899253845	fix_pre	0		57.0	28.0	2.5	/experiments/knapen_aot/videos/R_S_yt-KpOAdMtPGFs_17.mp4	0.0	241.41531705856323	0.47498202323913574
30	84.29933500289917	response	0	2		28.0	2.5	/experiments/knapen_aot/videos/R_S_yt-KpOAdMtPGFs_17.mp4	0.0	241.88200306892395	
30	84.30763101577759	movie	1		301.0	28.0	2.5	/experiments/knapen_aot/videos/R_S_yt-KpOAdMtPGFs_17.mp4	0.0	241.89029908180237	2.50827693939209
30	86.81590795516968	fix_post	2		12.0	28.0	2.5	/experiments/knapen_aot/videos/R_S_yt-KpOAdMtPGFs_17.mp4	0.0	244.39857602119446	0.10004115104675293
31	86.91594910621643	fix_pre	0		56.0	29.0	2.5	/experiments/knapen_aot/videos/S_yt-RXqc3JAmmPM_72.mp4	0.0	244.4986171722412	0.4666438102722168
31	87.37439894676208	response	0	2		29.0	2.5	/experiments/knapen_aot/videos/S_yt-RXqc3JAmmPM_72.mp4	0.0	244.95706701278687	
31	87.38259291648865	movie	1		301.0	29.0	2.5	/experiments/knapen_aot/videos/S_yt-RXqc3JAmmPM_72.mp4	0.0	244.96526098251343	2.508352041244507
31	89.89094495773315	fix_post	2		12.0	29.0	2.5	/experiments/knapen_aot/videos/S_yt-RXqc3JAmmPM_72.mp4	0.0	247.47361302375793	0.0999910831451416
32	89.9909360408783	fix_pre	0		48.0	30.0	2.5	/experiments/knapen_aot/videos/S_ILSVRC2015_train_00446000.mp4	0.0	247.57360410690308	0.39997100830078125
32	90.38268208503723	response	0	2		30.0	2.5	/experiments/knapen_aot/videos/S_ILSVRC2015_train_00446000.mp4	0.0	247.965350151062	
32	90.39090704917908	movie	1		301.0	30.0	2.5	/experiments/knapen_aot/videos/S_ILSVRC2015_train_00446000.mp4	0.0	247.97357511520386	2.508298873901367
32	92.89920592308044	fix_post	2		12.0	30.0	2.5	/experiments/knapen_aot/videos/S_ILSVRC2015_train_00446000.mp4	0.0	250.48187398910522	0.09998512268066406
33	92.99919104576111	fix_pre	0		64.0	31.0	2.5	/experiments/knapen_aot/videos/R_S_yt-2lnxIdOTxog_157.mp4	0.0	250.5818591117859	0.5333008766174316
33	93.5243980884552	response	0	2		31.0	2.5	/experiments/knapen_aot/videos/R_S_yt-2lnxIdOTxog_157.mp4	0.0	251.10706615447998	
33	93.53249192237854	movie	1		301.0	31.0	2.5	/experiments/knapen_aot/videos/R_S_yt-2lnxIdOTxog_157.mp4	0.0	251.11515998840332	2.508345127105713
33	96.04083704948425	fix_post	2		12.0	31.0	2.5	/experiments/knapen_aot/videos/R_S_yt-2lnxIdOTxog_157.mp4	0.0	253.62350511550903	0.10011601448059082
34	96.14095306396484	fix_pre	0		57.0	32.0	2.5	/experiments/knapen_aot/videos/R_S_yt-fymgyhmYnMI_557.mp4	0.0	253.72362112998962	0.4749479293823242
34	96.60764503479004	response	0	2		32.0	2.5	/experiments/knapen_aot/videos/R_S_yt-fymgyhmYnMI_557.mp4	0.0	254.19031310081482	
34	96.61590099334717	movie	1		301.0	32.0	2.5	/experiments/knapen_aot/videos/R_S_yt-fymgyhmYnMI_557.mp4	0.0	254.19856905937195	2.5082809925079346
34	99.1241819858551	fix_post	2		12.0	32.0	2.5	/experiments/knapen_aot/videos/R_S_yt-fymgyhmYnMI_557.mp4	0.0	256.7068500518799	0.10004711151123047
35	99.22422909736633	fix_pre	0		37.0	33.0	2.5	blank	1.0	256.8068971633911	0.3082849979400635
35	99.52423691749573	response	0	2		33.0	2.5	blank	1.0	257.1069049835205	
35	99.5325140953064	movie	1		301.0	33.0	2.5	blank	1.0	257.1151821613312	2.5083799362182617
35	102.04089403152466	fix_post	2		12.0	33.0	2.5	blank	1.0	259.62356209754944	0.09999203681945801
36	102.14088606834412	fix_pre	0		61.0	34.0	2.5	/experiments/knapen_aot/videos/R_S_yt-5DD4XtHSA9Q_171.mp4	0.0	259.7235541343689	0.5094208717346191
36	102.64097094535828	response	0	2		34.0	2.5	/experiments/knapen_aot/videos/R_S_yt-5DD4XtHSA9Q_171.mp4	0.0	260.22363901138306	
36	102.65030694007874	movie	1		301.0	34.0	2.5	/experiments/knapen_aot/videos/R_S_yt-5DD4XtHSA9Q_171.mp4	0.0	260.2329750061035	2.5072081089019775
36	105.15751504898071	fix_post	2		12.0	34.0	2.5	/experiments/knapen_aot/videos/R_S_yt-5DD4XtHSA9Q_171.mp4	0.0	262.7401831150055	0.0999748706817627
37	105.25748991966248	fix_pre	0		38.0	35.0	2.5	/experiments/knapen_aot/videos/R_S_ILSVRC2015_train_00165008.mp4	0.0	262.84015798568726	0.3166642189025879
37	105.56600403785706	response	0	2		35.0	2.5	/experiments/knapen_aot/videos/R_S_ILSVRC2015_train_00165008.mp4	0.0	263.14867210388184	
37	105.57415413856506	movie	1		301.0	35.0	2.5	/experiments/knapen_aot/videos/R_S_ILSVRC2015_train_00165008.mp4	0.0	263.15682220458984	2.508370876312256
37	108.08252501487732	fix_post	2		12.0	35.0	2.5	/experiments/knapen_aot/videos/R_S_ILSVRC2015_train_00165008.mp4	0.0	265.6651930809021	0.10001802444458008
38	108.1825430393219	fix_pre	0		39.0	36.0	2.5	/experiments/knapen_aot/videos/R_S_comp_N008_C009_PS_v01_SDR_PS_20180925_SDR_2K_AVC.mp4	0.0	265.7652111053467	0.32492804527282715
38	108.4993200302124	response	0	2		36.0	2.5	/experiments/knapen_aot/videos/R_S_comp_N008_C009_PS_v01_SDR_PS_20180925_SDR_2K_AVC.mp4	0.0	266.0819880962372	
38	108.50747108459473	movie	1		167.0	36.0	2.5	/experiments/knapen_aot/videos/R_S_comp_N008_C009_PS_v01_SDR_PS_20180925_SDR_2K_AVC.mp4	0.0	266.0901391506195	2.5083839893341064
38	111.01585507392883	fix_post	2		12.0	36.0	2.5	/experiments/knapen_aot/videos/R_S_comp_N008_C009_PS_v01_SDR_PS_20180925_SDR_2K_AVC.mp4	0.0	268.5985231399536	0.10001897811889648
39	111.11587405204773	fix_pre	0		44.0	37.0	2.5	/experiments/knapen_aot/videos/S_comp_CH_C007_C004_PSNK_v02_SDR_PS_FINAL_20180709_SDR_2K_AVC.mp4	0.0	268.6985421180725	0.36764001846313477
39	111.4744291305542	response	0	2		37.0	2.5	/experiments/knapen_aot/videos/S_comp_CH_C007_C004_PSNK_v02_SDR_PS_FINAL_20180709_SDR_2K_AVC.mp4	0.0	269.057097196579	
39	111.48351407051086	movie	1		178.0	37.0	2.5	/experiments/knapen_aot/videos/S_comp_CH_C007_C004_PSNK_v02_SDR_PS_FINAL_20180709_SDR_2K_AVC.mp4	0.0	269.06618213653564	2.507322072982788
39	113.99083614349365	fix_post	2		12.0	37.0	2.5	/experiments/knapen_aot/videos/S_comp_CH_C007_C004_PSNK_v02_SDR_PS_FINAL_20180709_SDR_2K_AVC.mp4	0.0	271.57350420951843	0.10001182556152344
40	114.09084796905518	fix_pre	0		39.0	38.0	2.5	/experiments/knapen_aot/videos/S_yt-fLNDhX22diw_98.mp4	0.0	271.67351603507996	0.3249340057373047
40	114.40753412246704	response	0	2		38.0	2.5	/experiments/knapen_aot/videos/S_yt-fLNDhX22diw_98.mp4	0.0	271.9902021884918	
40	114.41578197479248	movie	1		301.0	38.0	2.5	/experiments/knapen_aot/videos/S_yt-fLNDhX22diw_98.mp4	0.0	271.99845004081726	2.508347988128662
40	116.92412996292114	fix_post	2		12.0	38.0	2.5	/experiments/knapen_aot/videos/S_yt-fLNDhX22diw_98.mp4	0.0	274.5067980289459	0.09998917579650879
41	117.02411913871765	fix_pre	0		31.0	39.0	2.5	/experiments/knapen_aot/videos/S_yt-tX5U0Lyo6Gs_376.mp4	0.0	274.60678720474243	0.25833797454833984
41	117.2742600440979	response	0	2		39.0	2.5	/experiments/knapen_aot/videos/S_yt-tX5U0Lyo6Gs_376.mp4	0.0	274.8569281101227	
41	117.28245711326599	movie	1		301.0	39.0	2.5	/experiments/knapen_aot/videos/S_yt-tX5U0Lyo6Gs_376.mp4	0.0	274.86512517929077	2.508431911468506
41	119.7908890247345	fix_post	2		12.0	39.0	2.5	/experiments/knapen_aot/videos/S_yt-tX5U0Lyo6Gs_376.mp4	0.0	277.3735570907593	0.09993290901184082
42	119.89082193374634	fix_pre	0		54.0	40.0	2.5	blank	1.0	277.4734899997711	0.4499650001525879
42	120.33260202407837	response	0	2		40.0	2.5	blank	1.0	277.91527009010315	
42	120.34078693389893	movie	1		301.0	40.0	2.5	blank	1.0	277.9234549999237	2.508333206176758
42	122.84912014007568	fix_post	2		12.0	40.0	2.5	blank	1.0	280.43178820610046	0.0999288558959961
43	122.94904899597168	fix_pre	0		48.0	41.0	2.5	/experiments/knapen_aot/videos/S_yt-c6kLumgTX54_7.mp4	0.0	280.53171706199646	0.40003514289855957
43	123.3334641456604	response	0	2		41.0	2.5	/experiments/knapen_aot/videos/S_yt-c6kLumgTX54_7.mp4	0.0	280.9161322116852	
43	123.34908413887024	movie	1		301.0	41.0	2.5	/experiments/knapen_aot/videos/S_yt-c6kLumgTX54_7.mp4	0.0	280.931752204895	2.508384943008423
43	125.85746908187866	fix_post	2		12.0	41.0	2.5	/experiments/knapen_aot/videos/S_yt-c6kLumgTX54_7.mp4	0.0	283.44013714790344	0.09999895095825195
44	125.95746803283691	fix_pre	0		60.0	42.0	2.5	/experiments/knapen_aot/videos/S_yt-Gc1p5CnDbDY_22.mp4	0.0	283.5401360988617	0.49996209144592285
44	126.44928503036499	response	0	2		42.0	2.5	/experiments/knapen_aot/videos/S_yt-Gc1p5CnDbDY_22.mp4	0.0	284.03195309638977	
44	126.45743012428284	movie	1		301.0	42.0	2.5	/experiments/knapen_aot/videos/S_yt-Gc1p5CnDbDY_22.mp4	0.0	284.0400981903076	2.508382797241211
44	128.96581292152405	fix_post	2		12.0	42.0	2.5	/experiments/knapen_aot/videos/S_yt-Gc1p5CnDbDY_22.mp4	0.0	286.5484809875488	0.09998106956481934
45	129.06579399108887	fix_pre	0		159.0	43.0	2.5	/experiments/knapen_aot/videos/R_S_yt-2jVJb1PR2XA_16.mp4	0.0	286.64846205711365	1.324995994567871
45	130.3826060295105	response	0	2		43.0	2.5	/experiments/knapen_aot/videos/R_S_yt-2jVJb1PR2XA_16.mp4	0.0	287.9652740955353	
45	130.39078998565674	movie	1		301.0	43.0	2.5	/experiments/knapen_aot/videos/R_S_yt-2jVJb1PR2XA_16.mp4	0.0	287.9734580516815	2.5083470344543457
45	132.89913702011108	fix_post	2		12.0	43.0	2.5	/experiments/knapen_aot/videos/R_S_yt-2jVJb1PR2XA_16.mp4	0.0	290.48180508613586	0.09997296333312988
46	132.9991099834442	fix_pre	0		46.0	44.0	2.5	/experiments/knapen_aot/videos/S_yt-HFiRYTnMZxE_338.mp4	0.0	290.581778049469	0.3833150863647461
46	133.37425303459167	response	0	2		44.0	2.5	/experiments/knapen_aot/videos/S_yt-HFiRYTnMZxE_338.mp4	0.0	290.95692110061646	
46	133.38242506980896	movie	1		301.0	44.0	2.5	/experiments/knapen_aot/videos/S_yt-HFiRYTnMZxE_338.mp4	0.0	290.96509313583374	2.508349895477295
46	135.89077496528625	fix_post	2		12.0	44.0	2.5	/experiments/knapen_aot/videos/S_yt-HFiRYTnMZxE_338.mp4	0.0	293.47344303131104	0.10001015663146973
47	135.99078512191772	fix_pre	0		36.0	45.0	2.5	/experiments/knapen_aot/videos/S_yt-H3EadcgKySM_58.mp4	0.0	293.5734531879425	0.29995179176330566
47	136.28258609771729	response	0	2		45.0	2.5	/experiments/knapen_aot/videos/S_yt-H3EadcgKySM_58.mp4	0.0	293.86525416374207	
47	136.29073691368103	movie	1		301.0	45.0	2.5	/experiments/knapen_aot/videos/S_yt-H3EadcgKySM_58.mp4	0.0	293.8734049797058	2.5083611011505127
47	138.79909801483154	fix_post	2		12.0	45.0	2.5	/experiments/knapen_aot/videos/S_yt-H3EadcgKySM_58.mp4	0.0	296.3817660808563	0.10002708435058594
48	138.89912509918213	fix_pre	0		49.0	46.0	2.5	/experiments/knapen_aot/videos/R_S_xq822dX6DDM_1.mp4	0.0	296.4817931652069	0.40823984146118164
48	139.29927802085876	response	0	2		46.0	2.5	/experiments/knapen_aot/videos/R_S_xq822dX6DDM_1.mp4	0.0	296.88194608688354	
48	139.3073649406433	movie	1		301.0	46.0	2.5	/experiments/knapen_aot/videos/R_S_xq822dX6DDM_1.mp4	0.0	296.8900330066681	2.508315086364746
48	141.81568002700806	fix_post	2		12.0	46.0	2.5	/experiments/knapen_aot/videos/R_S_xq822dX6DDM_1.mp4	0.0	299.39834809303284	0.10004496574401855
49	141.91572499275208	fix_pre	0		31.0	47.0	2.5	blank	1.0	299.49839305877686	0.2583799362182617
49	142.16579508781433	response	0	2		47.0	2.5	blank	1.0	299.7484631538391	
49	142.17410492897034	movie	1		301.0	47.0	2.5	blank	1.0	299.7567729949951	2.508263111114502
49	144.68236804008484	fix_post	2		12.0	47.0	2.5	blank	1.0	302.2650361061096	0.0999751091003418
50	144.78234314918518	fix_pre	0		38.0	48.0	2.5	/experiments/knapen_aot/videos/R_S_yt-0buqUbXVTn8_48.mp4	0.0	302.36501121520996	0.3166627883911133
50	145.0908169746399	response	0	2		48.0	2.5	/experiments/knapen_aot/videos/R_S_yt-0buqUbXVTn8_48.mp4	0.0	302.6734850406647	
50	145.0990059375763	movie	1		300.0	48.0	2.5	/experiments/knapen_aot/videos/R_S_yt-0buqUbXVTn8_48.mp4	0.0	302.6816740036011	2.5083181858062744
50	147.60732412338257	fix_post	2		12.0	48.0	2.5	/experiments/knapen_aot/videos/R_S_yt-0buqUbXVTn8_48.mp4	0.0	305.18999218940735	0.1000969409942627
51	147.70742106437683	fix_pre	0		21.0	49.0	2.5	/experiments/knapen_aot/videos/R_S_yt-zKnjBBYWe90_369.mp4	0.0	305.2900891304016	0.17488503456115723
51	147.874125957489	response	0	2		49.0	2.5	/experiments/knapen_aot/videos/R_S_yt-zKnjBBYWe90_369.mp4	0.0	305.4567940235138	
51	147.882306098938	movie	1		301.0	49.0	2.5	/experiments/knapen_aot/videos/R_S_yt-zKnjBBYWe90_369.mp4	0.0	305.46497416496277	2.508352041244507
51	150.3906581401825	fix_post	2		12.0	49.0	2.5	/experiments/knapen_aot/videos/R_S_yt-zKnjBBYWe90_369.mp4	0.0	307.9733262062073	0.09999680519104004
52	150.49065494537354	fix_pre	0		41.0	50.0	2.5	/experiments/knapen_aot/videos/S_yt-9pYW_TqVpU4_43.mp4	0.0	308.0733230113983	0.3416881561279297
52	150.8240909576416	response	0	2		50.0	2.5	/experiments/knapen_aot/videos/S_yt-9pYW_TqVpU4_43.mp4	0.0	308.4067590236664	
52	150.83234310150146	movie	1		301.0	50.0	2.5	/experiments/knapen_aot/videos/S_yt-9pYW_TqVpU4_43.mp4	0.0	308.41501116752625	2.5083258152008057
52	153.34066891670227	fix_post	2		12.0	50.0	2.5	/experiments/knapen_aot/videos/S_yt-9pYW_TqVpU4_43.mp4	0.0	310.92333698272705	0.10005807876586914
53	153.44072699546814	fix_pre	0		65.0	51.0	2.5	/experiments/knapen_aot/videos/R_S_ILSVRC2015_train_00743001.mp4	0.0	311.0233950614929	0.5424239635467529
53	153.97410011291504	response	0	2		51.0	2.5	/experiments/knapen_aot/videos/R_S_ILSVRC2015_train_00743001.mp4	0.0	311.5567681789398	
53	153.9831509590149	movie	1		301.0	51.0	2.5	/experiments/knapen_aot/videos/R_S_ILSVRC2015_train_00743001.mp4	0.0	311.5658190250397	2.5075011253356934
53	156.4906520843506	fix_post	2		12.0	51.0	2.5	/experiments/knapen_aot/videos/R_S_ILSVRC2015_train_00743001.mp4	0.0	314.07332015037537	0.0999908447265625
54	156.59064292907715	fix_pre	0		38.0	52.0	2.5	/experiments/knapen_aot/videos/R_S_yt-K_gHa2x2OQA_319.mp4	0.0	314.17331099510193	0.3166191577911377
54	156.89916014671326	response	0	2		52.0	2.5	/experiments/knapen_aot/videos/R_S_yt-K_gHa2x2OQA_319.mp4	0.0	314.48182821273804	
54	156.9072620868683	movie	1		301.0	52.0	2.5	/experiments/knapen_aot/videos/R_S_yt-K_gHa2x2OQA_319.mp4	0.0	314.48993015289307	2.508370876312256
54	159.41563296318054	fix_post	2		12.0	52.0	2.5	/experiments/knapen_aot/videos/R_S_yt-K_gHa2x2OQA_319.mp4	0.0	316.9983010292053	0.09998917579650879
55	159.51562213897705	fix_pre	0		39.0	53.0	2.5	/experiments/knapen_aot/videos/R_S_yt-AiXq1oDrEXI_123.mp4	0.0	317.09829020500183	0.3249537944793701
55	159.8323791027069	response	0	2		53.0	2.5	/experiments/knapen_aot/videos/R_S_yt-AiXq1oDrEXI_123.mp4	0.0	317.4150471687317	
55	159.84057593345642	movie	1		301.0	53.0	2.5	/experiments/knapen_aot/videos/R_S_yt-AiXq1oDrEXI_123.mp4	0.0	317.4232439994812	2.5084190368652344
55	162.34899497032166	fix_post	2		12.0	53.0	2.5	/experiments/knapen_aot/videos/R_S_yt-AiXq1oDrEXI_123.mp4	0.0	319.93166303634644	0.10001611709594727
56	162.4490110874176	fix_pre	0		43.0	54.0	2.5	/experiments/knapen_aot/videos/R_S_ILSVRC2015_train_00556000.mp4	0.0	320.0316791534424	0.35825490951538086
56	162.79915499687195	response	0	2		54.0	2.5	/experiments/knapen_aot/videos/R_S_ILSVRC2015_train_00556000.mp4	0.0	320.38182306289673	
56	162.80726599693298	movie	1		301.0	54.0	2.5	/experiments/knapen_aot/videos/R_S_ILSVRC2015_train_00556000.mp4	0.0	320.38993406295776	2.508350133895874
56	165.31561613082886	fix_post	2		12.0	54.0	2.5	/experiments/knapen_aot/videos/R_S_ILSVRC2015_train_00556000.mp4	0.0	322.89828419685364	0.10003280639648438
57	165.41564893722534	fix_pre	0		51.0	55.0	2.5	/experiments/knapen_aot/videos/R_S_BO_A012_C031_SDR_20190726_SDR_2K_AVC.mp4	0.0	322.9983170032501	0.424976110458374
57	165.83245491981506	response	0	2		55.0	2.5	/experiments/knapen_aot/videos/R_S_BO_A012_C031_SDR_20190726_SDR_2K_AVC.mp4	0.0	323.41512298583984	
57	165.84062504768372	movie	1		180.0	55.0	2.5	/experiments/knapen_aot/videos/R_S_BO_A012_C031_SDR_20190726_SDR_2K_AVC.mp4	0.0	323.4232931137085	2.508310079574585
57	168.3489351272583	fix_post	2		12.0	55.0	2.5	/experiments/knapen_aot/videos/R_S_BO_A012_C031_SDR_20190726_SDR_2K_AVC.mp4	0.0	325.9316031932831	0.10000395774841309
58	168.4489390850067	fix_pre	0		43.0	56.0	2.5	blank	1.0	326.0316071510315	0.35829687118530273
58	168.79903101921082	response	0	2		56.0	2.5	blank	1.0	326.3816990852356	
58	168.80723595619202	movie	1		301.0	56.0	2.5	blank	1.0	326.3899040222168	2.5083370208740234
58	171.31557297706604	fix_post	2		12.0	56.0	2.5	blank	1.0	328.8982410430908	0.10002398490905762
59	171.4155969619751	fix_pre	0		36.0	57.0	2.5	/experiments/knapen_aot/videos/R_S_pexels-kampus-production-5991896.mp4	0.0	328.9982650279999	0.3000030517578125
59	171.7073700428009	response	0	2		57.0	2.5	/experiments/knapen_aot/videos/R_S_pexels-kampus-production-5991896.mp4	0.0	329.2900381088257	
59	171.7156000137329	movie	1		167.0	57.0	2.5	/experiments/knapen_aot/videos/R_S_pexels-kampus-production-5991896.mp4	0.0	329.2982680797577	2.508234977722168
59	174.22383499145508	fix_post	2		12.0	57.0	2.5	/experiments/knapen_aot/videos/R_S_pexels-kampus-production-5991896.mp4	0.0	331.80650305747986	0.10011005401611328
60	174.3239450454712	fix_pre	0		30.0	58.0	2.5	/experiments/knapen_aot/videos/R_S_wc-DcFDe419cL3d_17.mp4	0.0	331.906613111496	0.24996304512023926
60	174.56575894355774	response	0	2		58.0	2.5	/experiments/knapen_aot/videos/R_S_wc-DcFDe419cL3d_17.mp4	0.0	332.1484270095825	
60	174.57390809059143	movie	1		163.0	58.0	2.5	/experiments/knapen_aot/videos/R_S_wc-DcFDe419cL3d_17.mp4	0.0	332.1565761566162	2.5084009170532227
60	177.08230900764465	fix_post	2		12.0	58.0	2.5	/experiments/knapen_aot/videos/R_S_wc-DcFDe419cL3d_17.mp4	0.0	334.66497707366943	0.09987807273864746
61	177.1821870803833	fix_pre	0		53.0	59.0	2.5	/experiments/knapen_aot/videos/S_yt-AuQ_WxaNy4Y_255.mp4	0.0	334.7648551464081	0.441694974899292
61	177.61565804481506	response	0	2		59.0	2.5	/experiments/knapen_aot/videos/S_yt-AuQ_WxaNy4Y_255.mp4	0.0	335.19832611083984	
61	177.6238820552826	movie	1		301.0	59.0	2.5	/experiments/knapen_aot/videos/S_yt-AuQ_WxaNy4Y_255.mp4	0.0	335.2065501213074	2.508284091949463
61	180.13216614723206	fix_post	2		12.0	59.0	2.5	/experiments/knapen_aot/videos/S_yt-AuQ_WxaNy4Y_255.mp4	0.0	337.71483421325684	0.10001087188720703
62	180.23217701911926	fix_pre	0		53.0	60.0	2.5	/experiments/knapen_aot/videos/S_ILSVRC2015_train_00404003.mp4	0.0	337.81484508514404	0.46666502952575684
62	180.68314909934998	response	0	2		60.0	2.5	/experiments/knapen_aot/videos/S_ILSVRC2015_train_00404003.mp4	0.0	338.26581716537476	
62	180.69884204864502	movie	1		301.0	60.0	2.5	/experiments/knapen_aot/videos/S_ILSVRC2015_train_00404003.mp4	0.0	338.2815101146698	2.5083720684051514
62	183.20721411705017	fix_post	2		12.0	60.0	2.5	/experiments/knapen_aot/videos/S_ILSVRC2015_train_00404003.mp4	0.0	340.78988218307495	0.09995388984680176
63	183.30716800689697	fix_pre	0		38.0	61.0	2.5	blank	1.0	340.88983607292175	0.3168060779571533
63	183.61565494537354	response	0	2		61.0	2.5	blank	1.0	341.1983230113983	
63	183.62397408485413	movie	1		301.0	61.0	2.5	blank	1.0	341.2066421508789	2.5081939697265625
63	186.1321680545807	fix_post	2		12.0	61.0	2.5	blank	1.0	343.71483612060547	0.09998488426208496
64	186.23215293884277	fix_pre	0		63.0	62.0	2.5	/experiments/knapen_aot/videos/R_S_I003_C004_SDR_2K_AVC.mp4	0.0	343.81482100486755	0.524989128112793
64	186.74898314476013	response	0	2		62.0	2.5	/experiments/knapen_aot/videos/R_S_I003_C004_SDR_2K_AVC.mp4	0.0	344.3316512107849	
64	186.75714206695557	movie	1		167.0	62.0	2.5	/experiments/knapen_aot/videos/R_S_I003_C004_SDR_2K_AVC.mp4	0.0	344.33981013298035	2.5083959102630615
64	189.26553797721863	fix_post	2		12.0	62.0	2.5	/experiments/knapen_aot/videos/R_S_I003_C004_SDR_2K_AVC.mp4	0.0	346.8482060432434	0.09997797012329102
65	189.36551594734192	fix_pre	0		32.0	63.0	2.5	/experiments/knapen_aot/videos/R_S_yt-6KJ_yZR-Jco_14.mp4	0.0	346.9481840133667	0.26665496826171875
65	189.6239800453186	response	0	2		63.0	2.5	/experiments/knapen_aot/videos/R_S_yt-6KJ_yZR-Jco_14.mp4	0.0	347.2066481113434	
65	189.63217091560364	movie	1		301.0	63.0	2.5	/experiments/knapen_aot/videos/R_S_yt-6KJ_yZR-Jco_14.mp4	0.0	347.2148389816284	2.5083532333374023
65	192.14052414894104	fix_post	2		12.0	63.0	2.5	/experiments/knapen_aot/videos/R_S_yt-6KJ_yZR-Jco_14.mp4	0.0	349.7231922149658	0.09999799728393555
66	192.24052214622498	fix_pre	0		33.0	64.0	2.5	/experiments/knapen_aot/videos/R_S_yt-xlHdGsXVZFU_83.mp4	0.0	349.82319021224976	0.27495598793029785
66	192.50728797912598	response	0	2		64.0	2.5	/experiments/knapen_aot/videos/R_S_yt-xlHdGsXVZFU_83.mp4	0.0	350.08995604515076	
66	192.51547813415527	movie	1		300.0	64.0	2.5	/experiments/knapen_aot/videos/R_S_yt-xlHdGsXVZFU_83.mp4	0.0	350.09814620018005	2.5082859992980957
66	195.02376413345337	fix_post	2		12.0	64.0	2.5	/experiments/knapen_aot/videos/R_S_yt-xlHdGsXVZFU_83.mp4	0.0	352.60643219947815	0.1000828742980957
67	195.12384700775146	fix_pre	0		49.0	65.0	2.5	/experiments/knapen_aot/videos/R_S_ILSVRC2015_train_00322000.mp4	0.0	352.70651507377625	0.40827512741088867
67	195.52396607398987	response	0	2		65.0	2.5	/experiments/knapen_aot/videos/R_S_ILSVRC2015_train_00322000.mp4	0.0	353.10663414001465	
67	195.53212213516235	movie	1		301.0	65.0	2.5	/experiments/knapen_aot/videos/R_S_ILSVRC2015_train_00322000.mp4	0.0	353.11479020118713	2.50832200050354
67	198.0404441356659	fix_post	2		12.0	65.0	2.5	/experiments/knapen_aot/videos/R_S_ILSVRC2015_train_00322000.mp4	0.0	355.6231122016907	0.09996485710144043
68	198.14040899276733	fix_pre	0		36.0	66.0	2.5	/experiments/knapen_aot/videos/S_yt-V35ubrbe8gA_86.mp4	0.0	355.7230770587921	0.3006410598754883
68	198.4248230457306	response	0	2		66.0	2.5	/experiments/knapen_aot/videos/S_yt-V35ubrbe8gA_86.mp4	0.0	356.00749111175537	
68	198.44105005264282	movie	1		301.0	66.0	2.5	/experiments/knapen_aot/videos/S_yt-V35ubrbe8gA_86.mp4	0.0	356.0237181186676	2.507776975631714
68	200.94882702827454	fix_post	2		12.0	66.0	2.5	/experiments/knapen_aot/videos/S_yt-V35ubrbe8gA_86.mp4	0.0	358.5314950942993	0.0999760627746582
69	201.0488030910492	fix_pre	0		62.0	67.0	2.5	/experiments/knapen_aot/videos/R_S_ILSVRC2015_train_00547001.mp4	0.0	358.631471157074	0.5171959400177002
69	201.54988598823547	response	0	2		67.0	2.5	/experiments/knapen_aot/videos/R_S_ILSVRC2015_train_00547001.mp4	0.0	359.13255405426025	
69	201.5659990310669	movie	1		301.0	67.0	2.5	/experiments/knapen_aot/videos/R_S_ILSVRC2015_train_00547001.mp4	0.0	359.1486670970917	2.507798910140991
69	204.07379794120789	fix_post	2		12.0	67.0	2.5	/experiments/knapen_aot/videos/R_S_ILSVRC2015_train_00547001.mp4	0.0	361.65646600723267	0.09998703002929688
70	204.17378497123718	fix_pre	0		19.0	68.0	2.5	blank	1.0	361.75645303726196	0.1582810878753662
70	204.3239369392395	response	0	2		68.0	2.5	blank	1.0	361.9066050052643	
70	204.33206605911255	movie	1		301.0	68.0	2.5	blank	1.0	361.91473412513733	2.5083839893341064
70	206.84045004844666	fix_post	2		12.0	68.0	2.5	blank	1.0	364.42311811447144	0.1000220775604248
71	206.94047212600708	fix_pre	0		101.0	69.0	2.5	/experiments/knapen_aot/videos/S_ILSVRC2015_train_00324002.mp4	0.0	364.52314019203186	0.8416228294372559
71	207.77387404441833	response	0	2		69.0	2.5	/experiments/knapen_aot/videos/S_ILSVRC2015_train_00324002.mp4	0.0	365.3565421104431	
71	207.78209495544434	movie	1		301.0	69.0	2.5	/experiments/knapen_aot/videos/S_ILSVRC2015_train_00324002.mp4	0.0	365.3647630214691	2.5083651542663574
71	210.2904601097107	fix_post	2		12.0	69.0	2.5	/experiments/knapen_aot/videos/S_ILSVRC2015_train_00324002.mp4	0.0	367.8731281757355	0.09999799728393555
72	210.39045810699463	fix_pre	0		41.0	70.0	2.5	/experiments/knapen_aot/videos/S_Pexels_Videos_2795731_1.mp4	0.0	367.9731261730194	0.3421750068664551
72	210.71637296676636	response	0	2		70.0	2.5	/experiments/knapen_aot/videos/S_Pexels_Videos_2795731_1.mp4	0.0	368.29904103279114	
72	210.73263311386108	movie	1		163.0	70.0	2.5	/experiments/knapen_aot/videos/S_Pexels_Videos_2795731_1.mp4	0.0	368.31530117988586	2.5077478885650635
72	213.24038100242615	fix_post	2		12.0	70.0	2.5	/experiments/knapen_aot/videos/S_Pexels_Videos_2795731_1.mp4	0.0	370.8230490684509	0.10004401206970215
73	213.34042501449585	fix_pre	0		30.0	71.0	2.5	/experiments/knapen_aot/videos/R_S_yt-fIEGqReekCM_10.mp4	0.0	370.92309308052063	0.24996209144592285
73	213.58221101760864	response	0	2		71.0	2.5	/experiments/knapen_aot/videos/R_S_yt-fIEGqReekCM_10.mp4	0.0	371.1648790836334	
73	213.59038710594177	movie	1		301.0	71.0	2.5	/experiments/knapen_aot/videos/R_S_yt-fIEGqReekCM_10.mp4	0.0	371.17305517196655	2.5083069801330566
73	216.09869408607483	fix_post	2		12.0	71.0	2.5	/experiments/knapen_aot/videos/R_S_yt-fIEGqReekCM_10.mp4	0.0	373.6813621520996	0.10001587867736816
74	216.1987099647522	fix_pre	0		29.0	72.0	2.5	/experiments/knapen_aot/videos/S_yt-Rsfo57AlpLA_332.mp4	0.0	373.781378030777	0.24220705032348633
74	216.43221306800842	response	0	2		72.0	2.5	/experiments/knapen_aot/videos/S_yt-Rsfo57AlpLA_332.mp4	0.0	374.0148811340332	
74	216.44091701507568	movie	1		301.0	72.0	2.5	/experiments/knapen_aot/videos/S_yt-Rsfo57AlpLA_332.mp4	0.0	374.02358508110046	2.507765054702759
74	218.94868206977844	fix_post	2		12.0	72.0	2.5	/experiments/knapen_aot/videos/S_yt-Rsfo57AlpLA_332.mp4	0.0	376.5313501358032	0.09994697570800781
75	219.04862904548645	fix_pre	0		47.0	73.0	2.5	/experiments/knapen_aot/videos/S_yt-J2PiBa1MXI0_210.mp4	0.0	376.63129711151123	0.39223599433898926
75	219.43219304084778	response	0	2		73.0	2.5	/experiments/knapen_aot/videos/S_yt-J2PiBa1MXI0_210.mp4	0.0	377.01486110687256	
75	219.44086503982544	movie	1		301.0	73.0	2.5	/experiments/knapen_aot/videos/S_yt-J2PiBa1MXI0_210.mp4	0.0	377.0235331058502	2.5078699588775635
75	221.948734998703	fix_post	2		12.0	73.0	2.5	/experiments/knapen_aot/videos/S_yt-J2PiBa1MXI0_210.mp4	0.0	379.5314030647278	0.09987306594848633
76	222.0486080646515	fix_pre	0		48.0	74.0	2.5	/experiments/knapen_aot/videos/S_yt-fIEGqReekCM_10.mp4	0.0	379.63127613067627	0.40007686614990234
76	222.44046306610107	response	0	2		74.0	2.5	/experiments/knapen_aot/videos/S_yt-fIEGqReekCM_10.mp4	0.0	380.02313113212585	
76	222.4486849308014	movie	1		301.0	74.0	2.5	/experiments/knapen_aot/videos/S_yt-fIEGqReekCM_10.mp4	0.0	380.0313529968262	2.5083770751953125
76	224.9570620059967	fix_post	2		12.0	74.0	2.5	/experiments/knapen_aot/videos/S_yt-fIEGqReekCM_10.mp4	0.0	382.5397300720215	0.0999910831451416
77	225.05705308914185	fix_pre	0		45.0	75.0	2.5	/experiments/knapen_aot/videos/R_S_bing-www_dailymotion_com_video_x64hzm7_8.mp4	0.0	382.6397211551666	0.3750009536743164
77	225.42382192611694	response	0	2		75.0	2.5	/experiments/knapen_aot/videos/R_S_bing-www_dailymotion_com_video_x64hzm7_8.mp4	0.0	383.0064899921417	
77	225.43205404281616	movie	1		167.0	75.0	2.5	/experiments/knapen_aot/videos/R_S_bing-www_dailymotion_com_video_x64hzm7_8.mp4	0.0	383.01472210884094	2.5083370208740234
77	227.94039106369019	fix_post	2		12.0	75.0	2.5	/experiments/knapen_aot/videos/R_S_bing-www_dailymotion_com_video_x64hzm7_8.mp4	0.0	385.52305912971497	0.09996891021728516
78	228.04035997390747	fix_pre	0		71.0	76.0	2.5	/experiments/knapen_aot/videos/R_S_ILSVRC2015_train_00465000.mp4	0.0	385.62302803993225	0.59157395362854
78	228.62382197380066	response	0	2		76.0	2.5	/experiments/knapen_aot/videos/R_S_ILSVRC2015_train_00465000.mp4	0.0	386.20649003982544	
78	228.631933927536	movie	1		301.0	76.0	2.5	/experiments/knapen_aot/videos/R_S_ILSVRC2015_train_00465000.mp4	0.0	386.2146019935608	2.5083839893341064
78	231.14031791687012	fix_post	2		12.0	76.0	2.5	/experiments/knapen_aot/videos/R_S_ILSVRC2015_train_00465000.mp4	0.0	388.7229859828949	0.10000419616699219
79	231.2403221130371	fix_pre	0		80.0	77.0	2.5	blank	1.0	388.8229901790619	0.6666769981384277
79	231.89891505241394	response	0	2		77.0	2.5	blank	1.0	389.4815831184387	
79	231.90699911117554	movie	1		301.0	77.0	2.5	blank	1.0	389.4896671772003	2.5083208084106445
79	234.41531991958618	fix_post	2		12.0	77.0	2.5	blank	1.0	391.99798798561096	0.09995913505554199
80	234.51527905464172	fix_pre	0		34.0	78.0	2.5	/experiments/knapen_aot/videos/S_yt-6KJ_yZR-Jco_14.mp4	0.0	392.0979471206665	0.2833869457244873
80	234.79041409492493	response	0	2		78.0	2.5	/experiments/knapen_aot/videos/S_yt-6KJ_yZR-Jco_14.mp4	0.0	392.3730821609497	
80	234.7986660003662	movie	1		301.0	78.0	2.5	/experiments/knapen_aot/videos/S_yt-6KJ_yZR-Jco_14.mp4	0.0	392.381334066391	2.508280038833618
80	237.30694603919983	fix_post	2		12.0	78.0	2.5	/experiments/knapen_aot/videos/S_yt-6KJ_yZR-Jco_14.mp4	0.0	394.8896141052246	0.09999394416809082
81	237.40693998336792	fix_pre	0		34.0	79.0	2.5	/experiments/knapen_aot/videos/S_yt-XHYYkaHcEtM_72.mp4	0.0	394.9896080493927	0.28375697135925293
81	237.68208193778992	response	0	2		79.0	2.5	/experiments/knapen_aot/videos/S_yt-XHYYkaHcEtM_72.mp4	0.0	395.2647500038147	
81	237.69069695472717	movie	1		299.0	79.0	2.5	/experiments/knapen_aot/videos/S_yt-XHYYkaHcEtM_72.mp4	0.0	395.27336502075195	2.507965087890625
81	240.1986620426178	fix_post	2		12.0	79.0	2.5	/experiments/knapen_aot/videos/S_yt-XHYYkaHcEtM_72.mp4	0.0	397.7813301086426	0.09998106956481934
82	240.29864311218262	fix_pre	0		45.0	80.0	2.5	/experiments/knapen_aot/videos/S_yt-fymgyhmYnMI_557.mp4	0.0	397.8813111782074	0.37495899200439453
82	240.66535592079163	response	0	2		80.0	2.5	/experiments/knapen_aot/videos/S_yt-fymgyhmYnMI_557.mp4	0.0	398.2480239868164	
82	240.673602104187	movie	1		301.0	80.0	2.5	/experiments/knapen_aot/videos/S_yt-fymgyhmYnMI_557.mp4	0.0	398.2562701702118	2.508388042449951
82	243.18199014663696	fix_post	2		12.0	80.0	2.5	/experiments/knapen_aot/videos/S_yt-fymgyhmYnMI_557.mp4	0.0	400.76465821266174	0.09997987747192383
83	243.2819700241089	fix_pre	0		36.0	81.0	2.5	/experiments/knapen_aot/videos/S_yt-HFiRYTnMZxE_338.mp4	0.0	400.86463809013367	0.299976110458374
83	243.5660810470581	response	0	2		81.0	2.5	/experiments/knapen_aot/videos/S_yt-HFiRYTnMZxE_338.mp4	0.0	401.1487491130829	
83	243.58194613456726	movie	1		301.0	81.0	2.5	/experiments/knapen_aot/videos/S_yt-HFiRYTnMZxE_338.mp4	0.0	401.16461420059204	2.5083179473876953
83	246.09026408195496	fix_post	2		12.0	81.0	2.5	/experiments/knapen_aot/videos/S_yt-HFiRYTnMZxE_338.mp4	0.0	403.67293214797974	0.10045099258422852
84	246.19071507453918	fix_pre	0		33.0	82.0	2.5	/experiments/knapen_aot/videos/S_ILSVRC2015_train_00339001.mp4	0.0	403.77338314056396	0.27451395988464355
84	246.45709800720215	response	0	2		82.0	2.5	/experiments/knapen_aot/videos/S_ILSVRC2015_train_00339001.mp4	0.0	404.03976607322693	
84	246.46522903442383	movie	1		301.0	82.0	2.5	/experiments/knapen_aot/videos/S_ILSVRC2015_train_00339001.mp4	0.0	404.0478971004486	2.508358955383301
84	248.97358798980713	fix_post	2		12.0	82.0	2.5	/experiments/knapen_aot/videos/S_ILSVRC2015_train_00339001.mp4	0.0	406.5562560558319	0.10002398490905762
85	249.0736119747162	fix_pre	0		34.0	83.0	2.5	blank	1.0	406.65628004074097	0.28368306159973145
85	249.34875798225403	response	0	2		83.0	2.5	blank	1.0	406.9314260482788	
85	249.35729503631592	movie	1		301.0	83.0	2.5	blank	1.0	406.9399631023407	2.507944107055664
85	251.86523914337158	fix_post	2		12.0	83.0	2.5	blank	1.0	409.44790720939636	0.10001492500305176
87	251.96525406837463	stim	0		128.0					409.5479221343994	1.0666530132293701
87	253.02443599700928	response	0	space						410.60710406303406	
