trial_nr	onset	event_type	phase	response	nr_frames	movie_index	movie_duration	movie_file	blank	onset_abs	duration
0	0.15068602561950684	stim	0		60.0					55.75005292892456	0.5018460750579834
0	0.6418840885162354	response	0	space						56.24125099182129	
1	0.6525321006774902	stim	0		121.0					56.251899003982544	1.0054988861083984
1	1.6580309867858887	stim	1		120.0					57.25739789009094	0.9999361038208008
1	2.0164990425109863	response	1	space						57.61586594581604	
1	2.5747480392456055	response	1	space						58.17411494255066	
2	2.6579670906066895	fix_pre	0		46.0	0.0	2.5	/experiments/knapen_aot/videos/S_c5iVM3LI6kI_252.mp4	0.0	58.25733399391174	0.38330888748168945
2	3.0330440998077393	response	0	space		0.0	2.5	/experiments/knapen_aot/videos/S_c5iVM3LI6kI_252.mp4	0.0	58.63241100311279	
2	3.041275978088379	movie	1		301.0	0.0	2.5	/experiments/knapen_aot/videos/S_c5iVM3LI6kI_252.mp4	0.0	58.64064288139343	2.5083301067352295
2	5.549606084823608	fix_post	2		12.0	0.0	2.5	/experiments/knapen_aot/videos/S_c5iVM3LI6kI_252.mp4	0.0	61.14897298812866	0.10003185272216797
3	5.649637937545776	fix_pre	0		16.0	1.0	2.5	/experiments/knapen_aot/videos/S_yt-2jVJb1PR2XA_16.mp4	0.0	61.24900484085083	0.13434910774230957
3	5.775052070617676	response	0	2		1.0	2.5	/experiments/knapen_aot/videos/S_yt-2jVJb1PR2XA_16.mp4	0.0	61.37441897392273	
3	5.783987045288086	movie	1		301.0	1.0	2.5	/experiments/knapen_aot/videos/S_yt-2jVJb1PR2XA_16.mp4	0.0	61.38335394859314	2.5072338581085205
3	8.291220903396606	fix_post	2		12.0	1.0	2.5	/experiments/knapen_aot/videos/S_yt-2jVJb1PR2XA_16.mp4	0.0	63.89058780670166	0.10003113746643066
4	8.391252040863037	fix_pre	0		34.0	2.0	2.5	/experiments/knapen_aot/videos/R_S_yt-Dlk44AGz-xM_37.mp4	0.0	63.99061894416809	0.2833249568939209
4	8.66642689704895	response	0	2		2.0	2.5	/experiments/knapen_aot/videos/R_S_yt-Dlk44AGz-xM_37.mp4	0.0	64.265793800354	
4	8.674576997756958	movie	1		301.0	2.0	2.5	/experiments/knapen_aot/videos/R_S_yt-Dlk44AGz-xM_37.mp4	0.0	64.27394390106201	2.5082809925079346
4	11.182857990264893	fix_post	2		12.0	2.0	2.5	/experiments/knapen_aot/videos/R_S_yt-Dlk44AGz-xM_37.mp4	0.0	66.78222489356995	0.10113906860351562
5	11.283997058868408	fix_pre	0		16.0	3.0	2.5	/experiments/knapen_aot/videos/R_S_yt-RVoC19C420Y_27.mp4	0.0	66.88336396217346	0.13226890563964844
5	11.408102989196777	response	0	2		3.0	2.5	/experiments/knapen_aot/videos/R_S_yt-RVoC19C420Y_27.mp4	0.0	67.00746989250183	
5	11.416265964508057	movie	1		301.0	3.0	2.5	/experiments/knapen_aot/videos/R_S_yt-RVoC19C420Y_27.mp4	0.0	67.01563286781311	2.5083420276641846
5	13.924607992172241	fix_post	2		12.0	3.0	2.5	/experiments/knapen_aot/videos/R_S_yt-RVoC19C420Y_27.mp4	0.0	69.5239748954773	0.09993696212768555
6	14.024544954299927	fix_pre	0		8.0	4.0	2.5	/experiments/knapen_aot/videos/R_S_flickr-claywakening-27928940166_2.mp4	0.0	69.62391185760498	0.06667304039001465
6	14.083061933517456	response	0	2		4.0	2.5	/experiments/knapen_aot/videos/R_S_flickr-claywakening-27928940166_2.mp4	0.0	69.68242883682251	
6	14.091217994689941	movie	1		171.0	4.0	2.5	/experiments/knapen_aot/videos/R_S_flickr-claywakening-27928940166_2.mp4	0.0	69.690584897995	2.50833797454834
6	16.59955596923828	fix_post	2		12.0	4.0	2.5	/experiments/knapen_aot/videos/R_S_flickr-claywakening-27928940166_2.mp4	0.0	72.19892287254333	0.09993600845336914
7	16.69949197769165	fix_pre	0		1.0	5.0	2.5	blank	1.0	72.2988588809967	0.008524894714355469
7	16.701135873794556	response	0	2		5.0	2.5	blank	1.0	72.30050277709961	
7	16.708016872406006	movie	1		301.0	5.0	2.5	blank	1.0	72.30738377571106	2.508209228515625
7	19.21622610092163	fix_post	2		12.0	5.0	2.5	blank	1.0	74.81559300422668	0.10000991821289062
8	19.31623601913452	fix_pre	0		25.0	6.0	2.5	/experiments/knapen_aot/videos/S_Pz_NXxhQCJc_70.mp4	0.0	74.91560292243958	0.20831298828125
8	19.50882387161255	response	0	2		6.0	2.5	/experiments/knapen_aot/videos/S_Pz_NXxhQCJc_70.mp4	0.0	75.1081907749176	
8	19.52454900741577	movie	1		301.0	6.0	2.5	/experiments/knapen_aot/videos/S_Pz_NXxhQCJc_70.mp4	0.0	75.12391591072083	2.5083730220794678
8	22.03292202949524	fix_post	2		12.0	6.0	2.5	/experiments/knapen_aot/videos/S_Pz_NXxhQCJc_70.mp4	0.0	77.6322889328003	0.10003399848937988
9	22.13295602798462	fix_pre	0		29.0	7.0	2.5	/experiments/knapen_aot/videos/S_yt-2IN85w8ptmM_51.mp4	0.0	77.73232293128967	0.24163389205932617
9	22.36639094352722	response	0	2		7.0	2.5	/experiments/knapen_aot/videos/S_yt-2IN85w8ptmM_51.mp4	0.0	77.96575784683228	
9	22.374589920043945	movie	1		301.0	7.0	2.5	/experiments/knapen_aot/videos/S_yt-2IN85w8ptmM_51.mp4	0.0	77.973956823349	2.5083160400390625
9	24.882905960083008	fix_post	2		12.0	7.0	2.5	/experiments/knapen_aot/videos/S_yt-2IN85w8ptmM_51.mp4	0.0	80.48227286338806	0.10000896453857422
10	24.982914924621582	fix_pre	0		25.0	8.0	2.5	/experiments/knapen_aot/videos/R_S_wc-eJe3wXMgTLRV_20.mp4	0.0	80.58228182792664	0.20832014083862305
10	25.183069944381714	response	0	2		8.0	2.5	/experiments/knapen_aot/videos/R_S_wc-eJe3wXMgTLRV_20.mp4	0.0	80.78243684768677	
10	25.191235065460205	movie	1		172.0	8.0	2.5	/experiments/knapen_aot/videos/R_S_wc-eJe3wXMgTLRV_20.mp4	0.0	80.79060196876526	2.5082390308380127
10	27.699474096298218	fix_post	2		12.0	8.0	2.5	/experiments/knapen_aot/videos/R_S_wc-eJe3wXMgTLRV_20.mp4	0.0	83.29884099960327	0.09999799728393555
11	27.799472093582153	fix_pre	0		16.0	9.0	2.5	/experiments/knapen_aot/videos/S_yt-2ftSsLqRQnA_84.mp4	0.0	83.3988389968872	0.13334393501281738
11	27.92466402053833	response	0	2		9.0	2.5	/experiments/knapen_aot/videos/S_yt-2ftSsLqRQnA_84.mp4	0.0	83.52403092384338	
11	27.93281602859497	movie	1		301.0	9.0	2.5	/experiments/knapen_aot/videos/S_yt-2ftSsLqRQnA_84.mp4	0.0	83.53218293190002	2.50832200050354
11	30.44113802909851	fix_post	2		12.0	9.0	2.5	/experiments/knapen_aot/videos/S_yt-2ftSsLqRQnA_84.mp4	0.0	86.04050493240356	0.10005593299865723
12	30.541193962097168	fix_pre	0		24.0	10.0	2.5	/experiments/knapen_aot/videos/R_S_pexels-mart-production-7698911_1.mp4	0.0	86.14056086540222	0.20093011856079102
12	30.73298692703247	response	0	2		10.0	2.5	/experiments/knapen_aot/videos/R_S_pexels-mart-production-7698911_1.mp4	0.0	86.33235383033752	
12	30.74212408065796	movie	1		185.0	10.0	2.5	/experiments/knapen_aot/videos/R_S_pexels-mart-production-7698911_1.mp4	0.0	86.34149098396301	2.507356882095337
12	33.249480962753296	fix_post	2		12.0	10.0	2.5	/experiments/knapen_aot/videos/R_S_pexels-mart-production-7698911_1.mp4	0.0	88.84884786605835	0.1000220775604248
13	33.34950304031372	fix_pre	0		7.0	11.0	2.5	/experiments/knapen_aot/videos/R_S_yt-452RKqKIeRU_16.mp4	0.0	88.94886994361877	0.05924105644226074
13	33.39968299865723	response	0	2		11.0	2.5	/experiments/knapen_aot/videos/R_S_yt-452RKqKIeRU_16.mp4	0.0	88.99904990196228	
13	33.40874409675598	movie	1		301.0	11.0	2.5	/experiments/knapen_aot/videos/R_S_yt-452RKqKIeRU_16.mp4	0.0	89.00811100006104	2.507394790649414
13	35.916138887405396	fix_post	2		12.0	11.0	2.5	/experiments/knapen_aot/videos/R_S_yt-452RKqKIeRU_16.mp4	0.0	91.51550579071045	0.10004806518554688
14	36.01618695259094	fix_pre	0		24.0	12.0	2.5	/experiments/knapen_aot/videos/R_S_yt-2IN85w8ptmM_51.mp4	0.0	91.615553855896	0.19993901252746582
14	36.200319051742554	response	0	2		12.0	2.5	/experiments/knapen_aot/videos/R_S_yt-2IN85w8ptmM_51.mp4	0.0	91.79968595504761	
14	36.21612596511841	movie	1		301.0	12.0	2.5	/experiments/knapen_aot/videos/R_S_yt-2IN85w8ptmM_51.mp4	0.0	91.81549286842346	2.5083470344543457
14	38.724472999572754	fix_post	2		12.0	12.0	2.5	/experiments/knapen_aot/videos/R_S_yt-2IN85w8ptmM_51.mp4	0.0	94.32383990287781	0.09996604919433594
15	38.82443904876709	fix_pre	0		21.0	13.0	2.5	blank	1.0	94.42380595207214	0.17498493194580078
15	38.99130606651306	response	0	2		13.0	2.5	blank	1.0	94.59067296981812	
15	38.99942398071289	movie	1		301.0	13.0	2.5	blank	1.0	94.59879088401794	2.508347988128662
15	41.50777196884155	fix_post	2		12.0	13.0	2.5	blank	1.0	97.1071388721466	0.10002899169921875
16	41.60780096054077	fix_pre	0		23.0	14.0	2.5	/experiments/knapen_aot/videos/R_S_yt-bmGWhOCsvJo_128.mp4	0.0	97.20716786384583	0.19160103797912598
16	41.791218996047974	response	0	2		14.0	2.5	/experiments/knapen_aot/videos/R_S_yt-bmGWhOCsvJo_128.mp4	0.0	97.39058589935303	
16	41.7994019985199	movie	1		301.0	14.0	2.5	/experiments/knapen_aot/videos/R_S_yt-bmGWhOCsvJo_128.mp4	0.0	97.39876890182495	2.508344888687134
16	44.30774688720703	fix_post	2		12.0	14.0	2.5	/experiments/knapen_aot/videos/R_S_yt-bmGWhOCsvJo_128.mp4	0.0	99.90711379051208	0.10090303421020508
17	44.408649921417236	fix_pre	0		15.0	15.0	2.5	/experiments/knapen_aot/videos/S_yt-XtzmBXKYEWk_60.mp4	0.0	100.00801682472229	0.1250150203704834
17	44.52456498146057	response	0	2		15.0	2.5	/experiments/knapen_aot/videos/S_yt-XtzmBXKYEWk_60.mp4	0.0	100.12393188476562	
17	44.53366494178772	movie	1		300.0	15.0	2.5	/experiments/knapen_aot/videos/S_yt-XtzmBXKYEWk_60.mp4	0.0	100.13303184509277	2.507498025894165
17	47.041162967681885	fix_post	2		12.0	15.0	2.5	/experiments/knapen_aot/videos/S_yt-XtzmBXKYEWk_60.mp4	0.0	102.64052987098694	0.09997296333312988
18	47.141135931015015	fix_pre	0		23.0	16.0	2.5	/experiments/knapen_aot/videos/S_yt-YOLaQ53ooks_195.mp4	0.0	102.74050283432007	0.19164013862609863
18	47.32459092140198	response	0	2		16.0	2.5	/experiments/knapen_aot/videos/S_yt-YOLaQ53ooks_195.mp4	0.0	102.92395782470703	
18	47.33277606964111	movie	1		301.0	16.0	2.5	/experiments/knapen_aot/videos/S_yt-YOLaQ53ooks_195.mp4	0.0	102.93214297294617	2.5082859992980957
18	49.84106206893921	fix_post	2		12.0	16.0	2.5	/experiments/knapen_aot/videos/S_yt-YOLaQ53ooks_195.mp4	0.0	105.44042897224426	0.10004782676696777
19	49.94110989570618	fix_pre	0		22.0	17.0	2.5	/experiments/knapen_aot/videos/R_S_yt-I9uf7kAccFA_229.mp4	0.0	105.54047679901123	0.1833181381225586
19	50.11623406410217	response	0	2		17.0	2.5	/experiments/knapen_aot/videos/R_S_yt-I9uf7kAccFA_229.mp4	0.0	105.71560096740723	
19	50.124428033828735	movie	1		301.0	17.0	2.5	/experiments/knapen_aot/videos/R_S_yt-I9uf7kAccFA_229.mp4	0.0	105.72379493713379	2.5083298683166504
19	52.632757902145386	fix_post	2		12.0	17.0	2.5	/experiments/knapen_aot/videos/R_S_yt-I9uf7kAccFA_229.mp4	0.0	108.23212480545044	0.09998512268066406
20	52.73274302482605	fix_pre	0		19.0	18.0	2.5	/experiments/knapen_aot/videos/R_S_yt-Jo6PxivsTOg_247.mp4	0.0	108.3321099281311	0.15839600563049316
20	52.88290500640869	response	0	2		18.0	2.5	/experiments/knapen_aot/videos/R_S_yt-Jo6PxivsTOg_247.mp4	0.0	108.48227190971375	
20	52.89113903045654	movie	1		301.0	18.0	2.5	/experiments/knapen_aot/videos/R_S_yt-Jo6PxivsTOg_247.mp4	0.0	108.4905059337616	2.508194923400879
20	55.39933395385742	fix_post	2		12.0	18.0	2.5	/experiments/knapen_aot/videos/R_S_yt-Jo6PxivsTOg_247.mp4	0.0	110.99870085716248	0.10005402565002441
21	55.499387979507446	fix_pre	0		26.0	19.0	2.5	blank	1.0	111.0987548828125	0.21665596961975098
21	55.70801591873169	response	0	2		19.0	2.5	blank	1.0	111.30738282203674	
21	55.7160439491272	movie	1		301.0	19.0	2.5	blank	1.0	111.31541085243225	2.5083351135253906
21	58.22437906265259	fix_post	2		12.0	19.0	2.5	blank	1.0	113.82374596595764	0.0999460220336914
22	58.32432508468628	fix_pre	0		24.0	20.0	2.5	/experiments/knapen_aot/videos/S_c5iVM3LI6kI_252.mp4	0.0	113.92369198799133	0.19995784759521484
22	58.51617407798767	response	0	2		20.0	2.5	/experiments/knapen_aot/videos/S_c5iVM3LI6kI_252.mp4	0.0	114.11554098129272	
22	58.524282932281494	movie	1		300.0	20.0	2.5	/experiments/knapen_aot/videos/S_c5iVM3LI6kI_252.mp4	0.0	114.12364983558655	2.5083539485931396
22	61.032636880874634	fix_post	2		12.0	20.0	2.5	/experiments/knapen_aot/videos/S_c5iVM3LI6kI_252.mp4	0.0	116.63200378417969	0.10005521774291992
23	61.132692098617554	fix_pre	0		9.0	21.0	2.5	/experiments/knapen_aot/videos/S_yt-lkpfs_4qAGE_50.mp4	0.0	116.73205900192261	0.07498693466186523
23	61.199378967285156	response	0	2		21.0	2.5	/experiments/knapen_aot/videos/S_yt-lkpfs_4qAGE_50.mp4	0.0	116.79874587059021	
23	61.20767903327942	movie	1		301.0	21.0	2.5	/experiments/knapen_aot/videos/S_yt-lkpfs_4qAGE_50.mp4	0.0	116.80704593658447	2.5082950592041016
23	63.71597409248352	fix_post	2		12.0	21.0	2.5	/experiments/knapen_aot/videos/S_yt-lkpfs_4qAGE_50.mp4	0.0	119.31534099578857	0.10003495216369629
24	63.81600904464722	fix_pre	0		14.0	22.0	2.5	/experiments/knapen_aot/videos/S_yt-2ftSsLqRQnA_84.mp4	0.0	119.41537594795227	0.11654782295227051
24	63.92444205284119	response	0	2		22.0	2.5	/experiments/knapen_aot/videos/S_yt-2ftSsLqRQnA_84.mp4	0.0	119.52380895614624	
24	63.93255686759949	movie	1		301.0	22.0	2.5	/experiments/knapen_aot/videos/S_yt-2ftSsLqRQnA_84.mp4	0.0	119.53192377090454	2.5083720684051514
24	66.44092893600464	fix_post	2		12.0	22.0	2.5	/experiments/knapen_aot/videos/S_yt-2ftSsLqRQnA_84.mp4	0.0	122.04029583930969	0.10003805160522461
25	66.54096698760986	fix_pre	0		11.0	23.0	2.5	/experiments/knapen_aot/videos/R_S_ILSVRC2015_train_00411001.mp4	0.0	122.14033389091492	0.09164309501647949
25	66.62438797950745	response	0	2		23.0	2.5	/experiments/knapen_aot/videos/R_S_ILSVRC2015_train_00411001.mp4	0.0	122.2237548828125	
25	66.63261008262634	movie	1		301.0	23.0	2.5	/experiments/knapen_aot/videos/R_S_ILSVRC2015_train_00411001.mp4	0.0	122.2319769859314	2.5083158016204834
25	69.14092588424683	fix_post	2		12.0	23.0	2.5	/experiments/knapen_aot/videos/R_S_ILSVRC2015_train_00411001.mp4	0.0	124.74029278755188	0.10003018379211426
26	69.24095606803894	fix_pre	0		33.0	24.0	2.5	/experiments/knapen_aot/videos/S_pexels-cottonbro-10640532.mp4	0.0	124.840322971344	0.27502894401550293
26	69.50774502754211	response	0	2		24.0	2.5	/experiments/knapen_aot/videos/S_pexels-cottonbro-10640532.mp4	0.0	125.10711193084717	
26	69.51598501205444	movie	1		206.0	24.0	2.5	/experiments/knapen_aot/videos/S_pexels-cottonbro-10640532.mp4	0.0	125.1153519153595	2.5084218978881836
26	72.02440690994263	fix_post	2		12.0	24.0	2.5	/experiments/knapen_aot/videos/S_pexels-cottonbro-10640532.mp4	0.0	127.62377381324768	0.09985804557800293
27	72.12426495552063	fix_pre	0		28.0	25.0	2.5	/experiments/knapen_aot/videos/R_S_yt-2l6VKd94eAI_151.mp4	0.0	127.72363185882568	0.23337292671203613
27	72.3493640422821	response	0	2		25.0	2.5	/experiments/knapen_aot/videos/R_S_yt-2l6VKd94eAI_151.mp4	0.0	127.94873094558716	
27	72.35763788223267	movie	1		301.0	25.0	2.5	/experiments/knapen_aot/videos/R_S_yt-2l6VKd94eAI_151.mp4	0.0	127.95700478553772	2.508251190185547
27	74.86588907241821	fix_post	2		12.0	25.0	2.5	/experiments/knapen_aot/videos/R_S_yt-2l6VKd94eAI_151.mp4	0.0	130.46525597572327	0.10000896453857422
28	74.96589803695679	fix_pre	0		6.0	26.0	2.5	/experiments/knapen_aot/videos/R_S_pexels-diva-plavalaguna-6985395_1.mp4	0.0	130.56526494026184	0.05010795593261719
28	75.00882697105408	response	0	2		26.0	2.5	/experiments/knapen_aot/videos/R_S_pexels-diva-plavalaguna-6985395_1.mp4	0.0	130.60819387435913	
28	75.0160059928894	movie	1		164.0	26.0	2.5	/experiments/knapen_aot/videos/R_S_pexels-diva-plavalaguna-6985395_1.mp4	0.0	130.61537289619446	2.508251905441284
28	77.52425789833069	fix_post	2		12.0	26.0	2.5	/experiments/knapen_aot/videos/R_S_pexels-diva-plavalaguna-6985395_1.mp4	0.0	133.12362480163574	0.0999910831451416
29	77.62424898147583	fix_pre	0		14.0	27.0	2.5	/experiments/knapen_aot/videos/R_S_yt-2l6VKd94eAI_151.mp4	0.0	133.22361588478088	0.11733198165893555
29	77.73264694213867	response	0	2		27.0	2.5	/experiments/knapen_aot/videos/R_S_yt-2l6VKd94eAI_151.mp4	0.0	133.33201384544373	
29	77.74158096313477	movie	1		301.0	27.0	2.5	/experiments/knapen_aot/videos/R_S_yt-2l6VKd94eAI_151.mp4	0.0	133.34094786643982	2.507657051086426
29	80.24923801422119	fix_post	2		12.0	27.0	2.5	/experiments/knapen_aot/videos/R_S_yt-2l6VKd94eAI_151.mp4	0.0	135.84860491752625	0.10001397132873535
30	80.34925198554993	fix_pre	0		21.0	28.0	2.5	blank	1.0	135.94861888885498	0.17502403259277344
30	80.51598000526428	response	0	2		28.0	2.5	blank	1.0	136.11534690856934	
30	80.5242760181427	movie	1		301.0	28.0	2.5	blank	1.0	136.12364292144775	2.508316993713379
30	83.03259301185608	fix_post	2		12.0	28.0	2.5	blank	1.0	138.63195991516113	0.10010790824890137
31	83.13270092010498	fix_pre	0		45.0	29.0	2.5	/experiments/knapen_aot/videos/S_production_ID_5139371.mp4	0.0	138.73206782341003	0.37487006187438965
31	83.49180388450623	response	0	2		29.0	2.5	/experiments/knapen_aot/videos/S_production_ID_5139371.mp4	0.0	139.09117078781128	
31	83.50757098197937	movie	1		164.0	29.0	2.5	/experiments/knapen_aot/videos/S_production_ID_5139371.mp4	0.0	139.10693788528442	2.508254051208496
31	86.01582503318787	fix_post	2		12.0	29.0	2.5	/experiments/knapen_aot/videos/S_production_ID_5139371.mp4	0.0	141.61519193649292	0.10008692741394043
32	86.1159119606018	fix_pre	0		12.0	30.0	2.5	/experiments/knapen_aot/videos/S_m-aeoYPMqfg_185.mp4	0.0	141.71527886390686	0.09990501403808594
32	86.20762896537781	response	0	2		30.0	2.5	/experiments/knapen_aot/videos/S_m-aeoYPMqfg_185.mp4	0.0	141.80699586868286	
32	86.21581697463989	movie	1		301.0	30.0	2.5	/experiments/knapen_aot/videos/S_m-aeoYPMqfg_185.mp4	0.0	141.81518387794495	2.5083611011505127
32	88.7241780757904	fix_post	2		12.0	30.0	2.5	/experiments/knapen_aot/videos/S_m-aeoYPMqfg_185.mp4	0.0	144.32354497909546	0.10001492500305176
33	88.82419300079346	fix_pre	0		3.0	31.0	2.5	/experiments/knapen_aot/videos/S_wc-lItGMdwvEd_l_7.mp4	0.0	144.4235599040985	0.025029897689819336
33	88.84101104736328	response	0	2		31.0	2.5	/experiments/knapen_aot/videos/S_wc-lItGMdwvEd_l_7.mp4	0.0	144.44037795066833	
33	88.84922289848328	movie	1		161.0	31.0	2.5	/experiments/knapen_aot/videos/S_wc-lItGMdwvEd_l_7.mp4	0.0	144.44858980178833	2.508296012878418
33	91.3575189113617	fix_post	2		12.0	31.0	2.5	/experiments/knapen_aot/videos/S_wc-lItGMdwvEd_l_7.mp4	0.0	146.95688581466675	0.09998011589050293
34	91.4574990272522	fix_pre	0		10.0	32.0	2.5	/experiments/knapen_aot/videos/R_S_yt-7bSTxOajpjc_58.mp4	0.0	147.05686593055725	0.08329892158508301
34	91.53257894515991	response	0	2		32.0	2.5	/experiments/knapen_aot/videos/R_S_yt-7bSTxOajpjc_58.mp4	0.0	147.13194584846497	
34	91.54079794883728	movie	1		301.0	32.0	2.5	/experiments/knapen_aot/videos/R_S_yt-7bSTxOajpjc_58.mp4	0.0	147.14016485214233	2.5083749294281006
34	94.04917287826538	fix_post	2		12.0	32.0	2.5	/experiments/knapen_aot/videos/R_S_yt-7bSTxOajpjc_58.mp4	0.0	149.64853978157043	0.10001802444458008
35	94.14919090270996	fix_pre	0		13.0	33.0	2.5	/experiments/knapen_aot/videos/S_yt-9aKqMX9IHPg_242.mp4	0.0	149.74855780601501	0.10828018188476562
35	94.24948406219482	response	0	2		33.0	2.5	/experiments/knapen_aot/videos/S_yt-9aKqMX9IHPg_242.mp4	0.0	149.84885096549988	
35	94.25747108459473	movie	1		301.0	33.0	2.5	/experiments/knapen_aot/videos/S_yt-9aKqMX9IHPg_242.mp4	0.0	149.85683798789978	2.508288860321045
35	96.76575994491577	fix_post	2		12.0	33.0	2.5	/experiments/knapen_aot/videos/S_yt-9aKqMX9IHPg_242.mp4	0.0	152.36512684822083	0.10005903244018555
36	96.86581897735596	fix_pre	0		28.0	34.0	2.5	/experiments/knapen_aot/videos/S_yt-Pinnv3-3GFU_452.mp4	0.0	152.465185880661	0.23327302932739258
36	97.09093594551086	response	0	2		34.0	2.5	/experiments/knapen_aot/videos/S_yt-Pinnv3-3GFU_452.mp4	0.0	152.69030284881592	
36	97.09909200668335	movie	1		301.0	34.0	2.5	/experiments/knapen_aot/videos/S_yt-Pinnv3-3GFU_452.mp4	0.0	152.6984589099884	2.5083110332489014
36	99.60740303993225	fix_post	2		12.0	34.0	2.5	/experiments/knapen_aot/videos/S_yt-Pinnv3-3GFU_452.mp4	0.0	155.2067699432373	0.10007286071777344
37	99.70747590065002	fix_pre	0		28.0	35.0	2.5	blank	1.0	155.30684280395508	0.23330903053283691
37	99.93264293670654	response	0	2		35.0	2.5	blank	1.0	155.5320098400116	
37	99.94078493118286	movie	1		301.0	35.0	2.5	blank	1.0	155.54015183448792	2.5083069801330566
37	102.44909191131592	fix_post	2		12.0	35.0	2.5	blank	1.0	158.04845881462097	0.09998106956481934
38	102.54907298088074	fix_pre	0		16.0	36.0	2.5	/experiments/knapen_aot/videos/R_S_video_inspire_sanfrancisco_castro_005.1080-h264.mp4	0.0	158.1484398841858	0.13332390785217285
38	102.66672396659851	response	0	2		36.0	2.5	/experiments/knapen_aot/videos/R_S_video_inspire_sanfrancisco_castro_005.1080-h264.mp4	0.0	158.26609086990356	
38	102.68239688873291	movie	1		166.0	36.0	2.5	/experiments/knapen_aot/videos/R_S_video_inspire_sanfrancisco_castro_005.1080-h264.mp4	0.0	158.28176379203796	2.508390188217163
38	105.19078707695007	fix_post	2		12.0	36.0	2.5	/experiments/knapen_aot/videos/R_S_video_inspire_sanfrancisco_castro_005.1080-h264.mp4	0.0	160.79015398025513	0.10001897811889648
39	105.29080605506897	fix_pre	0		20.0	37.0	2.5	/experiments/knapen_aot/videos/R_S_yt-t-wpKypNysg_27.mp4	0.0	160.89017295837402	0.16655302047729492
39	105.44164991378784	response	0	2		37.0	2.5	/experiments/knapen_aot/videos/R_S_yt-t-wpKypNysg_27.mp4	0.0	161.0410168170929	
39	105.45735907554626	movie	1		301.0	37.0	2.5	/experiments/knapen_aot/videos/R_S_yt-t-wpKypNysg_27.mp4	0.0	161.05672597885132	2.5084218978881836
39	107.96578097343445	fix_post	2		12.0	37.0	2.5	/experiments/knapen_aot/videos/R_S_yt-t-wpKypNysg_27.mp4	0.0	163.5651478767395	0.09995889663696289
40	108.06573987007141	fix_pre	0		7.0	38.0	2.5	/experiments/knapen_aot/videos/S_yt-UojTppgtyCE_121.mp4	0.0	163.66510677337646	0.058370113372802734
40	108.10835695266724	response	0	2		38.0	2.5	/experiments/knapen_aot/videos/S_yt-UojTppgtyCE_121.mp4	0.0	163.7077238559723	
40	108.12410998344421	movie	1		301.0	38.0	2.5	/experiments/knapen_aot/videos/S_yt-UojTppgtyCE_121.mp4	0.0	163.72347688674927	2.5083560943603516
40	110.63246607780457	fix_post	2		12.0	38.0	2.5	/experiments/knapen_aot/videos/S_yt-UojTppgtyCE_121.mp4	0.0	166.23183298110962	0.09996581077575684
41	110.73243188858032	fix_pre	0		9.0	39.0	2.5	/experiments/knapen_aot/videos/R_S_pexels-c-technical-6754008.mp4	0.0	166.33179879188538	0.07498908042907715
41	110.79931998252869	response	0	2		39.0	2.5	/experiments/knapen_aot/videos/R_S_pexels-c-technical-6754008.mp4	0.0	166.39868688583374	
41	110.8074209690094	movie	1		197.0	39.0	2.5	/experiments/knapen_aot/videos/R_S_pexels-c-technical-6754008.mp4	0.0	166.40678787231445	2.508354902267456
41	113.31577587127686	fix_post	2		12.0	39.0	2.5	/experiments/knapen_aot/videos/R_S_pexels-c-technical-6754008.mp4	0.0	168.9151427745819	0.09997916221618652
42	113.41575503349304	fix_pre	0		17.0	40.0	2.5	blank	1.0	169.0151219367981	0.1416008472442627
42	113.54920887947083	response	0	2		40.0	2.5	blank	1.0	169.14857578277588	
42	113.5573558807373	movie	1		301.0	40.0	2.5	blank	1.0	169.15672278404236	2.508315086364746
42	116.06567096710205	fix_post	2		12.0	40.0	2.5	blank	1.0	171.6650378704071	0.10005402565002441
43	116.16572499275208	fix_pre	0		21.0	41.0	2.5	/experiments/knapen_aot/videos/R_S_Pexels_Videos_2795737.mp4	0.0	171.76509189605713	0.1749439239501953
43	116.32497787475586	response	0	2		41.0	2.5	/experiments/knapen_aot/videos/R_S_Pexels_Videos_2795737.mp4	0.0	171.9243447780609	
43	116.34066891670227	movie	1		164.0	41.0	2.5	/experiments/knapen_aot/videos/R_S_Pexels_Videos_2795737.mp4	0.0	171.94003582000732	2.508450984954834
43	118.8491199016571	fix_post	2		12.0	41.0	2.5	/experiments/knapen_aot/videos/R_S_Pexels_Videos_2795737.mp4	0.0	174.44848680496216	0.09992814064025879
44	118.94904804229736	fix_pre	0		15.0	42.0	2.5	/experiments/knapen_aot/videos/R_S_yt-2SVpSaBAxsw_78.mp4	0.0	174.54841494560242	0.12540483474731445
44	119.06582188606262	response	0	2		42.0	2.5	/experiments/knapen_aot/videos/R_S_yt-2SVpSaBAxsw_78.mp4	0.0	174.66518878936768	
44	119.07445287704468	movie	1		301.0	42.0	2.5	/experiments/knapen_aot/videos/R_S_yt-2SVpSaBAxsw_78.mp4	0.0	174.67381978034973	2.507812023162842
44	121.58226490020752	fix_post	2		12.0	42.0	2.5	/experiments/knapen_aot/videos/R_S_yt-2SVpSaBAxsw_78.mp4	0.0	177.18163180351257	0.10010910034179688
45	121.68237400054932	fix_pre	0		12.0	43.0	2.5	/experiments/knapen_aot/videos/R_S_comp_HK_H004_C001_PSNK_DENOISE_v14_SDR_PS_FINAL_20180731_SDR_2K_AVC.mp4	0.0	177.28174090385437	0.10047006607055664
45	121.7742030620575	response	0	2		43.0	2.5	/experiments/knapen_aot/videos/R_S_comp_HK_H004_C001_PSNK_DENOISE_v14_SDR_PS_FINAL_20180731_SDR_2K_AVC.mp4	0.0	177.37356996536255	
45	121.78284406661987	movie	1		169.0	43.0	2.5	/experiments/knapen_aot/videos/R_S_comp_HK_H004_C001_PSNK_DENOISE_v14_SDR_PS_FINAL_20180731_SDR_2K_AVC.mp4	0.0	177.38221096992493	2.507807970046997
45	124.29065203666687	fix_post	2		12.0	43.0	2.5	/experiments/knapen_aot/videos/R_S_comp_HK_H004_C001_PSNK_DENOISE_v14_SDR_PS_FINAL_20180731_SDR_2K_AVC.mp4	0.0	179.89001893997192	0.0999460220336914
46	124.39059805870056	fix_pre	0		28.0	44.0	2.5	/experiments/knapen_aot/videos/R_S_BO_A014_C023_SDR_20190717_F240F3709_SDR_2K_AVC.mp4	0.0	179.98996496200562	0.2333660125732422
46	124.61585187911987	response	0	2		44.0	2.5	/experiments/knapen_aot/videos/R_S_BO_A014_C023_SDR_20190717_F240F3709_SDR_2K_AVC.mp4	0.0	180.21521878242493	
46	124.6239640712738	movie	1		179.0	44.0	2.5	/experiments/knapen_aot/videos/R_S_BO_A014_C023_SDR_20190717_F240F3709_SDR_2K_AVC.mp4	0.0	180.22333097457886	2.5083439350128174
46	127.13230800628662	fix_post	2		12.0	44.0	2.5	/experiments/knapen_aot/videos/R_S_BO_A014_C023_SDR_20190717_F240F3709_SDR_2K_AVC.mp4	0.0	182.73167490959167	0.0999760627746582
47	127.23228406906128	fix_pre	0		7.0	45.0	2.5	/experiments/knapen_aot/videos/R_S_yt-a9bnYU0Gnxg_59.mp4	0.0	182.83165097236633	0.058305978775024414
47	127.28321290016174	response	0	2		45.0	2.5	/experiments/knapen_aot/videos/R_S_yt-a9bnYU0Gnxg_59.mp4	0.0	182.8825798034668	
47	127.2905900478363	movie	1		301.0	45.0	2.5	/experiments/knapen_aot/videos/R_S_yt-a9bnYU0Gnxg_59.mp4	0.0	182.88995695114136	2.5083489418029785
47	129.79893898963928	fix_post	2		12.0	45.0	2.5	/experiments/knapen_aot/videos/R_S_yt-a9bnYU0Gnxg_59.mp4	0.0	185.39830589294434	0.09999895095825195
48	129.89893794059753	fix_pre	0		20.0	46.0	2.5	/experiments/knapen_aot/videos/R_S_wc-eJe3wXMgTLRV_20.mp4	0.0	185.4983048439026	0.16675305366516113
48	130.05750799179077	response	0	2		46.0	2.5	/experiments/knapen_aot/videos/R_S_wc-eJe3wXMgTLRV_20.mp4	0.0	185.65687489509583	
48	130.0656909942627	movie	1		163.0	46.0	2.5	/experiments/knapen_aot/videos/R_S_wc-eJe3wXMgTLRV_20.mp4	0.0	185.66505789756775	2.508312940597534
48	132.57400393486023	fix_post	2		12.0	46.0	2.5	/experiments/knapen_aot/videos/R_S_wc-eJe3wXMgTLRV_20.mp4	0.0	188.17337083816528	0.09992814064025879
49	132.6739320755005	fix_pre	0		16.0	47.0	2.5	/experiments/knapen_aot/videos/R_S_yt-v66td-1WO7w_44.mp4	0.0	188.27329897880554	0.13333892822265625
49	132.79160809516907	response	0	2		47.0	2.5	/experiments/knapen_aot/videos/R_S_yt-v66td-1WO7w_44.mp4	0.0	188.39097499847412	
49	132.80727100372314	movie	1		301.0	47.0	2.5	/experiments/knapen_aot/videos/R_S_yt-v66td-1WO7w_44.mp4	0.0	188.4066379070282	2.508336067199707
49	135.31560707092285	fix_post	2		12.0	47.0	2.5	/experiments/knapen_aot/videos/R_S_yt-v66td-1WO7w_44.mp4	0.0	190.9149739742279	0.09999489784240723
50	135.41560196876526	fix_pre	0		10.0	48.0	2.5	/experiments/knapen_aot/videos/S_yt-BDCyXL5e9S4_223.mp4	0.0	191.0149688720703	0.09167790412902832
50	135.49925804138184	response	0	2		48.0	2.5	/experiments/knapen_aot/videos/S_yt-BDCyXL5e9S4_223.mp4	0.0	191.0986249446869	
50	135.5072798728943	movie	1		301.0	48.0	2.5	/experiments/knapen_aot/videos/S_yt-BDCyXL5e9S4_223.mp4	0.0	191.10664677619934	2.508289098739624
50	138.0155689716339	fix_post	2		12.0	48.0	2.5	/experiments/knapen_aot/videos/S_yt-BDCyXL5e9S4_223.mp4	0.0	193.61493587493896	0.09998607635498047
51	138.1155550479889	fix_pre	0		16.0	49.0	2.5	blank	1.0	193.71492195129395	0.1333789825439453
51	138.24071407318115	response	0	2		49.0	2.5	blank	1.0	193.8400809764862	
51	138.24893403053284	movie	1		301.0	49.0	2.5	blank	1.0	193.8483009338379	2.508265972137451
51	140.7572000026703	fix_post	2		12.0	49.0	2.5	blank	1.0	196.35656690597534	0.10010790824890137
52	140.8573079109192	fix_pre	0		25.0	50.0	2.5	/experiments/knapen_aot/videos/S_cST9H3zu3zQ_126.mp4	0.0	196.45667481422424	0.20826411247253418
52	141.05733704566956	response	0	2		50.0	2.5	/experiments/knapen_aot/videos/S_cST9H3zu3zQ_126.mp4	0.0	196.6567039489746	
52	141.06557202339172	movie	1		301.0	50.0	2.5	/experiments/knapen_aot/videos/S_cST9H3zu3zQ_126.mp4	0.0	196.66493892669678	2.508342981338501
52	143.57391500473022	fix_post	2		12.0	50.0	2.5	/experiments/knapen_aot/videos/S_cST9H3zu3zQ_126.mp4	0.0	199.17328190803528	0.10001301765441895
53	143.67392802238464	fix_pre	0		11.0	51.0	2.5	/experiments/knapen_aot/videos/R_S_yt-K_gHa2x2OQA_319.mp4	0.0	199.2732949256897	0.0916280746459961
53	143.75752186775208	response	0	2		51.0	2.5	/experiments/knapen_aot/videos/R_S_yt-K_gHa2x2OQA_319.mp4	0.0	199.35688877105713	
53	143.76555609703064	movie	1		301.0	51.0	2.5	/experiments/knapen_aot/videos/R_S_yt-K_gHa2x2OQA_319.mp4	0.0	199.3649230003357	2.508384943008423
53	146.27394104003906	fix_post	2		12.0	51.0	2.5	/experiments/knapen_aot/videos/R_S_yt-K_gHa2x2OQA_319.mp4	0.0	201.87330794334412	0.10001897811889648
54	146.37396001815796	fix_pre	0		9.0	52.0	2.5	/experiments/knapen_aot/videos/R_S_yt-BrepyEWKrPQ_20.mp4	0.0	201.973326921463	0.07567286491394043
54	146.4339668750763	response	0	2		52.0	2.5	/experiments/knapen_aot/videos/R_S_yt-BrepyEWKrPQ_20.mp4	0.0	202.03333377838135	
54	146.4496328830719	movie	1		301.0	52.0	2.5	/experiments/knapen_aot/videos/R_S_yt-BrepyEWKrPQ_20.mp4	0.0	202.04899978637695	2.507650136947632
54	148.95728302001953	fix_post	2		12.0	52.0	2.5	/experiments/knapen_aot/videos/R_S_yt-BrepyEWKrPQ_20.mp4	0.0	204.55664992332458	0.09987592697143555
55	149.05715894699097	fix_pre	0		13.0	53.0	2.5	/experiments/knapen_aot/videos/S_yt-ObT9gF8E_tU_250.mp4	0.0	204.65652585029602	0.10829401016235352
55	149.1573519706726	response	0	2		53.0	2.5	/experiments/knapen_aot/videos/S_yt-ObT9gF8E_tU_250.mp4	0.0	204.75671887397766	
55	149.16545295715332	movie	1		301.0	53.0	2.5	/experiments/knapen_aot/videos/S_yt-ObT9gF8E_tU_250.mp4	0.0	204.76481986045837	2.508394956588745
55	151.67384791374207	fix_post	2		12.0	53.0	2.5	/experiments/knapen_aot/videos/S_yt-ObT9gF8E_tU_250.mp4	0.0	207.27321481704712	0.10007715225219727
56	151.77392506599426	fix_pre	0		32.0	54.0	2.5	/experiments/knapen_aot/videos/R_S_yt-6vkiJedss6g_5.mp4	0.0	207.37329196929932	0.2665588855743408
56	152.0322949886322	response	0	2		54.0	2.5	/experiments/knapen_aot/videos/R_S_yt-6vkiJedss6g_5.mp4	0.0	207.63166189193726	
56	152.0404839515686	movie	1		301.0	54.0	2.5	/experiments/knapen_aot/videos/R_S_yt-6vkiJedss6g_5.mp4	0.0	207.63985085487366	2.508392095565796
56	154.5488760471344	fix_post	2		12.0	54.0	2.5	/experiments/knapen_aot/videos/R_S_yt-6vkiJedss6g_5.mp4	0.0	210.14824295043945	0.10002398490905762
57	154.64890003204346	fix_pre	0		16.0	55.0	2.5	blank	1.0	210.2482669353485	0.13375592231750488
57	154.77404689788818	response	0	2		55.0	2.5	blank	1.0	210.37341380119324	
57	154.78265595436096	movie	1		301.0	55.0	2.5	blank	1.0	210.38202285766602	2.5079081058502197
57	157.29056406021118	fix_post	2		12.0	55.0	2.5	blank	1.0	212.88993096351624	0.10000896453857422
58	157.39057302474976	fix_pre	0		27.0	56.0	2.5	/experiments/knapen_aot/videos/S_ILSVRC2015_train_00415005.mp4	0.0	212.9899399280548	0.22521495819091797
58	157.5998339653015	response	0	2		56.0	2.5	/experiments/knapen_aot/videos/S_ILSVRC2015_train_00415005.mp4	0.0	213.19920086860657	
58	157.61578798294067	movie	1		301.0	56.0	2.5	/experiments/knapen_aot/videos/S_ILSVRC2015_train_00415005.mp4	0.0	213.21515488624573	2.5080618858337402
58	160.1238498687744	fix_post	2		12.0	56.0	2.5	/experiments/knapen_aot/videos/S_ILSVRC2015_train_00415005.mp4	0.0	215.72321677207947	0.09988021850585938
59	160.22373008728027	fix_pre	0		31.0	57.0	2.5	/experiments/knapen_aot/videos/S_yt-CNq5mTA8oXY_176.mp4	0.0	215.82309699058533	0.258436918258667
59	160.47400188446045	response	0	2		57.0	2.5	/experiments/knapen_aot/videos/S_yt-CNq5mTA8oXY_176.mp4	0.0	216.0733687877655	
59	160.48216700553894	movie	1		301.0	57.0	2.5	/experiments/knapen_aot/videos/S_yt-CNq5mTA8oXY_176.mp4	0.0	216.081533908844	2.5082709789276123
59	162.99043798446655	fix_post	2		12.0	57.0	2.5	/experiments/knapen_aot/videos/S_yt-CNq5mTA8oXY_176.mp4	0.0	218.5898048877716	0.10003399848937988
60	163.09047198295593	fix_pre	0		24.0	58.0	2.5	/experiments/knapen_aot/videos/R_S_yt-9NV8zv2Sdq4_30.mp4	0.0	218.689838886261	0.1999659538269043
60	163.28226494789124	response	0	2		58.0	2.5	/experiments/knapen_aot/videos/R_S_yt-9NV8zv2Sdq4_30.mp4	0.0	218.8816318511963	
60	163.29043793678284	movie	1		301.0	58.0	2.5	/experiments/knapen_aot/videos/R_S_yt-9NV8zv2Sdq4_30.mp4	0.0	218.8898048400879	2.5083510875701904
60	165.79878902435303	fix_post	2		12.0	58.0	2.5	/experiments/knapen_aot/videos/R_S_yt-9NV8zv2Sdq4_30.mp4	0.0	221.39815592765808	0.10008001327514648
61	165.89886903762817	fix_pre	0		26.0	59.0	2.5	/experiments/knapen_aot/videos/R_S_yt-aiwDdJm1ek8_90.mp4	0.0	221.49823594093323	0.21680188179016113
61	166.09981489181519	response	0	2		59.0	2.5	/experiments/knapen_aot/videos/R_S_yt-aiwDdJm1ek8_90.mp4	0.0	221.69918179512024	
61	166.11567091941833	movie	1		301.0	59.0	2.5	/experiments/knapen_aot/videos/R_S_yt-aiwDdJm1ek8_90.mp4	0.0	221.7150378227234	2.50816011428833
61	168.62383103370667	fix_post	2		12.0	59.0	2.5	/experiments/knapen_aot/videos/R_S_yt-aiwDdJm1ek8_90.mp4	0.0	224.22319793701172	0.09994196891784668
62	168.7237730026245	fix_pre	0		21.0	60.0	2.5	/experiments/knapen_aot/videos/R_S_video_inspire_california_big-sur_2020_00001.1080-h264.mp4	0.0	224.32313990592957	0.17502403259277344
62	168.89060997962952	response	0	2		60.0	2.5	/experiments/knapen_aot/videos/R_S_video_inspire_california_big-sur_2020_00001.1080-h264.mp4	0.0	224.48997688293457	
62	168.89879703521729	movie	1		168.0	60.0	2.5	/experiments/knapen_aot/videos/R_S_video_inspire_california_big-sur_2020_00001.1080-h264.mp4	0.0	224.49816393852234	2.5083138942718506
62	171.40711092948914	fix_post	2		12.0	60.0	2.5	/experiments/knapen_aot/videos/R_S_video_inspire_california_big-sur_2020_00001.1080-h264.mp4	0.0	227.0064778327942	0.10000109672546387
63	171.5071120262146	fix_pre	0		7.0	61.0	2.5	/experiments/knapen_aot/videos/R_S_yt--vHa85DHvLU_31.mp4	0.0	227.10647892951965	0.05995988845825195
63	171.5573558807373	response	0	2		61.0	2.5	/experiments/knapen_aot/videos/R_S_yt--vHa85DHvLU_31.mp4	0.0	227.15672278404236	
63	171.56707191467285	movie	1		301.0	61.0	2.5	/experiments/knapen_aot/videos/R_S_yt--vHa85DHvLU_31.mp4	0.0	227.1664388179779	2.5067269802093506
63	174.0737988948822	fix_post	2		12.0	61.0	2.5	/experiments/knapen_aot/videos/R_S_yt--vHa85DHvLU_31.mp4	0.0	229.67316579818726	0.09996199607849121
64	174.1737608909607	fix_pre	0		8.0	62.0	2.5	blank	1.0	229.77312779426575	0.06682801246643066
64	174.23219895362854	response	0	2		62.0	2.5	blank	1.0	229.8315658569336	
64	174.24058890342712	movie	1		301.0	62.0	2.5	blank	1.0	229.83995580673218	2.5081470012664795
64	176.7487359046936	fix_post	2		12.0	62.0	2.5	blank	1.0	232.34810280799866	0.10001301765441895
65	176.84874892234802	fix_pre	0		25.0	63.0	2.5	/experiments/knapen_aot/videos/S_yt-9NV8zv2Sdq4_30.mp4	0.0	232.44811582565308	0.20828795433044434
65	177.04887890815735	response	0	2		63.0	2.5	/experiments/knapen_aot/videos/S_yt-9NV8zv2Sdq4_30.mp4	0.0	232.6482458114624	
65	177.05703687667847	movie	1		301.0	63.0	2.5	/experiments/knapen_aot/videos/S_yt-9NV8zv2Sdq4_30.mp4	0.0	232.65640377998352	2.508362054824829
65	179.5653989315033	fix_post	2		12.0	63.0	2.5	/experiments/knapen_aot/videos/S_yt-9NV8zv2Sdq4_30.mp4	0.0	235.16476583480835	0.09992313385009766
66	179.6653220653534	fix_pre	0		24.0	64.0	2.5	/experiments/knapen_aot/videos/S_pexels-kampus-production-5991896.mp4	0.0	235.26468896865845	0.20016980171203613
66	179.8571720123291	response	0	2		64.0	2.5	/experiments/knapen_aot/videos/S_pexels-kampus-production-5991896.mp4	0.0	235.45653891563416	
66	179.86549186706543	movie	1		164.0	64.0	2.5	/experiments/knapen_aot/videos/S_pexels-kampus-production-5991896.mp4	0.0	235.46485877037048	2.5081920623779297
66	182.37368392944336	fix_post	2		12.0	64.0	2.5	/experiments/knapen_aot/videos/S_pexels-kampus-production-5991896.mp4	0.0	237.9730508327484	0.10003900527954102
67	182.4737229347229	fix_pre	0		10.0	65.0	2.5	/experiments/knapen_aot/videos/R_S_m-aeoYPMqfg_185.mp4	0.0	238.07308983802795	0.08332014083862305
67	182.54907393455505	response	0	2		65.0	2.5	/experiments/knapen_aot/videos/R_S_m-aeoYPMqfg_185.mp4	0.0	238.1484408378601	
67	182.55704307556152	movie	1		301.0	65.0	2.5	/experiments/knapen_aot/videos/R_S_m-aeoYPMqfg_185.mp4	0.0	238.15640997886658	2.5083158016204834
67	185.065358877182	fix_post	2		12.0	65.0	2.5	/experiments/knapen_aot/videos/R_S_m-aeoYPMqfg_185.mp4	0.0	240.66472578048706	0.09994912147521973
68	185.16530799865723	fix_pre	0		5.0	66.0	2.5	/experiments/knapen_aot/videos/S_video_copy.mp4	0.0	240.76467490196228	0.041760921478271484
68	185.19887399673462	response	0	2		66.0	2.5	/experiments/knapen_aot/videos/S_video_copy.mp4	0.0	240.79824090003967	
68	185.2070689201355	movie	1		164.0	66.0	2.5	/experiments/knapen_aot/videos/S_video_copy.mp4	0.0	240.80643582344055	2.508195161819458
68	187.71526408195496	fix_post	2		12.0	66.0	2.5	/experiments/knapen_aot/videos/S_video_copy.mp4	0.0	243.31463098526	0.10007691383361816
69	187.81534099578857	fix_pre	0		24.0	67.0	2.5	/experiments/knapen_aot/videos/R_S_pexels-c-technical-6809719.mp4	0.0	243.41470789909363	0.20003890991210938
69	188.00710892677307	response	0	2		67.0	2.5	/experiments/knapen_aot/videos/R_S_pexels-c-technical-6809719.mp4	0.0	243.60647583007812	
69	188.01537990570068	movie	1		205.0	67.0	2.5	/experiments/knapen_aot/videos/R_S_pexels-c-technical-6809719.mp4	0.0	243.61474680900574	2.508315086364746
69	190.52369499206543	fix_post	2		12.0	67.0	2.5	/experiments/knapen_aot/videos/R_S_pexels-c-technical-6809719.mp4	0.0	246.12306189537048	0.10000205039978027
70	190.6236970424652	fix_pre	0		24.0	68.0	2.5	/experiments/knapen_aot/videos/R_S_yt-7Z6Kmp0n7L8_145.mp4	0.0	246.22306394577026	0.2000410556793213
70	190.81543803215027	response	0	2		68.0	2.5	/experiments/knapen_aot/videos/R_S_yt-7Z6Kmp0n7L8_145.mp4	0.0	246.41480493545532	
70	190.82373809814453	movie	1		301.0	68.0	2.5	/experiments/knapen_aot/videos/R_S_yt-7Z6Kmp0n7L8_145.mp4	0.0	246.42310500144958	2.5082597732543945
70	193.33199787139893	fix_post	2		12.0	68.0	2.5	/experiments/knapen_aot/videos/R_S_yt-7Z6Kmp0n7L8_145.mp4	0.0	248.93136477470398	0.09997320175170898
71	193.43197107315063	fix_pre	0		7.0	69.0	2.5	blank	1.0	249.0313379764557	0.05855298042297363
71	193.4821219444275	response	0	2		69.0	2.5	blank	1.0	249.08148884773254	
71	193.4905240535736	movie	1		301.0	69.0	2.5	blank	1.0	249.08989095687866	2.50805401802063
71	195.99857807159424	fix_post	2		12.0	69.0	2.5	blank	1.0	251.5979449748993	0.10005784034729004
72	196.09863591194153	fix_pre	0		19.0	70.0	2.5	/experiments/knapen_aot/videos/R_S_yt-Gam0NeyyG8w_22.mp4	0.0	251.69800281524658	0.15838003158569336
72	196.24876308441162	response	0	2		70.0	2.5	/experiments/knapen_aot/videos/R_S_yt-Gam0NeyyG8w_22.mp4	0.0	251.84812998771667	
72	196.25701594352722	movie	1		301.0	70.0	2.5	/experiments/knapen_aot/videos/R_S_yt-Gam0NeyyG8w_22.mp4	0.0	251.85638284683228	2.5083110332489014
72	198.76532697677612	fix_post	2		12.0	70.0	2.5	/experiments/knapen_aot/videos/R_S_yt-Gam0NeyyG8w_22.mp4	0.0	254.36469388008118	0.10004997253417969
73	198.8653769493103	fix_pre	0		20.0	71.0	2.5	/experiments/knapen_aot/videos/S_cST9H3zu3zQ_126.mp4	0.0	254.46474385261536	0.16662907600402832
73	199.02380394935608	response	0	2		71.0	2.5	/experiments/knapen_aot/videos/S_cST9H3zu3zQ_126.mp4	0.0	254.62317085266113	
73	199.03200602531433	movie	1		301.0	71.0	2.5	/experiments/knapen_aot/videos/S_cST9H3zu3zQ_126.mp4	0.0	254.63137292861938	2.5083038806915283
73	201.54030990600586	fix_post	2		12.0	71.0	2.5	/experiments/knapen_aot/videos/S_cST9H3zu3zQ_126.mp4	0.0	257.1396768093109	0.09987998008728027
74	201.64018988609314	fix_pre	0		10.0	72.0	2.5	/experiments/knapen_aot/videos/S_BO_A014_C023_SDR_20190717_F240F3709_SDR_2K_AVC.mp4	0.0	257.2395567893982	0.08341121673583984
74	201.7079050540924	response	0	2		72.0	2.5	/experiments/knapen_aot/videos/S_BO_A014_C023_SDR_20190717_F240F3709_SDR_2K_AVC.mp4	0.0	257.30727195739746	
74	201.72360110282898	movie	1		168.0	72.0	2.5	/experiments/knapen_aot/videos/S_BO_A014_C023_SDR_20190717_F240F3709_SDR_2K_AVC.mp4	0.0	257.32296800613403	2.5083248615264893
74	204.23192596435547	fix_post	2		12.0	72.0	2.5	/experiments/knapen_aot/videos/S_BO_A014_C023_SDR_20190717_F240F3709_SDR_2K_AVC.mp4	0.0	259.8312928676605	0.10007596015930176
75	204.33200192451477	fix_pre	0		18.0	73.0	2.5	/experiments/knapen_aot/videos/S_ILSVRC2015_train_00411001.mp4	0.0	259.9313688278198	0.14991402626037598
75	204.47369599342346	response	0	2		73.0	2.5	/experiments/knapen_aot/videos/S_ILSVRC2015_train_00411001.mp4	0.0	260.0730628967285	
75	204.48191595077515	movie	1		301.0	73.0	2.5	/experiments/knapen_aot/videos/S_ILSVRC2015_train_00411001.mp4	0.0	260.0812828540802	2.5083961486816406
75	206.9903120994568	fix_post	2		12.0	73.0	2.5	/experiments/knapen_aot/videos/S_ILSVRC2015_train_00411001.mp4	0.0	262.58967900276184	0.09996485710144043
76	207.09027695655823	fix_pre	0		10.0	74.0	2.5	/experiments/knapen_aot/videos/S_video_inspire_sanfrancisco_castro_005.1080-h264.mp4	0.0	262.6896438598633	0.08334493637084961
76	207.16545701026917	response	0	4		74.0	2.5	/experiments/knapen_aot/videos/S_video_inspire_sanfrancisco_castro_005.1080-h264.mp4	0.0	262.7648239135742	
76	207.17362189292908	movie	1		167.0	74.0	2.5	/experiments/knapen_aot/videos/S_video_inspire_sanfrancisco_castro_005.1080-h264.mp4	0.0	262.77298879623413	2.508315086364746
76	208.7237389087677	response	1	4		74.0	2.5	/experiments/knapen_aot/videos/S_video_inspire_sanfrancisco_castro_005.1080-h264.mp4	0.0	264.32310581207275	
76	209.68193697929382	fix_post	2		12.0	74.0	2.5	/experiments/knapen_aot/videos/S_video_inspire_sanfrancisco_castro_005.1080-h264.mp4	0.0	265.2813038825989	0.09995603561401367
77	209.78189301490784	fix_pre	0		15.0	75.0	2.5	/experiments/knapen_aot/videos/S_comp_GL_G002_C002_PSNK_v03_SDR_PS_20180925_SDR_2K_AVC.mp4	0.0	265.3812599182129	0.12499690055847168
77	209.89866995811462	response	0	4		75.0	2.5	/experiments/knapen_aot/videos/S_comp_GL_G002_C002_PSNK_v03_SDR_PS_20180925_SDR_2K_AVC.mp4	0.0	265.4980368614197	
77	209.9068899154663	movie	1		167.0	75.0	2.5	/experiments/knapen_aot/videos/S_comp_GL_G002_C002_PSNK_v03_SDR_PS_20180925_SDR_2K_AVC.mp4	0.0	265.50625681877136	2.508303165435791
77	211.11433291435242	response	1	4		75.0	2.5	/experiments/knapen_aot/videos/S_comp_GL_G002_C002_PSNK_v03_SDR_PS_20180925_SDR_2K_AVC.mp4	0.0	266.71369981765747	
77	212.4151930809021	fix_post	2		12.0	75.0	2.5	/experiments/knapen_aot/videos/S_comp_GL_G002_C002_PSNK_v03_SDR_PS_20180925_SDR_2K_AVC.mp4	0.0	268.01455998420715	0.10004401206970215
78	212.5152370929718	fix_pre	0		20.0	76.0	2.5	/experiments/knapen_aot/videos/S_yt-DWsFRl5bXs8_23.mp4	0.0	268.11460399627686	0.16662192344665527
78	212.6736969947815	response	0	4		76.0	2.5	/experiments/knapen_aot/videos/S_yt-DWsFRl5bXs8_23.mp4	0.0	268.27306389808655	
78	212.68185901641846	movie	1		301.0	76.0	2.5	/experiments/knapen_aot/videos/S_yt-DWsFRl5bXs8_23.mp4	0.0	268.2812259197235	2.50833797454834
78	215.1901969909668	fix_post	2		12.0	76.0	2.5	/experiments/knapen_aot/videos/S_yt-DWsFRl5bXs8_23.mp4	0.0	270.78956389427185	0.10004305839538574
79	215.29024004936218	fix_pre	0		6.0	77.0	2.5	blank	1.0	270.88960695266724	0.05000185966491699
79	215.33210492134094	response	0	4		77.0	2.5	blank	1.0	270.931471824646	
79	215.3402419090271	movie	1		301.0	77.0	2.5	blank	1.0	270.93960881233215	2.508254051208496
79	217.8484959602356	fix_post	2		12.0	77.0	2.5	blank	1.0	273.44786286354065	0.10008001327514648
80	217.94857597351074	fix_pre	0		27.0	78.0	2.5	/experiments/knapen_aot/videos/R_S_G007_C004_UHD_SDR_2K_AVC.mp4	0.0	273.5479428768158	0.224931001663208
80	218.16532588005066	response	0	4		78.0	2.5	/experiments/knapen_aot/videos/R_S_G007_C004_UHD_SDR_2K_AVC.mp4	0.0	273.7646927833557	
80	218.17350697517395	movie	1		169.0	78.0	2.5	/experiments/knapen_aot/videos/R_S_G007_C004_UHD_SDR_2K_AVC.mp4	0.0	273.772873878479	2.508373975753784
80	220.68188095092773	fix_post	2		12.0	78.0	2.5	/experiments/knapen_aot/videos/R_S_G007_C004_UHD_SDR_2K_AVC.mp4	0.0	276.2812478542328	0.0999290943145752
81	220.7818100452423	fix_pre	0		5.0	79.0	2.5	/experiments/knapen_aot/videos/R_S_ILSVRC2015_train_00549000.mp4	0.0	276.38117694854736	0.04170393943786621
81	220.8077850341797	response	0	2		79.0	2.5	/experiments/knapen_aot/videos/R_S_ILSVRC2015_train_00549000.mp4	0.0	276.40715193748474	
81	220.82351398468018	movie	1		301.0	79.0	2.5	/experiments/knapen_aot/videos/R_S_ILSVRC2015_train_00549000.mp4	0.0	276.42288088798523	2.508328914642334
81	223.3318428993225	fix_post	2		12.0	79.0	2.5	/experiments/knapen_aot/videos/R_S_ILSVRC2015_train_00549000.mp4	0.0	278.93120980262756	0.10001802444458008
81	223.41531586647034	response	2	2		79.0	2.5	/experiments/knapen_aot/videos/R_S_ILSVRC2015_train_00549000.mp4	0.0	279.0146827697754	
82	223.4318609237671	fix_pre	0		116.0	80.0	2.5	/experiments/knapen_aot/videos/S_yt-XY1n_Oze1kQ_9.mp4	0.0	279.03122782707214	0.9666121006011963
82	224.3902769088745	response	0	2		80.0	2.5	/experiments/knapen_aot/videos/S_yt-XY1n_Oze1kQ_9.mp4	0.0	279.98964381217957	
82	224.3984730243683	movie	1		301.0	80.0	2.5	/experiments/knapen_aot/videos/S_yt-XY1n_Oze1kQ_9.mp4	0.0	279.99783992767334	2.5084049701690674
82	226.90687799453735	fix_post	2		12.0	80.0	2.5	/experiments/knapen_aot/videos/S_yt-XY1n_Oze1kQ_9.mp4	0.0	282.5062448978424	0.09997701644897461
83	227.00685501098633	fix_pre	0		20.0	81.0	2.5	/experiments/knapen_aot/videos/R_S_yt-DWsFRl5bXs8_23.mp4	0.0	282.6062219142914	0.16662287712097168
83	227.16534805297852	response	0	2		81.0	2.5	/experiments/knapen_aot/videos/R_S_yt-DWsFRl5bXs8_23.mp4	0.0	282.76471495628357	
83	227.1734778881073	movie	1		300.0	81.0	2.5	/experiments/knapen_aot/videos/R_S_yt-DWsFRl5bXs8_23.mp4	0.0	282.77284479141235	2.50835919380188
83	229.68183708190918	fix_post	2		12.0	81.0	2.5	/experiments/knapen_aot/videos/R_S_yt-DWsFRl5bXs8_23.mp4	0.0	285.28120398521423	0.10000085830688477
84	229.78183794021606	fix_pre	0		1.0	82.0	2.5	/experiments/knapen_aot/videos/S_yt-2SVpSaBAxsw_78.mp4	0.0	285.3812048435211	0.008435964584350586
84	229.78352689743042	response	0	2		82.0	2.5	/experiments/knapen_aot/videos/S_yt-2SVpSaBAxsw_78.mp4	0.0	285.3828938007355	
84	229.79027390480042	movie	1		301.0	82.0	2.5	/experiments/knapen_aot/videos/S_yt-2SVpSaBAxsw_78.mp4	0.0	285.38964080810547	2.5082180500030518
84	232.29849195480347	fix_post	2		12.0	82.0	2.5	/experiments/knapen_aot/videos/S_yt-2SVpSaBAxsw_78.mp4	0.0	287.8978588581085	0.09988594055175781
85	232.39837789535522	fix_pre	0		24.0	83.0	2.5	blank	1.0	287.9977447986603	0.20000815391540527
85	232.59025192260742	response	0	2		83.0	2.5	blank	1.0	288.1896188259125	
85	232.59838604927063	movie	1		301.0	83.0	2.5	blank	1.0	288.1977529525757	2.5083539485931396
85	235.10673999786377	fix_post	2		12.0	83.0	2.5	blank	1.0	290.7061069011688	0.10007500648498535
87	235.20681500434875	stim	0		221.0					290.8061819076538	1.8415648937225342
87	235.36521887779236	response	0	2						290.9645857810974	
87	237.0377209186554	response	0	space						292.63708782196045	
