trial_nr	onset	event_type	phase	response	nr_frames	movie_index	movie_duration	movie_file	blank	onset_abs	duration
0	0.13336992263793945	stim	0		72.0					62.76607894897461	0.6000661849975586
0	0.7251191139221191	response	0	space						63.35782814025879	
1	0.733436107635498	stim	0		121.0					63.36614513397217	1.007908821105957
1	1.741344928741455	stim	1		120.0					64.37405395507812	0.9999120235443115
1	2.1831109523773193	response	1	space						64.81581997871399	
2	2.7412569522857666	fix_pre	0		106.0	0.0	2.5	/experiments/knapen_aot/videos/S_comp_GMT329_113NC_396B_1105_ITALY_v03_SDR_FINAL_20180706_SDR_2K_AVC.mp4	0.0	65.37396597862244	0.8833801746368408
2	3.616568088531494	response	0	space		0.0	2.5	/experiments/knapen_aot/videos/S_comp_GMT329_113NC_396B_1105_ITALY_v03_SDR_FINAL_20180706_SDR_2K_AVC.mp4	0.0	66.24927711486816	
2	3.6246371269226074	movie	1		168.0	0.0	2.5	/experiments/knapen_aot/videos/S_comp_GMT329_113NC_396B_1105_ITALY_v03_SDR_FINAL_20180706_SDR_2K_AVC.mp4	0.0	66.25734615325928	2.508450984954834
2	6.133088111877441	fix_post	2		12.0	0.0	2.5	/experiments/knapen_aot/videos/S_comp_GMT329_113NC_396B_1105_ITALY_v03_SDR_FINAL_20180706_SDR_2K_AVC.mp4	0.0	68.76579713821411	0.10830092430114746
3	6.241389036178589	fix_pre	0		1.0	1.0	2.5	/experiments/knapen_aot/videos/S_pexels-ron-lach-8071987.mp4	0.0	68.87409806251526	0.011820077896118164
3	6.237356901168823	response	0	2		1.0	2.5	/experiments/knapen_aot/videos/S_pexels-ron-lach-8071987.mp4	0.0	68.8700659275055	
3	6.253209114074707	movie	1		195.0	1.0	2.5	/experiments/knapen_aot/videos/S_pexels-ron-lach-8071987.mp4	0.0	68.88591814041138	2.504817008972168
3	8.758026123046875	fix_post	2		12.0	1.0	2.5	/experiments/knapen_aot/videos/S_pexels-ron-lach-8071987.mp4	0.0	71.39073514938354	0.09987497329711914
4	8.857901096343994	fix_pre	0		6.0	2.0	2.5	/experiments/knapen_aot/videos/R_S_yt-ObT9gF8E_tU_250.mp4	0.0	71.49061012268066	0.0500028133392334
4	8.89981198310852	response	0	2		2.0	2.5	/experiments/knapen_aot/videos/R_S_yt-ObT9gF8E_tU_250.mp4	0.0	71.53252100944519	
4	8.907903909683228	movie	1		301.0	2.0	2.5	/experiments/knapen_aot/videos/R_S_yt-ObT9gF8E_tU_250.mp4	0.0	71.5406129360199	2.508308172225952
4	11.41621208190918	fix_post	2		12.0	2.0	2.5	/experiments/knapen_aot/videos/R_S_yt-ObT9gF8E_tU_250.mp4	0.0	74.04892110824585	0.10008001327514648
5	11.516292095184326	fix_pre	0		4.0	3.0	2.5	/experiments/knapen_aot/videos/R_S_yt-bmGWhOCsvJo_128.mp4	0.0	74.149001121521	0.0333409309387207
5	11.541367053985596	response	0	2		3.0	2.5	/experiments/knapen_aot/videos/R_S_yt-bmGWhOCsvJo_128.mp4	0.0	74.17407608032227	
5	11.549633026123047	movie	1		301.0	3.0	2.5	/experiments/knapen_aot/videos/R_S_yt-bmGWhOCsvJo_128.mp4	0.0	74.18234205245972	2.5083189010620117
5	14.057951927185059	fix_post	2		12.0	3.0	2.5	/experiments/knapen_aot/videos/R_S_yt-bmGWhOCsvJo_128.mp4	0.0	76.69066095352173	0.09994697570800781
6	14.157898902893066	fix_pre	0		11.0	4.0	2.5	/experiments/knapen_aot/videos/S_ILSVRC2015_train_00559000.mp4	0.0	76.79060792922974	0.09169816970825195
6	14.23390507698059	response	0	2		4.0	2.5	/experiments/knapen_aot/videos/S_ILSVRC2015_train_00559000.mp4	0.0	76.86661410331726	
6	14.249597072601318	movie	1		301.0	4.0	2.5	/experiments/knapen_aot/videos/S_ILSVRC2015_train_00559000.mp4	0.0	76.88230609893799	2.508366823196411
6	16.75796389579773	fix_post	2		12.0	4.0	2.5	/experiments/knapen_aot/videos/S_ILSVRC2015_train_00559000.mp4	0.0	79.3906729221344	0.09990906715393066
7	16.85787296295166	fix_pre	0		1.0	5.0	2.5	/experiments/knapen_aot/videos/S_yt-wE0cEswyaaM_53.mp4	0.0	79.49058198928833	0.008397102355957031
7	16.850893020629883	response	0	2		5.0	2.5	/experiments/knapen_aot/videos/S_yt-wE0cEswyaaM_53.mp4	0.0	79.48360204696655	
7	16.866270065307617	movie	1		300.0	5.0	2.5	/experiments/knapen_aot/videos/S_yt-wE0cEswyaaM_53.mp4	0.0	79.49897909164429	2.5083529949188232
7	19.37462306022644	fix_post	2		12.0	5.0	2.5	/experiments/knapen_aot/videos/S_yt-wE0cEswyaaM_53.mp4	0.0	82.00733208656311	0.09994983673095703
8	19.474572896957397	fix_pre	0		22.0	6.0	2.5	blank	1.0	82.10728192329407	0.18330907821655273
8	19.649791955947876	response	0	2		6.0	2.5	blank	1.0	82.28250098228455	
8	19.65788197517395	movie	1		301.0	6.0	2.5	blank	1.0	82.29059100151062	2.508329153060913
8	22.166211128234863	fix_post	2		12.0	6.0	2.5	blank	1.0	84.79892015457153	0.10002684593200684
9	22.26623797416687	fix_pre	0		142.0	7.0	2.5	/experiments/knapen_aot/videos/R_S_yt-mJzkLd3Mr_c_35.mp4	0.0	84.89894700050354	1.1832671165466309
9	23.441389083862305	response	0	2		7.0	2.5	/experiments/knapen_aot/videos/R_S_yt-mJzkLd3Mr_c_35.mp4	0.0	86.07409811019897	
9	23.4495050907135	movie	1		301.0	7.0	2.5	/experiments/knapen_aot/videos/R_S_yt-mJzkLd3Mr_c_35.mp4	0.0	86.08221411705017	2.5083959102630615
9	25.957901000976562	fix_post	2		12.0	7.0	2.5	/experiments/knapen_aot/videos/R_S_yt-mJzkLd3Mr_c_35.mp4	0.0	88.59061002731323	0.10002803802490234
10	26.057929039001465	fix_pre	0		6.0	8.0	2.5	/experiments/knapen_aot/videos/R_S_wc-1MzpHfRq1MUK_32.mp4	0.0	88.69063806533813	0.050000905990600586
10	26.092873096466064	response	0	2		8.0	2.5	/experiments/knapen_aot/videos/R_S_wc-1MzpHfRq1MUK_32.mp4	0.0	88.72558212280273	
10	26.107929944992065	movie	1		301.0	8.0	2.5	/experiments/knapen_aot/videos/R_S_wc-1MzpHfRq1MUK_32.mp4	0.0	88.74063897132874	2.5082690715789795
10	28.616199016571045	fix_post	2		12.0	8.0	2.5	/experiments/knapen_aot/videos/R_S_wc-1MzpHfRq1MUK_32.mp4	0.0	91.24890804290771	0.10002899169921875
11	28.716228008270264	fix_pre	0		14.0	9.0	2.5	/experiments/knapen_aot/videos/S_JApTAOdfunE_1251.mp4	0.0	91.34893703460693	0.11662912368774414
11	28.82464909553528	response	0	2		9.0	2.5	/experiments/knapen_aot/videos/S_JApTAOdfunE_1251.mp4	0.0	91.45735812187195	
11	28.832857131958008	movie	1		301.0	9.0	2.5	/experiments/knapen_aot/videos/S_JApTAOdfunE_1251.mp4	0.0	91.46556615829468	2.5083799362182617
11	31.34123706817627	fix_post	2		12.0	9.0	2.5	/experiments/knapen_aot/videos/S_JApTAOdfunE_1251.mp4	0.0	93.97394609451294	0.0999748706817627
12	31.441211938858032	fix_pre	0		7.0	10.0	2.5	/experiments/knapen_aot/videos/R_S_Pexels_Videos_2795731_1.mp4	0.0	94.0739209651947	0.058326005935668945
12	31.491338968276978	response	0	2		10.0	2.5	/experiments/knapen_aot/videos/R_S_Pexels_Videos_2795731_1.mp4	0.0	94.12404799461365	
12	31.4995379447937	movie	1		167.0	10.0	2.5	/experiments/knapen_aot/videos/R_S_Pexels_Videos_2795731_1.mp4	0.0	94.13224697113037	2.508341073989868
12	34.00787901878357	fix_post	2		12.0	10.0	2.5	/experiments/knapen_aot/videos/R_S_Pexels_Videos_2795731_1.mp4	0.0	96.64058804512024	0.09996891021728516
13	34.107847929000854	fix_pre	0		19.0	11.0	2.5	/experiments/knapen_aot/videos/S_production_ID_4499960.mp4	0.0	96.74055695533752	0.15877699851989746
13	34.25801110267639	response	0	2		11.0	2.5	/experiments/knapen_aot/videos/S_production_ID_4499960.mp4	0.0	96.89072012901306	
13	34.26662492752075	movie	1		165.0	11.0	2.5	/experiments/knapen_aot/videos/S_production_ID_4499960.mp4	0.0	96.89933395385742	2.5078530311584473
13	36.7744779586792	fix_post	2		12.0	11.0	2.5	/experiments/knapen_aot/videos/S_production_ID_4499960.mp4	0.0	99.40718698501587	0.10004210472106934
14	36.87452006340027	fix_pre	0		35.0	12.0	2.5	/experiments/knapen_aot/videos/R_S_yt-HMAa2QbfFPI_216.mp4	0.0	99.50722908973694	0.29164600372314453
14	37.157952070236206	response	0	2		12.0	2.5	/experiments/knapen_aot/videos/R_S_yt-HMAa2QbfFPI_216.mp4	0.0	99.79066109657288	
14	37.16616606712341	movie	1		301.0	12.0	2.5	/experiments/knapen_aot/videos/R_S_yt-HMAa2QbfFPI_216.mp4	0.0	99.79887509346008	2.508344888687134
14	39.67451095581055	fix_post	2		12.0	12.0	2.5	/experiments/knapen_aot/videos/R_S_yt-HMAa2QbfFPI_216.mp4	0.0	102.30721998214722	0.10001301765441895
15	39.774523973464966	fix_pre	0		20.0	13.0	2.5	blank	1.0	102.40723299980164	0.1665821075439453
15	39.933008909225464	response	0	2		13.0	2.5	blank	1.0	102.56571793556213	
15	39.94110608100891	movie	1		301.0	13.0	2.5	blank	1.0	102.57381510734558	2.50839900970459
15	42.4495050907135	fix_post	2		12.0	13.0	2.5	blank	1.0	105.08221411705017	0.09991097450256348
16	42.549416065216064	fix_pre	0		40.0	14.0	2.5	/experiments/knapen_aot/videos/R_S_yt-Fm97IY0Z2LU_79.mp4	0.0	105.18212509155273	0.33337998390197754
16	42.87459993362427	response	0	2		14.0	2.5	/experiments/knapen_aot/videos/R_S_yt-Fm97IY0Z2LU_79.mp4	0.0	105.50730895996094	
16	42.88279604911804	movie	1		301.0	14.0	2.5	/experiments/knapen_aot/videos/R_S_yt-Fm97IY0Z2LU_79.mp4	0.0	105.51550507545471	2.5082859992980957
16	45.39108204841614	fix_post	2		12.0	14.0	2.5	/experiments/knapen_aot/videos/R_S_yt-Fm97IY0Z2LU_79.mp4	0.0	108.02379107475281	0.10011792182922363
17	45.49119997024536	fix_pre	0		6.0	15.0	2.5	/experiments/knapen_aot/videos/S_yt-T1mMDOVjvrE_83.mp4	0.0	108.12390899658203	0.04993414878845215
17	45.53291893005371	response	0	2		15.0	2.5	/experiments/knapen_aot/videos/S_yt-T1mMDOVjvrE_83.mp4	0.0	108.16562795639038	
17	45.54113411903381	movie	1		301.0	15.0	2.5	/experiments/knapen_aot/videos/S_yt-T1mMDOVjvrE_83.mp4	0.0	108.17384314537048	2.50833797454834
17	48.04947209358215	fix_post	2		12.0	15.0	2.5	/experiments/knapen_aot/videos/S_yt-T1mMDOVjvrE_83.mp4	0.0	110.68218111991882	0.0999758243560791
18	48.14944791793823	fix_pre	0		7.0	16.0	2.5	/experiments/knapen_aot/videos/S_ILSVRC2015_train_00578000.mp4	0.0	110.7821569442749	0.05834197998046875
18	48.19961404800415	response	0	2		16.0	2.5	/experiments/knapen_aot/videos/S_ILSVRC2015_train_00578000.mp4	0.0	110.83232307434082	
18	48.2077898979187	movie	1		301.0	16.0	2.5	/experiments/knapen_aot/videos/S_ILSVRC2015_train_00578000.mp4	0.0	110.84049892425537	2.5082170963287354
18	50.71600699424744	fix_post	2		12.0	16.0	2.5	/experiments/knapen_aot/videos/S_ILSVRC2015_train_00578000.mp4	0.0	113.3487160205841	0.1001129150390625
19	50.8161199092865	fix_pre	0		3.0	17.0	2.5	/experiments/knapen_aot/videos/S_yt-QD74nNliDvI_10.mp4	0.0	113.44882893562317	0.0251309871673584
19	50.83295512199402	response	0	2		17.0	2.5	/experiments/knapen_aot/videos/S_yt-QD74nNliDvI_10.mp4	0.0	113.46566414833069	
19	50.84125089645386	movie	1		299.0	17.0	2.5	/experiments/knapen_aot/videos/S_yt-QD74nNliDvI_10.mp4	0.0	113.47395992279053	2.50822114944458
19	53.34947204589844	fix_post	2		12.0	17.0	2.5	/experiments/knapen_aot/videos/S_yt-QD74nNliDvI_10.mp4	0.0	115.98218107223511	0.09995007514953613
20	53.449422121047974	fix_pre	0		15.0	18.0	2.5	/experiments/knapen_aot/videos/S_pexels-mikhail-nilov-8410084.mp4	0.0	116.08213114738464	0.12495899200439453
20	53.56622505187988	response	0	2		18.0	2.5	/experiments/knapen_aot/videos/S_pexels-mikhail-nilov-8410084.mp4	0.0	116.19893407821655	
20	53.57438111305237	movie	1		164.0	18.0	2.5	/experiments/knapen_aot/videos/S_pexels-mikhail-nilov-8410084.mp4	0.0	116.20709013938904	2.508401870727539
20	56.08278298377991	fix_post	2		12.0	18.0	2.5	/experiments/knapen_aot/videos/S_pexels-mikhail-nilov-8410084.mp4	0.0	118.71549201011658	0.1002960205078125
21	56.18307900428772	fix_pre	0		5.0	19.0	2.5	blank	1.0	118.81578803062439	0.04191112518310547
21	56.216164112091064	response	0	2		19.0	2.5	blank	1.0	118.84887313842773	
21	56.224990129470825	movie	1		301.0	19.0	2.5	blank	1.0	118.8576991558075	2.5077719688415527
21	58.73276209831238	fix_post	2		12.0	19.0	2.5	blank	1.0	121.36547112464905	0.09992694854736328
22	58.83268904685974	fix_pre	0		25.0	20.0	2.5	/experiments/knapen_aot/videos/S_yt-GOgS--rzmKQ_51.mp4	0.0	121.46539807319641	0.20836687088012695
22	59.03278303146362	response	0	2		20.0	2.5	/experiments/knapen_aot/videos/S_yt-GOgS--rzmKQ_51.mp4	0.0	121.6654920578003	
22	59.04105591773987	movie	1		301.0	20.0	2.5	/experiments/knapen_aot/videos/S_yt-GOgS--rzmKQ_51.mp4	0.0	121.67376494407654	2.5083870887756348
22	61.5494430065155	fix_post	2		12.0	20.0	2.5	/experiments/knapen_aot/videos/S_yt-GOgS--rzmKQ_51.mp4	0.0	124.18215203285217	0.09997200965881348
23	61.649415016174316	fix_pre	0		6.0	21.0	2.5	/experiments/knapen_aot/videos/R_S_yt-SS7pSyb0_d0_32.mp4	0.0	124.28212404251099	0.050019025802612305
23	61.69121503829956	response	0	2		21.0	2.5	/experiments/knapen_aot/videos/R_S_yt-SS7pSyb0_d0_32.mp4	0.0	124.32392406463623	
23	61.69943404197693	movie	1		301.0	21.0	2.5	/experiments/knapen_aot/videos/R_S_yt-SS7pSyb0_d0_32.mp4	0.0	124.3321430683136	2.508307933807373
23	64.2077419757843	fix_post	2		12.0	21.0	2.5	/experiments/knapen_aot/videos/R_S_yt-SS7pSyb0_d0_32.mp4	0.0	126.84045100212097	0.10029792785644531
24	64.30803990364075	fix_pre	0		36.0	22.0	2.5	/experiments/knapen_aot/videos/R_S_yt-giRwl4yChlw_9.mp4	0.0	126.94074892997742	0.29970717430114746
24	64.59949994087219	response	0	2		22.0	2.5	/experiments/knapen_aot/videos/R_S_yt-giRwl4yChlw_9.mp4	0.0	127.23220896720886	
24	64.6077470779419	movie	1		301.0	22.0	2.5	/experiments/knapen_aot/videos/R_S_yt-giRwl4yChlw_9.mp4	0.0	127.24045610427856	2.508254051208496
24	67.11600112915039	fix_post	2		12.0	22.0	2.5	/experiments/knapen_aot/videos/R_S_yt-giRwl4yChlw_9.mp4	0.0	129.74871015548706	0.0999898910522461
25	67.21599102020264	fix_pre	0		1.0	23.0	2.5	/experiments/knapen_aot/videos/R_S_ILSVRC2015_train_00001011.mp4	0.0	129.8487000465393	0.00868988037109375
25	67.21763110160828	response	0	2		23.0	2.5	/experiments/knapen_aot/videos/R_S_ILSVRC2015_train_00001011.mp4	0.0	129.85034012794495	
25	67.22468090057373	movie	1		300.0	23.0	2.5	/experiments/knapen_aot/videos/R_S_ILSVRC2015_train_00001011.mp4	0.0	129.8573899269104	2.5079171657562256
25	69.73259806632996	fix_post	2		12.0	23.0	2.5	/experiments/knapen_aot/videos/R_S_ILSVRC2015_train_00001011.mp4	0.0	132.36530709266663	0.10010194778442383
26	69.83270001411438	fix_pre	0		30.0	24.0	2.5	/experiments/knapen_aot/videos/S_ILSVRC2015_train_00323000.mp4	0.0	132.46540904045105	0.24997806549072266
26	70.07449102401733	response	0	2		24.0	2.5	/experiments/knapen_aot/videos/S_ILSVRC2015_train_00323000.mp4	0.0	132.707200050354	
26	70.0826780796051	movie	1		301.0	24.0	2.5	/experiments/knapen_aot/videos/S_ILSVRC2015_train_00323000.mp4	0.0	132.71538710594177	2.5082778930664062
26	72.59095597267151	fix_post	2		12.0	24.0	2.5	/experiments/knapen_aot/videos/S_ILSVRC2015_train_00323000.mp4	0.0	135.22366499900818	0.10001111030578613
27	72.6909670829773	fix_pre	0		9.0	25.0	2.5	/experiments/knapen_aot/videos/R_S_Pexels_Videos_2795731.mp4	0.0	135.32367610931396	0.0752558708190918
27	72.75782704353333	response	0	2		25.0	2.5	/experiments/knapen_aot/videos/R_S_Pexels_Videos_2795731.mp4	0.0	135.39053606987	
27	72.76622295379639	movie	1		163.0	25.0	2.5	/experiments/knapen_aot/videos/R_S_Pexels_Videos_2795731.mp4	0.0	135.39893198013306	2.508131980895996
27	75.27435493469238	fix_post	2		12.0	25.0	2.5	/experiments/knapen_aot/videos/R_S_Pexels_Videos_2795731.mp4	0.0	137.90706396102905	0.09999299049377441
28	75.37434792518616	fix_pre	0		25.0	26.0	2.5	blank	1.0	138.00705695152283	0.20827817916870117
28	75.57449293136597	response	0	2		26.0	2.5	blank	1.0	138.20720195770264	
28	75.58262610435486	movie	1		301.0	26.0	2.5	blank	1.0	138.21533513069153	2.5083580017089844
28	78.09098410606384	fix_post	2		12.0	26.0	2.5	blank	1.0	140.7236931324005	0.09997200965881348
29	78.19095611572266	fix_pre	0		389.0	27.0	2.5	/experiments/knapen_aot/videos/S_yt-kXarkCFJLeg_46.mp4	0.0	140.82366514205933	3.2418429851531982
29	81.42445397377014	response	0	2		27.0	2.5	/experiments/knapen_aot/videos/S_yt-kXarkCFJLeg_46.mp4	0.0	144.0571630001068	
29	81.43279910087585	movie	1		301.0	27.0	2.5	/experiments/knapen_aot/videos/S_yt-kXarkCFJLeg_46.mp4	0.0	144.06550812721252	2.5081369876861572
29	83.94093608856201	fix_post	2		12.0	27.0	2.5	/experiments/knapen_aot/videos/S_yt-kXarkCFJLeg_46.mp4	0.0	146.57364511489868	0.09998297691345215
30	84.04091906547546	fix_pre	0		16.0	28.0	2.5	/experiments/knapen_aot/videos/R_S_yt-q9kT_c9QjbQ_34.mp4	0.0	146.67362809181213	0.13338899612426758
30	84.16611504554749	response	0	2		28.0	2.5	/experiments/knapen_aot/videos/R_S_yt-q9kT_c9QjbQ_34.mp4	0.0	146.79882407188416	
30	84.17430806159973	movie	1		298.0	28.0	2.5	/experiments/knapen_aot/videos/R_S_yt-q9kT_c9QjbQ_34.mp4	0.0	146.8070170879364	2.5082900524139404
30	86.68259811401367	fix_post	2		12.0	28.0	2.5	/experiments/knapen_aot/videos/R_S_yt-q9kT_c9QjbQ_34.mp4	0.0	149.31530714035034	0.09998393058776855
30	86.77440595626831	response	2	2		28.0	2.5	/experiments/knapen_aot/videos/R_S_yt-q9kT_c9QjbQ_34.mp4	0.0	149.40711498260498	
31	86.78258204460144	fix_pre	0		48.0	29.0	2.5	/experiments/knapen_aot/videos/R_S_yt-UBqUhu-GEVg_6.mp4	0.0	149.4152910709381	0.400162935256958
31	87.17430090904236	response	0	2		29.0	2.5	/experiments/knapen_aot/videos/R_S_yt-UBqUhu-GEVg_6.mp4	0.0	149.80700993537903	
31	87.1827449798584	movie	1		301.0	29.0	2.5	/experiments/knapen_aot/videos/R_S_yt-UBqUhu-GEVg_6.mp4	0.0	149.81545400619507	2.5081629753112793
31	89.69090795516968	fix_post	2		12.0	29.0	2.5	/experiments/knapen_aot/videos/R_S_yt-UBqUhu-GEVg_6.mp4	0.0	152.32361698150635	0.10007405281066895
32	89.79098200798035	fix_pre	0		17.0	30.0	2.5	/experiments/knapen_aot/videos/R_S_yt-HRuCkU_kBoE_239.mp4	0.0	152.42369103431702	0.14174389839172363
32	89.92431712150574	response	0	2		30.0	2.5	/experiments/knapen_aot/videos/R_S_yt-HRuCkU_kBoE_239.mp4	0.0	152.5570261478424	
32	89.93272590637207	movie	1		301.0	30.0	2.5	/experiments/knapen_aot/videos/R_S_yt-HRuCkU_kBoE_239.mp4	0.0	152.56543493270874	2.508213996887207
32	92.44093990325928	fix_post	2		12.0	30.0	2.5	/experiments/knapen_aot/videos/R_S_yt-HRuCkU_kBoE_239.mp4	0.0	155.07364892959595	0.0999460220336914
33	92.54088592529297	fix_pre	0		188.0	31.0	2.5	/experiments/knapen_aot/videos/R_S_yt-OTNdgakSIJE_97.mp4	0.0	155.17359495162964	1.56666898727417
33	94.09186911582947	response	0	2		31.0	2.5	/experiments/knapen_aot/videos/R_S_yt-OTNdgakSIJE_97.mp4	0.0	156.72457814216614	
33	94.10755491256714	movie	1		300.0	31.0	2.5	/experiments/knapen_aot/videos/R_S_yt-OTNdgakSIJE_97.mp4	0.0	156.7402639389038	2.5083141326904297
33	96.61586904525757	fix_post	2		12.0	31.0	2.5	/experiments/knapen_aot/videos/R_S_yt-OTNdgakSIJE_97.mp4	0.0	159.24857807159424	0.10001301765441895
34	96.71588206291199	fix_pre	0		2.0	32.0	2.5	/experiments/knapen_aot/videos/R_S_ILSVRC2015_train_00574004.mp4	0.0	159.34859108924866	0.016702890396118164
34	96.71843004226685	response	0	2		32.0	2.5	/experiments/knapen_aot/videos/R_S_ILSVRC2015_train_00574004.mp4	0.0	159.35113906860352	
34	96.7325849533081	movie	1		301.0	32.0	2.5	/experiments/knapen_aot/videos/R_S_ILSVRC2015_train_00574004.mp4	0.0	159.36529397964478	2.508305072784424
34	99.24089002609253	fix_post	2		11.0	32.0	2.5	/experiments/knapen_aot/videos/R_S_ILSVRC2015_train_00574004.mp4	0.0	161.8735990524292	0.09171199798583984
34	99.32460808753967	response	2	2		32.0	2.5	/experiments/knapen_aot/videos/R_S_ILSVRC2015_train_00574004.mp4	0.0	161.95731711387634	
35	99.33260202407837	fix_pre	0		53.0	33.0	2.5	blank	1.0	161.96531105041504	0.4416069984436035
35	99.76604008674622	response	0	2		33.0	2.5	blank	1.0	162.39874911308289	
35	99.77420902252197	movie	1		301.0	33.0	2.5	blank	1.0	162.40691804885864	2.5084099769592285
35	102.2826189994812	fix_post	2		12.0	33.0	2.5	blank	1.0	164.91532802581787	0.09987998008728027
36	102.38249897956848	fix_pre	0		30.0	34.0	2.5	/experiments/knapen_aot/videos/R_S_comp_LA_A011_C003_DGRN_LNFIX_STAB_v57_SDR_PS_20181002_SDR_2K_AVC.mp4	0.0	165.01520800590515	0.25004005432128906
36	102.62435007095337	response	0	2		34.0	2.5	/experiments/knapen_aot/videos/R_S_comp_LA_A011_C003_DGRN_LNFIX_STAB_v57_SDR_PS_20181002_SDR_2K_AVC.mp4	0.0	165.25705909729004	
36	102.63253903388977	movie	1		172.0	34.0	2.5	/experiments/knapen_aot/videos/R_S_comp_LA_A011_C003_DGRN_LNFIX_STAB_v57_SDR_PS_20181002_SDR_2K_AVC.mp4	0.0	165.26524806022644	2.5084190368652344
36	105.140958070755	fix_post	2		12.0	34.0	2.5	/experiments/knapen_aot/videos/R_S_comp_LA_A011_C003_DGRN_LNFIX_STAB_v57_SDR_PS_20181002_SDR_2K_AVC.mp4	0.0	167.77366709709167	0.09983205795288086
37	105.24079012870789	fix_pre	0		1.0	35.0	2.5	/experiments/knapen_aot/videos/R_S_yt-s2PWkCdT-TM_258.mp4	0.0	167.87349915504456	0.008417844772338867
37	105.24255895614624	response	0	2		35.0	2.5	/experiments/knapen_aot/videos/R_S_yt-s2PWkCdT-TM_258.mp4	0.0	167.8752679824829	
37	105.24920797348022	movie	1		301.0	35.0	2.5	/experiments/knapen_aot/videos/R_S_yt-s2PWkCdT-TM_258.mp4	0.0	167.8819169998169	2.5083510875701904
37	107.75755906105042	fix_post	2		12.0	35.0	2.5	/experiments/knapen_aot/videos/R_S_yt-s2PWkCdT-TM_258.mp4	0.0	170.39026808738708	0.10000205039978027
38	107.8575611114502	fix_pre	0		72.0	36.0	2.5	/experiments/knapen_aot/videos/S_pexels-koolshooters-7327401.mp4	0.0	170.49027013778687	0.5999789237976074
38	108.4493579864502	response	0	2		36.0	2.5	/experiments/knapen_aot/videos/S_pexels-koolshooters-7327401.mp4	0.0	171.08206701278687	
38	108.4575400352478	movie	1		164.0	36.0	2.5	/experiments/knapen_aot/videos/S_pexels-koolshooters-7327401.mp4	0.0	171.09024906158447	2.508310079574585
38	110.96585011482239	fix_post	2		12.0	36.0	2.5	/experiments/knapen_aot/videos/S_pexels-koolshooters-7327401.mp4	0.0	173.59855914115906	0.10002493858337402
39	111.06587505340576	fix_pre	0		12.0	37.0	2.5	/experiments/knapen_aot/videos/S_yt-2IfvnrF3IV0_241.mp4	0.0	173.69858407974243	0.09992504119873047
39	111.15763401985168	response	0	2		37.0	2.5	/experiments/knapen_aot/videos/S_yt-2IfvnrF3IV0_241.mp4	0.0	173.79034304618835	
39	111.16580009460449	movie	1		301.0	37.0	2.5	/experiments/knapen_aot/videos/S_yt-2IfvnrF3IV0_241.mp4	0.0	173.79850912094116	2.5083248615264893
39	113.67412495613098	fix_post	2		12.0	37.0	2.5	/experiments/knapen_aot/videos/S_yt-2IfvnrF3IV0_241.mp4	0.0	176.30683398246765	0.1000211238861084
40	113.77414608001709	fix_pre	0		67.0	38.0	2.5	/experiments/knapen_aot/videos/S_yt-H5LQq4MPIao_660.mp4	0.0	176.40685510635376	0.5583109855651855
40	114.31668210029602	response	0	2		38.0	2.5	/experiments/knapen_aot/videos/S_yt-H5LQq4MPIao_660.mp4	0.0	176.9493911266327	
40	114.33245706558228	movie	1		301.0	38.0	2.5	/experiments/knapen_aot/videos/S_yt-H5LQq4MPIao_660.mp4	0.0	176.96516609191895	2.5084128379821777
40	116.84086990356445	fix_post	2		12.0	38.0	2.5	/experiments/knapen_aot/videos/S_yt-H5LQq4MPIao_660.mp4	0.0	179.47357892990112	0.09998202323913574
41	116.94085192680359	fix_pre	0		24.0	39.0	2.5	/experiments/knapen_aot/videos/S_yt-G65z8p1YNhw_16.mp4	0.0	179.57356095314026	0.1999831199645996
41	117.13269090652466	response	0	2		39.0	2.5	/experiments/knapen_aot/videos/S_yt-G65z8p1YNhw_16.mp4	0.0	179.76539993286133	
41	117.14083504676819	movie	1		301.0	39.0	2.5	/experiments/knapen_aot/videos/S_yt-G65z8p1YNhw_16.mp4	0.0	179.77354407310486	2.5083229541778564
41	119.64915800094604	fix_post	2		12.0	39.0	2.5	/experiments/knapen_aot/videos/S_yt-G65z8p1YNhw_16.mp4	0.0	182.28186702728271	0.09999895095825195
42	119.7491569519043	fix_pre	0		6.0	40.0	2.5	/experiments/knapen_aot/videos/R_S_yt-dO0OuozAgt0_225.mp4	0.0	182.38186597824097	0.05001711845397949
42	119.79092001914978	response	0	2		40.0	2.5	/experiments/knapen_aot/videos/R_S_yt-dO0OuozAgt0_225.mp4	0.0	182.42362904548645	
42	119.79917407035828	movie	1		301.0	40.0	2.5	/experiments/knapen_aot/videos/R_S_yt-dO0OuozAgt0_225.mp4	0.0	182.43188309669495	2.5083229541778564
42	122.30749702453613	fix_post	2		12.0	40.0	2.5	/experiments/knapen_aot/videos/R_S_yt-dO0OuozAgt0_225.mp4	0.0	184.9402060508728	0.09998798370361328
43	122.40748500823975	fix_pre	0		8.0	41.0	2.5	/experiments/knapen_aot/videos/S_yt-s73Xqkcq9Js_285.mp4	0.0	185.04019403457642	0.06665611267089844
43	122.46595501899719	response	0	2		41.0	2.5	/experiments/knapen_aot/videos/S_yt-s73Xqkcq9Js_285.mp4	0.0	185.09866404533386	
43	122.47414112091064	movie	1		301.0	41.0	2.5	/experiments/knapen_aot/videos/S_yt-s73Xqkcq9Js_285.mp4	0.0	185.10685014724731	2.5083508491516113
43	124.98249197006226	fix_post	2		12.0	41.0	2.5	/experiments/knapen_aot/videos/S_yt-s73Xqkcq9Js_285.mp4	0.0	187.61520099639893	0.10013008117675781
44	125.08262205123901	fix_pre	0		5.0	42.0	2.5	blank	1.0	187.71533107757568	0.04150104522705078
44	125.11596202850342	response	0	2		42.0	2.5	blank	1.0	187.7486710548401	
44	125.12412309646606	movie	1		301.0	42.0	2.5	blank	1.0	187.75683212280273	2.508335828781128
44	127.63245892524719	fix_post	2		12.0	42.0	2.5	blank	1.0	190.26516795158386	0.10000109672546387
45	127.73246002197266	fix_pre	0		59.0	43.0	2.5	/experiments/knapen_aot/videos/R_S_yt-fQGoTMausn8_88.mp4	0.0	190.36516904830933	0.4916229248046875
45	128.21600699424744	response	0	2		43.0	2.5	/experiments/knapen_aot/videos/R_S_yt-fQGoTMausn8_88.mp4	0.0	190.8487160205841	
45	128.22408294677734	movie	1		301.0	43.0	2.5	/experiments/knapen_aot/videos/R_S_yt-fQGoTMausn8_88.mp4	0.0	190.856791973114	2.5083420276641846
45	130.73242497444153	fix_post	2		12.0	43.0	2.5	/experiments/knapen_aot/videos/R_S_yt-fQGoTMausn8_88.mp4	0.0	193.3651340007782	0.09999799728393555
45	130.82420301437378	response	2	2		43.0	2.5	/experiments/knapen_aot/videos/R_S_yt-fQGoTMausn8_88.mp4	0.0	193.45691204071045	
46	130.83242297172546	fix_pre	0		46.0	44.0	2.5	/experiments/knapen_aot/videos/R_S_Pz_NXxhQCJc_70.mp4	0.0	193.46513199806213	0.3833279609680176
46	131.207505941391	response	0	2		44.0	2.5	/experiments/knapen_aot/videos/R_S_Pz_NXxhQCJc_70.mp4	0.0	193.84021496772766	
46	131.21575093269348	movie	1		301.0	44.0	2.5	/experiments/knapen_aot/videos/R_S_Pz_NXxhQCJc_70.mp4	0.0	193.84845995903015	2.5084640979766846
46	133.72421503067017	fix_post	2		12.0	44.0	2.5	/experiments/knapen_aot/videos/R_S_Pz_NXxhQCJc_70.mp4	0.0	196.35692405700684	0.0999290943145752
47	133.82414412498474	fix_pre	0		2.0	45.0	2.5	/experiments/knapen_aot/videos/R_S_yt-f9iXELY0EJ0_344.mp4	0.0	196.4568531513214	0.016609907150268555
47	133.82658910751343	response	0	2		45.0	2.5	/experiments/knapen_aot/videos/R_S_yt-f9iXELY0EJ0_344.mp4	0.0	196.4592981338501	
47	133.840754032135	movie	1		301.0	45.0	2.5	/experiments/knapen_aot/videos/R_S_yt-f9iXELY0EJ0_344.mp4	0.0	196.47346305847168	2.5083608627319336
47	136.34911489486694	fix_post	2		12.0	45.0	2.5	/experiments/knapen_aot/videos/R_S_yt-f9iXELY0EJ0_344.mp4	0.0	198.9818239212036	0.10004210472106934
48	136.449156999588	fix_pre	0		13.0	46.0	2.5	/experiments/knapen_aot/videos/S_yt-HQQws1Lp_rQ_10.mp4	0.0	199.08186602592468	0.10829997062683105
48	136.54170203208923	response	0	2		46.0	2.5	/experiments/knapen_aot/videos/S_yt-HQQws1Lp_rQ_10.mp4	0.0	199.1744110584259	
48	136.55745697021484	movie	1		301.0	46.0	2.5	/experiments/knapen_aot/videos/S_yt-HQQws1Lp_rQ_10.mp4	0.0	199.1901659965515	2.5083529949188232
48	139.06580996513367	fix_post	2		12.0	46.0	2.5	/experiments/knapen_aot/videos/S_yt-HQQws1Lp_rQ_10.mp4	0.0	201.69851899147034	0.09997010231018066
49	139.16578006744385	fix_pre	0		21.0	47.0	2.5	/experiments/knapen_aot/videos/S_yt-SkIJvj6KNOo_33.mp4	0.0	201.79848909378052	0.17625188827514648
49	139.33261013031006	response	0	2		47.0	2.5	/experiments/knapen_aot/videos/S_yt-SkIJvj6KNOo_33.mp4	0.0	201.96531915664673	
49	139.342031955719	movie	1		301.0	47.0	2.5	/experiments/knapen_aot/videos/S_yt-SkIJvj6KNOo_33.mp4	0.0	201.97474098205566	2.507082939147949
49	141.84911489486694	fix_post	2		12.0	47.0	2.5	/experiments/knapen_aot/videos/S_yt-SkIJvj6KNOo_33.mp4	0.0	204.4818239212036	0.10001802444458008
50	141.94913291931152	fix_pre	0		12.0	48.0	2.5	blank	1.0	204.5818419456482	0.09996318817138672
50	142.0408799648285	response	0	2		48.0	2.5	blank	1.0	204.67358899116516	
50	142.0490961074829	movie	1		301.0	48.0	2.5	blank	1.0	204.68180513381958	2.5083279609680176
50	144.55742406845093	fix_post	2		12.0	48.0	2.5	blank	1.0	207.1901330947876	0.09999895095825195
51	144.65742301940918	fix_pre	0		39.0	49.0	2.5	/experiments/knapen_aot/videos/S_yt-33PKaLVxDC4_2703.mp4	0.0	207.29013204574585	0.32497310638427734
51	144.9741930961609	response	0	2		49.0	2.5	/experiments/knapen_aot/videos/S_yt-33PKaLVxDC4_2703.mp4	0.0	207.60690212249756	
51	144.98239612579346	movie	1		301.0	49.0	2.5	/experiments/knapen_aot/videos/S_yt-33PKaLVxDC4_2703.mp4	0.0	207.61510515213013	2.50832200050354
51	147.490718126297	fix_post	2		12.0	49.0	2.5	/experiments/knapen_aot/videos/S_yt-33PKaLVxDC4_2703.mp4	0.0	210.12342715263367	0.09999680519104004
52	147.59071493148804	fix_pre	0		5.0	50.0	2.5	/experiments/knapen_aot/videos/S_yt-H5LQq4MPIao_660.mp4	0.0	210.2234239578247	0.04291510581970215
52	147.62440395355225	response	0	2		50.0	2.5	/experiments/knapen_aot/videos/S_yt-H5LQq4MPIao_660.mp4	0.0	210.25711297988892	
52	147.63363003730774	movie	1		301.0	50.0	2.5	/experiments/knapen_aot/videos/S_yt-H5LQq4MPIao_660.mp4	0.0	210.2663390636444	2.50705885887146
52	150.1406888961792	fix_post	2		12.0	50.0	2.5	/experiments/knapen_aot/videos/S_yt-H5LQq4MPIao_660.mp4	0.0	212.77339792251587	0.10003209114074707
53	150.24072098731995	fix_pre	0		16.0	51.0	2.5	/experiments/knapen_aot/videos/S_production_ID_4510622.mp4	0.0	212.87343001365662	0.13327407836914062
53	150.36585211753845	response	0	2		51.0	2.5	/experiments/knapen_aot/videos/S_production_ID_4510622.mp4	0.0	212.99856114387512	
53	150.3739950656891	movie	1		167.0	51.0	2.5	/experiments/knapen_aot/videos/S_production_ID_4510622.mp4	0.0	213.00670409202576	2.5083940029144287
53	152.88238906860352	fix_post	2		12.0	51.0	2.5	/experiments/knapen_aot/videos/S_production_ID_4510622.mp4	0.0	215.51509809494019	0.09998583793640137
54	152.98237490653992	fix_pre	0		21.0	52.0	2.5	/experiments/knapen_aot/videos/S_ILSVRC2015_train_00379000.mp4	0.0	215.6150839328766	0.17499208450317383
54	153.14916396141052	response	0	2		52.0	2.5	/experiments/knapen_aot/videos/S_ILSVRC2015_train_00379000.mp4	0.0	215.7818729877472	
54	153.1573669910431	movie	1		301.0	52.0	2.5	/experiments/knapen_aot/videos/S_ILSVRC2015_train_00379000.mp4	0.0	215.79007601737976	2.5084710121154785
54	155.66583800315857	fix_post	2		12.0	52.0	2.5	/experiments/knapen_aot/videos/S_ILSVRC2015_train_00379000.mp4	0.0	218.29854702949524	0.09990906715393066
55	155.7657470703125	fix_pre	0		14.0	53.0	2.5	/experiments/knapen_aot/videos/R_S_yt-bmGWhOCsvJo_128.mp4	0.0	218.39845609664917	0.11780905723571777
55	155.87417197227478	response	0	2		53.0	2.5	/experiments/knapen_aot/videos/R_S_yt-bmGWhOCsvJo_128.mp4	0.0	218.50688099861145	
55	155.88355612754822	movie	1		301.0	53.0	2.5	/experiments/knapen_aot/videos/R_S_yt-bmGWhOCsvJo_128.mp4	0.0	218.5162651538849	2.5071778297424316
55	158.39073395729065	fix_post	2		12.0	53.0	2.5	/experiments/knapen_aot/videos/R_S_yt-bmGWhOCsvJo_128.mp4	0.0	221.02344298362732	0.09990906715393066
56	158.49064302444458	fix_pre	0		13.0	54.0	2.5	blank	1.0	221.12335205078125	0.10831594467163086
56	158.5907599925995	response	0	2		54.0	2.5	blank	1.0	221.22346901893616	
56	158.5989589691162	movie	1		301.0	54.0	2.5	blank	1.0	221.23166799545288	2.5083301067352295
56	161.10728907585144	fix_post	2		12.0	54.0	2.5	blank	1.0	223.7399981021881	0.1000678539276123
57	161.20735692977905	fix_pre	0		122.0	55.0	2.5	/experiments/knapen_aot/videos/S_yt-LQrnLKP5tiQ_48.mp4	0.0	223.84006595611572	1.0166170597076416
57	162.21581602096558	response	0	2		55.0	2.5	/experiments/knapen_aot/videos/S_yt-LQrnLKP5tiQ_48.mp4	0.0	224.84852504730225	
57	162.2239739894867	movie	1		301.0	55.0	2.5	/experiments/knapen_aot/videos/S_yt-LQrnLKP5tiQ_48.mp4	0.0	224.85668301582336	2.508336067199707
57	164.7323100566864	fix_post	2		12.0	55.0	2.5	/experiments/knapen_aot/videos/S_yt-LQrnLKP5tiQ_48.mp4	0.0	227.36501908302307	0.0999598503112793
58	164.83226990699768	fix_pre	0		39.0	56.0	2.5	/experiments/knapen_aot/videos/S_yt-SS7pSyb0_d0_32.mp4	0.0	227.46497893333435	0.3250432014465332
58	165.14907097816467	response	0	2		56.0	2.5	/experiments/knapen_aot/videos/S_yt-SS7pSyb0_d0_32.mp4	0.0	227.78178000450134	
58	165.1573131084442	movie	1		300.0	56.0	2.5	/experiments/knapen_aot/videos/S_yt-SS7pSyb0_d0_32.mp4	0.0	227.79002213478088	2.5083680152893066
58	167.66568112373352	fix_post	2		12.0	56.0	2.5	/experiments/knapen_aot/videos/S_yt-SS7pSyb0_d0_32.mp4	0.0	230.2983901500702	0.09995889663696289
59	167.76564002037048	fix_pre	0		15.0	57.0	2.5	/experiments/knapen_aot/videos/S_yt-xQilXyNKsBw_42.mp4	0.0	230.39834904670715	0.12494993209838867
59	167.88240790367126	response	0	2		57.0	2.5	/experiments/knapen_aot/videos/S_yt-xQilXyNKsBw_42.mp4	0.0	230.51511693000793	
59	167.89058995246887	movie	1		301.0	57.0	2.5	/experiments/knapen_aot/videos/S_yt-xQilXyNKsBw_42.mp4	0.0	230.52329897880554	2.508418083190918
59	170.3990080356598	fix_post	2		12.0	57.0	2.5	/experiments/knapen_aot/videos/S_yt-xQilXyNKsBw_42.mp4	0.0	233.03171706199646	0.09996390342712402
60	170.4989719390869	fix_pre	0		12.0	58.0	2.5	/experiments/knapen_aot/videos/R_S_S003_C020_SDR_2K_AVC.mp4	0.0	233.13168096542358	0.09997010231018066
60	170.59073400497437	response	0	2		58.0	2.5	/experiments/knapen_aot/videos/R_S_S003_C020_SDR_2K_AVC.mp4	0.0	233.22344303131104	
60	170.5989420413971	movie	1		188.0	58.0	2.5	/experiments/knapen_aot/videos/R_S_S003_C020_SDR_2K_AVC.mp4	0.0	233.23165106773376	2.5083248615264893
60	173.10726690292358	fix_post	2		12.0	58.0	2.5	/experiments/knapen_aot/videos/R_S_S003_C020_SDR_2K_AVC.mp4	0.0	235.73997592926025	0.09992718696594238
61	173.20719408988953	fix_pre	0		19.0	59.0	2.5	/experiments/knapen_aot/videos/S_yt-fQGoTMausn8_88.mp4	0.0	235.8399031162262	0.15854692459106445
61	173.3573660850525	response	0	2		59.0	2.5	/experiments/knapen_aot/videos/S_yt-fQGoTMausn8_88.mp4	0.0	235.99007511138916	
61	173.3657410144806	movie	1		299.0	59.0	2.5	/experiments/knapen_aot/videos/S_yt-fQGoTMausn8_88.mp4	0.0	235.99845004081726	2.508188009262085
61	175.87392902374268	fix_post	2		12.0	59.0	2.5	/experiments/knapen_aot/videos/S_yt-fQGoTMausn8_88.mp4	0.0	238.50663805007935	0.09995603561401367
62	175.9738850593567	fix_pre	0		25.0	60.0	2.5	/experiments/knapen_aot/videos/S_ILSVRC2015_train_00756000.mp4	0.0	238.60659408569336	0.20836997032165527
62	176.1739490032196	response	0	2		60.0	2.5	/experiments/knapen_aot/videos/S_ILSVRC2015_train_00756000.mp4	0.0	238.80665802955627	
62	176.18225502967834	movie	1		301.0	60.0	2.5	/experiments/knapen_aot/videos/S_ILSVRC2015_train_00756000.mp4	0.0	238.81496405601501	2.5083060264587402
62	178.69056105613708	fix_post	2		12.0	60.0	2.5	/experiments/knapen_aot/videos/S_ILSVRC2015_train_00756000.mp4	0.0	241.32327008247375	0.10003900527954102
63	178.79060006141663	fix_pre	0		17.0	61.0	2.5	/experiments/knapen_aot/videos/R_S_yt-GI8BEHw2Lq8_3.mp4	0.0	241.4233090877533	0.14162206649780273
63	178.9241499900818	response	0	2		61.0	2.5	/experiments/knapen_aot/videos/R_S_yt-GI8BEHw2Lq8_3.mp4	0.0	241.55685901641846	
63	178.93222212791443	movie	1		301.0	61.0	2.5	/experiments/knapen_aot/videos/R_S_yt-GI8BEHw2Lq8_3.mp4	0.0	241.5649311542511	2.5082998275756836
63	181.4405219554901	fix_post	2		12.0	61.0	2.5	/experiments/knapen_aot/videos/R_S_yt-GI8BEHw2Lq8_3.mp4	0.0	244.07323098182678	0.09994912147521973
64	181.54047107696533	fix_pre	0		41.0	62.0	2.5	blank	1.0	244.173180103302	0.3417668342590332
64	181.8739960193634	response	0	2		62.0	2.5	blank	1.0	244.50670504570007	
64	181.88223791122437	movie	1		301.0	62.0	2.5	blank	1.0	244.51494693756104	2.508301019668579
64	184.39053893089294	fix_post	2		12.0	62.0	2.5	blank	1.0	247.02324795722961	0.09998798370361328
65	184.49052691459656	fix_pre	0		48.0	63.0	2.5	/experiments/knapen_aot/videos/S_yt-qBPDvSQD0XY_5.mp4	0.0	247.12323594093323	0.39998507499694824
65	184.88238501548767	response	0	2		63.0	2.5	/experiments/knapen_aot/videos/S_yt-qBPDvSQD0XY_5.mp4	0.0	247.51509404182434	
65	184.8905119895935	movie	1		301.0	63.0	2.5	/experiments/knapen_aot/videos/S_yt-qBPDvSQD0XY_5.mp4	0.0	247.52322101593018	2.5083019733428955
65	187.3988139629364	fix_post	2		12.0	63.0	2.5	/experiments/knapen_aot/videos/S_yt-qBPDvSQD0XY_5.mp4	0.0	250.03152298927307	0.10006594657897949
66	187.49887990951538	fix_pre	0		23.0	64.0	2.5	/experiments/knapen_aot/videos/R_S_xTlFOCRvy68_1564.mp4	0.0	250.13158893585205	0.19165515899658203
66	187.6823980808258	response	0	2		64.0	2.5	/experiments/knapen_aot/videos/R_S_xTlFOCRvy68_1564.mp4	0.0	250.31510710716248	
66	187.69053506851196	movie	1		301.0	64.0	2.5	/experiments/knapen_aot/videos/R_S_xTlFOCRvy68_1564.mp4	0.0	250.32324409484863	2.508333921432495
66	190.19886898994446	fix_post	2		12.0	64.0	2.5	/experiments/knapen_aot/videos/R_S_xTlFOCRvy68_1564.mp4	0.0	252.83157801628113	0.10002803802490234
67	190.29889702796936	fix_pre	0		1.0	65.0	2.5	/experiments/knapen_aot/videos/S_yt-I9uf7kAccFA_229.mp4	0.0	252.93160605430603	0.008291959762573242
67	190.3004961013794	response	0	2		65.0	2.5	/experiments/knapen_aot/videos/S_yt-I9uf7kAccFA_229.mp4	0.0	252.93320512771606	
67	190.30718898773193	movie	1		301.0	65.0	2.5	/experiments/knapen_aot/videos/S_yt-I9uf7kAccFA_229.mp4	0.0	252.9398980140686	2.5083351135253906
67	192.81552410125732	fix_post	2		12.0	65.0	2.5	/experiments/knapen_aot/videos/S_yt-I9uf7kAccFA_229.mp4	0.0	255.448233127594	0.0999298095703125
68	192.91545391082764	fix_pre	0		31.0	66.0	2.5	/experiments/knapen_aot/videos/S_yt-Gam0NeyyG8w_22.mp4	0.0	255.5481629371643	0.2593522071838379
68	193.16567707061768	response	0	2		66.0	2.5	/experiments/knapen_aot/videos/S_yt-Gam0NeyyG8w_22.mp4	0.0	255.79838609695435	
68	193.17480611801147	movie	1		301.0	66.0	2.5	/experiments/knapen_aot/videos/S_yt-Gam0NeyyG8w_22.mp4	0.0	255.80751514434814	2.507272958755493
68	195.68207907676697	fix_post	2		12.0	66.0	2.5	/experiments/knapen_aot/videos/S_yt-Gam0NeyyG8w_22.mp4	0.0	258.31478810310364	0.10010290145874023
69	195.7821819782257	fix_pre	0		35.0	67.0	2.5	/experiments/knapen_aot/videos/R_S_yt-XA6RBioito4_18.mp4	0.0	258.4148910045624	0.2916591167449951
69	196.05818390846252	response	0	2		67.0	2.5	/experiments/knapen_aot/videos/R_S_yt-XA6RBioito4_18.mp4	0.0	258.6908929347992	
69	196.0738410949707	movie	1		301.0	67.0	2.5	/experiments/knapen_aot/videos/R_S_yt-XA6RBioito4_18.mp4	0.0	258.7065501213074	2.508286952972412
69	198.58212804794312	fix_post	2		12.0	67.0	2.5	/experiments/knapen_aot/videos/R_S_yt-XA6RBioito4_18.mp4	0.0	261.2148370742798	0.10000205039978027
70	198.6821300983429	fix_pre	0		39.0	68.0	2.5	/experiments/knapen_aot/videos/R_S_ILSVRC2015_train_00479004.mp4	0.0	261.31483912467957	0.3260838985443115
70	198.99887895584106	response	0	2		68.0	2.5	/experiments/knapen_aot/videos/R_S_ILSVRC2015_train_00479004.mp4	0.0	261.63158798217773	
70	199.0082139968872	movie	1		301.0	68.0	2.5	/experiments/knapen_aot/videos/R_S_ILSVRC2015_train_00479004.mp4	0.0	261.6409230232239	2.5072920322418213
70	201.51550602912903	fix_post	2		12.0	68.0	2.5	/experiments/knapen_aot/videos/R_S_ILSVRC2015_train_00479004.mp4	0.0	264.1482150554657	0.0999760627746582
71	201.6154820919037	fix_pre	0		12.0	69.0	2.5	/experiments/knapen_aot/videos/R_S_bing-www_break_com_video_like-a-cat-catching-a-fly-3131008_12.mp4	0.0	264.24819111824036	0.10094189643859863
71	201.70726108551025	response	0	2		69.0	2.5	/experiments/knapen_aot/videos/R_S_bing-www_break_com_video_like-a-cat-catching-a-fly-3131008_12.mp4	0.0	264.3399701118469	
71	201.71642398834229	movie	1		301.0	69.0	2.5	/experiments/knapen_aot/videos/R_S_bing-www_break_com_video_like-a-cat-catching-a-fly-3131008_12.mp4	0.0	264.34913301467896	2.5073609352111816
71	204.22378492355347	fix_post	2		12.0	69.0	2.5	/experiments/knapen_aot/videos/R_S_bing-www_break_com_video_like-a-cat-catching-a-fly-3131008_12.mp4	0.0	266.85649394989014	0.10010313987731934
72	204.3238880634308	fix_pre	0		41.0	70.0	2.5	blank	1.0	266.95659708976746	0.3415720462799072
72	204.6572790145874	response	0	2		70.0	2.5	blank	1.0	267.2899880409241	
72	204.6654601097107	movie	1		301.0	70.0	2.5	blank	1.0	267.29816913604736	2.5083608627319336
72	207.17382097244263	fix_post	2		12.0	70.0	2.5	blank	1.0	269.8065299987793	0.09993815422058105
73	207.2737591266632	fix_pre	0		232.0	71.0	2.5	/experiments/knapen_aot/videos/S_yt-qBPDvSQD0XY_5.mp4	0.0	269.9064681529999	1.9333808422088623
73	209.19901490211487	response	0	2		71.0	2.5	/experiments/knapen_aot/videos/S_yt-qBPDvSQD0XY_5.mp4	0.0	271.83172392845154	
73	209.20713996887207	movie	1		301.0	71.0	2.5	/experiments/knapen_aot/videos/S_yt-qBPDvSQD0XY_5.mp4	0.0	271.83984899520874	2.5083160400390625
73	211.71545600891113	fix_post	2		12.0	71.0	2.5	/experiments/knapen_aot/videos/S_yt-qBPDvSQD0XY_5.mp4	0.0	274.3481650352478	0.10000896453857422
74	211.8154649734497	fix_pre	0		12.0	72.0	2.5	/experiments/knapen_aot/videos/S_ILSVRC2015_train_00479000.mp4	0.0	274.4481739997864	0.09987592697143555
74	211.90725708007812	response	0	2		72.0	2.5	/experiments/knapen_aot/videos/S_ILSVRC2015_train_00479000.mp4	0.0	274.5399661064148	
74	211.91534090042114	movie	1		301.0	72.0	2.5	/experiments/knapen_aot/videos/S_ILSVRC2015_train_00479000.mp4	0.0	274.5480499267578	2.5083160400390625
74	214.4236569404602	fix_post	2		12.0	72.0	2.5	/experiments/knapen_aot/videos/S_ILSVRC2015_train_00479000.mp4	0.0	277.0563659667969	0.10012602806091309
75	214.52378296852112	fix_pre	0		28.0	73.0	2.5	/experiments/knapen_aot/videos/S_yt-hvuC_2YXsTQ_159.mp4	0.0	277.1564919948578	0.2341611385345459
75	214.74892401695251	response	0	2		73.0	2.5	/experiments/knapen_aot/videos/S_yt-hvuC_2YXsTQ_159.mp4	0.0	277.3816330432892	
75	214.75794410705566	movie	1		301.0	73.0	2.5	/experiments/knapen_aot/videos/S_yt-hvuC_2YXsTQ_159.mp4	0.0	277.39065313339233	2.5075159072875977
75	217.26546001434326	fix_post	2		12.0	73.0	2.5	/experiments/knapen_aot/videos/S_yt-hvuC_2YXsTQ_159.mp4	0.0	279.89816904067993	0.10003805160522461
76	217.3654980659485	fix_pre	0		10.0	74.0	2.5	/experiments/knapen_aot/videos/R_S_yt-2IfvnrF3IV0_241.mp4	0.0	279.99820709228516	0.08324885368347168
76	217.44054508209229	response	0	2		74.0	2.5	/experiments/knapen_aot/videos/R_S_yt-2IfvnrF3IV0_241.mp4	0.0	280.07325410842896	
76	217.44874691963196	movie	1		301.0	74.0	2.5	/experiments/knapen_aot/videos/R_S_yt-2IfvnrF3IV0_241.mp4	0.0	280.0814559459686	2.5082781314849854
76	219.95702505111694	fix_post	2		12.0	74.0	2.5	/experiments/knapen_aot/videos/R_S_yt-2IfvnrF3IV0_241.mp4	0.0	282.5897340774536	0.1000518798828125
77	220.05707693099976	fix_pre	0		17.0	75.0	2.5	/experiments/knapen_aot/videos/R_S_yt-B7ZRYVhfW2U_52.mp4	0.0	282.6897859573364	0.14165115356445312
77	220.19049501419067	response	0	2		75.0	2.5	/experiments/knapen_aot/videos/R_S_yt-B7ZRYVhfW2U_52.mp4	0.0	282.82320404052734	
77	220.1987280845642	movie	1		299.0	75.0	2.5	/experiments/knapen_aot/videos/R_S_yt-B7ZRYVhfW2U_52.mp4	0.0	282.8314371109009	2.508368968963623
77	222.70709705352783	fix_post	2		12.0	75.0	2.5	/experiments/knapen_aot/videos/R_S_yt-B7ZRYVhfW2U_52.mp4	0.0	285.3398060798645	0.09996604919433594
78	222.80706310272217	fix_pre	0		20.0	76.0	2.5	blank	1.0	285.43977212905884	0.16660690307617188
78	222.96554899215698	response	0	2		76.0	2.5	blank	1.0	285.59825801849365	
78	222.97367000579834	movie	1		301.0	76.0	2.5	blank	1.0	285.606379032135	2.508418083190918
78	225.48208808898926	fix_post	2		12.0	76.0	2.5	blank	1.0	288.1147971153259	0.09995889663696289
79	225.58204698562622	fix_pre	0		25.0	77.0	2.5	/experiments/knapen_aot/videos/S_ILSVRC2015_train_00415005.mp4	0.0	288.2147560119629	0.2083430290222168
79	225.7821650505066	response	0	2		77.0	2.5	/experiments/knapen_aot/videos/S_ILSVRC2015_train_00415005.mp4	0.0	288.41487407684326	
79	225.79039001464844	movie	1		301.0	77.0	2.5	/experiments/knapen_aot/videos/S_ILSVRC2015_train_00415005.mp4	0.0	288.4230990409851	2.5083110332489014
79	228.29870104789734	fix_post	2		12.0	77.0	2.5	/experiments/knapen_aot/videos/S_ILSVRC2015_train_00415005.mp4	0.0	290.931410074234	0.09997391700744629
80	228.39867496490479	fix_pre	0		6.0	78.0	2.5	/experiments/knapen_aot/videos/R_S_yt-l_pvPAznG1A_20.mp4	0.0	291.03138399124146	0.050024986267089844
80	228.44056701660156	response	0	2		78.0	2.5	/experiments/knapen_aot/videos/R_S_yt-l_pvPAznG1A_20.mp4	0.0	291.07327604293823	
80	228.44869995117188	movie	1		297.0	78.0	2.5	/experiments/knapen_aot/videos/R_S_yt-l_pvPAznG1A_20.mp4	0.0	291.08140897750854	2.5082790851593018
80	230.95697903633118	fix_post	2		12.0	78.0	2.5	/experiments/knapen_aot/videos/R_S_yt-l_pvPAznG1A_20.mp4	0.0	293.58968806266785	0.09994792938232422
81	231.0569269657135	fix_pre	0		5.0	79.0	2.5	/experiments/knapen_aot/videos/R_S_yt-UBqUhu-GEVg_6.mp4	0.0	293.68963599205017	0.041780948638916016
81	231.09046411514282	response	0	2		79.0	2.5	/experiments/knapen_aot/videos/R_S_yt-UBqUhu-GEVg_6.mp4	0.0	293.7231731414795	
81	231.09870791435242	movie	1		301.0	79.0	2.5	/experiments/knapen_aot/videos/R_S_yt-UBqUhu-GEVg_6.mp4	0.0	293.7314169406891	2.508301019668579
81	233.607008934021	fix_post	2		12.0	79.0	2.5	/experiments/knapen_aot/videos/R_S_yt-UBqUhu-GEVg_6.mp4	0.0	296.23971796035767	0.0999910831451416
81	233.6988399028778	response	2	2		79.0	2.5	/experiments/knapen_aot/videos/R_S_yt-UBqUhu-GEVg_6.mp4	0.0	296.3315489292145	
82	233.70700001716614	fix_pre	0		41.0	80.0	2.5	/experiments/knapen_aot/videos/R_S_yt-QD74nNliDvI_10.mp4	0.0	296.3397090435028	0.34243297576904297
82	234.0404670238495	response	0	2		80.0	2.5	/experiments/knapen_aot/videos/R_S_yt-QD74nNliDvI_10.mp4	0.0	296.67317605018616	
82	234.04943299293518	movie	1		298.0	80.0	2.5	/experiments/knapen_aot/videos/R_S_yt-QD74nNliDvI_10.mp4	0.0	296.68214201927185	2.507550001144409
82	236.5569829940796	fix_post	2		12.0	80.0	2.5	/experiments/knapen_aot/videos/R_S_yt-QD74nNliDvI_10.mp4	0.0	299.18969202041626	0.09993505477905273
83	236.65691804885864	fix_pre	0		4.0	81.0	2.5	/experiments/knapen_aot/videos/S_pexels-marcus-aurelius-6785014.mp4	0.0	299.2896270751953	0.033493995666503906
83	236.68215894699097	response	0	2		81.0	2.5	/experiments/knapen_aot/videos/S_pexels-marcus-aurelius-6785014.mp4	0.0	299.31486797332764	
83	236.69041204452515	movie	1		173.0	81.0	2.5	/experiments/knapen_aot/videos/S_pexels-marcus-aurelius-6785014.mp4	0.0	299.3231210708618	2.508246898651123
83	239.19865894317627	fix_post	2		12.0	81.0	2.5	/experiments/knapen_aot/videos/S_pexels-marcus-aurelius-6785014.mp4	0.0	301.83136796951294	0.09996795654296875
84	239.29862689971924	fix_pre	0		19.0	82.0	2.5	/experiments/knapen_aot/videos/S_yt-_BvMLZo0MG0_1226.mp4	0.0	301.9313359260559	0.15832114219665527
84	239.44883489608765	response	0	2		82.0	2.5	/experiments/knapen_aot/videos/S_yt-_BvMLZo0MG0_1226.mp4	0.0	302.0815439224243	
84	239.4569480419159	movie	1		301.0	82.0	2.5	/experiments/knapen_aot/videos/S_yt-_BvMLZo0MG0_1226.mp4	0.0	302.08965706825256	2.5083260536193848
84	239.5605969429016	response	1	2		82.0	2.5	/experiments/knapen_aot/videos/S_yt-_BvMLZo0MG0_1226.mp4	0.0	302.1933059692383	
84	241.96527409553528	fix_post	2		12.0	82.0	2.5	/experiments/knapen_aot/videos/S_yt-_BvMLZo0MG0_1226.mp4	0.0	304.59798312187195	0.09996294975280762
85	242.0652370452881	fix_pre	0		52.0	83.0	2.5	blank	1.0	304.69794607162476	0.4333958625793457
85	242.490473985672	response	0	2		83.0	2.5	blank	1.0	305.12318301200867	
85	242.49863290786743	movie	1		301.0	83.0	2.5	blank	1.0	305.1313419342041	2.5082991123199463
85	245.00693202018738	fix_post	2		12.0	83.0	2.5	blank	1.0	307.63964104652405	0.1000220775604248
87	245.1069540977478	stim	0		175.0					307.7396631240845	1.4632480144500732
87	246.56155109405518	response	0	space						309.19426012039185	
