trial_nr	onset	event_type	phase	response	nr_frames	movie_index	movie_duration	movie_file	blank	onset_abs	duration
0	0.12493491172790527	stim	0		76.0					64.08141779899597	0.6319789886474609
0	0.7488138675689697	response	0	space						64.70529675483704	
1	0.7569139003753662	stim	0		121.0					64.71339678764343	1.0081830024719238
1	1.76509690284729	stim	1		120.0					65.72157979011536	0.9998641014099121
2	2.764961004257202	fix_pre	0		73.0	0.0	2.5	/experiments/knapen_aot/videos/S_yt-cvwUZbYSd4Q_35.mp4	0.0	66.72144389152527	0.6096820831298828
2	3.3650810718536377	response	0	space		0.0	2.5	/experiments/knapen_aot/videos/S_yt-cvwUZbYSd4Q_35.mp4	0.0	67.3215639591217	
2	3.374643087387085	movie	1		300.0	0.0	2.5	/experiments/knapen_aot/videos/S_yt-cvwUZbYSd4Q_35.mp4	0.0	67.33112597465515	2.5070137977600098
2	5.881656885147095	fix_post	2		12.0	0.0	2.5	/experiments/knapen_aot/videos/S_yt-cvwUZbYSd4Q_35.mp4	0.0	69.83813977241516	0.09997916221618652
3	5.981636047363281	fix_pre	0		27.0	1.0	2.5	/experiments/knapen_aot/videos/R_S_yt-I2n2eo2zoZs_94.mp4	0.0	69.93811893463135	0.2263338565826416
3	6.1995930671691895	response	0	4		1.0	2.5	/experiments/knapen_aot/videos/R_S_yt-I2n2eo2zoZs_94.mp4	0.0	70.15607595443726	
3	6.207969903945923	movie	1		301.0	1.0	2.5	/experiments/knapen_aot/videos/R_S_yt-I2n2eo2zoZs_94.mp4	0.0	70.16445279121399	2.507089138031006
3	8.715059041976929	fix_post	2		12.0	1.0	2.5	/experiments/knapen_aot/videos/R_S_yt-I2n2eo2zoZs_94.mp4	0.0	72.671541929245	0.09994387626647949
4	8.815002918243408	fix_pre	0		15.0	2.0	2.5	/experiments/knapen_aot/videos/S_MEX_A006_C008_SDR_20190923_SDR_2K_AVC.mp4	0.0	72.77148580551147	0.12490200996398926
4	8.931787014007568	response	0	2		2.0	2.5	/experiments/knapen_aot/videos/S_MEX_A006_C008_SDR_20190923_SDR_2K_AVC.mp4	0.0	72.88826990127563	
4	8.939904928207397	movie	1		180.0	2.0	2.5	/experiments/knapen_aot/videos/S_MEX_A006_C008_SDR_20190923_SDR_2K_AVC.mp4	0.0	72.89638781547546	2.508465051651001
4	11.448369979858398	fix_post	2		12.0	2.0	2.5	/experiments/knapen_aot/videos/S_MEX_A006_C008_SDR_20190923_SDR_2K_AVC.mp4	0.0	75.40485286712646	0.0999290943145752
5	11.548299074172974	fix_pre	0		36.0	3.0	2.5	/experiments/knapen_aot/videos/S_yt-0d5TkclKWVA_146.mp4	0.0	75.50478196144104	0.2999269962310791
5	11.832481861114502	response	0	2		3.0	2.5	/experiments/knapen_aot/videos/S_yt-0d5TkclKWVA_146.mp4	0.0	75.78896474838257	
5	11.848226070404053	movie	1		301.0	3.0	2.5	/experiments/knapen_aot/videos/S_yt-0d5TkclKWVA_146.mp4	0.0	75.80470895767212	2.5084168910980225
5	14.356642961502075	fix_post	2		12.0	3.0	2.5	/experiments/knapen_aot/videos/S_yt-0d5TkclKWVA_146.mp4	0.0	78.31312584877014	0.10012292861938477
6	14.45676589012146	fix_pre	0		42.0	4.0	2.5	/experiments/knapen_aot/videos/R_S_yt-gaCbT4RR9Tw_191.mp4	0.0	78.41324877738953	0.3497769832611084
6	14.798395872116089	response	0	2		4.0	2.5	/experiments/knapen_aot/videos/R_S_yt-gaCbT4RR9Tw_191.mp4	0.0	78.75487875938416	
6	14.806542873382568	movie	1		301.0	4.0	2.5	/experiments/knapen_aot/videos/R_S_yt-gaCbT4RR9Tw_191.mp4	0.0	78.76302576065063	2.508362054824829
6	17.314904928207397	fix_post	2		12.0	4.0	2.5	/experiments/knapen_aot/videos/R_S_yt-gaCbT4RR9Tw_191.mp4	0.0	81.27138781547546	0.10001993179321289
7	17.41492486000061	fix_pre	0		31.0	5.0	2.5	blank	1.0	81.37140774726868	0.2583200931549072
7	17.665065050125122	response	0	2		5.0	2.5	blank	1.0	81.62154793739319	
7	17.673244953155518	movie	1		301.0	5.0	2.5	blank	1.0	81.62972784042358	2.508254051208496
7	20.181499004364014	fix_post	2		12.0	5.0	2.5	blank	1.0	84.13798189163208	0.10004687309265137
8	20.281545877456665	fix_pre	0		28.0	6.0	2.5	/experiments/knapen_aot/videos/S_yt-TvU-aYjNa2c_21.mp4	0.0	84.23802876472473	0.2333211898803711
8	20.506649017333984	response	0	2		6.0	2.5	/experiments/knapen_aot/videos/S_yt-TvU-aYjNa2c_21.mp4	0.0	84.46313190460205	
8	20.514867067337036	movie	1		301.0	6.0	2.5	/experiments/knapen_aot/videos/S_yt-TvU-aYjNa2c_21.mp4	0.0	84.4713499546051	2.508319854736328
8	23.023186922073364	fix_post	2		12.0	6.0	2.5	/experiments/knapen_aot/videos/S_yt-TvU-aYjNa2c_21.mp4	0.0	86.97966980934143	0.1000051498413086
9	23.123192071914673	fix_pre	0		49.0	7.0	2.5	/experiments/knapen_aot/videos/S_yt-074ygGXNoQ8_64.mp4	0.0	87.07967495918274	0.4083139896392822
9	23.52332091331482	response	0	2		7.0	2.5	/experiments/knapen_aot/videos/S_yt-074ygGXNoQ8_64.mp4	0.0	87.47980380058289	
9	23.531506061553955	movie	1		301.0	7.0	2.5	/experiments/knapen_aot/videos/S_yt-074ygGXNoQ8_64.mp4	0.0	87.48798894882202	2.5084478855133057
9	26.03995394706726	fix_post	2		12.0	7.0	2.5	/experiments/knapen_aot/videos/S_yt-074ygGXNoQ8_64.mp4	0.0	89.99643683433533	0.09998893737792969
10	26.13994288444519	fix_pre	0		15.0	8.0	2.5	/experiments/knapen_aot/videos/R_S_yt-XbigWWtnGL4_75.mp4	0.0	90.09642577171326	0.12484598159790039
10	26.25662088394165	response	0	2		8.0	2.5	/experiments/knapen_aot/videos/R_S_yt-XbigWWtnGL4_75.mp4	0.0	90.21310377120972	
10	26.26478886604309	movie	1		301.0	8.0	2.5	/experiments/knapen_aot/videos/R_S_yt-XbigWWtnGL4_75.mp4	0.0	90.22127175331116	2.508409023284912
10	28.773197889328003	fix_post	2		12.0	8.0	2.5	/experiments/knapen_aot/videos/R_S_yt-XbigWWtnGL4_75.mp4	0.0	92.72968077659607	0.10000300407409668
11	28.8732008934021	fix_pre	0		26.0	9.0	2.5	/experiments/knapen_aot/videos/S_yt-7WYXuBHeorw_188.mp4	0.0	92.82968378067017	0.21655511856079102
11	29.0815908908844	response	0	2		9.0	2.5	/experiments/knapen_aot/videos/S_yt-7WYXuBHeorw_188.mp4	0.0	93.03807377815247	
11	29.08975601196289	movie	1		301.0	9.0	2.5	/experiments/knapen_aot/videos/S_yt-7WYXuBHeorw_188.mp4	0.0	93.04623889923096	2.508586883544922
11	31.598342895507812	fix_post	2		12.0	9.0	2.5	/experiments/knapen_aot/videos/S_yt-7WYXuBHeorw_188.mp4	0.0	95.55482578277588	0.09985899925231934
12	31.698201894760132	fix_pre	0		6.0	10.0	2.5	/experiments/knapen_aot/videos/R_S_production_ID_4325509.mp4	0.0	95.6546847820282	0.05118417739868164
12	31.739940881729126	response	0	2		10.0	2.5	/experiments/knapen_aot/videos/R_S_production_ID_4325509.mp4	0.0	95.69642376899719	
12	31.749386072158813	movie	1		197.0	10.0	2.5	/experiments/knapen_aot/videos/R_S_production_ID_4325509.mp4	0.0	95.70586895942688	2.5070698261260986
12	34.25645589828491	fix_post	2		12.0	10.0	2.5	/experiments/knapen_aot/videos/R_S_production_ID_4325509.mp4	0.0	98.21293878555298	0.10003018379211426
13	34.356486082077026	fix_pre	0		13.0	11.0	2.5	/experiments/knapen_aot/videos/S_ILSVRC2015_train_00044004.mp4	0.0	98.31296896934509	0.10833096504211426
13	34.44918203353882	response	0	2		11.0	2.5	/experiments/knapen_aot/videos/S_ILSVRC2015_train_00044004.mp4	0.0	98.40566492080688	
13	34.46481704711914	movie	1		301.0	11.0	2.5	/experiments/knapen_aot/videos/S_ILSVRC2015_train_00044004.mp4	0.0	98.4212999343872	2.50839900970459
13	36.97321605682373	fix_post	2		12.0	11.0	2.5	/experiments/knapen_aot/videos/S_ILSVRC2015_train_00044004.mp4	0.0	100.9296989440918	0.09993886947631836
14	37.07315492630005	fix_pre	0		49.0	12.0	2.5	blank	1.0	101.02963781356812	0.4082021713256836
14	37.473214864730835	response	0	2		12.0	2.5	blank	1.0	101.4296977519989	
14	37.48135709762573	movie	1		301.0	12.0	2.5	blank	1.0	101.4378399848938	2.508419990539551
14	39.98977708816528	fix_post	2		12.0	12.0	2.5	blank	1.0	103.94625997543335	0.1000218391418457
15	40.08979892730713	fix_pre	0		24.0	13.0	2.5	/experiments/knapen_aot/videos/S_yt-K_gHa2x2OQA_319.mp4	0.0	104.0462818145752	0.20114898681640625
15	40.281522035598755	response	0	2		13.0	2.5	/experiments/knapen_aot/videos/S_yt-K_gHa2x2OQA_319.mp4	0.0	104.23800492286682	
15	40.290947914123535	movie	1		301.0	13.0	2.5	/experiments/knapen_aot/videos/S_yt-K_gHa2x2OQA_319.mp4	0.0	104.2474308013916	2.5071351528167725
15	42.79808306694031	fix_post	2		12.0	13.0	2.5	/experiments/knapen_aot/videos/S_yt-K_gHa2x2OQA_319.mp4	0.0	106.75456595420837	0.1000218391418457
16	42.89810490608215	fix_pre	0		16.0	14.0	2.5	/experiments/knapen_aot/videos/R_S_yt-BLmwmX-mni8_56.mp4	0.0	106.85458779335022	0.13332295417785645
16	43.02322602272034	response	0	2		14.0	2.5	/experiments/knapen_aot/videos/R_S_yt-BLmwmX-mni8_56.mp4	0.0	106.9797089099884	
16	43.03142786026001	movie	1		301.0	14.0	2.5	/experiments/knapen_aot/videos/R_S_yt-BLmwmX-mni8_56.mp4	0.0	106.98791074752808	2.50834321975708
16	45.53977108001709	fix_post	2		12.0	14.0	2.5	/experiments/knapen_aot/videos/R_S_yt-BLmwmX-mni8_56.mp4	0.0	109.49625396728516	0.10004186630249023
17	45.63981294631958	fix_pre	0		11.0	15.0	2.5	/experiments/knapen_aot/videos/R_S_yt-XY1n_Oze1kQ_9.mp4	0.0	109.59629583358765	0.0915219783782959
17	45.72329807281494	response	0	2		15.0	2.5	/experiments/knapen_aot/videos/R_S_yt-XY1n_Oze1kQ_9.mp4	0.0	109.67978096008301	
17	45.731334924697876	movie	1		301.0	15.0	2.5	/experiments/knapen_aot/videos/R_S_yt-XY1n_Oze1kQ_9.mp4	0.0	109.68781781196594	2.5085079669952393
17	48.239842891693115	fix_post	2		12.0	15.0	2.5	/experiments/knapen_aot/videos/R_S_yt-XY1n_Oze1kQ_9.mp4	0.0	112.19632577896118	0.09997415542602539
18	48.33981704711914	fix_pre	0		19.0	16.0	2.5	/experiments/knapen_aot/videos/S_yt-MNo__ov96eI_22.mp4	0.0	112.2962999343872	0.15938591957092285
18	48.489863872528076	response	0	2		16.0	2.5	/experiments/knapen_aot/videos/S_yt-MNo__ov96eI_22.mp4	0.0	112.44634675979614	
18	48.49920296669006	movie	1		301.0	16.0	2.5	/experiments/knapen_aot/videos/S_yt-MNo__ov96eI_22.mp4	0.0	112.45568585395813	2.5071680545806885
18	51.00637102127075	fix_post	2		12.0	16.0	2.5	/experiments/knapen_aot/videos/S_yt-MNo__ov96eI_22.mp4	0.0	114.96285390853882	0.10003805160522461
19	51.10640907287598	fix_pre	0		17.0	17.0	2.5	/experiments/knapen_aot/videos/R_S_Pexels_Videos_2376809.mp4	0.0	115.06289196014404	0.14274191856384277
19	51.239863872528076	response	0	2		17.0	2.5	/experiments/knapen_aot/videos/R_S_Pexels_Videos_2376809.mp4	0.0	115.19634675979614	
19	51.24915099143982	movie	1		162.0	17.0	2.5	/experiments/knapen_aot/videos/R_S_Pexels_Videos_2376809.mp4	0.0	115.20563387870789	2.5072340965270996
19	53.75638508796692	fix_post	2		12.0	17.0	2.5	/experiments/knapen_aot/videos/R_S_Pexels_Videos_2376809.mp4	0.0	117.71286797523499	0.10004091262817383
20	53.85642600059509	fix_pre	0		34.0	18.0	2.5	/experiments/knapen_aot/videos/R_S_yt-fqbi4rGc9dk_65.mp4	0.0	117.81290888786316	0.2832350730895996
20	54.13151502609253	response	0	2		18.0	2.5	/experiments/knapen_aot/videos/R_S_yt-fqbi4rGc9dk_65.mp4	0.0	118.0879979133606	
20	54.13966107368469	movie	1		301.0	18.0	2.5	/experiments/knapen_aot/videos/R_S_yt-fqbi4rGc9dk_65.mp4	0.0	118.09614396095276	2.5084898471832275
20	56.64815092086792	fix_post	2		12.0	18.0	2.5	/experiments/knapen_aot/videos/R_S_yt-fqbi4rGc9dk_65.mp4	0.0	120.60463380813599	0.0998849868774414
21	56.74803590774536	fix_pre	0		26.0	19.0	2.5	/experiments/knapen_aot/videos/S_yt-Dwgpjoikt84_71.mp4	0.0	120.70451879501343	0.21660518646240234
21	56.95654106140137	response	0	2		19.0	2.5	/experiments/knapen_aot/videos/S_yt-Dwgpjoikt84_71.mp4	0.0	120.91302394866943	
21	56.964641094207764	movie	1		301.0	19.0	2.5	/experiments/knapen_aot/videos/S_yt-Dwgpjoikt84_71.mp4	0.0	120.92112398147583	2.508469820022583
21	59.47311091423035	fix_post	2		12.0	19.0	2.5	/experiments/knapen_aot/videos/S_yt-Dwgpjoikt84_71.mp4	0.0	123.42959380149841	0.09994101524353027
22	59.57305192947388	fix_pre	0		29.0	20.0	2.5	blank	1.0	123.52953481674194	0.2416989803314209
22	59.806336879730225	response	0	2		20.0	2.5	blank	1.0	123.76281976699829	
22	59.8147509098053	movie	1		301.0	20.0	2.5	blank	1.0	123.77123379707336	2.5084290504455566
22	62.323179960250854	fix_post	2		12.0	20.0	2.5	blank	1.0	126.27966284751892	0.09984302520751953
23	62.423022985458374	fix_pre	0		32.0	21.0	2.5	/experiments/knapen_aot/videos/R_S_yt-Dwgpjoikt84_71.mp4	0.0	126.37950587272644	0.2666618824005127
23	62.681519985198975	response	0	2		21.0	2.5	/experiments/knapen_aot/videos/R_S_yt-Dwgpjoikt84_71.mp4	0.0	126.63800287246704	
23	62.68968486785889	movie	1		301.0	21.0	2.5	/experiments/knapen_aot/videos/R_S_yt-Dwgpjoikt84_71.mp4	0.0	126.64616775512695	2.5083720684051514
23	65.19805693626404	fix_post	2		12.0	21.0	2.5	/experiments/knapen_aot/videos/R_S_yt-Dwgpjoikt84_71.mp4	0.0	129.1545398235321	0.09995913505554199
24	65.29801607131958	fix_pre	0		13.0	22.0	2.5	/experiments/knapen_aot/videos/R_S_comp_LW_L001_C006_PSNK_DENOISE_v02_SDR_PS_FINAL_20180709_SDR_2K_AVC.mp4	0.0	129.25449895858765	0.10836601257324219
24	65.39819002151489	response	0	2		22.0	2.5	/experiments/knapen_aot/videos/R_S_comp_LW_L001_C006_PSNK_DENOISE_v02_SDR_PS_FINAL_20180709_SDR_2K_AVC.mp4	0.0	129.35467290878296	
24	65.40638208389282	movie	1		165.0	22.0	2.5	/experiments/knapen_aot/videos/R_S_comp_LW_L001_C006_PSNK_DENOISE_v02_SDR_PS_FINAL_20180709_SDR_2K_AVC.mp4	0.0	129.3628649711609	2.5083558559417725
24	67.9147379398346	fix_post	2		12.0	22.0	2.5	/experiments/knapen_aot/videos/R_S_comp_LW_L001_C006_PSNK_DENOISE_v02_SDR_PS_FINAL_20180709_SDR_2K_AVC.mp4	0.0	131.87122082710266	0.09981393814086914
24	67.98142290115356	response	2	2		22.0	2.5	/experiments/knapen_aot/videos/R_S_comp_LW_L001_C006_PSNK_DENOISE_v02_SDR_PS_FINAL_20180709_SDR_2K_AVC.mp4	0.0	131.93790578842163	
25	68.01455187797546	fix_pre	0		46.0	23.0	2.5	/experiments/knapen_aot/videos/R_S_yt-n1snPiGfg0A_45.mp4	0.0	131.97103476524353	0.38339900970458984
25	68.38972997665405	response	0	2		23.0	2.5	/experiments/knapen_aot/videos/R_S_yt-n1snPiGfg0A_45.mp4	0.0	132.34621286392212	
25	68.39795088768005	movie	1		301.0	23.0	2.5	/experiments/knapen_aot/videos/R_S_yt-n1snPiGfg0A_45.mp4	0.0	132.35443377494812	2.5082671642303467
25	70.9062180519104	fix_post	2		12.0	23.0	2.5	/experiments/knapen_aot/videos/R_S_yt-n1snPiGfg0A_45.mp4	0.0	134.86270093917847	0.10013389587402344
26	71.00635194778442	fix_pre	0		8.0	24.0	2.5	/experiments/knapen_aot/videos/R_S_yt-GOgS--rzmKQ_51.mp4	0.0	134.9628348350525	0.06653094291687012
26	71.0647120475769	response	0	2		24.0	2.5	/experiments/knapen_aot/videos/R_S_yt-GOgS--rzmKQ_51.mp4	0.0	135.02119493484497	
26	71.0728828907013	movie	1		301.0	24.0	2.5	/experiments/knapen_aot/videos/R_S_yt-GOgS--rzmKQ_51.mp4	0.0	135.02936577796936	2.5083770751953125
26	73.5812599658966	fix_post	2		12.0	24.0	2.5	/experiments/knapen_aot/videos/R_S_yt-GOgS--rzmKQ_51.mp4	0.0	137.53774285316467	0.10007309913635254
26	73.64809393882751	response	2	2		24.0	2.5	/experiments/knapen_aot/videos/R_S_yt-GOgS--rzmKQ_51.mp4	0.0	137.60457682609558	
27	73.68133306503296	fix_pre	0		38.0	25.0	2.5	/experiments/knapen_aot/videos/R_S_yt-_Hnr82bYGEQ_103.mp4	0.0	137.63781595230103	0.3177318572998047
27	73.9897050857544	response	0	2		25.0	2.5	/experiments/knapen_aot/videos/R_S_yt-_Hnr82bYGEQ_103.mp4	0.0	137.94618797302246	
27	73.99906492233276	movie	1		301.0	25.0	2.5	/experiments/knapen_aot/videos/R_S_yt-_Hnr82bYGEQ_103.mp4	0.0	137.95554780960083	2.5073461532592773
27	76.50641107559204	fix_post	2		12.0	25.0	2.5	/experiments/knapen_aot/videos/R_S_yt-_Hnr82bYGEQ_103.mp4	0.0	140.4628939628601	0.09986996650695801
28	76.606281042099	fix_pre	0		25.0	26.0	2.5	blank	1.0	140.56276392936707	0.20833492279052734
28	76.80634093284607	response	0	2		26.0	2.5	blank	1.0	140.76282382011414	
28	76.81461596488953	movie	1		301.0	26.0	2.5	blank	1.0	140.7710988521576	2.5083279609680176
28	79.32294392585754	fix_post	2		12.0	26.0	2.5	blank	1.0	143.2794268131256	0.10000395774841309
29	79.42294788360596	fix_pre	0		29.0	27.0	2.5	/experiments/knapen_aot/videos/R_S_yt-1UFhynm5g6Y_266.mp4	0.0	143.37943077087402	0.24256110191345215
29	79.6563949584961	response	0	2		27.0	2.5	/experiments/knapen_aot/videos/R_S_yt-1UFhynm5g6Y_266.mp4	0.0	143.61287784576416	
29	79.66550898551941	movie	1		301.0	27.0	2.5	/experiments/knapen_aot/videos/R_S_yt-1UFhynm5g6Y_266.mp4	0.0	143.62199187278748	2.5074238777160645
29	82.17293286323547	fix_post	2		12.0	27.0	2.5	/experiments/knapen_aot/videos/R_S_yt-1UFhynm5g6Y_266.mp4	0.0	146.12941575050354	0.10006117820739746
29	82.25630497932434	response	2	2		27.0	2.5	/experiments/knapen_aot/videos/R_S_yt-1UFhynm5g6Y_266.mp4	0.0	146.2127878665924	
30	82.27299404144287	fix_pre	0		51.0	28.0	2.5	/experiments/knapen_aot/videos/S_yt-3aTDYxyF6bc_35.mp4	0.0	146.22947692871094	0.4248688220977783
30	82.68960094451904	response	0	2		28.0	2.5	/experiments/knapen_aot/videos/S_yt-3aTDYxyF6bc_35.mp4	0.0	146.6460838317871	
30	82.69786286354065	movie	1		301.0	28.0	2.5	/experiments/knapen_aot/videos/S_yt-3aTDYxyF6bc_35.mp4	0.0	146.65434575080872	2.5083980560302734
30	85.20626091957092	fix_post	2		12.0	28.0	2.5	/experiments/knapen_aot/videos/S_yt-3aTDYxyF6bc_35.mp4	0.0	149.162743806839	0.10002899169921875
31	85.30628991127014	fix_pre	0		11.0	29.0	2.5	/experiments/knapen_aot/videos/S_yt-dqcUJzNOzbM_156.mp4	0.0	149.2627727985382	0.09156918525695801
31	85.38962006568909	response	0	2		29.0	2.5	/experiments/knapen_aot/videos/S_yt-dqcUJzNOzbM_156.mp4	0.0	149.34610295295715	
31	85.3978590965271	movie	1		301.0	29.0	2.5	/experiments/knapen_aot/videos/S_yt-dqcUJzNOzbM_156.mp4	0.0	149.35434198379517	2.508413791656494
31	87.9062728881836	fix_post	2		12.0	29.0	2.5	/experiments/knapen_aot/videos/S_yt-dqcUJzNOzbM_156.mp4	0.0	151.86275577545166	0.09995698928833008
32	88.00622987747192	fix_pre	0		28.0	30.0	2.5	/experiments/knapen_aot/videos/S_ILSVRC2015_train_00743001.mp4	0.0	151.96271276474	0.2332921028137207
32	88.22380709648132	response	0	2		30.0	2.5	/experiments/knapen_aot/videos/S_ILSVRC2015_train_00743001.mp4	0.0	152.1802899837494	
32	88.23952198028564	movie	1		301.0	30.0	2.5	/experiments/knapen_aot/videos/S_ILSVRC2015_train_00743001.mp4	0.0	152.1960048675537	2.508423089981079
32	90.74794507026672	fix_post	2		12.0	30.0	2.5	/experiments/knapen_aot/videos/S_ILSVRC2015_train_00743001.mp4	0.0	154.7044279575348	0.09993100166320801
33	90.84787607192993	fix_pre	0		107.0	31.0	2.5	/experiments/knapen_aot/videos/R_S_yt-aiDGx4AN8J0_9.mp4	0.0	154.804358959198	0.8916308879852295
33	91.73134303092957	response	0	2		31.0	2.5	/experiments/knapen_aot/videos/R_S_yt-aiDGx4AN8J0_9.mp4	0.0	155.68782591819763	
33	91.73950695991516	movie	1		301.0	31.0	2.5	/experiments/knapen_aot/videos/R_S_yt-aiDGx4AN8J0_9.mp4	0.0	155.69598984718323	2.5083889961242676
33	94.24789595603943	fix_post	2		12.0	31.0	2.5	/experiments/knapen_aot/videos/R_S_yt-aiDGx4AN8J0_9.mp4	0.0	158.2043788433075	0.10005402565002441
33	94.32294607162476	response	2	2		31.0	2.5	/experiments/knapen_aot/videos/R_S_yt-aiDGx4AN8J0_9.mp4	0.0	158.27942895889282	
34	94.34794998168945	fix_pre	0		49.0	32.0	2.5	/experiments/knapen_aot/videos/R_S_yt-gaCbT4RR9Tw_191.mp4	0.0	158.30443286895752	0.4082529544830322
34	94.74050807952881	response	0	2		32.0	2.5	/experiments/knapen_aot/videos/R_S_yt-gaCbT4RR9Tw_191.mp4	0.0	158.69699096679688	
34	94.75620293617249	movie	1		301.0	32.0	2.5	/experiments/knapen_aot/videos/R_S_yt-gaCbT4RR9Tw_191.mp4	0.0	158.71268582344055	2.5083870887756348
34	97.26459002494812	fix_post	2		12.0	32.0	2.5	/experiments/knapen_aot/videos/R_S_yt-gaCbT4RR9Tw_191.mp4	0.0	161.2210729122162	0.09993386268615723
35	97.36452388763428	fix_pre	0		37.0	33.0	2.5	blank	1.0	161.32100677490234	0.308380126953125
35	97.6570930480957	response	0	2		33.0	2.5	blank	1.0	161.61357593536377	
35	97.6729040145874	movie	1		301.0	33.0	2.5	blank	1.0	161.62938690185547	2.5081939697265625
35	100.18109798431396	fix_post	2		12.0	33.0	2.5	blank	1.0	164.13758087158203	0.10007905960083008
36	100.2811770439148	fix_pre	0		66.0	34.0	2.5	/experiments/knapen_aot/videos/S_yt-9aKqMX9IHPg_242.mp4	0.0	164.23765993118286	0.5508780479431152
36	100.8228690624237	response	0	2		34.0	2.5	/experiments/knapen_aot/videos/S_yt-9aKqMX9IHPg_242.mp4	0.0	164.77935194969177	
36	100.83205509185791	movie	1		301.0	34.0	2.5	/experiments/knapen_aot/videos/S_yt-9aKqMX9IHPg_242.mp4	0.0	164.78853797912598	2.507443904876709
36	103.33949899673462	fix_post	2		12.0	34.0	2.5	/experiments/knapen_aot/videos/S_yt-9aKqMX9IHPg_242.mp4	0.0	167.29598188400269	0.09995698928833008
37	103.43945598602295	fix_pre	0		22.0	35.0	2.5	/experiments/knapen_aot/videos/S_yt-1UFhynm5g6Y_266.mp4	0.0	167.39593887329102	0.18421697616577148
37	103.61462807655334	response	0	2		35.0	2.5	/experiments/knapen_aot/videos/S_yt-1UFhynm5g6Y_266.mp4	0.0	167.5711109638214	
37	103.62367296218872	movie	1		301.0	35.0	2.5	/experiments/knapen_aot/videos/S_yt-1UFhynm5g6Y_266.mp4	0.0	167.5801558494568	2.507519006729126
37	106.13119196891785	fix_post	2		12.0	35.0	2.5	/experiments/knapen_aot/videos/S_yt-1UFhynm5g6Y_266.mp4	0.0	170.0876748561859	0.10001707077026367
38	106.23120903968811	fix_pre	0		35.0	36.0	2.5	/experiments/knapen_aot/videos/S_yt-b7bIulV49DQ_81.mp4	0.0	170.18769192695618	0.2915639877319336
38	106.51464986801147	response	0	2		36.0	2.5	/experiments/knapen_aot/videos/S_yt-b7bIulV49DQ_81.mp4	0.0	170.47113275527954	
38	106.52277302742004	movie	1		301.0	36.0	2.5	/experiments/knapen_aot/videos/S_yt-b7bIulV49DQ_81.mp4	0.0	170.4792559146881	2.508384943008423
38	109.03115797042847	fix_post	2		12.0	36.0	2.5	/experiments/knapen_aot/videos/S_yt-b7bIulV49DQ_81.mp4	0.0	172.98764085769653	0.10004711151123047
39	109.1312050819397	fix_pre	0		23.0	37.0	2.5	/experiments/knapen_aot/videos/S_comp_LA_A006_C004_v01_SDR_FINAL_PS_20180730_SDR_2K_AVC.mp4	0.0	173.08768796920776	0.19159793853759766
39	109.31460404396057	response	0	2		37.0	2.5	/experiments/knapen_aot/videos/S_comp_LA_A006_C004_v01_SDR_FINAL_PS_20180730_SDR_2K_AVC.mp4	0.0	173.27108693122864	
39	109.3228030204773	movie	1		163.0	37.0	2.5	/experiments/knapen_aot/videos/S_comp_LA_A006_C004_v01_SDR_FINAL_PS_20180730_SDR_2K_AVC.mp4	0.0	173.27928590774536	2.5083210468292236
39	111.83112406730652	fix_post	2		12.0	37.0	2.5	/experiments/knapen_aot/videos/S_comp_LA_A006_C004_v01_SDR_FINAL_PS_20180730_SDR_2K_AVC.mp4	0.0	175.78760695457458	0.09999895095825195
40	111.93112301826477	fix_pre	0		2.0	38.0	2.5	/experiments/knapen_aot/videos/R_S_ILSVRC2015_train_00044004.mp4	0.0	175.88760590553284	0.01661992073059082
40	111.93957996368408	response	0	2		38.0	2.5	/experiments/knapen_aot/videos/R_S_ILSVRC2015_train_00044004.mp4	0.0	175.89606285095215	
40	111.94774293899536	movie	1		301.0	38.0	2.5	/experiments/knapen_aot/videos/R_S_ILSVRC2015_train_00044004.mp4	0.0	175.90422582626343	2.5083091259002686
40	114.45605206489563	fix_post	2		12.0	38.0	2.5	/experiments/knapen_aot/videos/R_S_ILSVRC2015_train_00044004.mp4	0.0	178.4125349521637	0.10001397132873535
40	114.54800486564636	response	2	2		38.0	2.5	/experiments/knapen_aot/videos/R_S_ILSVRC2015_train_00044004.mp4	0.0	178.50448775291443	
41	114.55606603622437	fix_pre	0		52.0	39.0	2.5	/experiments/knapen_aot/videos/S_yt-qBPDvSQD0XY_5.mp4	0.0	178.51254892349243	0.4333488941192627
41	114.98121690750122	response	0	2		39.0	2.5	/experiments/knapen_aot/videos/S_yt-qBPDvSQD0XY_5.mp4	0.0	178.9376997947693	
41	114.98941493034363	movie	1		301.0	39.0	2.5	/experiments/knapen_aot/videos/S_yt-qBPDvSQD0XY_5.mp4	0.0	178.9458978176117	2.508319139480591
41	117.49773406982422	fix_post	2		12.0	39.0	2.5	/experiments/knapen_aot/videos/S_yt-qBPDvSQD0XY_5.mp4	0.0	181.45421695709229	0.1000669002532959
42	117.59780097007751	fix_pre	0		11.0	40.0	2.5	/experiments/knapen_aot/videos/R_S_G010_C026_UHD_SDR_v02_2K_AVC.mp4	0.0	181.55428385734558	0.09157609939575195
42	117.68107104301453	response	0	2		40.0	2.5	/experiments/knapen_aot/videos/R_S_G010_C026_UHD_SDR_v02_2K_AVC.mp4	0.0	181.6375539302826	
42	117.68937706947327	movie	1		176.0	40.0	2.5	/experiments/knapen_aot/videos/R_S_G010_C026_UHD_SDR_v02_2K_AVC.mp4	0.0	181.64585995674133	2.508382797241211
42	120.19775986671448	fix_post	2		12.0	40.0	2.5	/experiments/knapen_aot/videos/R_S_G010_C026_UHD_SDR_v02_2K_AVC.mp4	0.0	184.15424275398254	0.10001420974731445
43	120.29777407646179	fix_pre	0		10.0	41.0	2.5	blank	1.0	184.25425696372986	0.08326983451843262
43	120.37282800674438	response	0	2		41.0	2.5	blank	1.0	184.32931089401245	
43	120.38104391098022	movie	1		300.0	41.0	2.5	blank	1.0	184.3375267982483	2.5000150203704834
43	122.87286901473999	response	1	2		41.0	2.5	blank	1.0	186.82935190200806	
43	122.88105893135071	fix_post	2		13.0	41.0	2.5	blank	1.0	186.83754181861877	0.1083669662475586
44	122.98942589759827	fix_pre	0		25.0	42.0	2.5	/experiments/knapen_aot/videos/S_yt-pPIHiIYSjW8_653.mp4	0.0	186.94590878486633	0.20828604698181152
44	123.18947100639343	response	0	2		42.0	2.5	/experiments/knapen_aot/videos/S_yt-pPIHiIYSjW8_653.mp4	0.0	187.1459538936615	
44	123.19771194458008	movie	1		301.0	42.0	2.5	/experiments/knapen_aot/videos/S_yt-pPIHiIYSjW8_653.mp4	0.0	187.15419483184814	2.508281946182251
44	125.70599389076233	fix_post	2		12.0	42.0	2.5	/experiments/knapen_aot/videos/S_yt-pPIHiIYSjW8_653.mp4	0.0	189.6624767780304	0.10007619857788086
45	125.80607008934021	fix_pre	0		25.0	43.0	2.5	/experiments/knapen_aot/videos/S_yt-VQtbKGzI9SE_431.mp4	0.0	189.76255297660828	0.20826983451843262
45	126.00618886947632	response	0	2		43.0	2.5	/experiments/knapen_aot/videos/S_yt-VQtbKGzI9SE_431.mp4	0.0	189.96267175674438	
45	126.01433992385864	movie	1		301.0	43.0	2.5	/experiments/knapen_aot/videos/S_yt-VQtbKGzI9SE_431.mp4	0.0	189.9708228111267	2.508310079574585
45	128.52265000343323	fix_post	2		12.0	43.0	2.5	/experiments/knapen_aot/videos/S_yt-VQtbKGzI9SE_431.mp4	0.0	192.4791328907013	0.10011792182922363
46	128.62276792526245	fix_pre	0		23.0	44.0	2.5	/experiments/knapen_aot/videos/R_S_yt-szXWk_X_67Q_10.mp4	0.0	192.57925081253052	0.19153714179992676
46	128.80618906021118	response	0	2		44.0	2.5	/experiments/knapen_aot/videos/R_S_yt-szXWk_X_67Q_10.mp4	0.0	192.76267194747925	
46	128.81430506706238	movie	1		301.0	44.0	2.5	/experiments/knapen_aot/videos/R_S_yt-szXWk_X_67Q_10.mp4	0.0	192.77078795433044	2.508410930633545
46	131.32271599769592	fix_post	2		12.0	44.0	2.5	/experiments/knapen_aot/videos/R_S_yt-szXWk_X_67Q_10.mp4	0.0	195.279198884964	0.09998393058776855
47	131.4226999282837	fix_pre	0		18.0	45.0	2.5	/experiments/knapen_aot/videos/S_yt-n1snPiGfg0A_45.mp4	0.0	195.37918281555176	0.1499929428100586
47	131.5643560886383	response	0	2		45.0	2.5	/experiments/knapen_aot/videos/S_yt-n1snPiGfg0A_45.mp4	0.0	195.52083897590637	
47	131.57269287109375	movie	1		301.0	45.0	2.5	/experiments/knapen_aot/videos/S_yt-n1snPiGfg0A_45.mp4	0.0	195.52917575836182	2.5083792209625244
47	134.08107209205627	fix_post	2		12.0	45.0	2.5	/experiments/knapen_aot/videos/S_yt-n1snPiGfg0A_45.mp4	0.0	198.03755497932434	0.10013890266418457
48	134.18121099472046	fix_pre	0		6.0	46.0	2.5	/experiments/knapen_aot/videos/R_S_yt-t23g0U_hAgg_32.mp4	0.0	198.13769388198853	0.049798011779785156
48	134.22281408309937	response	0	2		46.0	2.5	/experiments/knapen_aot/videos/R_S_yt-t23g0U_hAgg_32.mp4	0.0	198.17929697036743	
48	134.23100900650024	movie	1		301.0	46.0	2.5	/experiments/knapen_aot/videos/R_S_yt-t23g0U_hAgg_32.mp4	0.0	198.1874918937683	2.508445978164673
48	136.73945498466492	fix_post	2		12.0	46.0	2.5	/experiments/knapen_aot/videos/R_S_yt-t23g0U_hAgg_32.mp4	0.0	200.69593787193298	0.09982991218566895
49	136.8392848968506	fix_pre	0		26.0	47.0	2.5	/experiments/knapen_aot/videos/S_ILSVRC2015_train_00318000.mp4	0.0	200.79576778411865	0.21673917770385742
49	137.04781103134155	response	0	2		47.0	2.5	/experiments/knapen_aot/videos/S_ILSVRC2015_train_00318000.mp4	0.0	201.00429391860962	
49	137.05602407455444	movie	1		301.0	47.0	2.5	/experiments/knapen_aot/videos/S_ILSVRC2015_train_00318000.mp4	0.0	201.0125069618225	2.508330821990967
49	139.5643548965454	fix_post	2		12.0	47.0	2.5	/experiments/knapen_aot/videos/S_ILSVRC2015_train_00318000.mp4	0.0	203.52083778381348	0.10086417198181152
50	139.66521906852722	fix_pre	0		26.0	48.0	2.5	blank	1.0	203.6217019557953	0.21570897102355957
50	139.87279605865479	response	0	2		48.0	2.5	blank	1.0	203.82927894592285	
50	139.88092803955078	movie	1		301.0	48.0	2.5	blank	1.0	203.83741092681885	2.5083110332489014
50	142.38923907279968	fix_post	2		12.0	48.0	2.5	blank	1.0	206.34572196006775	0.10007381439208984
51	142.48931288719177	fix_pre	0		29.0	49.0	2.5	/experiments/knapen_aot/videos/R_S_yt-0d5TkclKWVA_146.mp4	0.0	206.44579577445984	0.2416081428527832
51	142.72274589538574	response	0	2		49.0	2.5	/experiments/knapen_aot/videos/R_S_yt-0d5TkclKWVA_146.mp4	0.0	206.6792287826538	
51	142.73092103004456	movie	1		301.0	49.0	2.5	/experiments/knapen_aot/videos/R_S_yt-0d5TkclKWVA_146.mp4	0.0	206.68740391731262	2.5086050033569336
51	145.2395260334015	fix_post	2		12.0	49.0	2.5	/experiments/knapen_aot/videos/R_S_yt-0d5TkclKWVA_146.mp4	0.0	209.19600892066956	0.0997319221496582
52	145.33925795555115	fix_pre	0		32.0	50.0	2.5	/experiments/knapen_aot/videos/S_yt-5hgLXyLw82w_23.mp4	0.0	209.2957408428192	0.26670098304748535
52	145.59767889976501	response	0	2		50.0	2.5	/experiments/knapen_aot/videos/S_yt-5hgLXyLw82w_23.mp4	0.0	209.55416178703308	
52	145.60595893859863	movie	1		301.0	50.0	2.5	/experiments/knapen_aot/videos/S_yt-5hgLXyLw82w_23.mp4	0.0	209.5624418258667	2.508352041244507
52	148.11431097984314	fix_post	2		12.0	50.0	2.5	/experiments/knapen_aot/videos/S_yt-5hgLXyLw82w_23.mp4	0.0	212.0707938671112	0.09995889663696289
53	148.2142698764801	fix_pre	0		7.0	51.0	2.5	/experiments/knapen_aot/videos/R_S_yt-3aTDYxyF6bc_35.mp4	0.0	212.17075276374817	0.05835103988647461
53	148.2644419670105	response	0	2		51.0	2.5	/experiments/knapen_aot/videos/R_S_yt-3aTDYxyF6bc_35.mp4	0.0	212.22092485427856	
53	148.27262091636658	movie	1		301.0	51.0	2.5	/experiments/knapen_aot/videos/R_S_yt-3aTDYxyF6bc_35.mp4	0.0	212.22910380363464	2.5085501670837402
53	150.78117108345032	fix_post	2		12.0	51.0	2.5	/experiments/knapen_aot/videos/R_S_yt-3aTDYxyF6bc_35.mp4	0.0	214.73765397071838	0.09978199005126953
54	150.8809530735016	fix_pre	0		69.0	52.0	2.5	/experiments/knapen_aot/videos/R_S_yt-4x2eUikn9rw_212.mp4	0.0	214.83743596076965	0.575523853302002
54	151.44768404960632	response	0	2		52.0	2.5	/experiments/knapen_aot/videos/R_S_yt-4x2eUikn9rw_212.mp4	0.0	215.4041669368744	
54	151.4564769268036	movie	1		301.0	52.0	2.5	/experiments/knapen_aot/videos/R_S_yt-4x2eUikn9rw_212.mp4	0.0	215.41295981407166	2.5078060626983643
54	153.96428298950195	fix_post	2		12.0	52.0	2.5	/experiments/knapen_aot/videos/R_S_yt-4x2eUikn9rw_212.mp4	0.0	217.92076587677002	0.10000491142272949
55	154.06428790092468	fix_pre	0		17.0	53.0	2.5	/experiments/knapen_aot/videos/S_flickr-clarkstonscamp-4863427159_1.mp4	0.0	218.02077078819275	0.14221596717834473
55	154.19772791862488	response	0	2		53.0	2.5	/experiments/knapen_aot/videos/S_flickr-clarkstonscamp-4863427159_1.mp4	0.0	218.15421080589294	
55	154.20650386810303	movie	1		301.0	53.0	2.5	/experiments/knapen_aot/videos/S_flickr-clarkstonscamp-4863427159_1.mp4	0.0	218.1629867553711	2.507789134979248
55	156.71429300308228	fix_post	2		12.0	53.0	2.5	/experiments/knapen_aot/videos/S_flickr-clarkstonscamp-4863427159_1.mp4	0.0	220.67077589035034	0.09999895095825195
56	156.81429195404053	fix_pre	0		31.0	54.0	2.5	blank	1.0	220.7707748413086	0.2582740783691406
56	157.0642910003662	response	0	2		54.0	2.5	blank	1.0	221.02077388763428	
56	157.07256603240967	movie	1		301.0	54.0	2.5	blank	1.0	221.02904891967773	2.5083699226379395
56	159.5809359550476	fix_post	2		12.0	54.0	2.5	blank	1.0	223.53741884231567	0.10000991821289062
57	159.6809458732605	fix_pre	0		41.0	55.0	2.5	/experiments/knapen_aot/videos/R_S_comp_LA_A006_C004_v01_SDR_FINAL_PS_20180730_SDR_2K_AVC.mp4	0.0	223.63742876052856	0.3416261672973633
57	160.01427698135376	response	0	2		55.0	2.5	/experiments/knapen_aot/videos/R_S_comp_LA_A006_C004_v01_SDR_FINAL_PS_20180730_SDR_2K_AVC.mp4	0.0	223.97075986862183	
57	160.02257204055786	movie	1		170.0	55.0	2.5	/experiments/knapen_aot/videos/R_S_comp_LA_A006_C004_v01_SDR_FINAL_PS_20180730_SDR_2K_AVC.mp4	0.0	223.97905492782593	2.508258819580078
57	162.53083086013794	fix_post	2		12.0	55.0	2.5	/experiments/knapen_aot/videos/R_S_comp_LA_A006_C004_v01_SDR_FINAL_PS_20180730_SDR_2K_AVC.mp4	0.0	226.487313747406	0.10006022453308105
58	162.63089108467102	fix_pre	0		10.0	56.0	2.5	/experiments/knapen_aot/videos/R_S_yt-j-ifVbxZePQ_70.mp4	0.0	226.5873739719391	0.08330678939819336
58	162.70599102973938	response	0	2		56.0	2.5	/experiments/knapen_aot/videos/R_S_yt-j-ifVbxZePQ_70.mp4	0.0	226.66247391700745	
58	162.7141978740692	movie	1		301.0	56.0	2.5	/experiments/knapen_aot/videos/R_S_yt-j-ifVbxZePQ_70.mp4	0.0	226.67068076133728	2.508362054824829
58	165.22255992889404	fix_post	2		12.0	56.0	2.5	/experiments/knapen_aot/videos/R_S_yt-j-ifVbxZePQ_70.mp4	0.0	229.1790428161621	0.10000109672546387
59	165.3225610256195	fix_pre	0		13.0	57.0	2.5	/experiments/knapen_aot/videos/S_yt-GOgS--rzmKQ_51.mp4	0.0	229.27904391288757	0.10826301574707031
59	165.42261409759521	response	0	2		57.0	2.5	/experiments/knapen_aot/videos/S_yt-GOgS--rzmKQ_51.mp4	0.0	229.37909698486328	
59	165.43082404136658	movie	1		301.0	57.0	2.5	/experiments/knapen_aot/videos/S_yt-GOgS--rzmKQ_51.mp4	0.0	229.38730692863464	2.508401870727539
59	167.93922591209412	fix_post	2		12.0	57.0	2.5	/experiments/knapen_aot/videos/S_yt-GOgS--rzmKQ_51.mp4	0.0	231.89570879936218	0.09996414184570312
60	168.03919005393982	fix_pre	0		35.0	58.0	2.5	/experiments/knapen_aot/videos/R_S_flickr-clarkstonscamp-4863427159_1.mp4	0.0	231.99567294120789	0.29213595390319824
60	168.3151400089264	response	0	2		58.0	2.5	/experiments/knapen_aot/videos/R_S_flickr-clarkstonscamp-4863427159_1.mp4	0.0	232.27162289619446	
60	168.33132600784302	movie	1		301.0	58.0	2.5	/experiments/knapen_aot/videos/R_S_flickr-clarkstonscamp-4863427159_1.mp4	0.0	232.28780889511108	2.507972002029419
60	170.83929800987244	fix_post	2		12.0	58.0	2.5	/experiments/knapen_aot/videos/R_S_flickr-clarkstonscamp-4863427159_1.mp4	0.0	234.7957808971405	0.09989094734191895
61	170.93918895721436	fix_pre	0		16.0	59.0	2.5	/experiments/knapen_aot/videos/S_yt-14tjqjjjAEI_15.mp4	0.0	234.89567184448242	0.1333460807800293
61	171.06430792808533	response	0	2		59.0	2.5	/experiments/knapen_aot/videos/S_yt-14tjqjjjAEI_15.mp4	0.0	235.0207908153534	
61	171.07253503799438	movie	1		301.0	59.0	2.5	/experiments/knapen_aot/videos/S_yt-14tjqjjjAEI_15.mp4	0.0	235.02901792526245	2.508309841156006
61	173.5808448791504	fix_post	2		12.0	59.0	2.5	/experiments/knapen_aot/videos/S_yt-14tjqjjjAEI_15.mp4	0.0	237.53732776641846	0.10004615783691406
62	173.6808910369873	fix_pre	0		12.0	60.0	2.5	/experiments/knapen_aot/videos/S_wc-1MzpHfRq1MUK_32.mp4	0.0	237.63737392425537	0.09993505477905273
62	173.77262496948242	response	0	2		60.0	2.5	/experiments/knapen_aot/videos/S_wc-1MzpHfRq1MUK_32.mp4	0.0	237.7291078567505	
62	173.78082609176636	movie	1		300.0	60.0	2.5	/experiments/knapen_aot/videos/S_wc-1MzpHfRq1MUK_32.mp4	0.0	237.73730897903442	2.5083649158477783
62	176.28919100761414	fix_post	2		12.0	60.0	2.5	/experiments/knapen_aot/videos/S_wc-1MzpHfRq1MUK_32.mp4	0.0	240.2456738948822	0.10019397735595703
63	176.3893849849701	fix_pre	0		23.0	61.0	2.5	blank	1.0	240.34586787223816	0.19191408157348633
63	176.57271003723145	response	0	2		61.0	2.5	blank	1.0	240.5291929244995	
63	176.58129906654358	movie	1		301.0	61.0	2.5	blank	1.0	240.53778195381165	2.507798910140991
63	179.08909797668457	fix_post	2		12.0	61.0	2.5	blank	1.0	243.04558086395264	0.10008406639099121
64	179.18918204307556	fix_pre	0		32.0	62.0	2.5	/experiments/knapen_aot/videos/R_S_G010_C026_UHD_SDR_v02_2K_AVC.mp4	0.0	243.14566493034363	0.26701903343200684
64	179.44001293182373	response	0	2		62.0	2.5	/experiments/knapen_aot/videos/R_S_G010_C026_UHD_SDR_v02_2K_AVC.mp4	0.0	243.3964958190918	
64	179.45620107650757	movie	1		171.0	62.0	2.5	/experiments/knapen_aot/videos/R_S_G010_C026_UHD_SDR_v02_2K_AVC.mp4	0.0	243.41268396377563	2.5079309940338135
64	181.95589208602905	response	1	2		62.0	2.5	/experiments/knapen_aot/videos/R_S_G010_C026_UHD_SDR_v02_2K_AVC.mp4	0.0	245.91237497329712	
64	181.96413207054138	fix_post	2		12.0	62.0	2.5	/experiments/knapen_aot/videos/R_S_G010_C026_UHD_SDR_v02_2K_AVC.mp4	0.0	245.92061495780945	0.10002493858337402
65	182.06415700912476	fix_pre	0		29.0	63.0	2.5	/experiments/knapen_aot/videos/R_S_ILSVRC2015_test_00004002.mp4	0.0	246.02063989639282	0.24164199829101562
65	182.290020942688	response	0	2		63.0	2.5	/experiments/knapen_aot/videos/R_S_ILSVRC2015_test_00004002.mp4	0.0	246.24650382995605	
65	182.30579900741577	movie	1		301.0	63.0	2.5	/experiments/knapen_aot/videos/R_S_ILSVRC2015_test_00004002.mp4	0.0	246.26228189468384	2.508373975753784
65	184.81417298316956	fix_post	2		12.0	63.0	2.5	/experiments/knapen_aot/videos/R_S_ILSVRC2015_test_00004002.mp4	0.0	248.77065587043762	0.10010695457458496
65	184.88088202476501	response	2	2		63.0	2.5	/experiments/knapen_aot/videos/R_S_ILSVRC2015_test_00004002.mp4	0.0	248.83736491203308	
66	184.91427993774414	fix_pre	0		39.0	64.0	2.5	/experiments/knapen_aot/videos/R_S_yt-bmGWhOCsvJo_128.mp4	0.0	248.8707628250122	0.3249349594116211
66	185.23079895973206	response	0	2		64.0	2.5	/experiments/knapen_aot/videos/R_S_yt-bmGWhOCsvJo_128.mp4	0.0	249.18728184700012	
66	185.23921489715576	movie	1		301.0	64.0	2.5	/experiments/knapen_aot/videos/R_S_yt-bmGWhOCsvJo_128.mp4	0.0	249.19569778442383	2.508251190185547
66	187.7474660873413	fix_post	2		12.0	64.0	2.5	/experiments/knapen_aot/videos/R_S_yt-bmGWhOCsvJo_128.mp4	0.0	251.70394897460938	0.10020685195922852
67	187.84767293930054	fix_pre	0		7.0	65.0	2.5	/experiments/knapen_aot/videos/S_yt-jzDaQD-g168_103.mp4	0.0	251.8041558265686	0.058053016662597656
67	187.8976080417633	response	0	2		65.0	2.5	/experiments/knapen_aot/videos/S_yt-jzDaQD-g168_103.mp4	0.0	251.85409092903137	
67	187.90572595596313	movie	1		301.0	65.0	2.5	/experiments/knapen_aot/videos/S_yt-jzDaQD-g168_103.mp4	0.0	251.8622088432312	2.5083699226379395
67	190.41409587860107	fix_post	2		12.0	65.0	2.5	/experiments/knapen_aot/videos/S_yt-jzDaQD-g168_103.mp4	0.0	254.37057876586914	0.10013508796691895
68	190.514230966568	fix_pre	0		9.0	66.0	2.5	/experiments/knapen_aot/videos/S_PA_A004_C003_SDR_20190719_SDR_2K_AVC.mp4	0.0	254.47071385383606	0.07483410835266113
68	190.58083701133728	response	0	2		66.0	2.5	/experiments/knapen_aot/videos/S_PA_A004_C003_SDR_20190719_SDR_2K_AVC.mp4	0.0	254.53731989860535	
68	190.58906507492065	movie	1		190.0	66.0	2.5	/experiments/knapen_aot/videos/S_PA_A004_C003_SDR_20190719_SDR_2K_AVC.mp4	0.0	254.54554796218872	2.50836181640625
68	193.0974268913269	fix_post	2		12.0	66.0	2.5	/experiments/knapen_aot/videos/S_PA_A004_C003_SDR_20190719_SDR_2K_AVC.mp4	0.0	257.05390977859497	0.1000361442565918
69	193.1974630355835	fix_pre	0		9.0	67.0	2.5	/experiments/knapen_aot/videos/R_S_ILSVRC2015_train_00417000.mp4	0.0	257.15394592285156	0.07491302490234375
69	193.26421403884888	response	0	2		67.0	2.5	/experiments/knapen_aot/videos/R_S_ILSVRC2015_train_00417000.mp4	0.0	257.22069692611694	
69	193.27237606048584	movie	1		301.0	67.0	2.5	/experiments/knapen_aot/videos/R_S_ILSVRC2015_train_00417000.mp4	0.0	257.2288589477539	2.508517026901245
69	195.78089308738708	fix_post	2		12.0	67.0	2.5	/experiments/knapen_aot/videos/R_S_ILSVRC2015_train_00417000.mp4	0.0	259.73737597465515	0.09986090660095215
70	195.88075399398804	fix_pre	0		12.0	68.0	2.5	/experiments/knapen_aot/videos/S_ILSVRC2015_train_00768000.mp4	0.0	259.8372368812561	0.0999600887298584
70	195.97253799438477	response	0	2		68.0	2.5	/experiments/knapen_aot/videos/S_ILSVRC2015_train_00768000.mp4	0.0	259.92902088165283	
70	195.9807140827179	movie	1		301.0	68.0	2.5	/experiments/knapen_aot/videos/S_ILSVRC2015_train_00768000.mp4	0.0	259.93719696998596	2.508464813232422
70	198.48917889595032	fix_post	2		12.0	68.0	2.5	/experiments/knapen_aot/videos/S_ILSVRC2015_train_00768000.mp4	0.0	262.4456617832184	0.09985518455505371
71	198.58903408050537	fix_pre	0		16.0	69.0	2.5	/experiments/knapen_aot/videos/S_yt-s2tZ2NIQrxg_175.mp4	0.0	262.54551696777344	0.1334547996520996
71	198.71420097351074	response	0	2		69.0	2.5	/experiments/knapen_aot/videos/S_yt-s2tZ2NIQrxg_175.mp4	0.0	262.6706838607788	
71	198.72248888015747	movie	1		301.0	69.0	2.5	/experiments/knapen_aot/videos/S_yt-s2tZ2NIQrxg_175.mp4	0.0	262.67897176742554	2.508233070373535
71	201.230721950531	fix_post	2		12.0	69.0	2.5	/experiments/knapen_aot/videos/S_yt-s2tZ2NIQrxg_175.mp4	0.0	265.1872048377991	0.0999901294708252
72	201.33071208000183	fix_pre	0		16.0	70.0	2.5	blank	1.0	265.2871949672699	0.13332891464233398
72	201.45590996742249	response	0	2		70.0	2.5	blank	1.0	265.41239285469055	
72	201.46404099464417	movie	1		301.0	70.0	2.5	blank	1.0	265.42052388191223	2.5083439350128174
72	203.97238492965698	fix_post	2		12.0	70.0	2.5	blank	1.0	267.92886781692505	0.10002303123474121
73	204.07240796089172	fix_pre	0		17.0	71.0	2.5	/experiments/knapen_aot/videos/R_S_production_ID_4122384.mp4	0.0	268.0288908481598	0.14158010482788086
73	204.20582509040833	response	0	2		71.0	2.5	/experiments/knapen_aot/videos/R_S_production_ID_4122384.mp4	0.0	268.1623079776764	
73	204.2139880657196	movie	1		164.0	71.0	2.5	/experiments/knapen_aot/videos/R_S_production_ID_4122384.mp4	0.0	268.17047095298767	2.5083699226379395
73	206.72235798835754	fix_post	2		12.0	71.0	2.5	/experiments/knapen_aot/videos/R_S_production_ID_4122384.mp4	0.0	270.6788408756256	0.09998202323913574
74	206.82234001159668	fix_pre	0		45.0	72.0	2.5	/experiments/knapen_aot/videos/S_yt-4ouMuGUuPHI_193.mp4	0.0	270.77882289886475	0.37497806549072266
74	207.1817009449005	response	0	2		72.0	2.5	/experiments/knapen_aot/videos/S_yt-4ouMuGUuPHI_193.mp4	0.0	271.1381838321686	
74	207.1973180770874	movie	1		301.0	72.0	2.5	/experiments/knapen_aot/videos/S_yt-4ouMuGUuPHI_193.mp4	0.0	271.15380096435547	2.5084447860717773
74	209.70576286315918	fix_post	2		11.0	72.0	2.5	/experiments/knapen_aot/videos/S_yt-4ouMuGUuPHI_193.mp4	0.0	273.66224575042725	0.09162712097167969
74	209.78916096687317	response	2	2		72.0	2.5	/experiments/knapen_aot/videos/S_yt-4ouMuGUuPHI_193.mp4	0.0	273.74564385414124	
75	209.79738998413086	fix_pre	0		51.0	73.0	2.5	/experiments/knapen_aot/videos/R_S_yt-jcuaf9iSEkI_169.mp4	0.0	273.7538728713989	0.4250349998474121
75	210.21408891677856	response	0	2		73.0	2.5	/experiments/knapen_aot/videos/R_S_yt-jcuaf9iSEkI_169.mp4	0.0	274.17057180404663	
75	210.22242498397827	movie	1		301.0	73.0	2.5	/experiments/knapen_aot/videos/R_S_yt-jcuaf9iSEkI_169.mp4	0.0	274.17890787124634	2.5083038806915283
75	212.7307288646698	fix_post	2		12.0	73.0	2.5	/experiments/knapen_aot/videos/R_S_yt-jcuaf9iSEkI_169.mp4	0.0	276.68721175193787	0.1003570556640625
76	212.83108592033386	fix_pre	0		5.0	74.0	2.5	/experiments/knapen_aot/videos/S_yt-s5YONFy3vb4_46.mp4	0.0	276.78756880760193	0.0414881706237793
76	212.86419200897217	response	0	2		74.0	2.5	/experiments/knapen_aot/videos/S_yt-s5YONFy3vb4_46.mp4	0.0	276.82067489624023	
76	212.87257409095764	movie	1		301.0	74.0	2.5	/experiments/knapen_aot/videos/S_yt-s5YONFy3vb4_46.mp4	0.0	276.8290569782257	2.5081679821014404
76	215.38074207305908	fix_post	2		12.0	74.0	2.5	/experiments/knapen_aot/videos/S_yt-s5YONFy3vb4_46.mp4	0.0	279.33722496032715	0.10000395774841309
77	215.4807460308075	fix_pre	0		41.0	75.0	2.5	/experiments/knapen_aot/videos/R_S_yt-8QCcmqaEMPI_16.mp4	0.0	279.43722891807556	0.34160494804382324
77	215.81411409378052	response	0	2		75.0	2.5	/experiments/knapen_aot/videos/R_S_yt-8QCcmqaEMPI_16.mp4	0.0	279.7705969810486	
77	215.82235097885132	movie	1		301.0	75.0	2.5	/experiments/knapen_aot/videos/R_S_yt-8QCcmqaEMPI_16.mp4	0.0	279.7788338661194	2.5082390308380127
77	218.33059000968933	fix_post	2		12.0	75.0	2.5	/experiments/knapen_aot/videos/R_S_yt-8QCcmqaEMPI_16.mp4	0.0	282.2870728969574	0.10007500648498535
78	218.43066501617432	fix_pre	0		32.0	76.0	2.5	blank	1.0	282.3871479034424	0.266528844833374
78	218.68913793563843	response	0	2		76.0	2.5	blank	1.0	282.6456208229065	
78	218.6971938610077	movie	1		301.0	76.0	2.5	blank	1.0	282.65367674827576	2.5088250637054443
78	221.20601892471313	fix_post	2		12.0	76.0	2.5	blank	1.0	285.1625018119812	0.09963512420654297
79	221.30565404891968	fix_pre	0		14.0	77.0	2.5	/experiments/knapen_aot/videos/S_yt-0bovQBIUZho_15.mp4	0.0	285.26213693618774	0.11664700508117676
79	221.41411209106445	response	0	2		77.0	2.5	/experiments/knapen_aot/videos/S_yt-0bovQBIUZho_15.mp4	0.0	285.3705949783325	
79	221.42230105400085	movie	1		301.0	77.0	2.5	/experiments/knapen_aot/videos/S_yt-0bovQBIUZho_15.mp4	0.0	285.3787839412689	2.50839900970459
79	223.93070006370544	fix_post	2		12.0	77.0	2.5	/experiments/knapen_aot/videos/S_yt-0bovQBIUZho_15.mp4	0.0	287.8871829509735	0.09991884231567383
80	224.03061890602112	fix_pre	0		17.0	78.0	2.5	/experiments/knapen_aot/videos/R_S_yt-zSSnQYeO_DE_338.mp4	0.0	287.9871017932892	0.1416490077972412
80	224.16407299041748	response	0	2		78.0	2.5	/experiments/knapen_aot/videos/R_S_yt-zSSnQYeO_DE_338.mp4	0.0	288.12055587768555	
80	224.17226791381836	movie	1		301.0	78.0	2.5	/experiments/knapen_aot/videos/R_S_yt-zSSnQYeO_DE_338.mp4	0.0	288.1287508010864	2.50838303565979
80	226.68065094947815	fix_post	2		12.0	78.0	2.5	/experiments/knapen_aot/videos/R_S_yt-zSSnQYeO_DE_338.mp4	0.0	290.6371338367462	0.09997797012329102
81	226.78062891960144	fix_pre	0		38.0	79.0	2.5	/experiments/knapen_aot/videos/S_yt-9Ow95khYa_M_91.mp4	0.0	290.7371118068695	0.31659412384033203
81	227.08895897865295	response	0	2		79.0	2.5	/experiments/knapen_aot/videos/S_yt-9Ow95khYa_M_91.mp4	0.0	291.045441865921	
81	227.09722304344177	movie	1		301.0	79.0	2.5	/experiments/knapen_aot/videos/S_yt-9Ow95khYa_M_91.mp4	0.0	291.05370593070984	2.508384943008423
81	229.6056079864502	fix_post	2		12.0	79.0	2.5	/experiments/knapen_aot/videos/S_yt-9Ow95khYa_M_91.mp4	0.0	293.56209087371826	0.09996390342712402
82	229.70557188987732	fix_pre	0		33.0	80.0	2.5	/experiments/knapen_aot/videos/R_S_yt-3E02UEHdoZ4_752.mp4	0.0	293.6620547771454	0.275022029876709
82	229.97237706184387	response	0	2		80.0	2.5	/experiments/knapen_aot/videos/R_S_yt-3E02UEHdoZ4_752.mp4	0.0	293.92885994911194	
82	229.98059391975403	movie	1		301.0	80.0	2.5	/experiments/knapen_aot/videos/R_S_yt-3E02UEHdoZ4_752.mp4	0.0	293.9370768070221	2.508331060409546
82	232.48892498016357	fix_post	2		12.0	80.0	2.5	/experiments/knapen_aot/videos/R_S_yt-3E02UEHdoZ4_752.mp4	0.0	296.44540786743164	0.09992289543151855
83	232.5888478755951	fix_pre	0		38.0	81.0	2.5	/experiments/knapen_aot/videos/S_comp_HK_H004_C010_PSNK_v08_SDR_PS_20181009_SDR_2K_AVC.mp4	0.0	296.54533076286316	0.3166930675506592
83	232.89747500419617	response	0	2		81.0	2.5	/experiments/knapen_aot/videos/S_comp_HK_H004_C010_PSNK_v08_SDR_PS_20181009_SDR_2K_AVC.mp4	0.0	296.85395789146423	
83	232.90554094314575	movie	1		165.0	81.0	2.5	/experiments/knapen_aot/videos/S_comp_HK_H004_C010_PSNK_v08_SDR_PS_20181009_SDR_2K_AVC.mp4	0.0	296.8620238304138	2.5084609985351562
83	235.4140019416809	fix_post	2		12.0	81.0	2.5	/experiments/knapen_aot/videos/S_comp_HK_H004_C010_PSNK_v08_SDR_PS_20181009_SDR_2K_AVC.mp4	0.0	299.370484828949	0.09988212585449219
84	235.5138840675354	fix_pre	0		21.0	82.0	2.5	/experiments/knapen_aot/videos/S_yt--JnTDuElzXQ_121.mp4	0.0	299.47036695480347	0.17493987083435059
84	235.68071603775024	response	0	2		82.0	2.5	/experiments/knapen_aot/videos/S_yt--JnTDuElzXQ_121.mp4	0.0	299.6371989250183	
84	235.68882393836975	movie	1		301.0	82.0	2.5	/experiments/knapen_aot/videos/S_yt--JnTDuElzXQ_121.mp4	0.0	299.6453068256378	2.5085179805755615
84	238.1973419189453	fix_post	2		12.0	82.0	2.5	/experiments/knapen_aot/videos/S_yt--JnTDuElzXQ_121.mp4	0.0	302.1538248062134	0.0998680591583252
85	238.29720997810364	fix_pre	0		26.0	83.0	2.5	blank	1.0	302.2536928653717	0.21667790412902832
85	238.5057270526886	response	0	2		83.0	2.5	blank	1.0	302.46220993995667	
85	238.51388788223267	movie	1		301.0	83.0	2.5	blank	1.0	302.47037076950073	2.5082550048828125
85	241.02214288711548	fix_post	2		12.0	83.0	2.5	blank	1.0	304.97862577438354	0.10024809837341309
87	241.1223909854889	stim	0		453.0					305.07887387275696	3.777693033218384
87	241.42229104042053	response	0	2						305.3787739276886	
87	244.89156699180603	response	0	space						308.8480498790741	
