trial_nr	onset	event_type	phase	response	nr_frames	movie_index	movie_duration	movie_file	blank	onset_abs	duration
0	0.15225005149841309	stim	0		63.0					142.13675904273987	0.5224499702453613
0	0.6665329933166504	response	0	space						142.6510419845581	
1	0.6747000217437744	stim	0		121.0					142.65920901298523	1.0083189010620117
1	1.6830189228057861	stim	1		120.0					143.66752791404724	0.9998500347137451
1	2.2998008728027344	response	1	space						144.2843098640442	
1	2.558042049407959	response	1	space						144.5425510406494	
2	2.6828689575195312	fix_pre	0		64.0	0.0	2.5	/experiments/knapen_aot/videos/S_yt-PP93D7b7Ni4_10.mp4	0.0	144.667377948761	0.5334949493408203
2	3.200502872467041	response	0	space		0.0	2.5	/experiments/knapen_aot/videos/S_yt-PP93D7b7Ni4_10.mp4	0.0	145.1850118637085	
2	3.2163639068603516	movie	1		299.0	0.0	2.5	/experiments/knapen_aot/videos/S_yt-PP93D7b7Ni4_10.mp4	0.0	145.2008728981018	2.508272171020508
2	5.724636077880859	fix_post	2		12.0	0.0	2.5	/experiments/knapen_aot/videos/S_yt-PP93D7b7Ni4_10.mp4	0.0	147.70914506912231	0.10086989402770996
2	5.769876003265381	response	2	2		0.0	2.5	/experiments/knapen_aot/videos/S_yt-PP93D7b7Ni4_10.mp4	0.0	147.75438499450684	
3	5.825505971908569	fix_pre	0		30.0	1.0	2.5	/experiments/knapen_aot/videos/S_pexels-koolshooters-7327412.mp4	0.0	147.81001496315002	0.25000905990600586
3	6.066416025161743	response	0	2		1.0	2.5	/experiments/knapen_aot/videos/S_pexels-koolshooters-7327412.mp4	0.0	148.0509250164032	
3	6.075515031814575	movie	1		163.0	1.0	2.5	/experiments/knapen_aot/videos/S_pexels-koolshooters-7327412.mp4	0.0	148.06002402305603	2.5074069499969482
3	8.582921981811523	fix_post	2		12.0	1.0	2.5	/experiments/knapen_aot/videos/S_pexels-koolshooters-7327412.mp4	0.0	150.56743097305298	0.1000070571899414
4	8.682929039001465	fix_pre	0		5.0	2.0	2.5	/experiments/knapen_aot/videos/R_S_yt-0lfSyC79n14_7.mp4	0.0	150.66743803024292	0.04169487953186035
4	8.716427087783813	response	0	2		2.0	2.5	/experiments/knapen_aot/videos/R_S_yt-0lfSyC79n14_7.mp4	0.0	150.70093607902527	
4	8.724623918533325	movie	1		301.0	2.0	2.5	/experiments/knapen_aot/videos/R_S_yt-0lfSyC79n14_7.mp4	0.0	150.70913290977478	2.508316993713379
4	11.232940912246704	fix_post	2		12.0	2.0	2.5	/experiments/knapen_aot/videos/R_S_yt-0lfSyC79n14_7.mp4	0.0	153.21744990348816	0.09997010231018066
5	11.332911014556885	fix_pre	0		25.0	3.0	2.5	/experiments/knapen_aot/videos/R_S_yt-x6tYi0lRGqU_114.mp4	0.0	153.31742000579834	0.20838189125061035
5	11.53295087814331	response	0	2		3.0	2.5	/experiments/knapen_aot/videos/R_S_yt-x6tYi0lRGqU_114.mp4	0.0	153.51745986938477	
5	11.541292905807495	movie	1		301.0	3.0	2.5	/experiments/knapen_aot/videos/R_S_yt-x6tYi0lRGqU_114.mp4	0.0	153.52580189704895	2.5083351135253906
5	14.049628019332886	fix_post	2		12.0	3.0	2.5	/experiments/knapen_aot/videos/R_S_yt-x6tYi0lRGqU_114.mp4	0.0	156.03413701057434	0.09996390342712402
5	14.11639404296875	response	2	2		3.0	2.5	/experiments/knapen_aot/videos/R_S_yt-x6tYi0lRGqU_114.mp4	0.0	156.1009030342102	
6	14.14959192276001	fix_pre	0		31.0	4.0	2.5	/experiments/knapen_aot/videos/R_S_yt-gPhlnZG-pRY_4.mp4	0.0	156.13410091400146	0.2591540813446045
6	14.399720907211304	response	0	2		4.0	2.5	/experiments/knapen_aot/videos/R_S_yt-gPhlnZG-pRY_4.mp4	0.0	156.38422989845276	
6	14.408746004104614	movie	1		299.0	4.0	2.5	/experiments/knapen_aot/videos/R_S_yt-gPhlnZG-pRY_4.mp4	0.0	156.39325499534607	2.507478952407837
6	16.91622495651245	fix_post	2		12.0	4.0	2.5	/experiments/knapen_aot/videos/R_S_yt-gPhlnZG-pRY_4.mp4	0.0	158.9007339477539	0.10006594657897949
7	17.01629090309143	fix_pre	0		28.0	5.0	2.5	/experiments/knapen_aot/videos/S_yt-Rsfo57AlpLA_332.mp4	0.0	159.00079989433289	0.23329615592956543
7	17.241452932357788	response	0	2		5.0	2.5	/experiments/knapen_aot/videos/S_yt-Rsfo57AlpLA_332.mp4	0.0	159.22596192359924	
7	17.249587059020996	movie	1		301.0	5.0	2.5	/experiments/knapen_aot/videos/S_yt-Rsfo57AlpLA_332.mp4	0.0	159.23409605026245	2.50833797454834
7	19.757925033569336	fix_post	2		12.0	5.0	2.5	/experiments/knapen_aot/videos/S_yt-Rsfo57AlpLA_332.mp4	0.0	161.7424340248108	0.10011982917785645
8	19.858044862747192	fix_pre	0		17.0	6.0	2.5	/experiments/knapen_aot/videos/R_S_BO_A018_C029_SDR_20190812_SDR_2K_AVC.mp4	0.0	161.84255385398865	0.14153504371643066
8	19.991333961486816	response	0	2		6.0	2.5	/experiments/knapen_aot/videos/R_S_BO_A018_C029_SDR_20190812_SDR_2K_AVC.mp4	0.0	161.97584295272827	
8	19.999579906463623	movie	1		169.0	6.0	2.5	/experiments/knapen_aot/videos/R_S_BO_A018_C029_SDR_20190812_SDR_2K_AVC.mp4	0.0	161.98408889770508	2.508324146270752
8	22.507904052734375	fix_post	2		12.0	6.0	2.5	/experiments/knapen_aot/videos/R_S_BO_A018_C029_SDR_20190812_SDR_2K_AVC.mp4	0.0	164.49241304397583	0.09997200965881348
9	22.60787606239319	fix_pre	0		9.0	7.0	2.5	blank	1.0	164.59238505363464	0.0750579833984375
9	22.67493486404419	response	0	2		7.0	2.5	blank	1.0	164.65944385528564	
9	22.682934045791626	movie	1		301.0	7.0	2.5	blank	1.0	164.66744303703308	2.508270025253296
9	25.191204071044922	fix_post	2		12.0	7.0	2.5	blank	1.0	167.17571306228638	0.10001897811889648
10	25.29122304916382	fix_pre	0		57.0	8.0	2.5	/experiments/knapen_aot/videos/R_S_yt-nS2QqSQbjOQ_39.mp4	0.0	167.27573204040527	0.47494983673095703
10	25.757993936538696	response	0	2		8.0	2.5	/experiments/knapen_aot/videos/R_S_yt-nS2QqSQbjOQ_39.mp4	0.0	167.74250292778015	
10	25.766172885894775	movie	1		301.0	8.0	2.5	/experiments/knapen_aot/videos/R_S_yt-nS2QqSQbjOQ_39.mp4	0.0	167.75068187713623	2.5083940029144287
10	28.274566888809204	fix_post	2		12.0	8.0	2.5	/experiments/knapen_aot/videos/R_S_yt-nS2QqSQbjOQ_39.mp4	0.0	170.25907588005066	0.09997320175170898
11	28.374540090560913	fix_pre	0		16.0	9.0	2.5	/experiments/knapen_aot/videos/S_yt-RO4mhuXBVrY_67.mp4	0.0	170.35904908180237	0.13329100608825684
11	28.499688863754272	response	0	2		9.0	2.5	/experiments/knapen_aot/videos/S_yt-RO4mhuXBVrY_67.mp4	0.0	170.48419785499573	
11	28.50783109664917	movie	1		301.0	9.0	2.5	/experiments/knapen_aot/videos/S_yt-RO4mhuXBVrY_67.mp4	0.0	170.49234008789062	2.5084238052368164
11	31.016254901885986	fix_post	2		12.0	9.0	2.5	/experiments/knapen_aot/videos/S_yt-RO4mhuXBVrY_67.mp4	0.0	173.00076389312744	0.0999441146850586
12	31.116199016571045	fix_pre	0		6.0	10.0	2.5	/experiments/knapen_aot/videos/R_S_yt-CINajD_PVjQ_494.mp4	0.0	173.1007080078125	0.04995608329772949
12	31.158057928085327	response	0	2		10.0	2.5	/experiments/knapen_aot/videos/R_S_yt-CINajD_PVjQ_494.mp4	0.0	173.14256691932678	
12	31.166155099868774	movie	1		301.0	10.0	2.5	/experiments/knapen_aot/videos/R_S_yt-CINajD_PVjQ_494.mp4	0.0	173.15066409111023	2.5083138942718506
12	33.674468994140625	fix_post	2		12.0	10.0	2.5	/experiments/knapen_aot/videos/R_S_yt-CINajD_PVjQ_494.mp4	0.0	175.65897798538208	0.09999203681945801
13	33.77446103096008	fix_pre	0		24.0	11.0	2.5	/experiments/knapen_aot/videos/S_yt-z68VLDDCFdw_93.mp4	0.0	175.75897002220154	0.20000386238098145
13	33.96639609336853	response	0	2		11.0	2.5	/experiments/knapen_aot/videos/S_yt-z68VLDDCFdw_93.mp4	0.0	175.95090508460999	
13	33.974464893341064	movie	1		301.0	11.0	2.5	/experiments/knapen_aot/videos/S_yt-z68VLDDCFdw_93.mp4	0.0	175.95897388458252	2.5082950592041016
13	36.482759952545166	fix_post	2		12.0	11.0	2.5	/experiments/knapen_aot/videos/S_yt-z68VLDDCFdw_93.mp4	0.0	178.46726894378662	0.10008001327514648
14	36.58283996582031	fix_pre	0		7.0	12.0	2.5	/experiments/knapen_aot/videos/S_yt-NqyG4Ar2JWo_10.mp4	0.0	178.56734895706177	0.058277130126953125
14	36.63294196128845	response	0	2		12.0	2.5	/experiments/knapen_aot/videos/S_yt-NqyG4Ar2JWo_10.mp4	0.0	178.6174509525299	
14	36.641117095947266	movie	1		301.0	12.0	2.5	/experiments/knapen_aot/videos/S_yt-NqyG4Ar2JWo_10.mp4	0.0	178.62562608718872	2.508392810821533
14	39.1495099067688	fix_post	2		11.0	12.0	2.5	/experiments/knapen_aot/videos/S_yt-NqyG4Ar2JWo_10.mp4	0.0	181.13401889801025	0.09238100051879883
14	39.22489309310913	response	2	2		12.0	2.5	/experiments/knapen_aot/videos/S_yt-NqyG4Ar2JWo_10.mp4	0.0	181.2094020843506	
15	39.2418909072876	fix_pre	0		33.0	13.0	2.5	/experiments/knapen_aot/videos/R_S_yt-IDpUZ2NWBUY_60.mp4	0.0	181.22639989852905	0.2742650508880615
15	39.50795388221741	response	0	2		13.0	2.5	/experiments/knapen_aot/videos/R_S_yt-IDpUZ2NWBUY_60.mp4	0.0	181.49246287345886	
15	39.51615595817566	movie	1		301.0	13.0	2.5	/experiments/knapen_aot/videos/R_S_yt-IDpUZ2NWBUY_60.mp4	0.0	181.50066494941711	2.5082759857177734
15	42.02443194389343	fix_post	2		12.0	13.0	2.5	/experiments/knapen_aot/videos/R_S_yt-IDpUZ2NWBUY_60.mp4	0.0	184.0089409351349	0.09994697570800781
16	42.12437891960144	fix_pre	0		5.0	14.0	2.5	blank	1.0	184.1088879108429	0.041702985763549805
16	42.15796494483948	response	0	2		14.0	2.5	blank	1.0	184.14247393608093	
16	42.16608190536499	movie	1		301.0	14.0	2.5	blank	1.0	184.15059089660645	2.5082850456237793
16	44.67436695098877	fix_post	2		12.0	14.0	2.5	blank	1.0	186.65887594223022	0.10007309913635254
17	44.77444005012512	fix_pre	0		34.0	15.0	2.5	/experiments/knapen_aot/videos/R_S_yt--JnTDuElzXQ_121.mp4	0.0	186.75894904136658	0.2832939624786377
17	45.04957699775696	response	0	2		15.0	2.5	/experiments/knapen_aot/videos/R_S_yt--JnTDuElzXQ_121.mp4	0.0	187.0340859889984	
17	45.05773401260376	movie	1		301.0	15.0	2.5	/experiments/knapen_aot/videos/R_S_yt--JnTDuElzXQ_121.mp4	0.0	187.04224300384521	2.508363962173462
17	47.56609797477722	fix_post	2		12.0	15.0	2.5	/experiments/knapen_aot/videos/R_S_yt--JnTDuElzXQ_121.mp4	0.0	189.55060696601868	0.10002994537353516
18	47.66612792015076	fix_pre	0		16.0	16.0	2.5	/experiments/knapen_aot/videos/R_S_yt-3DM_SqT4RII_10.mp4	0.0	189.6506369113922	0.13327503204345703
18	47.79120206832886	response	0	2		16.0	2.5	/experiments/knapen_aot/videos/R_S_yt-3DM_SqT4RII_10.mp4	0.0	189.7757110595703	
18	47.799402952194214	movie	1		301.0	16.0	2.5	/experiments/knapen_aot/videos/R_S_yt-3DM_SqT4RII_10.mp4	0.0	189.78391194343567	2.5083091259002686
18	50.30771207809448	fix_post	2		12.0	16.0	2.5	/experiments/knapen_aot/videos/R_S_yt-3DM_SqT4RII_10.mp4	0.0	192.29222106933594	0.09994292259216309
19	50.407655000686646	fix_pre	0		28.0	17.0	2.5	/experiments/knapen_aot/videos/S_yt-YeT4acsbqok_210.mp4	0.0	192.3921639919281	0.23340392112731934
19	50.632895946502686	response	0	2		17.0	2.5	/experiments/knapen_aot/videos/S_yt-YeT4acsbqok_210.mp4	0.0	192.61740493774414	
19	50.641058921813965	movie	1		301.0	17.0	2.5	/experiments/knapen_aot/videos/S_yt-YeT4acsbqok_210.mp4	0.0	192.62556791305542	2.5083401203155518
19	53.14939904212952	fix_post	2		12.0	17.0	2.5	/experiments/knapen_aot/videos/S_yt-YeT4acsbqok_210.mp4	0.0	195.13390803337097	0.09992194175720215
20	53.24932098388672	fix_pre	0		27.0	18.0	2.5	/experiments/knapen_aot/videos/S_yt-PltpRRYmQQk_62.mp4	0.0	195.23382997512817	0.22508788108825684
20	53.46626687049866	response	0	2		18.0	2.5	/experiments/knapen_aot/videos/S_yt-PltpRRYmQQk_62.mp4	0.0	195.4507758617401	
20	53.474408864974976	movie	1		301.0	18.0	2.5	/experiments/knapen_aot/videos/S_yt-PltpRRYmQQk_62.mp4	0.0	195.45891785621643	2.5083110332489014
20	55.98271989822388	fix_post	2		12.0	18.0	2.5	/experiments/knapen_aot/videos/S_yt-PltpRRYmQQk_62.mp4	0.0	197.96722888946533	0.10006403923034668
21	56.082783937454224	fix_pre	0		22.0	19.0	2.5	/experiments/knapen_aot/videos/R_S_yt-YTQXM5ZjRgg_116.mp4	0.0	198.06729292869568	0.19160914421081543
21	56.2578330039978	response	0	2		19.0	2.5	/experiments/knapen_aot/videos/R_S_yt-YTQXM5ZjRgg_116.mp4	0.0	198.24234199523926	
21	56.27439308166504	movie	1		300.0	19.0	2.5	/experiments/knapen_aot/videos/R_S_yt-YTQXM5ZjRgg_116.mp4	0.0	198.2589020729065	2.5000147819519043
21	58.77440786361694	fix_post	2		12.0	19.0	2.5	/experiments/knapen_aot/videos/R_S_yt-YTQXM5ZjRgg_116.mp4	0.0	200.7589168548584	0.10003304481506348
22	58.87444090843201	fix_pre	0		29.0	20.0	2.5	/experiments/knapen_aot/videos/R_S__9v_wUywaAA_35.mp4	0.0	200.85894989967346	0.24223709106445312
22	59.10782504081726	response	0	2		20.0	2.5	/experiments/knapen_aot/videos/R_S__9v_wUywaAA_35.mp4	0.0	201.09233403205872	
22	59.11667799949646	movie	1		301.0	20.0	2.5	/experiments/knapen_aot/videos/R_S__9v_wUywaAA_35.mp4	0.0	201.10118699073792	2.507718086242676
22	61.624396085739136	fix_post	2		12.0	20.0	2.5	/experiments/knapen_aot/videos/R_S__9v_wUywaAA_35.mp4	0.0	203.6089050769806	0.09992480278015137
23	61.72432088851929	fix_pre	0		42.0	21.0	2.5	blank	1.0	203.70882987976074	0.3506340980529785
23	62.06617093086243	response	0	2		21.0	2.5	blank	1.0	204.05067992210388	
23	62.074954986572266	movie	1		301.0	21.0	2.5	blank	1.0	204.05946397781372	2.507711887359619
23	64.58266687393188	fix_post	2		12.0	21.0	2.5	blank	1.0	206.56717586517334	0.10004806518554688
24	64.68271493911743	fix_pre	0		26.0	22.0	2.5	/experiments/knapen_aot/videos/R_S_yt-BKkZUSowoxg_59.mp4	0.0	206.6672239303589	0.21663308143615723
24	64.89114999771118	response	0	2		22.0	2.5	/experiments/knapen_aot/videos/R_S_yt-BKkZUSowoxg_59.mp4	0.0	206.87565898895264	
24	64.89934802055359	movie	1		299.0	22.0	2.5	/experiments/knapen_aot/videos/R_S_yt-BKkZUSowoxg_59.mp4	0.0	206.88385701179504	2.508384943008423
24	67.40773296356201	fix_post	2		12.0	22.0	2.5	/experiments/knapen_aot/videos/R_S_yt-BKkZUSowoxg_59.mp4	0.0	209.39224195480347	0.10000205039978027
25	67.50773501396179	fix_pre	0		26.0	23.0	2.5	/experiments/knapen_aot/videos/S_yt-0Ut9QANGX20_35.mp4	0.0	209.49224400520325	0.21663498878479004
25	67.71623492240906	response	0	2		23.0	2.5	/experiments/knapen_aot/videos/S_yt-0Ut9QANGX20_35.mp4	0.0	209.7007439136505	
25	67.72437000274658	movie	1		301.0	23.0	2.5	/experiments/knapen_aot/videos/S_yt-0Ut9QANGX20_35.mp4	0.0	209.70887899398804	2.508342981338501
25	70.23271298408508	fix_post	2		12.0	23.0	2.5	/experiments/knapen_aot/videos/S_yt-0Ut9QANGX20_35.mp4	0.0	212.21722197532654	0.09996390342712402
26	70.3326768875122	fix_pre	0		35.0	24.0	2.5	/experiments/knapen_aot/videos/S_yt-FzMLLmcD1mE_19.mp4	0.0	212.31718587875366	0.29168701171875
26	70.6161859035492	response	0	2		24.0	2.5	/experiments/knapen_aot/videos/S_yt-FzMLLmcD1mE_19.mp4	0.0	212.60069489479065	
26	70.62436389923096	movie	1		298.0	24.0	2.5	/experiments/knapen_aot/videos/S_yt-FzMLLmcD1mE_19.mp4	0.0	212.6088728904724	2.50823712348938
26	73.13260102272034	fix_post	2		12.0	24.0	2.5	/experiments/knapen_aot/videos/S_yt-FzMLLmcD1mE_19.mp4	0.0	215.1171100139618	0.10005307197570801
27	73.23265409469604	fix_pre	0		33.0	25.0	2.5	/experiments/knapen_aot/videos/S_comp_GMT312_162NC_139M_1041_AFRICA_NIGHT_v14_SDR_FINAL_20180706_SDR_2K_AVC.mp4	0.0	215.2171630859375	0.2749478816986084
27	73.49938607215881	response	0	2		25.0	2.5	/experiments/knapen_aot/videos/S_comp_GMT312_162NC_139M_1041_AFRICA_NIGHT_v14_SDR_FINAL_20180706_SDR_2K_AVC.mp4	0.0	215.48389506340027	
27	73.50760197639465	movie	1		165.0	25.0	2.5	/experiments/knapen_aot/videos/S_comp_GMT312_162NC_139M_1041_AFRICA_NIGHT_v14_SDR_FINAL_20180706_SDR_2K_AVC.mp4	0.0	215.4921109676361	2.5084190368652344
27	76.01602101325989	fix_post	2		12.0	25.0	2.5	/experiments/knapen_aot/videos/S_comp_GMT312_162NC_139M_1041_AFRICA_NIGHT_v14_SDR_FINAL_20180706_SDR_2K_AVC.mp4	0.0	218.00053000450134	0.10053086280822754
28	76.11655187606812	fix_pre	0		13.0	26.0	2.5	blank	1.0	218.10106086730957	0.10787010192871094
28	76.21632790565491	response	0	2		26.0	2.5	blank	1.0	218.20083689689636	
28	76.22442197799683	movie	1		301.0	26.0	2.5	blank	1.0	218.20893096923828	2.508263111114502
28	78.73268508911133	fix_post	2		12.0	26.0	2.5	blank	1.0	220.71719408035278	0.09996986389160156
29	78.83265495300293	fix_pre	0		27.0	27.0	2.5	/experiments/knapen_aot/videos/S_Xq0a2BWE3zA_53.mp4	0.0	220.81716394424438	0.2250211238861084
29	79.04947590827942	response	0	2		27.0	2.5	/experiments/knapen_aot/videos/S_Xq0a2BWE3zA_53.mp4	0.0	221.03398489952087	
29	79.05767607688904	movie	1		301.0	27.0	2.5	/experiments/knapen_aot/videos/S_Xq0a2BWE3zA_53.mp4	0.0	221.0421850681305	2.508305788040161
29	81.5659818649292	fix_post	2		12.0	27.0	2.5	/experiments/knapen_aot/videos/S_Xq0a2BWE3zA_53.mp4	0.0	223.55049085617065	0.1000051498413086
30	81.66598701477051	fix_pre	0		22.0	28.0	2.5	/experiments/knapen_aot/videos/S_yt-l6WPyKg_3is_154.mp4	0.0	223.65049600601196	0.1833488941192627
30	81.84111094474792	response	0	2		28.0	2.5	/experiments/knapen_aot/videos/S_yt-l6WPyKg_3is_154.mp4	0.0	223.82561993598938	
30	81.84933590888977	movie	1		301.0	28.0	2.5	/experiments/knapen_aot/videos/S_yt-l6WPyKg_3is_154.mp4	0.0	223.83384490013123	2.5082740783691406
30	84.35760998725891	fix_post	2		12.0	28.0	2.5	/experiments/knapen_aot/videos/S_yt-l6WPyKg_3is_154.mp4	0.0	226.34211897850037	0.09997010231018066
31	84.45758008956909	fix_pre	0		58.0	29.0	2.5	/experiments/knapen_aot/videos/S_yt-Iu2ZPHLqXuY_32.mp4	0.0	226.44208908081055	0.4833388328552246
31	84.93273496627808	response	0	2		29.0	2.5	/experiments/knapen_aot/videos/S_yt-Iu2ZPHLqXuY_32.mp4	0.0	226.91724395751953	
31	84.94091892242432	movie	1		301.0	29.0	2.5	/experiments/knapen_aot/videos/S_yt-Iu2ZPHLqXuY_32.mp4	0.0	226.92542791366577	2.5083320140838623
31	87.44925093650818	fix_post	2		12.0	29.0	2.5	/experiments/knapen_aot/videos/S_yt-Iu2ZPHLqXuY_32.mp4	0.0	229.43375992774963	0.10000395774841309
32	87.54925489425659	fix_pre	0		37.0	30.0	2.5	/experiments/knapen_aot/videos/R_S_ILSVRC2015_train_00654000.mp4	0.0	229.53376388549805	0.3083460330963135
32	87.84942889213562	response	0	2		30.0	2.5	/experiments/knapen_aot/videos/R_S_ILSVRC2015_train_00654000.mp4	0.0	229.83393788337708	
32	87.8576009273529	movie	1		301.0	30.0	2.5	/experiments/knapen_aot/videos/R_S_ILSVRC2015_train_00654000.mp4	0.0	229.84210991859436	2.5083370208740234
32	90.36593794822693	fix_post	2		12.0	30.0	2.5	/experiments/knapen_aot/videos/R_S_ILSVRC2015_train_00654000.mp4	0.0	232.35044693946838	0.09994697570800781
33	90.46588492393494	fix_pre	0		15.0	31.0	2.5	/experiments/knapen_aot/videos/S_yt-LYnwnfi1JJ4_120.mp4	0.0	232.4503939151764	0.12501811981201172
33	90.58264493942261	response	0	2		31.0	2.5	/experiments/knapen_aot/videos/S_yt-LYnwnfi1JJ4_120.mp4	0.0	232.56715393066406	
33	90.59090304374695	movie	1		301.0	31.0	2.5	/experiments/knapen_aot/videos/S_yt-LYnwnfi1JJ4_120.mp4	0.0	232.5754120349884	2.508370876312256
33	93.0992739200592	fix_post	2		12.0	31.0	2.5	/experiments/knapen_aot/videos/S_yt-LYnwnfi1JJ4_120.mp4	0.0	235.08378291130066	0.10044407844543457
34	93.19971799850464	fix_pre	0		21.0	32.0	2.5	/experiments/knapen_aot/videos/S_yt-x7NWmdlvVIQ_183.mp4	0.0	235.1842269897461	0.1745309829711914
34	93.36603999137878	response	0	2		32.0	2.5	/experiments/knapen_aot/videos/S_yt-x7NWmdlvVIQ_183.mp4	0.0	235.35054898262024	
34	93.37424898147583	movie	1		301.0	32.0	2.5	/experiments/knapen_aot/videos/S_yt-x7NWmdlvVIQ_183.mp4	0.0	235.35875797271729	2.5083720684051514
34	95.88262104988098	fix_post	2		12.0	32.0	2.5	/experiments/knapen_aot/videos/S_yt-x7NWmdlvVIQ_183.mp4	0.0	237.86713004112244	0.09993195533752441
35	95.9825530052185	fix_pre	0		17.0	33.0	2.5	/experiments/knapen_aot/videos/R_S_yt-KpOAdMtPGFs_17.mp4	0.0	237.96706199645996	0.14180493354797363
35	96.11605501174927	response	0	2		33.0	2.5	/experiments/knapen_aot/videos/R_S_yt-KpOAdMtPGFs_17.mp4	0.0	238.10056400299072	
35	96.12435793876648	movie	1		301.0	33.0	2.5	/experiments/knapen_aot/videos/R_S_yt-KpOAdMtPGFs_17.mp4	0.0	238.10886693000793	2.5082390308380127
35	98.63259696960449	fix_post	2		12.0	33.0	2.5	/experiments/knapen_aot/videos/R_S_yt-KpOAdMtPGFs_17.mp4	0.0	240.61710596084595	0.0999910831451416
36	98.73258805274963	fix_pre	0		18.0	34.0	2.5	blank	1.0	240.7170970439911	0.14997100830078125
36	98.87444400787354	response	0	2		34.0	2.5	blank	1.0	240.858952999115	
36	98.88255906105042	movie	1		301.0	34.0	2.5	blank	1.0	240.86706805229187	2.50836181640625
36	101.32438087463379	response	1	2		34.0	2.5	blank	1.0	243.30888986587524	
36	101.39092087745667	fix_post	2		12.0	34.0	2.5	blank	1.0	243.37542986869812	0.10045003890991211
37	101.49137091636658	fix_pre	0		25.0	35.0	2.5	/experiments/knapen_aot/videos/S_production_ID_4873122.mp4	0.0	243.47587990760803	0.20820212364196777
37	101.69102907180786	response	0	2		35.0	2.5	/experiments/knapen_aot/videos/S_production_ID_4873122.mp4	0.0	243.67553806304932	
37	101.69957304000854	movie	1		167.0	35.0	2.5	/experiments/knapen_aot/videos/S_production_ID_4873122.mp4	0.0	243.68408203125	2.5080058574676514
37	104.2075788974762	fix_post	2		12.0	35.0	2.5	/experiments/knapen_aot/videos/S_production_ID_4873122.mp4	0.0	246.19208788871765	0.10000014305114746
38	104.30757904052734	fix_pre	0		24.0	36.0	2.5	/experiments/knapen_aot/videos/S_yt-OTNdgakSIJE_97.mp4	0.0	246.2920880317688	0.1999669075012207
38	104.49937891960144	response	0	2		36.0	2.5	/experiments/knapen_aot/videos/S_yt-OTNdgakSIJE_97.mp4	0.0	246.4838879108429	
38	104.50754594802856	movie	1		301.0	36.0	2.5	/experiments/knapen_aot/videos/S_yt-OTNdgakSIJE_97.mp4	0.0	246.49205493927002	2.508315086364746
38	107.01586103439331	fix_post	2		12.0	36.0	2.5	/experiments/knapen_aot/videos/S_yt-OTNdgakSIJE_97.mp4	0.0	249.00037002563477	0.10042405128479004
39	107.1162850856781	fix_pre	0		17.0	37.0	2.5	/experiments/knapen_aot/videos/S_yt-XtzmBXKYEWk_60.mp4	0.0	249.10079407691956	0.14124393463134766
39	107.24937605857849	response	0	2		37.0	2.5	/experiments/knapen_aot/videos/S_yt-XtzmBXKYEWk_60.mp4	0.0	249.23388504981995	
39	107.25752902030945	movie	1		301.0	37.0	2.5	/experiments/knapen_aot/videos/S_yt-XtzmBXKYEWk_60.mp4	0.0	249.2420380115509	2.5082499980926514
39	109.7657790184021	fix_post	2		12.0	37.0	2.5	/experiments/knapen_aot/videos/S_yt-XtzmBXKYEWk_60.mp4	0.0	251.75028800964355	0.10045886039733887
40	109.86623787879944	fix_pre	0		11.0	38.0	2.5	/experiments/knapen_aot/videos/S_Oo8otu7cQ20_112.mp4	0.0	251.8507468700409	0.09121298789978027
40	109.94925999641418	response	0	2		38.0	2.5	/experiments/knapen_aot/videos/S_Oo8otu7cQ20_112.mp4	0.0	251.93376898765564	
40	109.95745086669922	movie	1		301.0	38.0	2.5	/experiments/knapen_aot/videos/S_Oo8otu7cQ20_112.mp4	0.0	251.94195985794067	2.508350133895874
40	112.46580100059509	fix_post	2		12.0	38.0	2.5	/experiments/knapen_aot/videos/S_Oo8otu7cQ20_112.mp4	0.0	254.45030999183655	0.1000058650970459
41	112.56580686569214	fix_pre	0		22.0	39.0	2.5	/experiments/knapen_aot/videos/S_wc-TAGpcap1KdAS_212.mp4	0.0	254.5503158569336	0.18326520919799805
41	112.74095392227173	response	0	2		39.0	2.5	/experiments/knapen_aot/videos/S_wc-TAGpcap1KdAS_212.mp4	0.0	254.72546291351318	
41	112.74907207489014	movie	1		301.0	39.0	2.5	/experiments/knapen_aot/videos/S_wc-TAGpcap1KdAS_212.mp4	0.0	254.7335810661316	2.5083539485931396
41	115.25742602348328	fix_post	2		12.0	39.0	2.5	/experiments/knapen_aot/videos/S_wc-TAGpcap1KdAS_212.mp4	0.0	257.24193501472473	0.10006904602050781
42	115.35749506950378	fix_pre	0		21.0	40.0	2.5	/experiments/knapen_aot/videos/S_yt-PreGL81PEP4_61.mp4	0.0	257.34200406074524	0.17523598670959473
42	115.52432107925415	response	0	2		40.0	2.5	/experiments/knapen_aot/videos/S_yt-PreGL81PEP4_61.mp4	0.0	257.5088300704956	
42	115.53273105621338	movie	1		301.0	40.0	2.5	/experiments/knapen_aot/videos/S_yt-PreGL81PEP4_61.mp4	0.0	257.51724004745483	2.50807785987854
42	118.04080891609192	fix_post	2		12.0	40.0	2.5	/experiments/knapen_aot/videos/S_yt-PreGL81PEP4_61.mp4	0.0	260.0253179073334	0.09998297691345215
43	118.14079189300537	fix_pre	0		30.0	41.0	2.5	blank	1.0	260.1253008842468	0.24994111061096191
43	118.38261890411377	response	0	2		41.0	2.5	blank	1.0	260.3671278953552	
43	118.39073300361633	movie	1		301.0	41.0	2.5	blank	1.0	260.3752419948578	2.508491039276123
43	120.89922404289246	fix_post	2		12.0	41.0	2.5	blank	1.0	262.8837330341339	0.09991192817687988
44	120.99913597106934	fix_pre	0		35.0	42.0	2.5	/experiments/knapen_aot/videos/R_S_yt-YeT4acsbqok_210.mp4	0.0	262.9836449623108	0.2916269302368164
44	121.28258609771729	response	0	2		42.0	2.5	/experiments/knapen_aot/videos/R_S_yt-YeT4acsbqok_210.mp4	0.0	263.26709508895874	
44	121.29076290130615	movie	1		300.0	42.0	2.5	/experiments/knapen_aot/videos/R_S_yt-YeT4acsbqok_210.mp4	0.0	263.2752718925476	2.5083601474761963
44	123.79912304878235	fix_post	2		12.0	42.0	2.5	/experiments/knapen_aot/videos/R_S_yt-YeT4acsbqok_210.mp4	0.0	265.7836320400238	0.10001683235168457
45	123.89913988113403	fix_pre	0		6.0	43.0	2.5	/experiments/knapen_aot/videos/S_yt-x7TqP8l4lCA_39.mp4	0.0	265.8836488723755	0.0504910945892334
45	123.940908908844	response	0	2		43.0	2.5	/experiments/knapen_aot/videos/S_yt-x7TqP8l4lCA_39.mp4	0.0	265.92541790008545	
45	123.94963097572327	movie	1		301.0	43.0	2.5	/experiments/knapen_aot/videos/S_yt-x7TqP8l4lCA_39.mp4	0.0	265.9341399669647	2.5078070163726807
45	126.45743799209595	fix_post	2		12.0	43.0	2.5	/experiments/knapen_aot/videos/S_yt-x7TqP8l4lCA_39.mp4	0.0	268.4419469833374	0.10009002685546875
46	126.55752801895142	fix_pre	0		12.0	44.0	2.5	/experiments/knapen_aot/videos/R_S_9smWynsk6sI_158.mp4	0.0	268.54203701019287	0.10021591186523438
46	126.64922189712524	response	0	2		44.0	2.5	/experiments/knapen_aot/videos/R_S_9smWynsk6sI_158.mp4	0.0	268.6337308883667	
46	126.65774393081665	movie	1		301.0	44.0	2.5	/experiments/knapen_aot/videos/R_S_9smWynsk6sI_158.mp4	0.0	268.6422529220581	2.507941961288452
46	129.1656858921051	fix_post	2		12.0	44.0	2.5	/experiments/knapen_aot/videos/R_S_9smWynsk6sI_158.mp4	0.0	271.15019488334656	0.10007905960083008
47	129.26576495170593	fix_pre	0		10.0	45.0	2.5	/experiments/knapen_aot/videos/S_comp_CH_C007_C004_PSNK_v02_SDR_PS_FINAL_20180709_SDR_2K_AVC.mp4	0.0	271.2502739429474	0.08329510688781738
47	129.33335709571838	response	0	2		45.0	2.5	/experiments/knapen_aot/videos/S_comp_CH_C007_C004_PSNK_v02_SDR_PS_FINAL_20180709_SDR_2K_AVC.mp4	0.0	271.31786608695984	
47	129.34906005859375	movie	1		170.0	45.0	2.5	/experiments/knapen_aot/videos/S_comp_CH_C007_C004_PSNK_v02_SDR_PS_FINAL_20180709_SDR_2K_AVC.mp4	0.0	271.3335690498352	2.5083789825439453
47	131.8574390411377	fix_post	2		12.0	45.0	2.5	/experiments/knapen_aot/videos/S_comp_CH_C007_C004_PSNK_v02_SDR_PS_FINAL_20180709_SDR_2K_AVC.mp4	0.0	273.84194803237915	0.09999489784240723
47	131.91593098640442	response	2	2		45.0	2.5	/experiments/knapen_aot/videos/S_comp_CH_C007_C004_PSNK_v02_SDR_PS_FINAL_20180709_SDR_2K_AVC.mp4	0.0	273.9004399776459	
48	131.9574339389801	fix_pre	0		36.0	46.0	2.5	/experiments/knapen_aot/videos/S_ILSVRC2015_train_00378000.mp4	0.0	273.94194293022156	0.29993510246276855
48	132.2416160106659	response	0	2		46.0	2.5	/experiments/knapen_aot/videos/S_ILSVRC2015_train_00378000.mp4	0.0	274.22612500190735	
48	132.25736904144287	movie	1		301.0	46.0	2.5	/experiments/knapen_aot/videos/S_ILSVRC2015_train_00378000.mp4	0.0	274.2418780326843	2.508363962173462
48	134.76573300361633	fix_post	2		12.0	46.0	2.5	/experiments/knapen_aot/videos/S_ILSVRC2015_train_00378000.mp4	0.0	276.7502419948578	0.10001802444458008
49	134.8657510280609	fix_pre	0		14.0	47.0	2.5	/experiments/knapen_aot/videos/S_yt-BAwvfRmE1LU_79.mp4	0.0	276.85026001930237	0.11660099029541016
49	134.974219083786	response	0	2		47.0	2.5	/experiments/knapen_aot/videos/S_yt-BAwvfRmE1LU_79.mp4	0.0	276.95872807502747	
49	134.98235201835632	movie	1		301.0	47.0	2.5	/experiments/knapen_aot/videos/S_yt-BAwvfRmE1LU_79.mp4	0.0	276.9668610095978	2.5083680152893066
49	137.49072003364563	fix_post	2		12.0	47.0	2.5	/experiments/knapen_aot/videos/S_yt-BAwvfRmE1LU_79.mp4	0.0	279.4752290248871	0.10000085830688477
50	137.59072089195251	fix_pre	0		12.0	48.0	2.5	/experiments/knapen_aot/videos/S_yt-zSSnQYeO_DE_338.mp4	0.0	279.57522988319397	0.10002303123474121
50	137.68246388435364	response	0	2		48.0	2.5	/experiments/knapen_aot/videos/S_yt-zSSnQYeO_DE_338.mp4	0.0	279.6669728755951	
50	137.69074392318726	movie	1		301.0	48.0	2.5	/experiments/knapen_aot/videos/S_yt-zSSnQYeO_DE_338.mp4	0.0	279.6752529144287	2.508296012878418
50	140.19903993606567	fix_post	2		12.0	48.0	2.5	/experiments/knapen_aot/videos/S_yt-zSSnQYeO_DE_338.mp4	0.0	282.18354892730713	0.09999704360961914
51	140.2990369796753	fix_pre	0		30.0	49.0	2.5	blank	1.0	282.28354597091675	0.2500159740447998
51	140.54085397720337	response	0	2		49.0	2.5	blank	1.0	282.5253629684448	
51	140.5490529537201	movie	1		301.0	49.0	2.5	blank	1.0	282.53356194496155	2.508294105529785
51	143.05734705924988	fix_post	2		12.0	49.0	2.5	blank	1.0	285.04185605049133	0.10024499893188477
52	143.15759205818176	fix_pre	0		35.0	50.0	2.5	/experiments/knapen_aot/videos/R_S_ILSVRC2015_train_00371013.mp4	0.0	285.1421010494232	0.291611909866333
52	143.4407820701599	response	0	2		50.0	2.5	/experiments/knapen_aot/videos/R_S_ILSVRC2015_train_00371013.mp4	0.0	285.42529106140137	
52	143.4492039680481	movie	1		301.0	50.0	2.5	/experiments/knapen_aot/videos/R_S_ILSVRC2015_train_00371013.mp4	0.0	285.43371295928955	2.50819993019104
52	145.95740389823914	fix_post	2		12.0	50.0	2.5	/experiments/knapen_aot/videos/R_S_ILSVRC2015_train_00371013.mp4	0.0	287.9419128894806	0.0999460220336914
53	146.05734992027283	fix_pre	0		9.0	51.0	2.5	/experiments/knapen_aot/videos/S_yt-GETRVzxihhM_74.mp4	0.0	288.0418589115143	0.07499313354492188
53	146.11690092086792	response	0	2		51.0	2.5	/experiments/knapen_aot/videos/S_yt-GETRVzxihhM_74.mp4	0.0	288.1014099121094	
53	146.13234305381775	movie	1		301.0	51.0	2.5	/experiments/knapen_aot/videos/S_yt-GETRVzxihhM_74.mp4	0.0	288.1168520450592	2.5083019733428955
53	148.64064502716064	fix_post	2		12.0	51.0	2.5	/experiments/knapen_aot/videos/S_yt-GETRVzxihhM_74.mp4	0.0	290.6251540184021	0.10021305084228516
54	148.74085807800293	fix_pre	0		19.0	52.0	2.5	/experiments/knapen_aot/videos/S_yt-V5iQ3MbihnI_103.mp4	0.0	290.7253670692444	0.1580808162689209
54	148.89082098007202	response	0	2		52.0	2.5	/experiments/knapen_aot/videos/S_yt-V5iQ3MbihnI_103.mp4	0.0	290.8753299713135	
54	148.89893889427185	movie	1		301.0	52.0	2.5	/experiments/knapen_aot/videos/S_yt-V5iQ3MbihnI_103.mp4	0.0	290.8834478855133	2.5085411071777344
54	151.40748000144958	fix_post	2		12.0	52.0	2.5	/experiments/knapen_aot/videos/S_yt-V5iQ3MbihnI_103.mp4	0.0	293.39198899269104	0.09987592697143555
55	151.50735592842102	fix_pre	0		17.0	53.0	2.5	/experiments/knapen_aot/videos/R_S_yt-CRw9-cCQqbg_332.mp4	0.0	293.4918649196625	0.14165115356445312
55	151.64086890220642	response	0	2		53.0	2.5	/experiments/knapen_aot/videos/R_S_yt-CRw9-cCQqbg_332.mp4	0.0	293.6253778934479	
55	151.64900708198547	movie	1		300.0	53.0	2.5	/experiments/knapen_aot/videos/R_S_yt-CRw9-cCQqbg_332.mp4	0.0	293.63351607322693	2.5084688663482666
55	154.15747594833374	fix_post	2		12.0	53.0	2.5	/experiments/knapen_aot/videos/R_S_yt-CRw9-cCQqbg_332.mp4	0.0	296.1419849395752	0.0999000072479248
56	154.25737595558167	fix_pre	0		14.0	54.0	2.5	/experiments/knapen_aot/videos/S_production_ID_4325509.mp4	0.0	296.2418849468231	0.11664295196533203
56	154.36589694023132	response	0	2		54.0	2.5	/experiments/knapen_aot/videos/S_production_ID_4325509.mp4	0.0	296.3504059314728	
56	154.374018907547	movie	1		195.0	54.0	2.5	/experiments/knapen_aot/videos/S_production_ID_4325509.mp4	0.0	296.35852789878845	2.50833797454834
56	156.88235688209534	fix_post	2		12.0	54.0	2.5	/experiments/knapen_aot/videos/S_production_ID_4325509.mp4	0.0	298.8668658733368	0.09997105598449707
57	156.98232793807983	fix_pre	0		8.0	55.0	2.5	/experiments/knapen_aot/videos/S_yt-y6JsUW0eSW8_32.mp4	0.0	298.9668369293213	0.06665301322937012
57	157.04080605506897	response	0	2		55.0	2.5	/experiments/knapen_aot/videos/S_yt-y6JsUW0eSW8_32.mp4	0.0	299.0253150463104	
57	157.0489809513092	movie	1		301.0	55.0	2.5	/experiments/knapen_aot/videos/S_yt-y6JsUW0eSW8_32.mp4	0.0	299.03348994255066	2.508388042449951
57	159.55736899375916	fix_post	2		12.0	55.0	2.5	/experiments/knapen_aot/videos/S_yt-y6JsUW0eSW8_32.mp4	0.0	301.5418779850006	0.10006403923034668
58	159.6574330329895	fix_pre	0		29.0	56.0	2.5	blank	1.0	301.64194202423096	0.2416238784790039
58	159.89082288742065	response	0	2		56.0	2.5	blank	1.0	301.8753318786621	
58	159.8990569114685	movie	1		301.0	56.0	2.5	blank	1.0	301.88356590270996	2.508315086364746
58	162.40737199783325	fix_post	2		12.0	56.0	2.5	blank	1.0	304.3918809890747	0.09991788864135742
59	162.5072898864746	fix_pre	0		28.0	57.0	2.5	/experiments/knapen_aot/videos/R_S_yt-kkbtZP78JxQ_96.mp4	0.0	304.49179887771606	0.24166512489318848
59	162.7407510280609	response	0	2		57.0	2.5	/experiments/knapen_aot/videos/R_S_yt-kkbtZP78JxQ_96.mp4	0.0	304.72526001930237	
59	162.7489550113678	movie	1		301.0	57.0	2.5	/experiments/knapen_aot/videos/R_S_yt-kkbtZP78JxQ_96.mp4	0.0	304.73346400260925	2.5083138942718506
59	165.25726890563965	fix_post	2		12.0	57.0	2.5	/experiments/knapen_aot/videos/R_S_yt-kkbtZP78JxQ_96.mp4	0.0	307.2417778968811	0.10005402565002441
60	165.35732293128967	fix_pre	0		13.0	58.0	2.5	/experiments/knapen_aot/videos/S_yt-uT4MXm0UBJM_64.mp4	0.0	307.3418319225311	0.10829901695251465
60	165.45739603042603	response	0	2		58.0	2.5	/experiments/knapen_aot/videos/S_yt-uT4MXm0UBJM_64.mp4	0.0	307.4419050216675	
60	165.4656219482422	movie	1		300.0	58.0	2.5	/experiments/knapen_aot/videos/S_yt-uT4MXm0UBJM_64.mp4	0.0	307.45013093948364	2.5082850456237793
60	167.97390699386597	fix_post	2		12.0	58.0	2.5	/experiments/knapen_aot/videos/S_yt-uT4MXm0UBJM_64.mp4	0.0	309.9584159851074	0.10004210472106934
61	168.07394909858704	fix_pre	0		50.0	59.0	2.5	/experiments/knapen_aot/videos/S_yt-CINajD_PVjQ_494.mp4	0.0	310.0584580898285	0.41666483879089355
61	168.47486805915833	response	0	2		59.0	2.5	/experiments/knapen_aot/videos/S_yt-CINajD_PVjQ_494.mp4	0.0	310.4593770503998	
61	168.49061393737793	movie	1		301.0	59.0	2.5	/experiments/knapen_aot/videos/S_yt-CINajD_PVjQ_494.mp4	0.0	310.4751229286194	2.5082919597625732
61	170.9989058971405	fix_post	2		12.0	59.0	2.5	/experiments/knapen_aot/videos/S_yt-CINajD_PVjQ_494.mp4	0.0	312.98341488838196	0.09999418258666992
62	171.09890007972717	fix_pre	0		54.0	60.0	2.5	/experiments/knapen_aot/videos/R_S_yt-WRBmpC-RxIc_678.mp4	0.0	313.0834090709686	0.44997286796569824
62	171.54066705703735	response	0	2		60.0	2.5	/experiments/knapen_aot/videos/R_S_yt-WRBmpC-RxIc_678.mp4	0.0	313.5251760482788	
62	171.54887294769287	movie	1		301.0	60.0	2.5	/experiments/knapen_aot/videos/R_S_yt-WRBmpC-RxIc_678.mp4	0.0	313.5333819389343	2.5083351135253906
62	174.05720806121826	fix_post	2		12.0	60.0	2.5	/experiments/knapen_aot/videos/R_S_yt-WRBmpC-RxIc_678.mp4	0.0	316.0417170524597	0.10007500648498535
63	174.15728306770325	fix_pre	0		20.0	61.0	2.5	/experiments/knapen_aot/videos/R_S_yt-R-SETZtYWaA_336.mp4	0.0	316.1417920589447	0.16656494140625
63	174.315691947937	response	0	2		61.0	2.5	/experiments/knapen_aot/videos/R_S_yt-R-SETZtYWaA_336.mp4	0.0	316.30020093917847	
63	174.3238480091095	movie	1		301.0	61.0	2.5	/experiments/knapen_aot/videos/R_S_yt-R-SETZtYWaA_336.mp4	0.0	316.30835700035095	2.5083529949188232
63	176.83220100402832	fix_post	2		12.0	61.0	2.5	/experiments/knapen_aot/videos/R_S_yt-R-SETZtYWaA_336.mp4	0.0	318.8167099952698	0.09999203681945801
64	176.93219304084778	fix_pre	0		14.0	62.0	2.5	/experiments/knapen_aot/videos/R_S_ILSVRC2015_train_00001009.mp4	0.0	318.91670203208923	0.11670184135437012
64	177.03319001197815	response	0	2		62.0	2.5	/experiments/knapen_aot/videos/R_S_ILSVRC2015_train_00001009.mp4	0.0	319.0176990032196	
64	177.04889488220215	movie	1		301.0	62.0	2.5	/experiments/knapen_aot/videos/R_S_ILSVRC2015_train_00001009.mp4	0.0	319.0334038734436	2.508514165878296
64	179.55740904808044	fix_post	2		12.0	62.0	2.5	/experiments/knapen_aot/videos/R_S_ILSVRC2015_train_00001009.mp4	0.0	321.5419180393219	0.09981393814086914
65	179.6572229862213	fix_pre	0		24.0	63.0	2.5	blank	1.0	321.64173197746277	0.19992494583129883
65	179.8414499759674	response	0	2		63.0	2.5	blank	1.0	321.82595896720886	
65	179.8571479320526	movie	1		301.0	63.0	2.5	blank	1.0	321.84165692329407	2.5083651542663574
65	182.36551308631897	fix_post	2		12.0	63.0	2.5	blank	1.0	324.3500220775604	0.10000181198120117
66	182.46551489830017	fix_pre	0		23.0	64.0	2.5	/experiments/knapen_aot/videos/S_yt-XF0fyyFEgWo_280.mp4	0.0	324.4500238895416	0.19156908988952637
66	182.64896607398987	response	0	2		64.0	2.5	/experiments/knapen_aot/videos/S_yt-XF0fyyFEgWo_280.mp4	0.0	324.6334750652313	
66	182.6570839881897	movie	1		301.0	64.0	2.5	/experiments/knapen_aot/videos/S_yt-XF0fyyFEgWo_280.mp4	0.0	324.64159297943115	2.5084829330444336
66	185.16556692123413	fix_post	2		12.0	64.0	2.5	/experiments/knapen_aot/videos/S_yt-XF0fyyFEgWo_280.mp4	0.0	327.1500759124756	0.10000205039978027
67	185.2655689716339	fix_pre	0		21.0	65.0	2.5	/experiments/knapen_aot/videos/R_S_pexels-mart-production-7698693.mp4	0.0	327.25007796287537	0.17635202407836914
67	185.4323329925537	response	0	2		65.0	2.5	/experiments/knapen_aot/videos/R_S_pexels-mart-production-7698693.mp4	0.0	327.41684198379517	
67	185.44192099571228	movie	1		197.0	65.0	2.5	/experiments/knapen_aot/videos/R_S_pexels-mart-production-7698693.mp4	0.0	327.42642998695374	2.5070860385894775
67	187.94900703430176	fix_post	2		12.0	65.0	2.5	/experiments/knapen_aot/videos/R_S_pexels-mart-production-7698693.mp4	0.0	329.9335160255432	0.09987592697143555
68	188.0488829612732	fix_pre	0		20.0	66.0	2.5	/experiments/knapen_aot/videos/S_yt-xQilXyNKsBw_42.mp4	0.0	330.03339195251465	0.16665101051330566
68	188.20732402801514	response	0	2		66.0	2.5	/experiments/knapen_aot/videos/S_yt-xQilXyNKsBw_42.mp4	0.0	330.1918330192566	
68	188.2155339717865	movie	1		301.0	66.0	2.5	/experiments/knapen_aot/videos/S_yt-xQilXyNKsBw_42.mp4	0.0	330.20004296302795	2.5082919597625732
68	190.72382593154907	fix_post	2		12.0	66.0	2.5	/experiments/knapen_aot/videos/S_yt-xQilXyNKsBw_42.mp4	0.0	332.7083349227905	0.09999203681945801
69	190.82381796836853	fix_pre	0		32.0	67.0	2.5	/experiments/knapen_aot/videos/R_S_pexels-cottonbro-10640532.mp4	0.0	332.80832695961	0.2666471004486084
69	191.08228087425232	response	0	2		67.0	2.5	/experiments/knapen_aot/videos/R_S_pexels-cottonbro-10640532.mp4	0.0	333.0667898654938	
69	191.09046506881714	movie	1		211.0	67.0	2.5	/experiments/knapen_aot/videos/R_S_pexels-cottonbro-10640532.mp4	0.0	333.0749740600586	2.5082709789276123
69	193.59873604774475	fix_post	2		12.0	67.0	2.5	/experiments/knapen_aot/videos/R_S_pexels-cottonbro-10640532.mp4	0.0	335.5832450389862	0.10010385513305664
70	193.6988399028778	fix_pre	0		38.0	68.0	2.5	/experiments/knapen_aot/videos/R_S_yt-y6JsUW0eSW8_32.mp4	0.0	335.68334889411926	0.3166320323944092
70	194.00727701187134	response	0	2		68.0	2.5	/experiments/knapen_aot/videos/R_S_yt-y6JsUW0eSW8_32.mp4	0.0	335.9917860031128	
70	194.01547193527222	movie	1		301.0	68.0	2.5	/experiments/knapen_aot/videos/R_S_yt-y6JsUW0eSW8_32.mp4	0.0	335.9999809265137	2.50833797454834
70	196.52380990982056	fix_post	2		12.0	68.0	2.5	/experiments/knapen_aot/videos/R_S_yt-y6JsUW0eSW8_32.mp4	0.0	338.508318901062	0.09992718696594238
71	196.6237370967865	fix_pre	0		133.0	69.0	2.5	blank	1.0	338.60824608802795	1.1083409786224365
71	197.72392201423645	response	0	2		69.0	2.5	blank	1.0	339.7084310054779	
71	197.73207807540894	movie	1		301.0	69.0	2.5	blank	1.0	339.7165870666504	2.508359909057617
71	200.24043798446655	fix_post	2		12.0	69.0	2.5	blank	1.0	342.224946975708	0.09993410110473633
72	200.3403720855713	fix_pre	0		42.0	70.0	2.5	/experiments/knapen_aot/videos/R_S_yt-xQPKYWDRy2A_491.mp4	0.0	342.32488107681274	0.3500239849090576
72	200.6822590827942	response	0	2		70.0	2.5	/experiments/knapen_aot/videos/R_S_yt-xQPKYWDRy2A_491.mp4	0.0	342.66676807403564	
72	200.69039607048035	movie	1		301.0	70.0	2.5	/experiments/knapen_aot/videos/R_S_yt-xQPKYWDRy2A_491.mp4	0.0	342.6749050617218	2.5083298683166504
72	203.198725938797	fix_post	2		12.0	70.0	2.5	/experiments/knapen_aot/videos/R_S_yt-xQPKYWDRy2A_491.mp4	0.0	345.18323493003845	0.10004210472106934
73	203.29876804351807	fix_pre	0		15.0	71.0	2.5	/experiments/knapen_aot/videos/S_yt-YLcmfyfIokU_64.mp4	0.0	345.2832770347595	0.12502694129943848
73	203.41548705101013	response	0	2		71.0	2.5	/experiments/knapen_aot/videos/S_yt-YLcmfyfIokU_64.mp4	0.0	345.3999960422516	
73	203.4237949848175	movie	1		301.0	71.0	2.5	/experiments/knapen_aot/videos/S_yt-YLcmfyfIokU_64.mp4	0.0	345.40830397605896	2.5082950592041016
73	205.9320900440216	fix_post	2		12.0	71.0	2.5	/experiments/knapen_aot/videos/S_yt-YLcmfyfIokU_64.mp4	0.0	347.91659903526306	0.10000300407409668
74	206.0320930480957	fix_pre	0		27.0	72.0	2.5	/experiments/knapen_aot/videos/R_S_ILSVRC2015_train_00444000.mp4	0.0	348.01660203933716	0.224992036819458
74	206.24888396263123	response	0	2		72.0	2.5	/experiments/knapen_aot/videos/R_S_ILSVRC2015_train_00444000.mp4	0.0	348.2333929538727	
74	206.25708508491516	movie	1		301.0	72.0	2.5	/experiments/knapen_aot/videos/R_S_ILSVRC2015_train_00444000.mp4	0.0	348.2415940761566	2.5083529949188232
74	208.76543807983398	fix_post	2		12.0	72.0	2.5	/experiments/knapen_aot/videos/R_S_ILSVRC2015_train_00444000.mp4	0.0	350.74994707107544	0.1000509262084961
75	208.86548900604248	fix_pre	0		19.0	73.0	2.5	/experiments/knapen_aot/videos/R_S_yt-LGwEki4ghNw_69.mp4	0.0	350.84999799728394	0.159498929977417
75	209.01561903953552	response	0	2		73.0	2.5	/experiments/knapen_aot/videos/R_S_yt-LGwEki4ghNw_69.mp4	0.0	351.000128030777	
75	209.0249879360199	movie	1		301.0	73.0	2.5	/experiments/knapen_aot/videos/R_S_yt-LGwEki4ghNw_69.mp4	0.0	351.00949692726135	2.5071499347686768
75	211.53213787078857	fix_post	2		12.0	73.0	2.5	/experiments/knapen_aot/videos/R_S_yt-LGwEki4ghNw_69.mp4	0.0	353.51664686203003	0.09993410110473633
76	211.6320719718933	fix_pre	0		7.0	74.0	2.5	/experiments/knapen_aot/videos/S_yt-0Ut9QANGX20_35.mp4	0.0	353.61658096313477	0.0595850944519043
76	211.6822350025177	response	0	2		74.0	2.5	/experiments/knapen_aot/videos/S_yt-0Ut9QANGX20_35.mp4	0.0	353.66674399375916	
76	211.69165706634521	movie	1		301.0	74.0	2.5	/experiments/knapen_aot/videos/S_yt-0Ut9QANGX20_35.mp4	0.0	353.67616605758667	2.507067918777466
76	214.19872498512268	fix_post	2		12.0	74.0	2.5	/experiments/knapen_aot/videos/S_yt-0Ut9QANGX20_35.mp4	0.0	356.18323397636414	0.10000109672546387
77	214.29872608184814	fix_pre	0		48.0	75.0	2.5	blank	1.0	356.2832350730896	0.40000486373901367
77	214.69048810005188	response	0	2		75.0	2.5	blank	1.0	356.67499709129333	
77	214.69873094558716	movie	1		301.0	75.0	2.5	blank	1.0	356.6832399368286	2.5083110332489014
77	217.20704197883606	fix_post	2		12.0	75.0	2.5	blank	1.0	359.1915509700775	0.09998011589050293
78	217.30702209472656	fix_pre	0		20.0	76.0	2.5	/experiments/knapen_aot/videos/R_S_yt-oPq1uvbw-lQ_62.mp4	0.0	359.291531085968	0.16657781600952148
78	217.46548008918762	response	0	2		76.0	2.5	/experiments/knapen_aot/videos/R_S_yt-oPq1uvbw-lQ_62.mp4	0.0	359.4499890804291	
78	217.47359991073608	movie	1		301.0	76.0	2.5	/experiments/knapen_aot/videos/R_S_yt-oPq1uvbw-lQ_62.mp4	0.0	359.45810890197754	2.5084121227264404
78	219.98201203346252	fix_post	2		12.0	76.0	2.5	/experiments/knapen_aot/videos/R_S_yt-oPq1uvbw-lQ_62.mp4	0.0	361.966521024704	0.10001492500305176
79	220.08202695846558	fix_pre	0		2.0	77.0	2.5	/experiments/knapen_aot/videos/S_yt-NqyG4Ar2JWo_10.mp4	0.0	362.06653594970703	0.016670942306518555
79	220.09052109718323	response	0	2		77.0	2.5	/experiments/knapen_aot/videos/S_yt-NqyG4Ar2JWo_10.mp4	0.0	362.0750300884247	
79	220.0986979007721	movie	1		301.0	77.0	2.5	/experiments/knapen_aot/videos/S_yt-NqyG4Ar2JWo_10.mp4	0.0	362.08320689201355	2.5082859992980957
79	222.6069839000702	fix_post	2		12.0	77.0	2.5	/experiments/knapen_aot/videos/S_yt-NqyG4Ar2JWo_10.mp4	0.0	364.59149289131165	0.10001897811889648
80	222.7070028781891	fix_pre	0		6.0	78.0	2.5	/experiments/knapen_aot/videos/R_S_ILSVRC2015_train_00067005.mp4	0.0	364.69151186943054	0.05002021789550781
80	222.7487690448761	response	0	2		78.0	2.5	/experiments/knapen_aot/videos/R_S_ILSVRC2015_train_00067005.mp4	0.0	364.73327803611755	
80	222.7570230960846	movie	1		301.0	78.0	2.5	/experiments/knapen_aot/videos/R_S_ILSVRC2015_train_00067005.mp4	0.0	364.74153208732605	2.508295774459839
80	225.26531887054443	fix_post	2		12.0	78.0	2.5	/experiments/knapen_aot/videos/R_S_ILSVRC2015_train_00067005.mp4	0.0	367.2498278617859	0.100006103515625
81	225.36532497406006	fix_pre	0		12.0	79.0	2.5	/experiments/knapen_aot/videos/R_S_pexels-koolshooters-7327412.mp4	0.0	367.3498339653015	0.09996891021728516
81	225.45709896087646	response	0	2		79.0	2.5	/experiments/knapen_aot/videos/R_S_pexels-koolshooters-7327412.mp4	0.0	367.4416079521179	
81	225.46529388427734	movie	1		166.0	79.0	2.5	/experiments/knapen_aot/videos/R_S_pexels-koolshooters-7327412.mp4	0.0	367.4498028755188	2.5083210468292236
81	227.97361493110657	fix_post	2		12.0	79.0	2.5	/experiments/knapen_aot/videos/R_S_pexels-koolshooters-7327412.mp4	0.0	369.958123922348	0.10005402565002441
82	228.0736689567566	fix_pre	0		3.0	80.0	2.5	/experiments/knapen_aot/videos/R_S_Oo8otu7cQ20_112.mp4	0.0	370.05817794799805	0.0250399112701416
82	228.09042191505432	response	0	2		80.0	2.5	/experiments/knapen_aot/videos/R_S_Oo8otu7cQ20_112.mp4	0.0	370.0749309062958	
82	228.09870886802673	movie	1		301.0	80.0	2.5	/experiments/knapen_aot/videos/R_S_Oo8otu7cQ20_112.mp4	0.0	370.0832178592682	2.508317232131958
82	230.6070261001587	fix_post	2		12.0	80.0	2.5	/experiments/knapen_aot/videos/R_S_Oo8otu7cQ20_112.mp4	0.0	372.59153509140015	0.09990191459655762
83	230.70692801475525	fix_pre	0		11.0	81.0	2.5	/experiments/knapen_aot/videos/R_S_yt-NqyG4Ar2JWo_10.mp4	0.0	372.6914370059967	0.09168696403503418
83	230.7906630039215	response	0	2		81.0	2.5	/experiments/knapen_aot/videos/R_S_yt-NqyG4Ar2JWo_10.mp4	0.0	372.77517199516296	
83	230.79861497879028	movie	1		300.0	81.0	2.5	/experiments/knapen_aot/videos/R_S_yt-NqyG4Ar2JWo_10.mp4	0.0	372.78312397003174	2.508327007293701
83	233.30694198608398	fix_post	2		12.0	81.0	2.5	/experiments/knapen_aot/videos/R_S_yt-NqyG4Ar2JWo_10.mp4	0.0	375.29145097732544	0.10002589225769043
84	233.40696787834167	fix_pre	0		42.0	82.0	2.5	blank	1.0	375.39147686958313	0.3500220775604248
84	233.74880290031433	response	0	2		82.0	2.5	blank	1.0	375.7333118915558	
84	233.7569899559021	movie	1		301.0	82.0	2.5	blank	1.0	375.74149894714355	2.5082499980926514
84	236.26523995399475	fix_post	2		12.0	82.0	2.5	blank	1.0	378.2497489452362	0.10013198852539062
85	236.36537194252014	fix_pre	0		23.0	83.0	2.5	/experiments/knapen_aot/videos/S_yt-4RKOPaRF42o_124.mp4	0.0	378.3498809337616	0.19156098365783691
85	236.54873895645142	response	0	2		83.0	2.5	/experiments/knapen_aot/videos/S_yt-4RKOPaRF42o_124.mp4	0.0	378.53324794769287	
85	236.55693292617798	movie	1		301.0	83.0	2.5	/experiments/knapen_aot/videos/S_yt-4RKOPaRF42o_124.mp4	0.0	378.54144191741943	2.508284091949463
85	239.06521701812744	fix_post	2		12.0	83.0	2.5	/experiments/knapen_aot/videos/S_yt-4RKOPaRF42o_124.mp4	0.0	381.0497260093689	0.10002994537353516
87	239.16524696350098	stim	0		137.0					381.14975595474243	1.144139051437378
87	239.39033389091492	response	0	2						381.3748428821564	
87	240.29624199867249	response	0	space						382.28075098991394	
