trial_nr	onset	event_type	phase	response	nr_frames	movie_index	movie_duration	movie_file	blank	onset_abs	duration
0	0.12514495849609375	stim	0		37.0					264.1049129962921	0.3099789619445801
0	0.42505502700805664	response	0	space						264.4048230648041	
1	0.43512392044067383	stim	0		121.0					264.4148919582367	1.0061719417572021
1	1.441295862197876	stim	1		120.0					265.4210638999939	1.0006849765777588
1	1.4997408390045166	response	1	space						265.47950887680054	
1	1.849665880203247	response	1	space						265.82943391799927	
2	2.4419808387756348	fix_pre	0		23.0	0.0	2.5	/experiments/knapen_aot/videos/S_ILSVRC2015_train_00417000.mp4	0.0	266.42174887657166	0.19096112251281738
2	2.6246578693389893	response	0	space		0.0	2.5	/experiments/knapen_aot/videos/S_ILSVRC2015_train_00417000.mp4	0.0	266.604425907135	
2	2.632941961288452	movie	1		300.0	0.0	2.5	/experiments/knapen_aot/videos/S_ILSVRC2015_train_00417000.mp4	0.0	266.6127099990845	2.508347988128662
2	5.141289949417114	fix_post	2		12.0	0.0	2.5	/experiments/knapen_aot/videos/S_ILSVRC2015_train_00417000.mp4	0.0	269.12105798721313	0.09996509552001953
3	5.241255044937134	fix_pre	0		87.0	1.0	2.5	/experiments/knapen_aot/videos/R_S_yt-e_eOzV7qMZo_374.mp4	0.0	269.22102308273315	0.7250039577484131
3	5.959975004196167	response	0	2		1.0	2.5	/experiments/knapen_aot/videos/R_S_yt-e_eOzV7qMZo_374.mp4	0.0	269.9397430419922	
3	5.966259002685547	movie	1		301.0	1.0	2.5	/experiments/knapen_aot/videos/R_S_yt-e_eOzV7qMZo_374.mp4	0.0	269.94602704048157	2.5083539485931396
3	8.474612951278687	fix_post	2		12.0	1.0	2.5	/experiments/knapen_aot/videos/R_S_yt-e_eOzV7qMZo_374.mp4	0.0	272.4543809890747	0.0999760627746582
4	8.574589014053345	fix_pre	0		70.0	2.0	2.5	/experiments/knapen_aot/videos/R_S_yt-1XfKrSmjtl4_443.mp4	0.0	272.55435705184937	0.5833048820495605
4	9.149656057357788	response	0	2		2.0	2.5	/experiments/knapen_aot/videos/R_S_yt-1XfKrSmjtl4_443.mp4	0.0	273.1294240951538	
4	9.157893896102905	movie	1		301.0	2.0	2.5	/experiments/knapen_aot/videos/R_S_yt-1XfKrSmjtl4_443.mp4	0.0	273.1376619338989	2.5083320140838623
4	11.666225910186768	fix_post	2		12.0	2.0	2.5	/experiments/knapen_aot/videos/R_S_yt-1XfKrSmjtl4_443.mp4	0.0	275.6459939479828	0.0999751091003418
5	11.76620101928711	fix_pre	0		77.0	3.0	2.5	/experiments/knapen_aot/videos/S_comp_N003_C006_PS_v01_SDR_PS_20180925_SDR_2K_AVC.mp4	0.0	275.74596905708313	0.6416099071502686
5	12.399694919586182	response	0	2		3.0	2.5	/experiments/knapen_aot/videos/S_comp_N003_C006_PS_v01_SDR_PS_20180925_SDR_2K_AVC.mp4	0.0	276.3794629573822	
5	12.407810926437378	movie	1		167.0	3.0	2.5	/experiments/knapen_aot/videos/S_comp_N003_C006_PS_v01_SDR_PS_20180925_SDR_2K_AVC.mp4	0.0	276.3875789642334	2.5084519386291504
5	14.916262865066528	fix_post	2		12.0	3.0	2.5	/experiments/knapen_aot/videos/S_comp_N003_C006_PS_v01_SDR_PS_20180925_SDR_2K_AVC.mp4	0.0	278.89603090286255	0.09999704360961914
6	15.016259908676147	fix_pre	0		67.0	4.0	2.5	/experiments/knapen_aot/videos/S_ILSVRC2015_train_00079001.mp4	0.0	278.99602794647217	0.5582871437072754
6	15.566313982009888	response	0	2		4.0	2.5	/experiments/knapen_aot/videos/S_ILSVRC2015_train_00079001.mp4	0.0	279.5460820198059	
6	15.574547052383423	movie	1		301.0	4.0	2.5	/experiments/knapen_aot/videos/S_ILSVRC2015_train_00079001.mp4	0.0	279.55431509017944	2.508373975753784
6	18.082921028137207	fix_post	2		12.0	4.0	2.5	/experiments/knapen_aot/videos/S_ILSVRC2015_train_00079001.mp4	0.0	282.0626890659332	0.09995102882385254
7	18.18287205696106	fix_pre	0		43.0	5.0	2.5	blank	1.0	282.1626400947571	0.3583488464355469
7	18.53303599357605	response	0	2		5.0	2.5	blank	1.0	282.51280403137207	
7	18.541220903396606	movie	1		301.0	5.0	2.5	blank	1.0	282.5209889411926	2.508363962173462
7	21.04958486557007	fix_post	2		12.0	5.0	2.5	blank	1.0	285.0293529033661	0.10008096694946289
8	21.14966583251953	fix_pre	0		58.0	6.0	2.5	/experiments/knapen_aot/videos/R_S_PA_A002_C009_SDR_20190730_ALT01_SDR_2K_AVC.mp4	0.0	285.12943387031555	0.4832911491394043
8	21.624645948410034	response	0	2		6.0	2.5	/experiments/knapen_aot/videos/R_S_PA_A002_C009_SDR_20190730_ALT01_SDR_2K_AVC.mp4	0.0	285.60441398620605	
8	21.632956981658936	movie	1		170.0	6.0	2.5	/experiments/knapen_aot/videos/R_S_PA_A002_C009_SDR_20190730_ALT01_SDR_2K_AVC.mp4	0.0	285.61272501945496	2.5082590579986572
8	24.141216039657593	fix_post	2		12.0	6.0	2.5	/experiments/knapen_aot/videos/R_S_PA_A002_C009_SDR_20190730_ALT01_SDR_2K_AVC.mp4	0.0	288.1209840774536	0.10000300407409668
9	24.24121904373169	fix_pre	0		70.0	7.0	2.5	/experiments/knapen_aot/videos/R_S_ILSVRC2015_train_00417000.mp4	0.0	288.2209870815277	0.5832428932189941
9	24.816335916519165	response	0	2		7.0	2.5	/experiments/knapen_aot/videos/R_S_ILSVRC2015_train_00417000.mp4	0.0	288.7961039543152	
9	24.824461936950684	movie	1		301.0	7.0	2.5	/experiments/knapen_aot/videos/R_S_ILSVRC2015_train_00417000.mp4	0.0	288.8042299747467	2.5084340572357178
9	27.3328959941864	fix_post	2		12.0	7.0	2.5	/experiments/knapen_aot/videos/R_S_ILSVRC2015_train_00417000.mp4	0.0	291.3126640319824	0.09996294975280762
10	27.43285894393921	fix_pre	0		46.0	8.0	2.5	/experiments/knapen_aot/videos/S_yt-nE8YJOhW4e4_171.mp4	0.0	291.41262698173523	0.3839149475097656
10	27.80791687965393	response	0	2		8.0	2.5	/experiments/knapen_aot/videos/S_yt-nE8YJOhW4e4_171.mp4	0.0	291.78768491744995	
10	27.816773891448975	movie	1		301.0	8.0	2.5	/experiments/knapen_aot/videos/S_yt-nE8YJOhW4e4_171.mp4	0.0	291.796541929245	2.5076639652252197
10	30.324437856674194	fix_post	2		12.0	8.0	2.5	/experiments/knapen_aot/videos/S_yt-nE8YJOhW4e4_171.mp4	0.0	294.3042058944702	0.10010099411010742
11	30.4245388507843	fix_pre	0		57.0	9.0	2.5	/experiments/knapen_aot/videos/S_yt-Xs7TCzdnUJQ_79.mp4	0.0	294.4043068885803	0.47550201416015625
11	30.891247034072876	response	0	2		9.0	2.5	/experiments/knapen_aot/videos/S_yt-Xs7TCzdnUJQ_79.mp4	0.0	294.8710150718689	
11	30.900040864944458	movie	1		301.0	9.0	2.5	/experiments/knapen_aot/videos/S_yt-Xs7TCzdnUJQ_79.mp4	0.0	294.8798089027405	2.507796049118042
11	33.4078369140625	fix_post	2		12.0	9.0	2.5	/experiments/knapen_aot/videos/S_yt-Xs7TCzdnUJQ_79.mp4	0.0	297.3876049518585	0.09998011589050293
12	33.507817029953	fix_pre	0		55.0	10.0	2.5	/experiments/knapen_aot/videos/S_yt-n_eO-7KedAE_21.mp4	0.0	297.487585067749	0.4583249092102051
12	33.957939863204956	response	0	2		10.0	2.5	/experiments/knapen_aot/videos/S_yt-n_eO-7KedAE_21.mp4	0.0	297.937707901001	
12	33.96614193916321	movie	1		301.0	10.0	2.5	/experiments/knapen_aot/videos/S_yt-n_eO-7KedAE_21.mp4	0.0	297.94590997695923	2.508462905883789
12	36.474604845047	fix_post	2		12.0	10.0	2.5	/experiments/knapen_aot/videos/S_yt-n_eO-7KedAE_21.mp4	0.0	300.454372882843	0.09999418258666992
13	36.57459902763367	fix_pre	0		58.0	11.0	2.5	/experiments/knapen_aot/videos/S_ILSVRC2015_test_00001002.mp4	0.0	300.5543670654297	0.483198881149292
13	37.0496039390564	response	0	2		11.0	2.5	/experiments/knapen_aot/videos/S_ILSVRC2015_test_00001002.mp4	0.0	301.0293719768524	
13	37.05779790878296	movie	1		301.0	11.0	2.5	/experiments/knapen_aot/videos/S_ILSVRC2015_test_00001002.mp4	0.0	301.037565946579	2.5083630084991455
13	39.566160917282104	fix_post	2		12.0	11.0	2.5	/experiments/knapen_aot/videos/S_ILSVRC2015_test_00001002.mp4	0.0	303.5459289550781	0.10002398490905762
14	39.66618490219116	fix_pre	0		49.0	12.0	2.5	blank	1.0	303.6459529399872	0.4082050323486328
14	40.066290855407715	response	0	2		12.0	2.5	blank	1.0	304.04605889320374	
14	40.074389934539795	movie	1		301.0	12.0	2.5	blank	1.0	304.0541579723358	2.508420944213867
14	42.58281087875366	fix_post	2		12.0	12.0	2.5	blank	1.0	306.5625789165497	0.09999918937683105
15	42.68281006813049	fix_pre	0		49.0	13.0	2.5	/experiments/knapen_aot/videos/R_S_yt-F2x6e7e7cAE_70.mp4	0.0	306.6625781059265	0.4082009792327881
15	43.082902908325195	response	0	2		13.0	2.5	/experiments/knapen_aot/videos/R_S_yt-F2x6e7e7cAE_70.mp4	0.0	307.0626709461212	
15	43.09101104736328	movie	1		301.0	13.0	2.5	/experiments/knapen_aot/videos/R_S_yt-F2x6e7e7cAE_70.mp4	0.0	307.0707790851593	2.5084409713745117
15	45.59945201873779	fix_post	2		12.0	13.0	2.5	/experiments/knapen_aot/videos/R_S_yt-F2x6e7e7cAE_70.mp4	0.0	309.5792200565338	0.10009503364562988
16	45.69954705238342	fix_pre	0		38.0	14.0	2.5	/experiments/knapen_aot/videos/S_yt-PaxmJhMoP3w_87.mp4	0.0	309.67931509017944	0.3167428970336914
16	46.00782585144043	response	0	2		14.0	2.5	/experiments/knapen_aot/videos/S_yt-PaxmJhMoP3w_87.mp4	0.0	309.98759388923645	
16	46.016289949417114	movie	1		301.0	14.0	2.5	/experiments/knapen_aot/videos/S_yt-PaxmJhMoP3w_87.mp4	0.0	309.99605798721313	2.5082359313964844
16	48.5245258808136	fix_post	2		12.0	14.0	2.5	/experiments/knapen_aot/videos/S_yt-PaxmJhMoP3w_87.mp4	0.0	312.5042939186096	0.09988903999328613
17	48.624414920806885	fix_pre	0		37.0	15.0	2.5	/experiments/knapen_aot/videos/R_S_ILSVRC2015_train_00447000.mp4	0.0	312.6041829586029	0.30823707580566406
17	48.92455005645752	response	0	2		15.0	2.5	/experiments/knapen_aot/videos/R_S_ILSVRC2015_train_00447000.mp4	0.0	312.90431809425354	
17	48.93265199661255	movie	1		301.0	15.0	2.5	/experiments/knapen_aot/videos/R_S_ILSVRC2015_train_00447000.mp4	0.0	312.91242003440857	2.508420944213867
17	51.441072940826416	fix_post	2		12.0	15.0	2.5	/experiments/knapen_aot/videos/R_S_ILSVRC2015_train_00447000.mp4	0.0	315.42084097862244	0.10003089904785156
18	51.54110383987427	fix_pre	0		42.0	16.0	2.5	/experiments/knapen_aot/videos/R_S_yt-JkKOG9Fxykc_94.mp4	0.0	315.5208718776703	0.34992003440856934
18	51.8828809261322	response	0	2		16.0	2.5	/experiments/knapen_aot/videos/R_S_yt-JkKOG9Fxykc_94.mp4	0.0	315.8626489639282	
18	51.89102387428284	movie	1		301.0	16.0	2.5	/experiments/knapen_aot/videos/R_S_yt-JkKOG9Fxykc_94.mp4	0.0	315.87079191207886	2.50838303565979
18	54.39940690994263	fix_post	2		12.0	16.0	2.5	/experiments/knapen_aot/videos/R_S_yt-JkKOG9Fxykc_94.mp4	0.0	318.37917494773865	0.10001993179321289
19	54.49942684173584	fix_pre	0		41.0	17.0	2.5	/experiments/knapen_aot/videos/R_S_yt-Jro_TRE8NUQ_234.mp4	0.0	318.47919487953186	0.34160804748535156
19	54.8327579498291	response	0	2		17.0	2.5	/experiments/knapen_aot/videos/R_S_yt-Jro_TRE8NUQ_234.mp4	0.0	318.8125259876251	
19	54.84103488922119	movie	1		301.0	17.0	2.5	/experiments/knapen_aot/videos/R_S_yt-Jro_TRE8NUQ_234.mp4	0.0	318.8208029270172	2.508376121520996
19	57.34941101074219	fix_post	2		12.0	17.0	2.5	/experiments/knapen_aot/videos/R_S_yt-Jro_TRE8NUQ_234.mp4	0.0	321.3291790485382	0.10008001327514648
20	57.449491024017334	fix_pre	0		41.0	18.0	2.5	/experiments/knapen_aot/videos/R_S_comp_A050_C004_1027V8_v16_SDR_FINAL_20180706_SDR_2K_AVC.mp4	0.0	321.42925906181335	0.34155988693237305
20	57.77534604072571	response	0	2		18.0	2.5	/experiments/knapen_aot/videos/R_S_comp_A050_C004_1027V8_v16_SDR_FINAL_20180706_SDR_2K_AVC.mp4	0.0	321.75511407852173	
20	57.79105091094971	movie	1		169.0	18.0	2.5	/experiments/knapen_aot/videos/R_S_comp_A050_C004_1027V8_v16_SDR_FINAL_20180706_SDR_2K_AVC.mp4	0.0	321.7708189487457	2.508441925048828
20	60.299492835998535	fix_post	2		12.0	18.0	2.5	/experiments/knapen_aot/videos/R_S_comp_A050_C004_1027V8_v16_SDR_FINAL_20180706_SDR_2K_AVC.mp4	0.0	324.27926087379456	0.10051321983337402
21	60.40000605583191	fix_pre	0		38.0	19.0	2.5	blank	1.0	324.37977409362793	0.3160378932952881
21	60.7077419757843	response	0	2		19.0	2.5	blank	1.0	324.6875100135803	
21	60.7160439491272	movie	1		301.0	19.0	2.5	blank	1.0	324.6958119869232	2.5083720684051514
21	63.22441601753235	fix_post	2		12.0	19.0	2.5	blank	1.0	327.20418405532837	0.09998297691345215
22	63.3243989944458	fix_pre	0		48.0	20.0	2.5	/experiments/knapen_aot/videos/S_yt-giRwl4yChlw_9.mp4	0.0	327.3041670322418	0.3999600410461426
22	63.7161910533905	response	0	2		20.0	2.5	/experiments/knapen_aot/videos/S_yt-giRwl4yChlw_9.mp4	0.0	327.6959590911865	
22	63.72435903549194	movie	1		301.0	20.0	2.5	/experiments/knapen_aot/videos/S_yt-giRwl4yChlw_9.mp4	0.0	327.70412707328796	2.508342981338501
22	66.23270201683044	fix_post	2		12.0	20.0	2.5	/experiments/knapen_aot/videos/S_yt-giRwl4yChlw_9.mp4	0.0	330.21247005462646	0.09999585151672363
23	66.33269786834717	fix_pre	0		64.0	21.0	2.5	/experiments/knapen_aot/videos/R_S_ILSVRC2015_train_00723001.mp4	0.0	330.3124659061432	0.533329963684082
23	66.85783386230469	response	0	2		21.0	2.5	/experiments/knapen_aot/videos/R_S_ILSVRC2015_train_00723001.mp4	0.0	330.8376019001007	
23	66.86602783203125	movie	1		301.0	21.0	2.5	/experiments/knapen_aot/videos/R_S_ILSVRC2015_train_00723001.mp4	0.0	330.84579586982727	2.5083022117614746
23	69.37433004379272	fix_post	2		12.0	21.0	2.5	/experiments/knapen_aot/videos/R_S_ILSVRC2015_train_00723001.mp4	0.0	333.35409808158875	0.1000208854675293
24	69.47435092926025	fix_pre	0		42.0	22.0	2.5	/experiments/knapen_aot/videos/S_yt-Jro_TRE8NUQ_234.mp4	0.0	333.4541189670563	0.34995603561401367
24	69.8161199092865	response	0	2		22.0	2.5	/experiments/knapen_aot/videos/S_yt-Jro_TRE8NUQ_234.mp4	0.0	333.7958879470825	
24	69.82430696487427	movie	1		301.0	22.0	2.5	/experiments/knapen_aot/videos/S_yt-Jro_TRE8NUQ_234.mp4	0.0	333.8040750026703	2.5085949897766113
24	72.33290195465088	fix_post	2		12.0	22.0	2.5	/experiments/knapen_aot/videos/S_yt-Jro_TRE8NUQ_234.mp4	0.0	336.3126699924469	0.09975910186767578
25	72.43266105651855	fix_pre	0		32.0	23.0	2.5	/experiments/knapen_aot/videos/S_yt-5AI_SyK5sg8_112.mp4	0.0	336.4124290943146	0.2666738033294678
25	72.69107985496521	response	0	2		23.0	2.5	/experiments/knapen_aot/videos/S_yt-5AI_SyK5sg8_112.mp4	0.0	336.67084789276123	
25	72.69933485984802	movie	1		301.0	23.0	2.5	/experiments/knapen_aot/videos/S_yt-5AI_SyK5sg8_112.mp4	0.0	336.67910289764404	2.5083119869232178
25	75.20764684677124	fix_post	2		12.0	23.0	2.5	/experiments/knapen_aot/videos/S_yt-5AI_SyK5sg8_112.mp4	0.0	339.18741488456726	0.10002899169921875
26	75.30767583847046	fix_pre	0		47.0	24.0	2.5	/experiments/knapen_aot/videos/R_S_yt-F2x6e7e7cAE_70.mp4	0.0	339.2874438762665	0.39162421226501465
26	75.69117498397827	response	0	2		24.0	2.5	/experiments/knapen_aot/videos/R_S_yt-F2x6e7e7cAE_70.mp4	0.0	339.6709430217743	
26	75.69930005073547	movie	1		301.0	24.0	2.5	/experiments/knapen_aot/videos/R_S_yt-F2x6e7e7cAE_70.mp4	0.0	339.6790680885315	2.508349895477295
26	78.20764994621277	fix_post	2		12.0	24.0	2.5	/experiments/knapen_aot/videos/R_S_yt-F2x6e7e7cAE_70.mp4	0.0	342.1874179840088	0.10023307800292969
27	78.3078830242157	fix_pre	0		30.0	25.0	2.5	/experiments/knapen_aot/videos/R_S_yt-5doJmCcFL7s_3.mp4	0.0	342.2876510620117	0.24970293045043945
27	78.54952001571655	response	0	2		25.0	2.5	/experiments/knapen_aot/videos/R_S_yt-5doJmCcFL7s_3.mp4	0.0	342.5292880535126	
27	78.55758595466614	movie	1		301.0	25.0	2.5	/experiments/knapen_aot/videos/R_S_yt-5doJmCcFL7s_3.mp4	0.0	342.53735399246216	2.5085980892181396
27	81.06618404388428	fix_post	2		12.0	25.0	2.5	/experiments/knapen_aot/videos/R_S_yt-5doJmCcFL7s_3.mp4	0.0	345.0459520816803	0.09975290298461914
28	81.1659369468689	fix_pre	0		35.0	26.0	2.5	blank	1.0	345.1457049846649	0.2917311191558838
28	81.4494400024414	response	0	2		26.0	2.5	blank	1.0	345.4292080402374	
28	81.45766806602478	movie	1		301.0	26.0	2.5	blank	1.0	345.4374361038208	2.508704900741577
28	83.96637296676636	fix_post	2		12.0	26.0	2.5	blank	1.0	347.9461410045624	0.09964704513549805
29	84.06602001190186	fix_pre	0		36.0	27.0	2.5	/experiments/knapen_aot/videos/R_S_yt-Wr5vs_0Iypw_161.mp4	0.0	348.0457880496979	0.29990386962890625
29	84.35768103599548	response	0	2		27.0	2.5	/experiments/knapen_aot/videos/R_S_yt-Wr5vs_0Iypw_161.mp4	0.0	348.3374490737915	
29	84.36592388153076	movie	1		301.0	27.0	2.5	/experiments/knapen_aot/videos/R_S_yt-Wr5vs_0Iypw_161.mp4	0.0	348.3456919193268	2.5083911418914795
29	86.87431502342224	fix_post	2		12.0	27.0	2.5	/experiments/knapen_aot/videos/R_S_yt-Wr5vs_0Iypw_161.mp4	0.0	350.85408306121826	0.09997200965881348
30	86.97428703308105	fix_pre	0		48.0	28.0	2.5	/experiments/knapen_aot/videos/S_yt-IlW1U39Dga4_5.mp4	0.0	350.9540550708771	0.3999629020690918
30	87.3660478591919	response	0	2		28.0	2.5	/experiments/knapen_aot/videos/S_yt-IlW1U39Dga4_5.mp4	0.0	351.3458158969879	
30	87.37424993515015	movie	1		301.0	28.0	2.5	/experiments/knapen_aot/videos/S_yt-IlW1U39Dga4_5.mp4	0.0	351.35401797294617	2.5084080696105957
30	89.88265800476074	fix_post	2		12.0	28.0	2.5	/experiments/knapen_aot/videos/S_yt-IlW1U39Dga4_5.mp4	0.0	353.86242604255676	0.10035586357116699
31	89.98301386833191	fix_pre	0		40.0	29.0	2.5	/experiments/knapen_aot/videos/S_yt-gC3my54_ChQ_58.mp4	0.0	353.96278190612793	0.3331301212310791
31	90.30772590637207	response	0	2		29.0	2.5	/experiments/knapen_aot/videos/S_yt-gC3my54_ChQ_58.mp4	0.0	354.2874939441681	
31	90.31614398956299	movie	1		301.0	29.0	2.5	/experiments/knapen_aot/videos/S_yt-gC3my54_ChQ_58.mp4	0.0	354.295912027359	2.5082499980926514
31	92.82439398765564	fix_post	2		12.0	29.0	2.5	/experiments/knapen_aot/videos/S_yt-gC3my54_ChQ_58.mp4	0.0	356.80416202545166	0.09986591339111328
32	92.92425990104675	fix_pre	0		46.0	30.0	2.5	/experiments/knapen_aot/videos/S_yt-y2RUPYKfBZs_12.mp4	0.0	356.9040279388428	0.38329505920410156
32	93.2994339466095	response	0	2		30.0	2.5	/experiments/knapen_aot/videos/S_yt-y2RUPYKfBZs_12.mp4	0.0	357.2792019844055	
32	93.30755496025085	movie	1		301.0	30.0	2.5	/experiments/knapen_aot/videos/S_yt-y2RUPYKfBZs_12.mp4	0.0	357.2873229980469	2.508380889892578
32	95.81593585014343	fix_post	2		12.0	30.0	2.5	/experiments/knapen_aot/videos/S_yt-y2RUPYKfBZs_12.mp4	0.0	359.79570388793945	0.10011005401611328
33	95.91604590415955	fix_pre	0		37.0	31.0	2.5	/experiments/knapen_aot/videos/S_WO9z7lBUvOs_151.mp4	0.0	359.89581394195557	0.3097951412200928
33	96.21601295471191	response	0	2		31.0	2.5	/experiments/knapen_aot/videos/S_WO9z7lBUvOs_151.mp4	0.0	360.19578099250793	
33	96.22584104537964	movie	1		301.0	31.0	2.5	/experiments/knapen_aot/videos/S_WO9z7lBUvOs_151.mp4	0.0	360.20560908317566	2.5067708492279053
33	98.73261189460754	fix_post	2		12.0	31.0	2.5	/experiments/knapen_aot/videos/S_WO9z7lBUvOs_151.mp4	0.0	362.71237993240356	0.09987711906433105
34	98.83248901367188	fix_pre	0		46.0	32.0	2.5	/experiments/knapen_aot/videos/R_S_production_ID_5182928.mp4	0.0	362.8122570514679	0.3833730220794678
34	99.20763301849365	response	0	2		32.0	2.5	/experiments/knapen_aot/videos/R_S_production_ID_5182928.mp4	0.0	363.1874010562897	
34	99.21586203575134	movie	1		173.0	32.0	2.5	/experiments/knapen_aot/videos/R_S_production_ID_5182928.mp4	0.0	363.19563007354736	2.50834584236145
34	101.7242078781128	fix_post	2		12.0	32.0	2.5	/experiments/knapen_aot/videos/R_S_production_ID_5182928.mp4	0.0	365.7039759159088	0.10004305839538574
35	101.82425093650818	fix_pre	0		30.0	33.0	2.5	/experiments/knapen_aot/videos/S_yt-m8HxO_-RRq0_127.mp4	0.0	365.8040189743042	0.24994301795959473
35	102.05844902992249	response	0	2		33.0	2.5	/experiments/knapen_aot/videos/S_yt-m8HxO_-RRq0_127.mp4	0.0	366.0382170677185	
35	102.07419395446777	movie	1		301.0	33.0	2.5	/experiments/knapen_aot/videos/S_yt-m8HxO_-RRq0_127.mp4	0.0	366.0539619922638	2.5083630084991455
35	104.58255696296692	fix_post	2		12.0	33.0	2.5	/experiments/knapen_aot/videos/S_yt-m8HxO_-RRq0_127.mp4	0.0	368.56232500076294	0.09995508193969727
36	104.68251204490662	fix_pre	0		66.0	34.0	2.5	blank	1.0	368.66228008270264	0.5502109527587891
36	105.22436094284058	response	0	2		34.0	2.5	blank	1.0	369.2041289806366	
36	105.2327229976654	movie	1		301.0	34.0	2.5	blank	1.0	369.2124910354614	2.5081019401550293
36	107.74082493782043	fix_post	2		12.0	34.0	2.5	blank	1.0	371.72059297561646	0.1000370979309082
37	107.84086203575134	fix_pre	0		88.0	35.0	2.5	/experiments/knapen_aot/videos/R_S_yt-1XfKrSmjtl4_443.mp4	0.0	371.82063007354736	0.7332909107208252
37	108.56601595878601	response	0	2		35.0	2.5	/experiments/knapen_aot/videos/R_S_yt-1XfKrSmjtl4_443.mp4	0.0	372.54578399658203	
37	108.57415294647217	movie	1		301.0	35.0	2.5	/experiments/knapen_aot/videos/R_S_yt-1XfKrSmjtl4_443.mp4	0.0	372.5539209842682	2.5084478855133057
37	111.08260083198547	fix_post	2		12.0	35.0	2.5	/experiments/knapen_aot/videos/R_S_yt-1XfKrSmjtl4_443.mp4	0.0	375.0623688697815	0.09983110427856445
38	111.18243193626404	fix_pre	0		68.0	36.0	2.5	/experiments/knapen_aot/videos/S_yt-ol2u_-gd0-o_13.mp4	0.0	375.16219997406006	0.5666720867156982
38	111.74095106124878	response	0	2		36.0	2.5	/experiments/knapen_aot/videos/S_yt-ol2u_-gd0-o_13.mp4	0.0	375.7207190990448	
38	111.74910402297974	movie	1		301.0	36.0	2.5	/experiments/knapen_aot/videos/S_yt-ol2u_-gd0-o_13.mp4	0.0	375.72887206077576	2.508354902267456
38	114.25745892524719	fix_post	2		12.0	36.0	2.5	/experiments/knapen_aot/videos/S_yt-ol2u_-gd0-o_13.mp4	0.0	378.2372269630432	0.10029196739196777
39	114.35775089263916	fix_pre	0		84.0	37.0	2.5	/experiments/knapen_aot/videos/S_yt-XBAU3cq0rZs_150.mp4	0.0	378.3375189304352	0.6997389793395996
39	115.04928994178772	response	0	2		37.0	2.5	/experiments/knapen_aot/videos/S_yt-XBAU3cq0rZs_150.mp4	0.0	379.02905797958374	
39	115.05748987197876	movie	1		301.0	37.0	2.5	/experiments/knapen_aot/videos/S_yt-XBAU3cq0rZs_150.mp4	0.0	379.0372579097748	2.5083141326904297
39	117.56580400466919	fix_post	2		12.0	37.0	2.5	/experiments/knapen_aot/videos/S_yt-XBAU3cq0rZs_150.mp4	0.0	381.5455720424652	0.10003995895385742
40	117.66584396362305	fix_pre	0		57.0	38.0	2.5	/experiments/knapen_aot/videos/S_ILSVRC2015_train_00155004.mp4	0.0	381.64561200141907	0.4748659133911133
40	118.13261198997498	response	0	2		38.0	2.5	/experiments/knapen_aot/videos/S_ILSVRC2015_train_00155004.mp4	0.0	382.112380027771	
40	118.14070987701416	movie	1		301.0	38.0	2.5	/experiments/knapen_aot/videos/S_ILSVRC2015_train_00155004.mp4	0.0	382.1204779148102	2.5085160732269287
40	120.64922595024109	fix_post	2		12.0	38.0	2.5	/experiments/knapen_aot/videos/S_ILSVRC2015_train_00155004.mp4	0.0	384.6289939880371	0.09990310668945312
41	120.74912905693054	fix_pre	0		37.0	39.0	2.5	/experiments/knapen_aot/videos/R_S_yt-Dj42sI_Z-kQ_38.mp4	0.0	384.72889709472656	0.3083019256591797
41	121.04929184913635	response	0	2		39.0	2.5	/experiments/knapen_aot/videos/R_S_yt-Dj42sI_Z-kQ_38.mp4	0.0	385.0290598869324	
41	121.05743098258972	movie	1		301.0	39.0	2.5	/experiments/knapen_aot/videos/R_S_yt-Dj42sI_Z-kQ_38.mp4	0.0	385.03719902038574	2.5084800720214844
41	123.5659110546112	fix_post	2		12.0	39.0	2.5	/experiments/knapen_aot/videos/R_S_yt-Dj42sI_Z-kQ_38.mp4	0.0	387.5456790924072	0.09984397888183594
42	123.66575503349304	fix_pre	0		41.0	40.0	2.5	/experiments/knapen_aot/videos/S_yt-eczLsCTIyn0_553.mp4	0.0	387.64552307128906	0.34163999557495117
42	123.99927592277527	response	0	2		40.0	2.5	/experiments/knapen_aot/videos/S_yt-eczLsCTIyn0_553.mp4	0.0	387.9790439605713	
42	124.007395029068	movie	1		301.0	40.0	2.5	/experiments/knapen_aot/videos/S_yt-eczLsCTIyn0_553.mp4	0.0	387.987163066864	2.5083730220794678
42	126.51576805114746	fix_post	2		12.0	40.0	2.5	/experiments/knapen_aot/videos/S_yt-eczLsCTIyn0_553.mp4	0.0	390.4955360889435	0.10022783279418945
43	126.61599588394165	fix_pre	0		46.0	41.0	2.5	blank	1.0	390.59576392173767	0.3830380439758301
43	126.99079394340515	response	0	2		41.0	2.5	blank	1.0	390.9705619812012	
43	126.99903392791748	movie	1		301.0	41.0	2.5	blank	1.0	390.9788019657135	2.5083649158477783
43	129.50739884376526	fix_post	2		12.0	41.0	2.5	blank	1.0	393.4871668815613	0.10038614273071289
44	129.60778498649597	fix_pre	0		56.0	42.0	2.5	/experiments/knapen_aot/videos/S_yt-1XfKrSmjtl4_443.mp4	0.0	393.587553024292	0.4662759304046631
44	130.06580090522766	response	0	2		42.0	2.5	/experiments/knapen_aot/videos/S_yt-1XfKrSmjtl4_443.mp4	0.0	394.0455689430237	
44	130.07406091690063	movie	1		301.0	42.0	2.5	/experiments/knapen_aot/videos/S_yt-1XfKrSmjtl4_443.mp4	0.0	394.05382895469666	2.5084729194641113
44	132.58253383636475	fix_post	2		12.0	42.0	2.5	/experiments/knapen_aot/videos/S_yt-1XfKrSmjtl4_443.mp4	0.0	396.56230187416077	0.09987211227416992
45	132.68240594863892	fix_pre	0		47.0	43.0	2.5	/experiments/knapen_aot/videos/S_yt-XbigWWtnGL4_75.mp4	0.0	396.66217398643494	0.39163804054260254
45	133.05834794044495	response	0	2		43.0	2.5	/experiments/knapen_aot/videos/S_yt-XbigWWtnGL4_75.mp4	0.0	397.03811597824097	
45	133.07404398918152	movie	1		301.0	43.0	2.5	/experiments/knapen_aot/videos/S_yt-XbigWWtnGL4_75.mp4	0.0	397.05381202697754	2.5083858966827393
45	135.58242988586426	fix_post	2		12.0	43.0	2.5	/experiments/knapen_aot/videos/S_yt-XbigWWtnGL4_75.mp4	0.0	399.5621979236603	0.09995698928833008
46	135.6823868751526	fix_pre	0		51.0	44.0	2.5	/experiments/knapen_aot/videos/S_yt-Iu2ZPHLqXuY_32.mp4	0.0	399.6621549129486	0.4250049591064453
46	136.09916996955872	response	0	2		44.0	2.5	/experiments/knapen_aot/videos/S_yt-Iu2ZPHLqXuY_32.mp4	0.0	400.07893800735474	
46	136.10739183425903	movie	1		301.0	44.0	2.5	/experiments/knapen_aot/videos/S_yt-Iu2ZPHLqXuY_32.mp4	0.0	400.08715987205505	2.5084540843963623
46	138.6158459186554	fix_post	2		12.0	44.0	2.5	/experiments/knapen_aot/videos/S_yt-Iu2ZPHLqXuY_32.mp4	0.0	402.5956139564514	0.09990811347961426
47	138.715754032135	fix_pre	0		55.0	45.0	2.5	/experiments/knapen_aot/videos/S_g201_WH_D004_L014_SDR_20191031_SDR_2K_AVC.mp4	0.0	402.69552206993103	0.4582958221435547
47	139.1658730506897	response	0	2		45.0	2.5	/experiments/knapen_aot/videos/S_g201_WH_D004_L014_SDR_20191031_SDR_2K_AVC.mp4	0.0	403.1456410884857	
47	139.17404985427856	movie	1		168.0	45.0	2.5	/experiments/knapen_aot/videos/S_g201_WH_D004_L014_SDR_20191031_SDR_2K_AVC.mp4	0.0	403.1538178920746	2.508303165435791
47	141.68235301971436	fix_post	2		12.0	45.0	2.5	/experiments/knapen_aot/videos/S_g201_WH_D004_L014_SDR_20191031_SDR_2K_AVC.mp4	0.0	405.6621210575104	0.10012984275817871
48	141.78248286247253	fix_pre	0		44.0	46.0	2.5	/experiments/knapen_aot/videos/R_S_G007_C004_UHD_SDR_2K_AVC.mp4	0.0	405.76225090026855	0.3665041923522949
48	142.14082598686218	response	0	2		46.0	2.5	/experiments/knapen_aot/videos/R_S_G007_C004_UHD_SDR_2K_AVC.mp4	0.0	406.1205940246582	
48	142.14898705482483	movie	1		170.0	46.0	2.5	/experiments/knapen_aot/videos/R_S_G007_C004_UHD_SDR_2K_AVC.mp4	0.0	406.12875509262085	2.5084259510040283
48	144.65741300582886	fix_post	2		12.0	46.0	2.5	/experiments/knapen_aot/videos/R_S_G007_C004_UHD_SDR_2K_AVC.mp4	0.0	408.6371810436249	0.09994983673095703
49	144.75736284255981	fix_pre	0		88.0	47.0	2.5	/experiments/knapen_aot/videos/S_yt-XUnZ7FbBtvk_162.mp4	0.0	408.73713088035583	0.7332751750946045
49	145.48248505592346	response	0	2		47.0	2.5	/experiments/knapen_aot/videos/S_yt-XUnZ7FbBtvk_162.mp4	0.0	409.4622530937195	
49	145.49063801765442	movie	1		301.0	47.0	2.5	/experiments/knapen_aot/videos/S_yt-XUnZ7FbBtvk_162.mp4	0.0	409.47040605545044	2.508453845977783
49	147.9990918636322	fix_post	2		12.0	47.0	2.5	/experiments/knapen_aot/videos/S_yt-XUnZ7FbBtvk_162.mp4	0.0	411.9788599014282	0.09991598129272461
50	148.09900784492493	fix_pre	0		64.0	48.0	2.5	blank	1.0	412.07877588272095	0.5333251953125
50	148.62408089637756	response	0	2		48.0	2.5	blank	1.0	412.6038489341736	
50	148.63233304023743	movie	1		301.0	48.0	2.5	blank	1.0	412.61210107803345	2.508366823196411
50	151.14069986343384	fix_post	2		12.0	48.0	2.5	blank	1.0	415.12046790122986	0.10029101371765137
51	151.2409908771515	fix_pre	0		57.0	49.0	2.5	/experiments/knapen_aot/videos/S_yt-GfPep7IhZIU_47.mp4	0.0	415.2207589149475	0.4745941162109375
51	151.70742988586426	response	0	2		49.0	2.5	/experiments/knapen_aot/videos/S_yt-GfPep7IhZIU_47.mp4	0.0	415.6871979236603	
51	151.71558499336243	movie	1		301.0	49.0	2.5	/experiments/knapen_aot/videos/S_yt-GfPep7IhZIU_47.mp4	0.0	415.69535303115845	2.5083420276641846
51	154.2239270210266	fix_post	2		12.0	49.0	2.5	/experiments/knapen_aot/videos/S_yt-GfPep7IhZIU_47.mp4	0.0	418.20369505882263	0.1000669002532959
52	154.3239939212799	fix_pre	0		51.0	50.0	2.5	/experiments/knapen_aot/videos/R_S_yt-z16pdVTZK1o_3.mp4	0.0	418.3037619590759	0.4249570369720459
52	154.74077606201172	response	0	2		50.0	2.5	/experiments/knapen_aot/videos/R_S_yt-z16pdVTZK1o_3.mp4	0.0	418.72054409980774	
52	154.74895095825195	movie	1		301.0	50.0	2.5	/experiments/knapen_aot/videos/R_S_yt-z16pdVTZK1o_3.mp4	0.0	418.728718996048	2.5083699226379395
52	157.2573208808899	fix_post	2		12.0	50.0	2.5	/experiments/knapen_aot/videos/R_S_yt-z16pdVTZK1o_3.mp4	0.0	421.2370889186859	0.09994316101074219
53	157.35726404190063	fix_pre	0		37.0	51.0	2.5	/experiments/knapen_aot/videos/S_yt-SRozDkhwx28_1463.mp4	0.0	421.33703207969666	0.30832386016845703
53	157.65742087364197	response	0	2		51.0	2.5	/experiments/knapen_aot/videos/S_yt-SRozDkhwx28_1463.mp4	0.0	421.637188911438	
53	157.6655879020691	movie	1		301.0	51.0	2.5	/experiments/knapen_aot/videos/S_yt-SRozDkhwx28_1463.mp4	0.0	421.6453559398651	2.508445978164673
53	160.17403388023376	fix_post	2		12.0	51.0	2.5	/experiments/knapen_aot/videos/S_yt-SRozDkhwx28_1463.mp4	0.0	424.1538019180298	0.09993505477905273
54	160.27396893501282	fix_pre	0		46.0	52.0	2.5	/experiments/knapen_aot/videos/R_S_yt-nE8YJOhW4e4_171.mp4	0.0	424.25373697280884	0.38330602645874023
54	160.64907884597778	response	0	2		52.0	2.5	/experiments/knapen_aot/videos/R_S_yt-nE8YJOhW4e4_171.mp4	0.0	424.6288468837738	
54	160.65727496147156	movie	1		301.0	52.0	2.5	/experiments/knapen_aot/videos/R_S_yt-nE8YJOhW4e4_171.mp4	0.0	424.6370429992676	2.508549928665161
54	163.16582489013672	fix_post	2		12.0	52.0	2.5	/experiments/knapen_aot/videos/R_S_yt-nE8YJOhW4e4_171.mp4	0.0	427.14559292793274	0.09979414939880371
55	163.26561903953552	fix_pre	0		36.0	53.0	2.5	/experiments/knapen_aot/videos/R_S_production_ID_4820868.mp4	0.0	427.24538707733154	0.2999899387359619
55	163.5574369430542	response	0	2		53.0	2.5	/experiments/knapen_aot/videos/R_S_production_ID_4820868.mp4	0.0	427.5372049808502	
55	163.56560897827148	movie	1		168.0	53.0	2.5	/experiments/knapen_aot/videos/R_S_production_ID_4820868.mp4	0.0	427.5453770160675	2.5082600116729736
55	166.07386898994446	fix_post	2		12.0	53.0	2.5	/experiments/knapen_aot/videos/R_S_production_ID_4820868.mp4	0.0	430.0536370277405	0.10008597373962402
56	166.17395496368408	fix_pre	0		38.0	54.0	2.5	/experiments/knapen_aot/videos/S_yt-rlEPywo5BEQ_36.mp4	0.0	430.1537230014801	0.31664299964904785
56	166.4823830127716	response	0	2		54.0	2.5	/experiments/knapen_aot/videos/S_yt-rlEPywo5BEQ_36.mp4	0.0	430.4621510505676	
56	166.49059796333313	movie	1		301.0	54.0	2.5	/experiments/knapen_aot/videos/S_yt-rlEPywo5BEQ_36.mp4	0.0	430.47036600112915	2.5083370208740234
56	168.99893498420715	fix_post	2		12.0	54.0	2.5	/experiments/knapen_aot/videos/S_yt-rlEPywo5BEQ_36.mp4	0.0	432.9787030220032	0.09992384910583496
57	169.098858833313	fix_pre	0		51.0	55.0	2.5	/experiments/knapen_aot/videos/R_S_yt-fryIS5Itzig_124.mp4	0.0	433.078626871109	0.4250462055206299
57	169.51568603515625	response	0	2		55.0	2.5	/experiments/knapen_aot/videos/R_S_yt-fryIS5Itzig_124.mp4	0.0	433.49545407295227	
57	169.52390503883362	movie	1		301.0	55.0	2.5	/experiments/knapen_aot/videos/R_S_yt-fryIS5Itzig_124.mp4	0.0	433.50367307662964	2.508349895477295
57	172.0322549343109	fix_post	2		12.0	55.0	2.5	/experiments/knapen_aot/videos/R_S_yt-fryIS5Itzig_124.mp4	0.0	436.01202297210693	0.10002303123474121
58	172.13227796554565	fix_pre	0		38.0	56.0	2.5	blank	1.0	436.1120460033417	0.31659388542175293
58	172.44078087806702	response	0	2		56.0	2.5	blank	1.0	436.42054891586304	
58	172.4488718509674	movie	1		301.0	56.0	2.5	blank	1.0	436.4286398887634	2.508294105529785
58	174.9571659564972	fix_post	2		12.0	56.0	2.5	blank	1.0	438.9369339942932	0.10013389587402344
59	175.05729985237122	fix_pre	0		60.0	57.0	2.5	/experiments/knapen_aot/videos/S_yt-s5YONFy3vb4_46.mp4	0.0	439.03706789016724	0.49996519088745117
59	175.54147100448608	response	0	2		57.0	2.5	/experiments/knapen_aot/videos/S_yt-s5YONFy3vb4_46.mp4	0.0	439.5212390422821	
59	175.55726504325867	movie	1		301.0	57.0	2.5	/experiments/knapen_aot/videos/S_yt-s5YONFy3vb4_46.mp4	0.0	439.5370330810547	2.5083088874816895
59	178.06557393074036	fix_post	2		12.0	57.0	2.5	/experiments/knapen_aot/videos/S_yt-s5YONFy3vb4_46.mp4	0.0	442.0453419685364	0.09999394416809082
60	178.16556787490845	fix_pre	0		66.0	58.0	2.5	/experiments/knapen_aot/videos/R_S_yt-HoRtvVuuvOs_5.mp4	0.0	442.14533591270447	0.5499370098114014
60	178.70727801322937	response	0	2		58.0	2.5	/experiments/knapen_aot/videos/R_S_yt-HoRtvVuuvOs_5.mp4	0.0	442.6870460510254	
60	178.71550488471985	movie	1		301.0	58.0	2.5	/experiments/knapen_aot/videos/R_S_yt-HoRtvVuuvOs_5.mp4	0.0	442.69527292251587	2.5084240436553955
60	181.22392892837524	fix_post	2		12.0	58.0	2.5	/experiments/knapen_aot/videos/R_S_yt-HoRtvVuuvOs_5.mp4	0.0	445.20369696617126	0.09993410110473633
61	181.32386302947998	fix_pre	0		45.0	59.0	2.5	/experiments/knapen_aot/videos/R_S_yt-gaXgXGEanCk_140.mp4	0.0	445.303631067276	0.3749699592590332
61	181.68310594558716	response	0	2		59.0	2.5	/experiments/knapen_aot/videos/R_S_yt-gaXgXGEanCk_140.mp4	0.0	445.6628739833832	
61	181.698832988739	movie	1		301.0	59.0	2.5	/experiments/knapen_aot/videos/R_S_yt-gaXgXGEanCk_140.mp4	0.0	445.67860102653503	2.5083539485931396
61	184.20718693733215	fix_post	2		12.0	59.0	2.5	/experiments/knapen_aot/videos/R_S_yt-gaXgXGEanCk_140.mp4	0.0	448.1869549751282	0.10002493858337402
62	184.30721187591553	fix_pre	0		57.0	60.0	2.5	/experiments/knapen_aot/videos/S_yt-gzjV6YoK6X0_3.mp4	0.0	448.28697991371155	0.4749419689178467
62	184.77396202087402	response	0	2		60.0	2.5	/experiments/knapen_aot/videos/S_yt-gzjV6YoK6X0_3.mp4	0.0	448.75373005867004	
62	184.78215384483337	movie	1		301.0	60.0	2.5	/experiments/knapen_aot/videos/S_yt-gzjV6YoK6X0_3.mp4	0.0	448.7619218826294	2.5084011554718018
62	187.29055500030518	fix_post	2		12.0	60.0	2.5	/experiments/knapen_aot/videos/S_yt-gzjV6YoK6X0_3.mp4	0.0	451.2703230381012	0.09992694854736328
63	187.39048194885254	fix_pre	0		60.0	61.0	2.5	blank	1.0	451.37024998664856	0.4999730587005615
63	187.88230204582214	response	0	2		61.0	2.5	blank	1.0	451.86207008361816	
63	187.8904550075531	movie	1		301.0	61.0	2.5	blank	1.0	451.8702230453491	2.508366823196411
63	190.3988218307495	fix_post	2		12.0	61.0	2.5	blank	1.0	454.37858986854553	0.10004615783691406
64	190.49886798858643	fix_pre	0		58.0	62.0	2.5	/experiments/knapen_aot/videos/S_yt-5doJmCcFL7s_3.mp4	0.0	454.47863602638245	0.4832649230957031
64	190.96631383895874	response	0	2		62.0	2.5	/experiments/knapen_aot/videos/S_yt-5doJmCcFL7s_3.mp4	0.0	454.94608187675476	
64	190.98213291168213	movie	1		301.0	62.0	2.5	/experiments/knapen_aot/videos/S_yt-5doJmCcFL7s_3.mp4	0.0	454.96190094947815	2.5083229541778564
64	193.49045586585999	fix_post	2		12.0	62.0	2.5	/experiments/knapen_aot/videos/S_yt-5doJmCcFL7s_3.mp4	0.0	457.470223903656	0.10004615783691406
65	193.5905020236969	fix_pre	0		42.0	63.0	2.5	/experiments/knapen_aot/videos/S_comp_N008_C009_PS_v01_SDR_PS_20180925_SDR_2K_AVC.mp4	0.0	457.5702700614929	0.35007596015930176
65	193.93223190307617	response	0	2		63.0	2.5	/experiments/knapen_aot/videos/S_comp_N008_C009_PS_v01_SDR_PS_20180925_SDR_2K_AVC.mp4	0.0	457.9119999408722	
65	193.9405779838562	movie	1		171.0	63.0	2.5	/experiments/knapen_aot/videos/S_comp_N008_C009_PS_v01_SDR_PS_20180925_SDR_2K_AVC.mp4	0.0	457.9203460216522	2.508126974105835
65	196.44870495796204	fix_post	2		12.0	63.0	2.5	/experiments/knapen_aot/videos/S_comp_N008_C009_PS_v01_SDR_PS_20180925_SDR_2K_AVC.mp4	0.0	460.42847299575806	0.10014891624450684
66	196.54885387420654	fix_pre	0		89.0	64.0	2.5	/experiments/knapen_aot/videos/R_S_yt-s5YONFy3vb4_46.mp4	0.0	460.52862191200256	0.7415721416473389
66	197.2822229862213	response	0	2		64.0	2.5	/experiments/knapen_aot/videos/R_S_yt-s5YONFy3vb4_46.mp4	0.0	461.26199102401733	
66	197.29042601585388	movie	1		301.0	64.0	2.5	/experiments/knapen_aot/videos/R_S_yt-s5YONFy3vb4_46.mp4	0.0	461.2701940536499	2.5082788467407227
66	199.7987048625946	fix_post	2		12.0	64.0	2.5	/experiments/knapen_aot/videos/R_S_yt-s5YONFy3vb4_46.mp4	0.0	463.7784729003906	0.10023617744445801
67	199.89894104003906	fix_pre	0		62.0	65.0	2.5	/experiments/knapen_aot/videos/S_yt-q9kT_c9QjbQ_34.mp4	0.0	463.8787090778351	0.5164937973022461
67	200.4072449207306	response	0	2		65.0	2.5	/experiments/knapen_aot/videos/S_yt-q9kT_c9QjbQ_34.mp4	0.0	464.3870129585266	
67	200.4154348373413	movie	1		301.0	65.0	2.5	/experiments/knapen_aot/videos/S_yt-q9kT_c9QjbQ_34.mp4	0.0	464.39520287513733	2.508507013320923
67	202.92394185066223	fix_post	2		12.0	65.0	2.5	/experiments/knapen_aot/videos/S_yt-q9kT_c9QjbQ_34.mp4	0.0	466.90370988845825	0.09986615180969238
68	203.02380800247192	fix_pre	0		61.0	66.0	2.5	/experiments/knapen_aot/videos/R_S_S005_C015_SDR_2K_AVC.mp4	0.0	467.00357604026794	0.5082709789276123
68	203.52394795417786	response	0	2		66.0	2.5	/experiments/knapen_aot/videos/R_S_S005_C015_SDR_2K_AVC.mp4	0.0	467.5037159919739	
68	203.53207898139954	movie	1		168.0	66.0	2.5	/experiments/knapen_aot/videos/R_S_S005_C015_SDR_2K_AVC.mp4	0.0	467.51184701919556	2.5083820819854736
68	206.040461063385	fix_post	2		12.0	66.0	2.5	/experiments/knapen_aot/videos/R_S_S005_C015_SDR_2K_AVC.mp4	0.0	470.02022910118103	0.10004782676696777
69	206.14050889015198	fix_pre	0		60.0	67.0	2.5	/experiments/knapen_aot/videos/S_yt-q9kT_c9QjbQ_34.mp4	0.0	470.120276927948	0.5010499954223633
69	206.6321439743042	response	0	2		67.0	2.5	/experiments/knapen_aot/videos/S_yt-q9kT_c9QjbQ_34.mp4	0.0	470.6119120121002	
69	206.64155888557434	movie	1		301.0	67.0	2.5	/experiments/knapen_aot/videos/S_yt-q9kT_c9QjbQ_34.mp4	0.0	470.62132692337036	2.507205009460449
69	209.1487638950348	fix_post	2		12.0	67.0	2.5	/experiments/knapen_aot/videos/S_yt-q9kT_c9QjbQ_34.mp4	0.0	473.1285319328308	0.09997296333312988
70	209.24873685836792	fix_pre	0		52.0	68.0	2.5	blank	1.0	473.22850489616394	0.43334197998046875
70	209.66628098487854	response	0	2		68.0	2.5	blank	1.0	473.64604902267456	
70	209.6820788383484	movie	1		301.0	68.0	2.5	blank	1.0	473.6618468761444	2.5083210468292236
70	212.1903998851776	fix_post	2		12.0	68.0	2.5	blank	1.0	476.17016792297363	0.10000395774841309
71	212.29040384292603	fix_pre	0		58.0	69.0	2.5	/experiments/knapen_aot/videos/S_yt-HwEfWfFJhRo_126.mp4	0.0	476.27017188072205	0.48328614234924316
71	212.7654309272766	response	0	2		69.0	2.5	/experiments/knapen_aot/videos/S_yt-HwEfWfFJhRo_126.mp4	0.0	476.74519896507263	
71	212.77368998527527	movie	1		301.0	69.0	2.5	/experiments/knapen_aot/videos/S_yt-HwEfWfFJhRo_126.mp4	0.0	476.7534580230713	2.5083420276641846
71	215.28203201293945	fix_post	2		12.0	69.0	2.5	/experiments/knapen_aot/videos/S_yt-HwEfWfFJhRo_126.mp4	0.0	479.2618000507355	0.10005784034729004
72	215.38208985328674	fix_pre	0		42.0	70.0	2.5	/experiments/knapen_aot/videos/R_S_yt-fryIS5Itzig_124.mp4	0.0	479.36185789108276	0.3499610424041748
72	215.72376203536987	response	0	2		70.0	2.5	/experiments/knapen_aot/videos/R_S_yt-fryIS5Itzig_124.mp4	0.0	479.7035300731659	
72	215.73205089569092	movie	1		301.0	70.0	2.5	/experiments/knapen_aot/videos/R_S_yt-fryIS5Itzig_124.mp4	0.0	479.71181893348694	2.5083091259002686
72	218.2403600215912	fix_post	2		12.0	70.0	2.5	/experiments/knapen_aot/videos/R_S_yt-fryIS5Itzig_124.mp4	0.0	482.2201280593872	0.10001182556152344
73	218.3403718471527	fix_pre	0		38.0	71.0	2.5	/experiments/knapen_aot/videos/S_comp_GL_G004_C010_PSNK_v04_SDR_PS_FINAL_20180709_SDR_2K_AVC.mp4	0.0	482.32013988494873	0.31664109230041504
73	218.64882898330688	response	0	2		71.0	2.5	/experiments/knapen_aot/videos/S_comp_GL_G004_C010_PSNK_v04_SDR_PS_FINAL_20180709_SDR_2K_AVC.mp4	0.0	482.6285970211029	
73	218.65701293945312	movie	1		166.0	71.0	2.5	/experiments/knapen_aot/videos/S_comp_GL_G004_C010_PSNK_v04_SDR_PS_FINAL_20180709_SDR_2K_AVC.mp4	0.0	482.63678097724915	2.5083680152893066
73	221.16538095474243	fix_post	2		12.0	71.0	2.5	/experiments/knapen_aot/videos/S_comp_GL_G004_C010_PSNK_v04_SDR_PS_FINAL_20180709_SDR_2K_AVC.mp4	0.0	485.14514899253845	0.1000680923461914
74	221.26544904708862	fix_pre	0		51.0	72.0	2.5	/experiments/knapen_aot/videos/R_S_yt-IigHVUksnw8_7.mp4	0.0	485.24521708488464	0.4248788356781006
74	221.68214797973633	response	0	2		72.0	2.5	/experiments/knapen_aot/videos/R_S_yt-IigHVUksnw8_7.mp4	0.0	485.66191601753235	
74	221.69032788276672	movie	1		301.0	72.0	2.5	/experiments/knapen_aot/videos/R_S_yt-IigHVUksnw8_7.mp4	0.0	485.67009592056274	2.5083491802215576
74	224.19867706298828	fix_post	2		12.0	72.0	2.5	/experiments/knapen_aot/videos/R_S_yt-IigHVUksnw8_7.mp4	0.0	488.1784451007843	0.1000058650970459
75	224.29868292808533	fix_pre	0		35.0	73.0	2.5	/experiments/knapen_aot/videos/S_I003_C008_SDR_2K_AVC.mp4	0.0	488.27845096588135	0.2915530204772949
75	224.5821030139923	response	0	2		73.0	2.5	/experiments/knapen_aot/videos/S_I003_C008_SDR_2K_AVC.mp4	0.0	488.56187105178833	
75	224.59023594856262	movie	1		176.0	73.0	2.5	/experiments/knapen_aot/videos/S_I003_C008_SDR_2K_AVC.mp4	0.0	488.57000398635864	2.5088279247283936
75	227.09906387329102	fix_post	2		12.0	73.0	2.5	/experiments/knapen_aot/videos/S_I003_C008_SDR_2K_AVC.mp4	0.0	491.07883191108704	0.09961414337158203
76	227.1986780166626	fix_pre	0		63.0	74.0	2.5	/experiments/knapen_aot/videos/R_S_video_inspire_california_catalina_avalon_00053.1080-h264.mp4	0.0	491.1784460544586	0.5258579254150391
76	227.71546387672424	response	0	2		74.0	2.5	/experiments/knapen_aot/videos/R_S_video_inspire_california_catalina_avalon_00053.1080-h264.mp4	0.0	491.69523191452026	
76	227.72453594207764	movie	1		174.0	74.0	2.5	/experiments/knapen_aot/videos/R_S_video_inspire_california_catalina_avalon_00053.1080-h264.mp4	0.0	491.70430397987366	2.507446050643921
76	230.23198199272156	fix_post	2		12.0	74.0	2.5	/experiments/knapen_aot/videos/R_S_video_inspire_california_catalina_avalon_00053.1080-h264.mp4	0.0	494.2117500305176	0.10000205039978027
77	230.33198404312134	fix_pre	0		45.0	75.0	2.5	blank	1.0	494.31175208091736	0.3749828338623047
77	230.69879484176636	response	0	2		75.0	2.5	blank	1.0	494.6785628795624	
77	230.70696687698364	movie	1		301.0	75.0	2.5	blank	1.0	494.68673491477966	2.5083529949188232
77	233.21531987190247	fix_post	2		12.0	75.0	2.5	blank	1.0	497.1950879096985	0.1000361442565918
78	233.31535601615906	fix_pre	0		52.0	76.0	2.5	/experiments/knapen_aot/videos/S_yt-2lnxIdOTxog_157.mp4	0.0	497.2951240539551	0.43320703506469727
78	233.73303198814392	response	0	2		76.0	2.5	/experiments/knapen_aot/videos/S_yt-2lnxIdOTxog_157.mp4	0.0	497.71280002593994	
78	233.74856305122375	movie	1		301.0	76.0	2.5	/experiments/knapen_aot/videos/S_yt-2lnxIdOTxog_157.mp4	0.0	497.7283310890198	2.5084328651428223
78	236.25699591636658	fix_post	2		12.0	76.0	2.5	/experiments/knapen_aot/videos/S_yt-2lnxIdOTxog_157.mp4	0.0	500.2367639541626	0.0999901294708252
79	236.3569860458374	fix_pre	0		70.0	77.0	2.5	/experiments/knapen_aot/videos/R_S_yt-SRozDkhwx28_1463.mp4	0.0	500.3367540836334	0.5833849906921387
79	236.932147026062	response	0	2		77.0	2.5	/experiments/knapen_aot/videos/R_S_yt-SRozDkhwx28_1463.mp4	0.0	500.91191506385803	
79	236.94037103652954	movie	1		301.0	77.0	2.5	/experiments/knapen_aot/videos/R_S_yt-SRozDkhwx28_1463.mp4	0.0	500.92013907432556	2.5082077980041504
79	239.4485788345337	fix_post	2		12.0	77.0	2.5	/experiments/knapen_aot/videos/R_S_yt-SRozDkhwx28_1463.mp4	0.0	503.4283468723297	0.1000361442565918
80	239.54861497879028	fix_pre	0		78.0	78.0	2.5	/experiments/knapen_aot/videos/S_comp_H012_C009_PS_v01_SDR_PS_20180925_SDR_2K_AVC.mp4	0.0	503.5283830165863	0.6499218940734863
80	240.19040083885193	response	0	2		78.0	2.5	/experiments/knapen_aot/videos/S_comp_H012_C009_PS_v01_SDR_PS_20180925_SDR_2K_AVC.mp4	0.0	504.17016887664795	
80	240.19853687286377	movie	1		163.0	78.0	2.5	/experiments/knapen_aot/videos/S_comp_H012_C009_PS_v01_SDR_PS_20180925_SDR_2K_AVC.mp4	0.0	504.1783049106598	2.508493185043335
80	242.7070300579071	fix_post	2		12.0	78.0	2.5	/experiments/knapen_aot/videos/S_comp_H012_C009_PS_v01_SDR_PS_20180925_SDR_2K_AVC.mp4	0.0	506.6867980957031	0.09989190101623535
81	242.80692195892334	fix_pre	0		58.0	79.0	2.5	/experiments/knapen_aot/videos/S_ILSVRC2015_train_00451000.mp4	0.0	506.78668999671936	0.4833109378814697
81	243.281996011734	response	0	2		79.0	2.5	/experiments/knapen_aot/videos/S_ILSVRC2015_train_00451000.mp4	0.0	507.26176404953003	
81	243.2902328968048	movie	1		301.0	79.0	2.5	/experiments/knapen_aot/videos/S_ILSVRC2015_train_00451000.mp4	0.0	507.27000093460083	2.5086669921875
81	245.7988998889923	fix_post	2		12.0	79.0	2.5	/experiments/knapen_aot/videos/S_ILSVRC2015_train_00451000.mp4	0.0	509.77866792678833	0.09962916374206543
82	245.89852905273438	fix_pre	0		56.0	80.0	2.5	/experiments/knapen_aot/videos/R_S_ILSVRC2015_train_00165008.mp4	0.0	509.8782970905304	0.46672677993774414
82	246.3569369316101	response	0	2		80.0	2.5	/experiments/knapen_aot/videos/R_S_ILSVRC2015_train_00165008.mp4	0.0	510.3367049694061	
82	246.36525583267212	movie	1		301.0	80.0	2.5	/experiments/knapen_aot/videos/R_S_ILSVRC2015_train_00165008.mp4	0.0	510.34502387046814	2.5083060264587402
82	248.87356185913086	fix_post	2		12.0	80.0	2.5	/experiments/knapen_aot/videos/R_S_ILSVRC2015_train_00165008.mp4	0.0	512.8533298969269	0.09995818138122559
83	248.97352004051208	fix_pre	0		47.0	81.0	2.5	/experiments/knapen_aot/videos/S_yt-EBuE7GbFw7U_180.mp4	0.0	512.9532880783081	0.3917109966278076
83	249.3570408821106	response	0	2		81.0	2.5	/experiments/knapen_aot/videos/S_yt-EBuE7GbFw7U_180.mp4	0.0	513.3368089199066	
83	249.3652310371399	movie	1		301.0	81.0	2.5	/experiments/knapen_aot/videos/S_yt-EBuE7GbFw7U_180.mp4	0.0	513.3449990749359	2.5083439350128174
83	251.8735749721527	fix_post	2		12.0	81.0	2.5	/experiments/knapen_aot/videos/S_yt-EBuE7GbFw7U_180.mp4	0.0	515.8533430099487	0.10010886192321777
84	251.97368383407593	fix_pre	0		53.0	82.0	2.5	/experiments/knapen_aot/videos/S_yt-hDYtYKUsVE4_120.mp4	0.0	515.953451871872	0.4416041374206543
84	252.4069230556488	response	0	2		82.0	2.5	/experiments/knapen_aot/videos/S_yt-hDYtYKUsVE4_120.mp4	0.0	516.3866910934448	
84	252.41528797149658	movie	1		301.0	82.0	2.5	/experiments/knapen_aot/videos/S_yt-hDYtYKUsVE4_120.mp4	0.0	516.3950560092926	2.5082740783691406
84	254.92356204986572	fix_post	2		12.0	82.0	2.5	/experiments/knapen_aot/videos/S_yt-hDYtYKUsVE4_120.mp4	0.0	518.9033300876617	0.09997701644897461
85	255.0235390663147	fix_pre	0		58.0	83.0	2.5	blank	1.0	519.0033071041107	0.4833049774169922
85	255.49860405921936	response	0	2		83.0	2.5	blank	1.0	519.4783720970154	
85	255.5068440437317	movie	1		301.0	83.0	2.5	blank	1.0	519.4866120815277	2.508380889892578
85	258.01522493362427	fix_post	2		12.0	83.0	2.5	blank	1.0	521.9949929714203	0.09998393058776855
87	258.11520886421204	stim	0		251.0					522.094976902008	2.0952091217041016
87	260.2036600112915	response	0	space						524.1834280490875	
