trial_nr	onset	event_type	phase	response	nr_frames	movie_index	movie_duration	movie_file	blank	onset_abs	duration
0	0.1332991123199463	stim	0		81.0					53.13582706451416	0.6749789714813232
0	0.792917013168335	response	0	space						53.79544496536255	
1	0.8082780838012695	stim	0		121.0					53.81080603599548	1.0079400539398193
1	1.283339023590088	response	0	space						54.2858669757843	
1	1.7000350952148438	response	0	space						54.70256304740906	
1	1.8162181377410889	stim	1		120.0					54.8187460899353	1.000140905380249
1	2.066326141357422	response	1	space						55.068854093551636	
2	2.816359043121338	fix_pre	0		57.0	0.0	2.5	/experiments/knapen_aot/oldvideos/R_S_yt-pB9w3AA-woE_37.mp4	0.0	55.81888699531555	0.47483301162719727
2	3.2830090522766113	response	0	space		0.0	2.5	/experiments/knapen_aot/oldvideos/R_S_yt-pB9w3AA-woE_37.mp4	0.0	56.285537004470825	
2	3.291192054748535	movie	1		300.0	0.0	2.5	/experiments/knapen_aot/oldvideos/R_S_yt-pB9w3AA-woE_37.mp4	0.0	56.29372000694275	2.508392095565796
2	5.799584150314331	fix_post	2		12.0	0.0	2.5	/experiments/knapen_aot/oldvideos/R_S_yt-pB9w3AA-woE_37.mp4	0.0	58.802112102508545	0.09998893737792969
3	5.899573087692261	fix_pre	0		8.0	1.0	2.5	/experiments/knapen_aot/oldvideos/R_S_meta-11482036_235.mp4	0.0	58.902101039886475	0.06664109230041504
3	5.960892200469971	response	0	2		1.0	2.5	/experiments/knapen_aot/oldvideos/R_S_meta-11482036_235.mp4	0.0	58.963420152664185	
3	5.966214179992676	movie	1		297.0	1.0	2.5	/experiments/knapen_aot/oldvideos/R_S_meta-11482036_235.mp4	0.0	58.96874213218689	2.5083658695220947
3	8.47458004951477	fix_post	2		12.0	1.0	2.5	/experiments/knapen_aot/oldvideos/R_S_meta-11482036_235.mp4	0.0	61.477108001708984	0.09996414184570312
4	8.574544191360474	fix_pre	0		8.0	2.0	2.5	/experiments/knapen_aot/oldvideos/S_yt-Xq6uX1jfFRk_21.mp4	0.0	61.57707214355469	0.06669282913208008
4	8.632930040359497	response	0	2		2.0	2.5	/experiments/knapen_aot/oldvideos/S_yt-Xq6uX1jfFRk_21.mp4	0.0	61.63545799255371	
4	8.641237020492554	movie	1		301.0	2.0	2.5	/experiments/knapen_aot/oldvideos/S_yt-Xq6uX1jfFRk_21.mp4	0.0	61.64376497268677	2.508533000946045
4	11.149770021438599	fix_post	2		12.0	2.0	2.5	/experiments/knapen_aot/oldvideos/S_yt-Xq6uX1jfFRk_21.mp4	0.0	64.15229797363281	0.0997931957244873
5	11.249563217163086	fix_pre	0		9.0	3.0	2.5	/experiments/knapen_aot/oldvideos/S_b6-4.mp4	0.0	64.2520911693573	0.0760648250579834
5	11.316291093826294	response	0	2		3.0	2.5	/experiments/knapen_aot/oldvideos/S_b6-4.mp4	0.0	64.31881904602051	
5	11.32562804222107	movie	1		162.0	3.0	2.5	/experiments/knapen_aot/oldvideos/S_b6-4.mp4	0.0	64.32815599441528	2.5072970390319824
5	13.832925081253052	fix_post	2		12.0	3.0	2.5	/experiments/knapen_aot/oldvideos/S_b6-4.mp4	0.0	66.83545303344727	0.09992003440856934
6	13.932845115661621	fix_pre	0		6.0	4.0	2.5	/experiments/knapen_aot/oldvideos/R_S_yt-jUGt_Byqczw_599.mp4	0.0	66.93537306785583	0.04997611045837402
6	13.974685192108154	response	0	2		4.0	2.5	/experiments/knapen_aot/oldvideos/R_S_yt-jUGt_Byqczw_599.mp4	0.0	66.97721314430237	
6	13.982821226119995	movie	1		301.0	4.0	2.5	/experiments/knapen_aot/oldvideos/R_S_yt-jUGt_Byqczw_599.mp4	0.0	66.98534917831421	2.5083658695220947
6	16.49118709564209	fix_post	2		12.0	4.0	2.5	/experiments/knapen_aot/oldvideos/R_S_yt-jUGt_Byqczw_599.mp4	0.0	69.4937150478363	0.09995913505554199
7	16.591146230697632	fix_pre	0		6.0	5.0	2.5	/experiments/knapen_aot/oldvideos/R_S_pexels-anna-tarazevich-6189268.mp4	0.0	69.59367418289185	0.05005192756652832
7	16.63297700881958	response	0	2		5.0	2.5	/experiments/knapen_aot/oldvideos/R_S_pexels-anna-tarazevich-6189268.mp4	0.0	69.6355049610138	
7	16.64119815826416	movie	1		216.0	5.0	2.5	/experiments/knapen_aot/oldvideos/R_S_pexels-anna-tarazevich-6189268.mp4	0.0	69.64372611045837	2.508333921432495
7	19.149532079696655	fix_post	2		12.0	5.0	2.5	/experiments/knapen_aot/oldvideos/R_S_pexels-anna-tarazevich-6189268.mp4	0.0	72.15206003189087	0.0999760627746582
8	19.249508142471313	fix_pre	0		13.0	6.0	2.5	/experiments/knapen_aot/oldvideos/R_S_yt-SgiTZNjCPCo_19.mp4	0.0	72.25203609466553	0.10828995704650879
8	19.349693059921265	response	0	2		6.0	2.5	/experiments/knapen_aot/oldvideos/R_S_yt-SgiTZNjCPCo_19.mp4	0.0	72.35222101211548	
8	19.357798099517822	movie	1		301.0	6.0	2.5	/experiments/knapen_aot/oldvideos/R_S_yt-SgiTZNjCPCo_19.mp4	0.0	72.36032605171204	2.508371114730835
8	21.866169214248657	fix_post	2		12.0	6.0	2.5	/experiments/knapen_aot/oldvideos/R_S_yt-SgiTZNjCPCo_19.mp4	0.0	74.86869716644287	0.09998679161071777
9	21.966156005859375	fix_pre	0		5.0	7.0	2.5	blank	1.0	74.96868395805359	0.041697025299072266
9	21.999598026275635	response	0	2		7.0	2.5	blank	1.0	75.00212597846985	
9	22.007853031158447	movie	1		301.0	7.0	2.5	blank	1.0	75.01038098335266	2.5083281993865967
9	24.516181230545044	fix_post	2		12.0	7.0	2.5	blank	1.0	77.51870918273926	0.10102581977844238
10	24.617207050323486	fix_pre	0		18.0	8.0	2.5	/experiments/knapen_aot/oldvideos/R_S_ILSVRC2015_train_00743005.mp4	0.0	77.6197350025177	0.14893817901611328
10	24.757925033569336	response	0	2		8.0	2.5	/experiments/knapen_aot/oldvideos/R_S_ILSVRC2015_train_00743005.mp4	0.0	77.76045298576355	
10	24.7661452293396	movie	1		301.0	8.0	2.5	/experiments/knapen_aot/oldvideos/R_S_ILSVRC2015_train_00743005.mp4	0.0	77.76867318153381	2.508347988128662
10	26.93297815322876	response	1	2		8.0	2.5	/experiments/knapen_aot/oldvideos/R_S_ILSVRC2015_train_00743005.mp4	0.0	79.93550610542297	
10	27.27449321746826	fix_post	2		12.0	8.0	2.5	/experiments/knapen_aot/oldvideos/R_S_ILSVRC2015_train_00743005.mp4	0.0	80.27702116966248	0.10000801086425781
11	27.37450122833252	fix_pre	0		11.0	9.0	2.5	/experiments/knapen_aot/oldvideos/S_comp_A001_C001_120530_v04_SDR_FINAL_20180706_SDR_2K_AVC.mp4	0.0	80.37702918052673	0.0916898250579834
11	27.45797109603882	response	0	2		9.0	2.5	/experiments/knapen_aot/oldvideos/S_comp_A001_C001_120530_v04_SDR_FINAL_20180706_SDR_2K_AVC.mp4	0.0	80.46049904823303	
11	27.466191053390503	movie	1		163.0	9.0	2.5	/experiments/knapen_aot/oldvideos/S_comp_A001_C001_120530_v04_SDR_FINAL_20180706_SDR_2K_AVC.mp4	0.0	80.46871900558472	2.508242130279541
11	29.88290309906006	response	1	2		9.0	2.5	/experiments/knapen_aot/oldvideos/S_comp_A001_C001_120530_v04_SDR_FINAL_20180706_SDR_2K_AVC.mp4	0.0	82.88543105125427	
11	29.974433183670044	fix_post	2		12.0	9.0	2.5	/experiments/knapen_aot/oldvideos/S_comp_A001_C001_120530_v04_SDR_FINAL_20180706_SDR_2K_AVC.mp4	0.0	82.97696113586426	0.10138797760009766
12	30.07582116127014	fix_pre	0		12.0	10.0	2.5	/experiments/knapen_aot/oldvideos/S_yt-7WYXuBHeorw_188.mp4	0.0	83.07834911346436	0.09861302375793457
12	30.166222095489502	response	0	2		10.0	2.5	/experiments/knapen_aot/oldvideos/S_yt-7WYXuBHeorw_188.mp4	0.0	83.16875004768372	
12	30.174434185028076	movie	1		301.0	10.0	2.5	/experiments/knapen_aot/oldvideos/S_yt-7WYXuBHeorw_188.mp4	0.0	83.17696213722229	2.508309841156006
12	32.68274402618408	fix_post	2		12.0	10.0	2.5	/experiments/knapen_aot/oldvideos/S_yt-7WYXuBHeorw_188.mp4	0.0	85.6852719783783	0.10010504722595215
13	32.782849073410034	fix_pre	0		2.0	11.0	2.5	/experiments/knapen_aot/oldvideos/R_S_KP_A010_C002_SDR_20190717_SDR_2K_AVC.mp4	0.0	85.78537702560425	0.016579151153564453
13	32.79117012023926	response	0	2		11.0	2.5	/experiments/knapen_aot/oldvideos/R_S_KP_A010_C002_SDR_20190717_SDR_2K_AVC.mp4	0.0	85.79369807243347	
13	32.7994282245636	movie	1		166.0	11.0	2.5	/experiments/knapen_aot/oldvideos/R_S_KP_A010_C002_SDR_20190717_SDR_2K_AVC.mp4	0.0	85.80195617675781	2.5082929134368896
13	35.30772113800049	fix_post	2		12.0	11.0	2.5	/experiments/knapen_aot/oldvideos/R_S_KP_A010_C002_SDR_20190717_SDR_2K_AVC.mp4	0.0	88.3102490901947	0.10006403923034668
14	35.407785177230835	fix_pre	0		3.0	12.0	2.5	/experiments/knapen_aot/oldvideos/R_S_yt-11S5tcT2Tm0_254.mp4	0.0	88.41031312942505	0.02501988410949707
14	35.424546003341675	response	0	2		12.0	2.5	/experiments/knapen_aot/oldvideos/R_S_yt-11S5tcT2Tm0_254.mp4	0.0	88.42707395553589	
14	35.43280506134033	movie	1		301.0	12.0	2.5	/experiments/knapen_aot/oldvideos/R_S_yt-11S5tcT2Tm0_254.mp4	0.0	88.43533301353455	2.508492946624756
14	37.94129800796509	fix_post	2		12.0	12.0	2.5	/experiments/knapen_aot/oldvideos/R_S_yt-11S5tcT2Tm0_254.mp4	0.0	90.9438259601593	0.09978008270263672
15	38.041078090667725	fix_pre	0		15.0	13.0	2.5	/experiments/knapen_aot/oldvideos/R_S_yt-cokedWwwYYs_136.mp4	0.0	91.04360604286194	0.12498092651367188
15	38.15785503387451	response	0	2		13.0	2.5	/experiments/knapen_aot/oldvideos/R_S_yt-cokedWwwYYs_136.mp4	0.0	91.16038298606873	
15	38.1660590171814	movie	1		301.0	13.0	2.5	/experiments/knapen_aot/oldvideos/R_S_yt-cokedWwwYYs_136.mp4	0.0	91.16858696937561	2.5083022117614746
15	40.67436122894287	fix_post	2		12.0	13.0	2.5	/experiments/knapen_aot/oldvideos/R_S_yt-cokedWwwYYs_136.mp4	0.0	93.67688918113708	0.1000669002532959
16	40.77442812919617	fix_pre	0		15.0	14.0	2.5	blank	1.0	93.77695608139038	0.12496304512023926
16	40.89123320579529	response	0	2		14.0	2.5	blank	1.0	93.8937611579895	
16	40.899391174316406	movie	1		301.0	14.0	2.5	blank	1.0	93.90191912651062	2.508275032043457
16	43.40766620635986	fix_post	2		12.0	14.0	2.5	blank	1.0	96.41019415855408	0.10010385513305664
17	43.50777006149292	fix_pre	0		28.0	15.0	2.5	/experiments/knapen_aot/oldvideos/S_yt-Ndwek2tpIOA_169.mp4	0.0	96.51029801368713	0.23421502113342285
17	43.73284101486206	response	0	2		15.0	2.5	/experiments/knapen_aot/oldvideos/S_yt-Ndwek2tpIOA_169.mp4	0.0	96.73536896705627	
17	43.74198508262634	movie	1		301.0	15.0	2.5	/experiments/knapen_aot/oldvideos/S_yt-Ndwek2tpIOA_169.mp4	0.0	96.74451303482056	2.5074291229248047
17	46.24941420555115	fix_post	2		12.0	15.0	2.5	/experiments/knapen_aot/oldvideos/S_yt-Ndwek2tpIOA_169.mp4	0.0	99.25194215774536	0.09991192817687988
18	46.34932613372803	fix_pre	0		13.0	16.0	2.5	/experiments/knapen_aot/oldvideos/R_S_pexels-nkem-6237382.mp4	0.0	99.35185408592224	0.1084280014038086
18	46.44948410987854	response	0	2		16.0	2.5	/experiments/knapen_aot/oldvideos/R_S_pexels-nkem-6237382.mp4	0.0	99.45201206207275	
18	46.457754135131836	movie	1		164.0	16.0	2.5	/experiments/knapen_aot/oldvideos/R_S_pexels-nkem-6237382.mp4	0.0	99.46028208732605	2.5084149837493896
18	48.966169118881226	fix_post	2		12.0	16.0	2.5	/experiments/knapen_aot/oldvideos/R_S_pexels-nkem-6237382.mp4	0.0	101.96869707107544	0.09997296333312988
19	49.066142082214355	fix_pre	0		12.0	17.0	2.5	/experiments/knapen_aot/oldvideos/R_S_KP_A010_C002_SDR_20190717_SDR_2K_AVC.mp4	0.0	102.06867003440857	0.0998530387878418
19	49.15779399871826	response	0	2		17.0	2.5	/experiments/knapen_aot/oldvideos/R_S_KP_A010_C002_SDR_20190717_SDR_2K_AVC.mp4	0.0	102.16032195091248	
19	49.1659951210022	movie	1		165.0	17.0	2.5	/experiments/knapen_aot/oldvideos/R_S_KP_A010_C002_SDR_20190717_SDR_2K_AVC.mp4	0.0	102.16852307319641	2.50838303565979
19	51.67437815666199	fix_post	2		12.0	17.0	2.5	/experiments/knapen_aot/oldvideos/R_S_KP_A010_C002_SDR_20190717_SDR_2K_AVC.mp4	0.0	104.6769061088562	0.09994387626647949
20	51.77432203292847	fix_pre	0		4.0	18.0	2.5	/experiments/knapen_aot/oldvideos/S_8amznWxLS04_212.mp4	0.0	104.77684998512268	0.033396005630493164
20	51.79954814910889	response	0	2		18.0	2.5	/experiments/knapen_aot/oldvideos/S_8amznWxLS04_212.mp4	0.0	104.8020761013031	
20	51.80771803855896	movie	1		301.0	18.0	2.5	/experiments/knapen_aot/oldvideos/S_8amznWxLS04_212.mp4	0.0	104.81024599075317	2.5083370208740234
20	54.31605505943298	fix_post	2		12.0	18.0	2.5	/experiments/knapen_aot/oldvideos/S_8amznWxLS04_212.mp4	0.0	107.3185830116272	0.1000361442565918
21	54.416091203689575	fix_pre	0		22.0	19.0	2.5	blank	1.0	107.41861915588379	0.18320894241333008
21	54.59109115600586	response	0	2		19.0	2.5	blank	1.0	107.59361910820007	
21	54.599300146102905	movie	1		301.0	19.0	2.5	blank	1.0	107.60182809829712	2.5084240436553955
21	57.1077241897583	fix_post	2		12.0	19.0	2.5	blank	1.0	110.11025214195251	0.0999908447265625
22	57.20771503448486	fix_pre	0		16.0	20.0	2.5	/experiments/knapen_aot/oldvideos/S_ILSVRC2015_train_00568002.mp4	0.0	110.21024298667908	0.13318204879760742
22	57.33284401893616	response	0	2		20.0	2.5	/experiments/knapen_aot/oldvideos/S_ILSVRC2015_train_00568002.mp4	0.0	110.33537197113037	
22	57.34089708328247	movie	1		301.0	20.0	2.5	/experiments/knapen_aot/oldvideos/S_ILSVRC2015_train_00568002.mp4	0.0	110.34342503547668	2.508587121963501
22	59.84948420524597	fix_post	2		12.0	20.0	2.5	/experiments/knapen_aot/oldvideos/S_ILSVRC2015_train_00568002.mp4	0.0	112.85201215744019	0.09986090660095215
23	59.949345111846924	fix_pre	0		16.0	21.0	2.5	/experiments/knapen_aot/oldvideos/S_cST9H3zu3zQ_126.mp4	0.0	112.95187306404114	0.13332891464233398
23	60.0743842124939	response	0	2		21.0	2.5	/experiments/knapen_aot/oldvideos/S_cST9H3zu3zQ_126.mp4	0.0	113.07691216468811	
23	60.08267402648926	movie	1		301.0	21.0	2.5	/experiments/knapen_aot/oldvideos/S_cST9H3zu3zQ_126.mp4	0.0	113.08520197868347	2.5084280967712402
23	62.5911021232605	fix_post	2		12.0	21.0	2.5	/experiments/knapen_aot/oldvideos/S_cST9H3zu3zQ_126.mp4	0.0	115.59363007545471	0.09989690780639648
24	62.690999031066895	fix_pre	0		32.0	22.0	2.5	/experiments/knapen_aot/oldvideos/R_S_yt-v8e_DlCsP4w_10.mp4	0.0	115.69352698326111	0.26663804054260254
24	62.949390172958374	response	0	2		22.0	2.5	/experiments/knapen_aot/oldvideos/R_S_yt-v8e_DlCsP4w_10.mp4	0.0	115.95191812515259	
24	62.9576370716095	movie	1		301.0	22.0	2.5	/experiments/knapen_aot/oldvideos/R_S_yt-v8e_DlCsP4w_10.mp4	0.0	115.96016502380371	2.5083370208740234
24	65.46597409248352	fix_post	2		12.0	22.0	2.5	/experiments/knapen_aot/oldvideos/R_S_yt-v8e_DlCsP4w_10.mp4	0.0	118.46850204467773	0.1000509262084961
25	65.56602501869202	fix_pre	0		28.0	23.0	2.5	/experiments/knapen_aot/oldvideos/S_yt-0Zze3Ff12Ys_58.mp4	0.0	118.56855297088623	0.23327398300170898
25	65.79106712341309	response	0	2		23.0	2.5	/experiments/knapen_aot/oldvideos/S_yt-0Zze3Ff12Ys_58.mp4	0.0	118.7935950756073	
25	65.79929900169373	movie	1		301.0	23.0	2.5	/experiments/knapen_aot/oldvideos/S_yt-0Zze3Ff12Ys_58.mp4	0.0	118.80182695388794	2.508312225341797
25	68.30761122703552	fix_post	2		12.0	23.0	2.5	/experiments/knapen_aot/oldvideos/S_yt-0Zze3Ff12Ys_58.mp4	0.0	121.31013917922974	0.10003876686096191
26	68.40764999389648	fix_pre	0		28.0	24.0	2.5	/experiments/knapen_aot/oldvideos/R_S_yt-ibDaDIEazxg_3.mp4	0.0	121.4101779460907	0.24166202545166016
26	68.63273215293884	response	0	2		24.0	2.5	/experiments/knapen_aot/oldvideos/R_S_yt-ibDaDIEazxg_3.mp4	0.0	121.63526010513306	
26	68.64931201934814	movie	1		300.0	24.0	2.5	/experiments/knapen_aot/oldvideos/R_S_yt-ibDaDIEazxg_3.mp4	0.0	121.65183997154236	2.5003161430358887
26	71.14962816238403	fix_post	2		12.0	24.0	2.5	/experiments/knapen_aot/oldvideos/R_S_yt-ibDaDIEazxg_3.mp4	0.0	124.15215611457825	0.09965085983276367
27	71.2492790222168	fix_pre	0		18.0	25.0	2.5	/experiments/knapen_aot/oldvideos/R_S_yt-v8e_DlCsP4w_10.mp4	0.0	124.25180697441101	0.14992213249206543
27	71.39104914665222	response	0	2		25.0	2.5	/experiments/knapen_aot/oldvideos/R_S_yt-v8e_DlCsP4w_10.mp4	0.0	124.39357709884644	
27	71.39920115470886	movie	1		301.0	25.0	2.5	/experiments/knapen_aot/oldvideos/R_S_yt-v8e_DlCsP4w_10.mp4	0.0	124.40172910690308	2.5083720684051514
27	73.90757322311401	fix_post	2		12.0	25.0	2.5	/experiments/knapen_aot/oldvideos/R_S_yt-v8e_DlCsP4w_10.mp4	0.0	126.91010117530823	0.10012483596801758
28	74.00769805908203	fix_pre	0		9.0	26.0	2.5	/experiments/knapen_aot/oldvideos/S_yt-4GDusA21cEA_170.mp4	0.0	127.01022601127625	0.07492804527282715
28	74.07431507110596	response	0	2		26.0	2.5	/experiments/knapen_aot/oldvideos/S_yt-4GDusA21cEA_170.mp4	0.0	127.07684302330017	
28	74.08262610435486	movie	1		301.0	26.0	2.5	/experiments/knapen_aot/oldvideos/S_yt-4GDusA21cEA_170.mp4	0.0	127.08515405654907	2.508284091949463
28	76.59091019630432	fix_post	2		12.0	26.0	2.5	/experiments/knapen_aot/oldvideos/S_yt-4GDusA21cEA_170.mp4	0.0	129.59343814849854	0.10018491744995117
29	76.69109511375427	fix_pre	0		19.0	27.0	2.5	blank	1.0	129.6936230659485	0.15815210342407227
29	76.84099316596985	response	0	2		27.0	2.5	blank	1.0	129.84352111816406	
29	76.84924721717834	movie	1		301.0	27.0	2.5	blank	1.0	129.85177516937256	2.5083558559417725
29	79.35760307312012	fix_post	2		12.0	27.0	2.5	blank	1.0	132.36013102531433	0.10002303123474121
30	79.45762610435486	fix_pre	0		23.0	28.0	2.5	/experiments/knapen_aot/oldvideos/S_yt-2IxVZeiSv3g_28.mp4	0.0	132.46015405654907	0.19163012504577637
30	79.64105415344238	response	0	2		28.0	2.5	/experiments/knapen_aot/oldvideos/S_yt-2IxVZeiSv3g_28.mp4	0.0	132.6435821056366	
30	79.64925622940063	movie	1		301.0	28.0	2.5	/experiments/knapen_aot/oldvideos/S_yt-2IxVZeiSv3g_28.mp4	0.0	132.65178418159485	2.508258819580078
30	82.15751504898071	fix_post	2		12.0	28.0	2.5	/experiments/knapen_aot/oldvideos/S_yt-2IxVZeiSv3g_28.mp4	0.0	135.16004300117493	0.1000511646270752
31	82.25756621360779	fix_pre	0		26.0	29.0	2.5	/experiments/knapen_aot/oldvideos/S_ILSVRC2015_train_00594001.mp4	0.0	135.260094165802	0.21662378311157227
31	82.46598720550537	response	0	2		29.0	2.5	/experiments/knapen_aot/oldvideos/S_ILSVRC2015_train_00594001.mp4	0.0	135.46851515769958	
31	82.47418999671936	movie	1		301.0	29.0	2.5	/experiments/knapen_aot/oldvideos/S_ILSVRC2015_train_00594001.mp4	0.0	135.47671794891357	2.5084660053253174
31	84.98265600204468	fix_post	2		12.0	29.0	2.5	/experiments/knapen_aot/oldvideos/S_ILSVRC2015_train_00594001.mp4	0.0	137.9851839542389	0.09986209869384766
32	85.08251810073853	fix_pre	0		15.0	30.0	2.5	/experiments/knapen_aot/oldvideos/S_yt-jy96-k8drRE_1.mp4	0.0	138.08504605293274	0.125
32	85.19929122924805	response	0	2		30.0	2.5	/experiments/knapen_aot/oldvideos/S_yt-jy96-k8drRE_1.mp4	0.0	138.20181918144226	
32	85.20751810073853	movie	1		301.0	30.0	2.5	/experiments/knapen_aot/oldvideos/S_yt-jy96-k8drRE_1.mp4	0.0	138.21004605293274	2.508362054824829
32	87.71588015556335	fix_post	2		12.0	30.0	2.5	/experiments/knapen_aot/oldvideos/S_yt-jy96-k8drRE_1.mp4	0.0	140.71840810775757	0.10001301765441895
33	87.81589317321777	fix_pre	0		6.0	31.0	2.5	/experiments/knapen_aot/oldvideos/S_yt-FbCVXEJicis_5.mp4	0.0	140.818421125412	0.050720930099487305
33	87.85763502120972	response	0	2		31.0	2.5	/experiments/knapen_aot/oldvideos/S_yt-FbCVXEJicis_5.mp4	0.0	140.86016297340393	
33	87.86661410331726	movie	1		301.0	31.0	2.5	/experiments/knapen_aot/oldvideos/S_yt-FbCVXEJicis_5.mp4	0.0	140.86914205551147	2.5076050758361816
33	90.37421917915344	fix_post	2		12.0	31.0	2.5	/experiments/knapen_aot/oldvideos/S_yt-FbCVXEJicis_5.mp4	0.0	143.37674713134766	0.10012698173522949
34	90.47434616088867	fix_pre	0		13.0	32.0	2.5	/experiments/knapen_aot/oldvideos/S_yt-n_eO-7KedAE_21.mp4	0.0	143.47687411308289	0.10819101333618164
34	90.57427310943604	response	0	2		32.0	2.5	/experiments/knapen_aot/oldvideos/S_yt-n_eO-7KedAE_21.mp4	0.0	143.57680106163025	
34	90.58253717422485	movie	1		301.0	32.0	2.5	/experiments/knapen_aot/oldvideos/S_yt-n_eO-7KedAE_21.mp4	0.0	143.58506512641907	2.5082998275756836
34	93.09083700180054	fix_post	2		12.0	32.0	2.5	/experiments/knapen_aot/oldvideos/S_yt-n_eO-7KedAE_21.mp4	0.0	146.09336495399475	0.10004615783691406
35	93.19088315963745	fix_pre	0		13.0	33.0	2.5	/experiments/knapen_aot/oldvideos/R_S_comp_A008_C007_011550_CC_v01_SDR_PS_FINAL_20180709_SDR_2K_AVC.mp4	0.0	146.19341111183167	0.10823583602905273
35	93.29099202156067	response	0	2		33.0	2.5	/experiments/knapen_aot/oldvideos/R_S_comp_A008_C007_011550_CC_v01_SDR_PS_FINAL_20180709_SDR_2K_AVC.mp4	0.0	146.29351997375488	
35	93.2991189956665	movie	1		163.0	33.0	2.5	/experiments/knapen_aot/oldvideos/R_S_comp_A008_C007_011550_CC_v01_SDR_PS_FINAL_20180709_SDR_2K_AVC.mp4	0.0	146.30164694786072	2.5084102153778076
35	95.80752921104431	fix_post	2		12.0	33.0	2.5	/experiments/knapen_aot/oldvideos/R_S_comp_A008_C007_011550_CC_v01_SDR_PS_FINAL_20180709_SDR_2K_AVC.mp4	0.0	148.81005716323853	0.09999680519104004
36	95.90752601623535	fix_pre	0		6.0	34.0	2.5	blank	1.0	148.91005396842957	0.049874067306518555
36	95.94923710823059	response	0	2		34.0	2.5	blank	1.0	148.9517650604248	
36	95.95740008354187	movie	1		301.0	34.0	2.5	blank	1.0	148.95992803573608	2.508424997329712
36	98.46582508087158	fix_post	2		12.0	34.0	2.5	blank	1.0	151.4683530330658	0.10000109672546387
37	98.56582617759705	fix_pre	0		11.0	35.0	2.5	/experiments/knapen_aot/oldvideos/R_S_yt-NqyG4Ar2JWo_10.mp4	0.0	151.56835412979126	0.09240198135375977
37	98.64938521385193	response	0	2		35.0	2.5	/experiments/knapen_aot/oldvideos/R_S_yt-NqyG4Ar2JWo_10.mp4	0.0	151.65191316604614	
37	98.6582281589508	movie	1		301.0	35.0	2.5	/experiments/knapen_aot/oldvideos/R_S_yt-NqyG4Ar2JWo_10.mp4	0.0	151.66075611114502	2.5075888633728027
37	101.16581702232361	fix_post	2		12.0	35.0	2.5	/experiments/knapen_aot/oldvideos/R_S_yt-NqyG4Ar2JWo_10.mp4	0.0	154.16834497451782	0.10000109672546387
38	101.26581811904907	fix_pre	0		11.0	36.0	2.5	/experiments/knapen_aot/oldvideos/S_yt-Fci3dBzt2T4_223.mp4	0.0	154.2683460712433	0.09162092208862305
38	101.34918522834778	response	0	2		36.0	2.5	/experiments/knapen_aot/oldvideos/S_yt-Fci3dBzt2T4_223.mp4	0.0	154.351713180542	
38	101.3574390411377	movie	1		301.0	36.0	2.5	/experiments/knapen_aot/oldvideos/S_yt-Fci3dBzt2T4_223.mp4	0.0	154.3599669933319	2.508352041244507
38	103.8657910823822	fix_post	2		12.0	36.0	2.5	/experiments/knapen_aot/oldvideos/S_yt-Fci3dBzt2T4_223.mp4	0.0	156.86831903457642	0.10005712509155273
39	103.96584820747375	fix_pre	0		7.0	37.0	2.5	/experiments/knapen_aot/oldvideos/R_S_yt-aqrdb6BiFx4_12.mp4	0.0	156.96837615966797	0.05823397636413574
39	104.00839114189148	response	0	2		37.0	2.5	/experiments/knapen_aot/oldvideos/R_S_yt-aqrdb6BiFx4_12.mp4	0.0	157.0109190940857	
39	104.02408218383789	movie	1		301.0	37.0	2.5	/experiments/knapen_aot/oldvideos/R_S_yt-aqrdb6BiFx4_12.mp4	0.0	157.0266101360321	2.5082919597625732
39	106.53237414360046	fix_post	2		12.0	37.0	2.5	/experiments/knapen_aot/oldvideos/R_S_yt-aqrdb6BiFx4_12.mp4	0.0	159.53490209579468	0.10004186630249023
40	106.63241600990295	fix_pre	0		13.0	38.0	2.5	/experiments/knapen_aot/oldvideos/S_yt-qsyDLtXcyHc_8.mp4	0.0	159.63494396209717	0.10904908180236816
40	106.73252201080322	response	0	2		38.0	2.5	/experiments/knapen_aot/oldvideos/S_yt-qsyDLtXcyHc_8.mp4	0.0	159.73504996299744	
40	106.74146509170532	movie	1		301.0	38.0	2.5	/experiments/knapen_aot/oldvideos/S_yt-qsyDLtXcyHc_8.mp4	0.0	159.74399304389954	2.50805401802063
40	109.24951910972595	fix_post	2		12.0	38.0	2.5	/experiments/knapen_aot/oldvideos/S_yt-qsyDLtXcyHc_8.mp4	0.0	162.25204706192017	0.09965991973876953
41	109.34917902946472	fix_pre	0		26.0	39.0	2.5	/experiments/knapen_aot/oldvideos/R_S_yt-rlEPywo5BEQ_36.mp4	0.0	162.35170698165894	0.21672797203063965
41	109.55749702453613	response	0	2		39.0	2.5	/experiments/knapen_aot/oldvideos/R_S_yt-rlEPywo5BEQ_36.mp4	0.0	162.56002497673035	
41	109.56590700149536	movie	1		301.0	39.0	2.5	/experiments/knapen_aot/oldvideos/R_S_yt-rlEPywo5BEQ_36.mp4	0.0	162.56843495368958	2.508230209350586
41	112.07413721084595	fix_post	2		12.0	39.0	2.5	/experiments/knapen_aot/oldvideos/R_S_yt-rlEPywo5BEQ_36.mp4	0.0	165.07666516304016	0.10009193420410156
42	112.17422914505005	fix_pre	0		27.0	40.0	2.5	/experiments/knapen_aot/oldvideos/R_S_yt-Ndwek2tpIOA_169.mp4	0.0	165.17675709724426	0.22485685348510742
42	112.39089512825012	response	0	2		40.0	2.5	/experiments/knapen_aot/oldvideos/R_S_yt-Ndwek2tpIOA_169.mp4	0.0	165.39342308044434	
42	112.39908599853516	movie	1		301.0	40.0	2.5	/experiments/knapen_aot/oldvideos/R_S_yt-Ndwek2tpIOA_169.mp4	0.0	165.40161395072937	2.5084900856018066
42	114.90757608413696	fix_post	2		12.0	40.0	2.5	/experiments/knapen_aot/oldvideos/R_S_yt-Ndwek2tpIOA_169.mp4	0.0	167.91010403633118	0.0998680591583252
43	115.00744414329529	fix_pre	0		3.0	41.0	2.5	/experiments/knapen_aot/oldvideos/R_S_yt-sxZ_ONShI7U_75.mp4	0.0	168.0099720954895	0.02567291259765625
43	115.02414011955261	response	0	2		41.0	2.5	/experiments/knapen_aot/oldvideos/R_S_yt-sxZ_ONShI7U_75.mp4	0.0	168.02666807174683	
43	115.03311705589294	movie	1		301.0	41.0	2.5	/experiments/knapen_aot/oldvideos/R_S_yt-sxZ_ONShI7U_75.mp4	0.0	168.03564500808716	2.507737159729004
43	117.54085421562195	fix_post	2		12.0	41.0	2.5	/experiments/knapen_aot/oldvideos/R_S_yt-sxZ_ONShI7U_75.mp4	0.0	170.54338216781616	0.09984278678894043
44	117.64069700241089	fix_pre	0		30.0	42.0	2.5	blank	1.0	170.6432249546051	0.25005102157592773
44	117.88255715370178	response	0	2		42.0	2.5	blank	1.0	170.885085105896	
44	117.89074802398682	movie	1		301.0	42.0	2.5	blank	1.0	170.89327597618103	2.508333206176758
44	120.39908123016357	fix_post	2		12.0	42.0	2.5	blank	1.0	173.4016091823578	0.10004377365112305
45	120.4991250038147	fix_pre	0		17.0	43.0	2.5	/experiments/knapen_aot/oldvideos/S_yt-uX7qYKQm_pg_277.mp4	0.0	173.5016529560089	0.1416010856628418
45	120.6325089931488	response	0	2		43.0	2.5	/experiments/knapen_aot/oldvideos/S_yt-uX7qYKQm_pg_277.mp4	0.0	173.63503694534302	
45	120.64072608947754	movie	1		301.0	43.0	2.5	/experiments/knapen_aot/oldvideos/S_yt-uX7qYKQm_pg_277.mp4	0.0	173.64325404167175	2.5084481239318848
45	123.14917421340942	fix_post	2		12.0	43.0	2.5	/experiments/knapen_aot/oldvideos/S_yt-uX7qYKQm_pg_277.mp4	0.0	176.15170216560364	0.09988594055175781
46	123.24906015396118	fix_pre	0		41.0	44.0	2.5	/experiments/knapen_aot/oldvideos/R_S_pexels-mikhail-nilov-8410084.mp4	0.0	176.2515881061554	0.3416728973388672
46	123.58250308036804	response	0	2		44.0	2.5	/experiments/knapen_aot/oldvideos/R_S_pexels-mikhail-nilov-8410084.mp4	0.0	176.58503103256226	
46	123.59073305130005	movie	1		169.0	44.0	2.5	/experiments/knapen_aot/oldvideos/R_S_pexels-mikhail-nilov-8410084.mp4	0.0	176.59326100349426	2.508357048034668
46	126.09909009933472	fix_post	2		12.0	44.0	2.5	/experiments/knapen_aot/oldvideos/R_S_pexels-mikhail-nilov-8410084.mp4	0.0	179.10161805152893	0.10003089904785156
47	126.19912099838257	fix_pre	0		8.0	45.0	2.5	/experiments/knapen_aot/oldvideos/S_video-5.mp4	0.0	179.20164895057678	0.06652116775512695
47	126.25750422477722	response	0	2		45.0	2.5	/experiments/knapen_aot/oldvideos/S_video-5.mp4	0.0	179.26003217697144	
47	126.2656421661377	movie	1		173.0	45.0	2.5	/experiments/knapen_aot/oldvideos/S_video-5.mp4	0.0	179.2681701183319	2.508452892303467
47	128.77409505844116	fix_post	2		12.0	45.0	2.5	/experiments/knapen_aot/oldvideos/S_video-5.mp4	0.0	181.77662301063538	0.10000205039978027
48	128.87409710884094	fix_pre	0		7.0	46.0	2.5	/experiments/knapen_aot/oldvideos/R_S_production_ID_3923518.mp4	0.0	181.87662506103516	0.05828404426574707
48	128.92416620254517	response	0	2		46.0	2.5	/experiments/knapen_aot/oldvideos/R_S_production_ID_3923518.mp4	0.0	181.92669415473938	
48	128.9323811531067	movie	1		172.0	46.0	2.5	/experiments/knapen_aot/oldvideos/R_S_production_ID_3923518.mp4	0.0	181.9349091053009	2.5084309577941895
48	131.44081211090088	fix_post	2		12.0	46.0	2.5	/experiments/knapen_aot/oldvideos/R_S_production_ID_3923518.mp4	0.0	184.4433400630951	0.09990406036376953
49	131.54071617126465	fix_pre	0		26.0	47.0	2.5	/experiments/knapen_aot/oldvideos/S_yt-Ndwek2tpIOA_169.mp4	0.0	184.54324412345886	0.21660184860229492
49	131.749174118042	response	0	2		47.0	2.5	/experiments/knapen_aot/oldvideos/S_yt-Ndwek2tpIOA_169.mp4	0.0	184.7517020702362	
49	131.75731801986694	movie	1		301.0	47.0	2.5	/experiments/knapen_aot/oldvideos/S_yt-Ndwek2tpIOA_169.mp4	0.0	184.75984597206116	2.50838303565979
49	134.26570105552673	fix_post	2		12.0	47.0	2.5	/experiments/knapen_aot/oldvideos/S_yt-Ndwek2tpIOA_169.mp4	0.0	187.26822900772095	0.10001397132873535
50	134.36571502685547	fix_pre	0		26.0	48.0	2.5	/experiments/knapen_aot/oldvideos/R_S_DV6V38rplag_215.mp4	0.0	187.36824297904968	0.21663999557495117
50	134.57412004470825	response	0	2		48.0	2.5	/experiments/knapen_aot/oldvideos/R_S_DV6V38rplag_215.mp4	0.0	187.57664799690247	
50	134.58235502243042	movie	1		301.0	48.0	2.5	/experiments/knapen_aot/oldvideos/R_S_DV6V38rplag_215.mp4	0.0	187.58488297462463	2.508371114730835
50	137.09072613716125	fix_post	2		12.0	48.0	2.5	/experiments/knapen_aot/oldvideos/R_S_DV6V38rplag_215.mp4	0.0	190.09325408935547	0.10016298294067383
51	137.19088912010193	fix_pre	0		47.0	49.0	2.5	blank	1.0	190.19341707229614	0.39140987396240234
51	137.57413911819458	response	0	2		49.0	2.5	blank	1.0	190.5766670703888	
51	137.58229899406433	movie	1		301.0	49.0	2.5	blank	1.0	190.58482694625854	2.508284091949463
51	140.0905830860138	fix_post	2		12.0	49.0	2.5	blank	1.0	193.093111038208	0.10019803047180176
52	140.1907811164856	fix_pre	0		27.0	50.0	2.5	/experiments/knapen_aot/oldvideos/S_yt-5ws2gxbcjs4_381.mp4	0.0	193.1933090686798	0.22483396530151367
52	140.40741515159607	response	0	2		50.0	2.5	/experiments/knapen_aot/oldvideos/S_yt-5ws2gxbcjs4_381.mp4	0.0	193.40994310379028	
52	140.4156150817871	movie	1		301.0	50.0	2.5	/experiments/knapen_aot/oldvideos/S_yt-5ws2gxbcjs4_381.mp4	0.0	193.41814303398132	2.5084519386291504
52	142.92406702041626	fix_post	2		12.0	50.0	2.5	/experiments/knapen_aot/oldvideos/S_yt-5ws2gxbcjs4_381.mp4	0.0	195.92659497261047	0.10000300407409668
53	143.02407002449036	fix_pre	0		30.0	51.0	2.5	/experiments/knapen_aot/oldvideos/S_yt-n6aLw10f2Yw_317.mp4	0.0	196.02659797668457	0.24985408782958984
53	143.26572704315186	response	0	2		51.0	2.5	/experiments/knapen_aot/oldvideos/S_yt-n6aLw10f2Yw_317.mp4	0.0	196.26825499534607	
53	143.27392411231995	movie	1		301.0	51.0	2.5	/experiments/knapen_aot/oldvideos/S_yt-n6aLw10f2Yw_317.mp4	0.0	196.27645206451416	2.5083999633789062
53	145.78232407569885	fix_post	2		12.0	51.0	2.5	/experiments/knapen_aot/oldvideos/S_yt-n6aLw10f2Yw_317.mp4	0.0	198.78485202789307	0.10010099411010742
54	145.88242506980896	fix_pre	0		30.0	52.0	2.5	/experiments/knapen_aot/oldvideos/S_comp_GMT308_139K_142NC_CARIBBEAN_DAY_v09_SDR_FINAL_22062018_SDR_2K_AVC.mp4	0.0	198.88495302200317	0.24988293647766113
54	146.12409806251526	response	0	2		52.0	2.5	/experiments/knapen_aot/oldvideos/S_comp_GMT308_139K_142NC_CARIBBEAN_DAY_v09_SDR_FINAL_22062018_SDR_2K_AVC.mp4	0.0	199.12662601470947	
54	146.13230800628662	movie	1		169.0	52.0	2.5	/experiments/knapen_aot/oldvideos/S_comp_GMT308_139K_142NC_CARIBBEAN_DAY_v09_SDR_FINAL_22062018_SDR_2K_AVC.mp4	0.0	199.13483595848083	2.508355140686035
54	148.64066314697266	fix_post	2		12.0	52.0	2.5	/experiments/knapen_aot/oldvideos/S_comp_GMT308_139K_142NC_CARIBBEAN_DAY_v09_SDR_FINAL_22062018_SDR_2K_AVC.mp4	0.0	201.64319109916687	0.10036587715148926
55	148.74102902412415	fix_pre	0		22.0	53.0	2.5	/experiments/knapen_aot/oldvideos/R_S_production_ID_4997166.mp4	0.0	201.74355697631836	0.18294501304626465
55	148.9157350063324	response	0	2		53.0	2.5	/experiments/knapen_aot/oldvideos/R_S_production_ID_4997166.mp4	0.0	201.9182629585266	
55	148.9239740371704	movie	1		166.0	53.0	2.5	/experiments/knapen_aot/oldvideos/R_S_production_ID_4997166.mp4	0.0	201.92650198936462	2.5083401203155518
55	151.43231415748596	fix_post	2		12.0	53.0	2.5	/experiments/knapen_aot/oldvideos/R_S_production_ID_4997166.mp4	0.0	204.43484210968018	0.10037589073181152
56	151.53269004821777	fix_pre	0		20.0	54.0	2.5	/experiments/knapen_aot/oldvideos/R_S_yt-pOCEuqVE7ro_61.mp4	0.0	204.535218000412	0.16676807403564453
56	151.6906931400299	response	0	2		54.0	2.5	/experiments/knapen_aot/oldvideos/R_S_yt-pOCEuqVE7ro_61.mp4	0.0	204.69322109222412	
56	151.69945812225342	movie	1		301.0	54.0	2.5	/experiments/knapen_aot/oldvideos/R_S_yt-pOCEuqVE7ro_61.mp4	0.0	204.70198607444763	2.507844924926758
56	154.20730304718018	fix_post	2		12.0	54.0	2.5	/experiments/knapen_aot/oldvideos/R_S_yt-pOCEuqVE7ro_61.mp4	0.0	207.2098309993744	0.100006103515625
57	154.3073091506958	fix_pre	0		115.0	55.0	2.5	/experiments/knapen_aot/oldvideos/S_Pexels_Videos_2795737.mp4	0.0	207.30983710289001	0.9582090377807617
57	155.2573320865631	response	0	2		55.0	2.5	/experiments/knapen_aot/oldvideos/S_Pexels_Videos_2795737.mp4	0.0	208.25986003875732	
57	155.26551818847656	movie	1		166.0	55.0	2.5	/experiments/knapen_aot/oldvideos/S_Pexels_Videos_2795737.mp4	0.0	208.26804614067078	2.50839900970459
57	157.77391719818115	fix_post	2		12.0	55.0	2.5	/experiments/knapen_aot/oldvideos/S_Pexels_Videos_2795737.mp4	0.0	210.77644515037537	0.10001683235168457
58	157.87393403053284	fix_pre	0		16.0	56.0	2.5	blank	1.0	210.87646198272705	0.1333019733428955
58	157.99906420707703	response	0	2		56.0	2.5	blank	1.0	211.00159215927124	
58	158.00723600387573	movie	1		301.0	56.0	2.5	blank	1.0	211.00976395606995	2.508219003677368
58	160.5154550075531	fix_post	2		12.0	56.0	2.5	blank	1.0	213.51798295974731	0.1005091667175293
59	160.61596417427063	fix_pre	0		34.0	57.0	2.5	/experiments/knapen_aot/oldvideos/S_yt-WTxvvlP8xnw_113.mp4	0.0	213.61849212646484	0.282973051071167
59	160.8830211162567	response	0	2		57.0	2.5	/experiments/knapen_aot/oldvideos/S_yt-WTxvvlP8xnw_113.mp4	0.0	213.88554906845093	
59	160.8989372253418	movie	1		301.0	57.0	2.5	/experiments/knapen_aot/oldvideos/S_yt-WTxvvlP8xnw_113.mp4	0.0	213.901465177536	2.5082647800445557
59	163.40720200538635	fix_post	2		12.0	57.0	2.5	/experiments/knapen_aot/oldvideos/S_yt-WTxvvlP8xnw_113.mp4	0.0	216.40972995758057	0.10002803802490234
60	163.50723004341125	fix_pre	0		21.0	58.0	2.5	/experiments/knapen_aot/oldvideos/S_yt-mHLTJkMrkZI_143.mp4	0.0	216.50975799560547	0.1749861240386963
60	163.6740140914917	response	0	2		58.0	2.5	/experiments/knapen_aot/oldvideos/S_yt-mHLTJkMrkZI_143.mp4	0.0	216.6765420436859	
60	163.68221616744995	movie	1		301.0	58.0	2.5	/experiments/knapen_aot/oldvideos/S_yt-mHLTJkMrkZI_143.mp4	0.0	216.68474411964417	2.508275032043457
60	166.1904911994934	fix_post	2		12.0	58.0	2.5	/experiments/knapen_aot/oldvideos/S_yt-mHLTJkMrkZI_143.mp4	0.0	219.19301915168762	0.10007786750793457
61	166.29056906700134	fix_pre	0		8.0	59.0	2.5	/experiments/knapen_aot/oldvideos/R_S_yt-Fdv-V--QlR0_117.mp4	0.0	219.29309701919556	0.06662607192993164
61	166.3488371372223	response	0	2		59.0	2.5	/experiments/knapen_aot/oldvideos/R_S_yt-Fdv-V--QlR0_117.mp4	0.0	219.3513650894165	
61	166.35719513893127	movie	1		301.0	59.0	2.5	/experiments/knapen_aot/oldvideos/R_S_yt-Fdv-V--QlR0_117.mp4	0.0	219.3597230911255	2.5087289810180664
61	168.86592411994934	fix_post	2		12.0	59.0	2.5	/experiments/knapen_aot/oldvideos/R_S_yt-Fdv-V--QlR0_117.mp4	0.0	221.86845207214355	0.09960198402404785
62	168.9655261039734	fix_pre	0		20.0	60.0	2.5	/experiments/knapen_aot/oldvideos/R_S_comp_A008_C007_011550_CC_v01_SDR_PS_FINAL_20180709_SDR_2K_AVC.mp4	0.0	221.9680540561676	0.16662311553955078
62	169.1239800453186	response	0	2		60.0	2.5	/experiments/knapen_aot/oldvideos/R_S_comp_A008_C007_011550_CC_v01_SDR_PS_FINAL_20180709_SDR_2K_AVC.mp4	0.0	222.12650799751282	
62	169.13214921951294	movie	1		163.0	60.0	2.5	/experiments/knapen_aot/oldvideos/R_S_comp_A008_C007_011550_CC_v01_SDR_PS_FINAL_20180709_SDR_2K_AVC.mp4	0.0	222.13467717170715	2.508420944213867
62	171.6405701637268	fix_post	2		12.0	60.0	2.5	/experiments/knapen_aot/oldvideos/R_S_comp_A008_C007_011550_CC_v01_SDR_PS_FINAL_20180709_SDR_2K_AVC.mp4	0.0	224.64309811592102	0.10026884078979492
63	171.7408390045166	fix_pre	0		22.0	61.0	2.5	/experiments/knapen_aot/oldvideos/R_S_yt-GBt59U0KUR0_6.mp4	0.0	224.74336695671082	0.18297719955444336
63	171.91561603546143	response	0	2		61.0	2.5	/experiments/knapen_aot/oldvideos/R_S_yt-GBt59U0KUR0_6.mp4	0.0	224.91814398765564	
63	171.92381620407104	movie	1		301.0	61.0	2.5	/experiments/knapen_aot/oldvideos/R_S_yt-GBt59U0KUR0_6.mp4	0.0	224.92634415626526	2.5083467960357666
63	174.4321630001068	fix_post	2		12.0	61.0	2.5	/experiments/knapen_aot/oldvideos/R_S_yt-GBt59U0KUR0_6.mp4	0.0	227.43469095230103	0.10038900375366211
64	174.53255200386047	fix_pre	0		8.0	62.0	2.5	blank	1.0	227.5350799560547	0.0662841796875
64	174.5906581878662	response	0	2		62.0	2.5	blank	1.0	227.59318614006042	
64	174.59883618354797	movie	1		301.0	62.0	2.5	blank	1.0	227.6013641357422	2.5083258152008057
64	177.10716199874878	fix_post	2		12.0	62.0	2.5	blank	1.0	230.109689950943	0.09998321533203125
65	177.2071452140808	fix_pre	0		30.0	63.0	2.5	/experiments/knapen_aot/oldvideos/S_production_ID_3923518.mp4	0.0	230.20967316627502	0.24996590614318848
65	177.44893312454224	response	0	2		63.0	2.5	/experiments/knapen_aot/oldvideos/S_production_ID_3923518.mp4	0.0	230.45146107673645	
65	177.457111120224	movie	1		164.0	63.0	2.5	/experiments/knapen_aot/oldvideos/S_production_ID_3923518.mp4	0.0	230.4596390724182	2.5083799362182617
65	179.96549105644226	fix_post	2		12.0	63.0	2.5	/experiments/knapen_aot/oldvideos/S_production_ID_3923518.mp4	0.0	232.96801900863647	0.1000051498413086
66	180.06549620628357	fix_pre	0		13.0	64.0	2.5	/experiments/knapen_aot/oldvideos/R_S_yt-SRozDkhwx28_1463.mp4	0.0	233.06802415847778	0.10827183723449707
66	180.1657681465149	response	0	2		64.0	2.5	/experiments/knapen_aot/oldvideos/R_S_yt-SRozDkhwx28_1463.mp4	0.0	233.1682960987091	
66	180.17376804351807	movie	1		301.0	64.0	2.5	/experiments/knapen_aot/oldvideos/R_S_yt-SRozDkhwx28_1463.mp4	0.0	233.17629599571228	2.5083110332489014
66	182.68207907676697	fix_post	2		12.0	64.0	2.5	/experiments/knapen_aot/oldvideos/R_S_yt-SRozDkhwx28_1463.mp4	0.0	235.68460702896118	0.10027909278869629
67	182.78235816955566	fix_pre	0		19.0	65.0	2.5	/experiments/knapen_aot/oldvideos/R_S_Pexels_Videos_2795737.mp4	0.0	235.78488612174988	0.15804195404052734
67	182.93228220939636	response	0	2		65.0	2.5	/experiments/knapen_aot/oldvideos/R_S_Pexels_Videos_2795737.mp4	0.0	235.93481016159058	
67	182.9404001235962	movie	1		165.0	65.0	2.5	/experiments/knapen_aot/oldvideos/R_S_Pexels_Videos_2795737.mp4	0.0	235.9429280757904	2.5087890625
67	185.4491891860962	fix_post	2		12.0	65.0	2.5	/experiments/knapen_aot/oldvideos/R_S_Pexels_Videos_2795737.mp4	0.0	238.4517171382904	0.09981203079223633
68	185.54900121688843	fix_pre	0		25.0	66.0	2.5	/experiments/knapen_aot/oldvideos/R_S_yt-Xq6uX1jfFRk_21.mp4	0.0	238.55152916908264	0.20808792114257812
68	185.74881601333618	response	0	2		66.0	2.5	/experiments/knapen_aot/oldvideos/R_S_yt-Xq6uX1jfFRk_21.mp4	0.0	238.7513439655304	
68	185.757089138031	movie	1		301.0	66.0	2.5	/experiments/knapen_aot/oldvideos/R_S_yt-Xq6uX1jfFRk_21.mp4	0.0	238.75961709022522	2.5083348751068115
68	188.26542401313782	fix_post	2		12.0	66.0	2.5	/experiments/knapen_aot/oldvideos/R_S_yt-Xq6uX1jfFRk_21.mp4	0.0	241.26795196533203	0.10023903846740723
69	188.36566305160522	fix_pre	0		17.0	67.0	2.5	/experiments/knapen_aot/oldvideos/S_production_ID_4101242.mp4	0.0	241.36819100379944	0.1414191722869873
69	188.49883913993835	response	0	2		67.0	2.5	/experiments/knapen_aot/oldvideos/S_production_ID_4101242.mp4	0.0	241.50136709213257	
69	188.5070822238922	movie	1		202.0	67.0	2.5	/experiments/knapen_aot/oldvideos/S_production_ID_4101242.mp4	0.0	241.50961017608643	2.5087318420410156
69	191.01581406593323	fix_post	2		12.0	67.0	2.5	/experiments/knapen_aot/oldvideos/S_production_ID_4101242.mp4	0.0	244.01834201812744	0.0998849868774414
70	191.11569905281067	fix_pre	0		18.0	68.0	2.5	/experiments/knapen_aot/oldvideos/R_S_pexels-kindel-media-7147375.mp4	0.0	244.11822700500488	0.14970111846923828
70	191.25720310211182	response	0	2		68.0	2.5	/experiments/knapen_aot/oldvideos/R_S_pexels-kindel-media-7147375.mp4	0.0	244.25973105430603	
70	191.2654001712799	movie	1		165.0	68.0	2.5	/experiments/knapen_aot/oldvideos/R_S_pexels-kindel-media-7147375.mp4	0.0	244.26792812347412	2.5083799362182617
70	193.77378010749817	fix_post	2		12.0	68.0	2.5	/experiments/knapen_aot/oldvideos/R_S_pexels-kindel-media-7147375.mp4	0.0	246.77630805969238	0.09993600845336914
71	193.87371611595154	fix_pre	0		29.0	69.0	2.5	/experiments/knapen_aot/oldvideos/R_S_yt-yQrDeFlFmfM_138.mp4	0.0	246.87624406814575	0.24176692962646484
71	194.10721015930176	response	0	2		69.0	2.5	/experiments/knapen_aot/oldvideos/R_S_yt-yQrDeFlFmfM_138.mp4	0.0	247.10973811149597	
71	194.115483045578	movie	1		301.0	69.0	2.5	/experiments/knapen_aot/oldvideos/R_S_yt-yQrDeFlFmfM_138.mp4	0.0	247.11801099777222	2.508291006088257
71	196.62377405166626	fix_post	2		12.0	69.0	2.5	/experiments/knapen_aot/oldvideos/R_S_yt-yQrDeFlFmfM_138.mp4	0.0	249.62630200386047	0.10000395774841309
72	196.72377800941467	fix_pre	0		20.0	70.0	2.5	blank	1.0	249.7263059616089	0.16670012474060059
72	196.8822000026703	response	0	2		70.0	2.5	blank	1.0	249.8847279548645	
72	196.89047813415527	movie	1		301.0	70.0	2.5	blank	1.0	249.8930060863495	2.508288860321045
72	199.39876699447632	fix_post	2		12.0	70.0	2.5	blank	1.0	252.40129494667053	0.09999918937683105
73	199.49876618385315	fix_pre	0		36.0	71.0	2.5	/experiments/knapen_aot/oldvideos/S_yt-t-wpKypNysg_27.mp4	0.0	252.50129413604736	0.2999718189239502
73	199.7905330657959	response	0	2		71.0	2.5	/experiments/knapen_aot/oldvideos/S_yt-t-wpKypNysg_27.mp4	0.0	252.7930610179901	
73	199.7987380027771	movie	1		301.0	71.0	2.5	/experiments/knapen_aot/oldvideos/S_yt-t-wpKypNysg_27.mp4	0.0	252.8012659549713	2.508315086364746
73	202.30705308914185	fix_post	2		12.0	71.0	2.5	/experiments/knapen_aot/oldvideos/S_yt-t-wpKypNysg_27.mp4	0.0	255.30958104133606	0.10014700889587402
74	202.40720009803772	fix_pre	0		22.0	72.0	2.5	/experiments/knapen_aot/oldvideos/S_yt-EKPrSw5xF7k_112.mp4	0.0	255.40972805023193	0.18314695358276367
74	202.58209109306335	response	0	2		72.0	2.5	/experiments/knapen_aot/oldvideos/S_yt-EKPrSw5xF7k_112.mp4	0.0	255.58461904525757	
74	202.59034705162048	movie	1		301.0	72.0	2.5	/experiments/knapen_aot/oldvideos/S_yt-EKPrSw5xF7k_112.mp4	0.0	255.5928750038147	2.5083789825439453
74	205.09872603416443	fix_post	2		12.0	72.0	2.5	/experiments/knapen_aot/oldvideos/S_yt-EKPrSw5xF7k_112.mp4	0.0	258.10125398635864	0.10050201416015625
75	205.19922804832458	fix_pre	0		16.0	73.0	2.5	/experiments/knapen_aot/oldvideos/S_yt-HwEfWfFJhRo_73.mp4	0.0	258.2017560005188	0.13277006149291992
75	205.31619310379028	response	0	2		73.0	2.5	/experiments/knapen_aot/oldvideos/S_yt-HwEfWfFJhRo_73.mp4	0.0	258.3187210559845	
75	205.3319981098175	movie	1		301.0	73.0	2.5	/experiments/knapen_aot/oldvideos/S_yt-HwEfWfFJhRo_73.mp4	0.0	258.3345260620117	2.508302927017212
75	207.84030103683472	fix_post	2		12.0	73.0	2.5	/experiments/knapen_aot/oldvideos/S_yt-HwEfWfFJhRo_73.mp4	0.0	260.84282898902893	0.10006308555603027
76	207.94036412239075	fix_pre	0		7.0	74.0	2.5	/experiments/knapen_aot/oldvideos/S_yt-tfHCqgH1guY_235.mp4	0.0	260.94289207458496	0.058316946029663086
76	207.9829661846161	response	0	2		74.0	2.5	/experiments/knapen_aot/oldvideos/S_yt-tfHCqgH1guY_235.mp4	0.0	260.9854941368103	
76	207.9986810684204	movie	1		301.0	74.0	2.5	/experiments/knapen_aot/oldvideos/S_yt-tfHCqgH1guY_235.mp4	0.0	261.0012090206146	2.5083210468292236
76	210.50700211524963	fix_post	2		12.0	74.0	2.5	/experiments/knapen_aot/oldvideos/S_yt-tfHCqgH1guY_235.mp4	0.0	263.50953006744385	0.1001429557800293
77	210.60714507102966	fix_pre	0		12.0	75.0	2.5	blank	1.0	263.6096730232239	0.09981894493103027
77	210.69877910614014	response	0	2		75.0	2.5	blank	1.0	263.70130705833435	
77	210.7069640159607	movie	1		301.0	75.0	2.5	blank	1.0	263.7094919681549	2.5083680152893066
77	213.21533203125	fix_post	2		12.0	75.0	2.5	blank	1.0	266.2178599834442	0.10017609596252441
78	213.31550812721252	fix_pre	0		10.0	76.0	2.5	/experiments/knapen_aot/oldvideos/R_S_ILSVRC2015_train_00479003.mp4	0.0	266.31803607940674	0.08322501182556152
78	213.39040803909302	response	0	2		76.0	2.5	/experiments/knapen_aot/oldvideos/R_S_ILSVRC2015_train_00479003.mp4	0.0	266.39293599128723	
78	213.3987331390381	movie	1		301.0	76.0	2.5	/experiments/knapen_aot/oldvideos/R_S_ILSVRC2015_train_00479003.mp4	0.0	266.4012610912323	2.508301019668579
78	215.90703415870667	fix_post	2		12.0	76.0	2.5	/experiments/knapen_aot/oldvideos/R_S_ILSVRC2015_train_00479003.mp4	0.0	268.9095621109009	0.09996986389160156
79	216.00700402259827	fix_pre	0		7.0	77.0	2.5	/experiments/knapen_aot/oldvideos/R_S_yt-ZtS7ZrJ_rtk_525.mp4	0.0	269.0095319747925	0.05831003189086914
79	216.0495150089264	response	0	2		77.0	2.5	/experiments/knapen_aot/oldvideos/R_S_yt-ZtS7ZrJ_rtk_525.mp4	0.0	269.0520429611206	
79	216.06531405448914	movie	1		301.0	77.0	2.5	/experiments/knapen_aot/oldvideos/R_S_yt-ZtS7ZrJ_rtk_525.mp4	0.0	269.06784200668335	2.508388042449951
79	218.5737020969391	fix_post	2		11.0	77.0	2.5	/experiments/knapen_aot/oldvideos/R_S_yt-ZtS7ZrJ_rtk_525.mp4	0.0	271.5762300491333	0.09160590171813965
79	218.65709900856018	response	2	2		77.0	2.5	/experiments/knapen_aot/oldvideos/R_S_yt-ZtS7ZrJ_rtk_525.mp4	0.0	271.6596269607544	
80	218.66530799865723	fix_pre	0		65.0	78.0	2.5	/experiments/knapen_aot/oldvideos/S_production_ID_4997166.mp4	0.0	271.66783595085144	0.5416090488433838
80	219.1987030506134	response	0	2		78.0	2.5	/experiments/knapen_aot/oldvideos/S_production_ID_4997166.mp4	0.0	272.2012310028076	
80	219.2069170475006	movie	1		166.0	78.0	2.5	/experiments/knapen_aot/oldvideos/S_production_ID_4997166.mp4	0.0	272.2094449996948	2.5084571838378906
80	221.54880023002625	response	1	2		78.0	2.5	/experiments/knapen_aot/oldvideos/S_production_ID_4997166.mp4	0.0	274.55132818222046	
80	221.7153742313385	fix_post	2		12.0	78.0	2.5	/experiments/knapen_aot/oldvideos/S_production_ID_4997166.mp4	0.0	274.7179021835327	0.10137176513671875
80	221.8070261478424	response	2	2		78.0	2.5	/experiments/knapen_aot/oldvideos/S_production_ID_4997166.mp4	0.0	274.8095541000366	
81	221.81674599647522	fix_pre	0		50.0	79.0	2.5	/experiments/knapen_aot/oldvideos/R_S_yt-n6aLw10f2Yw_317.mp4	0.0	274.81927394866943	0.41518115997314453
81	222.22370719909668	response	0	2		79.0	2.5	/experiments/knapen_aot/oldvideos/R_S_yt-n6aLw10f2Yw_317.mp4	0.0	275.2262351512909	
81	222.23192715644836	movie	1		301.0	79.0	2.5	/experiments/knapen_aot/oldvideos/R_S_yt-n6aLw10f2Yw_317.mp4	0.0	275.2344551086426	2.508362054824829
81	224.5571141242981	response	1	2		79.0	2.5	/experiments/knapen_aot/oldvideos/R_S_yt-n6aLw10f2Yw_317.mp4	0.0	277.5596420764923	
81	224.7402892112732	fix_post	2		12.0	79.0	2.5	/experiments/knapen_aot/oldvideos/R_S_yt-n6aLw10f2Yw_317.mp4	0.0	277.7428171634674	0.10011100769042969
82	224.84040021896362	fix_pre	0		8.0	80.0	2.5	/experiments/knapen_aot/oldvideos/R_S_DL_B002_C011_SDR_20191122_SDR_2K_AVC.mp4	0.0	277.84292817115784	0.06647181510925293
82	224.89868116378784	response	0	2		80.0	2.5	/experiments/knapen_aot/oldvideos/R_S_DL_B002_C011_SDR_20191122_SDR_2K_AVC.mp4	0.0	277.90120911598206	
82	224.90687203407288	movie	1		166.0	80.0	2.5	/experiments/knapen_aot/oldvideos/R_S_DL_B002_C011_SDR_20191122_SDR_2K_AVC.mp4	0.0	277.9093999862671	2.508545160293579
82	227.41541719436646	fix_post	2		12.0	80.0	2.5	/experiments/knapen_aot/oldvideos/R_S_DL_B002_C011_SDR_20191122_SDR_2K_AVC.mp4	0.0	280.41794514656067	0.0998678207397461
83	227.5152850151062	fix_pre	0		12.0	81.0	2.5	/experiments/knapen_aot/oldvideos/S_yt-vY49oIv_dWg_73.mp4	0.0	280.5178129673004	0.09998106956481934
83	227.60704612731934	response	0	2		81.0	2.5	/experiments/knapen_aot/oldvideos/S_yt-vY49oIv_dWg_73.mp4	0.0	280.60957407951355	
83	227.61526608467102	movie	1		301.0	81.0	2.5	/experiments/knapen_aot/oldvideos/S_yt-vY49oIv_dWg_73.mp4	0.0	280.61779403686523	2.5083730220794678
83	230.1236391067505	fix_post	2		12.0	81.0	2.5	/experiments/knapen_aot/oldvideos/S_yt-vY49oIv_dWg_73.mp4	0.0	283.1261670589447	0.10015010833740234
84	230.2237892150879	fix_pre	0		14.0	82.0	2.5	/experiments/knapen_aot/oldvideos/R_S_pexels-mikael-blomkvist-8689852.mp4	0.0	283.2263171672821	0.11646389961242676
84	230.33204817771912	response	0	2		82.0	2.5	/experiments/knapen_aot/oldvideos/R_S_pexels-mikael-blomkvist-8689852.mp4	0.0	283.33457612991333	
84	230.34025311470032	movie	1		166.0	82.0	2.5	/experiments/knapen_aot/oldvideos/R_S_pexels-mikael-blomkvist-8689852.mp4	0.0	283.34278106689453	2.508315086364746
84	232.84856820106506	fix_post	2		12.0	82.0	2.5	/experiments/knapen_aot/oldvideos/R_S_pexels-mikael-blomkvist-8689852.mp4	0.0	285.8510961532593	0.10004901885986328
85	232.94861721992493	fix_pre	0		6.0	83.0	2.5	blank	1.0	285.95114517211914	0.049902915954589844
85	232.99037408828735	response	0	2		83.0	2.5	blank	1.0	285.99290204048157	
85	232.99852013587952	movie	1		301.0	83.0	2.5	blank	1.0	286.00104808807373	2.5083799362182617
85	235.50690007209778	fix_post	2		12.0	83.0	2.5	blank	1.0	288.509428024292	0.10002803802490234
87	235.60692811012268	stim	0		232.0					288.6094560623169	1.9387810230255127
87	235.76530814170837	response	0	2						288.7678360939026	
87	237.53683614730835	response	0	space						290.53936409950256	
