trial_nr	onset	event_type	phase	response	nr_frames	movie_index	movie_duration	movie_file	blank	onset_abs	duration
0	0.11739778518676758	stim	0		62.0					79.44838166236877	0.5156450271606445
0	0.6249349117279053	response	0	space						79.95591878890991	
1	0.6330428123474121	stim	0		121.0					79.96402668952942	1.0082390308380127
1	1.241353988647461	response	0	space						80.57233786582947	
1	1.5423228740692139	response	0	space						80.87330675125122	
1	1.6412818431854248	stim	1		120.0					80.97226572036743	0.9999990463256836
1	1.7662808895111084	response	1	space						81.09726476669312	
1	1.9663169384002686	response	1	space						81.29730081558228	
2	2.6412808895111084	fix_pre	0		11.0	0.0	2.5	/experiments/knapen_aot/videos/S_Ds4EKTLx_RI_51.mp4	0.0	81.97226476669312	0.09166312217712402
2	2.724733829498291	response	0	space		0.0	2.5	/experiments/knapen_aot/videos/S_Ds4EKTLx_RI_51.mp4	0.0	82.0557177066803	
2	2.7329440116882324	movie	1		300.0	0.0	2.5	/experiments/knapen_aot/videos/S_Ds4EKTLx_RI_51.mp4	0.0	82.06392788887024	2.5082337856292725
2	5.241177797317505	fix_post	2		12.0	0.0	2.5	/experiments/knapen_aot/videos/S_Ds4EKTLx_RI_51.mp4	0.0	84.57216167449951	0.10014200210571289
3	5.341319799423218	fix_pre	0		27.0	1.0	2.5	/experiments/knapen_aot/videos/R_S_yt-IigHVUksnw8_7.mp4	0.0	84.67230367660522	0.22707700729370117
3	5.562749862670898	response	0	2		1.0	2.5	/experiments/knapen_aot/videos/R_S_yt-IigHVUksnw8_7.mp4	0.0	84.8937337398529	
3	5.568396806716919	movie	1		299.0	1.0	2.5	/experiments/knapen_aot/videos/R_S_yt-IigHVUksnw8_7.mp4	0.0	84.89938068389893	2.5061709880828857
3	8.074567794799805	fix_post	2		12.0	1.0	2.5	/experiments/knapen_aot/videos/R_S_yt-IigHVUksnw8_7.mp4	0.0	87.40555167198181	0.09995198249816895
4	8.174519777297974	fix_pre	0		7.0	2.0	2.5	/experiments/knapen_aot/videos/S_RS_A008_C010_SDR_20191218_SDR_2K_AVC.mp4	0.0	87.50550365447998	0.05834221839904785
4	8.224700927734375	response	0	2		2.0	2.5	/experiments/knapen_aot/videos/S_RS_A008_C010_SDR_20191218_SDR_2K_AVC.mp4	0.0	87.55568480491638	
4	8.232861995697021	movie	1		171.0	2.0	2.5	/experiments/knapen_aot/videos/S_RS_A008_C010_SDR_20191218_SDR_2K_AVC.mp4	0.0	87.56384587287903	2.50830078125
4	10.741162776947021	fix_post	2		12.0	2.0	2.5	/experiments/knapen_aot/videos/S_RS_A008_C010_SDR_20191218_SDR_2K_AVC.mp4	0.0	90.07214665412903	0.10005021095275879
5	10.84121298789978	fix_pre	0		35.0	3.0	2.5	/experiments/knapen_aot/videos/S_pexels-cottonbro-6789228.mp4	0.0	90.17219686508179	0.29166293144226074
5	11.124610900878906	response	0	2		3.0	2.5	/experiments/knapen_aot/videos/S_pexels-cottonbro-6789228.mp4	0.0	90.45559477806091	
5	11.132875919342041	movie	1		202.0	3.0	2.5	/experiments/knapen_aot/videos/S_pexels-cottonbro-6789228.mp4	0.0	90.46385979652405	2.5084049701690674
5	13.641280889511108	fix_post	2		12.0	3.0	2.5	/experiments/knapen_aot/videos/S_pexels-cottonbro-6789228.mp4	0.0	92.97226476669312	0.10012412071228027
6	13.741405010223389	fix_pre	0		19.0	4.0	2.5	/experiments/knapen_aot/videos/S_ILSVRC2015_train_00042003.mp4	0.0	93.0723888874054	0.15816187858581543
6	13.891443967819214	response	0	2		4.0	2.5	/experiments/knapen_aot/videos/S_ILSVRC2015_train_00042003.mp4	0.0	93.22242784500122	
6	13.899566888809204	movie	1		301.0	4.0	2.5	/experiments/knapen_aot/videos/S_ILSVRC2015_train_00042003.mp4	0.0	93.23055076599121	2.508331060409546
6	16.40789794921875	fix_post	2		12.0	4.0	2.5	/experiments/knapen_aot/videos/S_ILSVRC2015_train_00042003.mp4	0.0	95.73888182640076	0.09998202323913574
6	16.491299867630005	response	2	2		4.0	2.5	/experiments/knapen_aot/videos/S_ILSVRC2015_train_00042003.mp4	0.0	95.82228374481201	
7	16.507879972457886	fix_pre	0		99.0	5.0	2.5	/experiments/knapen_aot/videos/S_yt-xCh0LI9VKeI_28.mp4	0.0	95.83886384963989	0.8249490261077881
7	17.324654817581177	response	0	2		5.0	2.5	/experiments/knapen_aot/videos/S_yt-xCh0LI9VKeI_28.mp4	0.0	96.65563869476318	
7	17.332828998565674	movie	1		301.0	5.0	2.5	/experiments/knapen_aot/videos/S_yt-xCh0LI9VKeI_28.mp4	0.0	96.66381287574768	2.508420944213867
7	19.84124994277954	fix_post	2		12.0	5.0	2.5	/experiments/knapen_aot/videos/S_yt-xCh0LI9VKeI_28.mp4	0.0	99.17223381996155	0.09989285469055176
8	19.941142797470093	fix_pre	0		18.0	6.0	2.5	/experiments/knapen_aot/videos/S_yt-14tjqjjjAEI_15.mp4	0.0	99.2721266746521	0.15003418922424316
8	20.082960844039917	response	0	4		6.0	2.5	/experiments/knapen_aot/videos/S_yt-14tjqjjjAEI_15.mp4	0.0	99.41394472122192	
8	20.091176986694336	movie	1		301.0	6.0	2.5	/experiments/knapen_aot/videos/S_yt-14tjqjjjAEI_15.mp4	0.0	99.42216086387634	2.508359909057617
8	22.599536895751953	fix_post	2		12.0	6.0	2.5	/experiments/knapen_aot/videos/S_yt-14tjqjjjAEI_15.mp4	0.0	101.93052077293396	0.09997105598449707
9	22.69950795173645	fix_pre	0		2.0	7.0	2.5	blank	1.0	102.03049182891846	0.016674041748046875
9	22.70793890953064	response	0	4		7.0	2.5	blank	1.0	102.03892278671265	
9	22.716181993484497	movie	1		301.0	7.0	2.5	blank	1.0	102.0471658706665	2.508500814437866
9	24.15790581703186	response	1	4		7.0	2.5	blank	1.0	103.48888969421387	
9	25.1495418548584	response	1	4		7.0	2.5	blank	1.0	104.4805257320404	
9	25.224682807922363	fix_post	2		12.0	7.0	2.5	blank	1.0	104.55566668510437	0.10002613067626953
10	25.324708938598633	fix_pre	0		19.0	8.0	2.5	/experiments/knapen_aot/videos/S_ILSVRC2015_train_00339001.mp4	0.0	104.65569281578064	0.15810704231262207
10	25.474488973617554	response	0	4		8.0	2.5	/experiments/knapen_aot/videos/S_ILSVRC2015_train_00339001.mp4	0.0	104.80547285079956	
10	25.482815980911255	movie	1		301.0	8.0	2.5	/experiments/knapen_aot/videos/S_ILSVRC2015_train_00339001.mp4	0.0	104.81379985809326	2.508328914642334
10	27.99114489555359	fix_post	2		12.0	8.0	2.5	/experiments/knapen_aot/videos/S_ILSVRC2015_train_00339001.mp4	0.0	107.3221287727356	0.10012006759643555
11	28.091264963150024	fix_pre	0		38.0	9.0	2.5	/experiments/knapen_aot/videos/R_S_ILSVRC2015_train_00324002.mp4	0.0	107.42224884033203	0.3172798156738281
11	28.392095804214478	response	0	4		9.0	2.5	/experiments/knapen_aot/videos/R_S_ILSVRC2015_train_00324002.mp4	0.0	107.72307968139648	
11	28.408544778823853	movie	1		301.0	9.0	2.5	/experiments/knapen_aot/videos/R_S_ILSVRC2015_train_00324002.mp4	0.0	107.73952865600586	2.5076680183410645
11	30.916212797164917	fix_post	2		12.0	9.0	2.5	/experiments/knapen_aot/videos/R_S_ILSVRC2015_train_00324002.mp4	0.0	110.24719667434692	0.09989404678344727
11	31.007910013198853	response	2	4		9.0	2.5	/experiments/knapen_aot/videos/R_S_ILSVRC2015_train_00324002.mp4	0.0	110.33889389038086	
12	31.016106843948364	fix_pre	0		85.0	10.0	2.5	/experiments/knapen_aot/videos/R_S_ILSVRC2015_train_00565000.mp4	0.0	110.34709072113037	0.7083230018615723
12	31.708695888519287	response	0	4		10.0	2.5	/experiments/knapen_aot/videos/R_S_ILSVRC2015_train_00565000.mp4	0.0	111.0396797657013	
12	31.724429845809937	movie	1		301.0	10.0	2.5	/experiments/knapen_aot/videos/R_S_ILSVRC2015_train_00565000.mp4	0.0	111.05541372299194	2.508324146270752
12	34.23275399208069	fix_post	2		12.0	10.0	2.5	/experiments/knapen_aot/videos/R_S_ILSVRC2015_train_00565000.mp4	0.0	113.5637378692627	0.10006284713745117
13	34.33281683921814	fix_pre	0		23.0	11.0	2.5	/experiments/knapen_aot/videos/S_ILSVRC2015_train_00411001.mp4	0.0	113.66380071640015	0.19164705276489258
13	34.516260862350464	response	0	4		11.0	2.5	/experiments/knapen_aot/videos/S_ILSVRC2015_train_00411001.mp4	0.0	113.84724473953247	
13	34.52446389198303	movie	1		301.0	11.0	2.5	/experiments/knapen_aot/videos/S_ILSVRC2015_train_00411001.mp4	0.0	113.85544776916504	2.508347988128662
13	37.032811880111694	fix_post	2		12.0	11.0	2.5	/experiments/knapen_aot/videos/S_ILSVRC2015_train_00411001.mp4	0.0	116.3637957572937	0.09995794296264648
14	37.13276982307434	fix_pre	0		7.0	12.0	2.5	/experiments/knapen_aot/videos/R_S_wc-zkO_omg3nTvg_5.mp4	0.0	116.46375370025635	0.05837607383728027
14	37.182868003845215	response	0	4		12.0	2.5	/experiments/knapen_aot/videos/R_S_wc-zkO_omg3nTvg_5.mp4	0.0	116.51385188102722	
14	37.19114589691162	movie	1		165.0	12.0	2.5	/experiments/knapen_aot/videos/R_S_wc-zkO_omg3nTvg_5.mp4	0.0	116.52212977409363	2.508315086364746
14	39.69946098327637	fix_post	2		12.0	12.0	2.5	/experiments/knapen_aot/videos/R_S_wc-zkO_omg3nTvg_5.mp4	0.0	119.03044486045837	0.09998703002929688
15	39.799448013305664	fix_pre	0		2.0	13.0	2.5	blank	1.0	119.13043189048767	0.016739845275878906
15	39.807907819747925	response	0	4		13.0	2.5	blank	1.0	119.13889169692993	
15	39.81618785858154	movie	1		301.0	13.0	2.5	blank	1.0	119.14717173576355	2.5082709789276123
15	41.3745858669281	response	1	4		13.0	2.5	blank	1.0	120.70556974411011	
15	42.324458837509155	fix_post	2		12.0	13.0	2.5	blank	1.0	121.65544271469116	0.09991097450256348
16	42.42436981201172	fix_pre	0		21.0	14.0	2.5	/experiments/knapen_aot/videos/S_ILSVRC2015_train_00682000.mp4	0.0	121.75535368919373	0.17507100105285645
16	42.591216802597046	response	0	4		14.0	2.5	/experiments/knapen_aot/videos/S_ILSVRC2015_train_00682000.mp4	0.0	121.92220067977905	
16	42.599440813064575	movie	1		301.0	14.0	2.5	/experiments/knapen_aot/videos/S_ILSVRC2015_train_00682000.mp4	0.0	121.93042469024658	2.5083720684051514
16	45.10781288146973	fix_post	2		12.0	14.0	2.5	/experiments/knapen_aot/videos/S_ILSVRC2015_train_00682000.mp4	0.0	124.43879675865173	0.09992694854736328
17	45.20773983001709	fix_pre	0		64.0	15.0	2.5	/experiments/knapen_aot/videos/S_ILSVRC2015_train_00324002.mp4	0.0	124.5387237071991	0.5339829921722412
17	45.73292088508606	response	0	4		15.0	2.5	/experiments/knapen_aot/videos/S_ILSVRC2015_train_00324002.mp4	0.0	125.06390476226807	
17	45.74172282218933	movie	1		301.0	15.0	2.5	/experiments/knapen_aot/videos/S_ILSVRC2015_train_00324002.mp4	0.0	125.07270669937134	2.5076911449432373
17	48.24941396713257	fix_post	2		12.0	15.0	2.5	/experiments/knapen_aot/videos/S_ILSVRC2015_train_00324002.mp4	0.0	127.58039784431458	0.10000300407409668
17	48.3329119682312	response	2	4		15.0	2.5	/experiments/knapen_aot/videos/S_ILSVRC2015_train_00324002.mp4	0.0	127.66389584541321	
18	48.349416971206665	fix_pre	0		75.0	16.0	2.5	/experiments/knapen_aot/videos/S_ILSVRC2015_train_00405001.mp4	0.0	127.68040084838867	0.6250338554382324
18	48.96613097190857	response	0	4		16.0	2.5	/experiments/knapen_aot/videos/S_ILSVRC2015_train_00405001.mp4	0.0	128.29711484909058	
18	48.9744508266449	movie	1		301.0	16.0	2.5	/experiments/knapen_aot/videos/S_ILSVRC2015_train_00405001.mp4	0.0	128.3054347038269	2.5083720684051514
18	51.48282289505005	fix_post	2		12.0	16.0	2.5	/experiments/knapen_aot/videos/S_ILSVRC2015_train_00405001.mp4	0.0	130.81380677223206	0.09993505477905273
19	51.5827579498291	fix_pre	0		27.0	17.0	2.5	/experiments/knapen_aot/videos/R_S_yt-QFGyhhr1KSQ_9.mp4	0.0	130.9137418270111	0.22495102882385254
19	51.799468994140625	response	0	4		17.0	2.5	/experiments/knapen_aot/videos/R_S_yt-QFGyhhr1KSQ_9.mp4	0.0	131.13045287132263	
19	51.807708978652954	movie	1		301.0	17.0	2.5	/experiments/knapen_aot/videos/R_S_yt-QFGyhhr1KSQ_9.mp4	0.0	131.13869285583496	2.508342981338501
19	54.316051959991455	fix_post	2		12.0	17.0	2.5	/experiments/knapen_aot/videos/R_S_yt-QFGyhhr1KSQ_9.mp4	0.0	133.64703583717346	0.10007286071777344
20	54.41612482070923	fix_pre	0		26.0	18.0	2.5	/experiments/knapen_aot/videos/S_ILSVRC2015_train_00303005.mp4	0.0	133.74710869789124	0.21660518646240234
20	54.62448692321777	response	0	4		18.0	2.5	/experiments/knapen_aot/videos/S_ILSVRC2015_train_00303005.mp4	0.0	133.95547080039978	
20	54.63273000717163	movie	1		301.0	18.0	2.5	/experiments/knapen_aot/videos/S_ILSVRC2015_train_00303005.mp4	0.0	133.96371388435364	2.5082948207855225
20	57.14102482795715	fix_post	2		12.0	18.0	2.5	/experiments/knapen_aot/videos/S_ILSVRC2015_train_00303005.mp4	0.0	136.47200870513916	0.10006904602050781
21	57.24109387397766	fix_pre	0		41.0	19.0	2.5	/experiments/knapen_aot/videos/S_comp_C001_C005_PS_v01_SDR_PS_20180925_SDR_2K_AVC.mp4	0.0	136.57207775115967	0.34154295921325684
21	57.57451391220093	response	0	4		19.0	2.5	/experiments/knapen_aot/videos/S_comp_C001_C005_PS_v01_SDR_PS_20180925_SDR_2K_AVC.mp4	0.0	136.90549778938293	
21	57.58263683319092	movie	1		169.0	19.0	2.5	/experiments/knapen_aot/videos/S_comp_C001_C005_PS_v01_SDR_PS_20180925_SDR_2K_AVC.mp4	0.0	136.91362071037292	2.5083839893341064
21	59.81108593940735	response	1	4		19.0	2.5	/experiments/knapen_aot/videos/S_comp_C001_C005_PS_v01_SDR_PS_20180925_SDR_2K_AVC.mp4	0.0	139.14206981658936	
21	60.091020822525024	fix_post	2		12.0	19.0	2.5	/experiments/knapen_aot/videos/S_comp_C001_C005_PS_v01_SDR_PS_20180925_SDR_2K_AVC.mp4	0.0	139.42200469970703	0.09993910789489746
22	60.19095993041992	fix_pre	0		69.0	20.0	2.5	/experiments/knapen_aot/videos/R_S_yt-NuJbedGLcQY_112.mp4	0.0	139.52194380760193	0.57505202293396
22	60.757807970047	response	0	4		20.0	2.5	/experiments/knapen_aot/videos/R_S_yt-NuJbedGLcQY_112.mp4	0.0	140.088791847229	
22	60.76601195335388	movie	1		301.0	20.0	2.5	/experiments/knapen_aot/videos/R_S_yt-NuJbedGLcQY_112.mp4	0.0	140.0969958305359	2.5083248615264893
22	63.27433681488037	fix_post	2		12.0	20.0	2.5	/experiments/knapen_aot/videos/R_S_yt-NuJbedGLcQY_112.mp4	0.0	142.60532069206238	0.10001015663146973
23	63.37434697151184	fix_pre	0		61.0	21.0	2.5	blank	1.0	142.70533084869385	0.5083279609680176
23	63.866896867752075	response	0	4		21.0	2.5	blank	1.0	143.19788074493408	
23	63.88267493247986	movie	1		301.0	21.0	2.5	blank	1.0	143.21365880966187	2.5083229541778564
23	66.39099788665771	fix_post	2		12.0	21.0	2.5	blank	1.0	145.72198176383972	0.0999898910522461
24	66.49098777770996	fix_pre	0		18.0	22.0	2.5	/experiments/knapen_aot/videos/R_S_yt-tNCrkObhB6c_17.mp4	0.0	145.82197165489197	0.15008211135864258
24	66.63277196884155	response	0	4		22.0	2.5	/experiments/knapen_aot/videos/R_S_yt-tNCrkObhB6c_17.mp4	0.0	145.96375584602356	
24	66.6410698890686	movie	1		301.0	22.0	2.5	/experiments/knapen_aot/videos/R_S_yt-tNCrkObhB6c_17.mp4	0.0	145.9720537662506	2.5101780891418457
24	69.15124797821045	fix_post	2		12.0	22.0	2.5	/experiments/knapen_aot/videos/R_S_yt-tNCrkObhB6c_17.mp4	0.0	148.48223185539246	0.09802103042602539
25	69.24926900863647	fix_pre	0		8.0	23.0	2.5	/experiments/knapen_aot/videos/S_yt-xvIZtEVkebk_462.mp4	0.0	148.58025288581848	0.0667119026184082
25	69.30774998664856	response	0	4		23.0	2.5	/experiments/knapen_aot/videos/S_yt-xvIZtEVkebk_462.mp4	0.0	148.63873386383057	
25	69.31598091125488	movie	1		301.0	23.0	2.5	/experiments/knapen_aot/videos/S_yt-xvIZtEVkebk_462.mp4	0.0	148.6469647884369	2.5083839893341064
25	71.82436490058899	fix_post	2		12.0	23.0	2.5	/experiments/knapen_aot/videos/S_yt-xvIZtEVkebk_462.mp4	0.0	151.155348777771	0.09990096092224121
26	71.92426586151123	fix_pre	0		35.0	24.0	2.5	/experiments/knapen_aot/videos/S_wc-WgOBK5IL7vex_4.mp4	0.0	151.25524973869324	0.29166507720947266
26	72.20777177810669	response	0	4		24.0	2.5	/experiments/knapen_aot/videos/S_wc-WgOBK5IL7vex_4.mp4	0.0	151.5387556552887	
26	72.2159309387207	movie	1		163.0	24.0	2.5	/experiments/knapen_aot/videos/S_wc-WgOBK5IL7vex_4.mp4	0.0	151.5469148159027	2.508448839187622
26	74.72437977790833	fix_post	2		12.0	24.0	2.5	/experiments/knapen_aot/videos/S_wc-WgOBK5IL7vex_4.mp4	0.0	154.05536365509033	0.10038518905639648
27	74.82476496696472	fix_pre	0		1.0	25.0	2.5	/experiments/knapen_aot/videos/R_S_yt-hDYtYKUsVE4_120.mp4	0.0	154.15574884414673	0.007872819900512695
27	74.82642388343811	response	0	4		25.0	2.5	/experiments/knapen_aot/videos/R_S_yt-hDYtYKUsVE4_120.mp4	0.0	154.15740776062012	
27	74.83263778686523	movie	1		301.0	25.0	2.5	/experiments/knapen_aot/videos/R_S_yt-hDYtYKUsVE4_120.mp4	0.0	154.16362166404724	2.5083792209625244
27	77.34101700782776	fix_post	2		12.0	25.0	2.5	/experiments/knapen_aot/videos/R_S_yt-hDYtYKUsVE4_120.mp4	0.0	156.67200088500977	0.10001087188720703
28	77.44102787971497	fix_pre	0		2.0	26.0	2.5	blank	1.0	156.77201175689697	0.016655921936035156
28	77.45007491111755	response	0	4		26.0	2.5	blank	1.0	156.78105878829956	
28	77.457683801651	movie	1		301.0	26.0	2.5	blank	1.0	156.788667678833	2.508378028869629
28	79.96606183052063	fix_post	2		12.0	26.0	2.5	blank	1.0	159.29704570770264	0.09992814064025879
29	80.06598997116089	fix_pre	0		15.0	27.0	2.5	/experiments/knapen_aot/videos/R_S_ILSVRC2015_train_00628000.mp4	0.0	159.3969738483429	0.12492203712463379
29	80.18275380134583	response	0	4		27.0	2.5	/experiments/knapen_aot/videos/R_S_ILSVRC2015_train_00628000.mp4	0.0	159.51373767852783	
29	80.19091200828552	movie	1		301.0	27.0	2.5	/experiments/knapen_aot/videos/R_S_ILSVRC2015_train_00628000.mp4	0.0	159.52189588546753	2.5084049701690674
29	82.69931697845459	fix_post	2		12.0	27.0	2.5	/experiments/knapen_aot/videos/R_S_ILSVRC2015_train_00628000.mp4	0.0	162.0303008556366	0.0999758243560791
30	82.79929280281067	fix_pre	0		16.0	28.0	2.5	/experiments/knapen_aot/videos/R_S_wc-zkO_omg3nTvg_5.mp4	0.0	162.13027667999268	0.13329815864562988
30	82.9243438243866	response	0	4		28.0	2.5	/experiments/knapen_aot/videos/R_S_wc-zkO_omg3nTvg_5.mp4	0.0	162.2553277015686	
30	82.9325909614563	movie	1		166.0	28.0	2.5	/experiments/knapen_aot/videos/R_S_wc-zkO_omg3nTvg_5.mp4	0.0	162.2635748386383	2.50838303565979
30	85.44097399711609	fix_post	2		12.0	28.0	2.5	/experiments/knapen_aot/videos/R_S_wc-zkO_omg3nTvg_5.mp4	0.0	164.7719578742981	0.09998893737792969
31	85.54096293449402	fix_pre	0		12.0	29.0	2.5	/experiments/knapen_aot/videos/R_S_yt-6DJulOrg2-8_122.mp4	0.0	164.87194681167603	0.0999598503112793
31	85.63270378112793	response	0	4		29.0	2.5	/experiments/knapen_aot/videos/R_S_yt-6DJulOrg2-8_122.mp4	0.0	164.96368765830994	
31	85.6409227848053	movie	1		301.0	29.0	2.5	/experiments/knapen_aot/videos/R_S_yt-6DJulOrg2-8_122.mp4	0.0	164.9719066619873	2.5083720684051514
31	88.14929485321045	fix_post	2		12.0	29.0	2.5	/experiments/knapen_aot/videos/R_S_yt-6DJulOrg2-8_122.mp4	0.0	167.48027873039246	0.09998703002929688
32	88.24928188323975	fix_pre	0		12.0	30.0	2.5	/experiments/knapen_aot/videos/S_yt-VJ65ukWmdxQ_193.mp4	0.0	167.58026576042175	0.09998703002929688
32	88.34109497070312	response	0	4		30.0	2.5	/experiments/knapen_aot/videos/S_yt-VJ65ukWmdxQ_193.mp4	0.0	167.67207884788513	
32	88.34926891326904	movie	1		301.0	30.0	2.5	/experiments/knapen_aot/videos/S_yt-VJ65ukWmdxQ_193.mp4	0.0	167.68025279045105	2.5083160400390625
32	90.8575849533081	fix_post	2		12.0	30.0	2.5	/experiments/knapen_aot/videos/S_yt-VJ65ukWmdxQ_193.mp4	0.0	170.1885688304901	0.1000218391418457
33	90.95760679244995	fix_pre	0		17.0	31.0	2.5	/experiments/knapen_aot/videos/S_yt-fk-z6WCvjjA_3.mp4	0.0	170.28859066963196	0.14162611961364746
33	91.09105682373047	response	0	4		31.0	2.5	/experiments/knapen_aot/videos/S_yt-fk-z6WCvjjA_3.mp4	0.0	170.42204070091248	
33	91.0992329120636	movie	1		301.0	31.0	2.5	/experiments/knapen_aot/videos/S_yt-fk-z6WCvjjA_3.mp4	0.0	170.4302167892456	2.508513927459717
33	93.60774683952332	fix_post	2		12.0	31.0	2.5	/experiments/knapen_aot/videos/S_yt-fk-z6WCvjjA_3.mp4	0.0	172.93873071670532	0.09980010986328125
34	93.7075469493866	fix_pre	0		28.0	32.0	2.5	/experiments/knapen_aot/videos/S_Y011_C001_SDR_2K_AVC.mp4	0.0	173.0385308265686	0.23332595825195312
34	93.9325590133667	response	0	4		32.0	2.5	/experiments/knapen_aot/videos/S_Y011_C001_SDR_2K_AVC.mp4	0.0	173.2635428905487	
34	93.94087290763855	movie	1		170.0	32.0	2.5	/experiments/knapen_aot/videos/S_Y011_C001_SDR_2K_AVC.mp4	0.0	173.27185678482056	2.50827693939209
34	96.44914984703064	fix_post	2		12.0	32.0	2.5	/experiments/knapen_aot/videos/S_Y011_C001_SDR_2K_AVC.mp4	0.0	175.78013372421265	0.10006403923034668
35	96.54921388626099	fix_pre	0		16.0	33.0	2.5	/experiments/knapen_aot/videos/S_Pexels_Videos_2795737.mp4	0.0	175.880197763443	0.13330912590026855
35	96.67435193061829	response	0	4		33.0	2.5	/experiments/knapen_aot/videos/S_Pexels_Videos_2795737.mp4	0.0	176.0053358078003	
35	96.68252301216125	movie	1		168.0	33.0	2.5	/experiments/knapen_aot/videos/S_Pexels_Videos_2795737.mp4	0.0	176.01350688934326	2.5083439350128174
35	99.19086694717407	fix_post	2		12.0	33.0	2.5	/experiments/knapen_aot/videos/S_Pexels_Videos_2795737.mp4	0.0	178.52185082435608	0.09993791580200195
36	99.29080486297607	fix_pre	0		25.0	34.0	2.5	/experiments/knapen_aot/videos/R_S_yt-NqyG4Ar2JWo_10.mp4	0.0	178.62178874015808	0.2084200382232666
36	99.49095892906189	response	0	4		34.0	2.5	/experiments/knapen_aot/videos/R_S_yt-NqyG4Ar2JWo_10.mp4	0.0	178.8219428062439	
36	99.49922490119934	movie	1		301.0	34.0	2.5	/experiments/knapen_aot/videos/R_S_yt-NqyG4Ar2JWo_10.mp4	0.0	178.83020877838135	2.5082778930664062
36	102.00750279426575	fix_post	2		12.0	34.0	2.5	/experiments/knapen_aot/videos/R_S_yt-NqyG4Ar2JWo_10.mp4	0.0	181.33848667144775	0.10004806518554688
37	102.1075508594513	fix_pre	0		27.0	35.0	2.5	blank	1.0	181.4385347366333	0.22489309310913086
37	102.3243567943573	response	0	4		35.0	2.5	blank	1.0	181.6553406715393	
37	102.33244395256042	movie	1		301.0	35.0	2.5	blank	1.0	181.66342782974243	2.50848388671875
37	104.84092783927917	fix_post	2		12.0	35.0	2.5	blank	1.0	184.17191171646118	0.0999751091003418
38	104.94090294837952	fix_pre	0		11.0	36.0	2.5	/experiments/knapen_aot/videos/R_S_yt-nMWqezngycw_10.mp4	0.0	184.27188682556152	0.09182000160217285
38	105.02427983283997	response	0	4		36.0	2.5	/experiments/knapen_aot/videos/R_S_yt-nMWqezngycw_10.mp4	0.0	184.35526371002197	
38	105.03272294998169	movie	1		301.0	36.0	2.5	/experiments/knapen_aot/videos/R_S_yt-nMWqezngycw_10.mp4	0.0	184.3637068271637	2.508100986480713
38	107.5408239364624	fix_post	2		12.0	36.0	2.5	/experiments/knapen_aot/videos/R_S_yt-nMWqezngycw_10.mp4	0.0	186.8718078136444	0.09989690780639648
39	107.6407208442688	fix_pre	0		27.0	37.0	2.5	/experiments/knapen_aot/videos/R_S_yt-fP2JRJAFGZ4_25.mp4	0.0	186.9717047214508	0.22533893585205078
39	107.85758399963379	response	0	4		37.0	2.5	/experiments/knapen_aot/videos/R_S_yt-fP2JRJAFGZ4_25.mp4	0.0	187.1885678768158	
39	107.86605978012085	movie	1		301.0	37.0	2.5	/experiments/knapen_aot/videos/R_S_yt-fP2JRJAFGZ4_25.mp4	0.0	187.19704365730286	2.508188009262085
39	110.37424778938293	fix_post	2		12.0	37.0	2.5	/experiments/knapen_aot/videos/R_S_yt-fP2JRJAFGZ4_25.mp4	0.0	189.70523166656494	0.09994006156921387
40	110.47418785095215	fix_pre	0		28.0	38.0	2.5	/experiments/knapen_aot/videos/S_yt-4Qz0m5IYh10_167.mp4	0.0	189.80517172813416	0.23328614234924316
40	110.69176387786865	response	0	4		38.0	2.5	/experiments/knapen_aot/videos/S_yt-4Qz0m5IYh10_167.mp4	0.0	190.02274775505066	
40	110.70747399330139	movie	1		301.0	38.0	2.5	/experiments/knapen_aot/videos/S_yt-4Qz0m5IYh10_167.mp4	0.0	190.0384578704834	2.50834584236145
40	113.21581983566284	fix_post	2		12.0	38.0	2.5	/experiments/knapen_aot/videos/S_yt-4Qz0m5IYh10_167.mp4	0.0	192.54680371284485	0.10000205039978027
41	113.31582188606262	fix_pre	0		30.0	39.0	2.5	/experiments/knapen_aot/videos/R_S_yt-14tjqjjjAEI_15.mp4	0.0	192.64680576324463	0.2499840259552002
41	113.557541847229	response	0	4		39.0	2.5	/experiments/knapen_aot/videos/R_S_yt-14tjqjjjAEI_15.mp4	0.0	192.888525724411	
41	113.56580591201782	movie	1		301.0	39.0	2.5	/experiments/knapen_aot/videos/R_S_yt-14tjqjjjAEI_15.mp4	0.0	192.89678978919983	2.5083229541778564
41	116.07412886619568	fix_post	2		12.0	39.0	2.5	/experiments/knapen_aot/videos/R_S_yt-14tjqjjjAEI_15.mp4	0.0	195.40511274337769	0.1001291275024414
42	116.17425799369812	fix_pre	0		9.0	40.0	2.5	blank	1.0	195.50524187088013	0.07479286193847656
42	116.24087882041931	response	0	4		40.0	2.5	blank	1.0	195.57186269760132	
42	116.2490508556366	movie	1		301.0	40.0	2.5	blank	1.0	195.5800347328186	2.5083041191101074
42	118.7573549747467	fix_post	2		12.0	40.0	2.5	blank	1.0	198.0883388519287	0.10010385513305664
43	118.85745882987976	fix_pre	0		11.0	41.0	2.5	/experiments/knapen_aot/videos/R_S_yt-wjBwgccZM5k_150.mp4	0.0	198.18844270706177	0.09186005592346191
43	118.94080996513367	response	0	4		41.0	2.5	/experiments/knapen_aot/videos/R_S_yt-wjBwgccZM5k_150.mp4	0.0	198.27179384231567	
43	118.94931888580322	movie	1		301.0	41.0	2.5	/experiments/knapen_aot/videos/R_S_yt-wjBwgccZM5k_150.mp4	0.0	198.28030276298523	2.508146047592163
43	121.45746493339539	fix_post	2		12.0	41.0	2.5	/experiments/knapen_aot/videos/R_S_yt-wjBwgccZM5k_150.mp4	0.0	200.7884488105774	0.09997296333312988
44	121.55743789672852	fix_pre	0		29.0	42.0	2.5	/experiments/knapen_aot/videos/R_S_yt-GBt59U0KUR0_6.mp4	0.0	200.88842177391052	0.24167609214782715
44	121.79085993766785	response	0	4		42.0	2.5	/experiments/knapen_aot/videos/R_S_yt-GBt59U0KUR0_6.mp4	0.0	201.12184381484985	
44	121.79911398887634	movie	1		301.0	42.0	2.5	/experiments/knapen_aot/videos/R_S_yt-GBt59U0KUR0_6.mp4	0.0	201.13009786605835	2.5082998275756836
44	124.30741381645203	fix_post	2		12.0	42.0	2.5	/experiments/knapen_aot/videos/R_S_yt-GBt59U0KUR0_6.mp4	0.0	203.63839769363403	0.10027003288269043
45	124.40768384933472	fix_pre	0		24.0	43.0	2.5	/experiments/knapen_aot/videos/S_yt-9pUeQix6EW8_7.mp4	0.0	203.73866772651672	0.19985008239746094
45	124.5916678905487	response	0	4		43.0	2.5	/experiments/knapen_aot/videos/S_yt-9pUeQix6EW8_7.mp4	0.0	203.9226517677307	
45	124.60753393173218	movie	1		301.0	43.0	2.5	/experiments/knapen_aot/videos/S_yt-9pUeQix6EW8_7.mp4	0.0	203.93851780891418	2.5084190368652344
45	127.11595296859741	fix_post	2		12.0	43.0	2.5	/experiments/knapen_aot/videos/S_yt-9pUeQix6EW8_7.mp4	0.0	206.44693684577942	0.09983086585998535
46	127.2157838344574	fix_pre	0		68.0	44.0	2.5	/experiments/knapen_aot/videos/R_S_yt-J2PiBa1MXI0_210.mp4	0.0	206.5467677116394	0.566735029220581
46	127.77423691749573	response	0	4		44.0	2.5	/experiments/knapen_aot/videos/R_S_yt-J2PiBa1MXI0_210.mp4	0.0	207.10522079467773	
46	127.78251886367798	movie	1		301.0	44.0	2.5	/experiments/knapen_aot/videos/R_S_yt-J2PiBa1MXI0_210.mp4	0.0	207.11350274085999	2.5082199573516846
46	130.29073882102966	fix_post	2		12.0	44.0	2.5	/experiments/knapen_aot/videos/R_S_yt-J2PiBa1MXI0_210.mp4	0.0	209.62172269821167	0.10004305839538574
47	130.39078187942505	fix_pre	0		15.0	45.0	2.5	/experiments/knapen_aot/videos/S_yt-IXMtF998XFY_547.mp4	0.0	209.72176575660706	0.12493896484375
47	130.50753688812256	response	0	4		45.0	2.5	/experiments/knapen_aot/videos/S_yt-IXMtF998XFY_547.mp4	0.0	209.83852076530457	
47	130.5157208442688	movie	1		301.0	45.0	2.5	/experiments/knapen_aot/videos/S_yt-IXMtF998XFY_547.mp4	0.0	209.8467047214508	2.5083889961242676
47	133.02410984039307	fix_post	2		12.0	45.0	2.5	/experiments/knapen_aot/videos/S_yt-IXMtF998XFY_547.mp4	0.0	212.35509371757507	0.0999460220336914
48	133.12405586242676	fix_pre	0		37.0	46.0	2.5	/experiments/knapen_aot/videos/S_ILSVRC2015_train_00578001.mp4	0.0	212.45503973960876	0.3083000183105469
48	133.4241328239441	response	0	4		46.0	2.5	/experiments/knapen_aot/videos/S_ILSVRC2015_train_00578001.mp4	0.0	212.7551167011261	
48	133.4323558807373	movie	1		301.0	46.0	2.5	/experiments/knapen_aot/videos/S_ILSVRC2015_train_00578001.mp4	0.0	212.7633397579193	2.508362054824829
48	135.94071793556213	fix_post	2		12.0	46.0	2.5	/experiments/knapen_aot/videos/S_ILSVRC2015_train_00578001.mp4	0.0	215.27170181274414	0.09995889663696289
49	136.0406768321991	fix_pre	0		32.0	47.0	2.5	/experiments/knapen_aot/videos/S_yt-6xXEMHBQ08A_28.mp4	0.0	215.3716607093811	0.26669812202453613
49	136.2991819381714	response	0	4		47.0	2.5	/experiments/knapen_aot/videos/S_yt-6xXEMHBQ08A_28.mp4	0.0	215.6301658153534	
49	136.30737495422363	movie	1		301.0	47.0	2.5	/experiments/knapen_aot/videos/S_yt-6xXEMHBQ08A_28.mp4	0.0	215.63835883140564	2.5083529949188232
49	138.81572794914246	fix_post	2		12.0	47.0	2.5	/experiments/knapen_aot/videos/S_yt-6xXEMHBQ08A_28.mp4	0.0	218.14671182632446	0.0999150276184082
50	138.91564297676086	fix_pre	0		35.0	48.0	2.5	/experiments/knapen_aot/videos/R_S_yt_R-lST38EdfMMQ_5.mp4	0.0	218.24662685394287	0.29164886474609375
50	139.1991798877716	response	0	4		48.0	2.5	/experiments/knapen_aot/videos/R_S_yt_R-lST38EdfMMQ_5.mp4	0.0	218.5301637649536	
50	139.20729184150696	movie	1		301.0	48.0	2.5	/experiments/knapen_aot/videos/R_S_yt_R-lST38EdfMMQ_5.mp4	0.0	218.53827571868896	2.5084240436553955
50	141.71571588516235	fix_post	2		12.0	48.0	2.5	/experiments/knapen_aot/videos/R_S_yt_R-lST38EdfMMQ_5.mp4	0.0	221.04669976234436	0.09994792938232422
51	141.81566381454468	fix_pre	0		19.0	49.0	2.5	blank	1.0	221.14664769172668	0.15824508666992188
51	141.9659469127655	response	0	4		49.0	2.5	blank	1.0	221.2969307899475	
51	141.9739089012146	movie	1		301.0	49.0	2.5	blank	1.0	221.3048927783966	2.5084550380706787
51	144.48236393928528	fix_post	2		12.0	49.0	2.5	blank	1.0	223.81334781646729	0.10008692741394043
52	144.58245086669922	fix_pre	0		46.0	50.0	2.5	/experiments/knapen_aot/videos/S_yt-NOnR6C2sjpI_97.mp4	0.0	223.91343474388123	0.3831789493560791
52	144.95745491981506	response	0	4		50.0	2.5	/experiments/knapen_aot/videos/S_yt-NOnR6C2sjpI_97.mp4	0.0	224.28843879699707	
52	144.9656298160553	movie	1		301.0	50.0	2.5	/experiments/knapen_aot/videos/S_yt-NOnR6C2sjpI_97.mp4	0.0	224.2966136932373	2.5084149837493896
52	147.4740447998047	fix_post	2		12.0	50.0	2.5	/experiments/knapen_aot/videos/S_yt-NOnR6C2sjpI_97.mp4	0.0	226.8050286769867	0.10008502006530762
53	147.57412981987	fix_pre	0		25.0	51.0	2.5	/experiments/knapen_aot/videos/R_S_ILSVRC2015_train_00638001.mp4	0.0	226.905113697052	0.20826315879821777
53	147.77416586875916	response	0	4		51.0	2.5	/experiments/knapen_aot/videos/R_S_ILSVRC2015_train_00638001.mp4	0.0	227.10514974594116	
53	147.7823929786682	movie	1		301.0	51.0	2.5	/experiments/knapen_aot/videos/R_S_ILSVRC2015_train_00638001.mp4	0.0	227.11337685585022	2.5082859992980957
53	150.2906789779663	fix_post	2		12.0	51.0	2.5	/experiments/knapen_aot/videos/R_S_ILSVRC2015_train_00638001.mp4	0.0	229.62166285514832	0.10000801086425781
54	150.39068698883057	fix_pre	0		15.0	52.0	2.5	/experiments/knapen_aot/videos/R_S_comp_N008_C003_PS_v01_SDR_PS_20180925_SDR_2K_AVC.mp4	0.0	229.72167086601257	0.12499785423278809
54	150.50747680664062	response	0	4		52.0	2.5	/experiments/knapen_aot/videos/R_S_comp_N008_C003_PS_v01_SDR_PS_20180925_SDR_2K_AVC.mp4	0.0	229.83846068382263	
54	150.51568484306335	movie	1		170.0	52.0	2.5	/experiments/knapen_aot/videos/R_S_comp_N008_C003_PS_v01_SDR_PS_20180925_SDR_2K_AVC.mp4	0.0	229.84666872024536	2.508376121520996
54	153.02406096458435	fix_post	2		12.0	52.0	2.5	/experiments/knapen_aot/videos/R_S_comp_N008_C003_PS_v01_SDR_PS_20180925_SDR_2K_AVC.mp4	0.0	232.35504484176636	0.09996986389160156
55	153.12403082847595	fix_pre	0		26.0	53.0	2.5	/experiments/knapen_aot/videos/R_S_yt-cgYmOmMzn98_103.mp4	0.0	232.45501470565796	0.21663117408752441
55	153.33251786231995	response	0	4		53.0	2.5	/experiments/knapen_aot/videos/R_S_yt-cgYmOmMzn98_103.mp4	0.0	232.66350173950195	
55	153.34066200256348	movie	1		301.0	53.0	2.5	/experiments/knapen_aot/videos/R_S_yt-cgYmOmMzn98_103.mp4	0.0	232.67164587974548	2.5083649158477783
55	155.84902691841125	fix_post	2		12.0	53.0	2.5	/experiments/knapen_aot/videos/R_S_yt-cgYmOmMzn98_103.mp4	0.0	235.18001079559326	0.10030794143676758
56	155.94933485984802	fix_pre	0		34.0	54.0	2.5	/experiments/knapen_aot/videos/S_WO9z7lBUvOs_151.mp4	0.0	235.28031873703003	0.2843360900878906
56	156.22416591644287	response	0	4		54.0	2.5	/experiments/knapen_aot/videos/S_WO9z7lBUvOs_151.mp4	0.0	235.55514979362488	
56	156.2336709499359	movie	1		301.0	54.0	2.5	/experiments/knapen_aot/videos/S_WO9z7lBUvOs_151.mp4	0.0	235.56465482711792	2.5069968700408936
56	158.7406678199768	fix_post	2		12.0	54.0	2.5	/experiments/knapen_aot/videos/S_WO9z7lBUvOs_151.mp4	0.0	238.0716516971588	0.10002303123474121
57	158.84069085121155	fix_pre	0		36.0	55.0	2.5	/experiments/knapen_aot/videos/R_S_yt-_WFwhcmbXXY_51.mp4	0.0	238.17167472839355	0.299968957901001
57	159.13245487213135	response	0	4		55.0	2.5	/experiments/knapen_aot/videos/R_S_yt-_WFwhcmbXXY_51.mp4	0.0	238.46343874931335	
57	159.14065980911255	movie	1		301.0	55.0	2.5	/experiments/knapen_aot/videos/R_S_yt-_WFwhcmbXXY_51.mp4	0.0	238.47164368629456	2.5083301067352295
57	161.64898991584778	fix_post	2		12.0	55.0	2.5	/experiments/knapen_aot/videos/R_S_yt-_WFwhcmbXXY_51.mp4	0.0	240.97997379302979	0.10021305084228516
58	161.74920296669006	fix_pre	0		3.0	56.0	2.5	blank	1.0	241.08018684387207	0.024780988693237305
58	161.76572489738464	response	0	4		56.0	2.5	blank	1.0	241.09670877456665	
58	161.7739839553833	movie	1		301.0	56.0	2.5	blank	1.0	241.1049678325653	2.508375883102417
58	164.28235983848572	fix_post	2		12.0	56.0	2.5	blank	1.0	243.61334371566772	0.09994697570800781
59	164.38230681419373	fix_pre	0		36.0	57.0	2.5	/experiments/knapen_aot/videos/R_S_ILSVRC2015_train_00165008.mp4	0.0	243.71329069137573	0.29996299743652344
59	164.67405700683594	response	0	4		57.0	2.5	/experiments/knapen_aot/videos/R_S_ILSVRC2015_train_00165008.mp4	0.0	244.00504088401794	
59	164.68226981163025	movie	1		301.0	57.0	2.5	/experiments/knapen_aot/videos/R_S_ILSVRC2015_train_00165008.mp4	0.0	244.01325368881226	2.508334159851074
59	167.19060397148132	fix_post	2		12.0	57.0	2.5	/experiments/knapen_aot/videos/R_S_ILSVRC2015_train_00165008.mp4	0.0	246.52158784866333	0.10004186630249023
60	167.2906458377838	fix_pre	0		25.0	58.0	2.5	/experiments/knapen_aot/videos/S_nTA7B2uHaCQ_1.mp4	0.0	246.62162971496582	0.20832514762878418
60	167.490797996521	response	0	4		58.0	2.5	/experiments/knapen_aot/videos/S_nTA7B2uHaCQ_1.mp4	0.0	246.821781873703	
60	167.4989709854126	movie	1		301.0	58.0	2.5	/experiments/knapen_aot/videos/S_nTA7B2uHaCQ_1.mp4	0.0	246.8299548625946	2.508382797241211
60	170.0073537826538	fix_post	2		12.0	58.0	2.5	/experiments/knapen_aot/videos/S_nTA7B2uHaCQ_1.mp4	0.0	249.33833765983582	0.0999290943145752
61	170.10728287696838	fix_pre	0		18.0	59.0	2.5	/experiments/knapen_aot/videos/R_S_yt-uY5xsUKn8zU_17.mp4	0.0	249.4382667541504	0.14997291564941406
61	170.24153685569763	response	0	4		59.0	2.5	/experiments/knapen_aot/videos/R_S_yt-uY5xsUKn8zU_17.mp4	0.0	249.57252073287964	
61	170.2572557926178	movie	1		301.0	59.0	2.5	/experiments/knapen_aot/videos/R_S_yt-uY5xsUKn8zU_17.mp4	0.0	249.5882396697998	2.5083580017089844
61	172.76561379432678	fix_post	2		12.0	59.0	2.5	/experiments/knapen_aot/videos/R_S_yt-uY5xsUKn8zU_17.mp4	0.0	252.0965976715088	0.09996914863586426
62	172.86558294296265	fix_pre	0		35.0	60.0	2.5	/experiments/knapen_aot/videos/S_yt-kawmL3oVw8c_2.mp4	0.0	252.19656682014465	0.29166102409362793
62	173.14905786514282	response	0	4		60.0	2.5	/experiments/knapen_aot/videos/S_yt-kawmL3oVw8c_2.mp4	0.0	252.48004174232483	
62	173.15724396705627	movie	1		301.0	60.0	2.5	/experiments/knapen_aot/videos/S_yt-kawmL3oVw8c_2.mp4	0.0	252.48822784423828	2.5083529949188232
62	175.6655969619751	fix_post	2		12.0	60.0	2.5	/experiments/knapen_aot/videos/S_yt-kawmL3oVw8c_2.mp4	0.0	254.9965808391571	0.10001182556152344
63	175.76560878753662	fix_pre	0		28.0	61.0	2.5	/experiments/knapen_aot/videos/R_S_Pexels_Videos_2795737.mp4	0.0	255.09659266471863	0.23339319229125977
63	175.9906928539276	response	0	4		61.0	2.5	/experiments/knapen_aot/videos/R_S_Pexels_Videos_2795737.mp4	0.0	255.32167673110962	
63	175.99900197982788	movie	1		163.0	61.0	2.5	/experiments/knapen_aot/videos/R_S_Pexels_Videos_2795737.mp4	0.0	255.3299858570099	2.5082499980926514
63	178.50725197792053	fix_post	2		12.0	61.0	2.5	/experiments/knapen_aot/videos/R_S_Pexels_Videos_2795737.mp4	0.0	257.83823585510254	0.09995889663696289
64	178.6072108745575	fix_pre	0		26.0	62.0	2.5	blank	1.0	257.9381947517395	0.2167060375213623
64	178.81574296951294	response	0	4		62.0	2.5	blank	1.0	258.14672684669495	
64	178.82391691207886	movie	1		301.0	62.0	2.5	blank	1.0	258.15490078926086	2.508298873901367
64	181.33221578598022	fix_post	2		12.0	62.0	2.5	blank	1.0	260.66319966316223	0.09998321533203125
65	181.43219900131226	fix_pre	0		35.0	63.0	2.5	/experiments/knapen_aot/videos/R_S_yt-PvWkOmfZuSY_4.mp4	0.0	260.76318287849426	0.29161787033081055
65	181.71559190750122	response	0	4		63.0	2.5	/experiments/knapen_aot/videos/R_S_yt-PvWkOmfZuSY_4.mp4	0.0	261.0465757846832	
65	181.72381687164307	movie	1		301.0	63.0	2.5	/experiments/knapen_aot/videos/R_S_yt-PvWkOmfZuSY_4.mp4	0.0	261.0548007488251	2.508316993713379
65	184.23213386535645	fix_post	2		12.0	63.0	2.5	/experiments/knapen_aot/videos/R_S_yt-PvWkOmfZuSY_4.mp4	0.0	263.56311774253845	0.10004806518554688
65	184.2739918231964	response	2	4		63.0	2.5	/experiments/knapen_aot/videos/R_S_yt-PvWkOmfZuSY_4.mp4	0.0	263.6049757003784	
66	184.332181930542	fix_pre	0		60.0	64.0	2.5	/experiments/knapen_aot/videos/S_ILSVRC2015_train_00638001.mp4	0.0	263.663165807724	0.49999094009399414
66	184.82394289970398	response	0	4		64.0	2.5	/experiments/knapen_aot/videos/S_ILSVRC2015_train_00638001.mp4	0.0	264.154926776886	
66	184.832172870636	movie	1		301.0	64.0	2.5	/experiments/knapen_aot/videos/S_ILSVRC2015_train_00638001.mp4	0.0	264.163156747818	2.5083351135253906
66	187.34050798416138	fix_post	2		12.0	64.0	2.5	/experiments/knapen_aot/videos/S_ILSVRC2015_train_00638001.mp4	0.0	266.6714918613434	0.0999908447265625
67	187.44049882888794	fix_pre	0		11.0	65.0	2.5	/experiments/knapen_aot/videos/R_S_yt-b7bIulV49DQ_81.mp4	0.0	266.77148270606995	0.09167003631591797
67	187.52399587631226	response	0	4		65.0	2.5	/experiments/knapen_aot/videos/R_S_yt-b7bIulV49DQ_81.mp4	0.0	266.85497975349426	
67	187.53216886520386	movie	1		301.0	65.0	2.5	/experiments/knapen_aot/videos/R_S_yt-b7bIulV49DQ_81.mp4	0.0	266.86315274238586	2.5082831382751465
67	190.040452003479	fix_post	2		12.0	65.0	2.5	/experiments/knapen_aot/videos/R_S_yt-b7bIulV49DQ_81.mp4	0.0	269.371435880661	0.10009384155273438
68	190.14054584503174	fix_pre	0		13.0	66.0	2.5	/experiments/knapen_aot/videos/R_S_yt-hvuC_2YXsTQ_159.mp4	0.0	269.47152972221375	0.1083381175994873
68	190.2406198978424	response	0	4		66.0	2.5	/experiments/knapen_aot/videos/R_S_yt-hvuC_2YXsTQ_159.mp4	0.0	269.5716037750244	
68	190.24888396263123	movie	1		301.0	66.0	2.5	/experiments/knapen_aot/videos/R_S_yt-hvuC_2YXsTQ_159.mp4	0.0	269.57986783981323	2.508262872695923
68	192.75714683532715	fix_post	2		12.0	66.0	2.5	/experiments/knapen_aot/videos/R_S_yt-hvuC_2YXsTQ_159.mp4	0.0	272.08813071250916	0.10001516342163086
69	192.85716199874878	fix_pre	0		8.0	67.0	2.5	/experiments/knapen_aot/videos/R_S_yt-MTo50ReVNmU_2.mp4	0.0	272.1881458759308	0.06663179397583008
69	192.91559886932373	response	0	4		67.0	2.5	/experiments/knapen_aot/videos/R_S_yt-MTo50ReVNmU_2.mp4	0.0	272.24658274650574	
69	192.9237937927246	movie	1		301.0	67.0	2.5	/experiments/knapen_aot/videos/R_S_yt-MTo50ReVNmU_2.mp4	0.0	272.2547776699066	2.5083060264587402
69	195.43209981918335	fix_post	2		12.0	67.0	2.5	/experiments/knapen_aot/videos/R_S_yt-MTo50ReVNmU_2.mp4	0.0	274.76308369636536	0.10003995895385742
70	195.5321397781372	fix_pre	0		28.0	68.0	2.5	/experiments/knapen_aot/videos/R_S_pexels-cottonbro-9063801.mp4	0.0	274.8631236553192	0.2332911491394043
70	195.7573049068451	response	0	4		68.0	2.5	/experiments/knapen_aot/videos/R_S_pexels-cottonbro-9063801.mp4	0.0	275.0882887840271	
70	195.7654309272766	movie	1		208.0	68.0	2.5	/experiments/knapen_aot/videos/R_S_pexels-cottonbro-9063801.mp4	0.0	275.0964148044586	2.508388042449951
70	198.27381896972656	fix_post	2		12.0	68.0	2.5	/experiments/knapen_aot/videos/R_S_pexels-cottonbro-9063801.mp4	0.0	277.60480284690857	0.10021281242370605
71	198.37403178215027	fix_pre	0		51.0	69.0	2.5	blank	1.0	277.7050156593323	0.42479705810546875
71	198.79063296318054	response	0	4		69.0	2.5	blank	1.0	278.12161684036255	
71	198.79882884025574	movie	1		301.0	69.0	2.5	blank	1.0	278.12981271743774	2.5083580017089844
71	201.30718684196472	fix_post	2		12.0	69.0	2.5	blank	1.0	280.63817071914673	0.10014796257019043
72	201.4073348045349	fix_pre	0		30.0	70.0	2.5	/experiments/knapen_aot/videos/R_S_ILSVRC2015_train_00155004.mp4	0.0	280.7383186817169	0.24983620643615723
72	201.64895391464233	response	0	4		70.0	2.5	/experiments/knapen_aot/videos/R_S_ILSVRC2015_train_00155004.mp4	0.0	280.97993779182434	
72	201.65717101097107	movie	1		301.0	70.0	2.5	/experiments/knapen_aot/videos/R_S_ILSVRC2015_train_00155004.mp4	0.0	280.9881548881531	2.508349895477295
72	204.16552090644836	fix_post	2		12.0	70.0	2.5	/experiments/knapen_aot/videos/R_S_ILSVRC2015_train_00155004.mp4	0.0	283.49650478363037	0.09994196891784668
73	204.2654628753662	fix_pre	0		22.0	71.0	2.5	/experiments/knapen_aot/videos/S_bing-www_nytimes_com_video_dining_1247468118505_grilled-chicken-breasts-with-herb-butter_html_132.mp4	0.0	283.5964467525482	0.18331694602966309
73	204.4406340122223	response	0	4		71.0	2.5	/experiments/knapen_aot/videos/S_bing-www_nytimes_com_video_dining_1247468118505_grilled-chicken-breasts-with-herb-butter_html_132.mp4	0.0	283.7716178894043	
73	204.44877982139587	movie	1		166.0	71.0	2.5	/experiments/knapen_aot/videos/S_bing-www_nytimes_com_video_dining_1247468118505_grilled-chicken-breasts-with-herb-butter_html_132.mp4	0.0	283.7797636985779	2.5083630084991455
73	206.95714282989502	fix_post	2		12.0	71.0	2.5	/experiments/knapen_aot/videos/S_bing-www_nytimes_com_video_dining_1247468118505_grilled-chicken-breasts-with-herb-butter_html_132.mp4	0.0	286.288126707077	0.10000801086425781
74	207.05715084075928	fix_pre	0		8.0	72.0	2.5	/experiments/knapen_aot/videos/S_yt-OLDm2slgfA4_3.mp4	0.0	286.3881347179413	0.06658601760864258
74	207.11554098129272	response	0	4		72.0	2.5	/experiments/knapen_aot/videos/S_yt-OLDm2slgfA4_3.mp4	0.0	286.44652485847473	
74	207.12373685836792	movie	1		301.0	72.0	2.5	/experiments/knapen_aot/videos/S_yt-OLDm2slgfA4_3.mp4	0.0	286.4547207355499	2.5083460807800293
74	209.63208293914795	fix_post	2		12.0	72.0	2.5	/experiments/knapen_aot/videos/S_yt-OLDm2slgfA4_3.mp4	0.0	288.96306681632996	0.10004091262817383
75	209.73212385177612	fix_pre	0		1.0	73.0	2.5	/experiments/knapen_aot/videos/R_S_ILSVRC2015_train_00515001.mp4	0.0	289.06310772895813	0.008346080780029297
75	209.73373198509216	response	0	4		73.0	2.5	/experiments/knapen_aot/videos/R_S_ILSVRC2015_train_00515001.mp4	0.0	289.06471586227417	
75	209.74046993255615	movie	1		301.0	73.0	2.5	/experiments/knapen_aot/videos/R_S_ILSVRC2015_train_00515001.mp4	0.0	289.07145380973816	2.5083370208740234
75	212.24880695343018	fix_post	2		12.0	73.0	2.5	/experiments/knapen_aot/videos/R_S_ILSVRC2015_train_00515001.mp4	0.0	291.5797908306122	0.09998393058776855
76	212.34879088401794	fix_pre	0		34.0	74.0	2.5	/experiments/knapen_aot/videos/R_S_yt-1CV2cYtUlxE_57.mp4	0.0	291.67977476119995	0.28330302238464355
76	212.62386178970337	response	0	4		74.0	2.5	/experiments/knapen_aot/videos/R_S_yt-1CV2cYtUlxE_57.mp4	0.0	291.9548456668854	
76	212.6320939064026	movie	1		301.0	74.0	2.5	/experiments/knapen_aot/videos/R_S_yt-1CV2cYtUlxE_57.mp4	0.0	291.9630777835846	2.5083420276641846
76	215.14043593406677	fix_post	2		12.0	74.0	2.5	/experiments/knapen_aot/videos/R_S_yt-1CV2cYtUlxE_57.mp4	0.0	294.4714198112488	0.10000085830688477
77	215.24043679237366	fix_pre	0		6.0	75.0	2.5	blank	1.0	294.57142066955566	0.050005197525024414
77	215.28224396705627	response	0	4		75.0	2.5	blank	1.0	294.6132278442383	
77	215.29044198989868	movie	1		301.0	75.0	2.5	blank	1.0	294.6214258670807	2.5083088874816895
77	217.79875087738037	fix_post	2		12.0	75.0	2.5	blank	1.0	297.1297347545624	0.10003209114074707
78	217.89878296852112	fix_pre	0		25.0	76.0	2.5	/experiments/knapen_aot/videos/S_WO9z7lBUvOs_151.mp4	0.0	297.2297668457031	0.20940399169921875
78	218.09885096549988	response	0	4		76.0	2.5	/experiments/knapen_aot/videos/S_WO9z7lBUvOs_151.mp4	0.0	297.4298348426819	
78	218.10818696022034	movie	1		301.0	76.0	2.5	/experiments/knapen_aot/videos/S_WO9z7lBUvOs_151.mp4	0.0	297.43917083740234	2.5072388648986816
78	220.61542582511902	fix_post	2		12.0	76.0	2.5	/experiments/knapen_aot/videos/S_WO9z7lBUvOs_151.mp4	0.0	299.946409702301	0.10001707077026367
78	220.69890093803406	response	2	4		76.0	2.5	/experiments/knapen_aot/videos/S_WO9z7lBUvOs_151.mp4	0.0	300.02988481521606	
79	220.71544289588928	fix_pre	0		52.0	77.0	2.5	/experiments/knapen_aot/videos/R_S_yt-mdLT282PVbE_6.mp4	0.0	300.0464267730713	0.4344139099121094
79	221.1405107975006	response	0	4		77.0	2.5	/experiments/knapen_aot/videos/R_S_yt-mdLT282PVbE_6.mp4	0.0	300.4714946746826	
79	221.1498568058014	movie	1		301.0	77.0	2.5	/experiments/knapen_aot/videos/R_S_yt-mdLT282PVbE_6.mp4	0.0	300.4808406829834	2.50726318359375
79	223.65711998939514	fix_post	2		12.0	77.0	2.5	/experiments/knapen_aot/videos/R_S_yt-mdLT282PVbE_6.mp4	0.0	302.98810386657715	0.09995079040527344
80	223.75707077980042	fix_pre	0		66.0	78.0	2.5	/experiments/knapen_aot/videos/R_S_8amznWxLS04_212.mp4	0.0	303.0880546569824	0.5499131679534912
80	224.29882287979126	response	0	4		78.0	2.5	/experiments/knapen_aot/videos/R_S_8amznWxLS04_212.mp4	0.0	303.62980675697327	
80	224.3069839477539	movie	1		301.0	78.0	2.5	/experiments/knapen_aot/videos/R_S_8amznWxLS04_212.mp4	0.0	303.6379678249359	2.5083699226379395
80	226.81535387039185	fix_post	2		12.0	78.0	2.5	/experiments/knapen_aot/videos/R_S_8amznWxLS04_212.mp4	0.0	306.14633774757385	0.10004901885986328
81	226.9154028892517	fix_pre	0		30.0	79.0	2.5	/experiments/knapen_aot/videos/S_yt-Q9fI2ar05IE_77.mp4	0.0	306.2463867664337	0.2499370574951172
81	227.1572380065918	response	0	4		79.0	2.5	/experiments/knapen_aot/videos/S_yt-Q9fI2ar05IE_77.mp4	0.0	306.4882218837738	
81	227.16533994674683	movie	1		301.0	79.0	2.5	/experiments/knapen_aot/videos/S_yt-Q9fI2ar05IE_77.mp4	0.0	306.49632382392883	2.5083279609680176
81	229.67366790771484	fix_post	2		12.0	79.0	2.5	/experiments/knapen_aot/videos/S_yt-Q9fI2ar05IE_77.mp4	0.0	309.00465178489685	0.10004901885986328
82	229.7737169265747	fix_pre	0		38.0	80.0	2.5	/experiments/knapen_aot/videos/S_yt-J2PiBa1MXI0_210.mp4	0.0	309.1047008037567	0.31663990020751953
82	230.0746669769287	response	0	4		80.0	2.5	/experiments/knapen_aot/videos/S_yt-J2PiBa1MXI0_210.mp4	0.0	309.4056508541107	
82	230.09035682678223	movie	1		301.0	80.0	2.5	/experiments/knapen_aot/videos/S_yt-J2PiBa1MXI0_210.mp4	0.0	309.42134070396423	2.508366107940674
82	232.5987229347229	fix_post	2		12.0	80.0	2.5	/experiments/knapen_aot/videos/S_yt-J2PiBa1MXI0_210.mp4	0.0	311.9297068119049	0.09999299049377441
83	232.69871592521667	fix_pre	0		10.0	81.0	2.5	/experiments/knapen_aot/videos/R_S_yt-feTWuKPZA_k_34.mp4	0.0	312.0296998023987	0.08329200744628906
83	232.76621890068054	response	0	4		81.0	2.5	/experiments/knapen_aot/videos/R_S_yt-feTWuKPZA_k_34.mp4	0.0	312.09720277786255	
83	232.78200793266296	movie	1		301.0	81.0	2.5	/experiments/knapen_aot/videos/R_S_yt-feTWuKPZA_k_34.mp4	0.0	312.11299180984497	2.5087108612060547
83	235.29071879386902	fix_post	2		12.0	81.0	2.5	/experiments/knapen_aot/videos/R_S_yt-feTWuKPZA_k_34.mp4	0.0	314.621702671051	0.09963607788085938
84	235.39035487174988	fix_pre	0		7.0	82.0	2.5	blank	1.0	314.7213387489319	0.05834507942199707
84	235.44052600860596	response	0	4		82.0	2.5	blank	1.0	314.77150988578796	
84	235.44869995117188	movie	1		301.0	82.0	2.5	blank	1.0	314.7796838283539	2.50832200050354
84	237.95702195167542	fix_post	2		12.0	82.0	2.5	blank	1.0	317.2880058288574	0.1002049446105957
85	238.057226896286	fix_pre	0		28.0	83.0	2.5	/experiments/knapen_aot/videos/S_ILSVRC2015_train_00324002.mp4	0.0	317.388210773468	0.2330789566040039
85	238.282066822052	response	0	4		83.0	2.5	/experiments/knapen_aot/videos/S_ILSVRC2015_train_00324002.mp4	0.0	317.613050699234	
85	238.29030585289001	movie	1		301.0	83.0	2.5	/experiments/knapen_aot/videos/S_ILSVRC2015_train_00324002.mp4	0.0	317.621289730072	2.508484125137329
85	240.79878997802734	fix_post	2		12.0	83.0	2.5	/experiments/knapen_aot/videos/S_ILSVRC2015_train_00324002.mp4	0.0	320.12977385520935	0.09991788864135742
87	240.8987078666687	stim	0		247.0					320.2296917438507	2.0582499504089355
87	241.1986939907074	response	0	4						320.5296778678894	
87	242.95026683807373	response	0	space						322.28125071525574	
