trial_nr	onset	event_type	phase	response	nr_frames	movie_index	movie_duration	movie_file	blank	onset_abs	duration
0	0.13190293312072754	stim	0		66.0					343.21406984329224	0.5495131015777588
0	0.6660630702972412	response	0	space						343.74822998046875	
1	0.6814160346984863	stim	0		121.0					343.76358294487	1.0080549716949463
1	1.6894710063934326	stim	1		120.0					344.77163791656494	0.9999990463256836
1	2.381290912628174	response	1	space						345.4634578227997	
2	2.689470052719116	fix_pre	0		66.0	0.0	2.5	/experiments/knapen_aot/videos/R_S_yt-ujdFTAUE8rc_34.mp4	0.0	345.7716369628906	0.5499780178070068
2	3.2312800884246826	response	0	space		0.0	2.5	/experiments/knapen_aot/videos/R_S_yt-ujdFTAUE8rc_34.mp4	0.0	346.3134469985962	
2	3.239448070526123	movie	1		299.0	0.0	2.5	/experiments/knapen_aot/videos/R_S_yt-ujdFTAUE8rc_34.mp4	0.0	346.32161498069763	2.508363962173462
2	5.747812032699585	fix_post	2		12.0	0.0	2.5	/experiments/knapen_aot/videos/R_S_yt-ujdFTAUE8rc_34.mp4	0.0	348.8299789428711	0.10003900527954102
3	5.847851037979126	fix_pre	0		52.0	1.0	2.5	/experiments/knapen_aot/videos/S_yt-tneuR3EtSZE_72.mp4	0.0	348.93001794815063	0.4364750385284424
3	6.277220964431763	response	0	2		1.0	2.5	/experiments/knapen_aot/videos/S_yt-tneuR3EtSZE_72.mp4	0.0	349.35938787460327	
3	6.284326076507568	movie	1		294.0	1.0	2.5	/experiments/knapen_aot/videos/S_yt-tneuR3EtSZE_72.mp4	0.0	349.3664929866791	2.5051379203796387
3	8.789463996887207	fix_post	2		12.0	1.0	2.5	/experiments/knapen_aot/videos/S_yt-tneuR3EtSZE_72.mp4	0.0	351.8716309070587	0.1000359058380127
4	8.88949990272522	fix_pre	0		12.0	2.0	2.5	/experiments/knapen_aot/videos/R_S_yt-9T99N7Cvi_o_112.mp4	0.0	351.97166681289673	0.10002517700195312
4	8.981319904327393	response	0	2		2.0	2.5	/experiments/knapen_aot/videos/R_S_yt-9T99N7Cvi_o_112.mp4	0.0	352.0634868144989	
4	8.989525079727173	movie	1		301.0	2.0	2.5	/experiments/knapen_aot/videos/R_S_yt-9T99N7Cvi_o_112.mp4	0.0	352.0716919898987	2.5082828998565674
4	11.49780797958374	fix_post	2		12.0	2.0	2.5	/experiments/knapen_aot/videos/R_S_yt-9T99N7Cvi_o_112.mp4	0.0	354.57997488975525	0.10002398490905762
5	11.597831964492798	fix_pre	0		15.0	3.0	2.5	/experiments/knapen_aot/videos/R_S_yt-4NjyKFnwHBo_13.mp4	0.0	354.6799988746643	0.12494993209838867
5	11.714611053466797	response	0	2		3.0	2.5	/experiments/knapen_aot/videos/R_S_yt-4NjyKFnwHBo_13.mp4	0.0	354.7967779636383	
5	11.722781896591187	movie	1		301.0	3.0	2.5	/experiments/knapen_aot/videos/R_S_yt-4NjyKFnwHBo_13.mp4	0.0	354.8049488067627	2.508355140686035
5	14.231137037277222	fix_post	2		12.0	3.0	2.5	/experiments/knapen_aot/videos/R_S_yt-4NjyKFnwHBo_13.mp4	0.0	357.31330394744873	0.10000300407409668
6	14.331140041351318	fix_pre	0		52.0	4.0	2.5	/experiments/knapen_aot/videos/S_yt-osz-TXlRdXs_2.mp4	0.0	357.4133069515228	0.43326687812805176
6	14.756319046020508	response	0	2		4.0	2.5	/experiments/knapen_aot/videos/S_yt-osz-TXlRdXs_2.mp4	0.0	357.838485956192	
6	14.76440691947937	movie	1		301.0	4.0	2.5	/experiments/knapen_aot/videos/S_yt-osz-TXlRdXs_2.mp4	0.0	357.8465738296509	2.5083510875701904
6	17.27275800704956	fix_post	2		12.0	4.0	2.5	/experiments/knapen_aot/videos/S_yt-osz-TXlRdXs_2.mp4	0.0	360.35492491722107	0.10003900527954102
7	17.3727970123291	fix_pre	0		14.0	5.0	2.5	/experiments/knapen_aot/videos/R_S_yt-tQ-hgwTcMqU_43.mp4	0.0	360.4549639225006	0.11665797233581543
7	17.481264114379883	response	0	2		5.0	2.5	/experiments/knapen_aot/videos/R_S_yt-tQ-hgwTcMqU_43.mp4	0.0	360.5634310245514	
7	17.489454984664917	movie	1		301.0	5.0	2.5	/experiments/knapen_aot/videos/R_S_yt-tQ-hgwTcMqU_43.mp4	0.0	360.5716218948364	2.5084190368652344
7	19.99787402153015	fix_post	2		12.0	5.0	2.5	/experiments/knapen_aot/videos/R_S_yt-tQ-hgwTcMqU_43.mp4	0.0	363.08004093170166	0.09989309310913086
8	20.097767114639282	fix_pre	0		72.0	6.0	2.5	/experiments/knapen_aot/videos/S_bing-www_yahoo_com_entertainment_anastasia-karanikolaou-chantel-jeffries-discuss-182400502_html_9.mp4	0.0	363.1799340248108	0.5999729633331299
8	20.689573049545288	response	0	2		6.0	2.5	/experiments/knapen_aot/videos/S_bing-www_yahoo_com_entertainment_anastasia-karanikolaou-chantel-jeffries-discuss-182400502_html_9.mp4	0.0	363.7717399597168	
8	20.697740077972412	movie	1		160.0	6.0	2.5	/experiments/knapen_aot/videos/S_bing-www_yahoo_com_entertainment_anastasia-karanikolaou-chantel-jeffries-discuss-182400502_html_9.mp4	0.0	363.7799069881439	2.508356809616089
8	23.2060968875885	fix_post	2		12.0	6.0	2.5	/experiments/knapen_aot/videos/S_bing-www_yahoo_com_entertainment_anastasia-karanikolaou-chantel-jeffries-discuss-182400502_html_9.mp4	0.0	366.28826379776	0.09994220733642578
9	23.306039094924927	fix_pre	0		11.0	7.0	2.5	blank	1.0	366.38820600509644	0.0916910171508789
9	23.389545917510986	response	0	2		7.0	2.5	blank	1.0	366.4717128276825	
9	23.397730112075806	movie	1		301.0	7.0	2.5	blank	1.0	366.4798970222473	2.508241891860962
9	25.905972003936768	fix_post	2		12.0	7.0	2.5	blank	1.0	368.9881389141083	0.1003561019897461
10	26.006328105926514	fix_pre	0		27.0	8.0	2.5	/experiments/knapen_aot/videos/R_S_ILSVRC2015_train_00715000.mp4	0.0	369.088495016098	0.224686861038208
10	26.215625047683716	response	0	2		8.0	2.5	/experiments/knapen_aot/videos/R_S_ILSVRC2015_train_00715000.mp4	0.0	369.2977919578552	
10	26.23101496696472	movie	1		297.0	8.0	2.5	/experiments/knapen_aot/videos/R_S_ILSVRC2015_train_00715000.mp4	0.0	369.31318187713623	2.50839900970459
10	28.73941397666931	fix_post	2		12.0	8.0	2.5	/experiments/knapen_aot/videos/R_S_ILSVRC2015_train_00715000.mp4	0.0	371.8215808868408	0.1002190113067627
11	28.839632987976074	fix_pre	0		28.0	9.0	2.5	/experiments/knapen_aot/videos/S_video_inspire_oregon_portland_00064.1080-h264.mp4	0.0	371.9217998981476	0.2331099510192871
11	29.06452703475952	response	0	2		9.0	2.5	/experiments/knapen_aot/videos/S_video_inspire_oregon_portland_00064.1080-h264.mp4	0.0	372.14669394493103	
11	29.07274293899536	movie	1		165.0	9.0	2.5	/experiments/knapen_aot/videos/S_video_inspire_oregon_portland_00064.1080-h264.mp4	0.0	372.15490984916687	2.508336067199707
11	31.58107900619507	fix_post	2		12.0	9.0	2.5	/experiments/knapen_aot/videos/S_video_inspire_oregon_portland_00064.1080-h264.mp4	0.0	374.6632459163666	0.09995889663696289
12	31.68103790283203	fix_pre	0		22.0	10.0	2.5	/experiments/knapen_aot/videos/R_S_yt-GWOOQZ19-oU_331.mp4	0.0	374.76320481300354	0.18330597877502441
12	31.848686933517456	response	0	2		10.0	2.5	/experiments/knapen_aot/videos/R_S_yt-GWOOQZ19-oU_331.mp4	0.0	374.93085384368896	
12	31.864343881607056	movie	1		301.0	10.0	2.5	/experiments/knapen_aot/videos/R_S_yt-GWOOQZ19-oU_331.mp4	0.0	374.94651079177856	2.5083041191101074
12	34.37264800071716	fix_post	2		12.0	10.0	2.5	/experiments/knapen_aot/videos/R_S_yt-GWOOQZ19-oU_331.mp4	0.0	377.4548149108887	0.09997701644897461
13	34.47262501716614	fix_pre	0		12.0	11.0	2.5	/experiments/knapen_aot/videos/R_S_yt-9NV8zv2Sdq4_30.mp4	0.0	377.55479192733765	0.10005998611450195
13	34.564467906951904	response	0	2		11.0	2.5	/experiments/knapen_aot/videos/R_S_yt-9NV8zv2Sdq4_30.mp4	0.0	377.6466348171234	
13	34.57268500328064	movie	1		301.0	11.0	2.5	/experiments/knapen_aot/videos/R_S_yt-9NV8zv2Sdq4_30.mp4	0.0	377.65485191345215	2.5083858966827393
13	37.08107089996338	fix_post	2		12.0	11.0	2.5	/experiments/knapen_aot/videos/R_S_yt-9NV8zv2Sdq4_30.mp4	0.0	380.1632378101349	0.09996700286865234
14	37.18103790283203	fix_pre	0		74.0	12.0	2.5	/experiments/knapen_aot/videos/S_BO_A014_C008_SDR_20190719_SDR_2K_AVC.mp4	0.0	380.26320481300354	0.6168811321258545
14	37.789506912231445	response	0	2		12.0	2.5	/experiments/knapen_aot/videos/S_BO_A014_C008_SDR_20190719_SDR_2K_AVC.mp4	0.0	380.87167382240295	
14	37.797919034957886	movie	1		172.0	12.0	2.5	/experiments/knapen_aot/videos/S_BO_A014_C008_SDR_20190719_SDR_2K_AVC.mp4	0.0	380.8800859451294	2.5080509185791016
14	40.30596995353699	fix_post	2		12.0	12.0	2.5	/experiments/knapen_aot/videos/S_BO_A014_C008_SDR_20190719_SDR_2K_AVC.mp4	0.0	383.3881368637085	0.09994101524353027
15	40.40591096878052	fix_pre	0		11.0	13.0	2.5	/experiments/knapen_aot/videos/S_yt--jzScB82vKI_90.mp4	0.0	383.488077878952	0.09170699119567871
15	40.489378929138184	response	0	2		13.0	2.5	/experiments/knapen_aot/videos/S_yt--jzScB82vKI_90.mp4	0.0	383.5715458393097	
15	40.497617959976196	movie	1		301.0	13.0	2.5	/experiments/knapen_aot/videos/S_yt--jzScB82vKI_90.mp4	0.0	383.5797848701477	2.5085229873657227
15	43.00614094734192	fix_post	2		12.0	13.0	2.5	/experiments/knapen_aot/videos/S_yt--jzScB82vKI_90.mp4	0.0	386.0883078575134	0.09983205795288086
16	43.1059730052948	fix_pre	0		71.0	14.0	2.5	blank	1.0	386.1881399154663	0.5916368961334229
16	43.68946409225464	response	0	2		14.0	2.5	blank	1.0	386.77163100242615	
16	43.69760990142822	movie	1		301.0	14.0	2.5	blank	1.0	386.77977681159973	2.50835919380188
16	46.2059690952301	fix_post	2		12.0	14.0	2.5	blank	1.0	389.2881360054016	0.09999299049377441
17	46.30596208572388	fix_pre	0		148.0	15.0	2.5	/experiments/knapen_aot/videos/R_S_yt-tQ-hgwTcMqU_43.mp4	0.0	389.3881289958954	1.2333028316497803
17	47.53115797042847	response	0	2		15.0	2.5	/experiments/knapen_aot/videos/R_S_yt-tQ-hgwTcMqU_43.mp4	0.0	390.6133248806	
17	47.53926491737366	movie	1		301.0	15.0	2.5	/experiments/knapen_aot/videos/R_S_yt-tQ-hgwTcMqU_43.mp4	0.0	390.62143182754517	2.50835919380188
17	50.04762411117554	fix_post	2		12.0	15.0	2.5	/experiments/knapen_aot/videos/R_S_yt-tQ-hgwTcMqU_43.mp4	0.0	393.12979102134705	0.1000218391418457
18	50.14764595031738	fix_pre	0		16.0	16.0	2.5	/experiments/knapen_aot/videos/R_S_yt-VrEuTDQxtD0_226.mp4	0.0	393.2298128604889	0.1332540512084961
18	50.27268695831299	response	0	2		16.0	2.5	/experiments/knapen_aot/videos/R_S_yt-VrEuTDQxtD0_226.mp4	0.0	393.3548538684845	
18	50.28090000152588	movie	1		301.0	16.0	2.5	/experiments/knapen_aot/videos/R_S_yt-VrEuTDQxtD0_226.mp4	0.0	393.3630669116974	2.508258104324341
18	52.78915810585022	fix_post	2		12.0	16.0	2.5	/experiments/knapen_aot/videos/R_S_yt-VrEuTDQxtD0_226.mp4	0.0	395.87132501602173	0.1000978946685791
19	52.8892560005188	fix_pre	0		105.0	17.0	2.5	/experiments/knapen_aot/videos/R_S_comp_A012_C014_1223PT_v53_SDR_PS_FINAL_20180709_F0F8700_SDR_2K_AVC.mp4	0.0	395.9714229106903	0.874953031539917
19	53.75609302520752	response	0	2		17.0	2.5	/experiments/knapen_aot/videos/R_S_comp_A012_C014_1223PT_v53_SDR_PS_FINAL_20180709_F0F8700_SDR_2K_AVC.mp4	0.0	396.838259935379	
19	53.764209032058716	movie	1		165.0	17.0	2.5	/experiments/knapen_aot/videos/R_S_comp_A012_C014_1223PT_v53_SDR_PS_FINAL_20180709_F0F8700_SDR_2K_AVC.mp4	0.0	396.8463759422302	2.5084009170532227
19	56.27260994911194	fix_post	2		12.0	17.0	2.5	/experiments/knapen_aot/videos/R_S_comp_A012_C014_1223PT_v53_SDR_PS_FINAL_20180709_F0F8700_SDR_2K_AVC.mp4	0.0	399.35477685928345	0.10000300407409668
20	56.372612953186035	fix_pre	0		81.0	18.0	2.5	/experiments/knapen_aot/videos/S_comp_GMT026_363A_103NC_E1027_KOREA_JAPAN_NIGHT_v18_SDR_PS_20180907_SDR_2K_AVC.mp4	0.0	399.45477986335754	0.6750969886779785
20	57.03938007354736	response	0	2		18.0	2.5	/experiments/knapen_aot/videos/S_comp_GMT026_363A_103NC_E1027_KOREA_JAPAN_NIGHT_v18_SDR_PS_20180907_SDR_2K_AVC.mp4	0.0	400.1215469837189	
20	57.047709941864014	movie	1		168.0	18.0	2.5	/experiments/knapen_aot/videos/S_comp_GMT026_363A_103NC_E1027_KOREA_JAPAN_NIGHT_v18_SDR_PS_20180907_SDR_2K_AVC.mp4	0.0	400.1298768520355	2.508121967315674
20	59.55583190917969	fix_post	2		12.0	18.0	2.5	/experiments/knapen_aot/videos/S_comp_GMT026_363A_103NC_E1027_KOREA_JAPAN_NIGHT_v18_SDR_PS_20180907_SDR_2K_AVC.mp4	0.0	402.6379988193512	0.10004210472106934
21	59.65587401390076	fix_pre	0		58.0	19.0	2.5	/experiments/knapen_aot/videos/S_yt-25xuzTBhwPk_109.mp4	0.0	402.73804092407227	0.48325204849243164
21	60.13104200363159	response	0	2		19.0	2.5	/experiments/knapen_aot/videos/S_yt-25xuzTBhwPk_109.mp4	0.0	403.2132089138031	
21	60.13912606239319	movie	1		301.0	19.0	2.5	/experiments/knapen_aot/videos/S_yt-25xuzTBhwPk_109.mp4	0.0	403.2212929725647	2.5084469318389893
21	62.64757299423218	fix_post	2		12.0	19.0	2.5	/experiments/knapen_aot/videos/S_yt-25xuzTBhwPk_109.mp4	0.0	405.7297399044037	0.09992790222167969
22	62.74750089645386	fix_pre	0		21.0	20.0	2.5	/experiments/knapen_aot/videos/R_S_comp_LA_A009_C009_PSNK_v02_SDR_PS_FINAL_20180709_SDR_2K_AVC.mp4	0.0	405.82966780662537	0.17513298988342285
22	62.914366006851196	response	0	2		20.0	2.5	/experiments/knapen_aot/videos/R_S_comp_LA_A009_C009_PSNK_v02_SDR_PS_FINAL_20180709_SDR_2K_AVC.mp4	0.0	405.9965329170227	
22	62.92263388633728	movie	1		164.0	20.0	2.5	/experiments/knapen_aot/videos/R_S_comp_LA_A009_C009_PSNK_v02_SDR_PS_FINAL_20180709_SDR_2K_AVC.mp4	0.0	406.0048007965088	2.5082290172576904
22	65.43086290359497	fix_post	2		12.0	20.0	2.5	/experiments/knapen_aot/videos/R_S_comp_LA_A009_C009_PSNK_v02_SDR_PS_FINAL_20180709_SDR_2K_AVC.mp4	0.0	408.5130298137665	0.09993910789489746
23	65.53080201148987	fix_pre	0		20.0	21.0	2.5	blank	1.0	408.6129689216614	0.16669607162475586
23	65.6893539428711	response	0	2		21.0	2.5	blank	1.0	408.7715208530426	
23	65.69749808311462	movie	1		301.0	21.0	2.5	blank	1.0	408.77966499328613	2.5082879066467285
23	68.20578598976135	fix_post	2		12.0	21.0	2.5	blank	1.0	411.28795289993286	0.1000370979309082
24	68.30582308769226	fix_pre	0		23.0	22.0	2.5	/experiments/knapen_aot/videos/R_S_yt-2IfvnrF3IV0_241.mp4	0.0	411.38798999786377	0.19165492057800293
24	68.48168301582336	response	0	2		22.0	2.5	/experiments/knapen_aot/videos/R_S_yt-2IfvnrF3IV0_241.mp4	0.0	411.5638499259949	
24	68.49747800827026	movie	1		301.0	22.0	2.5	/experiments/knapen_aot/videos/R_S_yt-2IfvnrF3IV0_241.mp4	0.0	411.5796449184418	2.508410930633545
24	71.00588893890381	fix_post	2		12.0	22.0	2.5	/experiments/knapen_aot/videos/R_S_yt-2IfvnrF3IV0_241.mp4	0.0	414.0880558490753	0.0999600887298584
25	71.10584902763367	fix_pre	0		28.0	23.0	2.5	/experiments/knapen_aot/videos/S_yt-MsSEF0krKE4_149.mp4	0.0	414.1880159378052	0.23333501815795898
25	71.33097410202026	response	0	2		23.0	2.5	/experiments/knapen_aot/videos/S_yt-MsSEF0krKE4_149.mp4	0.0	414.4131410121918	
25	71.33918404579163	movie	1		301.0	23.0	2.5	/experiments/knapen_aot/videos/S_yt-MsSEF0krKE4_149.mp4	0.0	414.42135095596313	2.508262872695923
25	73.84744691848755	fix_post	2		12.0	23.0	2.5	/experiments/knapen_aot/videos/S_yt-MsSEF0krKE4_149.mp4	0.0	416.92961382865906	0.1000220775604248
26	73.94746899604797	fix_pre	0		17.0	24.0	2.5	/experiments/knapen_aot/videos/R_S_yt-0d5TkclKWVA_146.mp4	0.0	417.0296359062195	0.14168095588684082
26	74.08093905448914	response	0	2		24.0	2.5	/experiments/knapen_aot/videos/R_S_yt-0d5TkclKWVA_146.mp4	0.0	417.16310596466064	
26	74.08914995193481	movie	1		301.0	24.0	2.5	/experiments/knapen_aot/videos/R_S_yt-0d5TkclKWVA_146.mp4	0.0	417.1713168621063	2.5083370208740234
26	76.59748697280884	fix_post	2		12.0	24.0	2.5	/experiments/knapen_aot/videos/R_S_yt-0d5TkclKWVA_146.mp4	0.0	419.67965388298035	0.09998011589050293
27	76.69746708869934	fix_pre	0		93.0	25.0	2.5	/experiments/knapen_aot/videos/R_S_yt-9CY7rDYBYUI_40.mp4	0.0	419.77963399887085	0.7749719619750977
27	77.46430897712708	response	0	2		25.0	2.5	/experiments/knapen_aot/videos/R_S_yt-9CY7rDYBYUI_40.mp4	0.0	420.5464758872986	
27	77.47243905067444	movie	1		301.0	25.0	2.5	/experiments/knapen_aot/videos/R_S_yt-9CY7rDYBYUI_40.mp4	0.0	420.55460596084595	2.5083489418029785
27	79.98078799247742	fix_post	2		12.0	25.0	2.5	/experiments/knapen_aot/videos/R_S_yt-9CY7rDYBYUI_40.mp4	0.0	423.0629549026489	0.1000220775604248
28	80.08081007003784	fix_pre	0		13.0	26.0	2.5	/experiments/knapen_aot/videos/S_yt-ycfVJyrFgB4_15.mp4	0.0	423.16297698020935	0.10829782485961914
28	80.18092608451843	response	0	2		26.0	2.5	/experiments/knapen_aot/videos/S_yt-ycfVJyrFgB4_15.mp4	0.0	423.26309299468994	
28	80.18910789489746	movie	1		301.0	26.0	2.5	/experiments/knapen_aot/videos/S_yt-ycfVJyrFgB4_15.mp4	0.0	423.27127480506897	2.5083811283111572
28	82.69748902320862	fix_post	2		12.0	26.0	2.5	/experiments/knapen_aot/videos/S_yt-ycfVJyrFgB4_15.mp4	0.0	425.7796559333801	0.09996390342712402
29	82.79745292663574	fix_pre	0		85.0	27.0	2.5	blank	1.0	425.87961983680725	0.7083630561828613
29	83.49755907058716	response	0	2		27.0	2.5	blank	1.0	426.57972598075867	
29	83.5058159828186	movie	1		301.0	27.0	2.5	blank	1.0	426.5879828929901	2.5083260536193848
29	86.01414203643799	fix_post	2		12.0	27.0	2.5	blank	1.0	429.0963089466095	0.09993600845336914
30	86.11407804489136	fix_pre	0		42.0	28.0	2.5	/experiments/knapen_aot/videos/R_S_pexels-cottonbro-6789231.mp4	0.0	429.19624495506287	0.35002684593200684
30	86.45592188835144	response	0	2		28.0	2.5	/experiments/knapen_aot/videos/R_S_pexels-cottonbro-6789231.mp4	0.0	429.53808879852295	
30	86.46410489082336	movie	1		198.0	28.0	2.5	/experiments/knapen_aot/videos/R_S_pexels-cottonbro-6789231.mp4	0.0	429.5462718009949	2.508263111114502
30	88.97236800193787	fix_post	2		12.0	28.0	2.5	/experiments/knapen_aot/videos/R_S_pexels-cottonbro-6789231.mp4	0.0	432.0545349121094	0.1000680923461914
31	89.07243609428406	fix_pre	0		19.0	29.0	2.5	/experiments/knapen_aot/videos/S_ILSVRC2015_train_00450001.mp4	0.0	432.15460300445557	0.15828895568847656
31	89.22259402275085	response	0	2		29.0	2.5	/experiments/knapen_aot/videos/S_ILSVRC2015_train_00450001.mp4	0.0	432.30476093292236	
31	89.23072504997253	movie	1		301.0	29.0	2.5	/experiments/knapen_aot/videos/S_ILSVRC2015_train_00450001.mp4	0.0	432.31289196014404	2.5083279609680176
31	91.73905301094055	fix_post	2		12.0	29.0	2.5	/experiments/knapen_aot/videos/S_ILSVRC2015_train_00450001.mp4	0.0	434.82121992111206	0.10004091262817383
32	91.83909392356873	fix_pre	0		13.0	30.0	2.5	/experiments/knapen_aot/videos/S_59eT4XDXNno_25.mp4	0.0	434.92126083374023	0.10830998420715332
32	91.93915510177612	response	0	2		30.0	2.5	/experiments/knapen_aot/videos/S_59eT4XDXNno_25.mp4	0.0	435.02132201194763	
32	91.94740390777588	movie	1		301.0	30.0	2.5	/experiments/knapen_aot/videos/S_59eT4XDXNno_25.mp4	0.0	435.0295708179474	2.5083181858062744
32	94.45572209358215	fix_post	2		12.0	30.0	2.5	/experiments/knapen_aot/videos/S_59eT4XDXNno_25.mp4	0.0	437.53788900375366	0.10001683235168457
33	94.55573892593384	fix_pre	0		25.0	31.0	2.5	/experiments/knapen_aot/videos/S_ILSVRC2015_train_00371012.mp4	0.0	437.63790583610535	0.20826315879821777
33	94.75593495368958	response	0	2		31.0	2.5	/experiments/knapen_aot/videos/S_ILSVRC2015_train_00371012.mp4	0.0	437.8381018638611	
33	94.76400208473206	movie	1		301.0	31.0	2.5	/experiments/knapen_aot/videos/S_ILSVRC2015_train_00371012.mp4	0.0	437.84616899490356	2.508342981338501
33	97.27234506607056	fix_post	2		12.0	31.0	2.5	/experiments/knapen_aot/videos/S_ILSVRC2015_train_00371012.mp4	0.0	440.35451197624207	0.10004091262817383
34	97.37238597869873	fix_pre	0		21.0	32.0	2.5	/experiments/knapen_aot/videos/S_comp_DB_D001_C001_PSNK_v06_SDR_PS_20180824_SDR_2K_AVC.mp4	0.0	440.45455288887024	0.17492008209228516
34	97.53920602798462	response	0	2		32.0	2.5	/experiments/knapen_aot/videos/S_comp_DB_D001_C001_PSNK_v06_SDR_PS_20180824_SDR_2K_AVC.mp4	0.0	440.6213729381561	
34	97.54730606079102	movie	1		166.0	32.0	2.5	/experiments/knapen_aot/videos/S_comp_DB_D001_C001_PSNK_v06_SDR_PS_20180824_SDR_2K_AVC.mp4	0.0	440.6294729709625	2.508476972579956
34	100.05578303337097	fix_post	2		12.0	32.0	2.5	/experiments/knapen_aot/videos/S_comp_DB_D001_C001_PSNK_v06_SDR_PS_20180824_SDR_2K_AVC.mp4	0.0	443.1379499435425	0.0998849868774414
35	100.15566802024841	fix_pre	0		12.0	33.0	2.5	/experiments/knapen_aot/videos/S_yt-q9-_bG9ry3E_5.mp4	0.0	443.2378349304199	0.10003209114074707
35	100.24750590324402	response	0	2		33.0	2.5	/experiments/knapen_aot/videos/S_yt-q9-_bG9ry3E_5.mp4	0.0	443.3296728134155	
35	100.25570011138916	movie	1		301.0	33.0	2.5	/experiments/knapen_aot/videos/S_yt-q9-_bG9ry3E_5.mp4	0.0	443.33786702156067	2.5083439350128174
35	102.76404404640198	fix_post	2		12.0	33.0	2.5	/experiments/knapen_aot/videos/S_yt-q9-_bG9ry3E_5.mp4	0.0	445.8462109565735	0.09994006156921387
36	102.86398410797119	fix_pre	0		84.0	34.0	2.5	blank	1.0	445.9461510181427	0.7000248432159424
36	103.54832911491394	response	0	2		34.0	2.5	blank	1.0	446.63049602508545	
36	103.56400895118713	movie	1		301.0	34.0	2.5	blank	1.0	446.64617586135864	2.5082499980926514
36	106.07225894927979	fix_post	2		12.0	34.0	2.5	blank	1.0	449.1544258594513	0.10007500648498535
37	106.17233395576477	fix_pre	0		27.0	35.0	2.5	/experiments/knapen_aot/videos/S_ILSVRC2015_train_00515001.mp4	0.0	449.2545008659363	0.2250199317932129
37	106.38918495178223	response	0	2		35.0	2.5	/experiments/knapen_aot/videos/S_ILSVRC2015_train_00515001.mp4	0.0	449.47135186195374	
37	106.39735388755798	movie	1		301.0	35.0	2.5	/experiments/knapen_aot/videos/S_ILSVRC2015_train_00515001.mp4	0.0	449.4795207977295	2.5083281993865967
37	108.90568208694458	fix_post	2		12.0	35.0	2.5	/experiments/knapen_aot/videos/S_ILSVRC2015_train_00515001.mp4	0.0	451.9878489971161	0.09998083114624023
38	109.00566291809082	fix_pre	0		12.0	36.0	2.5	/experiments/knapen_aot/videos/R_S_yt-ZtS7ZrJ_rtk_525.mp4	0.0	452.08782982826233	0.09998202323913574
38	109.09738898277283	response	0	2		36.0	2.5	/experiments/knapen_aot/videos/R_S_yt-ZtS7ZrJ_rtk_525.mp4	0.0	452.17955589294434	
38	109.10564494132996	movie	1		301.0	36.0	2.5	/experiments/knapen_aot/videos/R_S_yt-ZtS7ZrJ_rtk_525.mp4	0.0	452.18781185150146	2.5084011554718018
38	111.09242391586304	response	1	2		36.0	2.5	/experiments/knapen_aot/videos/R_S_yt-ZtS7ZrJ_rtk_525.mp4	0.0	454.17459082603455	
38	111.61404609680176	fix_post	2		11.0	36.0	2.5	/experiments/knapen_aot/videos/R_S_yt-ZtS7ZrJ_rtk_525.mp4	0.0	454.69621300697327	0.09283995628356934
38	111.69743800163269	response	2	2		36.0	2.5	/experiments/knapen_aot/videos/R_S_yt-ZtS7ZrJ_rtk_525.mp4	0.0	454.7796049118042	
39	111.70688605308533	fix_pre	0		48.0	37.0	2.5	/experiments/knapen_aot/videos/S_yt-mL3MuCfKtdY_79.mp4	0.0	454.78905296325684	0.3987879753112793
39	112.09735703468323	response	0	2		37.0	2.5	/experiments/knapen_aot/videos/S_yt-mL3MuCfKtdY_79.mp4	0.0	455.17952394485474	
39	112.1056740283966	movie	1		301.0	37.0	2.5	/experiments/knapen_aot/videos/S_yt-mL3MuCfKtdY_79.mp4	0.0	455.1878409385681	2.5083160400390625
39	114.61399006843567	fix_post	2		12.0	37.0	2.5	/experiments/knapen_aot/videos/S_yt-mL3MuCfKtdY_79.mp4	0.0	457.6961569786072	0.1000068187713623
40	114.71399688720703	fix_pre	0		60.0	38.0	2.5	/experiments/knapen_aot/videos/S_yt-eoASPwIAiHY_244.mp4	0.0	457.79616379737854	0.4999270439147949
40	115.20580005645752	response	0	2		38.0	2.5	/experiments/knapen_aot/videos/S_yt-eoASPwIAiHY_244.mp4	0.0	458.287966966629	
40	115.21392393112183	movie	1		301.0	38.0	2.5	/experiments/knapen_aot/videos/S_yt-eoASPwIAiHY_244.mp4	0.0	458.29609084129333	2.5082950592041016
40	117.72221899032593	fix_post	2		12.0	38.0	2.5	/experiments/knapen_aot/videos/S_yt-eoASPwIAiHY_244.mp4	0.0	460.80438590049744	0.10004806518554688
41	117.82226705551147	fix_pre	0		22.0	39.0	2.5	/experiments/knapen_aot/videos/S_yt-Q6BFO3Yz0zY_363.mp4	0.0	460.904433965683	0.18336200714111328
41	117.98996996879578	response	0	2		39.0	2.5	/experiments/knapen_aot/videos/S_yt-Q6BFO3Yz0zY_363.mp4	0.0	461.0721368789673	
41	118.00562906265259	movie	1		301.0	39.0	2.5	/experiments/knapen_aot/videos/S_yt-Q6BFO3Yz0zY_363.mp4	0.0	461.0877959728241	2.5083348751068115
41	120.5139639377594	fix_post	2		12.0	39.0	2.5	/experiments/knapen_aot/videos/S_yt-Q6BFO3Yz0zY_363.mp4	0.0	463.5961308479309	0.0999000072479248
42	120.61386394500732	fix_pre	0		13.0	40.0	2.5	/experiments/knapen_aot/videos/S_yt-ybH6uAiFbjc_273.mp4	0.0	463.69603085517883	0.1083371639251709
42	120.71408200263977	response	0	2		40.0	2.5	/experiments/knapen_aot/videos/S_yt-ybH6uAiFbjc_273.mp4	0.0	463.7962489128113	
42	120.7222011089325	movie	1		300.0	40.0	2.5	/experiments/knapen_aot/videos/S_yt-ybH6uAiFbjc_273.mp4	0.0	463.804368019104	2.5083749294281006
42	123.2305760383606	fix_post	2		12.0	40.0	2.5	/experiments/knapen_aot/videos/S_yt-ybH6uAiFbjc_273.mp4	0.0	466.3127429485321	0.0999898910522461
43	123.33056592941284	fix_pre	0		15.0	41.0	2.5	blank	1.0	466.41273283958435	0.12504100799560547
43	123.44738006591797	response	0	2		41.0	2.5	blank	1.0	466.5295469760895	
43	123.45560693740845	movie	1		301.0	41.0	2.5	blank	1.0	466.53777384757996	2.5082919597625732
43	125.96389889717102	fix_post	2		12.0	41.0	2.5	blank	1.0	469.04606580734253	0.10000109672546387
44	126.06389999389648	fix_pre	0		19.0	42.0	2.5	/experiments/knapen_aot/videos/S_cST9H3zu3zQ_126.mp4	0.0	469.146066904068	0.1583549976348877
44	126.2140429019928	response	0	2		42.0	2.5	/experiments/knapen_aot/videos/S_cST9H3zu3zQ_126.mp4	0.0	469.2962098121643	
44	126.22225499153137	movie	1		301.0	42.0	2.5	/experiments/knapen_aot/videos/S_cST9H3zu3zQ_126.mp4	0.0	469.3044219017029	2.5083069801330566
44	128.73056197166443	fix_post	2		12.0	42.0	2.5	/experiments/knapen_aot/videos/S_cST9H3zu3zQ_126.mp4	0.0	471.81272888183594	0.10002613067626953
45	128.8305881023407	fix_pre	0		22.0	43.0	2.5	/experiments/knapen_aot/videos/R_S_DV6V38rplag_215.mp4	0.0	471.9127550125122	0.18333196640014648
45	129.00572395324707	response	0	2		43.0	2.5	/experiments/knapen_aot/videos/R_S_DV6V38rplag_215.mp4	0.0	472.0878908634186	
45	129.01392006874084	movie	1		299.0	43.0	2.5	/experiments/knapen_aot/videos/R_S_DV6V38rplag_215.mp4	0.0	472.09608697891235	2.5083320140838623
45	131.5222520828247	fix_post	2		12.0	43.0	2.5	/experiments/knapen_aot/videos/R_S_DV6V38rplag_215.mp4	0.0	474.6044189929962	0.09996986389160156
46	131.6222219467163	fix_pre	0		47.0	44.0	2.5	/experiments/knapen_aot/videos/R_S_yt-gPhlnZG-pRY_4.mp4	0.0	474.7043888568878	0.3916940689086914
46	132.0057339668274	response	0	2		44.0	2.5	/experiments/knapen_aot/videos/R_S_yt-gPhlnZG-pRY_4.mp4	0.0	475.0879008769989	
46	132.013916015625	movie	1		301.0	44.0	2.5	/experiments/knapen_aot/videos/R_S_yt-gPhlnZG-pRY_4.mp4	0.0	475.0960829257965	2.5083260536193848
46	134.52224206924438	fix_post	2		12.0	44.0	2.5	/experiments/knapen_aot/videos/R_S_yt-gPhlnZG-pRY_4.mp4	0.0	477.6044089794159	0.09999704360961914
47	134.622239112854	fix_pre	0		27.0	45.0	2.5	/experiments/knapen_aot/videos/S_yt-4Qz0m5IYh10_167.mp4	0.0	477.7044060230255	0.22500085830688477
47	134.83899903297424	response	0	2		45.0	2.5	/experiments/knapen_aot/videos/S_yt-4Qz0m5IYh10_167.mp4	0.0	477.92116594314575	
47	134.8472399711609	movie	1		301.0	45.0	2.5	/experiments/knapen_aot/videos/S_yt-4Qz0m5IYh10_167.mp4	0.0	477.9294068813324	2.508289098739624
47	137.3555290699005	fix_post	2		12.0	45.0	2.5	/experiments/knapen_aot/videos/S_yt-4Qz0m5IYh10_167.mp4	0.0	480.437695980072	0.1000368595123291
48	137.45556592941284	fix_pre	0		76.0	46.0	2.5	/experiments/knapen_aot/videos/S_yt-GLK6LniTOK0_69.mp4	0.0	480.53773283958435	0.6333250999450684
48	138.08065509796143	response	0	2		46.0	2.5	/experiments/knapen_aot/videos/S_yt-GLK6LniTOK0_69.mp4	0.0	481.16282200813293	
48	138.0888910293579	movie	1		301.0	46.0	2.5	/experiments/knapen_aot/videos/S_yt-GLK6LniTOK0_69.mp4	0.0	481.1710579395294	2.508354902267456
48	140.59724593162537	fix_post	2		12.0	46.0	2.5	/experiments/knapen_aot/videos/S_yt-GLK6LniTOK0_69.mp4	0.0	483.6794128417969	0.09995508193969727
49	140.69720101356506	fix_pre	0		18.0	47.0	2.5	/experiments/knapen_aot/videos/S_yt-7XDVHp75fu4_93.mp4	0.0	483.7793679237366	0.14998292922973633
49	140.8389298915863	response	0	2		47.0	2.5	/experiments/knapen_aot/videos/S_yt-7XDVHp75fu4_93.mp4	0.0	483.9210968017578	
49	140.8471839427948	movie	1		301.0	47.0	2.5	/experiments/knapen_aot/videos/S_yt-7XDVHp75fu4_93.mp4	0.0	483.9293508529663	2.508329153060913
49	143.25568103790283	response	1	2		47.0	2.5	/experiments/knapen_aot/videos/S_yt-7XDVHp75fu4_93.mp4	0.0	486.33784794807434	
49	143.3555130958557	fix_post	2		12.0	47.0	2.5	/experiments/knapen_aot/videos/S_yt-7XDVHp75fu4_93.mp4	0.0	486.4376800060272	0.10002279281616211
50	143.45553588867188	fix_pre	0		102.0	48.0	2.5	/experiments/knapen_aot/videos/R_S_comp_HK_H004_C013_t9_6M_HB_tag0.mp4	0.0	486.5377027988434	0.8499321937561035
50	144.2973051071167	response	0	2		48.0	2.5	/experiments/knapen_aot/videos/R_S_comp_HK_H004_C013_t9_6M_HB_tag0.mp4	0.0	487.3794720172882	
50	144.30546808242798	movie	1		174.0	48.0	2.5	/experiments/knapen_aot/videos/R_S_comp_HK_H004_C013_t9_6M_HB_tag0.mp4	0.0	487.3876349925995	2.508409023284912
50	146.8138771057129	fix_post	2		12.0	48.0	2.5	/experiments/knapen_aot/videos/R_S_comp_HK_H004_C013_t9_6M_HB_tag0.mp4	0.0	489.8960440158844	0.09993791580200195
51	146.9138150215149	fix_pre	0		81.0	49.0	2.5	blank	1.0	489.9959819316864	0.67500901222229
51	147.5806610584259	response	0	2		49.0	2.5	blank	1.0	490.6628279685974	
51	147.58882403373718	movie	1		301.0	49.0	2.5	blank	1.0	490.6709909439087	2.508298873901367
51	150.09712290763855	fix_post	2		12.0	49.0	2.5	blank	1.0	493.17928981781006	0.10007309913635254
52	150.1971960067749	fix_pre	0		2.0	50.0	2.5	/experiments/knapen_aot/videos/S_yt-fnE8kgUHUMI_64.mp4	0.0	493.2793629169464	0.016661882400512695
52	150.2067129611969	response	0	2		50.0	2.5	/experiments/knapen_aot/videos/S_yt-fnE8kgUHUMI_64.mp4	0.0	493.2888798713684	
52	150.21385788917542	movie	1		301.0	50.0	2.5	/experiments/knapen_aot/videos/S_yt-fnE8kgUHUMI_64.mp4	0.0	493.2960247993469	2.5083181858062744
52	152.7221760749817	fix_post	2		12.0	50.0	2.5	/experiments/knapen_aot/videos/S_yt-fnE8kgUHUMI_64.mp4	0.0	495.8043429851532	0.10002493858337402
53	152.82220101356506	fix_pre	0		19.0	51.0	2.5	/experiments/knapen_aot/videos/S_yt-qiPhBL4lBr0_44.mp4	0.0	495.9043679237366	0.15828895568847656
53	152.97220706939697	response	0	2		51.0	2.5	/experiments/knapen_aot/videos/S_yt-qiPhBL4lBr0_44.mp4	0.0	496.0543739795685	
53	152.98048996925354	movie	1		301.0	51.0	2.5	/experiments/knapen_aot/videos/S_yt-qiPhBL4lBr0_44.mp4	0.0	496.06265687942505	2.508273124694824
53	155.48876309394836	fix_post	2		12.0	51.0	2.5	/experiments/knapen_aot/videos/S_yt-qiPhBL4lBr0_44.mp4	0.0	498.5709300041199	0.1001279354095459
54	155.5888910293579	fix_pre	0		9.0	52.0	2.5	/experiments/knapen_aot/videos/S_yt-UPgF4YAHBQY_33.mp4	0.0	498.6710579395294	0.07596397399902344
54	155.6556510925293	response	0	2		52.0	2.5	/experiments/knapen_aot/videos/S_yt-UPgF4YAHBQY_33.mp4	0.0	498.7378180027008	
54	155.66485500335693	movie	1		301.0	52.0	2.5	/experiments/knapen_aot/videos/S_yt-UPgF4YAHBQY_33.mp4	0.0	498.74702191352844	2.507322072982788
54	158.17217707633972	fix_post	2		12.0	52.0	2.5	/experiments/knapen_aot/videos/S_yt-UPgF4YAHBQY_33.mp4	0.0	501.25434398651123	0.09996581077575684
55	158.27214288711548	fix_pre	0		37.0	53.0	2.5	/experiments/knapen_aot/videos/R_S_yt-3TF_RGo9cLs_541.mp4	0.0	501.354309797287	0.30926012992858887
55	158.57231211662292	response	0	2		53.0	2.5	/experiments/knapen_aot/videos/R_S_yt-3TF_RGo9cLs_541.mp4	0.0	501.65447902679443	
55	158.58140301704407	movie	1		301.0	53.0	2.5	/experiments/knapen_aot/videos/R_S_yt-3TF_RGo9cLs_541.mp4	0.0	501.6635699272156	2.507356882095337
55	161.0887598991394	fix_post	2		12.0	53.0	2.5	/experiments/knapen_aot/videos/R_S_yt-3TF_RGo9cLs_541.mp4	0.0	504.1709268093109	0.10004210472106934
56	161.18880200386047	fix_pre	0		101.0	54.0	2.5	/experiments/knapen_aot/videos/R_S_yt-AuQ_WxaNy4Y_255.mp4	0.0	504.270968914032	0.8416309356689453
56	162.02223110198975	response	0	2		54.0	2.5	/experiments/knapen_aot/videos/R_S_yt-AuQ_WxaNy4Y_255.mp4	0.0	505.10439801216125	
56	162.03043293952942	movie	1		301.0	54.0	2.5	/experiments/knapen_aot/videos/R_S_yt-AuQ_WxaNy4Y_255.mp4	0.0	505.1125998497009	2.50833797454834
56	164.53877091407776	fix_post	2		12.0	54.0	2.5	/experiments/knapen_aot/videos/R_S_yt-AuQ_WxaNy4Y_255.mp4	0.0	507.62093782424927	0.09999608993530273
57	164.63876700401306	fix_pre	0		16.0	55.0	2.5	blank	1.0	507.72093391418457	0.1332530975341797
57	164.76393604278564	response	0	2		55.0	2.5	blank	1.0	507.84610295295715	
57	164.77202010154724	movie	1		301.0	55.0	2.5	blank	1.0	507.85418701171875	2.5084149837493896
57	166.83883500099182	response	1	2		55.0	2.5	blank	1.0	509.92100191116333	
57	167.21379804611206	response	1	2		55.0	2.5	blank	1.0	510.29596495628357	
57	167.28043508529663	fix_post	2		12.0	55.0	2.5	blank	1.0	510.36260199546814	0.0999917984008789
58	167.3804268836975	fix_pre	0		18.0	56.0	2.5	/experiments/knapen_aot/videos/S_yt-BlWfK4MkjWA_469.mp4	0.0	510.462593793869	0.1499781608581543
58	167.52212405204773	response	0	2		56.0	2.5	/experiments/knapen_aot/videos/S_yt-BlWfK4MkjWA_469.mp4	0.0	510.60429096221924	
58	167.53040504455566	movie	1		301.0	56.0	2.5	/experiments/knapen_aot/videos/S_yt-BlWfK4MkjWA_469.mp4	0.0	510.6125719547272	2.5083768367767334
58	170.0387818813324	fix_post	2		12.0	56.0	2.5	/experiments/knapen_aot/videos/S_yt-BlWfK4MkjWA_469.mp4	0.0	513.1209487915039	0.09992814064025879
59	170.13871002197266	fix_pre	0		8.0	57.0	2.5	/experiments/knapen_aot/videos/S_yt-CINajD_PVjQ_494.mp4	0.0	513.2208769321442	0.06771397590637207
59	170.197359085083	response	0	2		57.0	2.5	/experiments/knapen_aot/videos/S_yt-CINajD_PVjQ_494.mp4	0.0	513.2795259952545	
59	170.20642399787903	movie	1		301.0	57.0	2.5	/experiments/knapen_aot/videos/S_yt-CINajD_PVjQ_494.mp4	0.0	513.2885909080505	2.5073249340057373
59	172.71374893188477	fix_post	2		12.0	57.0	2.5	/experiments/knapen_aot/videos/S_yt-CINajD_PVjQ_494.mp4	0.0	515.7959158420563	0.09993815422058105
60	172.81368708610535	fix_pre	0		21.0	58.0	2.5	/experiments/knapen_aot/videos/S_yt-BAQ3Xhm_PPE_23.mp4	0.0	515.8958539962769	0.17502880096435547
60	172.98046803474426	response	0	2		58.0	2.5	/experiments/knapen_aot/videos/S_yt-BAQ3Xhm_PPE_23.mp4	0.0	516.0626349449158	
60	172.9887158870697	movie	1		301.0	58.0	2.5	/experiments/knapen_aot/videos/S_yt-BAQ3Xhm_PPE_23.mp4	0.0	516.0708827972412	2.508333206176758
60	175.49704909324646	fix_post	2		12.0	58.0	2.5	/experiments/knapen_aot/videos/S_yt-BAQ3Xhm_PPE_23.mp4	0.0	518.579216003418	0.09995889663696289
61	175.59700798988342	fix_pre	0		62.0	59.0	2.5	/experiments/knapen_aot/videos/S_yt-0d5TkclKWVA_146.mp4	0.0	518.6791749000549	0.5167169570922852
61	176.1055989265442	response	0	2		59.0	2.5	/experiments/knapen_aot/videos/S_yt-0d5TkclKWVA_146.mp4	0.0	519.1877658367157	
61	176.1137249469757	movie	1		301.0	59.0	2.5	/experiments/knapen_aot/videos/S_yt-0d5TkclKWVA_146.mp4	0.0	519.1958918571472	2.5083489418029785
61	178.6220738887787	fix_post	2		12.0	59.0	2.5	/experiments/knapen_aot/videos/S_yt-0d5TkclKWVA_146.mp4	0.0	521.7042407989502	0.10000014305114746
62	178.72207403182983	fix_pre	0		26.0	60.0	2.5	/experiments/knapen_aot/videos/R_S_yt-tneuR3EtSZE_72.mp4	0.0	521.8042409420013	0.2165980339050293
62	178.93043398857117	response	0	2		60.0	2.5	/experiments/knapen_aot/videos/R_S_yt-tneuR3EtSZE_72.mp4	0.0	522.0126008987427	
62	178.93867206573486	movie	1		301.0	60.0	2.5	/experiments/knapen_aot/videos/R_S_yt-tneuR3EtSZE_72.mp4	0.0	522.0208389759064	2.5083909034729004
62	181.44706296920776	fix_post	2		12.0	60.0	2.5	/experiments/knapen_aot/videos/R_S_yt-tneuR3EtSZE_72.mp4	0.0	524.5292298793793	0.0999600887298584
63	181.54702305793762	fix_pre	0		14.0	61.0	2.5	/experiments/knapen_aot/videos/R_S_pexels-mikhail-nilov-8410088.mp4	0.0	524.6291899681091	0.11757588386535645
63	181.6554470062256	response	0	2		61.0	2.5	/experiments/knapen_aot/videos/R_S_pexels-mikhail-nilov-8410088.mp4	0.0	524.7376139163971	
63	181.66459894180298	movie	1		169.0	61.0	2.5	/experiments/knapen_aot/videos/R_S_pexels-mikhail-nilov-8410088.mp4	0.0	524.7467658519745	2.5073959827423096
63	184.1719949245453	fix_post	2		12.0	61.0	2.5	/experiments/knapen_aot/videos/R_S_pexels-mikhail-nilov-8410088.mp4	0.0	527.2541618347168	0.09998011589050293
63	184.2637689113617	response	2	2		61.0	2.5	/experiments/knapen_aot/videos/R_S_pexels-mikhail-nilov-8410088.mp4	0.0	527.3459358215332	
64	184.2719750404358	fix_pre	0		46.0	62.0	2.5	/experiments/knapen_aot/videos/R_S_yt-JTBXPfbkjsA_11.mp4	0.0	527.3541419506073	0.3833580017089844
64	184.64704298973083	response	0	2		62.0	2.5	/experiments/knapen_aot/videos/R_S_yt-JTBXPfbkjsA_11.mp4	0.0	527.7292098999023	
64	184.65533304214478	movie	1		301.0	62.0	2.5	/experiments/knapen_aot/videos/R_S_yt-JTBXPfbkjsA_11.mp4	0.0	527.7374999523163	2.5083539485931396
64	187.16368699073792	fix_post	2		12.0	62.0	2.5	/experiments/knapen_aot/videos/R_S_yt-JTBXPfbkjsA_11.mp4	0.0	530.2458539009094	0.09992599487304688
65	187.26361298561096	fix_pre	0		14.0	63.0	2.5	blank	1.0	530.3457798957825	0.11668801307678223
65	187.37214493751526	response	0	2		63.0	2.5	blank	1.0	530.4543118476868	
65	187.38030099868774	movie	1		301.0	63.0	2.5	blank	1.0	530.4624679088593	2.5083470344543457
65	189.8886480331421	fix_post	2		12.0	63.0	2.5	blank	1.0	532.9708149433136	0.10002708435058594
66	189.98867511749268	fix_pre	0		16.0	64.0	2.5	/experiments/knapen_aot/videos/R_S_flickr-53807584@N00-5566422012_16.mp4	0.0	533.0708420276642	0.1341547966003418
66	190.11376309394836	response	0	2		64.0	2.5	/experiments/knapen_aot/videos/R_S_flickr-53807584@N00-5566422012_16.mp4	0.0	533.1959300041199	
66	190.12282991409302	movie	1		301.0	64.0	2.5	/experiments/knapen_aot/videos/R_S_flickr-53807584@N00-5566422012_16.mp4	0.0	533.2049968242645	2.507500171661377
66	192.6303300857544	fix_post	2		12.0	64.0	2.5	/experiments/knapen_aot/videos/R_S_flickr-53807584@N00-5566422012_16.mp4	0.0	535.7124969959259	0.0999908447265625
67	192.73032093048096	fix_pre	0		76.0	65.0	2.5	/experiments/knapen_aot/videos/R_S_yt-PK-Eip9wFr0_24.mp4	0.0	535.8124878406525	0.6332809925079346
67	193.3554561138153	response	0	2		65.0	2.5	/experiments/knapen_aot/videos/R_S_yt-PK-Eip9wFr0_24.mp4	0.0	536.4376230239868	
67	193.3636019229889	movie	1		301.0	65.0	2.5	/experiments/knapen_aot/videos/R_S_yt-PK-Eip9wFr0_24.mp4	0.0	536.4457688331604	2.5083730220794678
67	195.87197494506836	fix_post	2		12.0	65.0	2.5	/experiments/knapen_aot/videos/R_S_yt-PK-Eip9wFr0_24.mp4	0.0	538.9541418552399	0.09995913505554199
68	195.9719340801239	fix_pre	0		5.0	66.0	2.5	/experiments/knapen_aot/videos/S_yt-J2PiBa1MXI0_210.mp4	0.0	539.0541009902954	0.04170584678649902
68	196.00543093681335	response	0	2		66.0	2.5	/experiments/knapen_aot/videos/S_yt-J2PiBa1MXI0_210.mp4	0.0	539.0875978469849	
68	196.0136399269104	movie	1		301.0	66.0	2.5	/experiments/knapen_aot/videos/S_yt-J2PiBa1MXI0_210.mp4	0.0	539.0958068370819	2.508341073989868
68	198.52198100090027	fix_post	2		12.0	66.0	2.5	/experiments/knapen_aot/videos/S_yt-J2PiBa1MXI0_210.mp4	0.0	541.6041479110718	0.09996509552001953
69	198.6219460964203	fix_pre	0		20.0	67.0	2.5	/experiments/knapen_aot/videos/R_S_comp_H007_C003_PS_v01_SDR_PS_20180925_SDR_2K_AVC.mp4	0.0	541.7041130065918	0.1673908233642578
69	198.78038907051086	response	0	2		67.0	2.5	/experiments/knapen_aot/videos/R_S_comp_H007_C003_PS_v01_SDR_PS_20180925_SDR_2K_AVC.mp4	0.0	541.8625559806824	
69	198.78933691978455	movie	1		192.0	67.0	2.5	/experiments/knapen_aot/videos/R_S_comp_H007_C003_PS_v01_SDR_PS_20180925_SDR_2K_AVC.mp4	0.0	541.871503829956	2.5076279640197754
69	201.20541191101074	response	1	2		67.0	2.5	/experiments/knapen_aot/videos/R_S_comp_H007_C003_PS_v01_SDR_PS_20180925_SDR_2K_AVC.mp4	0.0	544.2875788211823	
69	201.29696488380432	fix_post	2		12.0	67.0	2.5	/experiments/knapen_aot/videos/R_S_comp_H007_C003_PS_v01_SDR_PS_20180925_SDR_2K_AVC.mp4	0.0	544.3791317939758	0.10002422332763672
70	201.39698910713196	fix_pre	0		24.0	68.0	2.5	blank	1.0	544.4791560173035	0.19991087913513184
70	201.58871603012085	response	0	2		68.0	2.5	blank	1.0	544.6708829402924	
70	201.5968999862671	movie	1		301.0	68.0	2.5	blank	1.0	544.6790668964386	2.508341073989868
70	204.10524106025696	fix_post	2		12.0	68.0	2.5	blank	1.0	547.1874079704285	0.10002493858337402
71	204.20526599884033	fix_pre	0		16.0	69.0	2.5	/experiments/knapen_aot/videos/S_yt-mWlx1SIXl5M_850.mp4	0.0	547.2874329090118	0.13334393501281738
71	204.3303599357605	response	0	2		69.0	2.5	/experiments/knapen_aot/videos/S_yt-mWlx1SIXl5M_850.mp4	0.0	547.412526845932	
71	204.33860993385315	movie	1		301.0	69.0	2.5	/experiments/knapen_aot/videos/S_yt-mWlx1SIXl5M_850.mp4	0.0	547.4207768440247	2.5083091259002686
71	206.84691905975342	fix_post	2		12.0	69.0	2.5	/experiments/knapen_aot/videos/S_yt-mWlx1SIXl5M_850.mp4	0.0	549.9290859699249	0.0999908447265625
72	206.94690990447998	fix_pre	0		159.0	70.0	2.5	/experiments/knapen_aot/videos/S_59eT4XDXNno_25.mp4	0.0	550.0290768146515	1.3249390125274658
72	208.2637369632721	response	0	2		70.0	2.5	/experiments/knapen_aot/videos/S_59eT4XDXNno_25.mp4	0.0	551.3459038734436	
72	208.27184891700745	movie	1		301.0	70.0	2.5	/experiments/knapen_aot/videos/S_59eT4XDXNno_25.mp4	0.0	551.354015827179	2.5084211826324463
72	210.7802700996399	fix_post	2		12.0	70.0	2.5	/experiments/knapen_aot/videos/S_59eT4XDXNno_25.mp4	0.0	553.8624370098114	0.09996294975280762
73	210.8802330493927	fix_pre	0		33.0	71.0	2.5	/experiments/knapen_aot/videos/R_S_yt-bwSRV1Vr21s_435.mp4	0.0	553.9623999595642	0.2750098705291748
73	211.14698195457458	response	0	2		71.0	2.5	/experiments/knapen_aot/videos/R_S_yt-bwSRV1Vr21s_435.mp4	0.0	554.2291488647461	
73	211.15524291992188	movie	1		297.0	71.0	2.5	/experiments/knapen_aot/videos/R_S_yt-bwSRV1Vr21s_435.mp4	0.0	554.2374098300934	2.5082969665527344
73	213.6635398864746	fix_post	2		12.0	71.0	2.5	/experiments/knapen_aot/videos/R_S_yt-bwSRV1Vr21s_435.mp4	0.0	556.7457067966461	0.10007119178771973
74	213.76361107826233	fix_pre	0		52.0	72.0	2.5	/experiments/knapen_aot/videos/S_ILSVRC2015_train_00371012.mp4	0.0	556.8457779884338	0.43327784538269043
74	214.18863201141357	response	0	2		72.0	2.5	/experiments/knapen_aot/videos/S_ILSVRC2015_train_00371012.mp4	0.0	557.2707989215851	
74	214.19688892364502	movie	1		301.0	72.0	2.5	/experiments/knapen_aot/videos/S_ILSVRC2015_train_00371012.mp4	0.0	557.2790558338165	2.5083460807800293
74	216.70523500442505	fix_post	2		12.0	72.0	2.5	/experiments/knapen_aot/videos/S_ILSVRC2015_train_00371012.mp4	0.0	559.7874019145966	0.09998893737792969
75	216.80522394180298	fix_pre	0		56.0	73.0	2.5	/experiments/knapen_aot/videos/R_S_yt-mWlx1SIXl5M_850.mp4	0.0	559.8873908519745	0.4666571617126465
75	217.26359510421753	response	0	2		73.0	2.5	/experiments/knapen_aot/videos/R_S_yt-mWlx1SIXl5M_850.mp4	0.0	560.345762014389	
75	217.27188110351562	movie	1		300.0	73.0	2.5	/experiments/knapen_aot/videos/R_S_yt-mWlx1SIXl5M_850.mp4	0.0	560.3540480136871	2.5083208084106445
75	219.78020191192627	fix_post	2		12.0	73.0	2.5	/experiments/knapen_aot/videos/R_S_yt-mWlx1SIXl5M_850.mp4	0.0	562.8623688220978	0.1000051498413086
76	219.88020706176758	fix_pre	0		25.0	74.0	2.5	/experiments/knapen_aot/videos/S_yt-3E02UEHdoZ4_752.mp4	0.0	562.9623739719391	0.20823884010314941
76	220.07280802726746	response	0	2		74.0	2.5	/experiments/knapen_aot/videos/S_yt-3E02UEHdoZ4_752.mp4	0.0	563.154974937439	
76	220.08844590187073	movie	1		301.0	74.0	2.5	/experiments/knapen_aot/videos/S_yt-3E02UEHdoZ4_752.mp4	0.0	563.1706128120422	2.508390188217163
76	222.5968360900879	fix_post	2		12.0	74.0	2.5	/experiments/knapen_aot/videos/S_yt-3E02UEHdoZ4_752.mp4	0.0	565.6790030002594	0.10000085830688477
77	222.69683694839478	fix_pre	0		43.0	75.0	2.5	/experiments/knapen_aot/videos/S_Ds4EKTLx_RI_51.mp4	0.0	565.7790038585663	0.3582761287689209
77	223.04700207710266	response	0	2		75.0	2.5	/experiments/knapen_aot/videos/S_Ds4EKTLx_RI_51.mp4	0.0	566.1291689872742	
77	223.0551130771637	movie	1		301.0	75.0	2.5	/experiments/knapen_aot/videos/S_Ds4EKTLx_RI_51.mp4	0.0	566.1372799873352	2.5084338188171387
77	225.56354689598083	fix_post	2		12.0	75.0	2.5	/experiments/knapen_aot/videos/S_Ds4EKTLx_RI_51.mp4	0.0	568.6457138061523	0.0999441146850586
78	225.6634910106659	fix_pre	0		31.0	76.0	2.5	blank	1.0	568.7456579208374	0.25838589668273926
78	225.91357588768005	response	0	2		76.0	2.5	blank	1.0	568.9957427978516	
78	225.92187690734863	movie	1		301.0	76.0	2.5	blank	1.0	569.0040438175201	2.5082921981811523
78	228.43016910552979	fix_post	2		12.0	76.0	2.5	blank	1.0	571.5123360157013	0.09995579719543457
79	228.53012490272522	fix_pre	0		23.0	77.0	2.5	/experiments/knapen_aot/videos/R_S_ILSVRC2015_train_00405001.mp4	0.0	571.6122918128967	0.1917111873626709
79	228.7135410308838	response	0	2		77.0	2.5	/experiments/knapen_aot/videos/R_S_ILSVRC2015_train_00405001.mp4	0.0	571.7957079410553	
79	228.7218360900879	movie	1		300.0	77.0	2.5	/experiments/knapen_aot/videos/R_S_ILSVRC2015_train_00405001.mp4	0.0	571.8040030002594	2.5082859992980957
79	231.230122089386	fix_post	2		12.0	77.0	2.5	/experiments/knapen_aot/videos/R_S_ILSVRC2015_train_00405001.mp4	0.0	574.3122889995575	0.09998393058776855
80	231.33010601997375	fix_pre	0		18.0	78.0	2.5	/experiments/knapen_aot/videos/S_yt-9NV8zv2Sdq4_30.mp4	0.0	574.4122729301453	0.1500110626220703
80	231.47196292877197	response	0	2		78.0	2.5	/experiments/knapen_aot/videos/S_yt-9NV8zv2Sdq4_30.mp4	0.0	574.5541298389435	
80	231.48011708259583	movie	1		301.0	78.0	2.5	/experiments/knapen_aot/videos/S_yt-9NV8zv2Sdq4_30.mp4	0.0	574.5622839927673	2.5083518028259277
80	233.98846888542175	fix_post	2		12.0	78.0	2.5	/experiments/knapen_aot/videos/S_yt-9NV8zv2Sdq4_30.mp4	0.0	577.0706357955933	0.09995722770690918
81	234.08842611312866	fix_pre	0		9.0	79.0	2.5	/experiments/knapen_aot/videos/R_S_yt-_Hnr82bYGEQ_103.mp4	0.0	577.1705930233002	0.07564592361450195
81	234.1552219390869	response	0	2		79.0	2.5	/experiments/knapen_aot/videos/R_S_yt-_Hnr82bYGEQ_103.mp4	0.0	577.2373888492584	
81	234.16407203674316	movie	1		300.0	79.0	2.5	/experiments/knapen_aot/videos/R_S_yt-_Hnr82bYGEQ_103.mp4	0.0	577.2462389469147	2.5077030658721924
81	236.67177510261536	fix_post	2		12.0	79.0	2.5	/experiments/knapen_aot/videos/R_S_yt-_Hnr82bYGEQ_103.mp4	0.0	579.7539420127869	0.10003089904785156
82	236.7718060016632	fix_pre	0		10.0	80.0	2.5	/experiments/knapen_aot/videos/S_yt-7e6Z9QQieAk_183.mp4	0.0	579.8539729118347	0.08331108093261719
82	236.84687209129333	response	0	2		80.0	2.5	/experiments/knapen_aot/videos/S_yt-7e6Z9QQieAk_183.mp4	0.0	579.9290390014648	
82	236.85511708259583	movie	1		301.0	80.0	2.5	/experiments/knapen_aot/videos/S_yt-7e6Z9QQieAk_183.mp4	0.0	579.9372839927673	2.5082759857177734
82	239.3633930683136	fix_post	2		12.0	80.0	2.5	/experiments/knapen_aot/videos/S_yt-7e6Z9QQieAk_183.mp4	0.0	582.4455599784851	0.10001683235168457
83	239.46340990066528	fix_pre	0		14.0	81.0	2.5	/experiments/knapen_aot/videos/S_comp_GMT110_112NC_364D_1054_AURORA_ANTARTICA__COMP_FINAL_v34_PS_SDR_20181107_SDR_2K_AVC.mp4	0.0	582.5455768108368	0.11723899841308594
83	239.57188892364502	response	0	2		81.0	2.5	/experiments/knapen_aot/videos/S_comp_GMT110_112NC_364D_1054_AURORA_ANTARTICA__COMP_FINAL_v34_PS_SDR_20181107_SDR_2K_AVC.mp4	0.0	582.6540558338165	
83	239.58064889907837	movie	1		163.0	81.0	2.5	/experiments/knapen_aot/videos/S_comp_GMT110_112NC_364D_1054_AURORA_ANTARTICA__COMP_FINAL_v34_PS_SDR_20181107_SDR_2K_AVC.mp4	0.0	582.6628158092499	2.507742166519165
83	242.08839106559753	fix_post	2		12.0	81.0	2.5	/experiments/knapen_aot/videos/S_comp_GMT110_112NC_364D_1054_AURORA_ANTARTICA__COMP_FINAL_v34_PS_SDR_20181107_SDR_2K_AVC.mp4	0.0	585.170557975769	0.10003900527954102
84	242.18843007087708	fix_pre	0		78.0	82.0	2.5	/experiments/knapen_aot/videos/R_S_pexels-sora-shimazaki-5925295.mp4	0.0	585.2705969810486	0.6499698162078857
84	242.83026003837585	response	0	2		82.0	2.5	/experiments/knapen_aot/videos/R_S_pexels-sora-shimazaki-5925295.mp4	0.0	585.9124269485474	
84	242.83839988708496	movie	1		163.0	82.0	2.5	/experiments/knapen_aot/videos/R_S_pexels-sora-shimazaki-5925295.mp4	0.0	585.9205667972565	2.508364200592041
84	245.346764087677	fix_post	2		12.0	82.0	2.5	/experiments/knapen_aot/videos/R_S_pexels-sora-shimazaki-5925295.mp4	0.0	588.4289309978485	0.09993600845336914
85	245.44670009613037	fix_pre	0		21.0	83.0	2.5	blank	1.0	588.5288670063019	0.17560291290283203
85	245.6060390472412	response	0	2		83.0	2.5	blank	1.0	588.6882059574127	
85	245.6223030090332	movie	1		301.0	83.0	2.5	blank	1.0	588.7044699192047	2.507765054702759
85	248.13006806373596	fix_post	2		12.0	83.0	2.5	blank	1.0	591.2122349739075	0.10002493858337402
87	248.23009300231934	stim	0		247.0					591.3122599124908	2.0588700771331787
87	250.2820930480957	response	0	space						593.3642599582672	
