trial_nr	onset	event_type	phase	response	nr_frames	movie_index	movie_duration	movie_file	blank	onset_abs	duration
0	0.15825414657592773	stim	0		23.0					124.65476703643799	0.19279885292053223
0	0.3418409824371338	response	0	space						124.8383538722992	
1	0.35105299949645996	stim	0		121.0					124.84756588935852	1.0072510242462158
1	1.3583040237426758	stim	1		120.0					125.85481691360474	0.9995779991149902
1	1.6164391040802002	response	1	space						126.11295199394226	
1	2.0755350589752197	response	1	space						126.57204794883728	
2	2.357882022857666	fix_pre	0		29.0	0.0	2.5	/experiments/knapen_aot/videos/R_S_pexels-kindel-media-8165572.mp4	0.0	126.85439491271973	0.2427690029144287
2	2.591391086578369	response	0	space		0.0	2.5	/experiments/knapen_aot/videos/R_S_pexels-kindel-media-8165572.mp4	0.0	127.08790397644043	
2	2.6006510257720947	movie	1		166.0	0.0	2.5	/experiments/knapen_aot/videos/R_S_pexels-kindel-media-8165572.mp4	0.0	127.09716391563416	2.5073039531707764
2	5.107954978942871	fix_post	2		12.0	0.0	2.5	/experiments/knapen_aot/videos/R_S_pexels-kindel-media-8165572.mp4	0.0	129.60446786880493	0.10835599899291992
2	5.20470404624939	response	2	2		0.0	2.5	/experiments/knapen_aot/videos/R_S_pexels-kindel-media-8165572.mp4	0.0	129.70121693611145	
3	5.216310977935791	fix_pre	0		50.0	1.0	2.5	/experiments/knapen_aot/videos/R_S_yt-Rybd-sKJFz0_78.mp4	0.0	129.71282386779785	0.4166531562805176
3	5.6245951652526855	response	0	2		1.0	2.5	/experiments/knapen_aot/videos/R_S_yt-Rybd-sKJFz0_78.mp4	0.0	130.12110805511475	
3	5.632964134216309	movie	1		301.0	1.0	2.5	/experiments/knapen_aot/videos/R_S_yt-Rybd-sKJFz0_78.mp4	0.0	130.12947702407837	2.5083348751068115
3	8.14129900932312	fix_post	2		12.0	1.0	2.5	/experiments/knapen_aot/videos/R_S_yt-Rybd-sKJFz0_78.mp4	0.0	132.63781189918518	0.09998416900634766
4	8.241283178329468	fix_pre	0		9.0	2.0	2.5	/experiments/knapen_aot/videos/S_yt-w_e3sxIzepA_27.mp4	0.0	132.73779606819153	0.07498288154602051
4	8.308103084564209	response	0	2		2.0	2.5	/experiments/knapen_aot/videos/S_yt-w_e3sxIzepA_27.mp4	0.0	132.80461597442627	
4	8.316266059875488	movie	1		301.0	2.0	2.5	/experiments/knapen_aot/videos/S_yt-w_e3sxIzepA_27.mp4	0.0	132.81277894973755	2.508362054824829
4	10.824628114700317	fix_post	2		12.0	2.0	2.5	/experiments/knapen_aot/videos/S_yt-w_e3sxIzepA_27.mp4	0.0	135.32114100456238	0.09998583793640137
5	10.924613952636719	fix_pre	0		12.0	3.0	2.5	/experiments/knapen_aot/videos/S_comp_H012_C009_PS_v01_SDR_PS_20180925_SDR_2K_AVC.mp4	0.0	135.42112684249878	0.10000419616699219
5	11.016390085220337	response	0	2		3.0	2.5	/experiments/knapen_aot/videos/S_comp_H012_C009_PS_v01_SDR_PS_20180925_SDR_2K_AVC.mp4	0.0	135.5129029750824	
5	11.024618148803711	movie	1		161.0	3.0	2.5	/experiments/knapen_aot/videos/S_comp_H012_C009_PS_v01_SDR_PS_20180925_SDR_2K_AVC.mp4	0.0	135.52113103866577	2.50834584236145
5	13.532963991165161	fix_post	2		12.0	3.0	2.5	/experiments/knapen_aot/videos/S_comp_H012_C009_PS_v01_SDR_PS_20180925_SDR_2K_AVC.mp4	0.0	138.02947688102722	0.09995698928833008
6	13.632920980453491	fix_pre	0		20.0	4.0	2.5	/experiments/knapen_aot/videos/R_S_yt-8RmEimCI80g_35.mp4	0.0	138.12943387031555	0.16664409637451172
6	13.791370153427124	response	0	2		4.0	2.5	/experiments/knapen_aot/videos/R_S_yt-8RmEimCI80g_35.mp4	0.0	138.28788304328918	
6	13.799565076828003	movie	1		301.0	4.0	2.5	/experiments/knapen_aot/videos/R_S_yt-8RmEimCI80g_35.mp4	0.0	138.29607796669006	2.5083370208740234
6	16.307902097702026	fix_post	2		12.0	4.0	2.5	/experiments/knapen_aot/videos/R_S_yt-8RmEimCI80g_35.mp4	0.0	140.8044149875641	0.09999895095825195
7	16.40790104866028	fix_pre	0		7.0	5.0	2.5	/experiments/knapen_aot/videos/R_S_yt-Tt_LkR4iAt4_11.mp4	0.0	140.90441393852234	0.05833005905151367
7	16.45802402496338	response	0	2		5.0	2.5	/experiments/knapen_aot/videos/R_S_yt-Tt_LkR4iAt4_11.mp4	0.0	140.95453691482544	
7	16.466231107711792	movie	1		301.0	5.0	2.5	/experiments/knapen_aot/videos/R_S_yt-Tt_LkR4iAt4_11.mp4	0.0	140.96274399757385	2.5083749294281006
7	18.974606037139893	fix_post	2		12.0	5.0	2.5	/experiments/knapen_aot/videos/R_S_yt-Tt_LkR4iAt4_11.mp4	0.0	143.47111892700195	0.09988212585449219
8	19.074488162994385	fix_pre	0		2.0	6.0	2.5	blank	1.0	143.57100105285645	0.016742944717407227
8	19.083060026168823	response	0	2		6.0	2.5	blank	1.0	143.57957291603088	
8	19.091231107711792	movie	1		301.0	6.0	2.5	blank	1.0	143.58774399757385	2.508344888687134
8	21.599575996398926	fix_post	2		12.0	6.0	2.5	blank	1.0	146.096088886261	0.09998512268066406
9	21.69956111907959	fix_pre	0		8.0	7.0	2.5	/experiments/knapen_aot/videos/R_S_yt-IPiZqn4dG9k_9.mp4	0.0	146.19607400894165	0.06765604019165039
9	21.758018970489502	response	0	2		7.0	2.5	/experiments/knapen_aot/videos/R_S_yt-IPiZqn4dG9k_9.mp4	0.0	146.25453186035156	
9	21.76721715927124	movie	1		301.0	7.0	2.5	/experiments/knapen_aot/videos/R_S_yt-IPiZqn4dG9k_9.mp4	0.0	146.2637300491333	2.5073328018188477
9	24.274549961090088	fix_post	2		12.0	7.0	2.5	/experiments/knapen_aot/videos/R_S_yt-IPiZqn4dG9k_9.mp4	0.0	148.77106285095215	0.09997105598449707
10	24.374521017074585	fix_pre	0		3.0	8.0	2.5	/experiments/knapen_aot/videos/S_yt-w_C-15eJeCQ_191.mp4	0.0	148.87103390693665	0.025016069412231445
10	24.391371965408325	response	0	2		8.0	2.5	/experiments/knapen_aot/videos/S_yt-w_C-15eJeCQ_191.mp4	0.0	148.88788485527039	
10	24.399537086486816	movie	1		301.0	8.0	2.5	/experiments/knapen_aot/videos/S_yt-w_C-15eJeCQ_191.mp4	0.0	148.89604997634888	2.508336067199707
10	26.907873153686523	fix_post	2		12.0	8.0	2.5	/experiments/knapen_aot/videos/S_yt-w_C-15eJeCQ_191.mp4	0.0	151.40438604354858	0.1000218391418457
11	27.00789499282837	fix_pre	0		12.0	9.0	2.5	/experiments/knapen_aot/videos/S_yt-KM_SJx8CMGc_10.mp4	0.0	151.50440788269043	0.0999751091003418
11	27.099576950073242	response	0	2		9.0	2.5	/experiments/knapen_aot/videos/S_yt-KM_SJx8CMGc_10.mp4	0.0	151.5960898399353	
11	27.10787010192871	movie	1		301.0	9.0	2.5	/experiments/knapen_aot/videos/S_yt-KM_SJx8CMGc_10.mp4	0.0	151.60438299179077	2.508286952972412
11	29.616157054901123	fix_post	2		12.0	9.0	2.5	/experiments/knapen_aot/videos/S_yt-KM_SJx8CMGc_10.mp4	0.0	154.11266994476318	0.09992790222167969
12	29.716084957122803	fix_pre	0		11.0	10.0	2.5	/experiments/knapen_aot/videos/S_wc-eJe3wXMgTLRV_20.mp4	0.0	154.21259784698486	0.0926201343536377
12	29.79965114593506	response	0	2		10.0	2.5	/experiments/knapen_aot/videos/S_wc-eJe3wXMgTLRV_20.mp4	0.0	154.29616403579712	
12	29.80870509147644	movie	1		164.0	10.0	2.5	/experiments/knapen_aot/videos/S_wc-eJe3wXMgTLRV_20.mp4	0.0	154.3052179813385	2.5074400901794434
12	32.316145181655884	fix_post	2		12.0	10.0	2.5	/experiments/knapen_aot/videos/S_wc-eJe3wXMgTLRV_20.mp4	0.0	156.81265807151794	0.09996676445007324
13	32.41611194610596	fix_pre	0		10.0	11.0	2.5	/experiments/knapen_aot/videos/S_video-8.mp4	0.0	156.91262483596802	0.08338403701782227
13	32.491271018981934	response	0	2		11.0	2.5	/experiments/knapen_aot/videos/S_video-8.mp4	0.0	156.987783908844	
13	32.49949598312378	movie	1		196.0	11.0	2.5	/experiments/knapen_aot/videos/S_video-8.mp4	0.0	156.99600887298584	2.5083630084991455
13	35.007858991622925	fix_post	2		12.0	11.0	2.5	/experiments/knapen_aot/videos/S_video-8.mp4	0.0	159.50437188148499	0.09998798370361328
14	35.10784697532654	fix_pre	0		10.0	12.0	2.5	/experiments/knapen_aot/videos/R_S_yt-KM_SJx8CMGc_10.mp4	0.0	159.6043598651886	0.08332109451293945
14	35.184123039245605	response	0	2		12.0	2.5	/experiments/knapen_aot/videos/R_S_yt-KM_SJx8CMGc_10.mp4	0.0	159.68063592910767	
14	35.19116806983948	movie	1		301.0	12.0	2.5	/experiments/knapen_aot/videos/R_S_yt-KM_SJx8CMGc_10.mp4	0.0	159.68768095970154	2.508344888687134
14	37.69951295852661	fix_post	2		12.0	12.0	2.5	/experiments/knapen_aot/videos/R_S_yt-KM_SJx8CMGc_10.mp4	0.0	162.19602584838867	0.09997415542602539
15	37.79948711395264	fix_pre	0		6.0	13.0	2.5	blank	1.0	162.2960000038147	0.05103302001953125
15	37.84124302864075	response	0	2		13.0	2.5	blank	1.0	162.3377559185028	
15	37.85052013397217	movie	1		301.0	13.0	2.5	blank	1.0	162.34703302383423	2.507230043411255
15	40.35775017738342	fix_post	2		12.0	13.0	2.5	blank	1.0	164.85426306724548	0.10005688667297363
16	40.4578070640564	fix_pre	0		15.0	14.0	2.5	/experiments/knapen_aot/videos/S_ILSVRC2015_train_00378000.mp4	0.0	164.95431995391846	0.12502503395080566
16	40.57464909553528	response	0	2		14.0	2.5	/experiments/knapen_aot/videos/S_ILSVRC2015_train_00378000.mp4	0.0	165.07116198539734	
16	40.5828320980072	movie	1		301.0	14.0	2.5	/experiments/knapen_aot/videos/S_ILSVRC2015_train_00378000.mp4	0.0	165.07934498786926	2.508347988128662
16	43.091180086135864	fix_post	2		12.0	14.0	2.5	/experiments/knapen_aot/videos/S_ILSVRC2015_train_00378000.mp4	0.0	167.58769297599792	0.09996891021728516
17	43.19114899635315	fix_pre	0		21.0	15.0	2.5	/experiments/knapen_aot/videos/S_yt-MhW2fU45JK8_544.mp4	0.0	167.6876618862152	0.17497014999389648
17	43.35789108276367	response	0	2		15.0	2.5	/experiments/knapen_aot/videos/S_yt-MhW2fU45JK8_544.mp4	0.0	167.85440397262573	
17	43.366119146347046	movie	1		301.0	15.0	2.5	/experiments/knapen_aot/videos/S_yt-MhW2fU45JK8_544.mp4	0.0	167.8626320362091	2.5083489418029785
17	45.874468088150024	fix_post	2		12.0	15.0	2.5	/experiments/knapen_aot/videos/S_yt-MhW2fU45JK8_544.mp4	0.0	170.37098097801208	0.10082697868347168
18	45.975295066833496	fix_pre	0		1.0	16.0	2.5	/experiments/knapen_aot/videos/S_yt-_BvMLZo0MG0_1226.mp4	0.0	170.47180795669556	0.007494926452636719
18	45.9770770072937	response	0	2		16.0	2.5	/experiments/knapen_aot/videos/S_yt-_BvMLZo0MG0_1226.mp4	0.0	170.47358989715576	
18	45.98278999328613	movie	1		299.0	16.0	2.5	/experiments/knapen_aot/videos/S_yt-_BvMLZo0MG0_1226.mp4	0.0	170.4793028831482	2.508327007293701
18	48.491117000579834	fix_post	2		12.0	16.0	2.5	/experiments/knapen_aot/videos/S_yt-_BvMLZo0MG0_1226.mp4	0.0	172.9876298904419	0.09988117218017578
19	48.59099817276001	fix_pre	0		6.0	17.0	2.5	/experiments/knapen_aot/videos/S_pexels-cottonbro-6789231.mp4	0.0	173.08751106262207	0.0512998104095459
19	48.62546110153198	response	0	2		17.0	2.5	/experiments/knapen_aot/videos/S_pexels-cottonbro-6789231.mp4	0.0	173.12197399139404	
19	48.642297983169556	movie	1		206.0	17.0	2.5	/experiments/knapen_aot/videos/S_pexels-cottonbro-6789231.mp4	0.0	173.13881087303162	2.507133960723877
19	51.14943194389343	fix_post	2		12.0	17.0	2.5	/experiments/knapen_aot/videos/S_pexels-cottonbro-6789231.mp4	0.0	175.6459448337555	0.09993100166320801
19	51.19222116470337	response	2	2		17.0	2.5	/experiments/knapen_aot/videos/S_pexels-cottonbro-6789231.mp4	0.0	175.68873405456543	
20	51.24936294555664	fix_pre	0		55.0	18.0	2.5	/experiments/knapen_aot/videos/R_S_production_ID_4360158.mp4	0.0	175.7458758354187	0.45833706855773926
20	51.69955396652222	response	0	2		18.0	2.5	/experiments/knapen_aot/videos/R_S_production_ID_4360158.mp4	0.0	176.19606685638428	
20	51.70770001411438	movie	1		161.0	18.0	2.5	/experiments/knapen_aot/videos/R_S_production_ID_4360158.mp4	0.0	176.20421290397644	2.508449077606201
20	54.21614909172058	fix_post	2		12.0	18.0	2.5	/experiments/knapen_aot/videos/R_S_production_ID_4360158.mp4	0.0	178.71266198158264	0.09998703002929688
21	54.31613612174988	fix_pre	0		2.0	19.0	2.5	blank	1.0	178.81264901161194	0.01656484603881836
21	54.324565172195435	response	0	2		19.0	2.5	blank	1.0	178.8210780620575	
21	54.332700967788696	movie	1		301.0	19.0	2.5	blank	1.0	178.82921385765076	2.5083541870117188
21	56.841055154800415	fix_post	2		12.0	19.0	2.5	blank	1.0	181.33756804466248	0.10005402565002441
22	56.94110918045044	fix_pre	0		12.0	20.0	2.5	/experiments/knapen_aot/videos/R_S_ILSVRC2015_train_00378000.mp4	0.0	181.4376220703125	0.09995698928833008
22	57.032838106155396	response	0	2		20.0	2.5	/experiments/knapen_aot/videos/R_S_ILSVRC2015_train_00378000.mp4	0.0	181.52935099601746	
22	57.04106616973877	movie	1		301.0	20.0	2.5	/experiments/knapen_aot/videos/R_S_ILSVRC2015_train_00378000.mp4	0.0	181.53757905960083	2.5083718299865723
22	59.54943799972534	fix_post	2		12.0	20.0	2.5	/experiments/knapen_aot/videos/R_S_ILSVRC2015_train_00378000.mp4	0.0	184.0459508895874	0.09997010231018066
22	59.574512004852295	response	2	2		20.0	2.5	/experiments/knapen_aot/videos/R_S_ILSVRC2015_train_00378000.mp4	0.0	184.07102489471436	
23	59.64940810203552	fix_pre	0		52.0	21.0	2.5	/experiments/knapen_aot/videos/S_yt-QD74nNliDvI_10.mp4	0.0	184.14592099189758	0.4332089424133301
23	60.06686210632324	response	0	2		21.0	2.5	/experiments/knapen_aot/videos/S_yt-QD74nNliDvI_10.mp4	0.0	184.5633749961853	
23	60.08261704444885	movie	1		301.0	21.0	2.5	/experiments/knapen_aot/videos/S_yt-QD74nNliDvI_10.mp4	0.0	184.5791299343109	2.5083670616149902
23	62.59098410606384	fix_post	2		12.0	21.0	2.5	/experiments/knapen_aot/videos/S_yt-QD74nNliDvI_10.mp4	0.0	187.0874969959259	0.10005998611450195
23	62.66607713699341	response	2	2		21.0	2.5	/experiments/knapen_aot/videos/S_yt-QD74nNliDvI_10.mp4	0.0	187.16259002685547	
24	62.691044092178345	fix_pre	0		48.0	22.0	2.5	/experiments/knapen_aot/videos/S_yt-jcuaf9iSEkI_169.mp4	0.0	187.1875569820404	0.3999459743499756
24	63.082781076431274	response	0	2		22.0	2.5	/experiments/knapen_aot/videos/S_yt-jcuaf9iSEkI_169.mp4	0.0	187.57929396629333	
24	63.09099006652832	movie	1		298.0	22.0	2.5	/experiments/knapen_aot/videos/S_yt-jcuaf9iSEkI_169.mp4	0.0	187.58750295639038	2.508331060409546
24	65.59932112693787	fix_post	2		12.0	22.0	2.5	/experiments/knapen_aot/videos/S_yt-jcuaf9iSEkI_169.mp4	0.0	190.09583401679993	0.10002684593200684
25	65.69934797286987	fix_pre	0		5.0	23.0	2.5	/experiments/knapen_aot/videos/R_S_wc-jujp1kJRHrkJ_54.mp4	0.0	190.19586086273193	0.041709184646606445
25	65.73292303085327	response	0	2		23.0	2.5	/experiments/knapen_aot/videos/R_S_wc-jujp1kJRHrkJ_54.mp4	0.0	190.22943592071533	
25	65.74105715751648	movie	1		301.0	23.0	2.5	/experiments/knapen_aot/videos/R_S_wc-jujp1kJRHrkJ_54.mp4	0.0	190.23757004737854	2.5083048343658447
25	68.24936199188232	fix_post	2		12.0	23.0	2.5	/experiments/knapen_aot/videos/R_S_wc-jujp1kJRHrkJ_54.mp4	0.0	192.74587488174438	0.10063695907592773
26	68.34999895095825	fix_pre	0		10.0	24.0	2.5	/experiments/knapen_aot/videos/R_S_yt-GyMWMiWvuiA_237.mp4	0.0	192.8465118408203	0.08337521553039551
26	68.424556016922	response	0	2		24.0	2.5	/experiments/knapen_aot/videos/R_S_yt-GyMWMiWvuiA_237.mp4	0.0	192.92106890678406	
26	68.43337416648865	movie	1		301.0	24.0	2.5	/experiments/knapen_aot/videos/R_S_yt-GyMWMiWvuiA_237.mp4	0.0	192.9298870563507	2.5076239109039307
26	70.94099807739258	fix_post	2		12.0	24.0	2.5	/experiments/knapen_aot/videos/R_S_yt-GyMWMiWvuiA_237.mp4	0.0	195.43751096725464	0.09996891021728516
26	71.02443099021912	response	2	2		24.0	2.5	/experiments/knapen_aot/videos/R_S_yt-GyMWMiWvuiA_237.mp4	0.0	195.52094388008118	
27	71.04096698760986	fix_pre	0		45.0	25.0	2.5	/experiments/knapen_aot/videos/S_yt-kYMffy4hTMo_107.mp4	0.0	195.53747987747192	0.3750331401824951
27	71.40030407905579	response	0	2		25.0	2.5	/experiments/knapen_aot/videos/S_yt-kYMffy4hTMo_107.mp4	0.0	195.89681696891785	
27	71.41600012779236	movie	1		301.0	25.0	2.5	/experiments/knapen_aot/videos/S_yt-kYMffy4hTMo_107.mp4	0.0	195.91251301765442	2.5083789825439453
27	73.9243791103363	fix_post	2		12.0	25.0	2.5	/experiments/knapen_aot/videos/S_yt-kYMffy4hTMo_107.mp4	0.0	198.42089200019836	0.09991288185119629
28	74.0242919921875	fix_pre	0		6.0	26.0	2.5	/experiments/knapen_aot/videos/R_S_production_ID_3761571.mp4	0.0	198.52080488204956	0.05005002021789551
28	74.06612300872803	response	0	4		26.0	2.5	/experiments/knapen_aot/videos/R_S_production_ID_3761571.mp4	0.0	198.5626358985901	
28	74.0743420124054	movie	1		160.0	26.0	2.5	/experiments/knapen_aot/videos/R_S_production_ID_3761571.mp4	0.0	198.57085490226746	2.508286952972412
28	76.58262896537781	fix_post	2		12.0	26.0	2.5	/experiments/knapen_aot/videos/R_S_production_ID_3761571.mp4	0.0	201.07914185523987	0.09999299049377441
29	76.68262195587158	fix_pre	0		21.0	27.0	2.5	blank	1.0	201.17913484573364	0.17504310607910156
29	76.84941506385803	response	0	4		27.0	2.5	blank	1.0	201.3459279537201	
29	76.85766506195068	movie	1		301.0	27.0	2.5	blank	1.0	201.35417795181274	2.508331060409546
29	79.36599612236023	fix_post	2		12.0	27.0	2.5	blank	1.0	203.8625090122223	0.0999908447265625
30	79.46598696708679	fix_pre	0		20.0	28.0	2.5	/experiments/knapen_aot/videos/S_yt-Y3pi1bgUwIg_78.mp4	0.0	203.96249985694885	0.16663217544555664
30	79.6243941783905	response	0	2		28.0	2.5	/experiments/knapen_aot/videos/S_yt-Y3pi1bgUwIg_78.mp4	0.0	204.12090706825256	
30	79.63261914253235	movie	1		301.0	28.0	2.5	/experiments/knapen_aot/videos/S_yt-Y3pi1bgUwIg_78.mp4	0.0	204.1291320323944	2.5083329677581787
30	82.14095211029053	fix_post	2		12.0	28.0	2.5	/experiments/knapen_aot/videos/S_yt-Y3pi1bgUwIg_78.mp4	0.0	206.6374650001526	0.09999394416809082
31	82.24094605445862	fix_pre	0		10.0	29.0	2.5	/experiments/knapen_aot/videos/S_3dzza09VbXY_235.mp4	0.0	206.73745894432068	0.08333706855773926
31	82.31612515449524	response	0	2		29.0	2.5	/experiments/knapen_aot/videos/S_3dzza09VbXY_235.mp4	0.0	206.8126380443573	
31	82.32428312301636	movie	1		297.0	29.0	2.5	/experiments/knapen_aot/videos/S_3dzza09VbXY_235.mp4	0.0	206.82079601287842	2.5083119869232178
31	84.83259510993958	fix_post	2		12.0	29.0	2.5	/experiments/knapen_aot/videos/S_3dzza09VbXY_235.mp4	0.0	209.32910799980164	0.09996485710144043
32	84.93255996704102	fix_pre	0		21.0	30.0	2.5	/experiments/knapen_aot/videos/S_production_ID_4820868.mp4	0.0	209.42907285690308	0.17505216598510742
32	85.09942698478699	response	0	2		30.0	2.5	/experiments/knapen_aot/videos/S_production_ID_4820868.mp4	0.0	209.59593987464905	
32	85.10761213302612	movie	1		166.0	30.0	2.5	/experiments/knapen_aot/videos/S_production_ID_4820868.mp4	0.0	209.60412502288818	2.5083630084991455
32	87.61597514152527	fix_post	2		12.0	30.0	2.5	/experiments/knapen_aot/videos/S_production_ID_4820868.mp4	0.0	212.11248803138733	0.10009598731994629
32	87.64946794509888	response	2	2		30.0	2.5	/experiments/knapen_aot/videos/S_production_ID_4820868.mp4	0.0	212.14598083496094	
33	87.71607112884521	fix_pre	0		29.0	31.0	2.5	/experiments/knapen_aot/videos/R_S_comp_H005_C012_PS_v01_SDR_PS_20180925_SDR_2K_AVC.mp4	0.0	212.21258401870728	0.24152398109436035
33	87.94938611984253	response	0	2		31.0	2.5	/experiments/knapen_aot/videos/R_S_comp_H005_C012_PS_v01_SDR_PS_20180925_SDR_2K_AVC.mp4	0.0	212.4458990097046	
33	87.95759510993958	movie	1		169.0	31.0	2.5	/experiments/knapen_aot/videos/R_S_comp_H005_C012_PS_v01_SDR_PS_20180925_SDR_2K_AVC.mp4	0.0	212.45410799980164	2.5082719326019287
33	90.4658670425415	fix_post	2		12.0	31.0	2.5	/experiments/knapen_aot/videos/R_S_comp_H005_C012_PS_v01_SDR_PS_20180925_SDR_2K_AVC.mp4	0.0	214.96237993240356	0.10007190704345703
33	90.46767401695251	response	2	4		31.0	2.5	/experiments/knapen_aot/videos/R_S_comp_H005_C012_PS_v01_SDR_PS_20180925_SDR_2K_AVC.mp4	0.0	214.96418690681458	
34	90.56593894958496	fix_pre	0		33.0	32.0	2.5	/experiments/knapen_aot/videos/S_yt-CXn1PGH67_s_20.mp4	0.0	215.06245183944702	0.2749772071838379
34	90.82522201538086	response	0	4		32.0	2.5	/experiments/knapen_aot/videos/S_yt-CXn1PGH67_s_20.mp4	0.0	215.32173490524292	
34	90.8409161567688	movie	1		301.0	32.0	2.5	/experiments/knapen_aot/videos/S_yt-CXn1PGH67_s_20.mp4	0.0	215.33742904663086	2.5083467960357666
34	93.34926295280457	fix_post	2		12.0	32.0	2.5	/experiments/knapen_aot/videos/S_yt-CXn1PGH67_s_20.mp4	0.0	217.84577584266663	0.10006022453308105
35	93.44932317733765	fix_pre	0		8.0	33.0	2.5	/experiments/knapen_aot/videos/R_S_yt-Rybd-sKJFz0_78.mp4	0.0	217.9458360671997	0.06728982925415039
35	93.50100207328796	response	0	2		33.0	2.5	/experiments/knapen_aot/videos/R_S_yt-Rybd-sKJFz0_78.mp4	0.0	217.99751496315002	
35	93.5166130065918	movie	1		301.0	33.0	2.5	/experiments/knapen_aot/videos/R_S_yt-Rybd-sKJFz0_78.mp4	0.0	218.01312589645386	2.507620096206665
35	96.02423310279846	fix_post	2		12.0	33.0	2.5	/experiments/knapen_aot/videos/R_S_yt-Rybd-sKJFz0_78.mp4	0.0	220.52074599266052	0.10008502006530762
36	96.12431812286377	fix_pre	0		2.0	34.0	2.5	/experiments/knapen_aot/videos/R_S_yt-2cwARrUMj40_67.mp4	0.0	220.62083101272583	0.017454862594604492
36	96.13283109664917	response	0	2		34.0	2.5	/experiments/knapen_aot/videos/R_S_yt-2cwARrUMj40_67.mp4	0.0	220.62934398651123	
36	96.14177298545837	movie	1		301.0	34.0	2.5	/experiments/knapen_aot/videos/R_S_yt-2cwARrUMj40_67.mp4	0.0	220.63828587532043	2.50747013092041
36	98.64924311637878	fix_post	2		12.0	34.0	2.5	/experiments/knapen_aot/videos/R_S_yt-2cwARrUMj40_67.mp4	0.0	223.14575600624084	0.09990692138671875
37	98.7491500377655	fix_pre	0		1.0	35.0	2.5	blank	1.0	223.24566292762756	0.010394096374511719
37	98.7507381439209	response	0	2		35.0	2.5	blank	1.0	223.24725103378296	
37	98.75954413414001	movie	1		301.0	35.0	2.5	blank	1.0	223.25605702400208	2.50636887550354
37	101.09097003936768	response	1	2		35.0	2.5	blank	1.0	225.58748292922974	
37	101.26591300964355	fix_post	2		12.0	35.0	2.5	blank	1.0	225.76242589950562	0.09998011589050293
38	101.36589312553406	fix_pre	0		18.0	36.0	2.5	/experiments/knapen_aot/videos/S_comp_H012_C009_PS_v01_SDR_PS_20180925_SDR_2K_AVC.mp4	0.0	225.86240601539612	0.1504230499267578
38	101.50774002075195	response	0	2		36.0	2.5	/experiments/knapen_aot/videos/S_comp_H012_C009_PS_v01_SDR_PS_20180925_SDR_2K_AVC.mp4	0.0	226.004252910614	
38	101.51631617546082	movie	1		161.0	36.0	2.5	/experiments/knapen_aot/videos/S_comp_H012_C009_PS_v01_SDR_PS_20180925_SDR_2K_AVC.mp4	0.0	226.01282906532288	2.5079128742218018
38	104.02422904968262	fix_post	2		12.0	36.0	2.5	/experiments/knapen_aot/videos/S_comp_H012_C009_PS_v01_SDR_PS_20180925_SDR_2K_AVC.mp4	0.0	228.52074193954468	0.1002199649810791
38	104.10003113746643	response	2	2		36.0	2.5	/experiments/knapen_aot/videos/S_comp_H012_C009_PS_v01_SDR_PS_20180925_SDR_2K_AVC.mp4	0.0	228.5965440273285	
39	104.1244490146637	fix_pre	0		43.0	37.0	2.5	/experiments/knapen_aot/videos/R_S_wc-1MzpHfRq1MUK_32.mp4	0.0	228.62096190452576	0.3580629825592041
39	104.47427415847778	response	0	2		37.0	2.5	/experiments/knapen_aot/videos/R_S_wc-1MzpHfRq1MUK_32.mp4	0.0	228.97078704833984	
39	104.4825119972229	movie	1		301.0	37.0	2.5	/experiments/knapen_aot/videos/R_S_wc-1MzpHfRq1MUK_32.mp4	0.0	228.97902488708496	2.5085551738739014
39	106.9910671710968	fix_post	2		12.0	37.0	2.5	/experiments/knapen_aot/videos/R_S_wc-1MzpHfRq1MUK_32.mp4	0.0	231.48758006095886	0.09978699684143066
40	107.09085416793823	fix_pre	0		3.0	38.0	2.5	/experiments/knapen_aot/videos/R_S_yt-w5lh_rKyKtE_21.mp4	0.0	231.5873670578003	0.025104999542236328
40	107.10780096054077	response	0	2		38.0	2.5	/experiments/knapen_aot/videos/R_S_yt-w5lh_rKyKtE_21.mp4	0.0	231.60431385040283	
40	107.11595916748047	movie	1		300.0	38.0	2.5	/experiments/knapen_aot/videos/R_S_yt-w5lh_rKyKtE_21.mp4	0.0	231.61247205734253	2.5081679821014404
40	109.62412714958191	fix_post	2		12.0	38.0	2.5	/experiments/knapen_aot/videos/R_S_yt-w5lh_rKyKtE_21.mp4	0.0	234.12064003944397	0.10053801536560059
41	109.72466516494751	fix_pre	0		9.0	39.0	2.5	/experiments/knapen_aot/videos/R_S_yt-w_e3sxIzepA_27.mp4	0.0	234.22117805480957	0.07445383071899414
41	109.79097008705139	response	0	2		39.0	2.5	/experiments/knapen_aot/videos/R_S_yt-w_e3sxIzepA_27.mp4	0.0	234.28748297691345	
41	109.7991189956665	movie	1		297.0	39.0	2.5	/experiments/knapen_aot/videos/R_S_yt-w_e3sxIzepA_27.mp4	0.0	234.29563188552856	2.508341073989868
41	112.30746006965637	fix_post	2		12.0	39.0	2.5	/experiments/knapen_aot/videos/R_S_yt-w_e3sxIzepA_27.mp4	0.0	236.80397295951843	0.10000801086425781
42	112.40746808052063	fix_pre	0		5.0	40.0	2.5	blank	1.0	236.9039809703827	0.04169607162475586
42	112.44119596481323	response	0	2		40.0	2.5	blank	1.0	236.9377088546753	
42	112.44916415214539	movie	1		301.0	40.0	2.5	blank	1.0	236.94567704200745	2.5082719326019287
42	114.95743608474731	fix_post	2		12.0	40.0	2.5	blank	1.0	239.45394897460938	0.10000896453857422
43	115.05744504928589	fix_pre	0		20.0	41.0	2.5	/experiments/knapen_aot/videos/S_pexels-anthony-shkraba-production-8135459.mp4	0.0	239.55395793914795	0.16712498664855957
43	115.21598100662231	response	0	2		41.0	2.5	/experiments/knapen_aot/videos/S_pexels-anthony-shkraba-production-8135459.mp4	0.0	239.71249389648438	
43	115.22457003593445	movie	1		165.0	41.0	2.5	/experiments/knapen_aot/videos/S_pexels-anthony-shkraba-production-8135459.mp4	0.0	239.7210829257965	2.507904052734375
43	117.69094395637512	response	1	2		41.0	2.5	/experiments/knapen_aot/videos/S_pexels-anthony-shkraba-production-8135459.mp4	0.0	242.18745684623718	
43	117.73247408866882	fix_post	2		12.0	41.0	2.5	/experiments/knapen_aot/videos/S_pexels-anthony-shkraba-production-8135459.mp4	0.0	242.22898697853088	0.09993886947631836
44	117.83241295814514	fix_pre	0		26.0	42.0	2.5	/experiments/knapen_aot/videos/R_S_yt-HwEfWfFJhRo_73.mp4	0.0	242.3289258480072	0.21667814254760742
44	118.04086804389954	response	0	2		42.0	2.5	/experiments/knapen_aot/videos/R_S_yt-HwEfWfFJhRo_73.mp4	0.0	242.5373809337616	
44	118.04909110069275	movie	1		301.0	42.0	2.5	/experiments/knapen_aot/videos/R_S_yt-HwEfWfFJhRo_73.mp4	0.0	242.5456039905548	2.5083398818969727
44	120.55743098258972	fix_post	2		12.0	42.0	2.5	/experiments/knapen_aot/videos/R_S_yt-HwEfWfFJhRo_73.mp4	0.0	245.05394387245178	0.10003805160522461
45	120.65746903419495	fix_pre	0		7.0	43.0	2.5	/experiments/knapen_aot/videos/R_S_yt-BCFGCganiuE_8.mp4	0.0	245.153981924057	0.05830502510070801
45	120.7076780796051	response	0	2		43.0	2.5	/experiments/knapen_aot/videos/R_S_yt-BCFGCganiuE_8.mp4	0.0	245.20419096946716	
45	120.71577405929565	movie	1		301.0	43.0	2.5	/experiments/knapen_aot/videos/R_S_yt-BCFGCganiuE_8.mp4	0.0	245.21228694915771	2.5083909034729004
45	123.22416496276855	fix_post	2		12.0	43.0	2.5	/experiments/knapen_aot/videos/R_S_yt-BCFGCganiuE_8.mp4	0.0	247.72067785263062	0.09994220733642578
46	123.32410717010498	fix_pre	0		4.0	44.0	2.5	/experiments/knapen_aot/videos/S_pexels-pavel-danilyuk-8057714.mp4	0.0	247.82062005996704	0.03336691856384277
46	123.34921407699585	response	0	2		44.0	2.5	/experiments/knapen_aot/videos/S_pexels-pavel-danilyuk-8057714.mp4	0.0	247.8457269668579	
46	123.35747408866882	movie	1		166.0	44.0	2.5	/experiments/knapen_aot/videos/S_pexels-pavel-danilyuk-8057714.mp4	0.0	247.85398697853088	2.5083580017089844
46	125.81585097312927	response	1	2		44.0	2.5	/experiments/knapen_aot/videos/S_pexels-pavel-danilyuk-8057714.mp4	0.0	250.31236386299133	
46	125.86583209037781	fix_post	2		11.0	44.0	2.5	/experiments/knapen_aot/videos/S_pexels-pavel-danilyuk-8057714.mp4	0.0	250.36234498023987	0.09994387626647949
47	125.96577596664429	fix_pre	0		35.0	45.0	2.5	/experiments/knapen_aot/videos/S_yt-9t5-3Qe_t9A_591.mp4	0.0	250.46228885650635	0.2915940284729004
47	126.24922895431519	response	0	2		45.0	2.5	/experiments/knapen_aot/videos/S_yt-9t5-3Qe_t9A_591.mp4	0.0	250.74574184417725	
47	126.25736999511719	movie	1		301.0	45.0	2.5	/experiments/knapen_aot/videos/S_yt-9t5-3Qe_t9A_591.mp4	0.0	250.75388288497925	2.5083560943603516
47	128.76572608947754	fix_post	2		12.0	45.0	2.5	/experiments/knapen_aot/videos/S_yt-9t5-3Qe_t9A_591.mp4	0.0	253.2622389793396	0.09996700286865234
47	128.8158700466156	response	2	2		45.0	2.5	/experiments/knapen_aot/videos/S_yt-9t5-3Qe_t9A_591.mp4	0.0	253.31238293647766	
48	128.8656930923462	fix_pre	0		33.0	46.0	2.5	/experiments/knapen_aot/videos/R_S_yt-J_FnFAl1uL0_143.mp4	0.0	253.36220598220825	0.2754039764404297
48	129.13246417045593	response	0	2		46.0	2.5	/experiments/knapen_aot/videos/R_S_yt-J_FnFAl1uL0_143.mp4	0.0	253.628977060318	
48	129.14109706878662	movie	1		301.0	46.0	2.5	/experiments/knapen_aot/videos/R_S_yt-J_FnFAl1uL0_143.mp4	0.0	253.63760995864868	2.507962942123413
48	131.64906001091003	fix_post	2		12.0	46.0	2.5	/experiments/knapen_aot/videos/R_S_yt-J_FnFAl1uL0_143.mp4	0.0	256.1455729007721	0.10007810592651367
49	131.74913811683655	fix_pre	0		8.0	47.0	2.5	/experiments/knapen_aot/videos/S_pexels-cottonbro-6788024.mp4	0.0	256.2456510066986	0.0665738582611084
49	131.80750107765198	response	0	2		47.0	2.5	/experiments/knapen_aot/videos/S_pexels-cottonbro-6788024.mp4	0.0	256.30401396751404	
49	131.81571197509766	movie	1		198.0	47.0	2.5	/experiments/knapen_aot/videos/S_pexels-cottonbro-6788024.mp4	0.0	256.3122248649597	2.508329153060913
49	134.32404112815857	fix_post	2		12.0	47.0	2.5	/experiments/knapen_aot/videos/S_pexels-cottonbro-6788024.mp4	0.0	258.82055401802063	0.10002493858337402
49	134.39920210838318	response	2	2		47.0	2.5	/experiments/knapen_aot/videos/S_pexels-cottonbro-6788024.mp4	0.0	258.89571499824524	
50	134.42406606674194	fix_pre	0		40.0	48.0	2.5	/experiments/knapen_aot/videos/S_yt-PvWkOmfZuSY_4.mp4	0.0	258.920578956604	0.3332479000091553
50	134.7416319847107	response	0	2		48.0	2.5	/experiments/knapen_aot/videos/S_yt-PvWkOmfZuSY_4.mp4	0.0	259.23814487457275	
50	134.7573139667511	movie	1		300.0	48.0	2.5	/experiments/knapen_aot/videos/S_yt-PvWkOmfZuSY_4.mp4	0.0	259.25382685661316	2.508369207382202
50	137.2656831741333	fix_post	2		12.0	48.0	2.5	/experiments/knapen_aot/videos/S_yt-PvWkOmfZuSY_4.mp4	0.0	261.76219606399536	0.10001993179321289
51	137.3657031059265	fix_pre	0		10.0	49.0	2.5	blank	1.0	261.8622159957886	0.08335590362548828
51	137.43338298797607	response	0	2		49.0	2.5	blank	1.0	261.92989587783813	
51	137.449059009552	movie	1		301.0	49.0	2.5	blank	1.0	261.94557189941406	2.5083041191101074
51	139.9573631286621	fix_post	2		12.0	49.0	2.5	blank	1.0	264.45387601852417	0.10032391548156738
52	140.05768704414368	fix_pre	0		14.0	50.0	2.5	/experiments/knapen_aot/videos/R_S_yt-BCFGCganiuE_8.mp4	0.0	264.55419993400574	0.11631894111633301
52	140.16581201553345	response	0	2		50.0	2.5	/experiments/knapen_aot/videos/R_S_yt-BCFGCganiuE_8.mp4	0.0	264.6623249053955	
52	140.17400598526	movie	1		301.0	50.0	2.5	/experiments/knapen_aot/videos/R_S_yt-BCFGCganiuE_8.mp4	0.0	264.67051887512207	2.5083670616149902
52	142.682373046875	fix_post	2		12.0	50.0	2.5	/experiments/knapen_aot/videos/R_S_yt-BCFGCganiuE_8.mp4	0.0	267.17888593673706	0.09994792938232422
52	142.77414917945862	response	2	2		50.0	2.5	/experiments/knapen_aot/videos/R_S_yt-BCFGCganiuE_8.mp4	0.0	267.2706620693207	
53	142.78232097625732	fix_pre	0		37.0	51.0	2.5	/experiments/knapen_aot/videos/R_S_yt-Jo6PxivsTOg_247.mp4	0.0	267.2788338661194	0.30843114852905273
53	143.0825309753418	response	0	2		51.0	2.5	/experiments/knapen_aot/videos/R_S_yt-Jo6PxivsTOg_247.mp4	0.0	267.57904386520386	
53	143.09075212478638	movie	1		301.0	51.0	2.5	/experiments/knapen_aot/videos/R_S_yt-Jo6PxivsTOg_247.mp4	0.0	267.58726501464844	2.5082528591156006
53	145.59900498390198	fix_post	2		12.0	51.0	2.5	/experiments/knapen_aot/videos/R_S_yt-Jo6PxivsTOg_247.mp4	0.0	270.09551787376404	0.10001802444458008
54	145.69902300834656	fix_pre	0		11.0	52.0	2.5	/experiments/knapen_aot/videos/S_pexels-mart-production-7698693.mp4	0.0	270.1955358982086	0.09164905548095703
54	145.78253817558289	response	0	2		52.0	2.5	/experiments/knapen_aot/videos/S_pexels-mart-production-7698693.mp4	0.0	270.27905106544495	
54	145.79067206382751	movie	1		196.0	52.0	2.5	/experiments/knapen_aot/videos/S_pexels-mart-production-7698693.mp4	0.0	270.2871849536896	2.5082690715789795
54	148.2989411354065	fix_post	2		12.0	52.0	2.5	/experiments/knapen_aot/videos/S_pexels-mart-production-7698693.mp4	0.0	272.79545402526855	0.10007381439208984
55	148.39901494979858	fix_pre	0		9.0	53.0	2.5	/experiments/knapen_aot/videos/S_yt-kA0ybjmoiMc_284.mp4	0.0	272.89552783966064	0.07525110244750977
55	148.4658341407776	response	0	2		53.0	2.5	/experiments/knapen_aot/videos/S_yt-kA0ybjmoiMc_284.mp4	0.0	272.96234703063965	
55	148.4742660522461	movie	1		301.0	53.0	2.5	/experiments/knapen_aot/videos/S_yt-kA0ybjmoiMc_284.mp4	0.0	272.97077894210815	2.5080370903015137
55	150.9823031425476	fix_post	2		12.0	53.0	2.5	/experiments/knapen_aot/videos/S_yt-kA0ybjmoiMc_284.mp4	0.0	275.47881603240967	0.10004591941833496
56	151.08234906196594	fix_pre	0		5.0	54.0	2.5	/experiments/knapen_aot/videos/R_S_ILSVRC2015_train_00292006.mp4	0.0	275.578861951828	0.04161500930786133
56	151.11578607559204	response	0	2		54.0	2.5	/experiments/knapen_aot/videos/R_S_ILSVRC2015_train_00292006.mp4	0.0	275.6122989654541	
56	151.1239640712738	movie	1		301.0	54.0	2.5	/experiments/knapen_aot/videos/R_S_ILSVRC2015_train_00292006.mp4	0.0	275.62047696113586	2.508234977722168
56	153.63219904899597	fix_post	2		12.0	54.0	2.5	/experiments/knapen_aot/videos/R_S_ILSVRC2015_train_00292006.mp4	0.0	278.12871193885803	0.10011696815490723
56	153.70741605758667	response	2	2		54.0	2.5	/experiments/knapen_aot/videos/R_S_ILSVRC2015_train_00292006.mp4	0.0	278.20392894744873	
57	153.73231601715088	fix_pre	0		40.0	55.0	2.5	blank	1.0	278.22882890701294	0.33330297470092773
57	154.05738997459412	response	0	2		55.0	2.5	blank	1.0	278.5539028644562	
57	154.0656189918518	movie	1		301.0	55.0	2.5	blank	1.0	278.56213188171387	2.5083491802215576
57	156.57396817207336	fix_post	2		12.0	55.0	2.5	blank	1.0	281.0704810619354	0.10001277923583984
58	156.6739809513092	fix_pre	0		24.0	56.0	2.5	/experiments/knapen_aot/videos/S_yt-IyxCMODHSSE_29.mp4	0.0	281.17049384117126	0.19990205764770508
58	156.865718126297	response	0	2		56.0	2.5	/experiments/knapen_aot/videos/S_yt-IyxCMODHSSE_29.mp4	0.0	281.36223101615906	
58	156.8738830089569	movie	1		300.0	56.0	2.5	/experiments/knapen_aot/videos/S_yt-IyxCMODHSSE_29.mp4	0.0	281.37039589881897	2.50838303565979
58	159.3822660446167	fix_post	2		12.0	56.0	2.5	/experiments/knapen_aot/videos/S_yt-IyxCMODHSSE_29.mp4	0.0	283.87877893447876	0.10007500648498535
59	159.48234105110168	fix_pre	0		6.0	57.0	2.5	/experiments/knapen_aot/videos/S_yt-oPq1uvbw-lQ_62.mp4	0.0	283.97885394096375	0.04991292953491211
59	159.52417612075806	response	0	2		57.0	2.5	/experiments/knapen_aot/videos/S_yt-oPq1uvbw-lQ_62.mp4	0.0	284.0206890106201	
59	159.5322539806366	movie	1		301.0	57.0	2.5	/experiments/knapen_aot/videos/S_yt-oPq1uvbw-lQ_62.mp4	0.0	284.02876687049866	2.508303165435791
59	162.0405571460724	fix_post	2		12.0	57.0	2.5	/experiments/knapen_aot/videos/S_yt-oPq1uvbw-lQ_62.mp4	0.0	286.53707003593445	0.10026192665100098
60	162.1408190727234	fix_pre	0		18.0	58.0	2.5	/experiments/knapen_aot/videos/R_S_yt-kiEFK7bDssE_14.mp4	0.0	286.63733196258545	0.14978599548339844
60	162.28239917755127	response	0	2		58.0	2.5	/experiments/knapen_aot/videos/R_S_yt-kiEFK7bDssE_14.mp4	0.0	286.77891206741333	
60	162.2906050682068	movie	1		301.0	58.0	2.5	/experiments/knapen_aot/videos/R_S_yt-kiEFK7bDssE_14.mp4	0.0	286.78711795806885	2.5083329677581787
60	164.79893803596497	fix_post	2		12.0	58.0	2.5	/experiments/knapen_aot/videos/R_S_yt-kiEFK7bDssE_14.mp4	0.0	289.295450925827	0.1000070571899414
61	164.8989450931549	fix_pre	0		6.0	59.0	2.5	/experiments/knapen_aot/videos/S_yt-Ojy5TMPX8_Q_165.mp4	0.0	289.39545798301697	0.04992794990539551
61	164.93311214447021	response	0	2		59.0	2.5	/experiments/knapen_aot/videos/S_yt-Ojy5TMPX8_Q_165.mp4	0.0	289.4296250343323	
61	164.9488730430603	movie	1		301.0	59.0	2.5	/experiments/knapen_aot/videos/S_yt-Ojy5TMPX8_Q_165.mp4	0.0	289.44538593292236	2.5084540843963623
61	167.45732712745667	fix_post	2		12.0	59.0	2.5	/experiments/knapen_aot/videos/S_yt-Ojy5TMPX8_Q_165.mp4	0.0	291.9538400173187	0.1000828742980957
62	167.55741000175476	fix_pre	0		12.0	60.0	2.5	/experiments/knapen_aot/videos/R_S_yt-CXn1PGH67_s_20.mp4	0.0	292.0539228916168	0.09982013702392578
62	167.64172410964966	response	0	2		60.0	2.5	/experiments/knapen_aot/videos/R_S_yt-CXn1PGH67_s_20.mp4	0.0	292.1382369995117	
62	167.6572301387787	movie	1		301.0	60.0	2.5	/experiments/knapen_aot/videos/R_S_yt-CXn1PGH67_s_20.mp4	0.0	292.15374302864075	2.5083389282226562
62	170.16556906700134	fix_post	2		12.0	60.0	2.5	/experiments/knapen_aot/videos/R_S_yt-CXn1PGH67_s_20.mp4	0.0	294.6620819568634	0.10013604164123535
63	170.26570510864258	fix_pre	0		4.0	61.0	2.5	blank	1.0	294.76221799850464	0.033197879791259766
63	170.2906949520111	response	0	2		61.0	2.5	blank	1.0	294.78720784187317	
63	170.29890298843384	movie	1		301.0	61.0	2.5	blank	1.0	294.7954158782959	2.5084760189056396
63	172.80737900733948	fix_post	2		12.0	61.0	2.5	blank	1.0	297.30389189720154	0.09985208511352539
64	172.907231092453	fix_pre	0		22.0	62.0	2.5	/experiments/knapen_aot/videos/R_S_yt-kA0ybjmoiMc_284.mp4	0.0	297.40374398231506	0.18331694602966309
64	173.08226704597473	response	0	2		62.0	2.5	/experiments/knapen_aot/videos/R_S_yt-kA0ybjmoiMc_284.mp4	0.0	297.5787799358368	
64	173.09054803848267	movie	1		301.0	62.0	2.5	/experiments/knapen_aot/videos/R_S_yt-kA0ybjmoiMc_284.mp4	0.0	297.5870609283447	2.508476972579956
64	175.3157720565796	response	1	2		62.0	2.5	/experiments/knapen_aot/videos/R_S_yt-kA0ybjmoiMc_284.mp4	0.0	299.81228494644165	
64	175.59902501106262	fix_post	2		12.0	62.0	2.5	/experiments/knapen_aot/videos/R_S_yt-kA0ybjmoiMc_284.mp4	0.0	300.0955379009247	0.09988212585449219
64	175.66592597961426	response	2	2		62.0	2.5	/experiments/knapen_aot/videos/R_S_yt-kA0ybjmoiMc_284.mp4	0.0	300.1624388694763	
65	175.69890713691711	fix_pre	0		44.0	63.0	2.5	/experiments/knapen_aot/videos/R_S_pexels-mart-production-8435081.mp4	0.0	300.1954200267792	0.36666202545166016
65	176.05735611915588	response	0	2		63.0	2.5	/experiments/knapen_aot/videos/R_S_pexels-mart-production-8435081.mp4	0.0	300.55386900901794	
65	176.06556916236877	movie	1		195.0	63.0	2.5	/experiments/knapen_aot/videos/R_S_pexels-mart-production-8435081.mp4	0.0	300.56208205223083	2.499936819076538
65	178.55745100975037	response	1	2		63.0	2.5	/experiments/knapen_aot/videos/R_S_pexels-mart-production-8435081.mp4	0.0	303.0539638996124	
65	178.5655059814453	fix_post	2		13.0	63.0	2.5	/experiments/knapen_aot/videos/R_S_pexels-mart-production-8435081.mp4	0.0	303.0620188713074	0.10827803611755371
66	178.67378401756287	fix_pre	0		26.0	64.0	2.5	/experiments/knapen_aot/videos/S_pexels-kelly-lacy-6756531.mp4	0.0	303.1702969074249	0.21684813499450684
66	178.8822910785675	response	0	2		64.0	2.5	/experiments/knapen_aot/videos/S_pexels-kelly-lacy-6756531.mp4	0.0	303.37880396842957	
66	178.89063215255737	movie	1		168.0	64.0	2.5	/experiments/knapen_aot/videos/S_pexels-kelly-lacy-6756531.mp4	0.0	303.38714504241943	2.508219003677368
66	181.39885115623474	fix_post	2		12.0	64.0	2.5	/experiments/knapen_aot/videos/S_pexels-kelly-lacy-6756531.mp4	0.0	305.8953640460968	0.09994387626647949
66	181.47400307655334	response	2	2		64.0	2.5	/experiments/knapen_aot/videos/S_pexels-kelly-lacy-6756531.mp4	0.0	305.9705159664154	
67	181.49879503250122	fix_pre	0		35.0	65.0	2.5	/experiments/knapen_aot/videos/S_yt-w5lh_rKyKtE_21.mp4	0.0	305.9953079223633	0.2916591167449951
67	181.78232502937317	response	0	2		65.0	2.5	/experiments/knapen_aot/videos/S_yt-w5lh_rKyKtE_21.mp4	0.0	306.27883791923523	
67	181.79045414924622	movie	1		301.0	65.0	2.5	/experiments/knapen_aot/videos/S_yt-w5lh_rKyKtE_21.mp4	0.0	306.2869670391083	2.50833797454834
67	184.29879212379456	fix_post	2		12.0	65.0	2.5	/experiments/knapen_aot/videos/S_yt-w5lh_rKyKtE_21.mp4	0.0	308.7953050136566	0.10002803802490234
68	184.39882016181946	fix_pre	0		7.0	66.0	2.5	/experiments/knapen_aot/videos/S_yt-kYMffy4hTMo_107.mp4	0.0	308.8953330516815	0.05833101272583008
68	184.4490029811859	response	0	2		66.0	2.5	/experiments/knapen_aot/videos/S_yt-kYMffy4hTMo_107.mp4	0.0	308.945515871048	
68	184.4571511745453	movie	1		301.0	66.0	2.5	/experiments/knapen_aot/videos/S_yt-kYMffy4hTMo_107.mp4	0.0	308.95366406440735	2.508323907852173
68	186.96547508239746	fix_post	2		12.0	66.0	2.5	/experiments/knapen_aot/videos/S_yt-kYMffy4hTMo_107.mp4	0.0	311.4619879722595	0.09997797012329102
69	187.06545305252075	fix_pre	0		8.0	67.0	2.5	/experiments/knapen_aot/videos/R_S_xq822dX6DDM_1.mp4	0.0	311.5619659423828	0.06816291809082031
69	187.1270101070404	response	0	2		67.0	2.5	/experiments/knapen_aot/videos/R_S_xq822dX6DDM_1.mp4	0.0	311.62352299690247	
69	187.13361597061157	movie	1		301.0	67.0	2.5	/experiments/knapen_aot/videos/R_S_xq822dX6DDM_1.mp4	0.0	311.63012886047363	2.506923198699951
69	189.64053916931152	fix_post	2		12.0	67.0	2.5	/experiments/knapen_aot/videos/R_S_xq822dX6DDM_1.mp4	0.0	314.1370520591736	0.09991192817687988
70	189.7404510974884	fix_pre	0		18.0	68.0	2.5	/experiments/knapen_aot/videos/R_S_yt-4Qz0m5IYh10_167.mp4	0.0	314.23696398735046	0.1500530242919922
70	189.88225317001343	response	0	2		68.0	2.5	/experiments/knapen_aot/videos/R_S_yt-4Qz0m5IYh10_167.mp4	0.0	314.3787660598755	
70	189.8905041217804	movie	1		299.0	68.0	2.5	/experiments/knapen_aot/videos/R_S_yt-4Qz0m5IYh10_167.mp4	0.0	314.38701701164246	2.508333921432495
70	192.3988380432129	fix_post	2		12.0	68.0	2.5	/experiments/knapen_aot/videos/R_S_yt-4Qz0m5IYh10_167.mp4	0.0	316.89535093307495	0.10003209114074707
71	192.49887013435364	fix_pre	0		7.0	69.0	2.5	blank	1.0	316.9953830242157	0.05907702445983887
71	192.54903602600098	response	0	2		69.0	2.5	blank	1.0	317.04554891586304	
71	192.55794715881348	movie	1		301.0	69.0	2.5	blank	1.0	317.05446004867554	2.507556915283203
71	195.06550407409668	fix_post	2		12.0	69.0	2.5	blank	1.0	319.56201696395874	0.09996700286865234
72	195.16547107696533	fix_pre	0		19.0	70.0	2.5	/experiments/knapen_aot/videos/R_S_yt-AbJBxqEYoMg_105.mp4	0.0	319.6619839668274	0.15832805633544922
72	195.3155641555786	response	0	2		70.0	2.5	/experiments/knapen_aot/videos/R_S_yt-AbJBxqEYoMg_105.mp4	0.0	319.8120770454407	
72	195.32379913330078	movie	1		301.0	70.0	2.5	/experiments/knapen_aot/videos/R_S_yt-AbJBxqEYoMg_105.mp4	0.0	319.82031202316284	2.50832200050354
72	197.83212113380432	fix_post	2		12.0	70.0	2.5	/experiments/knapen_aot/videos/R_S_yt-AbJBxqEYoMg_105.mp4	0.0	322.3286340236664	0.09999990463256836
73	197.9321210384369	fix_pre	0		14.0	71.0	2.5	/experiments/knapen_aot/videos/R_S_yt-nn-8LZcafGs_35.mp4	0.0	322.42863392829895	0.11660599708557129
73	198.03306913375854	response	0	2		71.0	2.5	/experiments/knapen_aot/videos/R_S_yt-nn-8LZcafGs_35.mp4	0.0	322.5295820236206	
73	198.04872703552246	movie	1		301.0	71.0	2.5	/experiments/knapen_aot/videos/R_S_yt-nn-8LZcafGs_35.mp4	0.0	322.5452399253845	2.5083699226379395
73	200.5570969581604	fix_post	2		12.0	71.0	2.5	/experiments/knapen_aot/videos/R_S_yt-nn-8LZcafGs_35.mp4	0.0	325.05360984802246	0.09998512268066406
74	200.65708208084106	fix_pre	0		22.0	72.0	2.5	/experiments/knapen_aot/videos/S_yt-Xegmd8whqBs_230.mp4	0.0	325.1535949707031	0.184783935546875
74	200.83222794532776	response	0	2		72.0	2.5	/experiments/knapen_aot/videos/S_yt-Xegmd8whqBs_230.mp4	0.0	325.3287408351898	
74	200.84186601638794	movie	1		301.0	72.0	2.5	/experiments/knapen_aot/videos/S_yt-Xegmd8whqBs_230.mp4	0.0	325.33837890625	2.5069429874420166
74	203.34880900382996	fix_post	2		12.0	72.0	2.5	/experiments/knapen_aot/videos/S_yt-Xegmd8whqBs_230.mp4	0.0	327.845321893692	0.09999799728393555
75	203.4488070011139	fix_pre	0		7.0	73.0	2.5	/experiments/knapen_aot/videos/S_video-5.mp4	0.0	327.94531989097595	0.05831599235534668
75	203.49894499778748	response	0	2		73.0	2.5	/experiments/knapen_aot/videos/S_video-5.mp4	0.0	327.99545788764954	
75	203.50712299346924	movie	1		169.0	73.0	2.5	/experiments/knapen_aot/videos/S_video-5.mp4	0.0	328.0036358833313	2.508336067199707
75	206.01545906066895	fix_post	2		12.0	73.0	2.5	/experiments/knapen_aot/videos/S_video-5.mp4	0.0	330.511971950531	0.09998393058776855
76	206.1154429912567	fix_pre	0		24.0	74.0	2.5	/experiments/knapen_aot/videos/S_production_ID_3761571.mp4	0.0	330.6119558811188	0.20000600814819336
76	206.30728006362915	response	0	2		74.0	2.5	/experiments/knapen_aot/videos/S_production_ID_3761571.mp4	0.0	330.8037929534912	
76	206.3154489994049	movie	1		164.0	74.0	2.5	/experiments/knapen_aot/videos/S_production_ID_3761571.mp4	0.0	330.81196188926697	2.5083470344543457
76	208.82379603385925	fix_post	2		12.0	74.0	2.5	/experiments/knapen_aot/videos/S_production_ID_3761571.mp4	0.0	333.3203089237213	0.09997391700744629
77	208.9237699508667	fix_pre	0		26.0	75.0	2.5	/experiments/knapen_aot/videos/R_S_yt-kA0ybjmoiMc_284.mp4	0.0	333.42028284072876	0.216630220413208
77	209.12461400032043	response	0	2		75.0	2.5	/experiments/knapen_aot/videos/R_S_yt-kA0ybjmoiMc_284.mp4	0.0	333.6211268901825	
77	209.1404001712799	movie	1		301.0	75.0	2.5	/experiments/knapen_aot/videos/R_S_yt-kA0ybjmoiMc_284.mp4	0.0	333.63691306114197	2.5083608627319336
77	211.64876103401184	fix_post	2		12.0	75.0	2.5	/experiments/knapen_aot/videos/R_S_yt-kA0ybjmoiMc_284.mp4	0.0	336.1452739238739	0.10003209114074707
78	211.7487931251526	fix_pre	0		6.0	76.0	2.5	blank	1.0	336.24530601501465	0.05166888236999512
78	211.7837691307068	response	0	2		76.0	2.5	blank	1.0	336.28028202056885	
78	211.80046200752258	movie	1		301.0	76.0	2.5	blank	1.0	336.29697489738464	2.5066020488739014
78	214.30706405639648	fix_post	2		12.0	76.0	2.5	blank	1.0	338.80357694625854	0.09999704360961914
79	214.4070611000061	fix_pre	0		32.0	77.0	2.5	/experiments/knapen_aot/videos/R_S_yt-n1snPiGfg0A_45.mp4	0.0	338.90357398986816	0.26662707328796387
79	214.66553211212158	response	0	2		77.0	2.5	/experiments/knapen_aot/videos/R_S_yt-n1snPiGfg0A_45.mp4	0.0	339.16204500198364	
79	214.67368817329407	movie	1		301.0	77.0	2.5	/experiments/knapen_aot/videos/R_S_yt-n1snPiGfg0A_45.mp4	0.0	339.1702010631561	2.5083818435668945
79	217.18207001686096	fix_post	2		12.0	77.0	2.5	/experiments/knapen_aot/videos/R_S_yt-n1snPiGfg0A_45.mp4	0.0	341.678582906723	0.10001802444458008
80	217.28208804130554	fix_pre	0		10.0	78.0	2.5	/experiments/knapen_aot/videos/R_S_comp_H007_C003_PS_v01_SDR_PS_20180925_SDR_2K_AVC.mp4	0.0	341.7786009311676	0.08330893516540527
80	217.34969806671143	response	0	2		78.0	2.5	/experiments/knapen_aot/videos/R_S_comp_H007_C003_PS_v01_SDR_PS_20180925_SDR_2K_AVC.mp4	0.0	341.8462109565735	
80	217.36539697647095	movie	1		171.0	78.0	2.5	/experiments/knapen_aot/videos/R_S_comp_H007_C003_PS_v01_SDR_PS_20180925_SDR_2K_AVC.mp4	0.0	341.861909866333	2.5082790851593018
80	219.87367606163025	fix_post	2		12.0	78.0	2.5	/experiments/knapen_aot/videos/R_S_comp_H007_C003_PS_v01_SDR_PS_20180925_SDR_2K_AVC.mp4	0.0	344.3701889514923	0.09998798370361328
80	219.87616205215454	response	2	2		78.0	2.5	/experiments/knapen_aot/videos/R_S_comp_H007_C003_PS_v01_SDR_PS_20180925_SDR_2K_AVC.mp4	0.0	344.3726749420166	
81	219.97366404533386	fix_pre	0		25.0	79.0	2.5	/experiments/knapen_aot/videos/S_yt-ibDaDIEazxg_3.mp4	0.0	344.4701769351959	0.2083430290222168
81	220.17390298843384	response	0	2		79.0	2.5	/experiments/knapen_aot/videos/S_yt-ibDaDIEazxg_3.mp4	0.0	344.6704158782959	
81	220.18200707435608	movie	1		301.0	79.0	2.5	/experiments/knapen_aot/videos/S_yt-ibDaDIEazxg_3.mp4	0.0	344.67851996421814	2.5083229541778564
81	222.69033002853394	fix_post	2		12.0	79.0	2.5	/experiments/knapen_aot/videos/S_yt-ibDaDIEazxg_3.mp4	0.0	347.186842918396	0.10002303123474121
81	222.77378010749817	response	2	2		79.0	2.5	/experiments/knapen_aot/videos/S_yt-ibDaDIEazxg_3.mp4	0.0	347.27029299736023	
82	222.79035305976868	fix_pre	0		29.0	80.0	2.5	/experiments/knapen_aot/videos/S_yt-fA0nOetbOJY_580.mp4	0.0	347.28686594963074	0.24159598350524902
82	223.02373504638672	response	0	2		80.0	2.5	/experiments/knapen_aot/videos/S_yt-fA0nOetbOJY_580.mp4	0.0	347.5202479362488	
82	223.03194904327393	movie	1		299.0	80.0	2.5	/experiments/knapen_aot/videos/S_yt-fA0nOetbOJY_580.mp4	0.0	347.528461933136	2.5084190368652344
82	225.54036808013916	fix_post	2		12.0	80.0	2.5	/experiments/knapen_aot/videos/S_yt-fA0nOetbOJY_580.mp4	0.0	350.0368809700012	0.09995293617248535
83	225.64032101631165	fix_pre	0		6.0	81.0	2.5	/experiments/knapen_aot/videos/R_S_bing-www_yahoo_com_entertainment_anastasia-karanikolaou-chantel-jeffries-discuss-182400502_html_9.mp4	0.0	350.1368339061737	0.04999399185180664
83	225.6821551322937	response	0	2		81.0	2.5	/experiments/knapen_aot/videos/R_S_bing-www_yahoo_com_entertainment_anastasia-karanikolaou-chantel-jeffries-discuss-182400502_html_9.mp4	0.0	350.17866802215576	
83	225.69031500816345	movie	1		166.0	81.0	2.5	/experiments/knapen_aot/videos/R_S_bing-www_yahoo_com_entertainment_anastasia-karanikolaou-chantel-jeffries-discuss-182400502_html_9.mp4	0.0	350.1868278980255	2.508265972137451
83	228.1985809803009	fix_post	2		12.0	81.0	2.5	/experiments/knapen_aot/videos/R_S_bing-www_yahoo_com_entertainment_anastasia-karanikolaou-chantel-jeffries-discuss-182400502_html_9.mp4	0.0	352.69509387016296	0.10013198852539062
84	228.2987129688263	fix_pre	0		3.0	82.0	2.5	blank	1.0	352.79522585868835	0.024918079376220703
84	228.31602096557617	response	0	2		82.0	2.5	blank	1.0	352.81253385543823	
84	228.32363104820251	movie	1		301.0	82.0	2.5	blank	1.0	352.8201439380646	2.508336067199707
84	230.83196711540222	fix_post	2		12.0	82.0	2.5	blank	1.0	355.3284800052643	0.09998083114624023
85	230.93194794654846	fix_pre	0		74.0	83.0	2.5	/experiments/knapen_aot/videos/R_S_S005_C015_SDR_2K_AVC.mp4	0.0	355.4284608364105	0.6179091930389404
85	231.54047107696533	response	0	2		83.0	2.5	/experiments/knapen_aot/videos/R_S_S005_C015_SDR_2K_AVC.mp4	0.0	356.0369839668274	
85	231.5498571395874	movie	1		172.0	83.0	2.5	/experiments/knapen_aot/videos/R_S_S005_C015_SDR_2K_AVC.mp4	0.0	356.04637002944946	2.5070860385894775
85	234.05694317817688	fix_post	2		12.0	83.0	2.5	/experiments/knapen_aot/videos/R_S_S005_C015_SDR_2K_AVC.mp4	0.0	358.55345606803894	0.1000218391418457
87	234.15696501731873	stim	0		277.0					358.6534779071808	2.309544086456299
87	234.37377905845642	response	0	2						358.8702919483185	
87	236.45974111557007	response	0	space						360.95625400543213	
