trial_nr	onset	event_type	phase	response	nr_frames	movie_index	movie_duration	movie_file	blank	onset_abs	duration
0	0.13916707038879395	stim	0		41.0					65.83150291442871	0.3416280746459961
0	0.4730501174926758	response	0	space						66.16538596153259	
1	0.48079514503479004	stim	0		121.0					66.1731309890747	1.0079920291900635
1	1.4887871742248535	stim	1		120.0					67.18112301826477	1.000053882598877
1	1.9140009880065918	response	1	space						67.60633683204651	
1	2.008244037628174	response	1	4						67.70057988166809	
2	2.4888410568237305	fix_pre	0		21.0	0.0	2.5	/experiments/knapen_aot/videos/S_pexels-anthony-shkraba-7569650.mp4	0.0	68.18117690086365	0.17751598358154297
2	2.65986704826355	response	0	space		0.0	2.5	/experiments/knapen_aot/videos/S_pexels-anthony-shkraba-7569650.mp4	0.0	68.35220289230347	
2	2.6663570404052734	movie	1		189.0	0.0	2.5	/experiments/knapen_aot/videos/S_pexels-anthony-shkraba-7569650.mp4	0.0	68.35869288444519	2.5057849884033203
2	5.172142028808594	fix_post	2		12.0	0.0	2.5	/experiments/knapen_aot/videos/S_pexels-anthony-shkraba-7569650.mp4	0.0	70.86447787284851	0.10002303123474121
3	5.272165060043335	fix_pre	0		26.0	1.0	2.5	/experiments/knapen_aot/videos/S_yt-XBAU3cq0rZs_150.mp4	0.0	70.96450090408325	0.2204899787902832
3	5.4831671714782715	response	0	4		1.0	2.5	/experiments/knapen_aot/videos/S_yt-XBAU3cq0rZs_150.mp4	0.0	71.17550301551819	
3	5.492655038833618	movie	1		301.0	1.0	2.5	/experiments/knapen_aot/videos/S_yt-XBAU3cq0rZs_150.mp4	0.0	71.18499088287354	2.5044000148773193
3	7.9970550537109375	fix_post	2		12.0	1.0	2.5	/experiments/knapen_aot/videos/S_yt-XBAU3cq0rZs_150.mp4	0.0	73.68939089775085	0.1000509262084961
4	8.097105979919434	fix_pre	0		38.0	2.0	2.5	/experiments/knapen_aot/videos/S_yt-xNKgc8sFYvU_35.mp4	0.0	73.78944182395935	0.3166031837463379
4	8.405546188354492	response	0	4		2.0	2.5	/experiments/knapen_aot/videos/S_yt-xNKgc8sFYvU_35.mp4	0.0	74.09788203239441	
4	8.413709163665771	movie	1		298.0	2.0	2.5	/experiments/knapen_aot/videos/S_yt-xNKgc8sFYvU_35.mp4	0.0	74.10604500770569	2.5083768367767334
4	10.922086000442505	fix_post	2		12.0	2.0	2.5	/experiments/knapen_aot/videos/S_yt-xNKgc8sFYvU_35.mp4	0.0	76.61442184448242	0.0999610424041748
5	11.02204704284668	fix_pre	0		160.0	3.0	2.5	/experiments/knapen_aot/videos/S_ILSVRC2015_train_00743002.mp4	0.0	76.7143828868866	1.3333630561828613
5	12.3472261428833	response	0	4		3.0	2.5	/experiments/knapen_aot/videos/S_ILSVRC2015_train_00743002.mp4	0.0	78.03956198692322	
5	12.355410099029541	movie	1		301.0	3.0	2.5	/experiments/knapen_aot/videos/S_ILSVRC2015_train_00743002.mp4	0.0	78.04774594306946	2.508312940597534
5	14.863723039627075	fix_post	2		12.0	3.0	2.5	/experiments/knapen_aot/videos/S_ILSVRC2015_train_00743002.mp4	0.0	80.55605888366699	0.1000070571899414
6	14.963730096817017	fix_pre	0		19.0	4.0	2.5	/experiments/knapen_aot/videos/S_yt-nYi_FfCjepk_74.mp4	0.0	80.65606594085693	0.15830588340759277
6	15.11383318901062	response	0	4		4.0	2.5	/experiments/knapen_aot/videos/S_yt-nYi_FfCjepk_74.mp4	0.0	80.80616903305054	
6	15.12203598022461	movie	1		301.0	4.0	2.5	/experiments/knapen_aot/videos/S_yt-nYi_FfCjepk_74.mp4	0.0	80.81437182426453	2.5084221363067627
6	17.630458116531372	fix_post	2		12.0	4.0	2.5	/experiments/knapen_aot/videos/S_yt-nYi_FfCjepk_74.mp4	0.0	83.32279396057129	0.10013985633850098
7	17.730597972869873	fix_pre	0		109.0	5.0	2.5	blank	1.0	83.42293381690979	0.9080770015716553
7	18.62306499481201	response	0	4		5.0	2.5	blank	1.0	84.31540083885193	
7	18.63867497444153	movie	1		301.0	5.0	2.5	blank	1.0	84.33101081848145	2.5084660053253174
7	21.147140979766846	fix_post	2		12.0	5.0	2.5	blank	1.0	86.83947682380676	0.09984302520751953
8	21.246984004974365	fix_pre	0		38.0	6.0	2.5	/experiments/knapen_aot/videos/S_yt-UPgF4YAHBQY_33.mp4	0.0	86.93931984901428	0.3166921138763428
8	21.555503129959106	response	0	4		6.0	2.5	/experiments/knapen_aot/videos/S_yt-UPgF4YAHBQY_33.mp4	0.0	87.24783897399902	
8	21.563676118850708	movie	1		301.0	6.0	2.5	/experiments/knapen_aot/videos/S_yt-UPgF4YAHBQY_33.mp4	0.0	87.25601196289062	2.508415937423706
8	24.072092056274414	fix_post	2		12.0	6.0	2.5	/experiments/knapen_aot/videos/S_yt-UPgF4YAHBQY_33.mp4	0.0	89.76442790031433	0.10094308853149414
9	24.173035144805908	fix_pre	0		24.0	7.0	2.5	/experiments/knapen_aot/videos/R_S_ILSVRC2015_train_00364000.mp4	0.0	89.86537098884583	0.1989588737487793
9	24.36379098892212	response	0	4		7.0	2.5	/experiments/knapen_aot/videos/R_S_ILSVRC2015_train_00364000.mp4	0.0	90.05612683296204	
9	24.371994018554688	movie	1		301.0	7.0	2.5	/experiments/knapen_aot/videos/R_S_ILSVRC2015_train_00364000.mp4	0.0	90.0643298625946	2.5083611011505127
9	26.8803551197052	fix_post	2		12.0	7.0	2.5	/experiments/knapen_aot/videos/R_S_ILSVRC2015_train_00364000.mp4	0.0	92.57269096374512	0.0999138355255127
10	26.980268955230713	fix_pre	0		124.0	8.0	2.5	/experiments/knapen_aot/videos/S_ILSVRC2015_train_00425000.mp4	0.0	92.67260479927063	1.0333812236785889
10	28.00546407699585	response	0	4		8.0	2.5	/experiments/knapen_aot/videos/S_ILSVRC2015_train_00425000.mp4	0.0	93.69779992103577	
10	28.0136501789093	movie	1		301.0	8.0	2.5	/experiments/knapen_aot/videos/S_ILSVRC2015_train_00425000.mp4	0.0	93.70598602294922	2.508358955383301
10	30.522009134292603	fix_post	2		12.0	8.0	2.5	/experiments/knapen_aot/videos/S_ILSVRC2015_train_00425000.mp4	0.0	96.21434497833252	0.09998703002929688
11	30.6219961643219	fix_pre	0		24.0	9.0	2.5	/experiments/knapen_aot/videos/S_ILSVRC2015_train_00292005.mp4	0.0	96.31433200836182	0.1999669075012207
11	30.813799142837524	response	0	4		9.0	2.5	/experiments/knapen_aot/videos/S_ILSVRC2015_train_00292005.mp4	0.0	96.50613498687744	
11	30.82196307182312	movie	1		301.0	9.0	2.5	/experiments/knapen_aot/videos/S_ILSVRC2015_train_00292005.mp4	0.0	96.51429891586304	2.5082719326019287
11	33.33023500442505	fix_post	2		12.0	9.0	2.5	/experiments/knapen_aot/videos/S_ILSVRC2015_train_00292005.mp4	0.0	99.02257084846497	0.10003900527954102
12	33.43027400970459	fix_pre	0		33.0	10.0	2.5	/experiments/knapen_aot/videos/S_yt-hekMMCluhnU_18.mp4	0.0	99.1226098537445	0.2750110626220703
12	33.697124004364014	response	0	4		10.0	2.5	/experiments/knapen_aot/videos/S_yt-hekMMCluhnU_18.mp4	0.0	99.38945984840393	
12	33.70528507232666	movie	1		301.0	10.0	2.5	/experiments/knapen_aot/videos/S_yt-hekMMCluhnU_18.mp4	0.0	99.39762091636658	2.508347988128662
12	36.21363306045532	fix_post	2		12.0	10.0	2.5	/experiments/knapen_aot/videos/S_yt-hekMMCluhnU_18.mp4	0.0	101.90596890449524	0.09997701644897461
13	36.3136100769043	fix_pre	0		165.0	11.0	2.5	/experiments/knapen_aot/videos/S_yt-0d5TkclKWVA_146.mp4	0.0	102.00594592094421	1.3750360012054443
13	37.68040204048157	response	0	4		11.0	2.5	/experiments/knapen_aot/videos/S_yt-0d5TkclKWVA_146.mp4	0.0	103.37273788452148	
13	37.68864607810974	movie	1		301.0	11.0	2.5	/experiments/knapen_aot/videos/S_yt-0d5TkclKWVA_146.mp4	0.0	103.38098192214966	2.5082879066467285
13	40.19693398475647	fix_post	2		12.0	11.0	2.5	/experiments/knapen_aot/videos/S_yt-0d5TkclKWVA_146.mp4	0.0	105.88926982879639	0.1000070571899414
14	40.29694104194641	fix_pre	0		144.0	12.0	2.5	/experiments/knapen_aot/videos/S_yt-2IN85w8ptmM_51.mp4	0.0	105.98927688598633	1.19999098777771
14	41.48871111869812	response	0	4		12.0	2.5	/experiments/knapen_aot/videos/S_yt-2IN85w8ptmM_51.mp4	0.0	107.18104696273804	
14	41.49693202972412	movie	1		301.0	12.0	2.5	/experiments/knapen_aot/videos/S_yt-2IN85w8ptmM_51.mp4	0.0	107.18926787376404	2.5083179473876953
14	44.005249977111816	fix_post	2		12.0	12.0	2.5	/experiments/knapen_aot/videos/S_yt-2IN85w8ptmM_51.mp4	0.0	109.69758582115173	0.09999418258666992
15	44.105244159698486	fix_pre	0		84.0	13.0	2.5	blank	1.0	109.7975800037384	0.7000038623809814
15	44.78953504562378	response	0	4		13.0	2.5	blank	1.0	110.4818708896637	
15	44.80524802207947	movie	1		301.0	13.0	2.5	blank	1.0	110.49758386611938	2.508334159851074
15	47.31358218193054	fix_post	2		12.0	13.0	2.5	blank	1.0	113.00591802597046	0.10013794898986816
16	47.41372013092041	fix_pre	0		75.0	14.0	2.5	/experiments/knapen_aot/videos/R_S_yt-ET5YTz1laWo_108.mp4	0.0	113.10605597496033	0.6248488426208496
16	48.03037214279175	response	0	4		14.0	2.5	/experiments/knapen_aot/videos/R_S_yt-ET5YTz1laWo_108.mp4	0.0	113.72270798683167	
16	48.03856897354126	movie	1		301.0	14.0	2.5	/experiments/knapen_aot/videos/R_S_yt-ET5YTz1laWo_108.mp4	0.0	113.73090481758118	2.508350133895874
16	50.546919107437134	fix_post	2		12.0	14.0	2.5	/experiments/knapen_aot/videos/R_S_yt-ET5YTz1laWo_108.mp4	0.0	116.23925495147705	0.0999898910522461
17	50.64690899848938	fix_pre	0		128.0	15.0	2.5	/experiments/knapen_aot/videos/S_yt-s-J3C6e5A3Q_18.mp4	0.0	116.3392448425293	1.0675530433654785
17	51.70535612106323	response	0	4		15.0	2.5	/experiments/knapen_aot/videos/S_yt-s-J3C6e5A3Q_18.mp4	0.0	117.39769196510315	
17	51.71446204185486	movie	1		301.0	15.0	2.5	/experiments/knapen_aot/videos/S_yt-s-J3C6e5A3Q_18.mp4	0.0	117.40679788589478	2.5074329376220703
17	54.22189497947693	fix_post	2		12.0	15.0	2.5	/experiments/knapen_aot/videos/S_yt-s-J3C6e5A3Q_18.mp4	0.0	119.91423082351685	0.0999460220336914
18	54.32184100151062	fix_pre	0		199.0	16.0	2.5	/experiments/knapen_aot/videos/S_ILSVRC2015_train_00610000.mp4	0.0	120.01417684555054	1.6583170890808105
18	55.97202396392822	response	0	4		16.0	2.5	/experiments/knapen_aot/videos/S_ILSVRC2015_train_00610000.mp4	0.0	121.66435980796814	
18	55.98015809059143	movie	1		300.0	16.0	2.5	/experiments/knapen_aot/videos/S_ILSVRC2015_train_00610000.mp4	0.0	121.67249393463135	2.5083510875701904
18	58.48850917816162	fix_post	2		12.0	16.0	2.5	/experiments/knapen_aot/videos/S_ILSVRC2015_train_00610000.mp4	0.0	124.18084502220154	0.10005497932434082
19	58.58856415748596	fix_pre	0		211.0	17.0	2.5	/experiments/knapen_aot/videos/R_S_production_ID_5146014.mp4	0.0	124.28090000152588	1.7583298683166504
19	60.33866500854492	response	0	4		17.0	2.5	/experiments/knapen_aot/videos/R_S_production_ID_5146014.mp4	0.0	126.03100085258484	
19	60.34689402580261	movie	1		166.0	17.0	2.5	/experiments/knapen_aot/videos/R_S_production_ID_5146014.mp4	0.0	126.03922986984253	2.508273124694824
19	62.85516715049744	fix_post	2		12.0	17.0	2.5	/experiments/knapen_aot/videos/R_S_production_ID_5146014.mp4	0.0	128.54750299453735	0.10001587867736816
20	62.955183029174805	fix_pre	0		53.0	18.0	2.5	/experiments/knapen_aot/videos/R_S_yt-xqHrTtvFFIs_3.mp4	0.0	128.64751887321472	0.44162511825561523
20	63.38867807388306	response	0	4		18.0	2.5	/experiments/knapen_aot/videos/R_S_yt-xqHrTtvFFIs_3.mp4	0.0	129.08101391792297	
20	63.39680814743042	movie	1		301.0	18.0	2.5	/experiments/knapen_aot/videos/R_S_yt-xqHrTtvFFIs_3.mp4	0.0	129.08914399147034	2.5083258152008057
20	65.90513396263123	fix_post	2		12.0	18.0	2.5	/experiments/knapen_aot/videos/R_S_yt-xqHrTtvFFIs_3.mp4	0.0	131.59746980667114	0.10001015663146973
21	66.0051441192627	fix_pre	0		438.0	19.0	2.5	blank	1.0	131.6974799633026	3.6500818729400635
21	69.64696502685547	response	0	4		19.0	2.5	blank	1.0	135.33930087089539	
21	69.65522599220276	movie	1		301.0	19.0	2.5	blank	1.0	135.34756183624268	2.5082709789276123
21	72.16349697113037	fix_post	2		12.0	19.0	2.5	blank	1.0	137.8558328151703	0.09999608993530273
22	72.26349306106567	fix_pre	0		122.0	20.0	2.5	/experiments/knapen_aot/videos/R_S_yt-tOOaOzYvtKE_79.mp4	0.0	137.9558289051056	1.0249660015106201
22	73.27200508117676	response	0	4		20.0	2.5	/experiments/knapen_aot/videos/R_S_yt-tOOaOzYvtKE_79.mp4	0.0	138.96434092521667	
22	73.2884590625763	movie	1		300.0	20.0	2.5	/experiments/knapen_aot/videos/R_S_yt-tOOaOzYvtKE_79.mp4	0.0	138.9807949066162	2.5000290870666504
22	75.78848814964294	fix_post	2		12.0	20.0	2.5	/experiments/knapen_aot/videos/R_S_yt-tOOaOzYvtKE_79.mp4	0.0	141.48082399368286	0.09994292259216309
23	75.88843107223511	fix_pre	0		16.0	21.0	2.5	/experiments/knapen_aot/videos/S_8lrGQK4UBj8_38.mp4	0.0	141.58076691627502	0.13335108757019043
23	76.01357507705688	response	0	4		21.0	2.5	/experiments/knapen_aot/videos/S_8lrGQK4UBj8_38.mp4	0.0	141.7059109210968	
23	76.0217821598053	movie	1		301.0	21.0	2.5	/experiments/knapen_aot/videos/S_8lrGQK4UBj8_38.mp4	0.0	141.71411800384521	2.5083508491516113
23	78.53013300895691	fix_post	2		12.0	21.0	2.5	/experiments/knapen_aot/videos/S_8lrGQK4UBj8_38.mp4	0.0	144.22246885299683	0.10076904296875
24	78.63090205192566	fix_pre	0		123.0	22.0	2.5	/experiments/knapen_aot/videos/R_S_pexels-rodnae-productions-5993237.mp4	0.0	144.32323789596558	1.0242071151733398
24	79.64689302444458	response	0	4		22.0	2.5	/experiments/knapen_aot/videos/R_S_pexels-rodnae-productions-5993237.mp4	0.0	145.3392288684845	
24	79.655109167099	movie	1		166.0	22.0	2.5	/experiments/knapen_aot/videos/R_S_pexels-rodnae-productions-5993237.mp4	0.0	145.34744501113892	2.5083467960357666
24	82.16345596313477	fix_post	2		12.0	22.0	2.5	/experiments/knapen_aot/videos/R_S_pexels-rodnae-productions-5993237.mp4	0.0	147.85579180717468	0.10001206398010254
25	82.26346802711487	fix_pre	0		9.0	23.0	2.5	/experiments/knapen_aot/videos/S_yt-UzWRbs9Syf4_7.mp4	0.0	147.95580387115479	0.07569408416748047
25	82.33020901679993	response	0	4		23.0	2.5	/experiments/knapen_aot/videos/S_yt-UzWRbs9Syf4_7.mp4	0.0	148.02254486083984	
25	82.33916211128235	movie	1		301.0	23.0	2.5	/experiments/knapen_aot/videos/S_yt-UzWRbs9Syf4_7.mp4	0.0	148.03149795532227	2.507539987564087
25	84.84670209884644	fix_post	2		12.0	23.0	2.5	/experiments/knapen_aot/videos/S_yt-UzWRbs9Syf4_7.mp4	0.0	150.53903794288635	0.09997797012329102
26	84.94668006896973	fix_pre	0		99.0	24.0	2.5	/experiments/knapen_aot/videos/R_S_yt-r4st6Mt4EE8_85.mp4	0.0	150.63901591300964	0.8250200748443604
26	85.7635850906372	response	0	4		24.0	2.5	/experiments/knapen_aot/videos/R_S_yt-r4st6Mt4EE8_85.mp4	0.0	151.45592093467712	
26	85.77170014381409	movie	1		301.0	24.0	2.5	/experiments/knapen_aot/videos/R_S_yt-r4st6Mt4EE8_85.mp4	0.0	151.464035987854	2.508497953414917
26	88.280198097229	fix_post	2		12.0	24.0	2.5	/experiments/knapen_aot/videos/R_S_yt-r4st6Mt4EE8_85.mp4	0.0	153.97253394126892	0.10057187080383301
27	88.38076996803284	fix_pre	0		35.0	25.0	2.5	/experiments/knapen_aot/videos/R_S_yt-tQ-hgwTcMqU_43.mp4	0.0	154.07310581207275	0.2916421890258789
27	88.66343903541565	response	0	4		25.0	2.5	/experiments/knapen_aot/videos/R_S_yt-tQ-hgwTcMqU_43.mp4	0.0	154.35577487945557	
27	88.67241215705872	movie	1		301.0	25.0	2.5	/experiments/knapen_aot/videos/R_S_yt-tQ-hgwTcMqU_43.mp4	0.0	154.36474800109863	2.5076749324798584
27	91.18008708953857	fix_post	2		11.0	25.0	2.5	/experiments/knapen_aot/videos/R_S_yt-tQ-hgwTcMqU_43.mp4	0.0	156.8724229335785	0.09997105598449707
28	91.28005814552307	fix_pre	0		30.0	26.0	2.5	blank	1.0	156.972393989563	0.24997901916503906
28	91.5217981338501	response	0	4		26.0	2.5	blank	1.0	157.21413397789001	
28	91.53003716468811	movie	1		301.0	26.0	2.5	blank	1.0	157.22237300872803	2.5083208084106445
28	94.03835797309875	fix_post	2		12.0	26.0	2.5	blank	1.0	159.73069381713867	0.09993910789489746
29	94.13829708099365	fix_pre	0		53.0	27.0	2.5	/experiments/knapen_aot/videos/R_S_ILSVRC2015_train_00682009.mp4	0.0	159.83063292503357	0.4416310787200928
29	94.57186913490295	response	0	4		27.0	2.5	/experiments/knapen_aot/videos/R_S_ILSVRC2015_train_00682009.mp4	0.0	160.26420497894287	
29	94.57992815971375	movie	1		301.0	27.0	2.5	/experiments/knapen_aot/videos/R_S_ILSVRC2015_train_00682009.mp4	0.0	160.27226400375366	2.508373975753784
29	97.08830213546753	fix_post	2		12.0	27.0	2.5	/experiments/knapen_aot/videos/R_S_ILSVRC2015_train_00682009.mp4	0.0	162.78063797950745	0.10001301765441895
30	97.18831515312195	fix_pre	0		17.0	28.0	2.5	/experiments/knapen_aot/videos/R_S_yt-gzjV6YoK6X0_3.mp4	0.0	162.88065099716187	0.1417098045349121
30	97.32173705101013	response	0	4		28.0	2.5	/experiments/knapen_aot/videos/R_S_yt-gzjV6YoK6X0_3.mp4	0.0	163.01407289505005	
30	97.33002495765686	movie	1		301.0	28.0	2.5	/experiments/knapen_aot/videos/R_S_yt-gzjV6YoK6X0_3.mp4	0.0	163.02236080169678	2.5083301067352295
30	99.83835506439209	fix_post	2		12.0	28.0	2.5	/experiments/knapen_aot/videos/R_S_yt-gzjV6YoK6X0_3.mp4	0.0	165.530690908432	0.09999799728393555
31	99.93835306167603	fix_pre	0		65.0	29.0	2.5	/experiments/knapen_aot/videos/S_yt-a5TGHnldsKg_102.mp4	0.0	165.63068890571594	0.5416901111602783
31	100.47192096710205	response	0	4		29.0	2.5	/experiments/knapen_aot/videos/S_yt-a5TGHnldsKg_102.mp4	0.0	166.16425681114197	
31	100.4800431728363	movie	1		301.0	29.0	2.5	/experiments/knapen_aot/videos/S_yt-a5TGHnldsKg_102.mp4	0.0	166.17237901687622	2.5082879066467285
31	102.98833107948303	fix_post	2		12.0	29.0	2.5	/experiments/knapen_aot/videos/S_yt-a5TGHnldsKg_102.mp4	0.0	168.68066692352295	0.10003995895385742
32	103.08837103843689	fix_pre	0		25.0	30.0	2.5	/experiments/knapen_aot/videos/R_S_yt-qycUhA3Isjg_76.mp4	0.0	168.7807068824768	0.20891213417053223
32	103.28853106498718	response	0	4		30.0	2.5	/experiments/knapen_aot/videos/R_S_yt-qycUhA3Isjg_76.mp4	0.0	168.9808669090271	
32	103.29728317260742	movie	1		300.0	30.0	2.5	/experiments/knapen_aot/videos/R_S_yt-qycUhA3Isjg_76.mp4	0.0	168.98961901664734	2.507751941680908
32	105.80503511428833	fix_post	2		12.0	30.0	2.5	/experiments/knapen_aot/videos/R_S_yt-qycUhA3Isjg_76.mp4	0.0	171.49737095832825	0.09991288185119629
33	105.90494799613953	fix_pre	0		23.0	31.0	2.5	/experiments/knapen_aot/videos/S_nvbAwZOKBS8_23.mp4	0.0	171.59728384017944	0.1917250156402588
33	106.08845615386963	response	0	4		31.0	2.5	/experiments/knapen_aot/videos/S_nvbAwZOKBS8_23.mp4	0.0	171.78079199790955	
33	106.09667301177979	movie	1		301.0	31.0	2.5	/experiments/knapen_aot/videos/S_nvbAwZOKBS8_23.mp4	0.0	171.7890088558197	2.508312940597534
33	108.60498595237732	fix_post	2		12.0	31.0	2.5	/experiments/knapen_aot/videos/S_nvbAwZOKBS8_23.mp4	0.0	174.29732179641724	0.09998106956481934
34	108.70496702194214	fix_pre	0		107.0	32.0	2.5	/experiments/knapen_aot/videos/R_S_pexels-polina-tankilevitch-8203088.mp4	0.0	174.39730286598206	0.891840934753418
34	109.58844804763794	response	0	4		32.0	2.5	/experiments/knapen_aot/videos/R_S_pexels-polina-tankilevitch-8203088.mp4	0.0	175.28078389167786	
34	109.59680795669556	movie	1		162.0	32.0	2.5	/experiments/knapen_aot/videos/R_S_pexels-polina-tankilevitch-8203088.mp4	0.0	175.28914380073547	2.5081961154937744
34	112.10500407218933	fix_post	2		12.0	32.0	2.5	/experiments/knapen_aot/videos/R_S_pexels-polina-tankilevitch-8203088.mp4	0.0	177.79733991622925	0.09999394416809082
35	112.20499801635742	fix_pre	0		25.0	33.0	2.5	/experiments/knapen_aot/videos/S_yt-XPRNMelf5Fs_235.mp4	0.0	177.89733386039734	0.20825409889221191
35	112.40512704849243	response	0	4		33.0	2.5	/experiments/knapen_aot/videos/S_yt-XPRNMelf5Fs_235.mp4	0.0	178.09746289253235	
35	112.41325211524963	movie	1		301.0	33.0	2.5	/experiments/knapen_aot/videos/S_yt-XPRNMelf5Fs_235.mp4	0.0	178.10558795928955	2.508354902267456
35	114.92160701751709	fix_post	2		12.0	33.0	2.5	/experiments/knapen_aot/videos/S_yt-XPRNMelf5Fs_235.mp4	0.0	180.613942861557	0.10001206398010254
36	115.02161908149719	fix_pre	0		53.0	34.0	2.5	/experiments/knapen_aot/videos/R_S_ILSVRC2015_train_00457000.mp4	0.0	180.7139549255371	0.4421710968017578
36	115.455069065094	response	0	4		34.0	2.5	/experiments/knapen_aot/videos/R_S_ILSVRC2015_train_00457000.mp4	0.0	181.1474049091339	
36	115.46379017829895	movie	1		301.0	34.0	2.5	/experiments/knapen_aot/videos/R_S_ILSVRC2015_train_00457000.mp4	0.0	181.15612602233887	2.5078108310699463
36	117.9716010093689	fix_post	2		12.0	34.0	2.5	/experiments/knapen_aot/videos/R_S_ILSVRC2015_train_00457000.mp4	0.0	183.6639368534088	0.10001397132873535
37	118.07161498069763	fix_pre	0		21.0	35.0	2.5	blank	1.0	183.76395082473755	0.17496109008789062
37	118.238361120224	response	0	4		35.0	2.5	blank	1.0	183.93069696426392	
37	118.24657607078552	movie	1		301.0	35.0	2.5	blank	1.0	183.93891191482544	2.508357048034668
37	120.75493311882019	fix_post	2		12.0	35.0	2.5	blank	1.0	186.4472689628601	0.10002303123474121
38	120.85495615005493	fix_pre	0		50.0	36.0	2.5	/experiments/knapen_aot/videos/S_I003_C004_SDR_2K_AVC.mp4	0.0	186.54729199409485	0.41663289070129395
38	121.26337814331055	response	0	4		36.0	2.5	/experiments/knapen_aot/videos/S_I003_C004_SDR_2K_AVC.mp4	0.0	186.95571398735046	
38	121.27158904075623	movie	1		169.0	36.0	2.5	/experiments/knapen_aot/videos/S_I003_C004_SDR_2K_AVC.mp4	0.0	186.96392488479614	2.5083839893341064
38	123.77997303009033	fix_post	2		12.0	36.0	2.5	/experiments/knapen_aot/videos/S_I003_C004_SDR_2K_AVC.mp4	0.0	189.47230887413025	0.09996414184570312
39	123.87993717193604	fix_pre	0		83.0	37.0	2.5	/experiments/knapen_aot/videos/R_S_yt-BG-G7m5wLZ4_94.mp4	0.0	189.57227301597595	0.6916098594665527
39	124.56336498260498	response	0	4		37.0	2.5	/experiments/knapen_aot/videos/R_S_yt-BG-G7m5wLZ4_94.mp4	0.0	190.2557008266449	
39	124.57154703140259	movie	1		301.0	37.0	2.5	/experiments/knapen_aot/videos/R_S_yt-BG-G7m5wLZ4_94.mp4	0.0	190.2638828754425	2.5083320140838623
39	127.07987904548645	fix_post	2		12.0	37.0	2.5	/experiments/knapen_aot/videos/R_S_yt-BG-G7m5wLZ4_94.mp4	0.0	192.77221488952637	0.09999203681945801
40	127.17987108230591	fix_pre	0		22.0	38.0	2.5	/experiments/knapen_aot/videos/R_S_yt-xNITUMXoU0g_9.mp4	0.0	192.87220692634583	0.18332505226135254
40	127.35505414009094	response	0	4		38.0	2.5	/experiments/knapen_aot/videos/R_S_yt-xNITUMXoU0g_9.mp4	0.0	193.04738998413086	
40	127.36319613456726	movie	1		300.0	38.0	2.5	/experiments/knapen_aot/videos/R_S_yt-xNITUMXoU0g_9.mp4	0.0	193.05553197860718	2.50832200050354
40	129.8715181350708	fix_post	2		12.0	38.0	2.5	/experiments/knapen_aot/videos/R_S_yt-xNITUMXoU0g_9.mp4	0.0	195.56385397911072	0.0999758243560791
41	129.97149395942688	fix_pre	0		38.0	39.0	2.5	/experiments/knapen_aot/videos/S_comp_LA_A006_C004_v01_SDR_FINAL_PS_20180730_SDR_2K_AVC.mp4	0.0	195.6638298034668	0.31670522689819336
41	130.27996110916138	response	0	4		39.0	2.5	/experiments/knapen_aot/videos/S_comp_LA_A006_C004_v01_SDR_FINAL_PS_20180730_SDR_2K_AVC.mp4	0.0	195.9722969532013	
41	130.28819918632507	movie	1		173.0	39.0	2.5	/experiments/knapen_aot/videos/S_comp_LA_A006_C004_v01_SDR_FINAL_PS_20180730_SDR_2K_AVC.mp4	0.0	195.980535030365	2.508295774459839
41	132.7964949607849	fix_post	2		12.0	39.0	2.5	/experiments/knapen_aot/videos/S_comp_LA_A006_C004_v01_SDR_FINAL_PS_20180730_SDR_2K_AVC.mp4	0.0	198.48883080482483	0.10004019737243652
42	132.89653515815735	fix_pre	0		8.0	40.0	2.5	blank	1.0	198.58887100219727	0.06728482246398926
42	132.9550280570984	response	0	4		40.0	2.5	blank	1.0	198.6473639011383	
42	132.96381998062134	movie	1		301.0	40.0	2.5	blank	1.0	198.65615582466125	2.5077149868011475
42	135.47153496742249	fix_post	2		12.0	40.0	2.5	blank	1.0	201.1638708114624	0.09992003440856934
43	135.57145500183105	fix_pre	0		25.0	41.0	2.5	/experiments/knapen_aot/videos/S_xq822dX6DDM_1.mp4	0.0	201.26379084587097	0.20839500427246094
43	135.7716200351715	response	0	4		41.0	2.5	/experiments/knapen_aot/videos/S_xq822dX6DDM_1.mp4	0.0	201.46395587921143	
43	135.77985000610352	movie	1		301.0	41.0	2.5	/experiments/knapen_aot/videos/S_xq822dX6DDM_1.mp4	0.0	201.47218585014343	2.5083329677581787
43	138.2881829738617	fix_post	2		12.0	41.0	2.5	/experiments/knapen_aot/videos/S_xq822dX6DDM_1.mp4	0.0	203.9805188179016	0.10008001327514648
44	138.38826298713684	fix_pre	0		13.0	42.0	2.5	/experiments/knapen_aot/videos/S_ILSVRC2015_train_00441000.mp4	0.0	204.08059883117676	0.11700010299682617
44	138.49666213989258	response	0	4		42.0	2.5	/experiments/knapen_aot/videos/S_ILSVRC2015_train_00441000.mp4	0.0	204.1889979839325	
44	138.50526309013367	movie	1		301.0	42.0	2.5	/experiments/knapen_aot/videos/S_ILSVRC2015_train_00441000.mp4	0.0	204.19759893417358	2.507848024368286
44	141.01311111450195	fix_post	2		12.0	42.0	2.5	/experiments/knapen_aot/videos/S_ILSVRC2015_train_00441000.mp4	0.0	206.70544695854187	0.10006093978881836
45	141.11317205429077	fix_pre	0		21.0	43.0	2.5	/experiments/knapen_aot/videos/S_yt-2LCHVTVwJ5E_235.mp4	0.0	206.8055078983307	0.17498111724853516
45	141.2799949645996	response	0	4		43.0	2.5	/experiments/knapen_aot/videos/S_yt-2LCHVTVwJ5E_235.mp4	0.0	206.97233080863953	
45	141.2881531715393	movie	1		300.0	43.0	2.5	/experiments/knapen_aot/videos/S_yt-2LCHVTVwJ5E_235.mp4	0.0	206.98048901557922	2.5083718299865723
45	143.79652500152588	fix_post	2		12.0	43.0	2.5	/experiments/knapen_aot/videos/S_yt-2LCHVTVwJ5E_235.mp4	0.0	209.4888608455658	0.09999513626098633
46	143.89652013778687	fix_pre	0		29.0	44.0	2.5	/experiments/knapen_aot/videos/S_ILSVRC2015_train_00017007.mp4	0.0	209.58885598182678	0.24161791801452637
46	144.12990617752075	response	0	4		44.0	2.5	/experiments/knapen_aot/videos/S_ILSVRC2015_train_00017007.mp4	0.0	209.82224202156067	
46	144.1381380558014	movie	1		301.0	44.0	2.5	/experiments/knapen_aot/videos/S_ILSVRC2015_train_00017007.mp4	0.0	209.8304738998413	2.5083160400390625
46	146.64645409584045	fix_post	2		12.0	44.0	2.5	/experiments/knapen_aot/videos/S_ILSVRC2015_train_00017007.mp4	0.0	212.33878993988037	0.10002994537353516
47	146.746484041214	fix_pre	0		28.0	45.0	2.5	/experiments/knapen_aot/videos/S_SPNvf6JCjGw_123.mp4	0.0	212.4388198852539	0.23329401016235352
47	146.97164106369019	response	0	4		45.0	2.5	/experiments/knapen_aot/videos/S_SPNvf6JCjGw_123.mp4	0.0	212.6639769077301	
47	146.97977805137634	movie	1		301.0	45.0	2.5	/experiments/knapen_aot/videos/S_SPNvf6JCjGw_123.mp4	0.0	212.67211389541626	2.508312940597534
47	149.48809099197388	fix_post	2		12.0	45.0	2.5	/experiments/knapen_aot/videos/S_SPNvf6JCjGw_123.mp4	0.0	215.1804268360138	0.09993219375610352
48	149.58802318572998	fix_pre	0		25.0	46.0	2.5	/experiments/knapen_aot/videos/S_yt-YTQXM5ZjRgg_116.mp4	0.0	215.2803590297699	0.20881390571594238
48	149.78083610534668	response	0	4		46.0	2.5	/experiments/knapen_aot/videos/S_yt-YTQXM5ZjRgg_116.mp4	0.0	215.4731719493866	
48	149.79683709144592	movie	1		301.0	46.0	2.5	/experiments/knapen_aot/videos/S_yt-YTQXM5ZjRgg_116.mp4	0.0	215.48917293548584	2.507951021194458
48	152.30478811264038	fix_post	2		12.0	46.0	2.5	/experiments/knapen_aot/videos/S_yt-YTQXM5ZjRgg_116.mp4	0.0	217.9971239566803	0.09997892379760742
49	152.404767036438	fix_pre	0		42.0	47.0	2.5	/experiments/knapen_aot/videos/R_S_video_inspire_oregon_lone-ranch-beach_00021.1080-h264.mp4	0.0	218.0971028804779	0.35039305686950684
49	152.74661302566528	response	0	4		47.0	2.5	/experiments/knapen_aot/videos/R_S_video_inspire_oregon_lone-ranch-beach_00021.1080-h264.mp4	0.0	218.4389488697052	
49	152.7551600933075	movie	1		165.0	47.0	2.5	/experiments/knapen_aot/videos/R_S_video_inspire_oregon_lone-ranch-beach_00021.1080-h264.mp4	0.0	218.4474959373474	2.5079259872436523
49	155.26308608055115	fix_post	2		12.0	47.0	2.5	/experiments/knapen_aot/videos/R_S_video_inspire_oregon_lone-ranch-beach_00021.1080-h264.mp4	0.0	220.95542192459106	0.09995293617248535
50	155.36303901672363	fix_pre	0		8.0	48.0	2.5	blank	1.0	221.05537486076355	0.06669402122497559
50	155.42195415496826	response	0	4		48.0	2.5	blank	1.0	221.11428999900818	
50	155.4297330379486	movie	1		301.0	48.0	2.5	blank	1.0	221.12206888198853	2.5083560943603516
50	157.93808913230896	fix_post	2		12.0	48.0	2.5	blank	1.0	223.63042497634888	0.10001993179321289
51	158.03810906410217	fix_pre	0		80.0	49.0	2.5	/experiments/knapen_aot/videos/R_S_yt-roThCERxVCs_133.mp4	0.0	223.7304449081421	0.6666018962860107
51	158.6965889930725	response	0	4		49.0	2.5	/experiments/knapen_aot/videos/R_S_yt-roThCERxVCs_133.mp4	0.0	224.38892483711243	
51	158.70471096038818	movie	1		301.0	49.0	2.5	/experiments/knapen_aot/videos/R_S_yt-roThCERxVCs_133.mp4	0.0	224.3970468044281	2.5086941719055176
51	161.2134051322937	fix_post	2		12.0	49.0	2.5	/experiments/knapen_aot/videos/R_S_yt-roThCERxVCs_133.mp4	0.0	226.90574097633362	0.09978103637695312
52	161.31318616867065	fix_pre	0		29.0	50.0	2.5	/experiments/knapen_aot/videos/R_S_pexels-polina-tankilevitch-8203088.mp4	0.0	227.00552201271057	0.24158191680908203
52	161.54651498794556	response	0	4		50.0	2.5	/experiments/knapen_aot/videos/R_S_pexels-polina-tankilevitch-8203088.mp4	0.0	227.23885083198547	
52	161.55476808547974	movie	1		164.0	50.0	2.5	/experiments/knapen_aot/videos/R_S_pexels-polina-tankilevitch-8203088.mp4	0.0	227.24710392951965	2.5083069801330566
52	164.0630750656128	fix_post	2		12.0	50.0	2.5	/experiments/knapen_aot/videos/R_S_pexels-polina-tankilevitch-8203088.mp4	0.0	229.7554109096527	0.09992098808288574
53	164.16299605369568	fix_pre	0		2.0	51.0	2.5	/experiments/knapen_aot/videos/S_yt-SkIJvj6KNOo_33.mp4	0.0	229.8553318977356	0.0167081356048584
53	164.16559600830078	response	0	4		51.0	2.5	/experiments/knapen_aot/videos/S_yt-SkIJvj6KNOo_33.mp4	0.0	229.8579318523407	
53	164.17970418930054	movie	1		298.0	51.0	2.5	/experiments/knapen_aot/videos/S_yt-SkIJvj6KNOo_33.mp4	0.0	229.87204003334045	2.5082578659057617
53	166.6879620552063	fix_post	2		12.0	51.0	2.5	/experiments/knapen_aot/videos/S_yt-SkIJvj6KNOo_33.mp4	0.0	232.38029789924622	0.10006594657897949
54	166.78802800178528	fix_pre	0		23.0	52.0	2.5	/experiments/knapen_aot/videos/S_wc-AyT9mzwZsu0T_14.mp4	0.0	232.4803638458252	0.19170498847961426
54	166.97152304649353	response	0	4		52.0	2.5	/experiments/knapen_aot/videos/S_wc-AyT9mzwZsu0T_14.mp4	0.0	232.66385889053345	
54	166.9797329902649	movie	1		162.0	52.0	2.5	/experiments/knapen_aot/videos/S_wc-AyT9mzwZsu0T_14.mp4	0.0	232.6720688343048	2.5083019733428955
54	169.4880349636078	fix_post	2		12.0	52.0	2.5	/experiments/knapen_aot/videos/S_wc-AyT9mzwZsu0T_14.mp4	0.0	235.1803708076477	0.10022902488708496
55	169.58826398849487	fix_pre	0		21.0	53.0	2.5	/experiments/knapen_aot/videos/R_S_yt-rIQoRErqnlI_17.mp4	0.0	235.2805998325348	0.17473101615905762
55	169.7548270225525	response	0	4		53.0	2.5	/experiments/knapen_aot/videos/R_S_yt-rIQoRErqnlI_17.mp4	0.0	235.4471628665924	
55	169.76299500465393	movie	1		301.0	53.0	2.5	/experiments/knapen_aot/videos/R_S_yt-rIQoRErqnlI_17.mp4	0.0	235.45533084869385	2.508397102355957
55	172.2713921070099	fix_post	2		12.0	53.0	2.5	/experiments/knapen_aot/videos/R_S_yt-rIQoRErqnlI_17.mp4	0.0	237.9637279510498	0.09990406036376953
56	172.37129616737366	fix_pre	0		31.0	54.0	2.5	/experiments/knapen_aot/videos/R_S_ILSVRC2015_train_00599000.mp4	0.0	238.06363201141357	0.25861287117004395
56	172.6140661239624	response	0	4		54.0	2.5	/experiments/knapen_aot/videos/R_S_ILSVRC2015_train_00599000.mp4	0.0	238.30640196800232	
56	172.6299090385437	movie	1		301.0	54.0	2.5	/experiments/knapen_aot/videos/R_S_ILSVRC2015_train_00599000.mp4	0.0	238.32224488258362	2.5080230236053467
56	175.13793206214905	fix_post	2		12.0	54.0	2.5	/experiments/knapen_aot/videos/R_S_ILSVRC2015_train_00599000.mp4	0.0	240.83026790618896	0.10005497932434082
57	175.2379870414734	fix_pre	0		24.0	55.0	2.5	/experiments/knapen_aot/videos/R_S_yt-2kPrGwVmRfE_169.mp4	0.0	240.9303228855133	0.1999671459197998
57	175.42975497245789	response	0	4		55.0	2.5	/experiments/knapen_aot/videos/R_S_yt-2kPrGwVmRfE_169.mp4	0.0	241.1220908164978	
57	175.4379541873932	movie	1		301.0	55.0	2.5	/experiments/knapen_aot/videos/R_S_yt-2kPrGwVmRfE_169.mp4	0.0	241.1302900314331	2.508356809616089
57	177.94631099700928	fix_post	2		12.0	55.0	2.5	/experiments/knapen_aot/videos/R_S_yt-2kPrGwVmRfE_169.mp4	0.0	243.6386468410492	0.10026097297668457
58	178.04657196998596	fix_pre	0		23.0	56.0	2.5	blank	1.0	243.73890781402588	0.19138813018798828
58	178.22978115081787	response	0	4		56.0	2.5	blank	1.0	243.9221169948578	
58	178.23796010017395	movie	1		301.0	56.0	2.5	blank	1.0	243.93029594421387	2.5083389282226562
58	180.7462990283966	fix_post	2		12.0	56.0	2.5	blank	1.0	246.43863487243652	0.10004496574401855
59	180.84634399414062	fix_pre	0		36.0	57.0	2.5	/experiments/knapen_aot/videos/R_S_yt-2LCHVTVwJ5E_235.mp4	0.0	246.53867983818054	0.29997897148132324
59	181.13814401626587	response	0	4		57.0	2.5	/experiments/knapen_aot/videos/R_S_yt-2LCHVTVwJ5E_235.mp4	0.0	246.8304798603058	
59	181.14632296562195	movie	1		301.0	57.0	2.5	/experiments/knapen_aot/videos/R_S_yt-2LCHVTVwJ5E_235.mp4	0.0	246.83865880966187	2.5082850456237793
59	183.65460801124573	fix_post	2		12.0	57.0	2.5	/experiments/knapen_aot/videos/R_S_yt-2LCHVTVwJ5E_235.mp4	0.0	249.34694385528564	0.10024213790893555
60	183.75485014915466	fix_pre	0		16.0	58.0	2.5	/experiments/knapen_aot/videos/S_ILSVRC2015_train_00373001.mp4	0.0	249.44718599319458	0.13316798210144043
60	183.8797481060028	response	0	4		58.0	2.5	/experiments/knapen_aot/videos/S_ILSVRC2015_train_00373001.mp4	0.0	249.57208395004272	
60	183.8880181312561	movie	1		301.0	58.0	2.5	/experiments/knapen_aot/videos/S_ILSVRC2015_train_00373001.mp4	0.0	249.58035397529602	2.508291006088257
60	186.39630913734436	fix_post	2		12.0	58.0	2.5	/experiments/knapen_aot/videos/S_ILSVRC2015_train_00373001.mp4	0.0	252.08864498138428	0.10001397132873535
61	186.4963231086731	fix_pre	0		11.0	59.0	2.5	/experiments/knapen_aot/videos/S_yt-4W224-RSCnM_15.mp4	0.0	252.188658952713	0.09177899360656738
61	186.57977604866028	response	0	4		59.0	2.5	/experiments/knapen_aot/videos/S_yt-4W224-RSCnM_15.mp4	0.0	252.2721118927002	
61	186.58810210227966	movie	1		299.0	59.0	2.5	/experiments/knapen_aot/videos/S_yt-4W224-RSCnM_15.mp4	0.0	252.28043794631958	2.5081799030303955
61	189.09628200531006	fix_post	2		12.0	59.0	2.5	/experiments/knapen_aot/videos/S_yt-4W224-RSCnM_15.mp4	0.0	254.78861784934998	0.09999799728393555
62	189.196280002594	fix_pre	0		24.0	60.0	2.5	/experiments/knapen_aot/videos/R_S_comp_C004_C003_PS_v01_SDR_PS_20180925_SDR_2K_AVC.mp4	0.0	254.8886158466339	0.199998140335083
62	189.3879930973053	response	0	4		60.0	2.5	/experiments/knapen_aot/videos/R_S_comp_C004_C003_PS_v01_SDR_PS_20180925_SDR_2K_AVC.mp4	0.0	255.08032894134521	
62	189.39627814292908	movie	1		166.0	60.0	2.5	/experiments/knapen_aot/videos/R_S_comp_C004_C003_PS_v01_SDR_PS_20180925_SDR_2K_AVC.mp4	0.0	255.088613986969	2.508272886276245
62	191.90455102920532	fix_post	2		12.0	60.0	2.5	/experiments/knapen_aot/videos/R_S_comp_C004_C003_PS_v01_SDR_PS_20180925_SDR_2K_AVC.mp4	0.0	257.59688687324524	0.10024213790893555
63	192.00479316711426	fix_pre	0		5.0	61.0	2.5	/experiments/knapen_aot/videos/S_yt-bQRBtP9zkms_111.mp4	0.0	257.6971290111542	0.04172086715698242
63	192.03825211524963	response	0	4		61.0	2.5	/experiments/knapen_aot/videos/S_yt-bQRBtP9zkms_111.mp4	0.0	257.73058795928955	
63	192.04651403427124	movie	1		301.0	61.0	2.5	/experiments/knapen_aot/videos/S_yt-bQRBtP9zkms_111.mp4	0.0	257.73884987831116	2.508043050765991
63	194.55455708503723	fix_post	2		12.0	61.0	2.5	/experiments/knapen_aot/videos/S_yt-bQRBtP9zkms_111.mp4	0.0	260.24689292907715	0.10001206398010254
64	194.65456914901733	fix_pre	0		26.0	62.0	2.5	blank	1.0	260.34690499305725	0.21666502952575684
64	194.86318802833557	response	0	4		62.0	2.5	blank	1.0	260.5555238723755	
64	194.8712341785431	movie	1		301.0	62.0	2.5	blank	1.0	260.563570022583	2.5084638595581055
64	197.3796980381012	fix_post	2		12.0	62.0	2.5	blank	1.0	263.0720338821411	0.09988903999328613
65	197.47958707809448	fix_pre	0		17.0	63.0	2.5	/experiments/knapen_aot/videos/S_yt-y6zr69M0yHI_76.mp4	0.0	263.1719229221344	0.14167499542236328
65	197.61301708221436	response	0	4		63.0	2.5	/experiments/knapen_aot/videos/S_yt-y6zr69M0yHI_76.mp4	0.0	263.3053529262543	
65	197.62126207351685	movie	1		301.0	63.0	2.5	/experiments/knapen_aot/videos/S_yt-y6zr69M0yHI_76.mp4	0.0	263.31359791755676	2.508410930633545
65	200.1296730041504	fix_post	2		12.0	63.0	2.5	/experiments/knapen_aot/videos/S_yt-y6zr69M0yHI_76.mp4	0.0	265.8220088481903	0.09990906715393066
66	200.22958207130432	fix_pre	0		24.0	64.0	2.5	/experiments/knapen_aot/videos/R_S_bing-www_yahoo_com_entertainment_anastasia-karanikolaou-chantel-jeffries-discuss-182400502_html_9.mp4	0.0	265.92191791534424	0.19994497299194336
66	200.42136096954346	response	0	4		64.0	2.5	/experiments/knapen_aot/videos/R_S_bing-www_yahoo_com_entertainment_anastasia-karanikolaou-chantel-jeffries-discuss-182400502_html_9.mp4	0.0	266.1136968135834	
66	200.42952704429626	movie	1		169.0	64.0	2.5	/experiments/knapen_aot/videos/R_S_bing-www_yahoo_com_entertainment_anastasia-karanikolaou-chantel-jeffries-discuss-182400502_html_9.mp4	0.0	266.1218628883362	2.508378028869629
66	202.9379050731659	fix_post	2		12.0	64.0	2.5	/experiments/knapen_aot/videos/R_S_bing-www_yahoo_com_entertainment_anastasia-karanikolaou-chantel-jeffries-discuss-182400502_html_9.mp4	0.0	268.6302409172058	0.10000300407409668
67	203.03790807724	fix_pre	0		18.0	65.0	2.5	/experiments/knapen_aot/videos/R_S_yt-UzWRbs9Syf4_7.mp4	0.0	268.7302439212799	0.1500530242919922
67	203.17968916893005	response	0	4		65.0	2.5	/experiments/knapen_aot/videos/R_S_yt-UzWRbs9Syf4_7.mp4	0.0	268.87202501296997	
67	203.18796110153198	movie	1		301.0	65.0	2.5	/experiments/knapen_aot/videos/R_S_yt-UzWRbs9Syf4_7.mp4	0.0	268.8802969455719	2.508236885070801
67	205.69619798660278	fix_post	2		12.0	65.0	2.5	/experiments/knapen_aot/videos/R_S_yt-UzWRbs9Syf4_7.mp4	0.0	271.3885338306427	0.1001121997833252
68	205.7963101863861	fix_pre	0		17.0	66.0	2.5	/experiments/knapen_aot/videos/S_yt-wE0cEswyaaM_53.mp4	0.0	271.488646030426	0.14146900177001953
68	205.92966604232788	response	0	4		66.0	2.5	/experiments/knapen_aot/videos/S_yt-wE0cEswyaaM_53.mp4	0.0	271.6220018863678	
68	205.93777918815613	movie	1		301.0	66.0	2.5	/experiments/knapen_aot/videos/S_yt-wE0cEswyaaM_53.mp4	0.0	271.63011503219604	2.5083818435668945
68	208.44616103172302	fix_post	2		12.0	66.0	2.5	/experiments/knapen_aot/videos/S_yt-wE0cEswyaaM_53.mp4	0.0	274.13849687576294	0.1000981330871582
69	208.54625916481018	fix_pre	0		54.0	67.0	2.5	/experiments/knapen_aot/videos/R_S_yt-Ryb0K9lGPrg_5.mp4	0.0	274.2385950088501	0.4498729705810547
69	208.9880051612854	response	0	4		67.0	2.5	/experiments/knapen_aot/videos/R_S_yt-Ryb0K9lGPrg_5.mp4	0.0	274.6803410053253	
69	208.99613213539124	movie	1		301.0	67.0	2.5	/experiments/knapen_aot/videos/R_S_yt-Ryb0K9lGPrg_5.mp4	0.0	274.68846797943115	2.5083959102630615
69	211.5045280456543	fix_post	2		12.0	67.0	2.5	/experiments/knapen_aot/videos/R_S_yt-Ryb0K9lGPrg_5.mp4	0.0	277.1968638896942	0.1000070571899414
70	211.60453510284424	fix_pre	0		30.0	68.0	2.5	/experiments/knapen_aot/videos/R_S_pexels-mart-production-8435081.mp4	0.0	277.29687094688416	0.25001096725463867
70	211.8464801311493	response	0	4		68.0	2.5	/experiments/knapen_aot/videos/R_S_pexels-mart-production-8435081.mp4	0.0	277.5388159751892	
70	211.85454607009888	movie	1		201.0	68.0	2.5	/experiments/knapen_aot/videos/R_S_pexels-mart-production-8435081.mp4	0.0	277.5468819141388	2.508307933807373
70	214.36285400390625	fix_post	2		12.0	68.0	2.5	/experiments/knapen_aot/videos/R_S_pexels-mart-production-8435081.mp4	0.0	280.05518984794617	0.10003113746643066
71	214.46288514137268	fix_pre	0		13.0	69.0	2.5	blank	1.0	280.1552209854126	0.10827088356018066
71	214.56296515464783	response	0	4		69.0	2.5	blank	1.0	280.25530099868774	
71	214.57115602493286	movie	1		301.0	69.0	2.5	blank	1.0	280.2634918689728	2.508355140686035
71	217.0795111656189	fix_post	2		12.0	69.0	2.5	blank	1.0	282.7718470096588	0.09992694854736328
72	217.17943811416626	fix_pre	0		48.0	70.0	2.5	/experiments/knapen_aot/videos/S_yt-26obL-Z5obg_131.mp4	0.0	282.8717739582062	0.4083399772644043
72	217.5796229839325	response	0	4		70.0	2.5	/experiments/knapen_aot/videos/S_yt-26obL-Z5obg_131.mp4	0.0	283.2719588279724	
72	217.58777809143066	movie	1		301.0	70.0	2.5	/experiments/knapen_aot/videos/S_yt-26obL-Z5obg_131.mp4	0.0	283.2801139354706	2.508323907852173
72	220.09610199928284	fix_post	2		12.0	70.0	2.5	/experiments/knapen_aot/videos/S_yt-26obL-Z5obg_131.mp4	0.0	285.78843784332275	0.10002613067626953
73	220.1961281299591	fix_pre	0		32.0	71.0	2.5	/experiments/knapen_aot/videos/S_yt-roThCERxVCs_133.mp4	0.0	285.888463973999	0.26662302017211914
73	220.45457315444946	response	0	4		71.0	2.5	/experiments/knapen_aot/videos/S_yt-roThCERxVCs_133.mp4	0.0	286.1469089984894	
73	220.46275115013123	movie	1		301.0	71.0	2.5	/experiments/knapen_aot/videos/S_yt-roThCERxVCs_133.mp4	0.0	286.15508699417114	2.508474826812744
73	222.97122597694397	fix_post	2		12.0	71.0	2.5	/experiments/knapen_aot/videos/S_yt-roThCERxVCs_133.mp4	0.0	288.6635618209839	0.09985113143920898
74	223.07107710838318	fix_pre	0		35.0	72.0	2.5	/experiments/knapen_aot/videos/S_yt-BJsMGxfjrZk_59.mp4	0.0	288.7634129524231	0.29166293144226074
74	223.35458397865295	response	0	4		72.0	2.5	/experiments/knapen_aot/videos/S_yt-BJsMGxfjrZk_59.mp4	0.0	289.04691982269287	
74	223.36274003982544	movie	1		301.0	72.0	2.5	/experiments/knapen_aot/videos/S_yt-BJsMGxfjrZk_59.mp4	0.0	289.05507588386536	2.5083279609680176
74	225.87106800079346	fix_post	2		12.0	72.0	2.5	/experiments/knapen_aot/videos/S_yt-BJsMGxfjrZk_59.mp4	0.0	291.5634038448334	0.10002899169921875
75	225.97109699249268	fix_pre	0		242.0	73.0	2.5	/experiments/knapen_aot/videos/R_S_yt-a5TGHnldsKg_102.mp4	0.0	291.6634328365326	2.016576051712036
75	227.97970700263977	response	0	4		73.0	2.5	/experiments/knapen_aot/videos/R_S_yt-a5TGHnldsKg_102.mp4	0.0	293.6720428466797	
75	227.9876730442047	movie	1		301.0	73.0	2.5	/experiments/knapen_aot/videos/R_S_yt-a5TGHnldsKg_102.mp4	0.0	293.68000888824463	2.5084221363067627
75	230.49609518051147	fix_post	2		12.0	73.0	2.5	/experiments/knapen_aot/videos/R_S_yt-a5TGHnldsKg_102.mp4	0.0	296.1884310245514	0.09998393058776855
76	230.59607911109924	fix_pre	0		21.0	74.0	2.5	/experiments/knapen_aot/videos/R_S_ILSVRC2015_train_00408000.mp4	0.0	296.28841495513916	0.17499899864196777
76	230.76286911964417	response	0	4		74.0	2.5	/experiments/knapen_aot/videos/R_S_ILSVRC2015_train_00408000.mp4	0.0	296.4552049636841	
76	230.7710781097412	movie	1		301.0	74.0	2.5	/experiments/knapen_aot/videos/R_S_ILSVRC2015_train_00408000.mp4	0.0	296.4634139537811	2.5083658695220947
76	233.2794439792633	fix_post	2		12.0	74.0	2.5	/experiments/knapen_aot/videos/R_S_ILSVRC2015_train_00408000.mp4	0.0	298.9717798233032	0.10001015663146973
77	233.37945413589478	fix_pre	0		44.0	75.0	2.5	/experiments/knapen_aot/videos/R_S_yt-gzjV6YoK6X0_3.mp4	0.0	299.0717899799347	0.3666229248046875
77	233.73783707618713	response	0	4		75.0	2.5	/experiments/knapen_aot/videos/R_S_yt-gzjV6YoK6X0_3.mp4	0.0	299.43017292022705	
77	233.74607706069946	movie	1		301.0	75.0	2.5	/experiments/knapen_aot/videos/R_S_yt-gzjV6YoK6X0_3.mp4	0.0	299.4384129047394	2.5083250999450684
77	236.25440216064453	fix_post	2		12.0	75.0	2.5	/experiments/knapen_aot/videos/R_S_yt-gzjV6YoK6X0_3.mp4	0.0	301.94673800468445	0.10001182556152344
78	236.35441398620605	fix_pre	0		18.0	76.0	2.5	blank	1.0	302.046749830246	0.1499800682067871
78	236.4961700439453	response	0	4		76.0	2.5	blank	1.0	302.18850588798523	
78	236.50439405441284	movie	1		301.0	76.0	2.5	blank	1.0	302.19672989845276	2.5082850456237793
78	239.01267910003662	fix_post	2		12.0	76.0	2.5	blank	1.0	304.70501494407654	0.10004401206970215
79	239.11272311210632	fix_pre	0		40.0	77.0	2.5	/experiments/knapen_aot/videos/S_yt-7e6Z9QQieAk_183.mp4	0.0	304.80505895614624	0.3333430290222168
79	239.43776607513428	response	0	4		77.0	2.5	/experiments/knapen_aot/videos/S_yt-7e6Z9QQieAk_183.mp4	0.0	305.1301019191742	
79	239.44606614112854	movie	1		301.0	77.0	2.5	/experiments/knapen_aot/videos/S_yt-7e6Z9QQieAk_183.mp4	0.0	305.13840198516846	2.5083258152008057
79	241.95439195632935	fix_post	2		12.0	77.0	2.5	/experiments/knapen_aot/videos/S_yt-7e6Z9QQieAk_183.mp4	0.0	307.64672780036926	0.09999418258666992
80	242.05438613891602	fix_pre	0		127.0	78.0	2.5	/experiments/knapen_aot/videos/R_S_yt-AOP7QYQntPI_28.mp4	0.0	307.74672198295593	1.0583069324493408
80	243.10439801216125	response	0	4		78.0	2.5	/experiments/knapen_aot/videos/R_S_yt-AOP7QYQntPI_28.mp4	0.0	308.7967338562012	
80	243.11269307136536	movie	1		301.0	78.0	2.5	/experiments/knapen_aot/videos/R_S_yt-AOP7QYQntPI_28.mp4	0.0	308.8050289154053	2.508333921432495
80	245.62102699279785	fix_post	2		12.0	78.0	2.5	/experiments/knapen_aot/videos/R_S_yt-AOP7QYQntPI_28.mp4	0.0	311.31336283683777	0.09997200965881348
81	245.72099900245667	fix_pre	0		30.0	79.0	2.5	/experiments/knapen_aot/videos/S_yt-JG2OY_7B-gI_537.mp4	0.0	311.4133348464966	0.25002503395080566
81	245.95527410507202	response	0	4		79.0	2.5	/experiments/knapen_aot/videos/S_yt-JG2OY_7B-gI_537.mp4	0.0	311.64760994911194	
81	245.97102403640747	movie	1		298.0	79.0	2.5	/experiments/knapen_aot/videos/S_yt-JG2OY_7B-gI_537.mp4	0.0	311.6633598804474	2.508363962173462
81	248.47938799858093	fix_post	2		12.0	79.0	2.5	/experiments/knapen_aot/videos/S_yt-JG2OY_7B-gI_537.mp4	0.0	314.17172384262085	0.10000801086425781
82	248.5793960094452	fix_pre	0		39.0	80.0	2.5	/experiments/knapen_aot/videos/S_bing-www_dailymotion_com_video_x64hzm7_8.mp4	0.0	314.2717318534851	0.32495999336242676
82	248.8885259628296	response	0	4		80.0	2.5	/experiments/knapen_aot/videos/S_bing-www_dailymotion_com_video_x64hzm7_8.mp4	0.0	314.5808618068695	
82	248.90435600280762	movie	1		166.0	80.0	2.5	/experiments/knapen_aot/videos/S_bing-www_dailymotion_com_video_x64hzm7_8.mp4	0.0	314.59669184684753	2.5083260536193848
82	251.412682056427	fix_post	2		12.0	80.0	2.5	/experiments/knapen_aot/videos/S_bing-www_dailymotion_com_video_x64hzm7_8.mp4	0.0	317.1050179004669	0.0999901294708252
83	251.51267218589783	fix_pre	0		149.0	81.0	2.5	/experiments/knapen_aot/videos/S_pexels-c-technical-6754008.mp4	0.0	317.20500802993774	1.241654872894287
83	252.7460970878601	response	0	4		81.0	2.5	/experiments/knapen_aot/videos/S_pexels-c-technical-6754008.mp4	0.0	318.4384329319	
83	252.75432705879211	movie	1		195.0	81.0	2.5	/experiments/knapen_aot/videos/S_pexels-c-technical-6754008.mp4	0.0	318.44666290283203	2.5082550048828125
83	255.26258206367493	fix_post	2		12.0	81.0	2.5	/experiments/knapen_aot/videos/S_pexels-c-technical-6754008.mp4	0.0	320.95491790771484	0.10007596015930176
84	255.36265802383423	fix_pre	0		28.0	82.0	2.5	/experiments/knapen_aot/videos/R_S_video_inspire_oregon_lone-ranch-beach_00021.1080-h264.mp4	0.0	321.05499386787415	0.23330211639404297
84	255.58777904510498	response	0	4		82.0	2.5	/experiments/knapen_aot/videos/R_S_video_inspire_oregon_lone-ranch-beach_00021.1080-h264.mp4	0.0	321.2801148891449	
84	255.59596014022827	movie	1		168.0	82.0	2.5	/experiments/knapen_aot/videos/R_S_video_inspire_oregon_lone-ranch-beach_00021.1080-h264.mp4	0.0	321.2882959842682	2.5083229541778564
84	258.1042830944061	fix_post	2		12.0	82.0	2.5	/experiments/knapen_aot/videos/R_S_video_inspire_oregon_lone-ranch-beach_00021.1080-h264.mp4	0.0	323.79661893844604	0.10004496574401855
85	258.20432806015015	fix_pre	0		37.0	83.0	2.5	blank	1.0	323.89666390419006	0.3083059787750244
85	258.50441908836365	response	0	4		83.0	2.5	blank	1.0	324.19675493240356	
85	258.51263403892517	movie	1		301.0	83.0	2.5	blank	1.0	324.2049698829651	2.5082881450653076
85	261.0209221839905	fix_post	2		12.0	83.0	2.5	blank	1.0	326.7132580280304	0.10003280639648438
87	261.12095499038696	stim	0		262.0					326.8132908344269	2.1833150386810303
87	263.3003749847412	response	0	space						328.9927108287811	
