trial_nr	onset	event_type	phase	response	nr_frames	movie_index	movie_duration	movie_file	blank	onset_abs	duration
0	0.15877604484558105	stim	0		51.0					131.2066240310669	0.42455482482910156
0	0.5755150318145752	response	0	space						131.6233630180359	
1	0.5833308696746826	stim	0		121.0					131.631178855896	1.0087521076202393
1	1.516814947128296	response	0	space						132.5646629333496	
1	1.5920829772949219	stim	1		120.0					132.63993096351624	0.999222993850708
1	2.474839925765991	response	1	space						133.5226879119873	
2	2.59130597114563	fix_pre	0		28.0	0.0	2.5	/experiments/knapen_aot/videos/R_S_yt-SS7pSyb0_d0_32.mp4	0.0	133.63915395736694	0.233597993850708
2	2.8163909912109375	response	0	space		0.0	2.5	/experiments/knapen_aot/videos/R_S_yt-SS7pSyb0_d0_32.mp4	0.0	133.86423897743225	
2	2.824903964996338	movie	1		300.0	0.0	2.5	/experiments/knapen_aot/videos/R_S_yt-SS7pSyb0_d0_32.mp4	0.0	133.87275195121765	2.5081369876861572
2	5.333040952682495	fix_post	2		12.0	0.0	2.5	/experiments/knapen_aot/videos/R_S_yt-SS7pSyb0_d0_32.mp4	0.0	136.3808889389038	0.1000359058380127
3	5.433076858520508	fix_pre	0		55.0	1.0	2.5	/experiments/knapen_aot/videos/S_BO_A014_C023_SDR_20190717_F240F3709_SDR_2K_AVC.mp4	0.0	136.48092484474182	0.4612860679626465
3	5.880433082580566	response	0	2		1.0	2.5	/experiments/knapen_aot/videos/S_BO_A014_C023_SDR_20190717_F240F3709_SDR_2K_AVC.mp4	0.0	136.92828106880188	
3	5.894362926483154	movie	1		168.0	1.0	2.5	/experiments/knapen_aot/videos/S_BO_A014_C023_SDR_20190717_F240F3709_SDR_2K_AVC.mp4	0.0	136.94221091270447	2.505286931991577
3	8.399649858474731	fix_post	2		12.0	1.0	2.5	/experiments/knapen_aot/videos/S_BO_A014_C023_SDR_20190717_F240F3709_SDR_2K_AVC.mp4	0.0	139.44749784469604	0.1000070571899414
4	8.499656915664673	fix_pre	0		36.0	2.0	2.5	/experiments/knapen_aot/videos/R_S_yt-JtR6WZXT2kU_8.mp4	0.0	139.547504901886	0.2999579906463623
4	8.791357040405273	response	0	2		2.0	2.5	/experiments/knapen_aot/videos/R_S_yt-JtR6WZXT2kU_8.mp4	0.0	139.8392050266266	
4	8.799614906311035	movie	1		301.0	2.0	2.5	/experiments/knapen_aot/videos/R_S_yt-JtR6WZXT2kU_8.mp4	0.0	139.84746289253235	2.5083491802215576
4	11.307964086532593	fix_post	2		12.0	2.0	2.5	/experiments/knapen_aot/videos/R_S_yt-JtR6WZXT2kU_8.mp4	0.0	142.3558120727539	0.10030794143676758
5	11.40827202796936	fix_pre	0		38.0	3.0	2.5	/experiments/knapen_aot/videos/S_comp_A105_C003_0212CT_FLARE_v10_SDR_PS_FINAL_20180711_SDR_2K_AVC.mp4	0.0	142.45612001419067	0.3162539005279541
5	11.716373920440674	response	0	2		3.0	2.5	/experiments/knapen_aot/videos/S_comp_A105_C003_0212CT_FLARE_v10_SDR_PS_FINAL_20180711_SDR_2K_AVC.mp4	0.0	142.764221906662	
5	11.724525928497314	movie	1		164.0	3.0	2.5	/experiments/knapen_aot/videos/S_comp_A105_C003_0212CT_FLARE_v10_SDR_PS_FINAL_20180711_SDR_2K_AVC.mp4	0.0	142.77237391471863	2.5085179805755615
5	14.233043909072876	fix_post	2		12.0	3.0	2.5	/experiments/knapen_aot/videos/S_comp_A105_C003_0212CT_FLARE_v10_SDR_PS_FINAL_20180711_SDR_2K_AVC.mp4	0.0	145.2808918952942	0.09988713264465332
6	14.33293104171753	fix_pre	0		48.0	4.0	2.5	/experiments/knapen_aot/videos/R_S_comp_HK_H004_C013_t9_6M_HB_tag0.mp4	0.0	145.38077902793884	0.39991188049316406
6	14.724695920944214	response	0	2		4.0	2.5	/experiments/knapen_aot/videos/R_S_comp_HK_H004_C013_t9_6M_HB_tag0.mp4	0.0	145.77254390716553	
6	14.732842922210693	movie	1		173.0	4.0	2.5	/experiments/knapen_aot/videos/R_S_comp_HK_H004_C013_t9_6M_HB_tag0.mp4	0.0	145.780690908432	2.5087180137634277
6	17.24156093597412	fix_post	2		12.0	4.0	2.5	/experiments/knapen_aot/videos/R_S_comp_HK_H004_C013_t9_6M_HB_tag0.mp4	0.0	148.28940892219543	0.09981799125671387
7	17.341378927230835	fix_pre	0		59.0	5.0	2.5	blank	1.0	148.38922691345215	0.4915339946746826
7	17.824713945388794	response	0	2		5.0	2.5	blank	1.0	148.8725619316101	
7	17.832912921905518	movie	1		301.0	5.0	2.5	blank	1.0	148.88076090812683	2.5086820125579834
7	20.3415949344635	fix_post	2		12.0	5.0	2.5	blank	1.0	151.38944292068481	0.09987211227416992
8	20.44146704673767	fix_pre	0		52.0	6.0	2.5	/experiments/knapen_aot/videos/R_S_yt-GBt59U0KUR0_6.mp4	0.0	151.48931503295898	0.43306493759155273
8	20.86640501022339	response	0	2		6.0	2.5	/experiments/knapen_aot/videos/R_S_yt-GBt59U0KUR0_6.mp4	0.0	151.9142529964447	
8	20.874531984329224	movie	1		301.0	6.0	2.5	/experiments/knapen_aot/videos/R_S_yt-GBt59U0KUR0_6.mp4	0.0	151.92237997055054	2.508466958999634
8	23.382998943328857	fix_post	2		12.0	6.0	2.5	/experiments/knapen_aot/videos/R_S_yt-GBt59U0KUR0_6.mp4	0.0	154.43084692955017	0.09989404678344727
9	23.482892990112305	fix_pre	0		53.0	7.0	2.5	/experiments/knapen_aot/videos/R_S_comp_N008_C009_PS_v01_SDR_PS_20180925_SDR_2K_AVC.mp4	0.0	154.53074097633362	0.44173502922058105
9	23.908926010131836	response	0	2		7.0	2.5	/experiments/knapen_aot/videos/R_S_comp_N008_C009_PS_v01_SDR_PS_20180925_SDR_2K_AVC.mp4	0.0	154.95677399635315	
9	23.924628019332886	movie	1		168.0	7.0	2.5	/experiments/knapen_aot/videos/R_S_comp_N008_C009_PS_v01_SDR_PS_20180925_SDR_2K_AVC.mp4	0.0	154.9724760055542	2.50827693939209
9	26.432904958724976	fix_post	2		12.0	7.0	2.5	/experiments/knapen_aot/videos/R_S_comp_N008_C009_PS_v01_SDR_PS_20180925_SDR_2K_AVC.mp4	0.0	157.4807529449463	0.10031890869140625
10	26.533223867416382	fix_pre	0		50.0	8.0	2.5	/experiments/knapen_aot/videos/R_S_wc-auTIuWLTxxkn_5.mp4	0.0	157.5810718536377	0.4164161682128906
10	26.941356897354126	response	0	2		8.0	2.5	/experiments/knapen_aot/videos/R_S_wc-auTIuWLTxxkn_5.mp4	0.0	157.98920488357544	
10	26.949640035629272	movie	1		165.0	8.0	2.5	/experiments/knapen_aot/videos/R_S_wc-auTIuWLTxxkn_5.mp4	0.0	157.9974880218506	2.508213996887207
10	29.45785403251648	fix_post	2		12.0	8.0	2.5	/experiments/knapen_aot/videos/R_S_wc-auTIuWLTxxkn_5.mp4	0.0	160.5057020187378	0.10002899169921875
11	29.5578830242157	fix_pre	0		90.0	9.0	2.5	/experiments/knapen_aot/videos/S_comp_CH_C007_C011_PSNK_v02_SDR_PS_FINAL_20180709_SDR_2K_AVC.mp4	0.0	160.605731010437	0.7499289512634277
11	30.299670934677124	response	0	2		9.0	2.5	/experiments/knapen_aot/videos/S_comp_CH_C007_C011_PSNK_v02_SDR_PS_FINAL_20180709_SDR_2K_AVC.mp4	0.0	161.34751892089844	
11	30.307811975479126	movie	1		170.0	9.0	2.5	/experiments/knapen_aot/videos/S_comp_CH_C007_C011_PSNK_v02_SDR_PS_FINAL_20180709_SDR_2K_AVC.mp4	0.0	161.35565996170044	2.508363962173462
11	32.81617593765259	fix_post	2		12.0	9.0	2.5	/experiments/knapen_aot/videos/S_comp_CH_C007_C011_PSNK_v02_SDR_PS_FINAL_20180709_SDR_2K_AVC.mp4	0.0	163.8640239238739	0.09995508193969727
12	32.916131019592285	fix_pre	0		36.0	10.0	2.5	/experiments/knapen_aot/videos/S_yt-v66td-1WO7w_44.mp4	0.0	163.9639790058136	0.300029993057251
12	33.20789694786072	response	0	2		10.0	2.5	/experiments/knapen_aot/videos/S_yt-v66td-1WO7w_44.mp4	0.0	164.25574493408203	
12	33.216161012649536	movie	1		301.0	10.0	2.5	/experiments/knapen_aot/videos/S_yt-v66td-1WO7w_44.mp4	0.0	164.26400899887085	2.508561849594116
12	35.72472286224365	fix_post	2		12.0	10.0	2.5	/experiments/knapen_aot/videos/S_yt-v66td-1WO7w_44.mp4	0.0	166.77257084846497	0.0999140739440918
13	35.824636936187744	fix_pre	0		43.0	11.0	2.5	/experiments/knapen_aot/videos/S_pexels-mikhail-nilov-8410063_1.mp4	0.0	166.87248492240906	0.35819196701049805
13	36.17466187477112	response	0	2		11.0	2.5	/experiments/knapen_aot/videos/S_pexels-mikhail-nilov-8410063_1.mp4	0.0	167.22250986099243	
13	36.18282890319824	movie	1		172.0	11.0	2.5	/experiments/knapen_aot/videos/S_pexels-mikhail-nilov-8410063_1.mp4	0.0	167.23067688941956	2.5083701610565186
13	38.69119906425476	fix_post	2		12.0	11.0	2.5	/experiments/knapen_aot/videos/S_pexels-mikhail-nilov-8410063_1.mp4	0.0	169.73904705047607	0.09994888305664062
14	38.7911479473114	fix_pre	0		39.0	12.0	2.5	/experiments/knapen_aot/videos/R_S_video_inspire_california_vineyard_sierra-mar_sunrise_110.1080-h264.mp4	0.0	169.83899593353271	0.3250770568847656
14	39.10794186592102	response	0	2		12.0	2.5	/experiments/knapen_aot/videos/R_S_video_inspire_california_vineyard_sierra-mar_sunrise_110.1080-h264.mp4	0.0	170.15578985214233	
14	39.11622500419617	movie	1		172.0	12.0	2.5	/experiments/knapen_aot/videos/R_S_video_inspire_california_vineyard_sierra-mar_sunrise_110.1080-h264.mp4	0.0	170.16407299041748	2.5082578659057617
14	41.62448287010193	fix_post	2		12.0	12.0	2.5	/experiments/knapen_aot/videos/R_S_video_inspire_california_vineyard_sierra-mar_sunrise_110.1080-h264.mp4	0.0	172.67233085632324	0.10001420974731445
15	41.72449707984924	fix_pre	0		50.0	13.0	2.5	blank	1.0	172.77234506607056	0.41666197776794434
15	42.13293409347534	response	0	2		13.0	2.5	blank	1.0	173.18078207969666	
15	42.14115905761719	movie	1		301.0	13.0	2.5	blank	1.0	173.1890070438385	2.5083329677581787
15	44.649492025375366	fix_post	2		12.0	13.0	2.5	blank	1.0	175.69734001159668	0.1000208854675293
16	44.749512910842896	fix_pre	0		56.0	14.0	2.5	/experiments/knapen_aot/videos/S_production_ID_4057155.mp4	0.0	175.7973608970642	0.4665961265563965
16	45.20039892196655	response	0	2		14.0	2.5	/experiments/knapen_aot/videos/S_production_ID_4057155.mp4	0.0	176.24824690818787	
16	45.21610903739929	movie	1		191.0	14.0	2.5	/experiments/knapen_aot/videos/S_production_ID_4057155.mp4	0.0	176.2639570236206	2.50833797454834
16	47.72444701194763	fix_post	2		12.0	14.0	2.5	/experiments/knapen_aot/videos/S_production_ID_4057155.mp4	0.0	178.77229499816895	0.10007905960083008
17	47.82452607154846	fix_pre	0		49.0	15.0	2.5	/experiments/knapen_aot/videos/R_S_yt-Q4edV5qiqu0_578.mp4	0.0	178.87237405776978	0.40827083587646484
17	48.224595069885254	response	0	2		15.0	2.5	/experiments/knapen_aot/videos/R_S_yt-Q4edV5qiqu0_578.mp4	0.0	179.27244305610657	
17	48.23279690742493	movie	1		301.0	15.0	2.5	/experiments/knapen_aot/videos/R_S_yt-Q4edV5qiqu0_578.mp4	0.0	179.28064489364624	2.5083720684051514
17	50.74116897583008	fix_post	2		12.0	15.0	2.5	/experiments/knapen_aot/videos/R_S_yt-Q4edV5qiqu0_578.mp4	0.0	181.7890169620514	0.0999600887298584
18	50.84112906455994	fix_pre	0		59.0	16.0	2.5	/experiments/knapen_aot/videos/R_S_ILSVRC2015_train_00379000.mp4	0.0	181.88897705078125	0.4916069507598877
18	51.32468605041504	response	0	2		16.0	2.5	/experiments/knapen_aot/videos/R_S_ILSVRC2015_train_00379000.mp4	0.0	182.37253403663635	
18	51.332736015319824	movie	1		301.0	16.0	2.5	/experiments/knapen_aot/videos/R_S_ILSVRC2015_train_00379000.mp4	0.0	182.38058400154114	2.5083699226379395
18	53.841105937957764	fix_post	2		12.0	16.0	2.5	/experiments/knapen_aot/videos/R_S_ILSVRC2015_train_00379000.mp4	0.0	184.88895392417908	0.10029006004333496
19	53.9413959980011	fix_pre	0		55.0	17.0	2.5	/experiments/knapen_aot/videos/R_S_yt-uT4MXm0UBJM_64.mp4	0.0	184.9892439842224	0.4580368995666504
19	54.39125895500183	response	0	2		17.0	2.5	/experiments/knapen_aot/videos/R_S_yt-uT4MXm0UBJM_64.mp4	0.0	185.43910694122314	
19	54.39943289756775	movie	1		301.0	17.0	2.5	/experiments/knapen_aot/videos/R_S_yt-uT4MXm0UBJM_64.mp4	0.0	185.44728088378906	2.5083460807800293
19	56.90777897834778	fix_post	2		12.0	17.0	2.5	/experiments/knapen_aot/videos/R_S_yt-uT4MXm0UBJM_64.mp4	0.0	187.9556269645691	0.09993410110473633
20	57.007713079452515	fix_pre	0		147.0	18.0	2.5	/experiments/knapen_aot/videos/S_yt-GBt59U0KUR0_6.mp4	0.0	188.05556106567383	1.2265779972076416
20	58.22461700439453	response	0	2		18.0	2.5	/experiments/knapen_aot/videos/S_yt-GBt59U0KUR0_6.mp4	0.0	189.27246499061584	
20	58.234291076660156	movie	1		301.0	18.0	2.5	/experiments/knapen_aot/videos/S_yt-GBt59U0KUR0_6.mp4	0.0	189.28213906288147	2.507002830505371
20	60.74129390716553	fix_post	2		12.0	18.0	2.5	/experiments/knapen_aot/videos/S_yt-GBt59U0KUR0_6.mp4	0.0	191.78914189338684	0.0998070240020752
21	60.8411009311676	fix_pre	0		44.0	19.0	2.5	/experiments/knapen_aot/videos/S_comp_HK_H004_C013_t9_6M_HB_tag0.mp4	0.0	191.88894891738892	0.3665781021118164
21	61.19955801963806	response	0	2		19.0	2.5	/experiments/knapen_aot/videos/S_comp_HK_H004_C013_t9_6M_HB_tag0.mp4	0.0	192.24740600585938	
21	61.20767903327942	movie	1		174.0	19.0	2.5	/experiments/knapen_aot/videos/S_comp_HK_H004_C013_t9_6M_HB_tag0.mp4	0.0	192.25552701950073	2.5083529949188232
21	63.71603202819824	fix_post	2		12.0	19.0	2.5	/experiments/knapen_aot/videos/S_comp_HK_H004_C013_t9_6M_HB_tag0.mp4	0.0	194.76388001441956	0.09999799728393555
22	63.81603002548218	fix_pre	0		43.0	20.0	2.5	blank	1.0	194.8638780117035	0.35825490951538086
22	64.16618490219116	response	0	2		20.0	2.5	blank	1.0	195.21403288841248	
22	64.17428493499756	movie	1		301.0	20.0	2.5	blank	1.0	195.22213292121887	2.5084190368652344
22	66.6827039718628	fix_post	2		12.0	20.0	2.5	blank	1.0	197.7305519580841	0.1000220775604248
23	66.78272604942322	fix_pre	0		53.0	21.0	2.5	/experiments/knapen_aot/videos/R_S_yt-BqJHT4K7Qf8_127.mp4	0.0	197.83057403564453	0.4416468143463135
23	67.2161979675293	response	0	2		21.0	2.5	/experiments/knapen_aot/videos/R_S_yt-BqJHT4K7Qf8_127.mp4	0.0	198.2640459537506	
23	67.22437286376953	movie	1		301.0	21.0	2.5	/experiments/knapen_aot/videos/R_S_yt-BqJHT4K7Qf8_127.mp4	0.0	198.27222084999084	2.5083351135253906
23	69.73270797729492	fix_post	2		12.0	21.0	2.5	/experiments/knapen_aot/videos/R_S_yt-BqJHT4K7Qf8_127.mp4	0.0	200.78055596351624	0.09992289543151855
24	69.83263087272644	fix_pre	0		47.0	22.0	2.5	/experiments/knapen_aot/videos/R_S_yt-UKrWbJEs7pw_74.mp4	0.0	200.88047885894775	0.3917059898376465
24	70.21615600585938	response	0	2		22.0	2.5	/experiments/knapen_aot/videos/R_S_yt-UKrWbJEs7pw_74.mp4	0.0	201.2640039920807	
24	70.22433686256409	movie	1		301.0	22.0	2.5	/experiments/knapen_aot/videos/R_S_yt-UKrWbJEs7pw_74.mp4	0.0	201.2721848487854	2.508376121520996
24	72.73271298408508	fix_post	2		12.0	22.0	2.5	/experiments/knapen_aot/videos/R_S_yt-UKrWbJEs7pw_74.mp4	0.0	203.7805609703064	0.09999704360961914
25	72.8327100276947	fix_pre	0		37.0	23.0	2.5	/experiments/knapen_aot/videos/S_wc-auTIuWLTxxkn_5.mp4	0.0	203.88055801391602	0.3083670139312744
25	73.13280892372131	response	0	2		23.0	2.5	/experiments/knapen_aot/videos/S_wc-auTIuWLTxxkn_5.mp4	0.0	204.18065690994263	
25	73.14107704162598	movie	1		198.0	23.0	2.5	/experiments/knapen_aot/videos/S_wc-auTIuWLTxxkn_5.mp4	0.0	204.1889250278473	2.508281946182251
25	75.64935898780823	fix_post	2		12.0	23.0	2.5	/experiments/knapen_aot/videos/S_wc-auTIuWLTxxkn_5.mp4	0.0	206.69720697402954	0.10004997253417969
26	75.74940896034241	fix_pre	0		45.0	24.0	2.5	/experiments/knapen_aot/videos/R_S_yt-ObT9gF8E_tU_250.mp4	0.0	206.79725694656372	0.37489891052246094
26	76.10864591598511	response	0	2		24.0	2.5	/experiments/knapen_aot/videos/R_S_yt-ObT9gF8E_tU_250.mp4	0.0	207.15649390220642	
26	76.12430787086487	movie	1		301.0	24.0	2.5	/experiments/knapen_aot/videos/R_S_yt-ObT9gF8E_tU_250.mp4	0.0	207.17215585708618	2.5083792209625244
26	78.63268709182739	fix_post	2		12.0	24.0	2.5	/experiments/knapen_aot/videos/R_S_yt-ObT9gF8E_tU_250.mp4	0.0	209.6805350780487	0.0999758243560791
27	78.73266291618347	fix_pre	0		46.0	25.0	2.5	/experiments/knapen_aot/videos/R_S_yt-LGwEki4ghNw_69.mp4	0.0	209.78051090240479	0.3833141326904297
27	79.10778594017029	response	0	2		25.0	2.5	/experiments/knapen_aot/videos/R_S_yt-LGwEki4ghNw_69.mp4	0.0	210.1556339263916	
27	79.1159770488739	movie	1		301.0	25.0	2.5	/experiments/knapen_aot/videos/R_S_yt-LGwEki4ghNw_69.mp4	0.0	210.16382503509521	2.5083749294281006
27	81.624351978302	fix_post	2		12.0	25.0	2.5	/experiments/knapen_aot/videos/R_S_yt-LGwEki4ghNw_69.mp4	0.0	212.67219996452332	0.09989809989929199
28	81.7242500782013	fix_pre	0		44.0	26.0	2.5	blank	1.0	212.7720980644226	0.36667490005493164
28	82.0751850605011	response	0	2		26.0	2.5	blank	1.0	213.1230330467224	
28	82.09092497825623	movie	1		301.0	26.0	2.5	blank	1.0	213.13877296447754	2.5083119869232178
28	84.59923696517944	fix_post	2		12.0	26.0	2.5	blank	1.0	215.64708495140076	0.10013389587402344
29	84.69937086105347	fix_pre	0		54.0	27.0	2.5	/experiments/knapen_aot/videos/S_ILSVRC2015_train_00479004.mp4	0.0	215.74721884727478	0.45118021965026855
29	85.14108490943909	response	0	2		27.0	2.5	/experiments/knapen_aot/videos/S_ILSVRC2015_train_00479004.mp4	0.0	216.1889328956604	
29	85.15055108070374	movie	1		301.0	27.0	2.5	/experiments/knapen_aot/videos/S_ILSVRC2015_train_00479004.mp4	0.0	216.19839906692505	2.5070369243621826
29	87.65758800506592	fix_post	2		12.0	27.0	2.5	/experiments/knapen_aot/videos/S_ILSVRC2015_train_00479004.mp4	0.0	218.70543599128723	0.10003805160522461
30	87.75762605667114	fix_pre	0		37.0	28.0	2.5	/experiments/knapen_aot/videos/S_yt-TBY8F6UMnJQ_51.mp4	0.0	218.80547404289246	0.309553861618042
30	88.0577130317688	response	0	2		28.0	2.5	/experiments/knapen_aot/videos/S_yt-TBY8F6UMnJQ_51.mp4	0.0	219.1055610179901	
30	88.06717991828918	movie	1		301.0	28.0	2.5	/experiments/knapen_aot/videos/S_yt-TBY8F6UMnJQ_51.mp4	0.0	219.1150279045105	2.507167100906372
30	90.57434701919556	fix_post	2		12.0	28.0	2.5	/experiments/knapen_aot/videos/S_yt-TBY8F6UMnJQ_51.mp4	0.0	221.62219500541687	0.09999990463256836
31	90.67434692382812	fix_pre	0		41.0	29.0	2.5	/experiments/knapen_aot/videos/R_S_yt-0bovQBIUZho_15.mp4	0.0	221.72219491004944	0.34160900115966797
31	91.00015997886658	response	0	2		29.0	2.5	/experiments/knapen_aot/videos/R_S_yt-0bovQBIUZho_15.mp4	0.0	222.0480079650879	
31	91.0159559249878	movie	1		301.0	29.0	2.5	/experiments/knapen_aot/videos/R_S_yt-0bovQBIUZho_15.mp4	0.0	222.0638039112091	2.508389949798584
31	93.52434587478638	fix_post	2		12.0	29.0	2.5	/experiments/knapen_aot/videos/R_S_yt-0bovQBIUZho_15.mp4	0.0	224.5721938610077	0.09995698928833008
32	93.6243028640747	fix_pre	0		52.0	30.0	2.5	/experiments/knapen_aot/videos/R_S_yt-B7ZRYVhfW2U_52.mp4	0.0	224.67215085029602	0.4333221912384033
32	94.04934000968933	response	0	2		30.0	2.5	/experiments/knapen_aot/videos/R_S_yt-B7ZRYVhfW2U_52.mp4	0.0	225.09718799591064	
32	94.05762505531311	movie	1		301.0	30.0	2.5	/experiments/knapen_aot/videos/R_S_yt-B7ZRYVhfW2U_52.mp4	0.0	225.10547304153442	2.5083038806915283
32	96.56592893600464	fix_post	2		12.0	30.0	2.5	/experiments/knapen_aot/videos/R_S_yt-B7ZRYVhfW2U_52.mp4	0.0	227.61377692222595	0.09996199607849121
33	96.66589093208313	fix_pre	0		51.0	31.0	2.5	/experiments/knapen_aot/videos/S_yt-fQgLKiz2tuM_14.mp4	0.0	227.71373891830444	0.4249839782714844
33	97.08270597457886	response	0	2		31.0	2.5	/experiments/knapen_aot/videos/S_yt-fQgLKiz2tuM_14.mp4	0.0	228.13055396080017	
33	97.09087491035461	movie	1		301.0	31.0	2.5	/experiments/knapen_aot/videos/S_yt-fQgLKiz2tuM_14.mp4	0.0	228.13872289657593	2.508594036102295
33	99.59946894645691	fix_post	2		12.0	31.0	2.5	/experiments/knapen_aot/videos/S_yt-fQgLKiz2tuM_14.mp4	0.0	230.64731693267822	0.09976696968078613
34	99.6992359161377	fix_pre	0		47.0	32.0	2.5	/experiments/knapen_aot/videos/S_yt-4i1b6NQ9NKs_5.mp4	0.0	230.747083902359	0.3916289806365967
34	100.08279585838318	response	0	2		32.0	2.5	/experiments/knapen_aot/videos/S_yt-4i1b6NQ9NKs_5.mp4	0.0	231.1306438446045	
34	100.09086489677429	movie	1		301.0	32.0	2.5	/experiments/knapen_aot/videos/S_yt-4i1b6NQ9NKs_5.mp4	0.0	231.1387128829956	2.5083491802215576
34	102.59921407699585	fix_post	2		12.0	32.0	2.5	/experiments/knapen_aot/videos/S_yt-4i1b6NQ9NKs_5.mp4	0.0	233.64706206321716	0.10001277923583984
35	102.69922685623169	fix_pre	0		50.0	33.0	2.5	/experiments/knapen_aot/videos/R_S_yt-MWX0EtpWIs8_286.mp4	0.0	233.747074842453	0.4166831970214844
35	103.1077630519867	response	0	2		33.0	2.5	/experiments/knapen_aot/videos/R_S_yt-MWX0EtpWIs8_286.mp4	0.0	234.155611038208	
35	103.11591005325317	movie	1		301.0	33.0	2.5	/experiments/knapen_aot/videos/R_S_yt-MWX0EtpWIs8_286.mp4	0.0	234.1637580394745	2.508312940597534
35	105.62422299385071	fix_post	2		12.0	33.0	2.5	/experiments/knapen_aot/videos/R_S_yt-MWX0EtpWIs8_286.mp4	0.0	236.67207098007202	0.10000109672546387
36	105.72422409057617	fix_pre	0		55.0	34.0	2.5	/experiments/knapen_aot/videos/S_Pexels_Videos_2795737.mp4	0.0	236.77207207679749	0.45830583572387695
36	106.17437696456909	response	0	2		34.0	2.5	/experiments/knapen_aot/videos/S_Pexels_Videos_2795737.mp4	0.0	237.2222249507904	
36	106.18252992630005	movie	1		171.0	34.0	2.5	/experiments/knapen_aot/videos/S_Pexels_Videos_2795737.mp4	0.0	237.23037791252136	2.508368968963623
36	108.69089889526367	fix_post	2		12.0	34.0	2.5	/experiments/knapen_aot/videos/S_Pexels_Videos_2795737.mp4	0.0	239.73874688148499	0.10003805160522461
37	108.7909369468689	fix_pre	0		51.0	35.0	2.5	blank	1.0	239.8387849330902	0.4249269962310791
37	109.20765399932861	response	0	2		35.0	2.5	blank	1.0	240.25550198554993	
37	109.21586394309998	movie	1		301.0	35.0	2.5	blank	1.0	240.2637119293213	2.5083811283111572
37	111.72424507141113	fix_post	2		12.0	35.0	2.5	blank	1.0	242.77209305763245	0.09996390342712402
38	111.82420897483826	fix_pre	0		74.0	36.0	2.5	/experiments/knapen_aot/videos/S_yt-wPXrAuiiRZg_1062.mp4	0.0	242.87205696105957	0.6178441047668457
38	112.43265104293823	response	0	2		36.0	2.5	/experiments/knapen_aot/videos/S_yt-wPXrAuiiRZg_1062.mp4	0.0	243.48049902915955	
38	112.4420530796051	movie	1		301.0	36.0	2.5	/experiments/knapen_aot/videos/S_yt-wPXrAuiiRZg_1062.mp4	0.0	243.48990106582642	2.507152795791626
38	114.94920587539673	fix_post	2		12.0	36.0	2.5	/experiments/knapen_aot/videos/S_yt-wPXrAuiiRZg_1062.mp4	0.0	245.99705386161804	0.09995913505554199
39	115.04916501045227	fix_pre	0		47.0	37.0	2.5	/experiments/knapen_aot/videos/S_I003_C008_SDR_2K_AVC.mp4	0.0	246.09701299667358	0.3931748867034912
39	115.43265795707703	response	0	2		37.0	2.5	/experiments/knapen_aot/videos/S_I003_C008_SDR_2K_AVC.mp4	0.0	246.48050594329834	
39	115.44233989715576	movie	1		172.0	37.0	2.5	/experiments/knapen_aot/videos/S_I003_C008_SDR_2K_AVC.mp4	0.0	246.49018788337708	2.506901979446411
39	117.94924187660217	fix_post	2		12.0	37.0	2.5	/experiments/knapen_aot/videos/S_I003_C008_SDR_2K_AVC.mp4	0.0	248.9970898628235	0.09996509552001953
40	118.04920697212219	fix_pre	0		30.0	38.0	2.5	/experiments/knapen_aot/videos/R_S_production_ID_3943965.mp4	0.0	249.0970549583435	0.24997901916503906
40	118.29094696044922	response	0	2		38.0	2.5	/experiments/knapen_aot/videos/R_S_production_ID_3943965.mp4	0.0	249.33879494667053	
40	118.29918599128723	movie	1		207.0	38.0	2.5	/experiments/knapen_aot/videos/R_S_production_ID_3943965.mp4	0.0	249.34703397750854	2.5084478855133057
40	120.80763387680054	fix_post	2		12.0	38.0	2.5	/experiments/knapen_aot/videos/R_S_production_ID_3943965.mp4	0.0	251.85548186302185	0.09989404678344727
41	120.90752792358398	fix_pre	0		45.0	39.0	2.5	/experiments/knapen_aot/videos/R_S_yt-gC3my54_ChQ_58.mp4	0.0	251.9553759098053	0.37493014335632324
41	121.2743010520935	response	0	2		39.0	2.5	/experiments/knapen_aot/videos/R_S_yt-gC3my54_ChQ_58.mp4	0.0	252.32214903831482	
41	121.28245806694031	movie	1		301.0	39.0	2.5	/experiments/knapen_aot/videos/R_S_yt-gC3my54_ChQ_58.mp4	0.0	252.33030605316162	2.5083799362182617
41	123.79083800315857	fix_post	2		12.0	39.0	2.5	/experiments/knapen_aot/videos/R_S_yt-gC3my54_ChQ_58.mp4	0.0	254.83868598937988	0.10002589225769043
42	123.89086389541626	fix_pre	0		94.0	40.0	2.5	/experiments/knapen_aot/videos/R_S_yt-QJHe-CoK4iI_170.mp4	0.0	254.93871188163757	0.7832880020141602
42	124.66594004631042	response	0	2		40.0	2.5	/experiments/knapen_aot/videos/R_S_yt-QJHe-CoK4iI_170.mp4	0.0	255.71378803253174	
42	124.67415189743042	movie	1		301.0	40.0	2.5	/experiments/knapen_aot/videos/R_S_yt-QJHe-CoK4iI_170.mp4	0.0	255.72199988365173	2.5082931518554688
42	127.18244504928589	fix_post	2		12.0	40.0	2.5	/experiments/knapen_aot/videos/R_S_yt-QJHe-CoK4iI_170.mp4	0.0	258.2302930355072	0.09999990463256836
43	127.28244495391846	fix_pre	0		37.0	41.0	2.5	/experiments/knapen_aot/videos/S_yt-Ndwek2tpIOA_169.mp4	0.0	258.33029294013977	0.30829811096191406
43	127.58252596855164	response	0	2		41.0	2.5	/experiments/knapen_aot/videos/S_yt-Ndwek2tpIOA_169.mp4	0.0	258.63037395477295	
43	127.59074306488037	movie	1		301.0	41.0	2.5	/experiments/knapen_aot/videos/S_yt-Ndwek2tpIOA_169.mp4	0.0	258.6385910511017	2.5085608959198
43	130.09930396080017	fix_post	2		12.0	41.0	2.5	/experiments/knapen_aot/videos/S_yt-Ndwek2tpIOA_169.mp4	0.0	261.1471519470215	0.10007190704345703
44	130.19937586784363	fix_pre	0		63.0	42.0	2.5	blank	1.0	261.24722385406494	0.5247440338134766
44	130.71579098701477	response	0	2		42.0	2.5	blank	1.0	261.7636389732361	
44	130.7241199016571	movie	1		301.0	42.0	2.5	blank	1.0	261.7719678878784	2.5083110332489014
44	133.232430934906	fix_post	2		12.0	42.0	2.5	blank	1.0	264.2802789211273	0.10008096694946289
45	133.33251190185547	fix_pre	0		38.0	43.0	2.5	/experiments/knapen_aot/videos/S_yt-gOoDjhfSPj0_162.mp4	0.0	264.3803598880768	0.31751513481140137
45	133.6408450603485	response	0	2		43.0	2.5	/experiments/knapen_aot/videos/S_yt-gOoDjhfSPj0_162.mp4	0.0	264.6886930465698	
45	133.65002703666687	movie	1		301.0	43.0	2.5	/experiments/knapen_aot/videos/S_yt-gOoDjhfSPj0_162.mp4	0.0	264.6978750228882	2.5074000358581543
45	136.15742707252502	fix_post	2		12.0	43.0	2.5	/experiments/knapen_aot/videos/S_yt-gOoDjhfSPj0_162.mp4	0.0	267.20527505874634	0.10000491142272949
46	136.25743198394775	fix_pre	0		39.0	44.0	2.5	/experiments/knapen_aot/videos/R_S_yt-wPXrAuiiRZg_1062.mp4	0.0	267.30527997016907	0.3249630928039551
46	136.574294090271	response	0	2		44.0	2.5	/experiments/knapen_aot/videos/R_S_yt-wPXrAuiiRZg_1062.mp4	0.0	267.6221420764923	
46	136.5823950767517	movie	1		301.0	44.0	2.5	/experiments/knapen_aot/videos/R_S_yt-wPXrAuiiRZg_1062.mp4	0.0	267.630243062973	2.50830078125
46	139.0906958580017	fix_post	2		12.0	44.0	2.5	/experiments/knapen_aot/videos/R_S_yt-wPXrAuiiRZg_1062.mp4	0.0	270.138543844223	0.10002613067626953
47	139.19072198867798	fix_pre	0		133.0	45.0	2.5	/experiments/knapen_aot/videos/S_yt-IigHVUksnw8_7.mp4	0.0	270.2385699748993	1.108246088027954
47	140.290874004364	response	0	2		45.0	2.5	/experiments/knapen_aot/videos/S_yt-IigHVUksnw8_7.mp4	0.0	271.3387219905853	
47	140.29896807670593	movie	1		301.0	45.0	2.5	/experiments/knapen_aot/videos/S_yt-IigHVUksnw8_7.mp4	0.0	271.34681606292725	2.508453845977783
47	142.80742192268372	fix_post	2		12.0	45.0	2.5	/experiments/knapen_aot/videos/S_yt-IigHVUksnw8_7.mp4	0.0	273.85526990890503	0.09998798370361328
48	142.90740990638733	fix_pre	0		23.0	46.0	2.5	/experiments/knapen_aot/videos/S_yt-n2PnABmSpxI_115.mp4	0.0	273.95525789260864	0.19158506393432617
48	143.0908260345459	response	0	2		46.0	2.5	/experiments/knapen_aot/videos/S_yt-n2PnABmSpxI_115.mp4	0.0	274.1386740207672	
48	143.09899497032166	movie	1		301.0	46.0	2.5	/experiments/knapen_aot/videos/S_yt-n2PnABmSpxI_115.mp4	0.0	274.14684295654297	2.5083699226379395
48	145.6073648929596	fix_post	2		12.0	46.0	2.5	/experiments/knapen_aot/videos/S_yt-n2PnABmSpxI_115.mp4	0.0	276.6552128791809	0.10002517700195312
49	145.70739006996155	fix_pre	0		33.0	47.0	2.5	blank	1.0	276.75523805618286	0.274979829788208
49	145.96677207946777	response	0	2		47.0	2.5	blank	1.0	277.0146200656891	
49	145.98236989974976	movie	1		301.0	47.0	2.5	blank	1.0	277.03021788597107	2.50829815864563
49	148.49066805839539	fix_post	2		12.0	47.0	2.5	blank	1.0	279.5385160446167	0.10002899169921875
50	148.5906970500946	fix_pre	0		67.0	48.0	2.5	/experiments/knapen_aot/videos/R_S_wc-eJe3wXMgTLRV_20.mp4	0.0	279.6385450363159	0.5593409538269043
50	149.14082407951355	response	0	2		48.0	2.5	/experiments/knapen_aot/videos/R_S_wc-eJe3wXMgTLRV_20.mp4	0.0	280.18867206573486	
50	149.1500380039215	movie	1		165.0	48.0	2.5	/experiments/knapen_aot/videos/R_S_wc-eJe3wXMgTLRV_20.mp4	0.0	280.1978859901428	2.5075550079345703
50	151.65759301185608	fix_post	2		12.0	48.0	2.5	/experiments/knapen_aot/videos/R_S_wc-eJe3wXMgTLRV_20.mp4	0.0	282.7054409980774	0.0997319221496582
51	151.75732493400574	fix_pre	0		36.0	49.0	2.5	/experiments/knapen_aot/videos/R_S_yt-eF5J5Kjt6oY_23.mp4	0.0	282.80517292022705	0.2999739646911621
51	152.04911708831787	response	0	2		49.0	2.5	/experiments/knapen_aot/videos/R_S_yt-eF5J5Kjt6oY_23.mp4	0.0	283.0969650745392	
51	152.0572988986969	movie	1		301.0	49.0	2.5	/experiments/knapen_aot/videos/R_S_yt-eF5J5Kjt6oY_23.mp4	0.0	283.1051468849182	2.5083789825439453
51	154.56567788124084	fix_post	2		12.0	49.0	2.5	/experiments/knapen_aot/videos/R_S_yt-eF5J5Kjt6oY_23.mp4	0.0	285.61352586746216	0.10001897811889648
52	154.66569685935974	fix_pre	0		104.0	50.0	2.5	/experiments/knapen_aot/videos/R_S_yt-HMAa2QbfFPI_216.mp4	0.0	285.71354484558105	0.8666110038757324
52	155.52415108680725	response	0	2		50.0	2.5	/experiments/knapen_aot/videos/R_S_yt-HMAa2QbfFPI_216.mp4	0.0	286.57199907302856	
52	155.53230786323547	movie	1		301.0	50.0	2.5	/experiments/knapen_aot/videos/R_S_yt-HMAa2QbfFPI_216.mp4	0.0	286.5801558494568	2.508338212966919
52	158.0406460762024	fix_post	2		12.0	50.0	2.5	/experiments/knapen_aot/videos/R_S_yt-HMAa2QbfFPI_216.mp4	0.0	289.0884940624237	0.10002684593200684
53	158.1406729221344	fix_pre	0		32.0	51.0	2.5	/experiments/knapen_aot/videos/S_wc-Mf8SQpviaD6D_17.mp4	0.0	289.1885209083557	0.26662302017211914
53	158.39906287193298	response	0	2		51.0	2.5	/experiments/knapen_aot/videos/S_wc-Mf8SQpviaD6D_17.mp4	0.0	289.4469108581543	
53	158.40729594230652	movie	1		178.0	51.0	2.5	/experiments/knapen_aot/videos/S_wc-Mf8SQpviaD6D_17.mp4	0.0	289.45514392852783	2.508324146270752
53	160.91562008857727	fix_post	2		12.0	51.0	2.5	/experiments/knapen_aot/videos/S_wc-Mf8SQpviaD6D_17.mp4	0.0	291.9634680747986	0.10027599334716797
54	161.01589608192444	fix_pre	0		56.0	52.0	2.5	/experiments/knapen_aot/videos/R_S_yt-waWM9vAfsIw_116.mp4	0.0	292.06374406814575	0.4671659469604492
54	161.47408294677734	response	0	2		52.0	2.5	/experiments/knapen_aot/videos/R_S_yt-waWM9vAfsIw_116.mp4	0.0	292.52193093299866	
54	161.4830620288849	movie	1		301.0	52.0	2.5	/experiments/knapen_aot/videos/R_S_yt-waWM9vAfsIw_116.mp4	0.0	292.5309100151062	2.5075738430023193
54	163.9906358718872	fix_post	2		12.0	52.0	2.5	/experiments/knapen_aot/videos/R_S_yt-waWM9vAfsIw_116.mp4	0.0	295.0384838581085	0.09996700286865234
55	164.09060287475586	fix_pre	0		21.0	53.0	2.5	/experiments/knapen_aot/videos/R_S_yt-FhnT_42bV7M_11.mp4	0.0	295.1384508609772	0.17501115798950195
55	164.25737690925598	response	0	2		53.0	2.5	/experiments/knapen_aot/videos/R_S_yt-FhnT_42bV7M_11.mp4	0.0	295.3052248954773	
55	164.26561403274536	movie	1		301.0	53.0	2.5	/experiments/knapen_aot/videos/R_S_yt-FhnT_42bV7M_11.mp4	0.0	295.3134620189667	2.5083329677581787
55	166.77394700050354	fix_post	2		12.0	53.0	2.5	/experiments/knapen_aot/videos/R_S_yt-FhnT_42bV7M_11.mp4	0.0	297.82179498672485	0.10003995895385742
56	166.8739869594574	fix_pre	0		33.0	54.0	2.5	/experiments/knapen_aot/videos/S_pexels-pavel-danilyuk-8626652.mp4	0.0	297.9218349456787	0.2758300304412842
56	167.14073300361633	response	0	2		54.0	2.5	/experiments/knapen_aot/videos/S_pexels-pavel-danilyuk-8626652.mp4	0.0	298.18858098983765	
56	167.14981698989868	movie	1		168.0	54.0	2.5	/experiments/knapen_aot/videos/S_pexels-pavel-danilyuk-8626652.mp4	0.0	298.19766497612	2.5074870586395264
56	169.6573040485382	fix_post	2		12.0	54.0	2.5	/experiments/knapen_aot/videos/S_pexels-pavel-danilyuk-8626652.mp4	0.0	300.7051520347595	0.09997391700744629
57	169.75727796554565	fix_pre	0		58.0	55.0	2.5	blank	1.0	300.80512595176697	0.48322510719299316
57	170.2323808670044	response	0	2		55.0	2.5	blank	1.0	301.2802288532257	
57	170.24050307273865	movie	1		301.0	55.0	2.5	blank	1.0	301.28835105895996	2.5086159706115723
57	172.74911904335022	fix_post	2		12.0	55.0	2.5	blank	1.0	303.79696702957153	0.09972882270812988
58	172.84884786605835	fix_pre	0		48.0	56.0	2.5	/experiments/knapen_aot/videos/R_S_yt-dESxu60Cl10_24.mp4	0.0	303.89669585227966	0.40003418922424316
58	173.24065709114075	response	0	2		56.0	2.5	/experiments/knapen_aot/videos/R_S_yt-dESxu60Cl10_24.mp4	0.0	304.28850507736206	
58	173.2488820552826	movie	1		301.0	56.0	2.5	/experiments/knapen_aot/videos/R_S_yt-dESxu60Cl10_24.mp4	0.0	304.2967300415039	2.508335828781128
58	175.75721788406372	fix_post	2		12.0	56.0	2.5	/experiments/knapen_aot/videos/R_S_yt-dESxu60Cl10_24.mp4	0.0	306.80506587028503	0.10010814666748047
59	175.8573260307312	fix_pre	0		176.0	57.0	2.5	/experiments/knapen_aot/videos/R_S_yt-2i53vKte7SA_117.mp4	0.0	306.9051740169525	1.4665579795837402
59	177.3156759738922	response	0	2		57.0	2.5	/experiments/knapen_aot/videos/R_S_yt-2i53vKte7SA_117.mp4	0.0	308.3635239601135	
59	177.32388401031494	movie	1		301.0	57.0	2.5	/experiments/knapen_aot/videos/R_S_yt-2i53vKte7SA_117.mp4	0.0	308.37173199653625	2.5085549354553223
59	179.83243894577026	fix_post	2		12.0	57.0	2.5	/experiments/knapen_aot/videos/R_S_yt-2i53vKte7SA_117.mp4	0.0	310.8802869319916	0.09977912902832031
60	179.93221807479858	fix_pre	0		18.0	58.0	2.5	/experiments/knapen_aot/videos/R_S_yt-wz2opOBqClo_14.mp4	0.0	310.9800660610199	0.1499488353729248
60	180.07408905029297	response	0	2		58.0	2.5	/experiments/knapen_aot/videos/R_S_yt-wz2opOBqClo_14.mp4	0.0	311.1219370365143	
60	180.0821669101715	movie	1		301.0	58.0	2.5	/experiments/knapen_aot/videos/R_S_yt-wz2opOBqClo_14.mp4	0.0	311.1300148963928	2.508373975753784
60	182.5905408859253	fix_post	2		12.0	58.0	2.5	/experiments/knapen_aot/videos/R_S_yt-wz2opOBqClo_14.mp4	0.0	313.6383888721466	0.10073304176330566
61	182.6912739276886	fix_pre	0		29.0	59.0	2.5	/experiments/knapen_aot/videos/R_S_yt-foGMTdxewBI_43.mp4	0.0	313.7391219139099	0.24087810516357422
61	182.92398691177368	response	0	2		59.0	2.5	/experiments/knapen_aot/videos/R_S_yt-foGMTdxewBI_43.mp4	0.0	313.971834897995	
61	182.93215203285217	movie	1		301.0	59.0	2.5	/experiments/knapen_aot/videos/R_S_yt-foGMTdxewBI_43.mp4	0.0	313.9800000190735	2.508533000946045
61	185.44068503379822	fix_post	2		12.0	59.0	2.5	/experiments/knapen_aot/videos/R_S_yt-foGMTdxewBI_43.mp4	0.0	316.48853302001953	0.09986591339111328
62	185.54055094718933	fix_pre	0		23.0	60.0	2.5	/experiments/knapen_aot/videos/S_yt-fryIS5Itzig_124.mp4	0.0	316.58839893341064	0.19229912757873535
62	185.72399306297302	response	0	2		60.0	2.5	/experiments/knapen_aot/videos/S_yt-fryIS5Itzig_124.mp4	0.0	316.77184104919434	
62	185.73285007476807	movie	1		301.0	60.0	2.5	/experiments/knapen_aot/videos/S_yt-fryIS5Itzig_124.mp4	0.0	316.7806980609894	2.5079050064086914
62	188.24075508117676	fix_post	2		12.0	60.0	2.5	/experiments/knapen_aot/videos/S_yt-fryIS5Itzig_124.mp4	0.0	319.28860306739807	0.09981489181518555
63	188.34056997299194	fix_pre	0		33.0	61.0	2.5	/experiments/knapen_aot/videos/S_yt-rlEPywo5BEQ_36.mp4	0.0	319.38841795921326	0.27504396438598633
63	188.6072919368744	response	0	2		61.0	2.5	/experiments/knapen_aot/videos/S_yt-rlEPywo5BEQ_36.mp4	0.0	319.6551399230957	
63	188.61561393737793	movie	1		301.0	61.0	2.5	/experiments/knapen_aot/videos/S_yt-rlEPywo5BEQ_36.mp4	0.0	319.66346192359924	2.5082380771636963
63	191.12385201454163	fix_post	2		12.0	61.0	2.5	/experiments/knapen_aot/videos/S_yt-rlEPywo5BEQ_36.mp4	0.0	322.17170000076294	0.10010600090026855
64	191.2239580154419	fix_pre	0		28.0	62.0	2.5	blank	1.0	322.2718060016632	0.2332768440246582
64	191.4488649368286	response	0	2		62.0	2.5	blank	1.0	322.4967129230499	
64	191.45723485946655	movie	1		301.0	62.0	2.5	blank	1.0	322.50508284568787	2.5082521438598633
64	193.96548700332642	fix_post	2		12.0	62.0	2.5	blank	1.0	325.01333498954773	0.10078787803649902
65	194.06627488136292	fix_pre	0		63.0	63.0	2.5	/experiments/knapen_aot/videos/R_S_comp_A105_C003_0212CT_FLARE_v10_SDR_PS_FINAL_20180711_SDR_2K_AVC.mp4	0.0	325.11412286758423	0.5242161750793457
65	194.58223700523376	response	0	2		63.0	2.5	/experiments/knapen_aot/videos/R_S_comp_A105_C003_0212CT_FLARE_v10_SDR_PS_FINAL_20180711_SDR_2K_AVC.mp4	0.0	325.6300849914551	
65	194.59049105644226	movie	1		173.0	63.0	2.5	/experiments/knapen_aot/videos/R_S_comp_A105_C003_0212CT_FLARE_v10_SDR_PS_FINAL_20180711_SDR_2K_AVC.mp4	0.0	325.6383390426636	2.508391857147217
65	197.09888291358948	fix_post	2		12.0	63.0	2.5	/experiments/knapen_aot/videos/R_S_comp_A105_C003_0212CT_FLARE_v10_SDR_PS_FINAL_20180711_SDR_2K_AVC.mp4	0.0	328.1467308998108	0.09992599487304688
66	197.19880890846252	fix_pre	0		37.0	64.0	2.5	/experiments/knapen_aot/videos/R_S_yt-tneuR3EtSZE_72.mp4	0.0	328.24665689468384	0.3082880973815918
66	197.49886798858643	response	0	2		64.0	2.5	/experiments/knapen_aot/videos/R_S_yt-tneuR3EtSZE_72.mp4	0.0	328.54671597480774	
66	197.50709700584412	movie	1		301.0	64.0	2.5	/experiments/knapen_aot/videos/R_S_yt-tneuR3EtSZE_72.mp4	0.0	328.55494499206543	2.5083959102630615
66	200.01549291610718	fix_post	2		12.0	64.0	2.5	/experiments/knapen_aot/videos/R_S_yt-tneuR3EtSZE_72.mp4	0.0	331.0633409023285	0.10006093978881836
67	200.115553855896	fix_pre	0		77.0	65.0	2.5	/experiments/knapen_aot/videos/S_production_ID_4101307.mp4	0.0	331.1634018421173	0.641517162322998
67	200.7413079738617	response	0	2		65.0	2.5	/experiments/knapen_aot/videos/S_production_ID_4101307.mp4	0.0	331.789155960083	
67	200.757071018219	movie	1		193.0	65.0	2.5	/experiments/knapen_aot/videos/S_production_ID_4101307.mp4	0.0	331.8049190044403	2.5084149837493896
67	203.26548600196838	fix_post	2		12.0	65.0	2.5	/experiments/knapen_aot/videos/S_production_ID_4101307.mp4	0.0	334.3133339881897	0.10001802444458008
68	203.36550402641296	fix_pre	0		43.0	66.0	2.5	/experiments/knapen_aot/videos/R_S_yt-gzjV6YoK6X0_3.mp4	0.0	334.4133520126343	0.35826683044433594
68	203.7155749797821	response	0	2		66.0	2.5	/experiments/knapen_aot/videos/R_S_yt-gzjV6YoK6X0_3.mp4	0.0	334.7634229660034	
68	203.7237708568573	movie	1		301.0	66.0	2.5	/experiments/knapen_aot/videos/R_S_yt-gzjV6YoK6X0_3.mp4	0.0	334.7716188430786	2.5083720684051514
68	206.23214292526245	fix_post	2		12.0	66.0	2.5	/experiments/knapen_aot/videos/R_S_yt-gzjV6YoK6X0_3.mp4	0.0	337.27999091148376	0.09996604919433594
69	206.3321089744568	fix_pre	0		34.0	67.0	2.5	/experiments/knapen_aot/videos/S_PA_A010_C007_SDR_20190717_SDR_2K_AVC.mp4	0.0	337.3799569606781	0.2832820415496826
69	206.59964990615845	response	0	2		67.0	2.5	/experiments/knapen_aot/videos/S_PA_A010_C007_SDR_20190717_SDR_2K_AVC.mp4	0.0	337.64749789237976	
69	206.61539101600647	movie	1		169.0	67.0	2.5	/experiments/knapen_aot/videos/S_PA_A010_C007_SDR_20190717_SDR_2K_AVC.mp4	0.0	337.6632390022278	2.508373975753784
69	209.12376499176025	fix_post	2		12.0	67.0	2.5	/experiments/knapen_aot/videos/S_PA_A010_C007_SDR_20190717_SDR_2K_AVC.mp4	0.0	340.17161297798157	0.09995388984680176
70	209.22371888160706	fix_pre	0		26.0	68.0	2.5	blank	1.0	340.27156686782837	0.21742606163024902
70	209.43218803405762	response	0	2		68.0	2.5	blank	1.0	340.48003602027893	
70	209.4411449432373	movie	1		301.0	68.0	2.5	blank	1.0	340.4889929294586	2.5076780319213867
70	211.9488229751587	fix_post	2		12.0	68.0	2.5	blank	1.0	342.99667096138	0.09995603561401367
71	212.0487790107727	fix_pre	0		35.0	69.0	2.5	/experiments/knapen_aot/videos/S_yt-xgqx7tH92-c_6.mp4	0.0	343.096626996994	0.29155802726745605
71	212.33220100402832	response	0	2		69.0	2.5	/experiments/knapen_aot/videos/S_yt-xgqx7tH92-c_6.mp4	0.0	343.38004899024963	
71	212.34033703804016	movie	1		301.0	69.0	2.5	/experiments/knapen_aot/videos/S_yt-xgqx7tH92-c_6.mp4	0.0	343.3881850242615	2.5087718963623047
71	214.84910893440247	fix_post	2		12.0	69.0	2.5	/experiments/knapen_aot/videos/S_yt-xgqx7tH92-c_6.mp4	0.0	345.8969569206238	0.09960794448852539
72	214.948716878891	fix_pre	0		70.0	70.0	2.5	/experiments/knapen_aot/videos/S_yt-HwGg4-zeWi8_364.mp4	0.0	345.9965648651123	0.5833070278167725
72	215.52377486228943	response	0	2		70.0	2.5	/experiments/knapen_aot/videos/S_yt-HwGg4-zeWi8_364.mp4	0.0	346.57162284851074	
72	215.53202390670776	movie	1		301.0	70.0	2.5	/experiments/knapen_aot/videos/S_yt-HwGg4-zeWi8_364.mp4	0.0	346.5798718929291	2.5083961486816406
72	218.0404200553894	fix_post	2		12.0	70.0	2.5	/experiments/knapen_aot/videos/S_yt-HwGg4-zeWi8_364.mp4	0.0	349.0882680416107	0.09998798370361328
73	218.14040803909302	fix_pre	0		39.0	71.0	2.5	/experiments/knapen_aot/videos/S_yt-j-ifVbxZePQ_70.mp4	0.0	349.18825602531433	0.32491302490234375
73	218.457093000412	response	0	2		71.0	2.5	/experiments/knapen_aot/videos/S_yt-j-ifVbxZePQ_70.mp4	0.0	349.5049409866333	
73	218.46532106399536	movie	1		301.0	71.0	2.5	/experiments/knapen_aot/videos/S_yt-j-ifVbxZePQ_70.mp4	0.0	349.5131690502167	2.508382797241211
73	220.97370386123657	fix_post	2		12.0	71.0	2.5	/experiments/knapen_aot/videos/S_yt-j-ifVbxZePQ_70.mp4	0.0	352.0215518474579	0.0999910831451416
74	221.0736949443817	fix_pre	0		50.0	72.0	2.5	/experiments/knapen_aot/videos/R_S_yt-0bovQBIUZho_15.mp4	0.0	352.121542930603	0.4166569709777832
74	221.48216605186462	response	0	2		72.0	2.5	/experiments/knapen_aot/videos/R_S_yt-0bovQBIUZho_15.mp4	0.0	352.53001403808594	
74	221.4903519153595	movie	1		301.0	72.0	2.5	/experiments/knapen_aot/videos/R_S_yt-0bovQBIUZho_15.mp4	0.0	352.5381999015808	2.5083611011505127
74	223.99871301651	fix_post	2		12.0	72.0	2.5	/experiments/knapen_aot/videos/R_S_yt-0bovQBIUZho_15.mp4	0.0	355.0465610027313	0.09999990463256836
75	224.09871292114258	fix_pre	0		50.0	73.0	2.5	/experiments/knapen_aot/videos/R_S_ILSVRC2015_train_00515001.mp4	0.0	355.1465609073639	0.4165940284729004
75	224.50716304779053	response	0	2		73.0	2.5	/experiments/knapen_aot/videos/R_S_ILSVRC2015_train_00515001.mp4	0.0	355.55501103401184	
75	224.51530694961548	movie	1		301.0	73.0	2.5	/experiments/knapen_aot/videos/R_S_ILSVRC2015_train_00515001.mp4	0.0	355.5631549358368	2.5083911418914795
75	227.02369809150696	fix_post	2		12.0	73.0	2.5	/experiments/knapen_aot/videos/R_S_ILSVRC2015_train_00515001.mp4	0.0	358.07154607772827	0.09998679161071777
76	227.12368488311768	fix_pre	0		30.0	74.0	2.5	/experiments/knapen_aot/videos/S_yt-a0axt7n0GuQ_19.mp4	0.0	358.171532869339	0.2499370574951172
76	227.3654580116272	response	0	2		74.0	2.5	/experiments/knapen_aot/videos/S_yt-a0axt7n0GuQ_19.mp4	0.0	358.4133059978485	
76	227.3736219406128	movie	1		301.0	74.0	2.5	/experiments/knapen_aot/videos/S_yt-a0axt7n0GuQ_19.mp4	0.0	358.4214699268341	2.508439064025879
76	229.88206100463867	fix_post	2		12.0	74.0	2.5	/experiments/knapen_aot/videos/S_yt-a0axt7n0GuQ_19.mp4	0.0	360.92990899086	0.09991097450256348
77	229.98197197914124	fix_pre	0		48.0	75.0	2.5	/experiments/knapen_aot/videos/R_S_yt-11S5tcT2Tm0_254.mp4	0.0	361.02981996536255	0.40000009536743164
77	230.3738420009613	response	0	2		75.0	2.5	/experiments/knapen_aot/videos/R_S_yt-11S5tcT2Tm0_254.mp4	0.0	361.4216899871826	
77	230.38197207450867	movie	1		301.0	75.0	2.5	/experiments/knapen_aot/videos/R_S_yt-11S5tcT2Tm0_254.mp4	0.0	361.42982006073	2.5084409713745117
77	232.89041304588318	fix_post	2		12.0	75.0	2.5	/experiments/knapen_aot/videos/R_S_yt-11S5tcT2Tm0_254.mp4	0.0	363.9382610321045	0.0999298095703125
78	232.9903428554535	fix_pre	0		58.0	76.0	2.5	/experiments/knapen_aot/videos/R_S_yt-LB9LoYfH_EA_15.mp4	0.0	364.0381908416748	0.48329615592956543
78	233.465411901474	response	0	2		76.0	2.5	/experiments/knapen_aot/videos/R_S_yt-LB9LoYfH_EA_15.mp4	0.0	364.5132598876953	
78	233.47363901138306	movie	1		301.0	76.0	2.5	/experiments/knapen_aot/videos/R_S_yt-LB9LoYfH_EA_15.mp4	0.0	364.52148699760437	2.508342981338501
78	235.98198199272156	fix_post	2		12.0	76.0	2.5	/experiments/knapen_aot/videos/R_S_yt-LB9LoYfH_EA_15.mp4	0.0	367.02982997894287	0.1000070571899414
79	236.0819890499115	fix_pre	0		23.0	77.0	2.5	blank	1.0	367.1298370361328	0.19209504127502441
79	236.26533389091492	response	0	2		77.0	2.5	blank	1.0	367.31318187713623	
79	236.27408409118652	movie	1		301.0	77.0	2.5	blank	1.0	367.32193207740784	2.507894992828369
79	238.7819790840149	fix_post	2		12.0	77.0	2.5	blank	1.0	369.8298270702362	0.09991288185119629
80	238.8818919658661	fix_pre	0		32.0	78.0	2.5	/experiments/knapen_aot/videos/S_yt-wrxk7fFkxHg_177.mp4	0.0	369.9297399520874	0.26719212532043457
80	239.1329529285431	response	0	2		78.0	2.5	/experiments/knapen_aot/videos/S_yt-wrxk7fFkxHg_177.mp4	0.0	370.1808009147644	
80	239.14908409118652	movie	1		301.0	78.0	2.5	/experiments/knapen_aot/videos/S_yt-wrxk7fFkxHg_177.mp4	0.0	370.19693207740784	2.50785493850708
80	241.6569390296936	fix_post	2		12.0	78.0	2.5	/experiments/knapen_aot/videos/S_yt-wrxk7fFkxHg_177.mp4	0.0	372.7047870159149	0.0999000072479248
81	241.75683903694153	fix_pre	0		57.0	79.0	2.5	/experiments/knapen_aot/videos/S_yt-LB9LoYfH_EA_15.mp4	0.0	372.80468702316284	0.47544384002685547
81	242.2162148952484	response	0	2		79.0	2.5	/experiments/knapen_aot/videos/S_yt-LB9LoYfH_EA_15.mp4	0.0	373.2640628814697	
81	242.23228287696838	movie	1		301.0	79.0	2.5	/experiments/knapen_aot/videos/S_yt-LB9LoYfH_EA_15.mp4	0.0	373.2801308631897	2.5080599784851074
81	244.7403428554535	fix_post	2		12.0	79.0	2.5	/experiments/knapen_aot/videos/S_yt-LB9LoYfH_EA_15.mp4	0.0	375.7881908416748	0.09992218017578125
82	244.84026503562927	fix_pre	0		25.0	80.0	2.5	/experiments/knapen_aot/videos/S_ILSVRC2015_train_00515001.mp4	0.0	375.8881130218506	0.2084348201751709
82	245.04034805297852	response	0	2		80.0	2.5	/experiments/knapen_aot/videos/S_ILSVRC2015_train_00515001.mp4	0.0	376.08819603919983	
82	245.04869985580444	movie	1		301.0	80.0	2.5	/experiments/knapen_aot/videos/S_ILSVRC2015_train_00515001.mp4	0.0	376.09654784202576	2.5082690715789795
82	247.55696892738342	fix_post	2		12.0	80.0	2.5	/experiments/knapen_aot/videos/S_ILSVRC2015_train_00515001.mp4	0.0	378.60481691360474	0.09989714622497559
83	247.6568660736084	fix_pre	0		58.0	81.0	2.5	/experiments/knapen_aot/videos/R_S_yt-dESxu60Cl10_24.mp4	0.0	378.7047140598297	0.4834098815917969
83	248.1319980621338	response	0	2		81.0	2.5	/experiments/knapen_aot/videos/R_S_yt-dESxu60Cl10_24.mp4	0.0	379.1798460483551	
83	248.1402759552002	movie	1		301.0	81.0	2.5	/experiments/knapen_aot/videos/R_S_yt-dESxu60Cl10_24.mp4	0.0	379.1881239414215	2.5083649158477783
83	250.64864087104797	fix_post	2		12.0	81.0	2.5	/experiments/knapen_aot/videos/R_S_yt-dESxu60Cl10_24.mp4	0.0	381.6964888572693	0.09999799728393555
84	250.7486388683319	fix_pre	0		28.0	82.0	2.5	blank	1.0	381.7964868545532	0.2336571216583252
84	250.9736349582672	response	0	2		82.0	2.5	blank	1.0	382.0214829444885	
84	250.98229598999023	movie	1		301.0	82.0	2.5	blank	1.0	382.03014397621155	2.507920026779175
84	253.4902160167694	fix_post	2		12.0	82.0	2.5	blank	1.0	384.5380640029907	0.10007190704345703
85	253.59028792381287	fix_pre	0		68.0	83.0	2.5	/experiments/knapen_aot/videos/S_yt-cjndulbUtRc_51.mp4	0.0	384.6381359100342	0.5665690898895264
85	254.14868807792664	response	0	2		83.0	2.5	/experiments/knapen_aot/videos/S_yt-cjndulbUtRc_51.mp4	0.0	385.19653606414795	
85	254.1568570137024	movie	1		301.0	83.0	2.5	/experiments/knapen_aot/videos/S_yt-cjndulbUtRc_51.mp4	0.0	385.2047049999237	2.508436918258667
85	256.66529393196106	fix_post	2		12.0	83.0	2.5	/experiments/knapen_aot/videos/S_yt-cjndulbUtRc_51.mp4	0.0	387.7131419181824	0.09993195533752441
87	256.7652258872986	stim	0		303.0					387.8130738735199	2.5249521732330322
87	256.99964904785156	response	0	2						388.0474970340729	
87	259.2820739746094	response	0	space						390.3299219608307	
