trial_nr	onset	event_type	phase	response	nr_frames	movie_index	movie_duration	movie_file	blank	onset_abs	duration
0	0.1334078311920166	stim	0		57.0					93.76701283454895	0.4771461486816406
0	0.5927789211273193	response	0	space						94.22638392448425	
1	0.6105539798736572	stim	0		121.0					94.24415898323059	1.0061697959899902
1	1.05837082862854	response	0	space						94.69197583198547	
1	1.3844919204711914	response	0	space						95.01809692382812	
1	1.6167237758636475	stim	1		120.0					95.25032877922058	0.9995980262756348
1	1.700096845626831	response	1	space						95.33370184898376	
1	2.074683904647827	response	1	space						95.70828890800476	
2	2.6163218021392822	fix_pre	0		40.0	0.0	2.5	/experiments/knapen_aot/videos/R_S_flickr-hapanine-31880782705_22.mp4	0.0	96.24992680549622	0.334197998046875
2	2.941455841064453	response	0	space		0.0	2.5	/experiments/knapen_aot/videos/R_S_flickr-hapanine-31880782705_22.mp4	0.0	96.57506084442139	
2	2.9505198001861572	movie	1		165.0	0.0	2.5	/experiments/knapen_aot/videos/R_S_flickr-hapanine-31880782705_22.mp4	0.0	96.58412480354309	2.5074779987335205
2	2.9896678924560547	response	1	2		0.0	2.5	/experiments/knapen_aot/videos/R_S_flickr-hapanine-31880782705_22.mp4	0.0	96.62327289581299	
2	5.457997798919678	fix_post	2		12.0	0.0	2.5	/experiments/knapen_aot/videos/R_S_flickr-hapanine-31880782705_22.mp4	0.0	99.09160280227661	0.10001611709594727
3	5.558013916015625	fix_pre	0		65.0	1.0	2.5	/experiments/knapen_aot/videos/S_yt-sIXdPhfS67U_203.mp4	0.0	99.19161891937256	0.5416150093078613
3	6.091421842575073	response	0	2		1.0	2.5	/experiments/knapen_aot/videos/S_yt-sIXdPhfS67U_203.mp4	0.0	99.725026845932	
3	6.099628925323486	movie	1		301.0	1.0	2.5	/experiments/knapen_aot/videos/S_yt-sIXdPhfS67U_203.mp4	0.0	99.73323392868042	2.508357048034668
3	8.607985973358154	fix_post	2		12.0	1.0	2.5	/experiments/knapen_aot/videos/S_yt-sIXdPhfS67U_203.mp4	0.0	102.24159097671509	0.1000359058380127
4	8.708021879196167	fix_pre	0		36.0	2.0	2.5	/experiments/knapen_aot/videos/R_S_yt-PREz5XiiXg0_107.mp4	0.0	102.3416268825531	0.29988598823547363
4	8.992163896560669	response	0	2		2.0	2.5	/experiments/knapen_aot/videos/R_S_yt-PREz5XiiXg0_107.mp4	0.0	102.6257688999176	
4	9.00790786743164	movie	1		301.0	2.0	2.5	/experiments/knapen_aot/videos/R_S_yt-PREz5XiiXg0_107.mp4	0.0	102.64151287078857	2.5083820819854736
4	11.516289949417114	fix_post	2		12.0	2.0	2.5	/experiments/knapen_aot/videos/R_S_yt-PREz5XiiXg0_107.mp4	0.0	105.14989495277405	0.10003185272216797
5	11.616321802139282	fix_pre	0		29.0	3.0	2.5	/experiments/knapen_aot/videos/S_yt-Kwfwhd07dVo_2.mp4	0.0	105.24992680549622	0.24162912368774414
5	11.84972882270813	response	0	2		3.0	2.5	/experiments/knapen_aot/videos/S_yt-Kwfwhd07dVo_2.mp4	0.0	105.48333382606506	
5	11.857950925827026	movie	1		301.0	3.0	2.5	/experiments/knapen_aot/videos/S_yt-Kwfwhd07dVo_2.mp4	0.0	105.49155592918396	2.508310079574585
5	14.366261005401611	fix_post	2		12.0	3.0	2.5	/experiments/knapen_aot/videos/S_yt-Kwfwhd07dVo_2.mp4	0.0	107.99986600875854	0.10002398490905762
6	14.466284990310669	fix_pre	0		60.0	4.0	2.5	/experiments/knapen_aot/videos/R_S_ILSVRC2015_train_00689000.mp4	0.0	108.0998899936676	0.49994683265686035
6	14.958064794540405	response	0	2		4.0	2.5	/experiments/knapen_aot/videos/R_S_ILSVRC2015_train_00689000.mp4	0.0	108.59166979789734	
6	14.96623182296753	movie	1		301.0	4.0	2.5	/experiments/knapen_aot/videos/R_S_ILSVRC2015_train_00689000.mp4	0.0	108.59983682632446	2.5083529949188232
6	17.474584817886353	fix_post	2		12.0	4.0	2.5	/experiments/knapen_aot/videos/R_S_ILSVRC2015_train_00689000.mp4	0.0	111.10818982124329	0.09995412826538086
7	17.574538946151733	fix_pre	0		36.0	5.0	2.5	blank	1.0	111.20814394950867	0.30005598068237305
7	17.86638593673706	response	0	2		5.0	2.5	blank	1.0	111.499990940094	
7	17.874594926834106	movie	1		301.0	5.0	2.5	blank	1.0	111.50819993019104	2.508380889892578
7	20.382975816726685	fix_post	2		12.0	5.0	2.5	blank	1.0	114.01658082008362	0.09989809989929199
8	20.482873916625977	fix_pre	0		46.0	6.0	2.5	/experiments/knapen_aot/videos/S_wc-7ugQ0V4lxYkJ_131.mp4	0.0	114.11647891998291	0.3841829299926758
8	20.857993841171265	response	0	2		6.0	2.5	/experiments/knapen_aot/videos/S_wc-7ugQ0V4lxYkJ_131.mp4	0.0	114.4915988445282	
8	20.867056846618652	movie	1		301.0	6.0	2.5	/experiments/knapen_aot/videos/S_wc-7ugQ0V4lxYkJ_131.mp4	0.0	114.50066184997559	2.507564067840576
8	23.37462091445923	fix_post	2		12.0	6.0	2.5	/experiments/knapen_aot/videos/S_wc-7ugQ0V4lxYkJ_131.mp4	0.0	117.00822591781616	0.0999140739440918
9	23.47453498840332	fix_pre	0		33.0	7.0	2.5	/experiments/knapen_aot/videos/R_S_X-D3lUv-atE_376.mp4	0.0	117.10813999176025	0.2750070095062256
9	23.74137592315674	response	0	2		7.0	2.5	/experiments/knapen_aot/videos/R_S_X-D3lUv-atE_376.mp4	0.0	117.37498092651367	
9	23.749541997909546	movie	1		301.0	7.0	2.5	/experiments/knapen_aot/videos/R_S_X-D3lUv-atE_376.mp4	0.0	117.38314700126648	2.508330821990967
9	26.257872819900513	fix_post	2		12.0	7.0	2.5	/experiments/knapen_aot/videos/R_S_X-D3lUv-atE_376.mp4	0.0	119.89147782325745	0.09997797012329102
10	26.357850790023804	fix_pre	0		57.0	8.0	2.5	/experiments/knapen_aot/videos/R_S_video_inspire_oregon_lone-ranch-beach_00001.1080-h264.mp4	0.0	119.99145579338074	0.475039005279541
10	26.824721813201904	response	0	2		8.0	2.5	/experiments/knapen_aot/videos/R_S_video_inspire_oregon_lone-ranch-beach_00001.1080-h264.mp4	0.0	120.45832681655884	
10	26.832889795303345	movie	1		166.0	8.0	2.5	/experiments/knapen_aot/videos/R_S_video_inspire_oregon_lone-ranch-beach_00001.1080-h264.mp4	0.0	120.46649479866028	2.5082850456237793
10	29.341174840927124	fix_post	2		12.0	8.0	2.5	/experiments/knapen_aot/videos/R_S_video_inspire_oregon_lone-ranch-beach_00001.1080-h264.mp4	0.0	122.97477984428406	0.10003304481506348
11	29.441207885742188	fix_pre	0		324.0	9.0	2.5	/experiments/knapen_aot/videos/R_S_yt-LZS1RrEtTeQ_136.mp4	0.0	123.07481288909912	2.6999900341033936
11	32.13299489021301	response	0	2		9.0	2.5	/experiments/knapen_aot/videos/R_S_yt-LZS1RrEtTeQ_136.mp4	0.0	125.76659989356995	
11	32.14119791984558	movie	1		298.0	9.0	2.5	/experiments/knapen_aot/videos/R_S_yt-LZS1RrEtTeQ_136.mp4	0.0	125.77480292320251	2.5083088874816895
11	34.64950680732727	fix_post	2		12.0	9.0	2.5	/experiments/knapen_aot/videos/R_S_yt-LZS1RrEtTeQ_136.mp4	0.0	128.2831118106842	0.10002303123474121
12	34.74952983856201	fix_pre	0		25.0	10.0	2.5	/experiments/knapen_aot/videos/R_S_yt-2LCHVTVwJ5E_235.mp4	0.0	128.38313484191895	0.20827913284301758
12	34.949673891067505	response	0	2		10.0	2.5	/experiments/knapen_aot/videos/R_S_yt-2LCHVTVwJ5E_235.mp4	0.0	128.58327889442444	
12	34.95780897140503	movie	1		301.0	10.0	2.5	/experiments/knapen_aot/videos/R_S_yt-2LCHVTVwJ5E_235.mp4	0.0	128.59141397476196	2.5084140300750732
12	37.4662230014801	fix_post	2		12.0	10.0	2.5	/experiments/knapen_aot/videos/R_S_yt-2LCHVTVwJ5E_235.mp4	0.0	131.09982800483704	0.09997200965881348
13	37.566195011138916	fix_pre	0		17.0	11.0	2.5	/experiments/knapen_aot/videos/S_yt-25xuzTBhwPk_109.mp4	0.0	131.19980001449585	0.14165091514587402
13	37.69965481758118	response	0	2		11.0	2.5	/experiments/knapen_aot/videos/S_yt-25xuzTBhwPk_109.mp4	0.0	131.3332598209381	
13	37.70784592628479	movie	1		301.0	11.0	2.5	/experiments/knapen_aot/videos/S_yt-25xuzTBhwPk_109.mp4	0.0	131.34145092964172	2.508315086364746
13	40.216161012649536	fix_post	2		12.0	11.0	2.5	/experiments/knapen_aot/videos/S_yt-25xuzTBhwPk_109.mp4	0.0	133.84976601600647	0.09997391700744629
14	40.31613492965698	fix_pre	0		40.0	12.0	2.5	/experiments/knapen_aot/videos/S_comp_H012_C009_PS_v01_SDR_PS_20180925_SDR_2K_AVC.mp4	0.0	133.94973993301392	0.33332085609436035
14	40.64129400253296	response	0	2		12.0	2.5	/experiments/knapen_aot/videos/S_comp_H012_C009_PS_v01_SDR_PS_20180925_SDR_2K_AVC.mp4	0.0	134.2748990058899	
14	40.64945578575134	movie	1		164.0	12.0	2.5	/experiments/knapen_aot/videos/S_comp_H012_C009_PS_v01_SDR_PS_20180925_SDR_2K_AVC.mp4	0.0	134.28306078910828	2.5082550048828125
14	43.157710790634155	fix_post	2		12.0	12.0	2.5	/experiments/knapen_aot/videos/S_comp_H012_C009_PS_v01_SDR_PS_20180925_SDR_2K_AVC.mp4	0.0	136.7913157939911	0.10004806518554688
15	43.2577588558197	fix_pre	0		238.0	13.0	2.5	blank	1.0	136.89136385917664	1.9840800762176514
15	45.233067989349365	response	0	2		13.0	2.5	blank	1.0	138.8666729927063	
15	45.24183893203735	movie	1		301.0	13.0	2.5	blank	1.0	138.8754439353943	2.5076239109039307
15	47.70787787437439	response	1	2		13.0	2.5	blank	1.0	141.34148287773132	
15	47.749462842941284	fix_post	2		12.0	13.0	2.5	blank	1.0	141.38306784629822	0.09999203681945801
16	47.84945487976074	fix_pre	0		58.0	14.0	2.5	/experiments/knapen_aot/videos/S_yt-xgqx7tH92-c_6.mp4	0.0	141.48305988311768	0.4832930564880371
16	48.324503898620605	response	0	2		14.0	2.5	/experiments/knapen_aot/videos/S_yt-xgqx7tH92-c_6.mp4	0.0	141.95810890197754	
16	48.33274793624878	movie	1		301.0	14.0	2.5	/experiments/knapen_aot/videos/S_yt-xgqx7tH92-c_6.mp4	0.0	141.9663529396057	2.5083749294281006
16	50.84112286567688	fix_post	2		12.0	14.0	2.5	/experiments/knapen_aot/videos/S_yt-xgqx7tH92-c_6.mp4	0.0	144.4747278690338	0.0999610424041748
17	50.941083908081055	fix_pre	0		51.0	15.0	2.5	/experiments/knapen_aot/videos/R_S_yt-Kwfwhd07dVo_2.mp4	0.0	144.574688911438	0.4256429672241211
17	51.357872009277344	response	0	2		15.0	2.5	/experiments/knapen_aot/videos/R_S_yt-Kwfwhd07dVo_2.mp4	0.0	144.99147701263428	
17	51.366726875305176	movie	1		301.0	15.0	2.5	/experiments/knapen_aot/videos/R_S_yt-Kwfwhd07dVo_2.mp4	0.0	145.0003318786621	2.5076401233673096
17	53.874366998672485	fix_post	2		12.0	15.0	2.5	/experiments/knapen_aot/videos/R_S_yt-Kwfwhd07dVo_2.mp4	0.0	147.50797200202942	0.10008478164672852
18	53.974451780319214	fix_pre	0		293.0	16.0	2.5	/experiments/knapen_aot/videos/R_S_yt-Fm97IY0Z2LU_110.mp4	0.0	147.60805678367615	2.441642999649048
18	56.40786099433899	response	0	2		16.0	2.5	/experiments/knapen_aot/videos/R_S_yt-Fm97IY0Z2LU_110.mp4	0.0	150.04146599769592	
18	56.41609477996826	movie	1		301.0	16.0	2.5	/experiments/knapen_aot/videos/R_S_yt-Fm97IY0Z2LU_110.mp4	0.0	150.0496997833252	2.508409023284912
18	58.924503803253174	fix_post	2		12.0	16.0	2.5	/experiments/knapen_aot/videos/R_S_yt-Fm97IY0Z2LU_110.mp4	0.0	152.5581088066101	0.099945068359375
19	59.02444887161255	fix_pre	0		186.0	17.0	2.5	/experiments/knapen_aot/videos/S_flickr-hapanine-31880782705_22.mp4	0.0	152.65805387496948	1.5505650043487549
19	60.56617093086243	response	0	2		17.0	2.5	/experiments/knapen_aot/videos/S_flickr-hapanine-31880782705_22.mp4	0.0	154.19977593421936	
19	60.575013875961304	movie	1		162.0	17.0	2.5	/experiments/knapen_aot/videos/S_flickr-hapanine-31880782705_22.mp4	0.0	154.20861887931824	2.5076920986175537
19	63.08270597457886	fix_post	2		12.0	17.0	2.5	/experiments/knapen_aot/videos/S_flickr-hapanine-31880782705_22.mp4	0.0	156.7163109779358	0.09992480278015137
20	63.18263077735901	fix_pre	0		74.0	18.0	2.5	/experiments/knapen_aot/videos/S_yt-kYMffy4hTMo_107.mp4	0.0	156.81623578071594	0.616718053817749
20	63.79118990898132	response	0	2		18.0	2.5	/experiments/knapen_aot/videos/S_yt-kYMffy4hTMo_107.mp4	0.0	157.42479491233826	
20	63.79934883117676	movie	1		301.0	18.0	2.5	/experiments/knapen_aot/videos/S_yt-kYMffy4hTMo_107.mp4	0.0	157.4329538345337	2.508371114730835
20	66.30771994590759	fix_post	2		12.0	18.0	2.5	/experiments/knapen_aot/videos/S_yt-kYMffy4hTMo_107.mp4	0.0	159.94132494926453	0.10000300407409668
21	66.40772294998169	fix_pre	0		49.0	19.0	2.5	/experiments/knapen_aot/videos/R_S_yt-0n0uppNuUus_15.mp4	0.0	160.04132795333862	0.4083390235900879
21	66.80777978897095	response	0	2		19.0	2.5	/experiments/knapen_aot/videos/R_S_yt-0n0uppNuUus_15.mp4	0.0	160.44138479232788	
21	66.81606197357178	movie	1		300.0	19.0	2.5	/experiments/knapen_aot/videos/R_S_yt-0n0uppNuUus_15.mp4	0.0	160.4496669769287	2.508302927017212
21	69.32436490058899	fix_post	2		12.0	19.0	2.5	/experiments/knapen_aot/videos/R_S_yt-0n0uppNuUus_15.mp4	0.0	162.95796990394592	0.09992790222167969
22	69.42429280281067	fix_pre	0		79.0	20.0	2.5	/experiments/knapen_aot/videos/R_S_yt-T9Vwt7wFvPk_100.mp4	0.0	163.0578978061676	0.6583471298217773
22	70.07450199127197	response	0	2		20.0	2.5	/experiments/knapen_aot/videos/R_S_yt-T9Vwt7wFvPk_100.mp4	0.0	163.7081069946289	
22	70.08263993263245	movie	1		301.0	20.0	2.5	/experiments/knapen_aot/videos/R_S_yt-T9Vwt7wFvPk_100.mp4	0.0	163.71624493598938	2.508465051651001
22	72.59110498428345	fix_post	2		12.0	20.0	2.5	/experiments/knapen_aot/videos/R_S_yt-T9Vwt7wFvPk_100.mp4	0.0	166.22470998764038	0.09988999366760254
23	72.69099497795105	fix_pre	0		50.0	21.0	2.5	blank	1.0	166.32459998130798	0.4165818691253662
23	73.09948492050171	response	0	2		21.0	2.5	blank	1.0	166.73308992385864	
23	73.10757684707642	movie	1		301.0	21.0	2.5	blank	1.0	166.74118185043335	2.508445978164673
23	75.5410737991333	response	1	2		21.0	2.5	blank	1.0	169.17467880249023	
23	75.61602282524109	fix_post	2		12.0	21.0	2.5	blank	1.0	169.24962782859802	0.09998917579650879
24	75.7160120010376	fix_pre	0		44.0	22.0	2.5	/experiments/knapen_aot/videos/R_S_comp_GL_G002_C002_PSNK_v03_SDR_PS_20180925_SDR_2K_AVC.mp4	0.0	169.34961700439453	0.36665797233581543
24	76.07436490058899	response	0	2		22.0	2.5	/experiments/knapen_aot/videos/R_S_comp_GL_G002_C002_PSNK_v03_SDR_PS_20180925_SDR_2K_AVC.mp4	0.0	169.70796990394592	
24	76.08266997337341	movie	1		170.0	22.0	2.5	/experiments/knapen_aot/videos/R_S_comp_GL_G002_C002_PSNK_v03_SDR_PS_20180925_SDR_2K_AVC.mp4	0.0	169.71627497673035	2.508354902267456
24	78.59102487564087	fix_post	2		12.0	22.0	2.5	/experiments/knapen_aot/videos/R_S_comp_GL_G002_C002_PSNK_v03_SDR_PS_20180925_SDR_2K_AVC.mp4	0.0	172.2246298789978	0.09999394416809082
25	78.69101881980896	fix_pre	0		4.0	23.0	2.5	/experiments/knapen_aot/videos/S_yt-uSHBdUi8_V0_24.mp4	0.0	172.3246238231659	0.033434152603149414
25	78.71634197235107	response	0	2		23.0	2.5	/experiments/knapen_aot/videos/S_yt-uSHBdUi8_V0_24.mp4	0.0	172.349946975708	
25	78.72445297241211	movie	1		301.0	23.0	2.5	/experiments/knapen_aot/videos/S_yt-uSHBdUi8_V0_24.mp4	0.0	172.35805797576904	2.508225917816162
25	81.23267889022827	fix_post	2		12.0	23.0	2.5	/experiments/knapen_aot/videos/S_yt-uSHBdUi8_V0_24.mp4	0.0	174.8662838935852	0.09996700286865234
26	81.33264589309692	fix_pre	0		29.0	24.0	2.5	/experiments/knapen_aot/videos/S_yt-e1RAhIW6WAs_535.mp4	0.0	174.96625089645386	0.24217605590820312
26	81.56610178947449	response	0	2		24.0	2.5	/experiments/knapen_aot/videos/S_yt-e1RAhIW6WAs_535.mp4	0.0	175.19970679283142	
26	81.57482194900513	movie	1		301.0	24.0	2.5	/experiments/knapen_aot/videos/S_yt-e1RAhIW6WAs_535.mp4	0.0	175.20842695236206	2.5078189373016357
26	84.08264088630676	fix_post	2		12.0	24.0	2.5	/experiments/knapen_aot/videos/S_yt-e1RAhIW6WAs_535.mp4	0.0	177.7162458896637	0.10002899169921875
27	84.18266987800598	fix_pre	0		35.0	25.0	2.5	/experiments/knapen_aot/videos/S_yt-ejSzwn8tY8g_49.mp4	0.0	177.81627488136292	0.29163694381713867
27	84.46607398986816	response	0	2		25.0	2.5	/experiments/knapen_aot/videos/S_yt-ejSzwn8tY8g_49.mp4	0.0	178.0996789932251	
27	84.47430682182312	movie	1		301.0	25.0	2.5	/experiments/knapen_aot/videos/S_yt-ejSzwn8tY8g_49.mp4	0.0	178.10791182518005	2.5083541870117188
27	86.98266100883484	fix_post	2		12.0	25.0	2.5	/experiments/knapen_aot/videos/S_yt-ejSzwn8tY8g_49.mp4	0.0	180.61626601219177	0.1000068187713623
28	87.0826678276062	fix_pre	0		28.0	26.0	2.5	/experiments/knapen_aot/videos/S_wc-TAGpcap1KdAS_212.mp4	0.0	180.71627283096313	0.2332770824432373
28	87.30765080451965	response	0	2		26.0	2.5	/experiments/knapen_aot/videos/S_wc-TAGpcap1KdAS_212.mp4	0.0	180.9412558078766	
28	87.31594491004944	movie	1		301.0	26.0	2.5	/experiments/knapen_aot/videos/S_wc-TAGpcap1KdAS_212.mp4	0.0	180.94954991340637	2.5084009170532227
28	89.82434582710266	fix_post	2		12.0	26.0	2.5	/experiments/knapen_aot/videos/S_wc-TAGpcap1KdAS_212.mp4	0.0	183.4579508304596	0.09996604919433594
29	89.924311876297	fix_pre	0		89.0	27.0	2.5	/experiments/knapen_aot/videos/R_S_video_inspire_florida_miami_brickell_sunset_00036.1080-h264.mp4	0.0	183.55791687965393	0.7416749000549316
29	90.65782380104065	response	0	2		27.0	2.5	/experiments/knapen_aot/videos/R_S_video_inspire_florida_miami_brickell_sunset_00036.1080-h264.mp4	0.0	184.29142880439758	
29	90.66598677635193	movie	1		171.0	27.0	2.5	/experiments/knapen_aot/videos/R_S_video_inspire_florida_miami_brickell_sunset_00036.1080-h264.mp4	0.0	184.29959177970886	2.508258104324341
29	93.17424488067627	fix_post	2		12.0	27.0	2.5	/experiments/knapen_aot/videos/R_S_video_inspire_florida_miami_brickell_sunset_00036.1080-h264.mp4	0.0	186.8078498840332	0.10001206398010254
30	93.27425694465637	fix_pre	0		36.0	28.0	2.5	blank	1.0	186.9078619480133	0.30042195320129395
30	93.56610083580017	response	0	2		28.0	2.5	blank	1.0	187.1997058391571	
30	93.57467889785767	movie	1		301.0	28.0	2.5	blank	1.0	187.2082839012146	2.507906913757324
30	96.08258581161499	fix_post	2		12.0	28.0	2.5	blank	1.0	189.71619081497192	0.10003519058227539
31	96.18262100219727	fix_pre	0		55.0	29.0	2.5	/experiments/knapen_aot/videos/S_wc-6or3Gl2Fif0m_13.mp4	0.0	189.8162260055542	0.45830488204956055
31	96.63277888298035	response	0	2		29.0	2.5	/experiments/knapen_aot/videos/S_wc-6or3Gl2Fif0m_13.mp4	0.0	190.26638388633728	
31	96.64092588424683	movie	1		172.0	29.0	2.5	/experiments/knapen_aot/videos/S_wc-6or3Gl2Fif0m_13.mp4	0.0	190.27453088760376	2.50833797454834
31	99.14926385879517	fix_post	2		12.0	29.0	2.5	/experiments/knapen_aot/videos/S_wc-6or3Gl2Fif0m_13.mp4	0.0	192.7828688621521	0.09996795654296875
32	99.24923181533813	fix_pre	0		69.0	30.0	2.5	/experiments/knapen_aot/videos/S_yt-4oacL3aXtlU_11.mp4	0.0	192.88283681869507	0.5753300189971924
32	99.81603479385376	response	0	2		30.0	2.5	/experiments/knapen_aot/videos/S_yt-4oacL3aXtlU_11.mp4	0.0	193.4496397972107	
32	99.82456183433533	movie	1		301.0	30.0	2.5	/experiments/knapen_aot/videos/S_yt-4oacL3aXtlU_11.mp4	0.0	193.45816683769226	2.5079450607299805
32	102.33250689506531	fix_post	2		12.0	30.0	2.5	/experiments/knapen_aot/videos/S_yt-4oacL3aXtlU_11.mp4	0.0	195.96611189842224	0.10007500648498535
33	102.4325819015503	fix_pre	0		374.0	31.0	2.5	/experiments/knapen_aot/videos/R_S_Pexels_Videos_278654_1.mp4	0.0	196.06618690490723	3.1166129112243652
33	105.5409848690033	response	0	2		31.0	2.5	/experiments/knapen_aot/videos/R_S_Pexels_Videos_278654_1.mp4	0.0	199.17458987236023	
33	105.54919481277466	movie	1		163.0	31.0	2.5	/experiments/knapen_aot/videos/R_S_Pexels_Videos_278654_1.mp4	0.0	199.1827998161316	2.508327007293701
33	108.05752182006836	fix_post	2		12.0	31.0	2.5	/experiments/knapen_aot/videos/R_S_Pexels_Videos_278654_1.mp4	0.0	201.6911268234253	0.09999918937683105
34	108.15752100944519	fix_pre	0		53.0	32.0	2.5	/experiments/knapen_aot/videos/R_S_pexels-polina-tankilevitch-8203088.mp4	0.0	201.79112601280212	0.44158291816711426
34	108.59101581573486	response	0	2		32.0	2.5	/experiments/knapen_aot/videos/R_S_pexels-polina-tankilevitch-8203088.mp4	0.0	202.2246208190918	
34	108.5991039276123	movie	1		162.0	32.0	2.5	/experiments/knapen_aot/videos/R_S_pexels-polina-tankilevitch-8203088.mp4	0.0	202.23270893096924	2.508513927459717
34	111.10761785507202	fix_post	2		12.0	32.0	2.5	/experiments/knapen_aot/videos/R_S_pexels-polina-tankilevitch-8203088.mp4	0.0	204.74122285842896	0.0999441146850586
35	111.20756196975708	fix_pre	0		58.0	33.0	2.5	/experiments/knapen_aot/videos/R_S_yt-TZ107yBhXoA_1.mp4	0.0	204.841166973114	0.4832749366760254
35	111.68263578414917	response	0	2		33.0	2.5	/experiments/knapen_aot/videos/R_S_yt-TZ107yBhXoA_1.mp4	0.0	205.3162407875061	
35	111.6908369064331	movie	1		301.0	33.0	2.5	/experiments/knapen_aot/videos/R_S_yt-TZ107yBhXoA_1.mp4	0.0	205.32444190979004	2.508296012878418
35	114.19913291931152	fix_post	2		12.0	33.0	2.5	/experiments/knapen_aot/videos/R_S_yt-TZ107yBhXoA_1.mp4	0.0	207.83273792266846	0.09994387626647949
36	114.299076795578	fix_pre	0		37.0	34.0	2.5	/experiments/knapen_aot/videos/S_video_inspire_oregon_lone-ranch-beach_00001.1080-h264.mp4	0.0	207.93268179893494	0.3084712028503418
36	114.59175992012024	response	0	2		34.0	2.5	/experiments/knapen_aot/videos/S_video_inspire_oregon_lone-ranch-beach_00001.1080-h264.mp4	0.0	208.22536492347717	
36	114.60754799842834	movie	1		164.0	34.0	2.5	/experiments/knapen_aot/videos/S_video_inspire_oregon_lone-ranch-beach_00001.1080-h264.mp4	0.0	208.24115300178528	2.508253812789917
36	117.11580181121826	fix_post	2		12.0	34.0	2.5	/experiments/knapen_aot/videos/S_video_inspire_oregon_lone-ranch-beach_00001.1080-h264.mp4	0.0	210.7494068145752	0.09992098808288574
37	117.21572279930115	fix_pre	0		43.0	35.0	2.5	blank	1.0	210.84932780265808	0.3587620258331299
37	117.56597399711609	response	0	2		35.0	2.5	blank	1.0	211.19957900047302	
37	117.57448482513428	movie	1		301.0	35.0	2.5	blank	1.0	211.2080898284912	2.507958173751831
37	119.46592497825623	response	1	2		35.0	2.5	blank	1.0	213.09952998161316	
37	120.08244299888611	fix_post	2		12.0	35.0	2.5	blank	1.0	213.71604800224304	0.10002493858337402
38	120.18246793746948	fix_pre	0		61.0	36.0	2.5	/experiments/knapen_aot/videos/R_S_ILSVRC2015_train_00484001.mp4	0.0	213.81607294082642	0.5082888603210449
38	120.68262481689453	response	0	2		36.0	2.5	/experiments/knapen_aot/videos/R_S_ILSVRC2015_train_00484001.mp4	0.0	214.31622982025146	
38	120.69075679779053	movie	1		301.0	36.0	2.5	/experiments/knapen_aot/videos/R_S_ILSVRC2015_train_00484001.mp4	0.0	214.32436180114746	2.5084080696105957
38	123.19916486740112	fix_post	2		12.0	36.0	2.5	/experiments/knapen_aot/videos/R_S_ILSVRC2015_train_00484001.mp4	0.0	216.83276987075806	0.09992694854736328
39	123.29909181594849	fix_pre	0		42.0	37.0	2.5	/experiments/knapen_aot/videos/S_ILSVRC2015_test_00004002.mp4	0.0	216.93269681930542	0.3499751091003418
39	123.64089584350586	response	0	2		37.0	2.5	/experiments/knapen_aot/videos/S_ILSVRC2015_test_00004002.mp4	0.0	217.2745008468628	
39	123.64906692504883	movie	1		301.0	37.0	2.5	/experiments/knapen_aot/videos/S_ILSVRC2015_test_00004002.mp4	0.0	217.28267192840576	2.508657932281494
39	126.14927577972412	response	1	2		37.0	2.5	/experiments/knapen_aot/videos/S_ILSVRC2015_test_00004002.mp4	0.0	219.78288078308105	
39	126.15772485733032	fix_post	2		12.0	37.0	2.5	/experiments/knapen_aot/videos/S_ILSVRC2015_test_00004002.mp4	0.0	219.79132986068726	0.0997469425201416
40	126.25747179985046	fix_pre	0		287.0	38.0	2.5	/experiments/knapen_aot/videos/R_S_b5-3.mp4	0.0	219.8910768032074	2.3916091918945312
40	128.64091300964355	response	0	2		38.0	2.5	/experiments/knapen_aot/videos/R_S_b5-3.mp4	0.0	222.2745180130005	
40	128.649080991745	movie	1		166.0	38.0	2.5	/experiments/knapen_aot/videos/R_S_b5-3.mp4	0.0	222.28268599510193	2.508340835571289
40	130.7326078414917	response	1	2		38.0	2.5	/experiments/knapen_aot/videos/R_S_b5-3.mp4	0.0	224.36621284484863	
40	131.15742182731628	fix_post	2		12.0	38.0	2.5	/experiments/knapen_aot/videos/R_S_b5-3.mp4	0.0	224.79102683067322	0.10002708435058594
41	131.25744891166687	fix_pre	0		28.0	39.0	2.5	/experiments/knapen_aot/videos/S_yt-2LCHVTVwJ5E_235.mp4	0.0	224.8910539150238	0.23352599143981934
41	131.4826159477234	response	0	2		39.0	2.5	/experiments/knapen_aot/videos/S_yt-2LCHVTVwJ5E_235.mp4	0.0	225.11622095108032	
41	131.4909749031067	movie	1		301.0	39.0	2.5	/experiments/knapen_aot/videos/S_yt-2LCHVTVwJ5E_235.mp4	0.0	225.12457990646362	2.508104085922241
41	133.1408588886261	response	1	2		39.0	2.5	/experiments/knapen_aot/videos/S_yt-2LCHVTVwJ5E_235.mp4	0.0	226.77446389198303	
41	133.99907898902893	fix_post	2		12.0	39.0	2.5	/experiments/knapen_aot/videos/S_yt-2LCHVTVwJ5E_235.mp4	0.0	227.63268399238586	0.10001087188720703
42	134.09908986091614	fix_pre	0		35.0	40.0	2.5	blank	1.0	227.73269486427307	0.2916140556335449
42	134.38253784179688	response	0	2		40.0	2.5	blank	1.0	228.0161428451538	
42	134.39070391654968	movie	1		301.0	40.0	2.5	blank	1.0	228.02430891990662	2.5083858966827393
42	136.89908981323242	fix_post	2		12.0	40.0	2.5	blank	1.0	230.53269481658936	0.09991812705993652
43	136.99900794029236	fix_pre	0		15.0	41.0	2.5	/experiments/knapen_aot/videos/R_S_ILSVRC2015_train_00165009.mp4	0.0	230.6326129436493	0.1250438690185547
43	137.11584997177124	response	0	2		41.0	2.5	/experiments/knapen_aot/videos/R_S_ILSVRC2015_train_00165009.mp4	0.0	230.74945497512817	
43	137.1240518093109	movie	1		301.0	41.0	2.5	/experiments/knapen_aot/videos/R_S_ILSVRC2015_train_00165009.mp4	0.0	230.75765681266785	2.5083751678466797
43	139.6324269771576	fix_post	2		12.0	41.0	2.5	/experiments/knapen_aot/videos/R_S_ILSVRC2015_train_00165009.mp4	0.0	233.26603198051453	0.09995603561401367
44	139.7323830127716	fix_pre	0		34.0	42.0	2.5	/experiments/knapen_aot/videos/S_yt-6vkiJedss6g_5.mp4	0.0	233.36598801612854	0.2832968235015869
44	140.0075647830963	response	0	2		42.0	2.5	/experiments/knapen_aot/videos/S_yt-6vkiJedss6g_5.mp4	0.0	233.64116978645325	
44	140.0156798362732	movie	1		299.0	42.0	2.5	/experiments/knapen_aot/videos/S_yt-6vkiJedss6g_5.mp4	0.0	233.64928483963013	2.5083580017089844
44	142.52403783798218	fix_post	2		12.0	42.0	2.5	/experiments/knapen_aot/videos/S_yt-6vkiJedss6g_5.mp4	0.0	236.1576428413391	0.09993696212768555
45	142.62397480010986	fix_pre	0		24.0	43.0	2.5	/experiments/knapen_aot/videos/R_S_yt-gmFYJR5ABNs_305.mp4	0.0	236.2575798034668	0.20020008087158203
45	142.81580996513367	response	0	2		43.0	2.5	/experiments/knapen_aot/videos/R_S_yt-gmFYJR5ABNs_305.mp4	0.0	236.4494149684906	
45	142.82417488098145	movie	1		301.0	43.0	2.5	/experiments/knapen_aot/videos/R_S_yt-gmFYJR5ABNs_305.mp4	0.0	236.45777988433838	2.5081629753112793
45	144.79421591758728	response	1	2		43.0	2.5	/experiments/knapen_aot/videos/R_S_yt-gmFYJR5ABNs_305.mp4	0.0	238.4278209209442	
45	145.33233785629272	fix_post	2		12.0	43.0	2.5	/experiments/knapen_aot/videos/R_S_yt-gmFYJR5ABNs_305.mp4	0.0	238.96594285964966	0.10000014305114746
46	145.43233799934387	fix_pre	0		58.0	44.0	2.5	/experiments/knapen_aot/videos/S_82eJpVKGnC0_188.mp4	0.0	239.0659430027008	0.48331499099731445
46	145.90746688842773	response	0	2		44.0	2.5	/experiments/knapen_aot/videos/S_82eJpVKGnC0_188.mp4	0.0	239.54107189178467	
46	145.9156529903412	movie	1		301.0	44.0	2.5	/experiments/knapen_aot/videos/S_82eJpVKGnC0_188.mp4	0.0	239.54925799369812	2.5084068775177
46	147.61950993537903	response	1	2		44.0	2.5	/experiments/knapen_aot/videos/S_82eJpVKGnC0_188.mp4	0.0	241.25311493873596	
46	148.4240598678589	fix_post	2		12.0	44.0	2.5	/experiments/knapen_aot/videos/S_82eJpVKGnC0_188.mp4	0.0	242.05766487121582	0.09994006156921387
47	148.5239999294281	fix_pre	0		15.0	45.0	2.5	/experiments/knapen_aot/videos/R_S_yt-WrwPgZYBXlA_34.mp4	0.0	242.15760493278503	0.12498903274536133
47	148.64077877998352	response	0	2		45.0	2.5	/experiments/knapen_aot/videos/R_S_yt-WrwPgZYBXlA_34.mp4	0.0	242.27438378334045	
47	148.64898896217346	movie	1		301.0	45.0	2.5	/experiments/knapen_aot/videos/R_S_yt-WrwPgZYBXlA_34.mp4	0.0	242.2825939655304	2.5083608627319336
47	151.1573498249054	fix_post	2		12.0	45.0	2.5	/experiments/knapen_aot/videos/R_S_yt-WrwPgZYBXlA_34.mp4	0.0	244.79095482826233	0.10002017021179199
48	151.2573699951172	fix_pre	0		42.0	46.0	2.5	/experiments/knapen_aot/videos/R_S_yt-Y7-umyL036c_507.mp4	0.0	244.89097499847412	0.3499720096588135
48	151.5991129875183	response	0	2		46.0	2.5	/experiments/knapen_aot/videos/R_S_yt-Y7-umyL036c_507.mp4	0.0	245.23271799087524	
48	151.607342004776	movie	1		301.0	46.0	2.5	/experiments/knapen_aot/videos/R_S_yt-Y7-umyL036c_507.mp4	0.0	245.24094700813293	2.5084238052368164
48	153.81733679771423	response	1	2		46.0	2.5	/experiments/knapen_aot/videos/R_S_yt-Y7-umyL036c_507.mp4	0.0	247.45094180107117	
48	154.11576581001282	fix_post	2		12.0	46.0	2.5	/experiments/knapen_aot/videos/R_S_yt-Y7-umyL036c_507.mp4	0.0	247.74937081336975	0.09991216659545898
49	154.21567797660828	fix_pre	0		91.0	47.0	2.5	blank	1.0	247.8492829799652	0.7582428455352783
49	154.95835900306702	response	0	2		47.0	2.5	blank	1.0	248.59196400642395	
49	154.97392082214355	movie	1		301.0	47.0	2.5	blank	1.0	248.6075258255005	2.5083441734313965
49	157.48226499557495	fix_post	2		12.0	47.0	2.5	blank	1.0	251.11586999893188	0.1000509262084961
50	157.58231592178345	fix_pre	0		32.0	48.0	2.5	/experiments/knapen_aot/videos/S_b8-2.mp4	0.0	251.21592092514038	0.26659488677978516
50	157.84078288078308	response	0	2		48.0	2.5	/experiments/knapen_aot/videos/S_b8-2.mp4	0.0	251.47438788414001	
50	157.84891080856323	movie	1		172.0	48.0	2.5	/experiments/knapen_aot/videos/S_b8-2.mp4	0.0	251.48251581192017	2.5083510875701904
50	160.35726189613342	fix_post	2		12.0	48.0	2.5	/experiments/knapen_aot/videos/S_b8-2.mp4	0.0	253.99086689949036	0.10005593299865723
51	160.45731782913208	fix_pre	0		7.0	49.0	2.5	/experiments/knapen_aot/videos/S_yt-h8wy6x6oytA_25.mp4	0.0	254.090922832489	0.058335065841674805
51	160.50739192962646	response	0	2		49.0	2.5	/experiments/knapen_aot/videos/S_yt-h8wy6x6oytA_25.mp4	0.0	254.1409969329834	
51	160.51565289497375	movie	1		301.0	49.0	2.5	/experiments/knapen_aot/videos/S_yt-h8wy6x6oytA_25.mp4	0.0	254.1492578983307	2.50832200050354
51	163.0239748954773	fix_post	2		12.0	49.0	2.5	/experiments/knapen_aot/videos/S_yt-h8wy6x6oytA_25.mp4	0.0	256.65757989883423	0.10003995895385742
52	163.12401485443115	fix_pre	0		52.0	50.0	2.5	/experiments/knapen_aot/videos/S_yt-O_6CyqHeJig_132.mp4	0.0	256.7576198577881	0.43321895599365234
52	163.5491349697113	response	0	2		50.0	2.5	/experiments/knapen_aot/videos/S_yt-O_6CyqHeJig_132.mp4	0.0	257.18273997306824	
52	163.5572338104248	movie	1		301.0	50.0	2.5	/experiments/knapen_aot/videos/S_yt-O_6CyqHeJig_132.mp4	0.0	257.19083881378174	2.508416175842285
52	166.0656499862671	fix_post	2		12.0	50.0	2.5	/experiments/knapen_aot/videos/S_yt-O_6CyqHeJig_132.mp4	0.0	259.699254989624	0.09999990463256836
52	166.1408929824829	response	2	2		50.0	2.5	/experiments/knapen_aot/videos/S_yt-O_6CyqHeJig_132.mp4	0.0	259.77449798583984	
53	166.16564989089966	fix_pre	0		401.0	51.0	2.5	/experiments/knapen_aot/videos/S_production_ID_5139371.mp4	0.0	259.7992548942566	3.3416130542755127
53	169.49908995628357	response	0	2		51.0	2.5	/experiments/knapen_aot/videos/S_production_ID_5139371.mp4	0.0	263.1326949596405	
53	169.50726294517517	movie	1		165.0	51.0	2.5	/experiments/knapen_aot/videos/S_production_ID_5139371.mp4	0.0	263.1408679485321	2.5083768367767334
53	171.93240094184875	response	1	2		51.0	2.5	/experiments/knapen_aot/videos/S_production_ID_5139371.mp4	0.0	265.5660059452057	
53	172.0156397819519	fix_post	2		12.0	51.0	2.5	/experiments/knapen_aot/videos/S_production_ID_5139371.mp4	0.0	265.64924478530884	0.09999799728393555
54	172.11563777923584	fix_pre	0		233.0	52.0	2.5	/experiments/knapen_aot/videos/S_yt-W4Shvmb1JYs_258.mp4	0.0	265.7492427825928	1.941667079925537
54	174.04911589622498	response	0	2		52.0	2.5	/experiments/knapen_aot/videos/S_yt-W4Shvmb1JYs_258.mp4	0.0	267.6827208995819	
54	174.05730485916138	movie	1		301.0	52.0	2.5	/experiments/knapen_aot/videos/S_yt-W4Shvmb1JYs_258.mp4	0.0	267.6909098625183	2.5082240104675293
54	176.5655288696289	fix_post	2		12.0	52.0	2.5	/experiments/knapen_aot/videos/S_yt-W4Shvmb1JYs_258.mp4	0.0	270.19913387298584	0.0999910831451416
55	176.66551995277405	fix_pre	0		38.0	53.0	2.5	/experiments/knapen_aot/videos/R_S_yt-Y7-umyL036c_507.mp4	0.0	270.299124956131	0.31670689582824707
55	176.973956823349	response	0	2		53.0	2.5	/experiments/knapen_aot/videos/R_S_yt-Y7-umyL036c_507.mp4	0.0	270.60756182670593	
55	176.9822268486023	movie	1		301.0	53.0	2.5	/experiments/knapen_aot/videos/R_S_yt-Y7-umyL036c_507.mp4	0.0	270.61583185195923	2.508305072784424
55	179.49053192138672	fix_post	2		12.0	53.0	2.5	/experiments/knapen_aot/videos/R_S_yt-Y7-umyL036c_507.mp4	0.0	273.12413692474365	0.09999608993530273
56	179.59052801132202	fix_pre	0		32.0	54.0	2.5	/experiments/knapen_aot/videos/S_ILSVRC2015_train_00165011.mp4	0.0	273.22413301467896	0.2666587829589844
56	179.84147882461548	response	0	2		54.0	2.5	/experiments/knapen_aot/videos/S_ILSVRC2015_train_00165011.mp4	0.0	273.4750838279724	
56	179.857186794281	movie	1		301.0	54.0	2.5	/experiments/knapen_aot/videos/S_ILSVRC2015_train_00165011.mp4	0.0	273.49079179763794	2.508355140686035
56	182.36554193496704	fix_post	2		12.0	54.0	2.5	/experiments/knapen_aot/videos/S_ILSVRC2015_train_00165011.mp4	0.0	275.999146938324	0.10007786750793457
57	182.46561980247498	fix_pre	0		38.0	55.0	2.5	blank	1.0	276.0992248058319	0.3165571689605713
57	182.77407693862915	response	0	2		55.0	2.5	blank	1.0	276.4076819419861	
57	182.78217697143555	movie	1		301.0	55.0	2.5	blank	1.0	276.4157819747925	2.508302927017212
57	185.29047989845276	fix_post	2		12.0	55.0	2.5	blank	1.0	278.9240849018097	0.10009193420410156
58	185.39057183265686	fix_pre	0		10.0	56.0	2.5	/experiments/knapen_aot/videos/R_S_yt-h8wy6x6oytA_25.mp4	0.0	279.0241768360138	0.08327317237854004
58	185.4656479358673	response	0	2		56.0	2.5	/experiments/knapen_aot/videos/R_S_yt-h8wy6x6oytA_25.mp4	0.0	279.09925293922424	
58	185.4738450050354	movie	1		301.0	56.0	2.5	/experiments/knapen_aot/videos/R_S_yt-h8wy6x6oytA_25.mp4	0.0	279.10745000839233	2.5083138942718506
58	187.98215889930725	fix_post	2		12.0	56.0	2.5	/experiments/knapen_aot/videos/R_S_yt-h8wy6x6oytA_25.mp4	0.0	281.6157639026642	0.10005497932434082
59	188.0822138786316	fix_pre	0		39.0	57.0	2.5	/experiments/knapen_aot/videos/R_S_yt-7e6Z9QQieAk_183.mp4	0.0	281.7158188819885	0.32488512992858887
59	188.39900588989258	response	0	2		57.0	2.5	/experiments/knapen_aot/videos/R_S_yt-7e6Z9QQieAk_183.mp4	0.0	282.0326108932495	
59	188.40709900856018	movie	1		301.0	57.0	2.5	/experiments/knapen_aot/videos/R_S_yt-7e6Z9QQieAk_183.mp4	0.0	282.0407040119171	2.5083799362182617
59	190.91547894477844	fix_post	2		12.0	57.0	2.5	/experiments/knapen_aot/videos/R_S_yt-7e6Z9QQieAk_183.mp4	0.0	284.5490839481354	0.10005688667297363
60	191.01553583145142	fix_pre	0		80.0	58.0	2.5	/experiments/knapen_aot/videos/R_S_yt-e9AZJKNv9ow_359.mp4	0.0	284.64914083480835	0.6665821075439453
60	191.67401480674744	response	0	2		58.0	2.5	/experiments/knapen_aot/videos/R_S_yt-e9AZJKNv9ow_359.mp4	0.0	285.30761981010437	
60	191.68211793899536	movie	1		301.0	58.0	2.5	/experiments/knapen_aot/videos/R_S_yt-e9AZJKNv9ow_359.mp4	0.0	285.3157229423523	2.5083999633789062
60	194.19051790237427	fix_post	2		12.0	58.0	2.5	/experiments/knapen_aot/videos/R_S_yt-e9AZJKNv9ow_359.mp4	0.0	287.8241229057312	0.09995198249816895
61	194.29046988487244	fix_pre	0		48.0	59.0	2.5	/experiments/knapen_aot/videos/R_S_yt-z16pdVTZK1o_3.mp4	0.0	287.92407488822937	0.40128302574157715
61	194.68229985237122	response	0	2		59.0	2.5	/experiments/knapen_aot/videos/R_S_yt-z16pdVTZK1o_3.mp4	0.0	288.31590485572815	
61	194.691752910614	movie	1		301.0	59.0	2.5	/experiments/knapen_aot/videos/R_S_yt-z16pdVTZK1o_3.mp4	0.0	288.32535791397095	2.5070559978485107
61	197.19880890846252	fix_post	2		12.0	59.0	2.5	/experiments/knapen_aot/videos/R_S_yt-z16pdVTZK1o_3.mp4	0.0	290.83241391181946	0.10002899169921875
62	197.29883790016174	fix_pre	0		38.0	60.0	2.5	/experiments/knapen_aot/videos/R_S_yt-BLmwmX-mni8_56.mp4	0.0	290.9324429035187	0.31665802001953125
62	197.60728096961975	response	0	2		60.0	2.5	/experiments/knapen_aot/videos/R_S_yt-BLmwmX-mni8_56.mp4	0.0	291.2408859729767	
62	197.61549592018127	movie	1		301.0	60.0	2.5	/experiments/knapen_aot/videos/R_S_yt-BLmwmX-mni8_56.mp4	0.0	291.2491009235382	2.5083000659942627
62	200.12379598617554	fix_post	2		12.0	60.0	2.5	/experiments/knapen_aot/videos/R_S_yt-BLmwmX-mni8_56.mp4	0.0	293.75740098953247	0.09993290901184082
63	200.22372889518738	fix_pre	0		15.0	61.0	2.5	blank	1.0	293.8573338985443	0.125046968460083
63	200.3406229019165	response	0	2		61.0	2.5	blank	1.0	293.97422790527344	
63	200.34877586364746	movie	1		301.0	61.0	2.5	blank	1.0	293.9823808670044	2.508342981338501
63	202.85711884498596	fix_post	2		12.0	61.0	2.5	blank	1.0	296.4907238483429	0.0999441146850586
63	202.9072368144989	response	2	2		61.0	2.5	blank	1.0	296.54084181785583	
64	202.95706295967102	fix_pre	0		51.0	62.0	2.5	/experiments/knapen_aot/videos/S_yt-EuyfT0PuOoQ_91.mp4	0.0	296.59066796302795	0.42503786087036133
64	203.37382578849792	response	0	2		62.0	2.5	/experiments/knapen_aot/videos/S_yt-EuyfT0PuOoQ_91.mp4	0.0	297.00743079185486	
64	203.38210082054138	movie	1		300.0	62.0	2.5	/experiments/knapen_aot/videos/S_yt-EuyfT0PuOoQ_91.mp4	0.0	297.0157058238983	2.5083391666412354
64	205.89043998718262	fix_post	2		12.0	62.0	2.5	/experiments/knapen_aot/videos/S_yt-EuyfT0PuOoQ_91.mp4	0.0	299.52404499053955	0.10007691383361816
65	205.99051690101624	fix_pre	0		55.0	63.0	2.5	/experiments/knapen_aot/videos/R_S_yt-sIXdPhfS67U_203.mp4	0.0	299.62412190437317	0.45822596549987793
65	206.44060277938843	response	0	2		63.0	2.5	/experiments/knapen_aot/videos/R_S_yt-sIXdPhfS67U_203.mp4	0.0	300.07420778274536	
65	206.4487428665161	movie	1		301.0	63.0	2.5	/experiments/knapen_aot/videos/R_S_yt-sIXdPhfS67U_203.mp4	0.0	300.08234786987305	2.5083870887756348
65	208.95712995529175	fix_post	2		12.0	63.0	2.5	/experiments/knapen_aot/videos/R_S_yt-sIXdPhfS67U_203.mp4	0.0	302.5907349586487	0.09996891021728516
66	209.05709886550903	fix_pre	0		162.0	64.0	2.5	/experiments/knapen_aot/videos/R_S_Pexels_Videos_2791797.mp4	0.0	302.69070386886597	1.3499250411987305
66	210.3989508152008	response	0	2		64.0	2.5	/experiments/knapen_aot/videos/R_S_Pexels_Videos_2791797.mp4	0.0	304.03255581855774	
66	210.40702390670776	movie	1		167.0	64.0	2.5	/experiments/knapen_aot/videos/R_S_Pexels_Videos_2791797.mp4	0.0	304.0406289100647	2.508354902267456
66	212.91537880897522	fix_post	2		12.0	64.0	2.5	/experiments/knapen_aot/videos/R_S_Pexels_Videos_2791797.mp4	0.0	306.54898381233215	0.09998798370361328
67	213.01536679267883	fix_pre	0		185.0	65.0	2.5	/experiments/knapen_aot/videos/S_video_inspire_florida_miami_brickell_sunset_00036.1080-h264.mp4	0.0	306.64897179603577	1.5416700839996338
67	214.54880595207214	response	0	2		65.0	2.5	/experiments/knapen_aot/videos/S_video_inspire_florida_miami_brickell_sunset_00036.1080-h264.mp4	0.0	308.1824109554291	
67	214.55703687667847	movie	1		166.0	65.0	2.5	/experiments/knapen_aot/videos/S_video_inspire_florida_miami_brickell_sunset_00036.1080-h264.mp4	0.0	308.1906418800354	2.508366107940674
67	217.06540298461914	fix_post	2		11.0	65.0	2.5	/experiments/knapen_aot/videos/S_video_inspire_florida_miami_brickell_sunset_00036.1080-h264.mp4	0.0	310.6990079879761	0.10000991821289062
68	217.16541290283203	fix_pre	0		29.0	66.0	2.5	/experiments/knapen_aot/videos/S_yt-hLNq_Qp9J70_36.mp4	0.0	310.79901790618896	0.24159693717956543
68	217.39880180358887	response	0	2		66.0	2.5	/experiments/knapen_aot/videos/S_yt-hLNq_Qp9J70_36.mp4	0.0	311.0324068069458	
68	217.4070098400116	movie	1		301.0	66.0	2.5	/experiments/knapen_aot/videos/S_yt-hLNq_Qp9J70_36.mp4	0.0	311.04061484336853	2.5083789825439453
68	219.91538882255554	fix_post	2		12.0	66.0	2.5	/experiments/knapen_aot/videos/S_yt-hLNq_Qp9J70_36.mp4	0.0	313.5489938259125	0.09996509552001953
69	220.01535391807556	fix_pre	0		15.0	67.0	2.5	/experiments/knapen_aot/videos/S_yt-RqWnxg1wT-0_41.mp4	0.0	313.6489589214325	0.12504887580871582
69	220.12458682060242	response	0	2		67.0	2.5	/experiments/knapen_aot/videos/S_yt-RqWnxg1wT-0_41.mp4	0.0	313.75819182395935	
69	220.14040279388428	movie	1		301.0	67.0	2.5	/experiments/knapen_aot/videos/S_yt-RqWnxg1wT-0_41.mp4	0.0	313.7740077972412	2.5083281993865967
69	222.64873099327087	fix_post	2		12.0	67.0	2.5	/experiments/knapen_aot/videos/S_yt-RqWnxg1wT-0_41.mp4	0.0	316.2823359966278	0.09999799728393555
70	222.7487289905548	fix_pre	0		16.0	68.0	2.5	/experiments/knapen_aot/videos/S_Pexels_Videos_2795731.mp4	0.0	316.38233399391174	0.13335299491882324
70	222.87373185157776	response	0	2		68.0	2.5	/experiments/knapen_aot/videos/S_Pexels_Videos_2795731.mp4	0.0	316.5073368549347	
70	222.88208198547363	movie	1		166.0	68.0	2.5	/experiments/knapen_aot/videos/S_Pexels_Videos_2795731.mp4	0.0	316.51568698883057	2.5083060264587402
70	225.39038801193237	fix_post	2		12.0	68.0	2.5	/experiments/knapen_aot/videos/S_Pexels_Videos_2795731.mp4	0.0	319.0239930152893	0.0999748706817627
71	225.49036288261414	fix_pre	0		30.0	69.0	2.5	blank	1.0	319.12396788597107	0.24997806549072266
71	225.73206281661987	response	0	2		69.0	2.5	blank	1.0	319.3656678199768	
71	225.74034094810486	movie	1		301.0	69.0	2.5	blank	1.0	319.3739459514618	2.5083138942718506
71	228.2486548423767	fix_post	2		12.0	69.0	2.5	blank	1.0	321.88225984573364	0.09996294975280762
72	228.34861779212952	fix_pre	0		30.0	70.0	2.5	/experiments/knapen_aot/videos/S_comp_A007_C017_01156B_v02_SDR_PS_20180925_SDR_2K_AVC.mp4	0.0	321.98222279548645	0.25003600120544434
72	228.59044790267944	response	0	2		70.0	2.5	/experiments/knapen_aot/videos/S_comp_A007_C017_01156B_v02_SDR_PS_20180925_SDR_2K_AVC.mp4	0.0	322.2240529060364	
72	228.59865379333496	movie	1		165.0	70.0	2.5	/experiments/knapen_aot/videos/S_comp_A007_C017_01156B_v02_SDR_PS_20180925_SDR_2K_AVC.mp4	0.0	322.2322587966919	2.508338212966919
72	231.10699200630188	fix_post	2		12.0	70.0	2.5	/experiments/knapen_aot/videos/S_comp_A007_C017_01156B_v02_SDR_PS_20180925_SDR_2K_AVC.mp4	0.0	324.7405970096588	0.10002589225769043
73	231.20701789855957	fix_pre	0		26.0	71.0	2.5	/experiments/knapen_aot/videos/S_bing-www_dailymotion_com_video_x64c56w_164.mp4	0.0	324.8406229019165	0.21660304069519043
73	231.41537880897522	response	0	2		71.0	2.5	/experiments/knapen_aot/videos/S_bing-www_dailymotion_com_video_x64c56w_164.mp4	0.0	325.04898381233215	
73	231.42362093925476	movie	1		172.0	71.0	2.5	/experiments/knapen_aot/videos/S_bing-www_dailymotion_com_video_x64c56w_164.mp4	0.0	325.0572259426117	2.5083529949188232
73	233.8323609828949	response	1	2		71.0	2.5	/experiments/knapen_aot/videos/S_bing-www_dailymotion_com_video_x64c56w_164.mp4	0.0	327.46596598625183	
73	233.93197393417358	fix_post	2		12.0	71.0	2.5	/experiments/knapen_aot/videos/S_bing-www_dailymotion_com_video_x64c56w_164.mp4	0.0	327.5655789375305	0.10002398490905762
74	234.03199791908264	fix_pre	0		259.0	72.0	2.5	/experiments/knapen_aot/videos/S_yt-iT6jsSikmGM_4.mp4	0.0	327.6656029224396	2.159403085708618
74	236.18202185630798	response	0	2		72.0	2.5	/experiments/knapen_aot/videos/S_yt-iT6jsSikmGM_4.mp4	0.0	329.8156268596649	
74	236.19140100479126	movie	1		301.0	72.0	2.5	/experiments/knapen_aot/videos/S_yt-iT6jsSikmGM_4.mp4	0.0	329.8250060081482	2.5072128772735596
74	238.69861388206482	fix_post	2		12.0	72.0	2.5	/experiments/knapen_aot/videos/S_yt-iT6jsSikmGM_4.mp4	0.0	332.33221888542175	0.10005903244018555
75	238.798672914505	fix_pre	0		45.0	73.0	2.5	/experiments/knapen_aot/videos/S_yt-e9AZJKNv9ow_359.mp4	0.0	332.43227791786194	0.3749120235443115
75	239.16543698310852	response	0	2		73.0	2.5	/experiments/knapen_aot/videos/S_yt-e9AZJKNv9ow_359.mp4	0.0	332.79904198646545	
75	239.17358493804932	movie	1		301.0	73.0	2.5	/experiments/knapen_aot/videos/S_yt-e9AZJKNv9ow_359.mp4	0.0	332.80718994140625	2.5083248615264893
75	241.6819097995758	fix_post	2		12.0	73.0	2.5	/experiments/knapen_aot/videos/S_yt-e9AZJKNv9ow_359.mp4	0.0	335.31551480293274	0.1000821590423584
76	241.78199195861816	fix_pre	0		36.0	74.0	2.5	/experiments/knapen_aot/videos/S_yt-v9WGfC67DPk_50.mp4	0.0	335.4155969619751	0.29990386962890625
76	242.07381582260132	response	0	2		74.0	2.5	/experiments/knapen_aot/videos/S_yt-v9WGfC67DPk_50.mp4	0.0	335.70742082595825	
76	242.08189582824707	movie	1		301.0	74.0	2.5	/experiments/knapen_aot/videos/S_yt-v9WGfC67DPk_50.mp4	0.0	335.715500831604	2.5083611011505127
76	244.50701999664307	response	1	2		74.0	2.5	/experiments/knapen_aot/videos/S_yt-v9WGfC67DPk_50.mp4	0.0	338.140625	
76	244.59025692939758	fix_post	2		12.0	74.0	2.5	/experiments/knapen_aot/videos/S_yt-v9WGfC67DPk_50.mp4	0.0	338.2238619327545	0.10001206398010254
77	244.69026899337769	fix_pre	0		66.0	75.0	2.5	blank	1.0	338.3238739967346	0.5499899387359619
77	245.2319769859314	response	0	2		75.0	2.5	blank	1.0	338.86558198928833	
77	245.24025893211365	movie	1		301.0	75.0	2.5	blank	1.0	338.8738639354706	2.5083649158477783
77	247.74862384796143	fix_post	2		12.0	75.0	2.5	blank	1.0	341.38222885131836	0.09996414184570312
78	247.84858798980713	fix_pre	0		36.0	76.0	2.5	/experiments/knapen_aot/videos/R_S_yt-JkKOG9Fxykc_94.mp4	0.0	341.48219299316406	0.3009908199310303
78	248.1328248977661	response	0	2		76.0	2.5	/experiments/knapen_aot/videos/R_S_yt-JkKOG9Fxykc_94.mp4	0.0	341.76642990112305	
78	248.14957880973816	movie	1		301.0	76.0	2.5	/experiments/knapen_aot/videos/R_S_yt-JkKOG9Fxykc_94.mp4	0.0	341.7831838130951	2.5073189735412598
78	250.65689778327942	fix_post	2		12.0	76.0	2.5	/experiments/knapen_aot/videos/R_S_yt-JkKOG9Fxykc_94.mp4	0.0	344.29050278663635	0.10000801086425781
79	250.75690579414368	fix_pre	0		60.0	77.0	2.5	/experiments/knapen_aot/videos/S_yt-B8Sy53C6Pxw_8.mp4	0.0	344.3905107975006	0.5000150203704834
79	251.24875378608704	response	0	2		77.0	2.5	/experiments/knapen_aot/videos/S_yt-B8Sy53C6Pxw_8.mp4	0.0	344.88235878944397	
79	251.25692081451416	movie	1		301.0	77.0	2.5	/experiments/knapen_aot/videos/S_yt-B8Sy53C6Pxw_8.mp4	0.0	344.8905258178711	2.5082499980926514
79	253.7651708126068	fix_post	2		12.0	77.0	2.5	/experiments/knapen_aot/videos/S_yt-B8Sy53C6Pxw_8.mp4	0.0	347.39877581596375	0.10008716583251953
80	253.86525797843933	fix_pre	0		43.0	78.0	2.5	/experiments/knapen_aot/videos/S_yt-Xs-YKSogfak_24.mp4	0.0	347.49886298179626	0.3582890033721924
80	254.2153558731079	response	0	2		78.0	2.5	/experiments/knapen_aot/videos/S_yt-Xs-YKSogfak_24.mp4	0.0	347.84896087646484	
80	254.22354698181152	movie	1		301.0	78.0	2.5	/experiments/knapen_aot/videos/S_yt-Xs-YKSogfak_24.mp4	0.0	347.85715198516846	2.5084128379821777
80	256.7319598197937	fix_post	2		12.0	78.0	2.5	/experiments/knapen_aot/videos/S_yt-Xs-YKSogfak_24.mp4	0.0	350.36556482315063	0.09997797012329102
81	256.831937789917	fix_pre	0		31.0	79.0	2.5	/experiments/knapen_aot/videos/R_S_ILSVRC2015_train_00324001.mp4	0.0	350.4655427932739	0.2582390308380127
81	257.0819408893585	response	0	2		79.0	2.5	/experiments/knapen_aot/videos/R_S_ILSVRC2015_train_00324001.mp4	0.0	350.71554589271545	
81	257.090176820755	movie	1		301.0	79.0	2.5	/experiments/knapen_aot/videos/R_S_ILSVRC2015_train_00324001.mp4	0.0	350.72378182411194	2.508358955383301
81	259.0903129577637	response	1	2		79.0	2.5	/experiments/knapen_aot/videos/R_S_ILSVRC2015_train_00324001.mp4	0.0	352.7239179611206	
81	259.5985357761383	fix_post	2		12.0	79.0	2.5	/experiments/knapen_aot/videos/R_S_ILSVRC2015_train_00324001.mp4	0.0	353.23214077949524	0.09993410110473633
82	259.69846987724304	fix_pre	0		50.0	80.0	2.5	/experiments/knapen_aot/videos/S_ILSVRC2015_train_00610000.mp4	0.0	353.3320748806	0.4166839122772217
82	260.10697984695435	response	0	2		80.0	2.5	/experiments/knapen_aot/videos/S_ILSVRC2015_train_00610000.mp4	0.0	353.7405848503113	
82	260.11515378952026	movie	1		301.0	80.0	2.5	/experiments/knapen_aot/videos/S_ILSVRC2015_train_00610000.mp4	0.0	353.7487587928772	2.508413076400757
82	260.92381501197815	response	1	2		80.0	2.5	/experiments/knapen_aot/videos/S_ILSVRC2015_train_00610000.mp4	0.0	354.5574200153351	
82	262.623566865921	fix_post	2		12.0	80.0	2.5	/experiments/knapen_aot/videos/S_ILSVRC2015_train_00610000.mp4	0.0	356.25717186927795	0.09990596771240234
83	262.7234728336334	fix_pre	0		199.0	81.0	2.5	/experiments/knapen_aot/videos/S_yt-O_6CyqHeJig_132.mp4	0.0	356.35707783699036	1.658355951309204
83	264.3735728263855	response	0	2		81.0	2.5	/experiments/knapen_aot/videos/S_yt-O_6CyqHeJig_132.mp4	0.0	358.00717782974243	
83	264.3818287849426	movie	1		301.0	81.0	2.5	/experiments/knapen_aot/videos/S_yt-O_6CyqHeJig_132.mp4	0.0	358.01543378829956	2.508324146270752
83	265.5403559207916	response	1	2		81.0	2.5	/experiments/knapen_aot/videos/S_yt-O_6CyqHeJig_132.mp4	0.0	359.17396092414856	
83	266.8901529312134	fix_post	2		12.0	81.0	2.5	/experiments/knapen_aot/videos/S_yt-O_6CyqHeJig_132.mp4	0.0	360.5237579345703	0.1000208854675293
84	266.9901738166809	fix_pre	0		30.0	82.0	2.5	/experiments/knapen_aot/videos/R_S_yt-GyMWMiWvuiA_237.mp4	0.0	360.62377882003784	0.2500181198120117
84	267.2319028377533	response	0	2		82.0	2.5	/experiments/knapen_aot/videos/R_S_yt-GyMWMiWvuiA_237.mp4	0.0	360.86550784111023	
84	267.2401919364929	movie	1		301.0	82.0	2.5	/experiments/knapen_aot/videos/R_S_yt-GyMWMiWvuiA_237.mp4	0.0	360.87379693984985	2.5083179473876953
84	269.7485098838806	fix_post	2		12.0	82.0	2.5	/experiments/knapen_aot/videos/R_S_yt-GyMWMiWvuiA_237.mp4	0.0	363.38211488723755	0.09999299049377441
85	269.8485028743744	fix_pre	0		33.0	83.0	2.5	blank	1.0	363.4821078777313	0.274946928024292
85	270.1152968406677	response	0	2		83.0	2.5	blank	1.0	363.74890184402466	
85	270.1234498023987	movie	1		301.0	83.0	2.5	blank	1.0	363.7570548057556	2.5084290504455566
85	272.5402979850769	response	1	2		83.0	2.5	blank	1.0	366.17390298843384	
85	272.63187885284424	fix_post	2		12.0	83.0	2.5	blank	1.0	366.2654838562012	0.09998202323913574
87	272.7318608760834	stim	0		137.0					366.3654658794403	1.1416590213775635
87	273.8654727935791	response	0	space						367.49907779693604	
