trial_nr	onset	event_type	phase	response	nr_frames	movie_index	movie_duration	movie_file	blank	onset_abs	duration
0	0.12918305397033691	stim	0		61.0					58.30209803581238	0.504141092300415
0	0.62518310546875	response	0	space						58.79809808731079	
1	0.633324146270752	stim	0		121.0					58.80623912811279	1.0098018646240234
1	1.1084551811218262	response	0	space						59.28137016296387	
1	1.3927221298217773	response	0	space						59.56563711166382	
1	1.6334011554718018	response	0	space						59.80631613731384	
1	1.6431260108947754	stim	1		120.0					59.816040992736816	0.998225212097168
1	1.824817180633545	response	1	space						59.997732162475586	
1	2.024726152420044	response	1	space						60.197641134262085	
1	2.217236042022705	response	1	space						60.390151023864746	
1	2.417253017425537	response	1	space						60.59016799926758	
2	2.6413512229919434	fix_pre	0		23.0	0.0	2.5	/experiments/knapen_aot/videos/S_yt-2dRSJcaJIXw_32.mp4	0.0	60.814266204833984	0.1915438175201416
2	2.8248071670532227	response	0	space		0.0	2.5	/experiments/knapen_aot/videos/S_yt-2dRSJcaJIXw_32.mp4	0.0	60.997722148895264	
2	2.832895040512085	movie	1		301.0	0.0	2.5	/experiments/knapen_aot/videos/S_yt-2dRSJcaJIXw_32.mp4	0.0	61.005810022354126	2.508466958999634
2	5.341361999511719	fix_post	2		12.0	0.0	2.5	/experiments/knapen_aot/videos/S_yt-2dRSJcaJIXw_32.mp4	0.0	63.51427698135376	0.09994101524353027
3	5.441303014755249	fix_pre	0		424.0	1.0	2.5	/experiments/knapen_aot/videos/R_S_yt-3aTDYxyF6bc_35.mp4	0.0	63.61421799659729	3.5346240997314453
3	8.970982074737549	response	0	4		1.0	2.5	/experiments/knapen_aot/videos/R_S_yt-3aTDYxyF6bc_35.mp4	0.0	67.14389705657959	
3	8.975927114486694	movie	1		301.0	1.0	2.5	/experiments/knapen_aot/videos/R_S_yt-3aTDYxyF6bc_35.mp4	0.0	67.14884209632874	2.507025957107544
3	11.482953071594238	fix_post	2		12.0	1.0	2.5	/experiments/knapen_aot/videos/R_S_yt-3aTDYxyF6bc_35.mp4	0.0	69.65586805343628	0.09999608993530273
4	11.582949161529541	fix_pre	0		29.0	2.0	2.5	/experiments/knapen_aot/videos/S_production_ID_4325516.mp4	0.0	69.75586414337158	0.24164104461669922
4	11.816381216049194	response	0	4		2.0	2.5	/experiments/knapen_aot/videos/S_production_ID_4325516.mp4	0.0	69.98929619789124	
4	11.82459020614624	movie	1		205.0	2.0	2.5	/experiments/knapen_aot/videos/S_production_ID_4325516.mp4	0.0	69.99750518798828	2.5083179473876953
4	14.332908153533936	fix_post	2		12.0	2.0	2.5	/experiments/knapen_aot/videos/S_production_ID_4325516.mp4	0.0	72.50582313537598	0.09993505477905273
4	14.416351079940796	response	2	4		2.0	2.5	/experiments/knapen_aot/videos/S_production_ID_4325516.mp4	0.0	72.58926606178284	
5	14.432843208312988	fix_pre	0		64.0	3.0	2.5	/experiments/knapen_aot/videos/R_S_yt-kawmL3oVw8c_2.mp4	0.0	72.60575819015503	0.5334289073944092
5	14.958089113235474	response	0	4		3.0	2.5	/experiments/knapen_aot/videos/R_S_yt-kawmL3oVw8c_2.mp4	0.0	73.13100409507751	
5	14.966272115707397	movie	1		301.0	3.0	2.5	/experiments/knapen_aot/videos/R_S_yt-kawmL3oVw8c_2.mp4	0.0	73.13918709754944	2.508225917816162
5	17.424744129180908	response	1	4		3.0	2.5	/experiments/knapen_aot/videos/R_S_yt-kawmL3oVw8c_2.mp4	0.0	75.59765911102295	
5	17.47449803352356	fix_post	2		12.0	3.0	2.5	/experiments/knapen_aot/videos/R_S_yt-kawmL3oVw8c_2.mp4	0.0	75.6474130153656	0.10010313987731934
6	17.57460117340088	fix_pre	0		32.0	4.0	2.5	/experiments/knapen_aot/videos/R_S_yt-LdHRVIb4nIE_6.mp4	0.0	75.74751615524292	0.26656603813171387
6	17.833046197891235	response	0	4		4.0	2.5	/experiments/knapen_aot/videos/R_S_yt-LdHRVIb4nIE_6.mp4	0.0	76.00596117973328	
6	17.841167211532593	movie	1		301.0	4.0	2.5	/experiments/knapen_aot/videos/R_S_yt-LdHRVIb4nIE_6.mp4	0.0	76.01408219337463	2.5083718299865723
6	20.349539041519165	fix_post	2		12.0	4.0	2.5	/experiments/knapen_aot/videos/R_S_yt-LdHRVIb4nIE_6.mp4	0.0	78.5224540233612	0.10001111030578613
7	20.44955015182495	fix_pre	0		5.0	5.0	2.5	/experiments/knapen_aot/videos/R_S_yt-NLfzvAJgyJ4_120.mp4	0.0	78.62246513366699	0.041676998138427734
7	20.483389139175415	response	0	4		5.0	2.5	/experiments/knapen_aot/videos/R_S_yt-NLfzvAJgyJ4_120.mp4	0.0	78.65630412101746	
7	20.49122714996338	movie	1		299.0	5.0	2.5	/experiments/knapen_aot/videos/R_S_yt-NLfzvAJgyJ4_120.mp4	0.0	78.66414213180542	2.5083730220794678
7	22.999600172042847	fix_post	2		12.0	5.0	2.5	/experiments/knapen_aot/videos/R_S_yt-NLfzvAJgyJ4_120.mp4	0.0	81.17251515388489	0.09999990463256836
8	23.099600076675415	fix_pre	0		24.0	6.0	2.5	/experiments/knapen_aot/videos/R_S_yt-FLMdajcbjcg_35.mp4	0.0	81.27251505851746	0.19998502731323242
8	23.2913601398468	response	0	4		6.0	2.5	/experiments/knapen_aot/videos/R_S_yt-FLMdajcbjcg_35.mp4	0.0	81.46427512168884	
8	23.299585103988647	movie	1		301.0	6.0	2.5	/experiments/knapen_aot/videos/R_S_yt-FLMdajcbjcg_35.mp4	0.0	81.47250008583069	2.508327007293701
8	25.80791211128235	fix_post	2		12.0	6.0	2.5	/experiments/knapen_aot/videos/R_S_yt-FLMdajcbjcg_35.mp4	0.0	83.98082709312439	0.09999895095825195
9	25.9079110622406	fix_pre	0		3.0	7.0	2.5	blank	1.0	84.08082604408264	0.024923086166381836
9	25.92471718788147	response	0	4		7.0	2.5	blank	1.0	84.09763216972351	
9	25.932834148406982	movie	1		301.0	7.0	2.5	blank	1.0	84.10574913024902	2.5084009170532227
9	28.441235065460205	fix_post	2		12.0	7.0	2.5	blank	1.0	86.61415004730225	0.09992504119873047
10	28.541160106658936	fix_pre	0		32.0	8.0	2.5	/experiments/knapen_aot/videos/R_S_pexels-diva-plavalaguna-6985395_1.mp4	0.0	86.71407508850098	0.2667200565338135
10	28.792180061340332	response	0	4		8.0	2.5	/experiments/knapen_aot/videos/R_S_pexels-diva-plavalaguna-6985395_1.mp4	0.0	86.96509504318237	
10	28.80788016319275	movie	1		161.0	8.0	2.5	/experiments/knapen_aot/videos/R_S_pexels-diva-plavalaguna-6985395_1.mp4	0.0	86.98079514503479	2.5083529949188232
10	31.208083152770996	response	1	4		8.0	2.5	/experiments/knapen_aot/videos/R_S_pexels-diva-plavalaguna-6985395_1.mp4	0.0	89.38099813461304	
10	31.316233158111572	fix_post	2		12.0	8.0	2.5	/experiments/knapen_aot/videos/R_S_pexels-diva-plavalaguna-6985395_1.mp4	0.0	89.48914813995361	0.09996700286865234
11	31.416200160980225	fix_pre	0		53.0	9.0	2.5	/experiments/knapen_aot/videos/R_S_video-10.mp4	0.0	89.58911514282227	0.4416060447692871
11	31.849647045135498	response	0	4		9.0	2.5	/experiments/knapen_aot/videos/R_S_video-10.mp4	0.0	90.02256202697754	
11	31.85780620574951	movie	1		163.0	9.0	2.5	/experiments/knapen_aot/videos/R_S_video-10.mp4	0.0	90.03072118759155	2.5083818435668945
11	34.048202991485596	response	1	4		9.0	2.5	/experiments/knapen_aot/videos/R_S_video-10.mp4	0.0	92.22111797332764	
11	34.366188049316406	fix_post	2		12.0	9.0	2.5	/experiments/knapen_aot/videos/R_S_video-10.mp4	0.0	92.53910303115845	0.09997916221618652
12	34.46616721153259	fix_pre	0		17.0	10.0	2.5	/experiments/knapen_aot/videos/S_yt-uXDyvrm0Tw0_17.mp4	0.0	92.63908219337463	0.1416618824005127
12	34.599682092666626	response	0	4		10.0	2.5	/experiments/knapen_aot/videos/S_yt-uXDyvrm0Tw0_17.mp4	0.0	92.77259707450867	
12	34.607829093933105	movie	1		300.0	10.0	2.5	/experiments/knapen_aot/videos/S_yt-uXDyvrm0Tw0_17.mp4	0.0	92.78074407577515	2.508392095565796
12	37.1162211894989	fix_post	2		12.0	10.0	2.5	/experiments/knapen_aot/videos/S_yt-uXDyvrm0Tw0_17.mp4	0.0	95.28913617134094	0.09992599487304688
13	37.21614718437195	fix_pre	0		24.0	11.0	2.5	/experiments/knapen_aot/videos/R_S_wc-PsidKmkEV7Km_14.mp4	0.0	95.38906216621399	0.19998788833618164
13	37.40794515609741	response	0	4		11.0	2.5	/experiments/knapen_aot/videos/R_S_wc-PsidKmkEV7Km_14.mp4	0.0	95.58086013793945	
13	37.41613507270813	movie	1		166.0	11.0	2.5	/experiments/knapen_aot/videos/R_S_wc-PsidKmkEV7Km_14.mp4	0.0	95.58905005455017	2.5000269412994385
13	39.907992124557495	response	1	4		11.0	2.5	/experiments/knapen_aot/videos/R_S_wc-PsidKmkEV7Km_14.mp4	0.0	98.08090710639954	
13	39.91616201400757	fix_post	2		13.0	11.0	2.5	/experiments/knapen_aot/videos/R_S_wc-PsidKmkEV7Km_14.mp4	0.0	98.08907699584961	0.10834407806396484
14	40.02450609207153	fix_pre	0		32.0	12.0	2.5	blank	1.0	98.19742107391357	0.26654911041259766
14	40.28290009498596	response	0	4		12.0	2.5	blank	1.0	98.455815076828	
14	40.29105520248413	movie	1		301.0	12.0	2.5	blank	1.0	98.46397018432617	2.5084049701690674
14	42.7994601726532	fix_post	2		12.0	12.0	2.5	blank	1.0	100.97237515449524	0.10002589225769043
15	42.89948606491089	fix_pre	0		23.0	13.0	2.5	/experiments/knapen_aot/videos/S_ILSVRC2015_train_00251005.mp4	0.0	101.07240104675293	0.1915879249572754
15	43.08287215232849	response	0	4		13.0	2.5	/experiments/knapen_aot/videos/S_ILSVRC2015_train_00251005.mp4	0.0	101.25578713417053	
15	43.091073989868164	movie	1		301.0	13.0	2.5	/experiments/knapen_aot/videos/S_ILSVRC2015_train_00251005.mp4	0.0	101.2639889717102	2.508350133895874
15	44.691301107406616	response	1	4		13.0	2.5	/experiments/knapen_aot/videos/S_ILSVRC2015_train_00251005.mp4	0.0	102.86421608924866	
15	45.59942412376404	fix_post	2		12.0	13.0	2.5	/experiments/knapen_aot/videos/S_ILSVRC2015_train_00251005.mp4	0.0	103.77233910560608	0.10003805160522461
15	45.61620306968689	response	2	4		13.0	2.5	/experiments/knapen_aot/videos/S_ILSVRC2015_train_00251005.mp4	0.0	103.78911805152893	
16	45.69946217536926	fix_pre	0		107.0	14.0	2.5	/experiments/knapen_aot/videos/S_yt-GBt59U0KUR0_6.mp4	0.0	103.8723771572113	0.8916280269622803
16	46.57538914680481	response	0	4		14.0	2.5	/experiments/knapen_aot/videos/S_yt-GBt59U0KUR0_6.mp4	0.0	104.74830412864685	
16	46.59109020233154	movie	1		301.0	14.0	2.5	/experiments/knapen_aot/videos/S_yt-GBt59U0KUR0_6.mp4	0.0	104.76400518417358	2.5083699226379395
16	49.09946012496948	fix_post	2		12.0	14.0	2.5	/experiments/knapen_aot/videos/S_yt-GBt59U0KUR0_6.mp4	0.0	107.27237510681152	0.10000991821289062
17	49.19947004318237	fix_pre	0		35.0	15.0	2.5	/experiments/knapen_aot/videos/S_yt--5ls65Ue1RA_52.mp4	0.0	107.37238502502441	0.29163217544555664
17	49.47540807723999	response	0	4		15.0	2.5	/experiments/knapen_aot/videos/S_yt--5ls65Ue1RA_52.mp4	0.0	107.64832305908203	
17	49.49110221862793	movie	1		301.0	15.0	2.5	/experiments/knapen_aot/videos/S_yt--5ls65Ue1RA_52.mp4	0.0	107.66401720046997	2.508333921432495
17	51.999436140060425	fix_post	2		12.0	15.0	2.5	/experiments/knapen_aot/videos/S_yt--5ls65Ue1RA_52.mp4	0.0	110.17235112190247	0.10116386413574219
17	52.09124302864075	response	2	4		15.0	2.5	/experiments/knapen_aot/videos/S_yt--5ls65Ue1RA_52.mp4	0.0	110.26415801048279	
18	52.10060000419617	fix_pre	0		48.0	16.0	2.5	/experiments/knapen_aot/videos/S_ILSVRC2015_train_00569006.mp4	0.0	110.27351498603821	0.3988480567932129
18	52.48379111289978	response	0	4		16.0	2.5	/experiments/knapen_aot/videos/S_ILSVRC2015_train_00569006.mp4	0.0	110.65670609474182	
18	52.49944806098938	movie	1		301.0	16.0	2.5	/experiments/knapen_aot/videos/S_ILSVRC2015_train_00569006.mp4	0.0	110.67236304283142	2.5082671642303467
18	55.00771522521973	fix_post	2		12.0	16.0	2.5	/experiments/knapen_aot/videos/S_ILSVRC2015_train_00569006.mp4	0.0	113.18063020706177	0.0999908447265625
18	55.04956412315369	response	2	4		16.0	2.5	/experiments/knapen_aot/videos/S_ILSVRC2015_train_00569006.mp4	0.0	113.22247910499573	
19	55.10770606994629	fix_pre	0		42.0	17.0	2.5	/experiments/knapen_aot/videos/S_yt-FoO02U39gy4_398.mp4	0.0	113.28062105178833	0.3500089645385742
19	55.449496030807495	response	0	4		17.0	2.5	/experiments/knapen_aot/videos/S_yt-FoO02U39gy4_398.mp4	0.0	113.62241101264954	
19	55.45771503448486	movie	1		301.0	17.0	2.5	/experiments/knapen_aot/videos/S_yt-FoO02U39gy4_398.mp4	0.0	113.6306300163269	2.508394956588745
19	57.157875061035156	response	1	4		17.0	2.5	/experiments/knapen_aot/videos/S_yt-FoO02U39gy4_398.mp4	0.0	115.3307900428772	
19	57.96610999107361	fix_post	2		12.0	17.0	2.5	/experiments/knapen_aot/videos/S_yt-FoO02U39gy4_398.mp4	0.0	116.13902497291565	0.09999418258666992
20	58.06610417366028	fix_pre	0		29.0	18.0	2.5	/experiments/knapen_aot/videos/R_S_ILSVRC2015_train_00363000.mp4	0.0	116.23901915550232	0.24271297454833984
20	58.299453020095825	response	0	4		18.0	2.5	/experiments/knapen_aot/videos/R_S_ILSVRC2015_train_00363000.mp4	0.0	116.47236800193787	
20	58.30881714820862	movie	1		301.0	18.0	2.5	/experiments/knapen_aot/videos/R_S_ILSVRC2015_train_00363000.mp4	0.0	116.48173213005066	2.507258892059326
20	59.61166000366211	response	1	4		18.0	2.5	/experiments/knapen_aot/videos/R_S_ILSVRC2015_train_00363000.mp4	0.0	117.78457498550415	
20	60.33671021461487	response	1	4		18.0	2.5	/experiments/knapen_aot/videos/R_S_ILSVRC2015_train_00363000.mp4	0.0	118.50962519645691	
20	60.816076040267944	fix_post	2		12.0	18.0	2.5	/experiments/knapen_aot/videos/R_S_ILSVRC2015_train_00363000.mp4	0.0	118.98899102210999	0.10001301765441895
21	60.91608905792236	fix_pre	0		5.0	19.0	2.5	/experiments/knapen_aot/videos/R_S_ILSVRC2015_train_00371013.mp4	0.0	119.0890040397644	0.041676998138427734
21	60.949485063552856	response	0	4		19.0	2.5	/experiments/knapen_aot/videos/R_S_ILSVRC2015_train_00371013.mp4	0.0	119.1224000453949	
21	60.95776605606079	movie	1		301.0	19.0	2.5	/experiments/knapen_aot/videos/R_S_ILSVRC2015_train_00371013.mp4	0.0	119.13068103790283	2.5083420276641846
21	63.466108083724976	fix_post	2		12.0	19.0	2.5	/experiments/knapen_aot/videos/R_S_ILSVRC2015_train_00371013.mp4	0.0	121.63902306556702	0.09996390342712402
22	63.5660719871521	fix_pre	0		19.0	20.0	2.5	blank	1.0	121.73898696899414	0.15838408470153809
22	63.71611499786377	response	0	4		20.0	2.5	blank	1.0	121.88902997970581	
22	63.72445607185364	movie	1		301.0	20.0	2.5	blank	1.0	121.89737105369568	2.5082240104675293
22	64.31612300872803	response	1	4		20.0	2.5	blank	1.0	122.48903799057007	
22	65.09953808784485	response	1	4		20.0	2.5	blank	1.0	123.27245306968689	
22	66.23268008232117	fix_post	2		12.0	20.0	2.5	blank	1.0	124.40559506416321	0.09992814064025879
23	66.33260822296143	fix_pre	0		181.0	21.0	2.5	/experiments/knapen_aot/videos/R_S_pexels-tima-miroshnichenko-8724308.mp4	0.0	124.50552320480347	1.5083928108215332
23	67.83282804489136	response	0	4		21.0	2.5	/experiments/knapen_aot/videos/R_S_pexels-tima-miroshnichenko-8724308.mp4	0.0	126.0057430267334	
23	67.84100103378296	movie	1		189.0	21.0	2.5	/experiments/knapen_aot/videos/R_S_pexels-tima-miroshnichenko-8724308.mp4	0.0	126.013916015625	2.508416175842285
23	70.34941720962524	fix_post	2		12.0	21.0	2.5	/experiments/knapen_aot/videos/R_S_pexels-tima-miroshnichenko-8724308.mp4	0.0	128.52233219146729	0.09999799728393555
24	70.44941520690918	fix_pre	0		37.0	22.0	2.5	/experiments/knapen_aot/videos/S_yt-1V0KJEc4cJ4_203.mp4	0.0	128.62233018875122	0.3082737922668457
24	70.74939107894897	response	0	4		22.0	2.5	/experiments/knapen_aot/videos/S_yt-1V0KJEc4cJ4_203.mp4	0.0	128.92230606079102	
24	70.75768899917603	movie	1		301.0	22.0	2.5	/experiments/knapen_aot/videos/S_yt-1V0KJEc4cJ4_203.mp4	0.0	128.93060398101807	2.5083091259002686
24	73.2659981250763	fix_post	2		12.0	22.0	2.5	/experiments/knapen_aot/videos/S_yt-1V0KJEc4cJ4_203.mp4	0.0	131.43891310691833	0.10000801086425781
25	73.36600613594055	fix_pre	0		50.0	23.0	2.5	/experiments/knapen_aot/videos/R_S_yt-VTNBCfQxnsk_59.mp4	0.0	131.5389211177826	0.41661596298217773
25	73.77447199821472	response	0	4		23.0	2.5	/experiments/knapen_aot/videos/R_S_yt-VTNBCfQxnsk_59.mp4	0.0	131.94738698005676	
25	73.78262209892273	movie	1		301.0	23.0	2.5	/experiments/knapen_aot/videos/R_S_yt-VTNBCfQxnsk_59.mp4	0.0	131.95553708076477	2.508362054824829
25	76.29098415374756	fix_post	2		12.0	23.0	2.5	/experiments/knapen_aot/videos/R_S_yt-VTNBCfQxnsk_59.mp4	0.0	134.4638991355896	0.10004806518554688
26	76.3910322189331	fix_pre	0		40.0	24.0	2.5	/experiments/knapen_aot/videos/S_yt-SRozDkhwx28_1463.mp4	0.0	134.56394720077515	0.33423590660095215
26	76.71612620353699	response	0	4		24.0	2.5	/experiments/knapen_aot/videos/S_yt-SRozDkhwx28_1463.mp4	0.0	134.88904118537903	
26	76.72526812553406	movie	1		301.0	24.0	2.5	/experiments/knapen_aot/videos/S_yt-SRozDkhwx28_1463.mp4	0.0	134.8981831073761	2.5073580741882324
26	79.23262619972229	fix_post	2		12.0	24.0	2.5	/experiments/knapen_aot/videos/S_yt-SRozDkhwx28_1463.mp4	0.0	137.40554118156433	0.10002589225769043
27	79.33265209197998	fix_pre	0		35.0	25.0	2.5	/experiments/knapen_aot/videos/S_Y003_C009_SDR_2K_AVC.mp4	0.0	137.50556707382202	0.29166197776794434
27	79.61615014076233	response	0	4		25.0	2.5	/experiments/knapen_aot/videos/S_Y003_C009_SDR_2K_AVC.mp4	0.0	137.78906512260437	
27	79.62431406974792	movie	1		170.0	25.0	2.5	/experiments/knapen_aot/videos/S_Y003_C009_SDR_2K_AVC.mp4	0.0	137.79722905158997	2.5082571506500244
27	82.13257122039795	fix_post	2		12.0	25.0	2.5	/experiments/knapen_aot/videos/S_Y003_C009_SDR_2K_AVC.mp4	0.0	140.30548620224	0.10004997253417969
28	82.23262119293213	fix_pre	0		25.0	26.0	2.5	/experiments/knapen_aot/videos/R_S_Pexels_Videos_2786546.mp4	0.0	140.40553617477417	0.20833301544189453
28	82.43275499343872	response	0	4		26.0	2.5	/experiments/knapen_aot/videos/R_S_Pexels_Videos_2786546.mp4	0.0	140.60566997528076	
28	82.44095420837402	movie	1		165.0	26.0	2.5	/experiments/knapen_aot/videos/R_S_Pexels_Videos_2786546.mp4	0.0	140.61386919021606	2.5083630084991455
28	84.94931721687317	fix_post	2		12.0	26.0	2.5	/experiments/knapen_aot/videos/R_S_Pexels_Videos_2786546.mp4	0.0	143.1222321987152	0.09996485710144043
29	85.04928207397461	fix_pre	0		66.0	27.0	2.5	/experiments/knapen_aot/videos/S_yt-Rybd-sKJFz0_78.mp4	0.0	143.22219705581665	0.5508921146392822
29	85.59112000465393	response	0	4		27.0	2.5	/experiments/knapen_aot/videos/S_yt-Rybd-sKJFz0_78.mp4	0.0	143.76403498649597	
29	85.60017418861389	movie	1		301.0	27.0	2.5	/experiments/knapen_aot/videos/S_yt-Rybd-sKJFz0_78.mp4	0.0	143.77308917045593	2.5073509216308594
29	88.10752511024475	fix_post	2		12.0	27.0	2.5	/experiments/knapen_aot/videos/S_yt-Rybd-sKJFz0_78.mp4	0.0	146.2804400920868	0.10005998611450195
30	88.20758509635925	fix_pre	0		58.0	28.0	2.5	blank	1.0	146.3805000782013	0.4833869934082031
30	88.68270015716553	response	0	4		28.0	2.5	blank	1.0	146.85561513900757	
30	88.69097208976746	movie	1		301.0	28.0	2.5	blank	1.0	146.8638870716095	2.5083811283111572
30	89.56603002548218	response	1	4		28.0	2.5	blank	1.0	147.73894500732422	
30	91.19935321807861	fix_post	2		12.0	28.0	2.5	blank	1.0	149.37226819992065	0.09991884231567383
31	91.29927206039429	fix_pre	0		33.0	29.0	2.5	/experiments/knapen_aot/videos/S_ILSVRC2015_train_00371013.mp4	0.0	149.47218704223633	0.27500200271606445
31	91.5660560131073	response	0	4		29.0	2.5	/experiments/knapen_aot/videos/S_ILSVRC2015_train_00371013.mp4	0.0	149.73897099494934	
31	91.57427406311035	movie	1		301.0	29.0	2.5	/experiments/knapen_aot/videos/S_ILSVRC2015_train_00371013.mp4	0.0	149.7471890449524	2.5083680152893066
31	94.05769920349121	response	1	4		29.0	2.5	/experiments/knapen_aot/videos/S_ILSVRC2015_train_00371013.mp4	0.0	152.23061418533325	
31	94.08264207839966	fix_post	2		12.0	29.0	2.5	/experiments/knapen_aot/videos/S_ILSVRC2015_train_00371013.mp4	0.0	152.2555570602417	0.09999394416809082
32	94.18263602256775	fix_pre	0		84.0	30.0	2.5	/experiments/knapen_aot/videos/S_yt-hZxbKZ1WCVg_24.mp4	0.0	152.3555510044098	0.699970006942749
32	94.87433409690857	response	0	4		30.0	2.5	/experiments/knapen_aot/videos/S_yt-hZxbKZ1WCVg_24.mp4	0.0	153.0472490787506	
32	94.8826060295105	movie	1		298.0	30.0	2.5	/experiments/knapen_aot/videos/S_yt-hZxbKZ1WCVg_24.mp4	0.0	153.05552101135254	2.5083720684051514
32	97.39097809791565	fix_post	2		12.0	30.0	2.5	/experiments/knapen_aot/videos/S_yt-hZxbKZ1WCVg_24.mp4	0.0	155.5638930797577	0.09991812705993652
33	97.49089622497559	fix_pre	0		26.0	31.0	2.5	/experiments/knapen_aot/videos/S_yt-8y7Xhp2_2e0_168.mp4	0.0	155.66381120681763	0.21668076515197754
33	97.69939708709717	response	0	4		31.0	2.5	/experiments/knapen_aot/videos/S_yt-8y7Xhp2_2e0_168.mp4	0.0	155.8723120689392	
33	97.70757699012756	movie	1		301.0	31.0	2.5	/experiments/knapen_aot/videos/S_yt-8y7Xhp2_2e0_168.mp4	0.0	155.8804919719696	2.5082972049713135
33	100.21587419509888	fix_post	2		12.0	31.0	2.5	/experiments/knapen_aot/videos/S_yt-8y7Xhp2_2e0_168.mp4	0.0	158.38878917694092	0.10002899169921875
34	100.3159031867981	fix_pre	0		22.0	32.0	2.5	/experiments/knapen_aot/videos/S_yt-LdHRVIb4nIE_6.mp4	0.0	158.48881816864014	0.18333697319030762
34	100.49102210998535	response	0	4		32.0	2.5	/experiments/knapen_aot/videos/S_yt-LdHRVIb4nIE_6.mp4	0.0	158.6639370918274	
34	100.4992401599884	movie	1		301.0	32.0	2.5	/experiments/knapen_aot/videos/S_yt-LdHRVIb4nIE_6.mp4	0.0	158.67215514183044	2.5083348751068115
34	103.00757503509521	fix_post	2		12.0	32.0	2.5	/experiments/knapen_aot/videos/S_yt-LdHRVIb4nIE_6.mp4	0.0	161.18049001693726	0.1000070571899414
35	103.10758209228516	fix_pre	0		53.0	33.0	2.5	/experiments/knapen_aot/videos/S_pexels-polina-tankilevitch-8203088.mp4	0.0	161.2804970741272	0.44171690940856934
35	103.54101610183716	response	0	4		33.0	2.5	/experiments/knapen_aot/videos/S_pexels-polina-tankilevitch-8203088.mp4	0.0	161.7139310836792	
35	103.54929900169373	movie	1		161.0	33.0	2.5	/experiments/knapen_aot/videos/S_pexels-polina-tankilevitch-8203088.mp4	0.0	161.72221398353577	2.5082550048828125
35	105.14937210083008	response	1	4		33.0	2.5	/experiments/knapen_aot/videos/S_pexels-polina-tankilevitch-8203088.mp4	0.0	163.32228708267212	
35	106.05755400657654	fix_post	2		12.0	33.0	2.5	/experiments/knapen_aot/videos/S_pexels-polina-tankilevitch-8203088.mp4	0.0	164.23046898841858	0.10002899169921875
36	106.15758299827576	fix_pre	0		165.0	34.0	2.5	blank	1.0	164.3304979801178	1.375002145767212
36	107.51683211326599	response	0	4		34.0	2.5	blank	1.0	165.68974709510803	
36	107.53258514404297	movie	1		301.0	34.0	2.5	blank	1.0	165.705500125885	2.508281946182251
36	110.04086709022522	fix_post	2		12.0	34.0	2.5	blank	1.0	168.21378207206726	0.09996700286865234
37	110.14083409309387	fix_pre	0		119.0	35.0	2.5	/experiments/knapen_aot/videos/R_S_yt-EApB0DJ3ECg_119.mp4	0.0	168.3137490749359	0.9917550086975098
37	111.12419414520264	response	0	4		35.0	2.5	/experiments/knapen_aot/videos/R_S_yt-EApB0DJ3ECg_119.mp4	0.0	169.29710912704468	
37	111.13258910179138	movie	1		300.0	35.0	2.5	/experiments/knapen_aot/videos/R_S_yt-EApB0DJ3ECg_119.mp4	0.0	169.30550408363342	2.5082221031188965
37	113.64081120491028	fix_post	2		12.0	35.0	2.5	/experiments/knapen_aot/videos/R_S_yt-EApB0DJ3ECg_119.mp4	0.0	171.81372618675232	0.1000368595123291
38	113.74084806442261	fix_pre	0		7.0	36.0	2.5	/experiments/knapen_aot/videos/R_S_yt-fQGoTMausn8_88.mp4	0.0	171.91376304626465	0.05826401710510254
38	113.79096007347107	response	0	4		36.0	2.5	/experiments/knapen_aot/videos/R_S_yt-fQGoTMausn8_88.mp4	0.0	171.9638750553131	
38	113.79911208152771	movie	1		301.0	36.0	2.5	/experiments/knapen_aot/videos/R_S_yt-fQGoTMausn8_88.mp4	0.0	171.97202706336975	2.508453130722046
38	114.41593217849731	response	1	4		36.0	2.5	/experiments/knapen_aot/videos/R_S_yt-fQGoTMausn8_88.mp4	0.0	172.58884716033936	
38	116.30756521224976	fix_post	2		12.0	36.0	2.5	/experiments/knapen_aot/videos/R_S_yt-fQGoTMausn8_88.mp4	0.0	174.4804801940918	0.10001397132873535
39	116.40757918357849	fix_pre	0		53.0	37.0	2.5	/experiments/knapen_aot/videos/S_yt-VxTTEZNJWjs_110.mp4	0.0	174.58049416542053	0.4423859119415283
39	116.84097599983215	response	0	4		37.0	2.5	/experiments/knapen_aot/videos/S_yt-VxTTEZNJWjs_110.mp4	0.0	175.0138909816742	
39	116.84996509552002	movie	1		301.0	37.0	2.5	/experiments/knapen_aot/videos/S_yt-VxTTEZNJWjs_110.mp4	0.0	175.02288007736206	2.5075149536132812
39	118.71587300300598	response	1	4		37.0	2.5	/experiments/knapen_aot/videos/S_yt-VxTTEZNJWjs_110.mp4	0.0	176.88878798484802	
39	119.3574800491333	fix_post	2		12.0	37.0	2.5	/experiments/knapen_aot/videos/S_yt-VxTTEZNJWjs_110.mp4	0.0	177.53039503097534	0.09996604919433594
40	119.45744609832764	fix_pre	0		225.0	38.0	2.5	/experiments/knapen_aot/videos/S_yt-kawmL3oVw8c_2.mp4	0.0	177.63036108016968	1.875006914138794
40	121.32424521446228	response	0	4		38.0	2.5	/experiments/knapen_aot/videos/S_yt-kawmL3oVw8c_2.mp4	0.0	179.49716019630432	
40	121.33245301246643	movie	1		301.0	38.0	2.5	/experiments/knapen_aot/videos/S_yt-kawmL3oVw8c_2.mp4	0.0	179.50536799430847	2.5083231925964355
40	122.91589212417603	response	1	4		38.0	2.5	/experiments/knapen_aot/videos/S_yt-kawmL3oVw8c_2.mp4	0.0	181.08880710601807	
40	123.84077620506287	fix_post	2		12.0	38.0	2.5	/experiments/knapen_aot/videos/S_yt-kawmL3oVw8c_2.mp4	0.0	182.0136911869049	0.09993982315063477
41	123.9407160282135	fix_pre	0		43.0	39.0	2.5	/experiments/knapen_aot/videos/R_S_yt-lzXao6Reec4_14.mp4	0.0	182.11363101005554	0.35840702056884766
41	124.29096412658691	response	0	4		39.0	2.5	/experiments/knapen_aot/videos/R_S_yt-lzXao6Reec4_14.mp4	0.0	182.46387910842896	
41	124.29912304878235	movie	1		301.0	39.0	2.5	/experiments/knapen_aot/videos/R_S_yt-lzXao6Reec4_14.mp4	0.0	182.4720380306244	2.508366107940674
41	126.80748915672302	fix_post	2		12.0	39.0	2.5	/experiments/knapen_aot/videos/R_S_yt-lzXao6Reec4_14.mp4	0.0	184.98040413856506	0.09997200965881348
42	126.90746116638184	fix_pre	0		232.0	40.0	2.5	blank	1.0	185.08037614822388	1.9333410263061523
42	128.83257007598877	response	0	4		40.0	2.5	blank	1.0	187.0054850578308	
42	128.840802192688	movie	1		301.0	40.0	2.5	blank	1.0	187.01371717453003	2.5082709789276123
42	131.3490731716156	fix_post	2		12.0	40.0	2.5	blank	1.0	189.52198815345764	0.09998202323913574
43	131.44905519485474	fix_pre	0		10.0	41.0	2.5	/experiments/knapen_aot/videos/S_82eJpVKGnC0_188.mp4	0.0	189.62197017669678	0.08333301544189453
43	131.52414798736572	response	0	4		41.0	2.5	/experiments/knapen_aot/videos/S_82eJpVKGnC0_188.mp4	0.0	189.69706296920776	
43	131.53238821029663	movie	1		301.0	41.0	2.5	/experiments/knapen_aot/videos/S_82eJpVKGnC0_188.mp4	0.0	189.70530319213867	2.5083889961242676
43	134.0407772064209	fix_post	2		12.0	41.0	2.5	/experiments/knapen_aot/videos/S_82eJpVKGnC0_188.mp4	0.0	192.21369218826294	0.10003995895385742
44	134.14081716537476	fix_pre	0		23.0	42.0	2.5	/experiments/knapen_aot/videos/S_comp_A013_C012_0122D6_CC_v01_SDR_PS_FINAL_20180709_SDR_2K_AVC.mp4	0.0	192.3137321472168	0.19161105155944824
44	134.32419300079346	response	0	4		42.0	2.5	/experiments/knapen_aot/videos/S_comp_A013_C012_0122D6_CC_v01_SDR_PS_FINAL_20180709_SDR_2K_AVC.mp4	0.0	192.4971079826355	
44	134.3324282169342	movie	1		170.0	42.0	2.5	/experiments/knapen_aot/videos/S_comp_A013_C012_0122D6_CC_v01_SDR_PS_FINAL_20180709_SDR_2K_AVC.mp4	0.0	192.50534319877625	2.5083367824554443
44	136.43985605239868	response	1	4		42.0	2.5	/experiments/knapen_aot/videos/S_comp_A013_C012_0122D6_CC_v01_SDR_PS_FINAL_20180709_SDR_2K_AVC.mp4	0.0	194.61277103424072	
44	136.84076499938965	fix_post	2		12.0	42.0	2.5	/experiments/knapen_aot/videos/S_comp_A013_C012_0122D6_CC_v01_SDR_PS_FINAL_20180709_SDR_2K_AVC.mp4	0.0	195.0136799812317	0.10001015663146973
45	136.94077515602112	fix_pre	0		34.0	43.0	2.5	/experiments/knapen_aot/videos/R_S_yt-V35ubrbe8gA_86.mp4	0.0	195.11369013786316	0.2839188575744629
45	137.21586918830872	response	0	4		43.0	2.5	/experiments/knapen_aot/videos/R_S_yt-V35ubrbe8gA_86.mp4	0.0	195.38878417015076	
45	137.22469401359558	movie	1		301.0	43.0	2.5	/experiments/knapen_aot/videos/R_S_yt-V35ubrbe8gA_86.mp4	0.0	195.39760899543762	2.507629156112671
45	139.4780011177063	response	1	4		43.0	2.5	/experiments/knapen_aot/videos/R_S_yt-V35ubrbe8gA_86.mp4	0.0	197.65091609954834	
45	139.73232316970825	fix_post	2		12.0	43.0	2.5	/experiments/knapen_aot/videos/R_S_yt-V35ubrbe8gA_86.mp4	0.0	197.9052381515503	0.10008001327514648
46	139.8324031829834	fix_pre	0		48.0	44.0	2.5	/experiments/knapen_aot/videos/R_S_yt-eLQydFSMGCU_75.mp4	0.0	198.00531816482544	0.3999748229980469
46	140.22420620918274	response	0	4		44.0	2.5	/experiments/knapen_aot/videos/R_S_yt-eLQydFSMGCU_75.mp4	0.0	198.39712119102478	
46	140.23237800598145	movie	1		301.0	44.0	2.5	/experiments/knapen_aot/videos/R_S_yt-eLQydFSMGCU_75.mp4	0.0	198.4052929878235	2.5083811283111572
46	142.53249716758728	response	1	4		44.0	2.5	/experiments/knapen_aot/videos/R_S_yt-eLQydFSMGCU_75.mp4	0.0	200.70541214942932	
46	142.7407591342926	fix_post	2		12.0	44.0	2.5	/experiments/knapen_aot/videos/R_S_yt-eLQydFSMGCU_75.mp4	0.0	200.91367411613464	0.09999704360961914
47	142.84075617790222	fix_pre	0		78.0	45.0	2.5	/experiments/knapen_aot/videos/S_yt-xKteiAi5h7Q_36.mp4	0.0	201.01367115974426	0.6499760150909424
47	143.482577085495	response	0	4		45.0	2.5	/experiments/knapen_aot/videos/S_yt-xKteiAi5h7Q_36.mp4	0.0	201.65549206733704	
47	143.49073219299316	movie	1		299.0	45.0	2.5	/experiments/knapen_aot/videos/S_yt-xKteiAi5h7Q_36.mp4	0.0	201.6636471748352	2.5083138942718506
47	145.58593606948853	response	1	4		45.0	2.5	/experiments/knapen_aot/videos/S_yt-xKteiAi5h7Q_36.mp4	0.0	203.75885105133057	
47	145.87413501739502	response	1	4		45.0	2.5	/experiments/knapen_aot/videos/S_yt-xKteiAi5h7Q_36.mp4	0.0	204.04704999923706	
47	145.99904608726501	fix_post	2		12.0	45.0	2.5	/experiments/knapen_aot/videos/S_yt-xKteiAi5h7Q_36.mp4	0.0	204.17196106910706	0.09995508193969727
48	146.0990011692047	fix_pre	0		18.0	46.0	2.5	/experiments/knapen_aot/videos/S_-vPHq-7BJ70_15.mp4	0.0	204.27191615104675	0.1499929428100586
48	146.2407741546631	response	0	4		46.0	2.5	/experiments/knapen_aot/videos/S_-vPHq-7BJ70_15.mp4	0.0	204.41368913650513	
48	146.24899411201477	movie	1		301.0	46.0	2.5	/experiments/knapen_aot/videos/S_-vPHq-7BJ70_15.mp4	0.0	204.4219090938568	2.5083749294281006
48	147.9991500377655	response	1	4		46.0	2.5	/experiments/knapen_aot/videos/S_-vPHq-7BJ70_15.mp4	0.0	206.17206501960754	
48	148.75736904144287	fix_post	2		12.0	46.0	2.5	/experiments/knapen_aot/videos/S_-vPHq-7BJ70_15.mp4	0.0	206.9302840232849	0.09997797012329102
49	148.85734701156616	fix_pre	0		9.0	47.0	2.5	blank	1.0	207.0302619934082	0.07576799392700195
49	148.92436408996582	response	0	4		47.0	2.5	blank	1.0	207.09727907180786	
49	148.93311500549316	movie	1		301.0	47.0	2.5	blank	1.0	207.1060299873352	2.5075790882110596
49	151.44069409370422	fix_post	2		12.0	47.0	2.5	blank	1.0	209.61360907554626	0.09996604919433594
50	151.54066014289856	fix_pre	0		35.0	48.0	2.5	/experiments/knapen_aot/videos/S_yt-RVoC19C420Y_27.mp4	0.0	209.7135751247406	0.2916679382324219
50	151.82404208183289	response	0	4		48.0	2.5	/experiments/knapen_aot/videos/S_yt-RVoC19C420Y_27.mp4	0.0	209.99695706367493	
50	151.83232808113098	movie	1		301.0	48.0	2.5	/experiments/knapen_aot/videos/S_yt-RVoC19C420Y_27.mp4	0.0	210.00524306297302	2.5082950592041016
50	154.34062314033508	fix_post	2		12.0	48.0	2.5	/experiments/knapen_aot/videos/S_yt-RVoC19C420Y_27.mp4	0.0	212.51353812217712	0.09996199607849121
51	154.44058513641357	fix_pre	0		11.0	49.0	2.5	/experiments/knapen_aot/videos/S_ILSVRC2015_train_00761000.mp4	0.0	212.61350011825562	0.0916900634765625
51	154.5241241455078	response	0	4		49.0	2.5	/experiments/knapen_aot/videos/S_ILSVRC2015_train_00761000.mp4	0.0	212.69703912734985	
51	154.53227519989014	movie	1		301.0	49.0	2.5	/experiments/knapen_aot/videos/S_ILSVRC2015_train_00761000.mp4	0.0	212.70519018173218	2.508283853530884
51	157.04055905342102	fix_post	2		12.0	49.0	2.5	/experiments/knapen_aot/videos/S_ILSVRC2015_train_00761000.mp4	0.0	215.21347403526306	0.10005617141723633
52	157.14061522483826	fix_pre	0		33.0	50.0	2.5	/experiments/knapen_aot/videos/R_S_yt-V5iQ3MbihnI_103.mp4	0.0	215.3135302066803	0.2749919891357422
52	157.40745210647583	response	0	4		50.0	2.5	/experiments/knapen_aot/videos/R_S_yt-V5iQ3MbihnI_103.mp4	0.0	215.58036708831787	
52	157.415607213974	movie	1		301.0	50.0	2.5	/experiments/knapen_aot/videos/R_S_yt-V5iQ3MbihnI_103.mp4	0.0	215.58852219581604	2.5083508491516113
52	159.61573910713196	response	1	4		50.0	2.5	/experiments/knapen_aot/videos/R_S_yt-V5iQ3MbihnI_103.mp4	0.0	217.788654088974	
52	159.9239580631256	fix_post	2		12.0	50.0	2.5	/experiments/knapen_aot/videos/R_S_yt-V5iQ3MbihnI_103.mp4	0.0	218.09687304496765	0.09994316101074219
53	160.02390122413635	fix_pre	0		10.0	51.0	2.5	/experiments/knapen_aot/videos/S_yt-lADkWM79teI_18.mp4	0.0	218.1968162059784	0.08345293998718262
53	160.09931707382202	response	0	4		51.0	2.5	/experiments/knapen_aot/videos/S_yt-lADkWM79teI_18.mp4	0.0	218.27223205566406	
53	160.10735416412354	movie	1		301.0	51.0	2.5	/experiments/knapen_aot/videos/S_yt-lADkWM79teI_18.mp4	0.0	218.28026914596558	2.508272886276245
53	162.61562705039978	fix_post	2		12.0	51.0	2.5	/experiments/knapen_aot/videos/S_yt-lADkWM79teI_18.mp4	0.0	220.78854203224182	0.10002803802490234
54	162.71565508842468	fix_pre	0		9.0	52.0	2.5	/experiments/knapen_aot/videos/R_S_yt-LdHRVIb4nIE_6.mp4	0.0	220.88857007026672	0.07492494583129883
54	162.78249311447144	response	0	4		52.0	2.5	/experiments/knapen_aot/videos/R_S_yt-LdHRVIb4nIE_6.mp4	0.0	220.95540809631348	
54	162.79058003425598	movie	1		301.0	52.0	2.5	/experiments/knapen_aot/videos/R_S_yt-LdHRVIb4nIE_6.mp4	0.0	220.96349501609802	2.508378028869629
54	165.2989580631256	fix_post	2		12.0	52.0	2.5	/experiments/knapen_aot/videos/R_S_yt-LdHRVIb4nIE_6.mp4	0.0	223.47187304496765	0.10004806518554688
55	165.39900612831116	fix_pre	0		356.0	53.0	2.5	/experiments/knapen_aot/videos/S_yt-nfDPFHUDq8g_136.mp4	0.0	223.5719211101532	2.9665679931640625
55	168.35737800598145	response	0	4		53.0	2.5	/experiments/knapen_aot/videos/S_yt-nfDPFHUDq8g_136.mp4	0.0	226.5302929878235	
55	168.36557412147522	movie	1		301.0	53.0	2.5	/experiments/knapen_aot/videos/S_yt-nfDPFHUDq8g_136.mp4	0.0	226.53848910331726	2.5083770751953125
55	170.87395119667053	fix_post	2		12.0	53.0	2.5	/experiments/knapen_aot/videos/S_yt-nfDPFHUDq8g_136.mp4	0.0	229.04686617851257	0.10051298141479492
56	170.97446417808533	fix_pre	0		50.0	54.0	2.5	/experiments/knapen_aot/videos/S_yt-s2tZ2NIQrxg_175.mp4	0.0	229.14737915992737	0.41658997535705566
56	171.37489199638367	response	0	4		54.0	2.5	/experiments/knapen_aot/videos/S_yt-s2tZ2NIQrxg_175.mp4	0.0	229.5478069782257	
56	171.39105415344238	movie	1		301.0	54.0	2.5	/experiments/knapen_aot/videos/S_yt-s2tZ2NIQrxg_175.mp4	0.0	229.56396913528442	2.507866859436035
56	173.89892101287842	fix_post	2		12.0	54.0	2.5	/experiments/knapen_aot/videos/S_yt-s2tZ2NIQrxg_175.mp4	0.0	232.07183599472046	0.10000419616699219
57	173.9989252090454	fix_pre	0		77.0	55.0	2.5	/experiments/knapen_aot/videos/R_S_yt-GBt59U0KUR0_6.mp4	0.0	232.17184019088745	0.6420848369598389
57	174.63243007659912	response	0	4		55.0	2.5	/experiments/knapen_aot/videos/R_S_yt-GBt59U0KUR0_6.mp4	0.0	232.80534505844116	
57	174.64101004600525	movie	1		301.0	55.0	2.5	/experiments/knapen_aot/videos/R_S_yt-GBt59U0KUR0_6.mp4	0.0	232.8139250278473	2.5079221725463867
57	177.14893221855164	fix_post	2		12.0	55.0	2.5	/experiments/knapen_aot/videos/R_S_yt-GBt59U0KUR0_6.mp4	0.0	235.32184720039368	0.10000395774841309
58	177.24893617630005	fix_pre	0		32.0	56.0	2.5	blank	1.0	235.4218511581421	0.26710987091064453
58	177.50735521316528	response	0	4		56.0	2.5	blank	1.0	235.68027019500732	
58	177.5160460472107	movie	1		301.0	56.0	2.5	blank	1.0	235.68896102905273	2.5079081058502197
58	179.44068813323975	response	1	4		56.0	2.5	blank	1.0	237.6136031150818	
58	180.0239541530609	fix_post	2		12.0	56.0	2.5	blank	1.0	238.19686913490295	0.09995102882385254
59	180.12390518188477	fix_pre	0		28.0	57.0	2.5	/experiments/knapen_aot/videos/S_yt-6KJ_yZR-Jco_14.mp4	0.0	238.2968201637268	0.2333078384399414
59	180.3414421081543	response	0	4		57.0	2.5	/experiments/knapen_aot/videos/S_yt-6KJ_yZR-Jco_14.mp4	0.0	238.51435708999634	
59	180.3572130203247	movie	1		301.0	57.0	2.5	/experiments/knapen_aot/videos/S_yt-6KJ_yZR-Jco_14.mp4	0.0	238.53012800216675	2.5083889961242676
59	182.86560201644897	fix_post	2		12.0	57.0	2.5	/experiments/knapen_aot/videos/S_yt-6KJ_yZR-Jco_14.mp4	0.0	241.03851699829102	0.09993219375610352
60	182.96553421020508	fix_pre	0		43.0	58.0	2.5	/experiments/knapen_aot/videos/S_flickr-csgzs-8144064966_10.mp4	0.0	241.13844919204712	0.3583199977874756
60	183.3157172203064	response	0	4		58.0	2.5	/experiments/knapen_aot/videos/S_flickr-csgzs-8144064966_10.mp4	0.0	241.48863220214844	
60	183.32385420799255	movie	1		301.0	58.0	2.5	/experiments/knapen_aot/videos/S_flickr-csgzs-8144064966_10.mp4	0.0	241.4967691898346	2.508358955383301
60	185.83221316337585	fix_post	2		12.0	58.0	2.5	/experiments/knapen_aot/videos/S_flickr-csgzs-8144064966_10.mp4	0.0	244.0051281452179	0.0999748706817627
61	185.93218803405762	fix_pre	0		71.0	59.0	2.5	/experiments/knapen_aot/videos/R_S_yt-Fci3dBzt2T4_223.mp4	0.0	244.10510301589966	0.5916380882263184
61	186.51564812660217	response	0	4		59.0	2.5	/experiments/knapen_aot/videos/R_S_yt-Fci3dBzt2T4_223.mp4	0.0	244.6885631084442	
61	186.52382612228394	movie	1		301.0	59.0	2.5	/experiments/knapen_aot/videos/R_S_yt-Fci3dBzt2T4_223.mp4	0.0	244.69674110412598	2.508333921432495
61	189.03216004371643	fix_post	2		12.0	59.0	2.5	/experiments/knapen_aot/videos/R_S_yt-Fci3dBzt2T4_223.mp4	0.0	247.20507502555847	0.09995698928833008
62	189.13211703300476	fix_pre	0		19.0	60.0	2.5	/experiments/knapen_aot/videos/R_S_yt-Wf-RauSbVgA_56.mp4	0.0	247.3050320148468	0.1584160327911377
62	189.28221607208252	response	0	4		60.0	2.5	/experiments/knapen_aot/videos/R_S_yt-Wf-RauSbVgA_56.mp4	0.0	247.45513105392456	
62	189.2905330657959	movie	1		301.0	60.0	2.5	/experiments/knapen_aot/videos/R_S_yt-Wf-RauSbVgA_56.mp4	0.0	247.46344804763794	2.5083539485931396
62	191.79888701438904	fix_post	2		12.0	60.0	2.5	/experiments/knapen_aot/videos/R_S_yt-Wf-RauSbVgA_56.mp4	0.0	249.97180199623108	0.0999910831451416
63	191.89887809753418	fix_pre	0		40.0	61.0	2.5	blank	1.0	250.07179307937622	0.33322811126708984
63	192.22400212287903	response	0	4		61.0	2.5	blank	1.0	250.39691710472107	
63	192.23210620880127	movie	1		301.0	61.0	2.5	blank	1.0	250.4050211906433	2.5083558559417725
63	194.74046206474304	fix_post	2		12.0	61.0	2.5	blank	1.0	252.91337704658508	0.10005307197570801
64	194.84051513671875	fix_pre	0		38.0	62.0	2.5	/experiments/knapen_aot/videos/R_S_yt-lzXao6Reec4_14.mp4	0.0	253.0134301185608	0.3166170120239258
64	195.1489520072937	response	0	4		62.0	2.5	/experiments/knapen_aot/videos/R_S_yt-lzXao6Reec4_14.mp4	0.0	253.32186698913574	
64	195.15713214874268	movie	1		301.0	62.0	2.5	/experiments/knapen_aot/videos/R_S_yt-lzXao6Reec4_14.mp4	0.0	253.33004713058472	2.5084218978881836
64	197.0575749874115	response	1	4		62.0	2.5	/experiments/knapen_aot/videos/R_S_yt-lzXao6Reec4_14.mp4	0.0	255.23048996925354	
64	197.66555404663086	fix_post	2		12.0	62.0	2.5	/experiments/knapen_aot/videos/R_S_yt-lzXao6Reec4_14.mp4	0.0	255.8384690284729	0.10028314590454102
65	197.7658371925354	fix_pre	0		28.0	63.0	2.5	/experiments/knapen_aot/videos/R_S_yt-yJmHtBFyhH4_15.mp4	0.0	255.93875217437744	0.23288583755493164
65	197.99067521095276	response	0	4		63.0	2.5	/experiments/knapen_aot/videos/R_S_yt-yJmHtBFyhH4_15.mp4	0.0	256.1635901927948	
65	197.99872303009033	movie	1		301.0	63.0	2.5	/experiments/knapen_aot/videos/R_S_yt-yJmHtBFyhH4_15.mp4	0.0	256.1716380119324	2.508411169052124
65	199.17569208145142	response	1	4		63.0	2.5	/experiments/knapen_aot/videos/R_S_yt-yJmHtBFyhH4_15.mp4	0.0	257.34860706329346	
65	199.44066405296326	response	1	4		63.0	2.5	/experiments/knapen_aot/videos/R_S_yt-yJmHtBFyhH4_15.mp4	0.0	257.6135790348053	
65	200.50713419914246	fix_post	2		12.0	63.0	2.5	/experiments/knapen_aot/videos/R_S_yt-yJmHtBFyhH4_15.mp4	0.0	258.6800491809845	0.09995794296264648
66	200.6070921421051	fix_pre	0		37.0	64.0	2.5	/experiments/knapen_aot/videos/S_yt-yXJr3FR2xrM_27.mp4	0.0	258.78000712394714	0.30835890769958496
66	200.90725803375244	response	0	4		64.0	2.5	/experiments/knapen_aot/videos/S_yt-yXJr3FR2xrM_27.mp4	0.0	259.0801730155945	
66	200.9154510498047	movie	1		301.0	64.0	2.5	/experiments/knapen_aot/videos/S_yt-yXJr3FR2xrM_27.mp4	0.0	259.08836603164673	2.5082919597625732
66	202.55068516731262	response	1	4		64.0	2.5	/experiments/knapen_aot/videos/S_yt-yXJr3FR2xrM_27.mp4	0.0	260.72360014915466	
66	203.42374300956726	fix_post	2		12.0	64.0	2.5	/experiments/knapen_aot/videos/S_yt-yXJr3FR2xrM_27.mp4	0.0	261.5966579914093	0.10001420974731445
67	203.52375721931458	fix_pre	0		63.0	65.0	2.5	/experiments/knapen_aot/videos/S_ILSVRC2015_train_00572001.mp4	0.0	261.6966722011566	0.5250048637390137
67	204.04056906700134	response	0	4		65.0	2.5	/experiments/knapen_aot/videos/S_ILSVRC2015_train_00572001.mp4	0.0	262.2134840488434	
67	204.0487620830536	movie	1		301.0	65.0	2.5	/experiments/knapen_aot/videos/S_ILSVRC2015_train_00572001.mp4	0.0	262.22167706489563	2.508362054824829
67	205.75899600982666	response	1	4		65.0	2.5	/experiments/knapen_aot/videos/S_ILSVRC2015_train_00572001.mp4	0.0	263.9319109916687	
67	206.55712413787842	fix_post	2		12.0	65.0	2.5	/experiments/knapen_aot/videos/S_ILSVRC2015_train_00572001.mp4	0.0	264.73003911972046	0.1000220775604248
68	206.65714621543884	fix_pre	0		25.0	66.0	2.5	/experiments/knapen_aot/videos/R_S_bing-www_dailymotion_com_video_x64hzm7_8.mp4	0.0	264.8300611972809	0.2082657814025879
68	206.85722303390503	response	0	4		66.0	2.5	/experiments/knapen_aot/videos/R_S_bing-www_dailymotion_com_video_x64hzm7_8.mp4	0.0	265.03013801574707	
68	206.86541199684143	movie	1		164.0	66.0	2.5	/experiments/knapen_aot/videos/R_S_bing-www_dailymotion_com_video_x64hzm7_8.mp4	0.0	265.0383269786835	2.508512020111084
68	209.14914512634277	response	1	4		66.0	2.5	/experiments/knapen_aot/videos/R_S_bing-www_dailymotion_com_video_x64hzm7_8.mp4	0.0	267.3220601081848	
68	209.37392401695251	fix_post	2		12.0	66.0	2.5	/experiments/knapen_aot/videos/R_S_bing-www_dailymotion_com_video_x64hzm7_8.mp4	0.0	267.54683899879456	0.10020017623901367
69	209.47412419319153	fix_pre	0		47.0	67.0	2.5	/experiments/knapen_aot/videos/S_comp_LW_L001_C003__PSNK_DENOISE_v04_SDR_PS_FINAL_20180803_SDR_2K_AVC.mp4	0.0	267.64703917503357	0.39130496978759766
69	209.85719108581543	response	0	4		67.0	2.5	/experiments/knapen_aot/videos/S_comp_LW_L001_C003__PSNK_DENOISE_v04_SDR_PS_FINAL_20180803_SDR_2K_AVC.mp4	0.0	268.03010606765747	
69	209.86542916297913	movie	1		164.0	67.0	2.5	/experiments/knapen_aot/videos/S_comp_LW_L001_C003__PSNK_DENOISE_v04_SDR_PS_FINAL_20180803_SDR_2K_AVC.mp4	0.0	268.03834414482117	2.50832200050354
69	210.64891600608826	response	1	4		67.0	2.5	/experiments/knapen_aot/videos/S_comp_LW_L001_C003__PSNK_DENOISE_v04_SDR_PS_FINAL_20180803_SDR_2K_AVC.mp4	0.0	268.8218309879303	
69	211.57288217544556	response	1	4		67.0	2.5	/experiments/knapen_aot/videos/S_comp_LW_L001_C003__PSNK_DENOISE_v04_SDR_PS_FINAL_20180803_SDR_2K_AVC.mp4	0.0	269.7457971572876	
69	212.36555814743042	response	1	4		67.0	2.5	/experiments/knapen_aot/videos/S_comp_LW_L001_C003__PSNK_DENOISE_v04_SDR_PS_FINAL_20180803_SDR_2K_AVC.mp4	0.0	270.53847312927246	
69	212.37375116348267	fix_post	2		12.0	67.0	2.5	/experiments/knapen_aot/videos/S_comp_LW_L001_C003__PSNK_DENOISE_v04_SDR_PS_FINAL_20180803_SDR_2K_AVC.mp4	0.0	270.5466661453247	0.10038590431213379
70	212.4741370677948	fix_pre	0		115.0	68.0	2.5	/experiments/knapen_aot/videos/R_S_yt--jzScB82vKI_90.mp4	0.0	270.64705204963684	0.9581320285797119
70	213.42380118370056	response	0	4		68.0	2.5	/experiments/knapen_aot/videos/R_S_yt--jzScB82vKI_90.mp4	0.0	271.5967161655426	
70	213.4322690963745	movie	1		301.0	68.0	2.5	/experiments/knapen_aot/videos/R_S_yt--jzScB82vKI_90.mp4	0.0	271.60518407821655	2.5081310272216797
70	214.9155011177063	response	1	4		68.0	2.5	/experiments/knapen_aot/videos/R_S_yt--jzScB82vKI_90.mp4	0.0	273.08841609954834	
70	215.72408509254456	response	1	4		68.0	2.5	/experiments/knapen_aot/videos/R_S_yt--jzScB82vKI_90.mp4	0.0	273.8970000743866	
70	215.9404001235962	fix_post	2		12.0	68.0	2.5	/experiments/knapen_aot/videos/R_S_yt--jzScB82vKI_90.mp4	0.0	274.11331510543823	0.10001492500305176
71	216.04041504859924	fix_pre	0		39.0	69.0	2.5	/experiments/knapen_aot/videos/R_S_production_ID_4121250.mp4	0.0	274.2133300304413	0.324970006942749
71	216.3497350215912	response	0	4		69.0	2.5	/experiments/knapen_aot/videos/R_S_production_ID_4121250.mp4	0.0	274.5226500034332	
71	216.365385055542	movie	1		166.0	69.0	2.5	/experiments/knapen_aot/videos/R_S_production_ID_4121250.mp4	0.0	274.53830003738403	2.5082409381866455
71	217.2322940826416	response	1	4		69.0	2.5	/experiments/knapen_aot/videos/R_S_production_ID_4121250.mp4	0.0	275.40520906448364	
71	218.23229503631592	response	1	4		69.0	2.5	/experiments/knapen_aot/videos/R_S_production_ID_4121250.mp4	0.0	276.40521001815796	
71	218.87362599372864	fix_post	2		12.0	69.0	2.5	/experiments/knapen_aot/videos/R_S_production_ID_4121250.mp4	0.0	277.0465409755707	0.1003260612487793
71	218.89052200317383	response	2	4		69.0	2.5	/experiments/knapen_aot/videos/R_S_production_ID_4121250.mp4	0.0	277.06343698501587	
72	218.97395205497742	fix_pre	0		66.0	70.0	2.5	blank	1.0	277.14686703681946	0.5497241020202637
72	219.50792121887207	response	0	4		70.0	2.5	blank	1.0	277.6808362007141	
72	219.52367615699768	movie	1		301.0	70.0	2.5	blank	1.0	277.6965911388397	2.5083630084991455
72	222.03203916549683	fix_post	2		12.0	70.0	2.5	blank	1.0	280.20495414733887	0.10004997253417969
73	222.132089138031	fix_pre	0		21.0	71.0	2.5	/experiments/knapen_aot/videos/R_S_Person_Going_Through_A_Bible.mp4	0.0	280.30500411987305	0.1751270294189453
73	222.2987561225891	response	0	4		71.0	2.5	/experiments/knapen_aot/videos/R_S_Person_Going_Through_A_Bible.mp4	0.0	280.47167110443115	
73	222.30721616744995	movie	1		166.0	71.0	2.5	/experiments/knapen_aot/videos/R_S_Person_Going_Through_A_Bible.mp4	0.0	280.480131149292	2.5082080364227295
73	223.14054322242737	response	1	4		71.0	2.5	/experiments/knapen_aot/videos/R_S_Person_Going_Through_A_Bible.mp4	0.0	281.3134582042694	
73	223.95715999603271	response	1	4		71.0	2.5	/experiments/knapen_aot/videos/R_S_Person_Going_Through_A_Bible.mp4	0.0	282.13007497787476	
73	224.81542420387268	fix_post	2		12.0	71.0	2.5	/experiments/knapen_aot/videos/R_S_Person_Going_Through_A_Bible.mp4	0.0	282.9883391857147	0.09993886947631836
73	224.89050912857056	response	2	4		71.0	2.5	/experiments/knapen_aot/videos/R_S_Person_Going_Through_A_Bible.mp4	0.0	283.0634241104126	
74	224.915363073349	fix_pre	0		57.0	72.0	2.5	/experiments/knapen_aot/videos/R_S_yt--C2DDZ7LOQA_95.mp4	0.0	283.08827805519104	0.4751760959625244
74	225.3820722103119	response	0	4		72.0	2.5	/experiments/knapen_aot/videos/R_S_yt--C2DDZ7LOQA_95.mp4	0.0	283.55498719215393	
74	225.39053916931152	movie	1		299.0	72.0	2.5	/experiments/knapen_aot/videos/R_S_yt--C2DDZ7LOQA_95.mp4	0.0	283.56345415115356	2.4999568462371826
74	226.8837661743164	response	1	4		72.0	2.5	/experiments/knapen_aot/videos/R_S_yt--C2DDZ7LOQA_95.mp4	0.0	285.05668115615845	
74	227.88215517997742	response	1	4		72.0	2.5	/experiments/knapen_aot/videos/R_S_yt--C2DDZ7LOQA_95.mp4	0.0	286.05507016181946	
74	227.8904960155487	fix_post	2		13.0	72.0	2.5	/experiments/knapen_aot/videos/R_S_yt--C2DDZ7LOQA_95.mp4	0.0	286.06341099739075	0.10811400413513184
75	227.99861001968384	fix_pre	0		111.0	73.0	2.5	/experiments/knapen_aot/videos/R_S_yt-0Zze3Ff12Ys_58.mp4	0.0	286.1715250015259	0.9250481128692627
75	228.9155411720276	response	0	4		73.0	2.5	/experiments/knapen_aot/videos/R_S_yt-0Zze3Ff12Ys_58.mp4	0.0	287.08845615386963	
75	228.9236581325531	movie	1		301.0	73.0	2.5	/experiments/knapen_aot/videos/R_S_yt-0Zze3Ff12Ys_58.mp4	0.0	287.09657311439514	2.5083630084991455
75	231.43202114105225	fix_post	2		12.0	73.0	2.5	/experiments/knapen_aot/videos/R_S_yt-0Zze3Ff12Ys_58.mp4	0.0	289.6049361228943	0.09999585151672363
76	231.53201699256897	fix_pre	0		144.0	74.0	2.5	/experiments/knapen_aot/videos/R_S_yt-n6aLw10f2Yw_317.mp4	0.0	289.704931974411	1.1999740600585938
76	232.7237730026245	response	0	4		74.0	2.5	/experiments/knapen_aot/videos/R_S_yt-n6aLw10f2Yw_317.mp4	0.0	290.89668798446655	
76	232.73199105262756	movie	1		301.0	74.0	2.5	/experiments/knapen_aot/videos/R_S_yt-n6aLw10f2Yw_317.mp4	0.0	290.9049060344696	2.508296012878418
76	235.24028706550598	fix_post	2		12.0	74.0	2.5	/experiments/knapen_aot/videos/R_S_yt-n6aLw10f2Yw_317.mp4	0.0	293.413202047348	0.100067138671875
77	235.34035420417786	fix_pre	0		7.0	75.0	2.5	/experiments/knapen_aot/videos/R_S_production_ID_4057155.mp4	0.0	293.5132691860199	0.058296918869018555
77	235.3910059928894	response	0	4		75.0	2.5	/experiments/knapen_aot/videos/R_S_production_ID_4057155.mp4	0.0	293.56392097473145	
77	235.39865112304688	movie	1		199.0	75.0	2.5	/experiments/knapen_aot/videos/R_S_production_ID_4057155.mp4	0.0	293.5715661048889	2.508358955383301
77	237.90701007843018	fix_post	2		12.0	75.0	2.5	/experiments/knapen_aot/videos/R_S_production_ID_4057155.mp4	0.0	296.0799250602722	0.09991598129272461
77	237.9654459953308	response	2	4		75.0	2.5	/experiments/knapen_aot/videos/R_S_production_ID_4057155.mp4	0.0	296.13836097717285	
78	238.0069260597229	fix_pre	0		69.0	76.0	2.5	blank	1.0	296.17984104156494	0.5750110149383545
78	238.57362699508667	response	0	4		76.0	2.5	blank	1.0	296.7465419769287	
78	238.58193707466125	movie	1		301.0	76.0	2.5	blank	1.0	296.7548520565033	2.5083470344543457
78	241.0570571422577	response	1	4		76.0	2.5	blank	1.0	299.22997212409973	
78	241.0902841091156	fix_post	2		12.0	76.0	2.5	blank	1.0	299.26319909095764	0.09998488426208496
79	241.19026899337769	fix_pre	0		23.0	77.0	2.5	/experiments/knapen_aot/videos/R_S_pexels-artem-podrez-5457692.mp4	0.0	299.3631839752197	0.19169306755065918
79	241.37373208999634	response	0	4		77.0	2.5	/experiments/knapen_aot/videos/R_S_pexels-artem-podrez-5457692.mp4	0.0	299.5466470718384	
79	241.38196206092834	movie	1		168.0	77.0	2.5	/experiments/knapen_aot/videos/R_S_pexels-artem-podrez-5457692.mp4	0.0	299.5548770427704	2.508465051651001
79	243.89042711257935	fix_post	2		12.0	77.0	2.5	/experiments/knapen_aot/videos/R_S_pexels-artem-podrez-5457692.mp4	0.0	302.0633420944214	0.09985589981079102
79	243.93265914916992	response	2	4		77.0	2.5	/experiments/knapen_aot/videos/R_S_pexels-artem-podrez-5457692.mp4	0.0	302.10557413101196	
80	243.99028301239014	fix_pre	0		40.0	78.0	2.5	/experiments/knapen_aot/videos/S_yt-lazG9z4VQAw_99.mp4	0.0	302.1631979942322	0.3333010673522949
80	244.31531620025635	response	0	4		78.0	2.5	/experiments/knapen_aot/videos/S_yt-lazG9z4VQAw_99.mp4	0.0	302.4882311820984	
80	244.32358407974243	movie	1		301.0	78.0	2.5	/experiments/knapen_aot/videos/S_yt-lazG9z4VQAw_99.mp4	0.0	302.4964990615845	2.5083770751953125
80	246.83196115493774	fix_post	2		12.0	78.0	2.5	/experiments/knapen_aot/videos/S_yt-lazG9z4VQAw_99.mp4	0.0	305.0048761367798	0.10007095336914062
81	246.93203210830688	fix_pre	0		21.0	79.0	2.5	/experiments/knapen_aot/videos/R_S_wc-8bTJmWfuVyJ4_8.mp4	0.0	305.1049470901489	0.1748800277709961
81	247.0987241268158	response	0	4		79.0	2.5	/experiments/knapen_aot/videos/R_S_wc-8bTJmWfuVyJ4_8.mp4	0.0	305.27163910865784	
81	247.10691213607788	movie	1		166.0	79.0	2.5	/experiments/knapen_aot/videos/R_S_wc-8bTJmWfuVyJ4_8.mp4	0.0	305.2798271179199	2.508281946182251
81	249.39734601974487	response	1	4		79.0	2.5	/experiments/knapen_aot/videos/R_S_wc-8bTJmWfuVyJ4_8.mp4	0.0	307.5702610015869	
81	249.61519408226013	fix_post	2		12.0	79.0	2.5	/experiments/knapen_aot/videos/R_S_wc-8bTJmWfuVyJ4_8.mp4	0.0	307.7881090641022	0.10012507438659668
82	249.71531915664673	fix_pre	0		27.0	80.0	2.5	/experiments/knapen_aot/videos/S_production_ID_4269182.mp4	0.0	307.88823413848877	0.224945068359375
82	249.9320821762085	response	0	4		80.0	2.5	/experiments/knapen_aot/videos/S_production_ID_4269182.mp4	0.0	308.10499715805054	
82	249.9402642250061	movie	1		205.0	80.0	2.5	/experiments/knapen_aot/videos/S_production_ID_4269182.mp4	0.0	308.11317920684814	2.5082719326019287
82	252.44853615760803	fix_post	2		12.0	80.0	2.5	/experiments/knapen_aot/videos/S_production_ID_4269182.mp4	0.0	310.6214511394501	0.10003399848937988
83	252.5485701560974	fix_pre	0		19.0	81.0	2.5	/experiments/knapen_aot/videos/S_yt-pB9w3AA-woE_37.mp4	0.0	310.72148513793945	0.15833187103271484
83	252.69864320755005	response	0	4		81.0	2.5	/experiments/knapen_aot/videos/S_yt-pB9w3AA-woE_37.mp4	0.0	310.8715581893921	
83	252.70690202713013	movie	1		301.0	81.0	2.5	/experiments/knapen_aot/videos/S_yt-pB9w3AA-woE_37.mp4	0.0	310.87981700897217	2.5082759857177734
83	255.2151780128479	fix_post	2		12.0	81.0	2.5	/experiments/knapen_aot/videos/S_yt-pB9w3AA-woE_37.mp4	0.0	313.38809299468994	0.100067138671875
84	255.31524515151978	fix_pre	0		31.0	82.0	2.5	blank	1.0	313.4881601333618	0.25829291343688965
84	255.56534218788147	response	0	4		82.0	2.5	blank	1.0	313.7382571697235	
84	255.57353806495667	movie	1		301.0	82.0	2.5	blank	1.0	313.7464530467987	2.5083730220794678
84	258.08191108703613	fix_post	2		12.0	82.0	2.5	blank	1.0	316.2548260688782	0.09998202323913574
85	258.18189311027527	fix_pre	0		39.0	83.0	2.5	/experiments/knapen_aot/videos/R_S_Pz_NXxhQCJc_70.mp4	0.0	316.3548080921173	0.32498598098754883
85	258.4986641407013	response	0	4		83.0	2.5	/experiments/knapen_aot/videos/R_S_Pz_NXxhQCJc_70.mp4	0.0	316.67157912254333	
85	258.5068790912628	movie	1		300.0	83.0	2.5	/experiments/knapen_aot/videos/R_S_Pz_NXxhQCJc_70.mp4	0.0	316.67979407310486	2.5083820819854736
85	261.0152611732483	fix_post	2		12.0	83.0	2.5	/experiments/knapen_aot/videos/R_S_Pz_NXxhQCJc_70.mp4	0.0	319.18817615509033	0.0999748706817627
85	261.0487861633301	response	2	4		83.0	2.5	/experiments/knapen_aot/videos/R_S_Pz_NXxhQCJc_70.mp4	0.0	319.2217011451721	
87	261.11523604393005	stim	0		111.0					319.2881510257721	0.9249601364135742
87	262.0336580276489	response	0	space						320.20657300949097	
