trial_nr	onset	event_type	phase	response	nr_frames	movie_index	movie_duration	movie_file	blank	onset_abs	duration
0	0.12494516372680664	stim	0		43.0					99.04763913154602	0.36031603813171387
0	0.475053071975708	response	0	space						99.39774703979492	
1	0.4852612018585205	stim	0		121.0					99.40795516967773	1.0068418979644775
1	1.2920761108398438	response	0	space						100.21477007865906	
1	1.492103099822998	stim	1		120.0					100.41479706764221	0.9995911121368408
1	2.450038194656372	response	1	space						101.37273216247559	
2	2.491694211959839	fix_pre	0		52.0	0.0	2.5	/experiments/knapen_aot/videos/R_S_yt-iKe-0YNR5Eo_164.mp4	0.0	101.41438817977905	0.4331679344177246
2	2.916673183441162	response	0	space		0.0	2.5	/experiments/knapen_aot/videos/R_S_yt-iKe-0YNR5Eo_164.mp4	0.0	101.83936715126038	
2	2.9248621463775635	movie	1		300.0	0.0	2.5	/experiments/knapen_aot/videos/R_S_yt-iKe-0YNR5Eo_164.mp4	0.0	101.84755611419678	2.508349895477295
2	5.433212041854858	fix_post	2		12.0	0.0	2.5	/experiments/knapen_aot/videos/R_S_yt-iKe-0YNR5Eo_164.mp4	0.0	104.35590600967407	0.09996604919433594
3	5.533178091049194	fix_pre	0		28.0	1.0	2.5	/experiments/knapen_aot/videos/R_S_yt-s2PWkCdT-TM_258.mp4	0.0	104.45587205886841	0.2366650104522705
3	5.762389183044434	response	0	2		1.0	2.5	/experiments/knapen_aot/videos/R_S_yt-s2PWkCdT-TM_258.mp4	0.0	104.68508315086365	
3	5.769843101501465	movie	1		296.0	1.0	2.5	/experiments/knapen_aot/videos/R_S_yt-s2PWkCdT-TM_258.mp4	0.0	104.69253706932068	2.504983901977539
3	8.274827003479004	fix_post	2		12.0	1.0	2.5	/experiments/knapen_aot/videos/R_S_yt-s2PWkCdT-TM_258.mp4	0.0	107.19752097129822	0.10002803802490234
4	8.374855041503906	fix_pre	0		26.0	2.0	2.5	/experiments/knapen_aot/videos/R_S_yt-Kwfwhd07dVo_2.mp4	0.0	107.29754900932312	0.21665215492248535
4	8.58332109451294	response	0	2		2.0	2.5	/experiments/knapen_aot/videos/R_S_yt-Kwfwhd07dVo_2.mp4	0.0	107.50601506233215	
4	8.591507196426392	movie	1		301.0	2.0	2.5	/experiments/knapen_aot/videos/R_S_yt-Kwfwhd07dVo_2.mp4	0.0	107.5142011642456	2.508359909057617
4	11.099867105484009	fix_post	2		12.0	2.0	2.5	/experiments/knapen_aot/videos/R_S_yt-Kwfwhd07dVo_2.mp4	0.0	110.02256107330322	0.10000395774841309
5	11.199871063232422	fix_pre	0		52.0	3.0	2.5	/experiments/knapen_aot/videos/R_S_yt-BAwvfRmE1LU_79.mp4	0.0	110.12256503105164	0.4332759380340576
5	11.624922037124634	response	0	2		3.0	2.5	/experiments/knapen_aot/videos/R_S_yt-BAwvfRmE1LU_79.mp4	0.0	110.54761600494385	
5	11.63314700126648	movie	1		301.0	3.0	2.5	/experiments/knapen_aot/videos/R_S_yt-BAwvfRmE1LU_79.mp4	0.0	110.5558409690857	2.5083601474761963
5	14.141507148742676	fix_post	2		12.0	3.0	2.5	/experiments/knapen_aot/videos/R_S_yt-BAwvfRmE1LU_79.mp4	0.0	113.06420111656189	0.0999898910522461
6	14.241497039794922	fix_pre	0		39.0	4.0	2.5	/experiments/knapen_aot/videos/R_S_yt-FsylDeYfcxU_24.mp4	0.0	113.16419100761414	0.3249640464782715
6	14.558286190032959	response	0	2		4.0	2.5	/experiments/knapen_aot/videos/R_S_yt-FsylDeYfcxU_24.mp4	0.0	113.48098015785217	
6	14.566461086273193	movie	1		301.0	4.0	2.5	/experiments/knapen_aot/videos/R_S_yt-FsylDeYfcxU_24.mp4	0.0	113.48915505409241	2.50832200050354
6	17.074783086776733	fix_post	2		12.0	4.0	2.5	/experiments/knapen_aot/videos/R_S_yt-FsylDeYfcxU_24.mp4	0.0	115.99747705459595	0.10002493858337402
7	17.174808025360107	fix_pre	0		9.0	5.0	2.5	/experiments/knapen_aot/videos/R_S_yt-a5TGHnldsKg_102.mp4	0.0	116.09750199317932	0.07503914833068848
7	17.24158215522766	response	0	2		5.0	2.5	/experiments/knapen_aot/videos/R_S_yt-a5TGHnldsKg_102.mp4	0.0	116.16427612304688	
7	17.249847173690796	movie	1		301.0	5.0	2.5	/experiments/knapen_aot/videos/R_S_yt-a5TGHnldsKg_102.mp4	0.0	116.17254114151001	2.5083138942718506
7	19.758161067962646	fix_post	2		12.0	5.0	2.5	/experiments/knapen_aot/videos/R_S_yt-a5TGHnldsKg_102.mp4	0.0	118.68085503578186	0.0999610424041748
8	19.85812211036682	fix_pre	0		30.0	6.0	2.5	/experiments/knapen_aot/videos/R_S_yt-1n1jTroiwJs_163.mp4	0.0	118.78081607818604	0.2500040531158447
8	20.09993004798889	response	0	2		6.0	2.5	/experiments/knapen_aot/videos/R_S_yt-1n1jTroiwJs_163.mp4	0.0	119.0226240158081	
8	20.108126163482666	movie	1		301.0	6.0	2.5	/experiments/knapen_aot/videos/R_S_yt-1n1jTroiwJs_163.mp4	0.0	119.03082013130188	2.5083658695220947
8	22.61649203300476	fix_post	2		12.0	6.0	2.5	/experiments/knapen_aot/videos/R_S_yt-1n1jTroiwJs_163.mp4	0.0	121.53918600082397	0.09997415542602539
9	22.716466188430786	fix_pre	0		31.0	7.0	2.5	blank	1.0	121.63916015625	0.25838780403137207
9	22.966631174087524	response	0	2		7.0	2.5	blank	1.0	121.88932514190674	
9	22.974853992462158	movie	1		301.0	7.0	2.5	blank	1.0	121.89754796028137	2.5082781314849854
9	25.483132123947144	fix_post	2		12.0	7.0	2.5	blank	1.0	124.40582609176636	0.10007786750793457
10	25.583209991455078	fix_pre	0		24.0	8.0	2.5	/experiments/knapen_aot/videos/R_S_SPNvf6JCjGw_123.mp4	0.0	124.50590395927429	0.20031404495239258
10	25.774923086166382	response	0	2		8.0	2.5	/experiments/knapen_aot/videos/R_S_SPNvf6JCjGw_123.mp4	0.0	124.6976170539856	
10	25.78352403640747	movie	1		300.0	8.0	2.5	/experiments/knapen_aot/videos/R_S_SPNvf6JCjGw_123.mp4	0.0	124.70621800422668	2.5078489780426025
10	28.291373014450073	fix_post	2		12.0	8.0	2.5	/experiments/knapen_aot/videos/R_S_SPNvf6JCjGw_123.mp4	0.0	127.21406698226929	0.10015702247619629
11	28.39153003692627	fix_pre	0		28.0	9.0	2.5	/experiments/knapen_aot/videos/R_S_ILSVRC2015_train_00495000.mp4	0.0	127.31422400474548	0.23319506645202637
11	28.61656618118286	response	0	2		9.0	2.5	/experiments/knapen_aot/videos/R_S_ILSVRC2015_train_00495000.mp4	0.0	127.53926014900208	
11	28.624725103378296	movie	1		301.0	9.0	2.5	/experiments/knapen_aot/videos/R_S_ILSVRC2015_train_00495000.mp4	0.0	127.54741907119751	2.5083329677581787
11	31.133058071136475	fix_post	2		12.0	9.0	2.5	/experiments/knapen_aot/videos/R_S_ILSVRC2015_train_00495000.mp4	0.0	130.0557520389557	0.10003495216369629
12	31.23309302330017	fix_pre	0		21.0	10.0	2.5	/experiments/knapen_aot/videos/S_wc-lItGMdwvEd_l_7.mp4	0.0	130.15578699111938	0.17531609535217285
12	31.399830102920532	response	0	2		10.0	2.5	/experiments/knapen_aot/videos/S_wc-lItGMdwvEd_l_7.mp4	0.0	130.32252407073975	
12	31.408409118652344	movie	1		167.0	10.0	2.5	/experiments/knapen_aot/videos/S_wc-lItGMdwvEd_l_7.mp4	0.0	130.33110308647156	2.5080180168151855
12	33.91642713546753	fix_post	2		12.0	10.0	2.5	/experiments/knapen_aot/videos/S_wc-lItGMdwvEd_l_7.mp4	0.0	132.83912110328674	0.09999203681945801
13	34.01641917228699	fix_pre	0		8.0	11.0	2.5	/experiments/knapen_aot/videos/R_S_yt-_6j2NXrB-zE_28.mp4	0.0	132.9391131401062	0.06661701202392578
13	34.07485318183899	response	0	2		11.0	2.5	/experiments/knapen_aot/videos/R_S_yt-_6j2NXrB-zE_28.mp4	0.0	132.9975471496582	
13	34.08303618431091	movie	1		301.0	11.0	2.5	/experiments/knapen_aot/videos/R_S_yt-_6j2NXrB-zE_28.mp4	0.0	133.00573015213013	2.508340835571289
13	36.5913770198822	fix_post	2		12.0	11.0	2.5	/experiments/knapen_aot/videos/R_S_yt-_6j2NXrB-zE_28.mp4	0.0	135.51407098770142	0.1000051498413086
14	36.69138216972351	fix_pre	0		28.0	12.0	2.5	/experiments/knapen_aot/videos/R_S_yt-n2PnABmSpxI_115.mp4	0.0	135.61407613754272	0.2333078384399414
14	36.916513204574585	response	0	2		12.0	2.5	/experiments/knapen_aot/videos/R_S_yt-n2PnABmSpxI_115.mp4	0.0	135.8392071723938	
14	36.92469000816345	movie	1		301.0	12.0	2.5	/experiments/knapen_aot/videos/R_S_yt-n2PnABmSpxI_115.mp4	0.0	135.84738397598267	2.508331060409546
14	39.433021068573	fix_post	2		12.0	12.0	2.5	/experiments/knapen_aot/videos/R_S_yt-n2PnABmSpxI_115.mp4	0.0	138.3557150363922	0.10003399848937988
15	39.53305506706238	fix_pre	0		20.0	13.0	2.5	/experiments/knapen_aot/videos/S_gHYomsO1dSU_5.mp4	0.0	138.4557490348816	0.16698694229125977
15	39.69140410423279	response	0	2		13.0	2.5	/experiments/knapen_aot/videos/S_gHYomsO1dSU_5.mp4	0.0	138.614098072052	
15	39.70004200935364	movie	1		300.0	13.0	2.5	/experiments/knapen_aot/videos/S_gHYomsO1dSU_5.mp4	0.0	138.62273597717285	2.508071184158325
15	39.90152716636658	response	1	2		13.0	2.5	/experiments/knapen_aot/videos/S_gHYomsO1dSU_5.mp4	0.0	138.8242211341858	
15	42.20811319351196	fix_post	2		12.0	13.0	2.5	/experiments/knapen_aot/videos/S_gHYomsO1dSU_5.mp4	0.0	141.13080716133118	0.0999758243560791
16	42.30808901786804	fix_pre	0		25.0	14.0	2.5	blank	1.0	141.23078298568726	0.20832014083862305
16	42.508230209350586	response	0	2		14.0	2.5	blank	1.0	141.4309241771698	
16	42.516409158706665	movie	1		301.0	14.0	2.5	blank	1.0	141.43910312652588	2.5083229541778564
16	45.02473211288452	fix_post	2		12.0	14.0	2.5	blank	1.0	143.94742608070374	0.10008096694946289
17	45.124813079833984	fix_pre	0		27.0	15.0	2.5	/experiments/knapen_aot/videos/S_bing-www_dailymotion_com_video_x64c56w_164.mp4	0.0	144.0475070476532	0.22489690780639648
17	45.341490030288696	response	0	2		15.0	2.5	/experiments/knapen_aot/videos/S_bing-www_dailymotion_com_video_x64c56w_164.mp4	0.0	144.2641839981079	
17	45.34970998764038	movie	1		165.0	15.0	2.5	/experiments/knapen_aot/videos/S_bing-www_dailymotion_com_video_x64c56w_164.mp4	0.0	144.2724039554596	2.5083441734313965
17	47.85805416107178	fix_post	2		12.0	15.0	2.5	/experiments/knapen_aot/videos/S_bing-www_dailymotion_com_video_x64c56w_164.mp4	0.0	146.780748128891	0.10013484954833984
18	47.95818901062012	fix_pre	0		15.0	16.0	2.5	/experiments/knapen_aot/videos/S_yt-M_ApPnq00iE_67.mp4	0.0	146.88088297843933	0.12479019165039062
18	48.074820041656494	response	0	2		16.0	2.5	/experiments/knapen_aot/videos/S_yt-M_ApPnq00iE_67.mp4	0.0	146.9975140094757	
18	48.08297920227051	movie	1		301.0	16.0	2.5	/experiments/knapen_aot/videos/S_yt-M_ApPnq00iE_67.mp4	0.0	147.00567317008972	2.508615016937256
18	50.591594219207764	fix_post	2		12.0	16.0	2.5	/experiments/knapen_aot/videos/S_yt-M_ApPnq00iE_67.mp4	0.0	149.51428818702698	0.09972882270812988
19	50.691323041915894	fix_pre	0		9.0	17.0	2.5	/experiments/knapen_aot/videos/R_S_yt-npaE4fe6A6Y_26.mp4	0.0	149.6140170097351	0.07500910758972168
19	50.7580840587616	response	0	2		17.0	2.5	/experiments/knapen_aot/videos/R_S_yt-npaE4fe6A6Y_26.mp4	0.0	149.6807780265808	
19	50.766332149505615	movie	1		301.0	17.0	2.5	/experiments/knapen_aot/videos/R_S_yt-npaE4fe6A6Y_26.mp4	0.0	149.68902611732483	2.508409023284912
19	53.27474117279053	fix_post	2		12.0	17.0	2.5	/experiments/knapen_aot/videos/R_S_yt-npaE4fe6A6Y_26.mp4	0.0	152.19743514060974	0.09995388984680176
20	53.37469506263733	fix_pre	0		22.0	18.0	2.5	/experiments/knapen_aot/videos/R_S_yt-Dwgpjoikt84_71.mp4	0.0	152.29738903045654	0.18327999114990234
20	53.54980111122131	response	0	2		18.0	2.5	/experiments/knapen_aot/videos/R_S_yt-Dwgpjoikt84_71.mp4	0.0	152.47249507904053	
20	53.55797505378723	movie	1		301.0	18.0	2.5	/experiments/knapen_aot/videos/R_S_yt-Dwgpjoikt84_71.mp4	0.0	152.48066902160645	2.508368968963623
20	56.066344022750854	fix_post	2		12.0	18.0	2.5	/experiments/knapen_aot/videos/R_S_yt-Dwgpjoikt84_71.mp4	0.0	154.98903799057007	0.09995698928833008
21	56.166301012039185	fix_pre	0		28.0	19.0	2.5	blank	1.0	155.0889949798584	0.2333970069885254
21	56.39140200614929	response	0	2		19.0	2.5	blank	1.0	155.3140959739685	
21	56.39969801902771	movie	1		301.0	19.0	2.5	blank	1.0	155.32239198684692	2.5082881450653076
21	58.90798616409302	fix_post	2		12.0	19.0	2.5	blank	1.0	157.83068013191223	0.09998393058776855
22	59.007970094680786	fix_pre	0		22.0	20.0	2.5	/experiments/knapen_aot/videos/S_ILSVRC2015_train_00756000.mp4	0.0	157.9306640625	0.18328499794006348
22	59.18305802345276	response	0	2		20.0	2.5	/experiments/knapen_aot/videos/S_ILSVRC2015_train_00756000.mp4	0.0	158.10575199127197	
22	59.19125509262085	movie	1		301.0	20.0	2.5	/experiments/knapen_aot/videos/S_ILSVRC2015_train_00756000.mp4	0.0	158.11394906044006	2.50860595703125
22	61.6998610496521	fix_post	2		12.0	20.0	2.5	/experiments/knapen_aot/videos/S_ILSVRC2015_train_00756000.mp4	0.0	160.6225550174713	0.09975600242614746
23	61.79961705207825	fix_pre	0		20.0	21.0	2.5	/experiments/knapen_aot/videos/R_S_yt-Jo6PxivsTOg_247.mp4	0.0	160.72231101989746	0.16667509078979492
23	61.95810103416443	response	0	2		21.0	2.5	/experiments/knapen_aot/videos/R_S_yt-Jo6PxivsTOg_247.mp4	0.0	160.88079500198364	
23	61.96629214286804	movie	1		301.0	21.0	2.5	/experiments/knapen_aot/videos/R_S_yt-Jo6PxivsTOg_247.mp4	0.0	160.88898611068726	2.5083298683166504
23	64.47462201118469	fix_post	2		12.0	21.0	2.5	/experiments/knapen_aot/videos/R_S_yt-Jo6PxivsTOg_247.mp4	0.0	163.3973159790039	0.099945068359375
24	64.57456707954407	fix_pre	0		25.0	22.0	2.5	/experiments/knapen_aot/videos/R_S_pexels-koolshooters-7691440.mp4	0.0	163.49726104736328	0.20856690406799316
24	64.76719808578491	response	0	2		22.0	2.5	/experiments/knapen_aot/videos/R_S_pexels-koolshooters-7691440.mp4	0.0	163.68989205360413	
24	64.78313398361206	movie	1		167.0	22.0	2.5	/experiments/knapen_aot/videos/R_S_pexels-koolshooters-7691440.mp4	0.0	163.70582795143127	2.508141040802002
24	67.29127502441406	fix_post	2		12.0	22.0	2.5	/experiments/knapen_aot/videos/R_S_pexels-koolshooters-7691440.mp4	0.0	166.21396899223328	0.10033202171325684
25	67.39160704612732	fix_pre	0		23.0	23.0	2.5	/experiments/knapen_aot/videos/S_video-8.mp4	0.0	166.31430101394653	0.19129300117492676
25	67.57468318939209	response	0	2		23.0	2.5	/experiments/knapen_aot/videos/S_video-8.mp4	0.0	166.4973771572113	
25	67.58290004730225	movie	1		195.0	23.0	2.5	/experiments/knapen_aot/videos/S_video-8.mp4	0.0	166.50559401512146	2.508345127105713
25	70.09124517440796	fix_post	2		12.0	23.0	2.5	/experiments/knapen_aot/videos/S_video-8.mp4	0.0	169.01393914222717	0.10001587867736816
26	70.19126105308533	fix_pre	0		25.0	24.0	2.5	/experiments/knapen_aot/videos/S_yt-fymgyhmYnMI_76.mp4	0.0	169.11395502090454	0.2083289623260498
26	70.39136099815369	response	0	2		24.0	2.5	/experiments/knapen_aot/videos/S_yt-fymgyhmYnMI_76.mp4	0.0	169.3140549659729	
26	70.39959001541138	movie	1		301.0	24.0	2.5	/experiments/knapen_aot/videos/S_yt-fymgyhmYnMI_76.mp4	0.0	169.3222839832306	2.508324146270752
26	72.90791416168213	fix_post	2		12.0	24.0	2.5	/experiments/knapen_aot/videos/S_yt-fymgyhmYnMI_76.mp4	0.0	171.83060812950134	0.09999585151672363
27	73.00791001319885	fix_pre	0		44.0	25.0	2.5	/experiments/knapen_aot/videos/S_yt-_68FWLGgPYE_25.mp4	0.0	171.93060398101807	0.366563081741333
27	73.3663911819458	response	0	2		25.0	2.5	/experiments/knapen_aot/videos/S_yt-_68FWLGgPYE_25.mp4	0.0	172.28908514976501	
27	73.37447309494019	movie	1		301.0	25.0	2.5	/experiments/knapen_aot/videos/S_yt-_68FWLGgPYE_25.mp4	0.0	172.2971670627594	2.508441925048828
27	75.88291501998901	fix_post	2		12.0	25.0	2.5	/experiments/knapen_aot/videos/S_yt-_68FWLGgPYE_25.mp4	0.0	174.80560898780823	0.09997296333312988
28	75.98288798332214	fix_pre	0		24.0	26.0	2.5	/experiments/knapen_aot/videos/R_S_yt-ZdXwVfF6T-s_25.mp4	0.0	174.90558195114136	0.19996404647827148
28	76.17469501495361	response	0	2		26.0	2.5	/experiments/knapen_aot/videos/R_S_yt-ZdXwVfF6T-s_25.mp4	0.0	175.09738898277283	
28	76.18285202980042	movie	1		301.0	26.0	2.5	/experiments/knapen_aot/videos/R_S_yt-ZdXwVfF6T-s_25.mp4	0.0	175.10554599761963	2.50829815864563
28	78.69115018844604	fix_post	2		12.0	26.0	2.5	/experiments/knapen_aot/videos/R_S_yt-ZdXwVfF6T-s_25.mp4	0.0	177.61384415626526	0.10006284713745117
29	78.7912130355835	fix_pre	0		24.0	27.0	2.5	/experiments/knapen_aot/videos/R_S_yt-4W224-RSCnM_15.mp4	0.0	177.7139070034027	0.20010805130004883
29	78.98296999931335	response	0	2		27.0	2.5	/experiments/knapen_aot/videos/R_S_yt-4W224-RSCnM_15.mp4	0.0	177.90566396713257	
29	78.99132108688354	movie	1		301.0	27.0	2.5	/experiments/knapen_aot/videos/R_S_yt-4W224-RSCnM_15.mp4	0.0	177.91401505470276	2.5082480907440186
29	81.49956917762756	fix_post	2		12.0	27.0	2.5	/experiments/knapen_aot/videos/R_S_yt-4W224-RSCnM_15.mp4	0.0	180.42226314544678	0.09996390342712402
30	81.59953308105469	fix_pre	0		30.0	28.0	2.5	blank	1.0	180.5222270488739	0.24996495246887207
30	81.84133005142212	response	0	2		28.0	2.5	blank	1.0	180.76402401924133	
30	81.84949803352356	movie	1		301.0	28.0	2.5	blank	1.0	180.77219200134277	2.5083301067352295
30	84.35782814025879	fix_post	2		12.0	28.0	2.5	blank	1.0	183.280522108078	0.1000220775604248
31	84.45785021781921	fix_pre	0		29.0	29.0	2.5	/experiments/knapen_aot/videos/R_S_yt-TBY8F6UMnJQ_51.mp4	0.0	183.38054418563843	0.24171876907348633
31	84.68368411064148	response	0	2		29.0	2.5	/experiments/knapen_aot/videos/R_S_yt-TBY8F6UMnJQ_51.mp4	0.0	183.6063780784607	
31	84.6995689868927	movie	1		301.0	29.0	2.5	/experiments/knapen_aot/videos/R_S_yt-TBY8F6UMnJQ_51.mp4	0.0	183.6222629547119	2.5082781314849854
31	87.20784711837769	fix_post	2		12.0	29.0	2.5	/experiments/knapen_aot/videos/R_S_yt-TBY8F6UMnJQ_51.mp4	0.0	186.1305410861969	0.09999394416809082
32	87.30784106254578	fix_pre	0		46.0	30.0	2.5	/experiments/knapen_aot/videos/S_pexels-rodnae-productions-5993654.mp4	0.0	186.230535030365	0.38329005241394043
32	87.68298506736755	response	0	2		30.0	2.5	/experiments/knapen_aot/videos/S_pexels-rodnae-productions-5993654.mp4	0.0	186.60567903518677	
32	87.69113111495972	movie	1		164.0	30.0	2.5	/experiments/knapen_aot/videos/S_pexels-rodnae-productions-5993654.mp4	0.0	186.61382508277893	2.5088210105895996
32	90.19995212554932	fix_post	2		12.0	30.0	2.5	/experiments/knapen_aot/videos/S_pexels-rodnae-productions-5993654.mp4	0.0	189.12264609336853	0.09973287582397461
33	90.29968500137329	fix_pre	0		29.0	31.0	2.5	/experiments/knapen_aot/videos/R_S_yt-cokedWwwYYs_136.mp4	0.0	189.2223789691925	0.2415010929107666
33	90.53296613693237	response	0	2		31.0	2.5	/experiments/knapen_aot/videos/R_S_yt-cokedWwwYYs_136.mp4	0.0	189.4556601047516	
33	90.54118609428406	movie	1		301.0	31.0	2.5	/experiments/knapen_aot/videos/R_S_yt-cokedWwwYYs_136.mp4	0.0	189.46388006210327	2.5082969665527344
33	93.04948306083679	fix_post	2		12.0	31.0	2.5	/experiments/knapen_aot/videos/R_S_yt-cokedWwwYYs_136.mp4	0.0	191.972177028656	0.09995913505554199
34	93.14944219589233	fix_pre	0		35.0	32.0	2.5	/experiments/knapen_aot/videos/S_production_ID_4101309.mp4	0.0	192.07213616371155	0.2917490005493164
34	93.43287706375122	response	0	2		32.0	2.5	/experiments/knapen_aot/videos/S_production_ID_4101309.mp4	0.0	192.35557103157043	
34	93.44119119644165	movie	1		192.0	32.0	2.5	/experiments/knapen_aot/videos/S_production_ID_4101309.mp4	0.0	192.36388516426086	2.509070873260498
34	95.95026206970215	fix_post	2		12.0	32.0	2.5	/experiments/knapen_aot/videos/S_production_ID_4101309.mp4	0.0	194.87295603752136	0.09924101829528809
35	96.04950308799744	fix_pre	0		20.0	33.0	2.5	blank	1.0	194.97219705581665	0.1666860580444336
35	96.20802521705627	response	0	2		33.0	2.5	blank	1.0	195.1307191848755	
35	96.21618914604187	movie	1		301.0	33.0	2.5	blank	1.0	195.13888311386108	2.5085060596466064
35	98.72469520568848	fix_post	2		12.0	33.0	2.5	blank	1.0	197.6473891735077	0.09987688064575195
36	98.82457208633423	fix_pre	0		29.0	34.0	2.5	/experiments/knapen_aot/videos/S_dnLAfffA-kU_53.mp4	0.0	197.74726605415344	0.24152803421020508
36	99.05793118476868	response	0	2		34.0	2.5	/experiments/knapen_aot/videos/S_dnLAfffA-kU_53.mp4	0.0	197.9806251525879	
36	99.06610012054443	movie	1		301.0	34.0	2.5	/experiments/knapen_aot/videos/S_dnLAfffA-kU_53.mp4	0.0	197.98879408836365	2.508455991744995
36	101.57455611228943	fix_post	2		12.0	34.0	2.5	/experiments/knapen_aot/videos/S_dnLAfffA-kU_53.mp4	0.0	200.49725008010864	0.09995388984680176
37	101.67451000213623	fix_pre	0		11.0	35.0	2.5	/experiments/knapen_aot/videos/S_yt-0lfSyC79n14_7.mp4	0.0	200.59720396995544	0.09161520004272461
37	101.75794911384583	response	0	2		35.0	2.5	/experiments/knapen_aot/videos/S_yt-0lfSyC79n14_7.mp4	0.0	200.68064308166504	
37	101.76612520217896	movie	1		301.0	35.0	2.5	/experiments/knapen_aot/videos/S_yt-0lfSyC79n14_7.mp4	0.0	200.68881916999817	2.5084569454193115
37	104.27458214759827	fix_post	2		12.0	35.0	2.5	/experiments/knapen_aot/videos/S_yt-0lfSyC79n14_7.mp4	0.0	203.19727611541748	0.09989500045776367
38	104.37447714805603	fix_pre	0		6.0	36.0	2.5	/experiments/knapen_aot/videos/R_S_yt-0bovQBIUZho_15.mp4	0.0	203.29717111587524	0.049963951110839844
38	104.4089720249176	response	0	2		36.0	2.5	/experiments/knapen_aot/videos/R_S_yt-0bovQBIUZho_15.mp4	0.0	203.33166599273682	
38	104.42444109916687	movie	1		301.0	36.0	2.5	/experiments/knapen_aot/videos/R_S_yt-0bovQBIUZho_15.mp4	0.0	203.34713506698608	2.5083510875701904
38	106.93279218673706	fix_post	2		12.0	36.0	2.5	/experiments/knapen_aot/videos/R_S_yt-0bovQBIUZho_15.mp4	0.0	205.85548615455627	0.10009884834289551
39	107.03289103507996	fix_pre	0		22.0	37.0	2.5	/experiments/knapen_aot/videos/S_yt-GWO7FHN1Jb4_142.mp4	0.0	205.95558500289917	0.18320703506469727
39	107.2079210281372	response	0	2		37.0	2.5	/experiments/knapen_aot/videos/S_yt-GWO7FHN1Jb4_142.mp4	0.0	206.13061499595642	
39	107.21609807014465	movie	1		301.0	37.0	2.5	/experiments/knapen_aot/videos/S_yt-GWO7FHN1Jb4_142.mp4	0.0	206.13879203796387	2.5083601474761963
39	109.72445821762085	fix_post	2		12.0	37.0	2.5	/experiments/knapen_aot/videos/S_yt-GWO7FHN1Jb4_142.mp4	0.0	208.64715218544006	0.10000991821289062
40	109.82446813583374	fix_pre	0		27.0	38.0	2.5	/experiments/knapen_aot/videos/S_yt-WpLgDX6Yw_s_20.mp4	0.0	208.74716210365295	0.22496485710144043
40	110.04120516777039	response	0	2		38.0	2.5	/experiments/knapen_aot/videos/S_yt-WpLgDX6Yw_s_20.mp4	0.0	208.9638991355896	
40	110.04943299293518	movie	1		301.0	38.0	2.5	/experiments/knapen_aot/videos/S_yt-WpLgDX6Yw_s_20.mp4	0.0	208.9721269607544	2.50829815864563
40	112.55773115158081	fix_post	2		12.0	38.0	2.5	/experiments/knapen_aot/videos/S_yt-WpLgDX6Yw_s_20.mp4	0.0	211.48042511940002	0.09999585151672363
41	112.65772700309753	fix_pre	0		52.0	39.0	2.5	/experiments/knapen_aot/videos/R_S_yt-ebylvieB_4g_16.mp4	0.0	211.58042097091675	0.4332730770111084
41	113.08281898498535	response	0	2		39.0	2.5	/experiments/knapen_aot/videos/R_S_yt-ebylvieB_4g_16.mp4	0.0	212.00551295280457	
41	113.09100008010864	movie	1		301.0	39.0	2.5	/experiments/knapen_aot/videos/R_S_yt-ebylvieB_4g_16.mp4	0.0	212.01369404792786	2.508492946624756
41	115.5994930267334	fix_post	2		12.0	39.0	2.5	/experiments/knapen_aot/videos/R_S_yt-ebylvieB_4g_16.mp4	0.0	214.5221869945526	0.0998990535736084
42	115.699392080307	fix_pre	0		34.0	40.0	2.5	/experiments/knapen_aot/videos/S_yt-1V0KJEc4cJ4_203.mp4	0.0	214.62208604812622	0.28479599952697754
42	115.97460699081421	response	0	2		40.0	2.5	/experiments/knapen_aot/videos/S_yt-1V0KJEc4cJ4_203.mp4	0.0	214.89730095863342	
42	115.98418807983398	movie	1		301.0	40.0	2.5	/experiments/knapen_aot/videos/S_yt-1V0KJEc4cJ4_203.mp4	0.0	214.9068820476532	2.5068509578704834
42	118.49103903770447	fix_post	2		12.0	40.0	2.5	/experiments/knapen_aot/videos/S_yt-1V0KJEc4cJ4_203.mp4	0.0	217.41373300552368	0.10003495216369629
43	118.59107398986816	fix_pre	0		23.0	41.0	2.5	/experiments/knapen_aot/videos/S_yt-e_eOzV7qMZo_374.mp4	0.0	217.51376795768738	0.1915740966796875
43	118.7745521068573	response	0	2		41.0	2.5	/experiments/knapen_aot/videos/S_yt-e_eOzV7qMZo_374.mp4	0.0	217.6972460746765	
43	118.78264808654785	movie	1		301.0	41.0	2.5	/experiments/knapen_aot/videos/S_yt-e_eOzV7qMZo_374.mp4	0.0	217.70534205436707	2.5083179473876953
43	121.29096603393555	fix_post	2		12.0	41.0	2.5	/experiments/knapen_aot/videos/S_yt-e_eOzV7qMZo_374.mp4	0.0	220.21366000175476	0.1000511646270752
44	121.39101719856262	fix_pre	0		31.0	42.0	2.5	blank	1.0	220.31371116638184	0.2583189010620117
44	121.6412000656128	response	0	2		42.0	2.5	blank	1.0	220.563894033432	
44	121.64933609962463	movie	1		301.0	42.0	2.5	blank	1.0	220.57203006744385	2.508362054824829
44	124.15769815444946	fix_post	2		12.0	42.0	2.5	blank	1.0	223.08039212226868	0.09992098808288574
45	124.25761914253235	fix_pre	0		37.0	43.0	2.5	/experiments/knapen_aot/videos/R_S_yt-EKPrSw5xF7k_112.mp4	0.0	223.18031311035156	0.3083369731903076
45	124.5578031539917	response	0	2		43.0	2.5	/experiments/knapen_aot/videos/R_S_yt-EKPrSw5xF7k_112.mp4	0.0	223.4804971218109	
45	124.56595611572266	movie	1		301.0	43.0	2.5	/experiments/knapen_aot/videos/R_S_yt-EKPrSw5xF7k_112.mp4	0.0	223.48865008354187	2.5083870887756348
45	127.07434320449829	fix_post	2		12.0	43.0	2.5	/experiments/knapen_aot/videos/R_S_yt-EKPrSw5xF7k_112.mp4	0.0	225.9970371723175	0.09997296333312988
46	127.17431616783142	fix_pre	0		30.0	44.0	2.5	/experiments/knapen_aot/videos/R_S_G007_C004_UHD_SDR_2K_AVC.mp4	0.0	226.09701013565063	0.24991083145141602
46	127.40856003761292	response	0	2		44.0	2.5	/experiments/knapen_aot/videos/R_S_G007_C004_UHD_SDR_2K_AVC.mp4	0.0	226.33125400543213	
46	127.42422699928284	movie	1		175.0	44.0	2.5	/experiments/knapen_aot/videos/R_S_G007_C004_UHD_SDR_2K_AVC.mp4	0.0	226.34692096710205	2.5084919929504395
46	129.93271899223328	fix_post	2		12.0	44.0	2.5	/experiments/knapen_aot/videos/R_S_G007_C004_UHD_SDR_2K_AVC.mp4	0.0	228.8554129600525	0.09996914863586426
47	130.03268814086914	fix_pre	0		23.0	45.0	2.5	/experiments/knapen_aot/videos/S_pexels-koolshooters-7327401_1.mp4	0.0	228.95538210868835	0.1916520595550537
47	130.21613121032715	response	0	2		45.0	2.5	/experiments/knapen_aot/videos/S_pexels-koolshooters-7327401_1.mp4	0.0	229.13882517814636	
47	130.2243402004242	movie	1		169.0	45.0	2.5	/experiments/knapen_aot/videos/S_pexels-koolshooters-7327401_1.mp4	0.0	229.1470341682434	2.508283853530884
47	132.73262405395508	fix_post	2		12.0	45.0	2.5	/experiments/knapen_aot/videos/S_pexels-koolshooters-7327401_1.mp4	0.0	231.6553180217743	0.10005712509155273
48	132.83268117904663	fix_pre	0		33.0	46.0	2.5	/experiments/knapen_aot/videos/R_S_yt-l6WPyKg_3is_154.mp4	0.0	231.75537514686584	0.27498388290405273
48	133.0993630886078	response	0	2		46.0	2.5	/experiments/knapen_aot/videos/R_S_yt-l6WPyKg_3is_154.mp4	0.0	232.022057056427	
48	133.10766506195068	movie	1		301.0	46.0	2.5	/experiments/knapen_aot/videos/R_S_yt-l6WPyKg_3is_154.mp4	0.0	232.0303590297699	2.5083000659942627
48	135.61596512794495	fix_post	2		12.0	46.0	2.5	/experiments/knapen_aot/videos/R_S_yt-l6WPyKg_3is_154.mp4	0.0	234.53865909576416	0.0999460220336914
49	135.71591114997864	fix_pre	0		23.0	47.0	2.5	/experiments/knapen_aot/videos/R_S_video-8.mp4	0.0	234.63860511779785	0.19167685508728027
49	135.89938116073608	response	0	2		47.0	2.5	/experiments/knapen_aot/videos/R_S_video-8.mp4	0.0	234.8220751285553	
49	135.90758800506592	movie	1		196.0	47.0	2.5	/experiments/knapen_aot/videos/R_S_video-8.mp4	0.0	234.83028197288513	2.5084171295166016
49	138.41600513458252	fix_post	2		12.0	47.0	2.5	/experiments/knapen_aot/videos/R_S_video-8.mp4	0.0	237.33869910240173	0.09993696212768555
50	138.5159420967102	fix_pre	0		39.0	48.0	2.5	/experiments/knapen_aot/videos/S_SPNvf6JCjGw_123.mp4	0.0	237.43863606452942	0.32508301734924316
50	138.83274006843567	response	0	2		48.0	2.5	/experiments/knapen_aot/videos/S_SPNvf6JCjGw_123.mp4	0.0	237.75543403625488	
50	138.84102511405945	movie	1		301.0	48.0	2.5	/experiments/knapen_aot/videos/S_SPNvf6JCjGw_123.mp4	0.0	237.76371908187866	2.508272886276245
50	141.3492980003357	fix_post	2		12.0	48.0	2.5	/experiments/knapen_aot/videos/S_SPNvf6JCjGw_123.mp4	0.0	240.2719919681549	0.09996509552001953
51	141.4492630958557	fix_pre	0		27.0	49.0	2.5	blank	1.0	240.37195706367493	0.22498512268066406
51	141.66604018211365	response	0	2		49.0	2.5	blank	1.0	240.58873414993286	
51	141.67424821853638	movie	1		301.0	49.0	2.5	blank	1.0	240.5969421863556	2.5082738399505615
51	144.18252205848694	fix_post	2		12.0	49.0	2.5	blank	1.0	243.10521602630615	0.10012412071228027
52	144.28264617919922	fix_pre	0		41.0	50.0	2.5	/experiments/knapen_aot/videos/R_S_Pexels_Videos_278654_1.mp4	0.0	243.20534014701843	0.3416328430175781
52	144.61603808403015	response	0	2		50.0	2.5	/experiments/knapen_aot/videos/R_S_Pexels_Videos_278654_1.mp4	0.0	243.53873205184937	
52	144.6242790222168	movie	1		164.0	50.0	2.5	/experiments/knapen_aot/videos/R_S_Pexels_Videos_278654_1.mp4	0.0	243.546972990036	2.5083200931549072
52	147.1325991153717	fix_post	2		12.0	50.0	2.5	/experiments/knapen_aot/videos/R_S_Pexels_Videos_278654_1.mp4	0.0	246.05529308319092	0.09996700286865234
53	147.23256611824036	fix_pre	0		17.0	51.0	2.5	/experiments/knapen_aot/videos/S_ILSVRC2015_train_00405000.mp4	0.0	246.15526008605957	0.14165186882019043
53	147.3660581111908	response	0	2		51.0	2.5	/experiments/knapen_aot/videos/S_ILSVRC2015_train_00405000.mp4	0.0	246.28875207901	
53	147.37421798706055	movie	1		301.0	51.0	2.5	/experiments/knapen_aot/videos/S_ILSVRC2015_train_00405000.mp4	0.0	246.29691195487976	2.5083580017089844
53	149.88257598876953	fix_post	2		12.0	51.0	2.5	/experiments/knapen_aot/videos/S_ILSVRC2015_train_00405000.mp4	0.0	248.80526995658875	0.09999608993530273
54	149.98257207870483	fix_pre	0		40.0	52.0	2.5	/experiments/knapen_aot/videos/S_yt-j-ifVbxZePQ_70.mp4	0.0	248.90526604652405	0.3345010280609131
54	150.30766010284424	response	0	2		52.0	2.5	/experiments/knapen_aot/videos/S_yt-j-ifVbxZePQ_70.mp4	0.0	249.23035407066345	
54	150.31707310676575	movie	1		301.0	52.0	2.5	/experiments/knapen_aot/videos/S_yt-j-ifVbxZePQ_70.mp4	0.0	249.23976707458496	2.5071980953216553
54	152.8242712020874	fix_post	2		12.0	52.0	2.5	/experiments/knapen_aot/videos/S_yt-j-ifVbxZePQ_70.mp4	0.0	251.74696516990662	0.09996485710144043
55	152.92423605918884	fix_pre	0		32.0	53.0	2.5	/experiments/knapen_aot/videos/R_S_yt-2CWrK9nbhTk_211.mp4	0.0	251.84693002700806	0.26792311668395996
55	153.182715177536	response	0	2		53.0	2.5	/experiments/knapen_aot/videos/R_S_yt-2CWrK9nbhTk_211.mp4	0.0	252.10540914535522	
55	153.1921591758728	movie	1		301.0	53.0	2.5	/experiments/knapen_aot/videos/R_S_yt-2CWrK9nbhTk_211.mp4	0.0	252.11485314369202	2.5070438385009766
55	155.69920301437378	fix_post	2		12.0	53.0	2.5	/experiments/knapen_aot/videos/R_S_yt-2CWrK9nbhTk_211.mp4	0.0	254.621896982193	0.09996318817138672
56	155.79916620254517	fix_pre	0		31.0	54.0	2.5	/experiments/knapen_aot/videos/R_S_wc-PqINyFk_ku4u_18.mp4	0.0	254.72186017036438	0.25830793380737305
56	156.04930520057678	response	0	2		54.0	2.5	/experiments/knapen_aot/videos/R_S_wc-PqINyFk_ku4u_18.mp4	0.0	254.971999168396	
56	156.05747413635254	movie	1		168.0	54.0	2.5	/experiments/knapen_aot/videos/R_S_wc-PqINyFk_ku4u_18.mp4	0.0	254.98016810417175	2.5084309577941895
56	158.56590509414673	fix_post	2		12.0	54.0	2.5	/experiments/knapen_aot/videos/R_S_wc-PqINyFk_ku4u_18.mp4	0.0	257.48859906196594	0.1001899242401123
57	158.66609501838684	fix_pre	0		30.0	55.0	2.5	/experiments/knapen_aot/videos/R_S_g201_CA_A016_C002_SDR_20191114_SDR_2K_AVC.mp4	0.0	257.58878898620605	0.24974513053894043
57	158.90772819519043	response	0	2		55.0	2.5	/experiments/knapen_aot/videos/R_S_g201_CA_A016_C002_SDR_20191114_SDR_2K_AVC.mp4	0.0	257.83042216300964	
57	158.91584014892578	movie	1		177.0	55.0	2.5	/experiments/knapen_aot/videos/R_S_g201_CA_A016_C002_SDR_20191114_SDR_2K_AVC.mp4	0.0	257.838534116745	2.5084550380706787
57	161.42429518699646	fix_post	2		12.0	55.0	2.5	/experiments/knapen_aot/videos/R_S_g201_CA_A016_C002_SDR_20191114_SDR_2K_AVC.mp4	0.0	260.3469891548157	0.09994697570800781
58	161.52424216270447	fix_pre	0		36.0	56.0	2.5	blank	1.0	260.4469361305237	0.29994797706604004
58	161.81595921516418	response	0	2		56.0	2.5	blank	1.0	260.7386531829834	
58	161.8241901397705	movie	1		301.0	56.0	2.5	blank	1.0	260.7468841075897	2.508547067642212
58	164.33273720741272	fix_post	2		12.0	56.0	2.5	blank	1.0	263.25543117523193	0.09977889060974121
59	164.43251609802246	fix_pre	0		28.0	57.0	2.5	/experiments/knapen_aot/videos/R_S_yt-Gc1p5CnDbDY_22.mp4	0.0	263.3552100658417	0.233320951461792
59	164.65768718719482	response	0	2		57.0	2.5	/experiments/knapen_aot/videos/R_S_yt-Gc1p5CnDbDY_22.mp4	0.0	263.58038115501404	
59	164.66583704948425	movie	1		301.0	57.0	2.5	/experiments/knapen_aot/videos/R_S_yt-Gc1p5CnDbDY_22.mp4	0.0	263.58853101730347	2.5084691047668457
59	167.1743061542511	fix_post	2		12.0	57.0	2.5	/experiments/knapen_aot/videos/R_S_yt-Gc1p5CnDbDY_22.mp4	0.0	266.0970001220703	0.09986996650695801
60	167.27417612075806	fix_pre	0		27.0	58.0	2.5	/experiments/knapen_aot/videos/R_S_yt-YCjbGOPBQHw_131.mp4	0.0	266.19687008857727	0.22498798370361328
60	167.4909369945526	response	0	2		58.0	2.5	/experiments/knapen_aot/videos/R_S_yt-YCjbGOPBQHw_131.mp4	0.0	266.4136309623718	
60	167.49916410446167	movie	1		301.0	58.0	2.5	/experiments/knapen_aot/videos/R_S_yt-YCjbGOPBQHw_131.mp4	0.0	266.4218580722809	2.5083200931549072
60	170.00748419761658	fix_post	2		12.0	58.0	2.5	/experiments/knapen_aot/videos/R_S_yt-YCjbGOPBQHw_131.mp4	0.0	268.9301781654358	0.1000208854675293
61	170.1075050830841	fix_pre	0		23.0	59.0	2.5	/experiments/knapen_aot/videos/S_yt-Id-f63kUHsE_20.mp4	0.0	269.0301990509033	0.19159698486328125
61	170.2909951210022	response	0	2		59.0	2.5	/experiments/knapen_aot/videos/S_yt-Id-f63kUHsE_20.mp4	0.0	269.2136890888214	
61	170.2991020679474	movie	1		301.0	59.0	2.5	/experiments/knapen_aot/videos/S_yt-Id-f63kUHsE_20.mp4	0.0	269.2217960357666	2.508455991744995
61	172.80755805969238	fix_post	2		12.0	59.0	2.5	/experiments/knapen_aot/videos/S_yt-Id-f63kUHsE_20.mp4	0.0	271.7302520275116	0.100006103515625
62	172.907564163208	fix_pre	0		50.0	60.0	2.5	/experiments/knapen_aot/videos/R_S_yt-GWO7FHN1Jb4_142.mp4	0.0	271.8302581310272	0.4165048599243164
62	173.31587600708008	response	0	2		60.0	2.5	/experiments/knapen_aot/videos/R_S_yt-GWO7FHN1Jb4_142.mp4	0.0	272.2385699748993	
62	173.32406902313232	movie	1		301.0	60.0	2.5	/experiments/knapen_aot/videos/R_S_yt-GWO7FHN1Jb4_142.mp4	0.0	272.24676299095154	2.508430004119873
62	175.8324990272522	fix_post	2		12.0	60.0	2.5	/experiments/knapen_aot/videos/R_S_yt-GWO7FHN1Jb4_142.mp4	0.0	274.7551929950714	0.09996509552001953
63	175.93246412277222	fix_pre	0		25.0	61.0	2.5	/experiments/knapen_aot/videos/R_S_yt-uX7qYKQm_pg_277.mp4	0.0	274.85515809059143	0.20830798149108887
63	176.13256001472473	response	0	2		61.0	2.5	/experiments/knapen_aot/videos/R_S_yt-uX7qYKQm_pg_277.mp4	0.0	275.05525398254395	
63	176.1407721042633	movie	1		301.0	61.0	2.5	/experiments/knapen_aot/videos/R_S_yt-uX7qYKQm_pg_277.mp4	0.0	275.0634660720825	2.5084049701690674
63	178.64917707443237	fix_post	2		12.0	61.0	2.5	/experiments/knapen_aot/videos/R_S_yt-uX7qYKQm_pg_277.mp4	0.0	277.5718710422516	0.0999600887298584
64	178.74913716316223	fix_pre	0		30.0	62.0	2.5	blank	1.0	277.67183113098145	0.24991488456726074
64	178.99094915390015	response	0	2		62.0	2.5	blank	1.0	277.91364312171936	
64	178.9990520477295	movie	1		301.0	62.0	2.5	blank	1.0	277.9217460155487	2.508324146270752
64	181.50737619400024	fix_post	2		12.0	62.0	2.5	blank	1.0	280.43007016181946	0.10006594657897949
65	181.60744214057922	fix_pre	0		22.0	63.0	2.5	/experiments/knapen_aot/videos/R_S_pexels-laker-5793000.mp4	0.0	280.53013610839844	0.18335294723510742
65	181.78254914283752	response	0	2		63.0	2.5	/experiments/knapen_aot/videos/R_S_pexels-laker-5793000.mp4	0.0	280.70524311065674	
65	181.79079508781433	movie	1		165.0	63.0	2.5	/experiments/knapen_aot/videos/R_S_pexels-laker-5793000.mp4	0.0	280.71348905563354	2.5083320140838623
65	184.2991271018982	fix_post	2		12.0	63.0	2.5	/experiments/knapen_aot/videos/R_S_pexels-laker-5793000.mp4	0.0	283.2218210697174	0.0999751091003418
66	184.39910221099854	fix_pre	0		7.0	64.0	2.5	/experiments/knapen_aot/videos/R_S_yt-s-J3C6e5A3Q_18.mp4	0.0	283.32179617881775	0.058331966400146484
66	184.4492061138153	response	0	2		64.0	2.5	/experiments/knapen_aot/videos/R_S_yt-s-J3C6e5A3Q_18.mp4	0.0	283.3719000816345	
66	184.45743417739868	movie	1		301.0	64.0	2.5	/experiments/knapen_aot/videos/R_S_yt-s-J3C6e5A3Q_18.mp4	0.0	283.3801281452179	2.508347988128662
66	186.96578216552734	fix_post	2		12.0	64.0	2.5	/experiments/knapen_aot/videos/R_S_yt-s-J3C6e5A3Q_18.mp4	0.0	285.88847613334656	0.10007095336914062
67	187.06585311889648	fix_pre	0		27.0	65.0	2.5	/experiments/knapen_aot/videos/R_S_yt-Snha8C5YOiY_26.mp4	0.0	285.9885470867157	0.2249889373779297
67	187.2825222015381	response	0	2		65.0	2.5	/experiments/knapen_aot/videos/R_S_yt-Snha8C5YOiY_26.mp4	0.0	286.2052161693573	
67	187.2908420562744	movie	1		301.0	65.0	2.5	/experiments/knapen_aot/videos/R_S_yt-Snha8C5YOiY_26.mp4	0.0	286.2135360240936	2.5082650184631348
67	189.79910707473755	fix_post	2		12.0	65.0	2.5	/experiments/knapen_aot/videos/R_S_yt-Snha8C5YOiY_26.mp4	0.0	288.72180104255676	0.09994006156921387
68	189.89904713630676	fix_pre	0		1.0	66.0	2.5	/experiments/knapen_aot/videos/R_S_8amznWxLS04_212.mp4	0.0	288.821741104126	0.008358001708984375
68	189.89224910736084	response	0	2		66.0	2.5	/experiments/knapen_aot/videos/R_S_8amznWxLS04_212.mp4	0.0	288.81494307518005	
68	189.90740513801575	movie	1		301.0	66.0	2.5	/experiments/knapen_aot/videos/R_S_8amznWxLS04_212.mp4	0.0	288.83009910583496	2.508359909057617
68	192.41576504707336	fix_post	2		12.0	66.0	2.5	/experiments/knapen_aot/videos/R_S_8amznWxLS04_212.mp4	0.0	291.3384590148926	0.099945068359375
69	192.51571011543274	fix_pre	0		26.0	67.0	2.5	/experiments/knapen_aot/videos/S_yt-KLInd-KrK_w_19.mp4	0.0	291.43840408325195	0.2177259922027588
69	192.7242410182953	response	0	2		67.0	2.5	/experiments/knapen_aot/videos/S_yt-KLInd-KrK_w_19.mp4	0.0	291.6469349861145	
69	192.7334361076355	movie	1		301.0	67.0	2.5	/experiments/knapen_aot/videos/S_yt-KLInd-KrK_w_19.mp4	0.0	291.6561300754547	2.5073070526123047
69	195.2407431602478	fix_post	2		12.0	67.0	2.5	/experiments/knapen_aot/videos/S_yt-KLInd-KrK_w_19.mp4	0.0	294.163437128067	0.10001897811889648
70	195.3407621383667	fix_pre	0		22.0	68.0	2.5	blank	1.0	294.2634561061859	0.18434500694274902
70	195.5158770084381	response	0	2		68.0	2.5	blank	1.0	294.4385709762573	
70	195.52510714530945	movie	1		301.0	68.0	2.5	blank	1.0	294.44780111312866	2.507467031478882
70	198.03257417678833	fix_post	2		12.0	68.0	2.5	blank	1.0	296.95526814460754	0.09981393814086914
71	198.1323881149292	fix_pre	0		27.0	69.0	2.5	/experiments/knapen_aot/videos/R_S_yt-2CWrK9nbhTk_211.mp4	0.0	297.0550820827484	0.22600388526916504
71	198.3491439819336	response	0	2		69.0	2.5	/experiments/knapen_aot/videos/R_S_yt-2CWrK9nbhTk_211.mp4	0.0	297.2718379497528	
71	198.35839200019836	movie	1		301.0	69.0	2.5	/experiments/knapen_aot/videos/R_S_yt-2CWrK9nbhTk_211.mp4	0.0	297.2810859680176	2.5075430870056152
71	200.86593508720398	fix_post	2		12.0	69.0	2.5	/experiments/knapen_aot/videos/R_S_yt-2CWrK9nbhTk_211.mp4	0.0	299.7886290550232	0.09979009628295898
72	200.96572518348694	fix_pre	0		8.0	70.0	2.5	/experiments/knapen_aot/videos/S_yt-6B69qmkEdTI_1.mp4	0.0	299.88841915130615	0.06663203239440918
72	201.02415704727173	response	0	2		70.0	2.5	/experiments/knapen_aot/videos/S_yt-6B69qmkEdTI_1.mp4	0.0	299.94685101509094	
72	201.03235721588135	movie	1		301.0	70.0	2.5	/experiments/knapen_aot/videos/S_yt-6B69qmkEdTI_1.mp4	0.0	299.95505118370056	2.508363962173462
72	203.5407211780548	fix_post	2		12.0	70.0	2.5	/experiments/knapen_aot/videos/S_yt-6B69qmkEdTI_1.mp4	0.0	302.463415145874	0.10002684593200684
73	203.64074802398682	fix_pre	0		26.0	71.0	2.5	/experiments/knapen_aot/videos/R_S_4_D1iUb87uE_15.mp4	0.0	302.56344199180603	0.21758604049682617
73	203.84915113449097	response	0	2		71.0	2.5	/experiments/knapen_aot/videos/R_S_4_D1iUb87uE_15.mp4	0.0	302.7718451023102	
73	203.85833406448364	movie	1		301.0	71.0	2.5	/experiments/knapen_aot/videos/R_S_4_D1iUb87uE_15.mp4	0.0	302.78102803230286	2.507528066635132
73	206.36586213111877	fix_post	2		12.0	71.0	2.5	/experiments/knapen_aot/videos/R_S_4_D1iUb87uE_15.mp4	0.0	305.288556098938	0.09984707832336426
74	206.46570920944214	fix_pre	0		19.0	72.0	2.5	/experiments/knapen_aot/videos/S_yt-2IxVZeiSv3g_28.mp4	0.0	305.38840317726135	0.15825390815734863
74	206.61586213111877	response	0	2		72.0	2.5	/experiments/knapen_aot/videos/S_yt-2IxVZeiSv3g_28.mp4	0.0	305.538556098938	
74	206.6239631175995	movie	1		301.0	72.0	2.5	/experiments/knapen_aot/videos/S_yt-2IxVZeiSv3g_28.mp4	0.0	305.5466570854187	2.5083489418029785
74	209.13231205940247	fix_post	2		12.0	72.0	2.5	/experiments/knapen_aot/videos/S_yt-2IxVZeiSv3g_28.mp4	0.0	308.0550060272217	0.10006499290466309
75	209.23237705230713	fix_pre	0		26.0	73.0	2.5	/experiments/knapen_aot/videos/R_S_pexels-laker-5793000.mp4	0.0	308.15507102012634	0.21660804748535156
75	209.44081902503967	response	0	2		73.0	2.5	/experiments/knapen_aot/videos/R_S_pexels-laker-5793000.mp4	0.0	308.3635129928589	
75	209.44898509979248	movie	1		165.0	73.0	2.5	/experiments/knapen_aot/videos/R_S_pexels-laker-5793000.mp4	0.0	308.3716790676117	2.508410930633545
75	211.95739603042603	fix_post	2		12.0	73.0	2.5	/experiments/knapen_aot/videos/R_S_pexels-laker-5793000.mp4	0.0	310.88008999824524	0.10010600090026855
76	212.0575020313263	fix_pre	0		46.0	74.0	2.5	/experiments/knapen_aot/videos/S_yt-a5TGHnldsKg_102.mp4	0.0	310.9801959991455	0.3840451240539551
76	212.42493200302124	response	0	2		74.0	2.5	/experiments/knapen_aot/videos/S_yt-a5TGHnldsKg_102.mp4	0.0	311.34762597084045	
76	212.44154715538025	movie	1		301.0	74.0	2.5	/experiments/knapen_aot/videos/S_yt-a5TGHnldsKg_102.mp4	0.0	311.36424112319946	2.5074210166931152
76	214.94896817207336	fix_post	2		12.0	74.0	2.5	/experiments/knapen_aot/videos/S_yt-a5TGHnldsKg_102.mp4	0.0	313.8716621398926	0.10006189346313477
77	215.0490300655365	fix_pre	0		28.0	75.0	2.5	blank	1.0	313.9717240333557	0.23323512077331543
77	215.27402520179749	response	0	2		75.0	2.5	blank	1.0	314.1967191696167	
77	215.28226518630981	movie	1		301.0	75.0	2.5	blank	1.0	314.204959154129	2.508347988128662
77	217.79061317443848	fix_post	2		12.0	75.0	2.5	blank	1.0	316.7133071422577	0.09999799728393555
78	217.8906111717224	fix_pre	0		37.0	76.0	2.5	/experiments/knapen_aot/videos/R_S_yt-ni4JaYu7PhU_6.mp4	0.0	316.8133051395416	0.30829501152038574
78	218.19069504737854	response	0	2		76.0	2.5	/experiments/knapen_aot/videos/R_S_yt-ni4JaYu7PhU_6.mp4	0.0	317.11338901519775	
78	218.1989061832428	movie	1		301.0	76.0	2.5	/experiments/knapen_aot/videos/R_S_yt-ni4JaYu7PhU_6.mp4	0.0	317.121600151062	2.508356809616089
78	220.7072629928589	fix_post	2		12.0	76.0	2.5	/experiments/knapen_aot/videos/R_S_yt-ni4JaYu7PhU_6.mp4	0.0	319.6299569606781	0.0999901294708252
79	220.8072531223297	fix_pre	0		35.0	77.0	2.5	/experiments/knapen_aot/videos/S_ILSVRC2015_train_00495000.mp4	0.0	319.7299470901489	0.2916750907897949
79	221.09067106246948	response	0	2		77.0	2.5	/experiments/knapen_aot/videos/S_ILSVRC2015_train_00495000.mp4	0.0	320.0133650302887	
79	221.0989282131195	movie	1		301.0	77.0	2.5	/experiments/knapen_aot/videos/S_ILSVRC2015_train_00495000.mp4	0.0	320.0216221809387	2.508297920227051
79	223.60722613334656	fix_post	2		12.0	77.0	2.5	/experiments/knapen_aot/videos/S_ILSVRC2015_train_00495000.mp4	0.0	322.52992010116577	0.09999799728393555
80	223.7072241306305	fix_pre	0		33.0	78.0	2.5	/experiments/knapen_aot/videos/R_S_yt-P8vJa4YVcGU_488.mp4	0.0	322.6299180984497	0.27587294578552246
80	223.97405815124512	response	0	2		78.0	2.5	/experiments/knapen_aot/videos/R_S_yt-P8vJa4YVcGU_488.mp4	0.0	322.89675211906433	
80	223.98309707641602	movie	1		301.0	78.0	2.5	/experiments/knapen_aot/videos/R_S_yt-P8vJa4YVcGU_488.mp4	0.0	322.90579104423523	2.5074751377105713
80	226.4905722141266	fix_post	2		12.0	78.0	2.5	/experiments/knapen_aot/videos/R_S_yt-P8vJa4YVcGU_488.mp4	0.0	325.4132661819458	0.10001587867736816
81	226.59058809280396	fix_pre	0		31.0	79.0	2.5	/experiments/knapen_aot/videos/R_S_comp_HK_H004_C001_PSNK_DENOISE_v14_SDR_PS_FINAL_20180731_SDR_2K_AVC.mp4	0.0	325.51328206062317	0.2582979202270508
81	226.84069108963013	response	0	2		79.0	2.5	/experiments/knapen_aot/videos/R_S_comp_HK_H004_C001_PSNK_DENOISE_v14_SDR_PS_FINAL_20180731_SDR_2K_AVC.mp4	0.0	325.76338505744934	
81	226.848886013031	movie	1		168.0	79.0	2.5	/experiments/knapen_aot/videos/R_S_comp_HK_H004_C001_PSNK_DENOISE_v14_SDR_PS_FINAL_20180731_SDR_2K_AVC.mp4	0.0	325.7715799808502	2.508350133895874
81	229.35723614692688	fix_post	2		12.0	79.0	2.5	/experiments/knapen_aot/videos/R_S_comp_HK_H004_C001_PSNK_DENOISE_v14_SDR_PS_FINAL_20180731_SDR_2K_AVC.mp4	0.0	328.2799301147461	0.09991097450256348
82	229.45714712142944	fix_pre	0		19.0	80.0	2.5	/experiments/knapen_aot/videos/S_yt-4Qz0m5IYh10_167.mp4	0.0	328.37984108924866	0.15841102600097656
82	229.60739612579346	response	0	2		80.0	2.5	/experiments/knapen_aot/videos/S_yt-4Qz0m5IYh10_167.mp4	0.0	328.53009009361267	
82	229.61555814743042	movie	1		301.0	80.0	2.5	/experiments/knapen_aot/videos/S_yt-4Qz0m5IYh10_167.mp4	0.0	328.53825211524963	2.508349895477295
82	232.12390804290771	fix_post	2		12.0	80.0	2.5	/experiments/knapen_aot/videos/S_yt-4Qz0m5IYh10_167.mp4	0.0	331.04660201072693	0.09990406036376953
83	232.22381210327148	fix_pre	0		11.0	81.0	2.5	/experiments/knapen_aot/videos/S_yt-w_e3sxIzepA_115.mp4	0.0	331.1465060710907	0.0924370288848877
83	232.29979515075684	response	0	2		81.0	2.5	/experiments/knapen_aot/videos/S_yt-w_e3sxIzepA_115.mp4	0.0	331.22248911857605	
83	232.31624913215637	movie	1		301.0	81.0	2.5	/experiments/knapen_aot/videos/S_yt-w_e3sxIzepA_115.mp4	0.0	331.2389430999756	2.507607936859131
83	234.8238570690155	fix_post	2		12.0	81.0	2.5	/experiments/knapen_aot/videos/S_yt-w_e3sxIzepA_115.mp4	0.0	333.7465510368347	0.10024094581604004
84	234.92409801483154	fix_pre	0		45.0	82.0	2.5	/experiments/knapen_aot/videos/S_yt_R-JaY8f33fOCw_25.mp4	0.0	333.84679198265076	0.37475109100341797
84	235.29067420959473	response	0	2		82.0	2.5	/experiments/knapen_aot/videos/S_yt_R-JaY8f33fOCw_25.mp4	0.0	334.21336817741394	
84	235.29884910583496	movie	1		301.0	82.0	2.5	/experiments/knapen_aot/videos/S_yt_R-JaY8f33fOCw_25.mp4	0.0	334.2215430736542	2.5083489418029785
84	237.80719804763794	fix_post	2		12.0	82.0	2.5	/experiments/knapen_aot/videos/S_yt_R-JaY8f33fOCw_25.mp4	0.0	336.72989201545715	0.10003209114074707
85	237.9072301387787	fix_pre	0		33.0	83.0	2.5	blank	1.0	336.8299241065979	0.27498602867126465
85	238.17398405075073	response	0	2		83.0	2.5	blank	1.0	337.09667801856995	
85	238.18221616744995	movie	1		301.0	83.0	2.5	blank	1.0	337.10491013526917	2.5083868503570557
85	240.690603017807	fix_post	2		12.0	83.0	2.5	blank	1.0	339.6132969856262	0.10006117820739746
87	240.7906641960144	stim	0		265.0					339.7133581638336	2.21303391456604
87	242.99533915519714	response	0	space						341.91803312301636	
