trial_nr	onset	event_type	phase	response	nr_frames	movie_index	movie_duration	movie_file	blank	onset_abs	duration
0	0.12492704391479492	stim	0		10.0					58.18658518791199	0.08323812484741211
0	0.1987290382385254	response	0	space						58.26038718223572	
1	0.20816516876220703	stim	0		121.0					58.2698233127594	1.007232904434204
1	1.2153980731964111	stim	1		120.0					59.2770562171936	0.9995250701904297
1	1.4489071369171143	response	1	space						59.51056528091431	
1	1.757045030593872	response	1	space						59.818703174591064	
2	2.214923143386841	fix_pre	0		49.0	0.0	2.5	/experiments/knapen_aot/videos/S_yt-06XMUn9DTKc_35.mp4	0.0	60.27658128738403	0.4098548889160156
2	2.6151411533355713	response	0	space		0.0	2.5	/experiments/knapen_aot/videos/S_yt-06XMUn9DTKc_35.mp4	0.0	60.676799297332764	
2	2.6247780323028564	movie	1		299.0	0.0	2.5	/experiments/knapen_aot/videos/S_yt-06XMUn9DTKc_35.mp4	0.0	60.68643617630005	2.506843090057373
2	2.7636101245880127	response	1	2		0.0	2.5	/experiments/knapen_aot/videos/S_yt-06XMUn9DTKc_35.mp4	0.0	60.825268268585205	
2	5.1316211223602295	fix_post	2		12.0	0.0	2.5	/experiments/knapen_aot/videos/S_yt-06XMUn9DTKc_35.mp4	0.0	63.19327926635742	0.09998297691345215
3	5.231604099273682	fix_pre	0		26.0	1.0	2.5	/experiments/knapen_aot/videos/R_S_ILSVRC2015_train_00278004.mp4	0.0	63.293262243270874	0.21668100357055664
3	5.439979076385498	response	0	2		1.0	2.5	/experiments/knapen_aot/videos/R_S_ILSVRC2015_train_00278004.mp4	0.0	63.50163722038269	
3	5.448285102844238	movie	1		301.0	1.0	2.5	/experiments/knapen_aot/videos/R_S_ILSVRC2015_train_00278004.mp4	0.0	63.50994324684143	2.508375883102417
3	7.956660985946655	fix_post	2		12.0	1.0	2.5	/experiments/knapen_aot/videos/R_S_ILSVRC2015_train_00278004.mp4	0.0	66.01831912994385	0.10006213188171387
4	8.05672311782837	fix_pre	0		29.0	2.0	2.5	/experiments/knapen_aot/videos/R_S_comp_A103_C002_0205DG_v12_SDR_FINAL_20180706_SDR_2K_AVC.mp4	0.0	66.11838126182556	0.24158096313476562
4	8.290038108825684	response	0	2		2.0	2.5	/experiments/knapen_aot/videos/R_S_comp_A103_C002_0205DG_v12_SDR_FINAL_20180706_SDR_2K_AVC.mp4	0.0	66.35169625282288	
4	8.298304080963135	movie	1		168.0	2.0	2.5	/experiments/knapen_aot/videos/R_S_comp_A103_C002_0205DG_v12_SDR_FINAL_20180706_SDR_2K_AVC.mp4	0.0	66.35996222496033	2.508336067199707
4	10.806640148162842	fix_post	2		12.0	2.0	2.5	/experiments/knapen_aot/videos/R_S_comp_A103_C002_0205DG_v12_SDR_FINAL_20180706_SDR_2K_AVC.mp4	0.0	68.86829829216003	0.09995293617248535
5	10.906593084335327	fix_pre	0		21.0	3.0	2.5	/experiments/knapen_aot/videos/R_S_yt-14tjqjjjAEI_15.mp4	0.0	68.96825122833252	0.17503690719604492
5	11.0734121799469	response	0	2		3.0	2.5	/experiments/knapen_aot/videos/R_S_yt-14tjqjjjAEI_15.mp4	0.0	69.13507032394409	
5	11.081629991531372	movie	1		301.0	3.0	2.5	/experiments/knapen_aot/videos/R_S_yt-14tjqjjjAEI_15.mp4	0.0	69.14328813552856	2.508362054824829
5	13.589992046356201	fix_post	2		12.0	3.0	2.5	/experiments/knapen_aot/videos/R_S_yt-14tjqjjjAEI_15.mp4	0.0	71.6516501903534	0.09994101524353027
6	13.689933061599731	fix_pre	0		14.0	4.0	2.5	/experiments/knapen_aot/videos/R_S_yt-PREz5XiiXg0_107.mp4	0.0	71.75159120559692	0.11665511131286621
6	13.798396110534668	response	0	2		4.0	2.5	/experiments/knapen_aot/videos/R_S_yt-PREz5XiiXg0_107.mp4	0.0	71.86005425453186	
6	13.806588172912598	movie	1		301.0	4.0	2.5	/experiments/knapen_aot/videos/R_S_yt-PREz5XiiXg0_107.mp4	0.0	71.86824631690979	2.5083489418029785
6	16.314937114715576	fix_post	2		12.0	4.0	2.5	/experiments/knapen_aot/videos/R_S_yt-PREz5XiiXg0_107.mp4	0.0	74.37659525871277	0.1002659797668457
7	16.415203094482422	fix_pre	0		23.0	5.0	2.5	/experiments/knapen_aot/videos/R_S_flickr-clarkstonscamp-4863427159_1.mp4	0.0	74.47686123847961	0.19136905670166016
7	16.598371028900146	response	0	2		5.0	2.5	/experiments/knapen_aot/videos/R_S_flickr-clarkstonscamp-4863427159_1.mp4	0.0	74.66002917289734	
7	16.606572151184082	movie	1		301.0	5.0	2.5	/experiments/knapen_aot/videos/R_S_flickr-clarkstonscamp-4863427159_1.mp4	0.0	74.66823029518127	2.50849986076355
7	19.115072011947632	fix_post	2		12.0	5.0	2.5	/experiments/knapen_aot/videos/R_S_flickr-clarkstonscamp-4863427159_1.mp4	0.0	77.17673015594482	0.09988212585449219
8	19.214954137802124	fix_pre	0		24.0	6.0	2.5	/experiments/knapen_aot/videos/S_yt-xQPKYWDRy2A_491.mp4	0.0	77.27661228179932	0.1999199390411377
8	19.40670609474182	response	0	2		6.0	2.5	/experiments/knapen_aot/videos/S_yt-xQPKYWDRy2A_491.mp4	0.0	77.46836423873901	
8	19.41487407684326	movie	1		301.0	6.0	2.5	/experiments/knapen_aot/videos/S_yt-xQPKYWDRy2A_491.mp4	0.0	77.47653222084045	2.508418083190918
8	21.92329216003418	fix_post	2		12.0	6.0	2.5	/experiments/knapen_aot/videos/S_yt-xQPKYWDRy2A_491.mp4	0.0	79.98495030403137	0.09996795654296875
9	22.02326011657715	fix_pre	0		15.0	7.0	2.5	blank	1.0	80.08491826057434	0.12498092651367188
9	22.13252305984497	response	0	2		7.0	2.5	blank	1.0	80.19418120384216	
9	22.14824104309082	movie	1		301.0	7.0	2.5	blank	1.0	80.20989918708801	2.5083320140838623
9	24.656573057174683	fix_post	2		12.0	7.0	2.5	blank	1.0	82.71823120117188	0.10016393661499023
10	24.756736993789673	fix_pre	0		35.0	8.0	2.5	/experiments/knapen_aot/videos/S_yt-yXJr3FR2xrM_27.mp4	0.0	82.81839513778687	0.29145216941833496
10	25.03246307373047	response	0	2		8.0	2.5	/experiments/knapen_aot/videos/S_yt-yXJr3FR2xrM_27.mp4	0.0	83.09412121772766	
10	25.048189163208008	movie	1		301.0	8.0	2.5	/experiments/knapen_aot/videos/S_yt-yXJr3FR2xrM_27.mp4	0.0	83.1098473072052	2.5084569454193115
10	27.55664610862732	fix_post	2		12.0	8.0	2.5	/experiments/knapen_aot/videos/S_yt-yXJr3FR2xrM_27.mp4	0.0	85.61830425262451	0.0999000072479248
11	27.656546115875244	fix_pre	0		28.0	9.0	2.5	/experiments/knapen_aot/videos/R_S_ILSVRC2015_train_00652001.mp4	0.0	85.71820425987244	0.23332595825195312
11	27.881770133972168	response	0	2		9.0	2.5	/experiments/knapen_aot/videos/R_S_ILSVRC2015_train_00652001.mp4	0.0	85.94342827796936	
11	27.889872074127197	movie	1		301.0	9.0	2.5	/experiments/knapen_aot/videos/R_S_ILSVRC2015_train_00652001.mp4	0.0	85.95153021812439	2.508539915084839
11	30.398411989212036	fix_post	2		12.0	9.0	2.5	/experiments/knapen_aot/videos/R_S_ILSVRC2015_train_00652001.mp4	0.0	88.46007013320923	0.09980607032775879
11	30.481653213500977	response	2	2		9.0	2.5	/experiments/knapen_aot/videos/R_S_ILSVRC2015_train_00652001.mp4	0.0	88.54331135749817	
12	30.498218059539795	fix_pre	0		49.0	10.0	2.5	/experiments/knapen_aot/videos/S_comp_DB_D002_C003_PSNK_v04_SDR_PS_20180914_SDR_2K_AVC.mp4	0.0	88.55987620353699	0.40831995010375977
12	30.898234128952026	response	0	2		10.0	2.5	/experiments/knapen_aot/videos/S_comp_DB_D002_C003_PSNK_v04_SDR_PS_20180914_SDR_2K_AVC.mp4	0.0	88.95989227294922	
12	30.906538009643555	movie	1		165.0	10.0	2.5	/experiments/knapen_aot/videos/S_comp_DB_D002_C003_PSNK_v04_SDR_PS_20180914_SDR_2K_AVC.mp4	0.0	88.96819615364075	2.5085160732269287
12	33.41505408287048	fix_post	2		12.0	10.0	2.5	/experiments/knapen_aot/videos/S_comp_DB_D002_C003_PSNK_v04_SDR_PS_20180914_SDR_2K_AVC.mp4	0.0	91.47671222686768	0.09981298446655273
13	33.514867067337036	fix_pre	0		14.0	11.0	2.5	/experiments/knapen_aot/videos/R_S_yt-mmvWYAttrIw_2.mp4	0.0	91.57652521133423	0.11659097671508789
13	33.62329721450806	response	0	2		11.0	2.5	/experiments/knapen_aot/videos/R_S_yt-mmvWYAttrIw_2.mp4	0.0	91.68495535850525	
13	33.631458044052124	movie	1		301.0	11.0	2.5	/experiments/knapen_aot/videos/R_S_yt-mmvWYAttrIw_2.mp4	0.0	91.69311618804932	2.5083889961242676
13	36.13984704017639	fix_post	2		12.0	11.0	2.5	/experiments/knapen_aot/videos/R_S_yt-mmvWYAttrIw_2.mp4	0.0	94.20150518417358	0.10011005401611328
14	36.239957094192505	fix_pre	0		31.0	12.0	2.5	/experiments/knapen_aot/videos/R_S_b1-3.mp4	0.0	94.3016152381897	0.25815892219543457
14	36.482407093048096	response	0	2		12.0	2.5	/experiments/knapen_aot/videos/R_S_b1-3.mp4	0.0	94.54406523704529	
14	36.49811601638794	movie	1		167.0	12.0	2.5	/experiments/knapen_aot/videos/R_S_b1-3.mp4	0.0	94.55977416038513	2.508397102355957
14	39.0065131187439	fix_post	2		12.0	12.0	2.5	/experiments/knapen_aot/videos/R_S_b1-3.mp4	0.0	97.06817126274109	0.09998106956481934
15	39.106494188308716	fix_pre	0		4.0	13.0	2.5	blank	1.0	97.16815233230591	0.0332949161529541
15	39.12440800666809	response	0	2		13.0	2.5	blank	1.0	97.18606615066528	
15	39.13978910446167	movie	1		301.0	13.0	2.5	blank	1.0	97.20144724845886	2.5083069801330566
15	41.23153519630432	response	1	2		13.0	2.5	blank	1.0	99.29319334030151	
15	41.64809608459473	fix_post	2		12.0	13.0	2.5	blank	1.0	99.70975422859192	0.10005593299865723
16	41.748152017593384	fix_pre	0		25.0	14.0	2.5	/experiments/knapen_aot/videos/S_yt-2pRKCSgdXXU_30.mp4	0.0	99.80981016159058	0.20952415466308594
16	41.948281049728394	response	0	2		14.0	2.5	/experiments/knapen_aot/videos/S_yt-2pRKCSgdXXU_30.mp4	0.0	100.00993919372559	
16	41.95767617225647	movie	1		301.0	14.0	2.5	/experiments/knapen_aot/videos/S_yt-2pRKCSgdXXU_30.mp4	0.0	100.01933431625366	2.5071909427642822
16	44.46486711502075	fix_post	2		12.0	14.0	2.5	/experiments/knapen_aot/videos/S_yt-2pRKCSgdXXU_30.mp4	0.0	102.52652525901794	0.09998106956481934
17	44.56484818458557	fix_pre	0		16.0	15.0	2.5	/experiments/knapen_aot/videos/S_ILSVRC2015_train_00414000.mp4	0.0	102.62650632858276	0.13325786590576172
17	44.68985605239868	response	0	2		15.0	2.5	/experiments/knapen_aot/videos/S_ILSVRC2015_train_00414000.mp4	0.0	102.75151419639587	
17	44.69810605049133	movie	1		301.0	15.0	2.5	/experiments/knapen_aot/videos/S_ILSVRC2015_train_00414000.mp4	0.0	102.75976419448853	2.5084481239318848
17	47.20655417442322	fix_post	2		12.0	15.0	2.5	/experiments/knapen_aot/videos/S_ILSVRC2015_train_00414000.mp4	0.0	105.26821231842041	0.0999150276184082
18	47.306469202041626	fix_pre	0		1.0	16.0	2.5	/experiments/knapen_aot/videos/R_S_wc-Mf8SQpviaD6D_17.mp4	0.0	105.36812734603882	0.00833892822265625
18	47.29946303367615	response	0	2		16.0	2.5	/experiments/knapen_aot/videos/R_S_wc-Mf8SQpviaD6D_17.mp4	0.0	105.36112117767334	
18	47.31480813026428	movie	1		169.0	16.0	2.5	/experiments/knapen_aot/videos/R_S_wc-Mf8SQpviaD6D_17.mp4	0.0	105.37646627426147	2.5083439350128174
18	49.8231520652771	fix_post	2		12.0	16.0	2.5	/experiments/knapen_aot/videos/R_S_wc-Mf8SQpviaD6D_17.mp4	0.0	107.88481020927429	0.09994697570800781
18	49.849234104156494	response	2	2		16.0	2.5	/experiments/knapen_aot/videos/R_S_wc-Mf8SQpviaD6D_17.mp4	0.0	107.91089224815369	
19	49.92309904098511	fix_pre	0		87.0	17.0	2.5	/experiments/knapen_aot/videos/R_S_yt-IX6uxR5DSKk_2.mp4	0.0	107.9847571849823	0.724998950958252
19	50.63986921310425	response	0	2		17.0	2.5	/experiments/knapen_aot/videos/R_S_yt-IX6uxR5DSKk_2.mp4	0.0	108.70152735710144	
19	50.64809799194336	movie	1		301.0	17.0	2.5	/experiments/knapen_aot/videos/R_S_yt-IX6uxR5DSKk_2.mp4	0.0	108.70975613594055	2.5083751678466797
19	53.15647315979004	fix_post	2		12.0	17.0	2.5	/experiments/knapen_aot/videos/R_S_yt-IX6uxR5DSKk_2.mp4	0.0	111.21813130378723	0.09998202323913574
20	53.256455183029175	fix_pre	0		20.0	18.0	2.5	/experiments/knapen_aot/videos/R_S_yt-1CV2cYtUlxE_57.mp4	0.0	111.31811332702637	0.16652488708496094
20	53.41487908363342	response	0	2		18.0	2.5	/experiments/knapen_aot/videos/R_S_yt-1CV2cYtUlxE_57.mp4	0.0	111.47653722763062	
20	53.422980070114136	movie	1		300.0	18.0	2.5	/experiments/knapen_aot/videos/R_S_yt-1CV2cYtUlxE_57.mp4	0.0	111.48463821411133	2.5084099769592285
20	53.92310810089111	response	1	2		18.0	2.5	/experiments/knapen_aot/videos/R_S_yt-1CV2cYtUlxE_57.mp4	0.0	111.9847662448883	
20	55.931390047073364	fix_post	2		12.0	18.0	2.5	/experiments/knapen_aot/videos/R_S_yt-1CV2cYtUlxE_57.mp4	0.0	113.99304819107056	0.1000370979309082
21	56.03142714500427	fix_pre	0		24.0	19.0	2.5	/experiments/knapen_aot/videos/R_S_yt-9EnchawJ3pA_90.mp4	0.0	114.09308528900146	0.19990992546081543
21	56.22313904762268	response	0	2		19.0	2.5	/experiments/knapen_aot/videos/R_S_yt-9EnchawJ3pA_90.mp4	0.0	114.28479719161987	
21	56.23133707046509	movie	1		301.0	19.0	2.5	/experiments/knapen_aot/videos/R_S_yt-9EnchawJ3pA_90.mp4	0.0	114.29299521446228	2.5083940029144287
21	58.73973107337952	fix_post	2		12.0	19.0	2.5	/experiments/knapen_aot/videos/R_S_yt-9EnchawJ3pA_90.mp4	0.0	116.80138921737671	0.09997892379760742
22	58.839709997177124	fix_pre	0		36.0	20.0	2.5	blank	1.0	116.90136814117432	0.3000030517578125
22	59.13154315948486	response	0	2		20.0	2.5	blank	1.0	117.19320130348206	
22	59.13971304893494	movie	1		301.0	20.0	2.5	blank	1.0	117.20137119293213	2.5083560943603516
22	61.64806914329529	fix_post	2		12.0	20.0	2.5	blank	1.0	119.70972728729248	0.09997391700744629
23	61.748043060302734	fix_pre	0		19.0	21.0	2.5	/experiments/knapen_aot/videos/R_S_ILSVRC2015_train_00479001.mp4	0.0	119.80970120429993	0.15836405754089355
23	61.8981511592865	response	0	2		21.0	2.5	/experiments/knapen_aot/videos/R_S_ILSVRC2015_train_00479001.mp4	0.0	119.95980930328369	
23	61.90640711784363	movie	1		301.0	21.0	2.5	/experiments/knapen_aot/videos/R_S_ILSVRC2015_train_00479001.mp4	0.0	119.96806526184082	2.508296012878418
23	64.41470313072205	fix_post	2		12.0	21.0	2.5	/experiments/knapen_aot/videos/R_S_ILSVRC2015_train_00479001.mp4	0.0	122.47636127471924	0.10001206398010254
24	64.51471519470215	fix_pre	0		32.0	22.0	2.5	/experiments/knapen_aot/videos/R_S_yt-M8wvzt_BMXM_173.mp4	0.0	122.57637333869934	0.2666289806365967
24	64.7731339931488	response	0	2		22.0	2.5	/experiments/knapen_aot/videos/R_S_yt-M8wvzt_BMXM_173.mp4	0.0	122.834792137146	
24	64.78134417533875	movie	1		301.0	22.0	2.5	/experiments/knapen_aot/videos/R_S_yt-M8wvzt_BMXM_173.mp4	0.0	122.84300231933594	2.5084049701690674
24	67.28974914550781	fix_post	2		12.0	22.0	2.5	/experiments/knapen_aot/videos/R_S_yt-M8wvzt_BMXM_173.mp4	0.0	125.351407289505	0.09997296333312988
25	67.38972210884094	fix_pre	0		27.0	23.0	2.5	/experiments/knapen_aot/videos/R_S_yt-hekMMCluhnU_18.mp4	0.0	125.45138025283813	0.22496795654296875
25	67.60648322105408	response	0	2		23.0	2.5	/experiments/knapen_aot/videos/R_S_yt-hekMMCluhnU_18.mp4	0.0	125.66814136505127	
25	67.61469006538391	movie	1		301.0	23.0	2.5	/experiments/knapen_aot/videos/R_S_yt-hekMMCluhnU_18.mp4	0.0	125.6763482093811	2.5084829330444336
25	70.12317299842834	fix_post	2		12.0	23.0	2.5	/experiments/knapen_aot/videos/R_S_yt-hekMMCluhnU_18.mp4	0.0	128.18483114242554	0.09988713264465332
26	70.223060131073	fix_pre	0		88.0	24.0	2.5	/experiments/knapen_aot/videos/S_yt-mQRzWCcKOR8_28.mp4	0.0	128.2847182750702	0.7343010902404785
26	70.94809317588806	response	0	2		24.0	2.5	/experiments/knapen_aot/videos/S_yt-mQRzWCcKOR8_28.mp4	0.0	129.00975131988525	
26	70.95736122131348	movie	1		301.0	24.0	2.5	/experiments/knapen_aot/videos/S_yt-mQRzWCcKOR8_28.mp4	0.0	129.01901936531067	2.507309913635254
26	73.46467113494873	fix_post	2		12.0	24.0	2.5	/experiments/knapen_aot/videos/S_yt-mQRzWCcKOR8_28.mp4	0.0	131.52632927894592	0.09998798370361328
27	73.56465911865234	fix_pre	0		25.0	25.0	2.5	/experiments/knapen_aot/videos/S_I003_C011_SDR_2K_AVC.mp4	0.0	131.62631726264954	0.20822501182556152
27	73.76482105255127	response	0	2		25.0	2.5	/experiments/knapen_aot/videos/S_I003_C011_SDR_2K_AVC.mp4	0.0	131.82647919654846	
27	73.7728841304779	movie	1		173.0	25.0	2.5	/experiments/knapen_aot/videos/S_I003_C011_SDR_2K_AVC.mp4	0.0	131.8345422744751	2.5084469318389893
27	76.2813310623169	fix_post	2		12.0	25.0	2.5	/experiments/knapen_aot/videos/S_I003_C011_SDR_2K_AVC.mp4	0.0	134.3429892063141	0.10001015663146973
28	76.38134121894836	fix_pre	0		33.0	26.0	2.5	blank	1.0	134.44299936294556	0.27497291564941406
28	76.6480782032013	response	0	2		26.0	2.5	blank	1.0	134.7097363471985	
28	76.65631413459778	movie	1		301.0	26.0	2.5	blank	1.0	134.71797227859497	2.5083420276641846
28	79.16465616226196	fix_post	2		12.0	26.0	2.5	blank	1.0	137.22631430625916	0.0999908447265625
29	79.26464700698853	fix_pre	0		56.0	27.0	2.5	/experiments/knapen_aot/videos/R_S_yt-AbJBxqEYoMg_27.mp4	0.0	137.32630515098572	0.46661806106567383
29	79.72311210632324	response	0	2		27.0	2.5	/experiments/knapen_aot/videos/R_S_yt-AbJBxqEYoMg_27.mp4	0.0	137.78477025032043	
29	79.7312650680542	movie	1		301.0	27.0	2.5	/experiments/knapen_aot/videos/R_S_yt-AbJBxqEYoMg_27.mp4	0.0	137.7929232120514	2.508474111557007
29	82.2397391796112	fix_post	2		12.0	27.0	2.5	/experiments/knapen_aot/videos/R_S_yt-AbJBxqEYoMg_27.mp4	0.0	140.3013973236084	0.10002493858337402
30	82.33976411819458	fix_pre	0		42.0	28.0	2.5	/experiments/knapen_aot/videos/R_S_yt-Co4dzHwupRM_18.mp4	0.0	140.40142226219177	0.349869966506958
30	82.68142914772034	response	0	2		28.0	2.5	/experiments/knapen_aot/videos/R_S_yt-Co4dzHwupRM_18.mp4	0.0	140.74308729171753	
30	82.68963408470154	movie	1		301.0	28.0	2.5	/experiments/knapen_aot/videos/R_S_yt-Co4dzHwupRM_18.mp4	0.0	140.75129222869873	2.508341073989868
30	85.1979751586914	fix_post	2		12.0	28.0	2.5	/experiments/knapen_aot/videos/R_S_yt-Co4dzHwupRM_18.mp4	0.0	143.2596333026886	0.09999585151672363
31	85.29797101020813	fix_pre	0		42.0	29.0	2.5	/experiments/knapen_aot/videos/R_S_b2-4.mp4	0.0	143.35962915420532	0.34998106956481934
31	85.63978719711304	response	0	2		29.0	2.5	/experiments/knapen_aot/videos/R_S_b2-4.mp4	0.0	143.70144534111023	
31	85.64795207977295	movie	1		166.0	29.0	2.5	/experiments/knapen_aot/videos/R_S_b2-4.mp4	0.0	143.70961022377014	2.5083460807800293
31	88.15629816055298	fix_post	2		12.0	29.0	2.5	/experiments/knapen_aot/videos/R_S_b2-4.mp4	0.0	146.21795630455017	0.09998703002929688
32	88.25628519058228	fix_pre	0		46.0	30.0	2.5	/experiments/knapen_aot/videos/S_yt-ZtS7ZrJ_rtk_525.mp4	0.0	146.31794333457947	0.38333797454833984
32	88.63128519058228	response	0	2		30.0	2.5	/experiments/knapen_aot/videos/S_yt-ZtS7ZrJ_rtk_525.mp4	0.0	146.69294333457947	
32	88.63962316513062	movie	1		301.0	30.0	2.5	/experiments/knapen_aot/videos/S_yt-ZtS7ZrJ_rtk_525.mp4	0.0	146.7012813091278	2.508373975753784
32	91.1479971408844	fix_post	2		12.0	30.0	2.5	/experiments/knapen_aot/videos/S_yt-ZtS7ZrJ_rtk_525.mp4	0.0	149.2096552848816	0.09994196891784668
33	91.24793910980225	fix_pre	0		42.0	31.0	2.5	/experiments/knapen_aot/videos/R_S_yt-SCzpSxzt0TA_46.mp4	0.0	149.30959725379944	0.34987306594848633
33	91.58214020729065	response	0	2		31.0	2.5	/experiments/knapen_aot/videos/R_S_yt-SCzpSxzt0TA_46.mp4	0.0	149.64379835128784	
33	91.59781217575073	movie	1		301.0	31.0	2.5	/experiments/knapen_aot/videos/R_S_yt-SCzpSxzt0TA_46.mp4	0.0	149.65947031974792	2.5084760189056396
33	94.10628819465637	fix_post	2		12.0	31.0	2.5	/experiments/knapen_aot/videos/R_S_yt-SCzpSxzt0TA_46.mp4	0.0	152.16794633865356	0.09994983673095703
34	94.20623803138733	fix_pre	0		45.0	32.0	2.5	/experiments/knapen_aot/videos/S_yt-0lfSyC79n14_7.mp4	0.0	152.26789617538452	0.3760361671447754
34	94.57304120063782	response	0	2		32.0	2.5	/experiments/knapen_aot/videos/S_yt-0lfSyC79n14_7.mp4	0.0	152.634699344635	
34	94.5822741985321	movie	1		301.0	32.0	2.5	/experiments/knapen_aot/videos/S_yt-0lfSyC79n14_7.mp4	0.0	152.6439323425293	2.507396936416626
34	97.08967113494873	fix_post	2		12.0	32.0	2.5	/experiments/knapen_aot/videos/S_yt-0lfSyC79n14_7.mp4	0.0	155.15132927894592	0.09982991218566895
35	97.1895010471344	fix_pre	0		27.0	33.0	2.5	blank	1.0	155.2511591911316	0.22595000267028809
35	97.40637707710266	response	0	2		33.0	2.5	blank	1.0	155.46803522109985	
35	97.41545104980469	movie	1		301.0	33.0	2.5	blank	1.0	155.47710919380188	2.5074591636657715
35	99.92291021347046	fix_post	2		12.0	33.0	2.5	blank	1.0	157.98456835746765	0.1000068187713623
36	100.02291703224182	fix_pre	0		23.0	34.0	2.5	/experiments/knapen_aot/videos/R_S_yt-2y6A9DJPsDU_65.mp4	0.0	158.084575176239	0.19167399406433105
36	100.19891214370728	response	0	2		34.0	2.5	/experiments/knapen_aot/videos/R_S_yt-2y6A9DJPsDU_65.mp4	0.0	158.26057028770447	
36	100.21459102630615	movie	1		301.0	34.0	2.5	/experiments/knapen_aot/videos/R_S_yt-2y6A9DJPsDU_65.mp4	0.0	158.27624917030334	2.5083160400390625
36	102.72290706634521	fix_post	2		12.0	34.0	2.5	/experiments/knapen_aot/videos/R_S_yt-2y6A9DJPsDU_65.mp4	0.0	160.7845652103424	0.10000801086425781
37	102.82291507720947	fix_pre	0		33.0	35.0	2.5	/experiments/knapen_aot/videos/S_comp_LA_A008_C004_ALTB_ED_FROM_FLAME_RETIME_v46_SDR_PS_20180917_SDR_2K_AVC.mp4	0.0	160.88457322120667	0.27494311332702637
37	103.08967208862305	response	0	2		35.0	2.5	/experiments/knapen_aot/videos/S_comp_LA_A008_C004_ALTB_ED_FROM_FLAME_RETIME_v46_SDR_PS_20180917_SDR_2K_AVC.mp4	0.0	161.15133023262024	
37	103.0978581905365	movie	1		167.0	35.0	2.5	/experiments/knapen_aot/videos/S_comp_LA_A008_C004_ALTB_ED_FROM_FLAME_RETIME_v46_SDR_PS_20180917_SDR_2K_AVC.mp4	0.0	161.1595163345337	2.5083467960357666
37	105.60620498657227	fix_post	2		12.0	35.0	2.5	/experiments/knapen_aot/videos/S_comp_LA_A008_C004_ALTB_ED_FROM_FLAME_RETIME_v46_SDR_PS_20180917_SDR_2K_AVC.mp4	0.0	163.66786313056946	0.09999704360961914
38	105.70620203018188	fix_pre	0		31.0	36.0	2.5	/experiments/knapen_aot/videos/S_yt-zh2yLr-o_8A_953.mp4	0.0	163.76786017417908	0.2583160400390625
38	105.95632410049438	response	0	2		36.0	2.5	/experiments/knapen_aot/videos/S_yt-zh2yLr-o_8A_953.mp4	0.0	164.01798224449158	
38	105.96451807022095	movie	1		301.0	36.0	2.5	/experiments/knapen_aot/videos/S_yt-zh2yLr-o_8A_953.mp4	0.0	164.02617621421814	2.508419990539551
38	108.4729380607605	fix_post	2		12.0	36.0	2.5	/experiments/knapen_aot/videos/S_yt-zh2yLr-o_8A_953.mp4	0.0	166.5345962047577	0.09993195533752441
39	108.57287001609802	fix_pre	0		67.0	37.0	2.5	/experiments/knapen_aot/videos/S_yt-Pc1ZlCvsPpc_5.mp4	0.0	166.63452816009521	0.5583209991455078
39	109.12298607826233	response	0	2		37.0	2.5	/experiments/knapen_aot/videos/S_yt-Pc1ZlCvsPpc_5.mp4	0.0	167.18464422225952	
39	109.13119101524353	movie	1		301.0	37.0	2.5	/experiments/knapen_aot/videos/S_yt-Pc1ZlCvsPpc_5.mp4	0.0	167.19284915924072	2.5083281993865967
39	111.63951921463013	fix_post	2		12.0	37.0	2.5	/experiments/knapen_aot/videos/S_yt-Pc1ZlCvsPpc_5.mp4	0.0	169.70117735862732	0.1001119613647461
40	111.73963117599487	fix_pre	0		30.0	38.0	2.5	/experiments/knapen_aot/videos/S_flickr-clarkstonscamp-4863427159_1.mp4	0.0	169.80128931999207	0.24985885620117188
40	111.98127317428589	response	0	2		38.0	2.5	/experiments/knapen_aot/videos/S_flickr-clarkstonscamp-4863427159_1.mp4	0.0	170.04293131828308	
40	111.98949003219604	movie	1		301.0	38.0	2.5	/experiments/knapen_aot/videos/S_flickr-clarkstonscamp-4863427159_1.mp4	0.0	170.05114817619324	2.5086071491241455
40	114.49809718132019	fix_post	2		12.0	38.0	2.5	/experiments/knapen_aot/videos/S_flickr-clarkstonscamp-4863427159_1.mp4	0.0	172.55975532531738	0.09976983070373535
41	114.59786701202393	fix_pre	0		71.0	39.0	2.5	/experiments/knapen_aot/videos/S_2RTDFkjD6vI_93.mp4	0.0	172.65952515602112	0.591590166091919
41	115.1737711429596	response	0	2		39.0	2.5	/experiments/knapen_aot/videos/S_2RTDFkjD6vI_93.mp4	0.0	173.2354292869568	
41	115.18945717811584	movie	1		301.0	39.0	2.5	/experiments/knapen_aot/videos/S_2RTDFkjD6vI_93.mp4	0.0	173.25111532211304	2.5087008476257324
41	117.69815802574158	fix_post	2		12.0	39.0	2.5	/experiments/knapen_aot/videos/S_2RTDFkjD6vI_93.mp4	0.0	175.75981616973877	0.09971404075622559
42	117.7978720664978	fix_pre	0		39.0	40.0	2.5	blank	1.0	175.859530210495	0.3257911205291748
42	118.11460614204407	response	0	2		40.0	2.5	blank	1.0	176.17626428604126	
42	118.12366318702698	movie	1		301.0	40.0	2.5	blank	1.0	176.18532133102417	2.5074808597564697
42	120.63114404678345	fix_post	2		12.0	40.0	2.5	blank	1.0	178.69280219078064	0.09995913505554199
43	120.73110318183899	fix_pre	0		64.0	41.0	2.5	/experiments/knapen_aot/videos/R_S_yt-mQRzWCcKOR8_28.mp4	0.0	178.79276132583618	0.5332739353179932
43	121.25626611709595	response	0	2		41.0	2.5	/experiments/knapen_aot/videos/R_S_yt-mQRzWCcKOR8_28.mp4	0.0	179.31792426109314	
43	121.26437711715698	movie	1		301.0	41.0	2.5	/experiments/knapen_aot/videos/R_S_yt-mQRzWCcKOR8_28.mp4	0.0	179.32603526115417	2.5084269046783447
43	123.77280402183533	fix_post	2		12.0	41.0	2.5	/experiments/knapen_aot/videos/R_S_yt-mQRzWCcKOR8_28.mp4	0.0	181.83446216583252	0.09998202323913574
44	123.87278604507446	fix_pre	0		88.0	42.0	2.5	/experiments/knapen_aot/videos/S_bing-www_dailymotion_com_video_x64hzm7_8.mp4	0.0	181.93444418907166	0.7333471775054932
44	124.59786319732666	response	0	2		42.0	2.5	/experiments/knapen_aot/videos/S_bing-www_dailymotion_com_video_x64hzm7_8.mp4	0.0	182.65952134132385	
44	124.60613322257996	movie	1		168.0	42.0	2.5	/experiments/knapen_aot/videos/S_bing-www_dailymotion_com_video_x64hzm7_8.mp4	0.0	182.66779136657715	2.5084409713745117
44	127.11457419395447	fix_post	2		12.0	42.0	2.5	/experiments/knapen_aot/videos/S_bing-www_dailymotion_com_video_x64hzm7_8.mp4	0.0	185.17623233795166	0.09987688064575195
45	127.21445107460022	fix_pre	0		70.0	43.0	2.5	/experiments/knapen_aot/videos/R_S_yt-ayx4rU9bJrU_179.mp4	0.0	185.2761092185974	0.5833010673522949
45	127.78952217102051	response	0	2		43.0	2.5	/experiments/knapen_aot/videos/R_S_yt-ayx4rU9bJrU_179.mp4	0.0	185.8511803150177	
45	127.79775214195251	movie	1		301.0	43.0	2.5	/experiments/knapen_aot/videos/R_S_yt-ayx4rU9bJrU_179.mp4	0.0	185.8594102859497	2.5083460807800293
45	130.30609822273254	fix_post	2		12.0	43.0	2.5	/experiments/knapen_aot/videos/R_S_yt-ayx4rU9bJrU_179.mp4	0.0	188.36775636672974	0.10001397132873535
46	130.40611219406128	fix_pre	0		52.0	44.0	2.5	/experiments/knapen_aot/videos/R_S_yt-4-u4Fw_J_q8_45.mp4	0.0	188.46777033805847	0.4333159923553467
46	130.8311460018158	response	0	2		44.0	2.5	/experiments/knapen_aot/videos/R_S_yt-4-u4Fw_J_q8_45.mp4	0.0	188.892804145813	
46	130.83942818641663	movie	1		301.0	44.0	2.5	/experiments/knapen_aot/videos/R_S_yt-4-u4Fw_J_q8_45.mp4	0.0	188.90108633041382	2.508443832397461
46	133.3478720188141	fix_post	2		12.0	44.0	2.5	/experiments/knapen_aot/videos/R_S_yt-4-u4Fw_J_q8_45.mp4	0.0	191.40953016281128	0.09997105598449707
47	133.44784307479858	fix_pre	0		90.0	45.0	2.5	/experiments/knapen_aot/videos/S_yt-mMnlzv6cfH4_134.mp4	0.0	191.50950121879578	0.7499101161956787
47	134.18954300880432	response	0	2		45.0	2.5	/experiments/knapen_aot/videos/S_yt-mMnlzv6cfH4_134.mp4	0.0	192.2512011528015	
47	134.19775319099426	movie	1		301.0	45.0	2.5	/experiments/knapen_aot/videos/S_yt-mMnlzv6cfH4_134.mp4	0.0	192.25941133499146	2.5083398818969727
47	136.70609307289124	fix_post	2		12.0	45.0	2.5	/experiments/knapen_aot/videos/S_yt-mMnlzv6cfH4_134.mp4	0.0	194.76775121688843	0.1000051498413086
48	136.80609822273254	fix_pre	0		34.0	46.0	2.5	/experiments/knapen_aot/videos/S_yt-26009GpQuUg_3.mp4	0.0	194.86775636672974	0.28325486183166504
48	137.08119416236877	response	0	2		46.0	2.5	/experiments/knapen_aot/videos/S_yt-26009GpQuUg_3.mp4	0.0	195.14285230636597	
48	137.0893530845642	movie	1		301.0	46.0	2.5	/experiments/knapen_aot/videos/S_yt-26009GpQuUg_3.mp4	0.0	195.1510112285614	2.508389949798584
48	139.5977430343628	fix_post	2		12.0	46.0	2.5	/experiments/knapen_aot/videos/S_yt-26009GpQuUg_3.mp4	0.0	197.65940117835999	0.09996914863586426
49	139.69771218299866	fix_pre	0		66.0	47.0	2.5	/experiments/knapen_aot/videos/R_S_yt-LhP0mZ6xxIg_111.mp4	0.0	197.75937032699585	0.5506348609924316
49	140.23953104019165	response	0	2		47.0	2.5	/experiments/knapen_aot/videos/R_S_yt-LhP0mZ6xxIg_111.mp4	0.0	198.30118918418884	
49	140.2483470439911	movie	1		301.0	47.0	2.5	/experiments/knapen_aot/videos/R_S_yt-LhP0mZ6xxIg_111.mp4	0.0	198.31000518798828	2.50770902633667
49	142.75605607032776	fix_post	2		12.0	47.0	2.5	/experiments/knapen_aot/videos/R_S_yt-LhP0mZ6xxIg_111.mp4	0.0	200.81771421432495	0.100006103515625
50	142.85606217384338	fix_pre	0		39.0	48.0	2.5	blank	1.0	200.91772031784058	0.32500791549682617
50	143.17291903495789	response	0	2		48.0	2.5	blank	1.0	201.23457717895508	
50	143.1810700893402	movie	1		301.0	48.0	2.5	blank	1.0	201.2427282333374	2.508258104324341
50	145.68932819366455	fix_post	2		12.0	48.0	2.5	blank	1.0	203.75098633766174	0.10025382041931152
51	145.78958201408386	fix_pre	0		79.0	49.0	2.5	/experiments/knapen_aot/videos/R_S_yt-EuyfT0PuOoQ_91.mp4	0.0	203.85124015808105	0.6580891609191895
51	146.4394121170044	response	0	2		49.0	2.5	/experiments/knapen_aot/videos/R_S_yt-EuyfT0PuOoQ_91.mp4	0.0	204.5010702610016	
51	146.44767117500305	movie	1		301.0	49.0	2.5	/experiments/knapen_aot/videos/R_S_yt-EuyfT0PuOoQ_91.mp4	0.0	204.50932931900024	2.508363962173462
51	148.9560351371765	fix_post	2		12.0	49.0	2.5	/experiments/knapen_aot/videos/R_S_yt-EuyfT0PuOoQ_91.mp4	0.0	207.0176932811737	0.09993505477905273
52	149.05597019195557	fix_pre	0		38.0	50.0	2.5	/experiments/knapen_aot/videos/S_production_ID_4820868.mp4	0.0	207.11762833595276	0.3174159526824951
52	149.3645842075348	response	0	2		50.0	2.5	/experiments/knapen_aot/videos/S_production_ID_4820868.mp4	0.0	207.42624235153198	
52	149.37338614463806	movie	1		169.0	50.0	2.5	/experiments/knapen_aot/videos/S_production_ID_4820868.mp4	0.0	207.43504428863525	2.507720947265625
52	151.8811070919037	fix_post	2		12.0	50.0	2.5	/experiments/knapen_aot/videos/S_production_ID_4820868.mp4	0.0	209.94276523590088	0.09991097450256348
53	151.98101806640625	fix_pre	0		33.0	51.0	2.5	/experiments/knapen_aot/videos/S_pexels-anastasia-shuraeva-6014070.mp4	0.0	210.04267621040344	0.27496814727783203
53	152.24772310256958	response	0	2		51.0	2.5	/experiments/knapen_aot/videos/S_pexels-anastasia-shuraeva-6014070.mp4	0.0	210.30938124656677	
53	152.25598621368408	movie	1		188.0	51.0	2.5	/experiments/knapen_aot/videos/S_pexels-anastasia-shuraeva-6014070.mp4	0.0	210.31764435768127	2.5083727836608887
53	154.76435899734497	fix_post	2		12.0	51.0	2.5	/experiments/knapen_aot/videos/S_pexels-anastasia-shuraeva-6014070.mp4	0.0	212.82601714134216	0.100006103515625
54	154.8643651008606	fix_pre	0		32.0	52.0	2.5	/experiments/knapen_aot/videos/R_S_ILSVRC2015_train_00652001.mp4	0.0	212.9260232448578	0.26663804054260254
54	155.12281918525696	response	0	2		52.0	2.5	/experiments/knapen_aot/videos/R_S_ILSVRC2015_train_00652001.mp4	0.0	213.18447732925415	
54	155.1310031414032	movie	1		301.0	52.0	2.5	/experiments/knapen_aot/videos/R_S_ILSVRC2015_train_00652001.mp4	0.0	213.1926612854004	2.508344888687134
54	157.63934803009033	fix_post	2		12.0	52.0	2.5	/experiments/knapen_aot/videos/R_S_ILSVRC2015_train_00652001.mp4	0.0	215.70100617408752	0.09997916221618652
55	157.73932719230652	fix_pre	0		15.0	53.0	2.5	/experiments/knapen_aot/videos/R_S_ILSVRC2015_train_00363000.mp4	0.0	215.8009853363037	0.12500500679016113
55	157.85601902008057	response	0	2		53.0	2.5	/experiments/knapen_aot/videos/R_S_ILSVRC2015_train_00363000.mp4	0.0	215.91767716407776	
55	157.86433219909668	movie	1		301.0	53.0	2.5	/experiments/knapen_aot/videos/R_S_ILSVRC2015_train_00363000.mp4	0.0	215.92599034309387	2.5083348751068115
55	160.3726670742035	fix_post	2		12.0	53.0	2.5	/experiments/knapen_aot/videos/R_S_ILSVRC2015_train_00363000.mp4	0.0	218.43432521820068	0.1000070571899414
56	160.47267413139343	fix_pre	0		112.0	54.0	2.5	/experiments/knapen_aot/videos/R_S_yt-3V8US8ZD3NU_229.mp4	0.0	218.53433227539062	0.9333300590515137
56	161.39763116836548	response	0	2		54.0	2.5	/experiments/knapen_aot/videos/R_S_yt-3V8US8ZD3NU_229.mp4	0.0	219.45928931236267	
56	161.40600419044495	movie	1		301.0	54.0	2.5	/experiments/knapen_aot/videos/R_S_yt-3V8US8ZD3NU_229.mp4	0.0	219.46766233444214	2.5082969665527344
56	163.91430115699768	fix_post	2		12.0	54.0	2.5	/experiments/knapen_aot/videos/R_S_yt-3V8US8ZD3NU_229.mp4	0.0	221.97595930099487	0.10001206398010254
57	164.01431322097778	fix_pre	0		5.0	55.0	2.5	blank	1.0	222.07597136497498	0.04169583320617676
57	164.04775404930115	response	0	2		55.0	2.5	blank	1.0	222.10941219329834	
57	164.05600905418396	movie	1		301.0	55.0	2.5	blank	1.0	222.11766719818115	2.508334159851074
57	166.56434321403503	fix_post	2		12.0	55.0	2.5	blank	1.0	224.62600135803223	0.09999489784240723
58	166.66433811187744	fix_pre	0		46.0	56.0	2.5	/experiments/knapen_aot/videos/S_yt-EvKV7iY1_HM_193.mp4	0.0	224.72599625587463	0.3832979202270508
58	167.03941416740417	response	0	2		56.0	2.5	/experiments/knapen_aot/videos/S_yt-EvKV7iY1_HM_193.mp4	0.0	225.10107231140137	
58	167.0476360321045	movie	1		301.0	56.0	2.5	/experiments/knapen_aot/videos/S_yt-EvKV7iY1_HM_193.mp4	0.0	225.10929417610168	2.5083320140838623
58	169.55596804618835	fix_post	2		12.0	56.0	2.5	/experiments/knapen_aot/videos/S_yt-EvKV7iY1_HM_193.mp4	0.0	227.61762619018555	0.09999394416809082
59	169.65596199035645	fix_pre	0		24.0	57.0	2.5	/experiments/knapen_aot/videos/S_wc-1MzpHfRq1MUK_32.mp4	0.0	227.71762013435364	0.19992423057556152
59	169.84775304794312	response	0	2		57.0	2.5	/experiments/knapen_aot/videos/S_wc-1MzpHfRq1MUK_32.mp4	0.0	227.9094111919403	
59	169.855886220932	movie	1		301.0	57.0	2.5	/experiments/knapen_aot/videos/S_wc-1MzpHfRq1MUK_32.mp4	0.0	227.9175443649292	2.508370876312256
59	172.36425709724426	fix_post	2		12.0	57.0	2.5	/experiments/knapen_aot/videos/S_wc-1MzpHfRq1MUK_32.mp4	0.0	230.42591524124146	0.10001802444458008
60	172.46427512168884	fix_pre	0		113.0	58.0	2.5	/experiments/knapen_aot/videos/S_yt--v_iMUMMX6g_39.mp4	0.0	230.52593326568604	0.941612958908081
60	173.39773511886597	response	0	2		58.0	2.5	/experiments/knapen_aot/videos/S_yt--v_iMUMMX6g_39.mp4	0.0	231.45939326286316	
60	173.40588808059692	movie	1		301.0	58.0	2.5	/experiments/knapen_aot/videos/S_yt--v_iMUMMX6g_39.mp4	0.0	231.46754622459412	2.508310079574585
60	175.9141981601715	fix_post	2		12.0	58.0	2.5	/experiments/knapen_aot/videos/S_yt--v_iMUMMX6g_39.mp4	0.0	233.9758563041687	0.10010194778442383
61	176.01430010795593	fix_pre	0		120.0	59.0	2.5	/experiments/knapen_aot/videos/S_yt-b7bIulV49DQ_81.mp4	0.0	234.07595825195312	0.9998509883880615
61	177.00604510307312	response	0	2		59.0	2.5	/experiments/knapen_aot/videos/S_yt-b7bIulV49DQ_81.mp4	0.0	235.0677032470703	
61	177.014151096344	movie	1		301.0	59.0	2.5	/experiments/knapen_aot/videos/S_yt-b7bIulV49DQ_81.mp4	0.0	235.0758092403412	2.508481979370117
61	179.5226330757141	fix_post	2		12.0	59.0	2.5	/experiments/knapen_aot/videos/S_yt-b7bIulV49DQ_81.mp4	0.0	237.5842912197113	0.10022211074829102
62	179.6228551864624	fix_pre	0		27.0	60.0	2.5	/experiments/knapen_aot/videos/R_S_yt-kYMffy4hTMo_107.mp4	0.0	237.6845133304596	0.22473382949829102
62	179.83936500549316	response	0	2		60.0	2.5	/experiments/knapen_aot/videos/R_S_yt-kYMffy4hTMo_107.mp4	0.0	237.90102314949036	
62	179.8475890159607	movie	1		301.0	60.0	2.5	/experiments/knapen_aot/videos/R_S_yt-kYMffy4hTMo_107.mp4	0.0	237.90924715995789	2.5085220336914062
62	182.2393021583557	response	1	2		60.0	2.5	/experiments/knapen_aot/videos/R_S_yt-kYMffy4hTMo_107.mp4	0.0	240.3009603023529	
62	182.3561110496521	fix_post	2		12.0	60.0	2.5	/experiments/knapen_aot/videos/R_S_yt-kYMffy4hTMo_107.mp4	0.0	240.4177691936493	0.09973907470703125
63	182.45585012435913	fix_pre	0		58.0	61.0	2.5	blank	1.0	240.51750826835632	0.483381986618042
63	182.9309310913086	response	0	2		61.0	2.5	blank	1.0	240.9925892353058	
63	182.93923211097717	movie	1		301.0	61.0	2.5	blank	1.0	241.00089025497437	2.5083460807800293
63	185.4475781917572	fix_post	2		12.0	61.0	2.5	blank	1.0	243.5092363357544	0.10010290145874023
64	185.54768109321594	fix_pre	0		20.0	62.0	2.5	/experiments/knapen_aot/videos/R_S_ILSVRC2015_train_00697001.mp4	0.0	243.60933923721313	0.16652798652648926
64	185.70591020584106	response	0	2		62.0	2.5	/experiments/knapen_aot/videos/R_S_ILSVRC2015_train_00697001.mp4	0.0	243.76756834983826	
64	185.71420907974243	movie	1		301.0	62.0	2.5	/experiments/knapen_aot/videos/R_S_ILSVRC2015_train_00697001.mp4	0.0	243.77586722373962	2.5084030628204346
64	188.22261214256287	fix_post	2		12.0	62.0	2.5	/experiments/knapen_aot/videos/R_S_ILSVRC2015_train_00697001.mp4	0.0	246.28427028656006	0.10001993179321289
65	188.32263207435608	fix_pre	0		8.0	63.0	2.5	/experiments/knapen_aot/videos/R_S_Nh81j72Utbs_5.mp4	0.0	246.38429021835327	0.06657600402832031
65	188.38102412223816	response	0	2		63.0	2.5	/experiments/knapen_aot/videos/R_S_Nh81j72Utbs_5.mp4	0.0	246.44268226623535	
65	188.3892080783844	movie	1		301.0	63.0	2.5	/experiments/knapen_aot/videos/R_S_Nh81j72Utbs_5.mp4	0.0	246.4508662223816	2.508328914642334
65	190.89753699302673	fix_post	2		12.0	63.0	2.5	/experiments/knapen_aot/videos/R_S_Nh81j72Utbs_5.mp4	0.0	248.95919513702393	0.10001111030578613
65	190.96429204940796	response	2	2		63.0	2.5	/experiments/knapen_aot/videos/R_S_Nh81j72Utbs_5.mp4	0.0	249.02595019340515	
66	190.99754810333252	fix_pre	0		73.0	64.0	2.5	/experiments/knapen_aot/videos/S_pexels-anthony-shkraba-7569650.mp4	0.0	249.0592062473297	0.6083469390869141
66	191.5976231098175	response	0	2		64.0	2.5	/experiments/knapen_aot/videos/S_pexels-anthony-shkraba-7569650.mp4	0.0	249.6592812538147	
66	191.60589504241943	movie	1		186.0	64.0	2.5	/experiments/knapen_aot/videos/S_pexels-anthony-shkraba-7569650.mp4	0.0	249.66755318641663	2.5082991123199463
66	194.08095717430115	response	1	2		64.0	2.5	/experiments/knapen_aot/videos/S_pexels-anthony-shkraba-7569650.mp4	0.0	252.14261531829834	
66	194.11419415473938	fix_post	2		12.0	64.0	2.5	/experiments/knapen_aot/videos/S_pexels-anthony-shkraba-7569650.mp4	0.0	252.17585229873657	0.1000070571899414
67	194.21420121192932	fix_pre	0		100.0	65.0	2.5	/experiments/knapen_aot/videos/R_S_yt-HMAa2QbfFPI_216.mp4	0.0	252.2758593559265	0.8332929611206055
67	195.03937101364136	response	0	2		65.0	2.5	/experiments/knapen_aot/videos/R_S_yt-HMAa2QbfFPI_216.mp4	0.0	253.10102915763855	
67	195.04749417304993	movie	1		301.0	65.0	2.5	/experiments/knapen_aot/videos/R_S_yt-HMAa2QbfFPI_216.mp4	0.0	253.10915231704712	2.508368968963623
67	197.55586314201355	fix_post	2		12.0	65.0	2.5	/experiments/knapen_aot/videos/R_S_yt-HMAa2QbfFPI_216.mp4	0.0	255.61752128601074	0.10002589225769043
68	197.65588903427124	fix_pre	0		7.0	66.0	2.5	/experiments/knapen_aot/videos/S_yt-Fm97IY0Z2LU_110.mp4	0.0	255.71754717826843	0.058271169662475586
68	197.70598912239075	response	0	2		66.0	2.5	/experiments/knapen_aot/videos/S_yt-Fm97IY0Z2LU_110.mp4	0.0	255.76764726638794	
68	197.71416020393372	movie	1		301.0	66.0	2.5	/experiments/knapen_aot/videos/S_yt-Fm97IY0Z2LU_110.mp4	0.0	255.7758183479309	2.5083978176116943
68	200.2225580215454	fix_post	2		12.0	66.0	2.5	/experiments/knapen_aot/videos/S_yt-Fm97IY0Z2LU_110.mp4	0.0	258.2842161655426	0.09995412826538086
69	200.3225121498108	fix_pre	0		5.0	67.0	2.5	/experiments/knapen_aot/videos/S_yt-2y6A9DJPsDU_65.mp4	0.0	258.384170293808	0.0416719913482666
69	200.35596108436584	response	0	2		67.0	2.5	/experiments/knapen_aot/videos/S_yt-2y6A9DJPsDU_65.mp4	0.0	258.41761922836304	
69	200.36418414115906	movie	1		301.0	67.0	2.5	/experiments/knapen_aot/videos/S_yt-2y6A9DJPsDU_65.mp4	0.0	258.42584228515625	2.5083038806915283
69	202.8724880218506	fix_post	2		12.0	67.0	2.5	/experiments/knapen_aot/videos/S_yt-2y6A9DJPsDU_65.mp4	0.0	260.9341461658478	0.10001707077026367
70	202.97250509262085	fix_pre	0		1.0	68.0	2.5	/experiments/knapen_aot/videos/R_S_production_ID_3709168.mp4	0.0	261.03416323661804	0.008304119110107422
70	202.97429013252258	response	0	2		68.0	2.5	/experiments/knapen_aot/videos/R_S_production_ID_3709168.mp4	0.0	261.0359482765198	
70	202.98080921173096	movie	1		200.0	68.0	2.5	/experiments/knapen_aot/videos/R_S_production_ID_3709168.mp4	0.0	261.04246735572815	2.5100529193878174
70	205.4809021949768	response	1	2		68.0	2.5	/experiments/knapen_aot/videos/R_S_production_ID_3709168.mp4	0.0	263.542560338974	
70	205.49086213111877	fix_post	2		12.0	68.0	2.5	/experiments/knapen_aot/videos/R_S_production_ID_3709168.mp4	0.0	263.55252027511597	0.09830188751220703
71	205.58916401863098	fix_pre	0		108.0	69.0	2.5	blank	1.0	263.6508221626282	0.8999311923980713
71	206.47335505485535	response	0	2		69.0	2.5	blank	1.0	264.53501319885254	
71	206.48909521102905	movie	1		301.0	69.0	2.5	blank	1.0	264.55075335502625	2.508363962173462
71	208.99745917320251	fix_post	2		12.0	69.0	2.5	blank	1.0	267.0591173171997	0.10019397735595703
72	209.09765315055847	fix_pre	0		23.0	70.0	2.5	/experiments/knapen_aot/videos/R_S_yt-5DD4XtHSA9Q_171.mp4	0.0	267.15931129455566	0.19170498847961426
72	209.28084802627563	response	0	2		70.0	2.5	/experiments/knapen_aot/videos/R_S_yt-5DD4XtHSA9Q_171.mp4	0.0	267.3425061702728	
72	209.2893581390381	movie	1		301.0	70.0	2.5	/experiments/knapen_aot/videos/R_S_yt-5DD4XtHSA9Q_171.mp4	0.0	267.3510162830353	2.5083260536193848
72	211.79768419265747	fix_post	2		12.0	70.0	2.5	/experiments/knapen_aot/videos/R_S_yt-5DD4XtHSA9Q_171.mp4	0.0	269.85934233665466	0.0997629165649414
72	211.84752202033997	response	2	2		70.0	2.5	/experiments/knapen_aot/videos/R_S_yt-5DD4XtHSA9Q_171.mp4	0.0	269.90918016433716	
73	211.8974471092224	fix_pre	0		92.0	71.0	2.5	/experiments/knapen_aot/videos/R_S_Y002_C013_SDR_2K_AVC.mp4	0.0	269.9591052532196	0.7670140266418457
73	212.6559112071991	response	0	2		71.0	2.5	/experiments/knapen_aot/videos/R_S_Y002_C013_SDR_2K_AVC.mp4	0.0	270.7175693511963	
73	212.66446113586426	movie	1		175.0	71.0	2.5	/experiments/knapen_aot/videos/R_S_Y002_C013_SDR_2K_AVC.mp4	0.0	270.72611927986145	2.5080130100250244
73	215.17247414588928	fix_post	2		12.0	71.0	2.5	/experiments/knapen_aot/videos/R_S_Y002_C013_SDR_2K_AVC.mp4	0.0	273.2341322898865	0.10003304481506348
74	215.27250719070435	fix_pre	0		23.0	72.0	2.5	/experiments/knapen_aot/videos/R_S_yt-0lfSyC79n14_7.mp4	0.0	273.33416533470154	0.19153690338134766
74	215.44844698905945	response	0	2		72.0	2.5	/experiments/knapen_aot/videos/R_S_yt-0lfSyC79n14_7.mp4	0.0	273.51010513305664	
74	215.4640440940857	movie	1		301.0	72.0	2.5	/experiments/knapen_aot/videos/R_S_yt-0lfSyC79n14_7.mp4	0.0	273.5257022380829	2.508362054824829
74	217.97240614891052	fix_post	2		12.0	72.0	2.5	/experiments/knapen_aot/videos/R_S_yt-0lfSyC79n14_7.mp4	0.0	276.0340642929077	0.10002803802490234
75	218.07243418693542	fix_pre	0		17.0	73.0	2.5	/experiments/knapen_aot/videos/R_S_pexels-kindel-media-8165572.mp4	0.0	276.1340923309326	0.14161992073059082
75	218.20582509040833	response	0	2		73.0	2.5	/experiments/knapen_aot/videos/R_S_pexels-kindel-media-8165572.mp4	0.0	276.2674832344055	
75	218.21405410766602	movie	1		170.0	73.0	2.5	/experiments/knapen_aot/videos/R_S_pexels-kindel-media-8165572.mp4	0.0	276.2757122516632	2.5000131130218506
75	220.09753918647766	response	1	2		73.0	2.5	/experiments/knapen_aot/videos/R_S_pexels-kindel-media-8165572.mp4	0.0	278.15919733047485	
75	220.7058141231537	response	1	2		73.0	2.5	/experiments/knapen_aot/videos/R_S_pexels-kindel-media-8165572.mp4	0.0	278.7674722671509	
75	220.71406722068787	fix_post	2		13.0	73.0	2.5	/experiments/knapen_aot/videos/R_S_pexels-kindel-media-8165572.mp4	0.0	278.77572536468506	0.10832881927490234
76	220.82239603996277	fix_pre	0		74.0	74.0	2.5	/experiments/knapen_aot/videos/S_ILSVRC2015_train_00547001.mp4	0.0	278.88405418395996	0.616642951965332
76	221.4308681488037	response	0	2		74.0	2.5	/experiments/knapen_aot/videos/S_ILSVRC2015_train_00547001.mp4	0.0	279.4925262928009	
76	221.4390389919281	movie	1		301.0	74.0	2.5	/experiments/knapen_aot/videos/S_ILSVRC2015_train_00547001.mp4	0.0	279.5006971359253	2.5083041191101074
76	223.52247714996338	response	1	2		74.0	2.5	/experiments/knapen_aot/videos/S_ILSVRC2015_train_00547001.mp4	0.0	281.58413529396057	
76	223.9473431110382	fix_post	2		12.0	74.0	2.5	/experiments/knapen_aot/videos/S_ILSVRC2015_train_00547001.mp4	0.0	282.0090012550354	0.10010910034179688
77	224.04745221138	fix_pre	0		60.0	75.0	2.5	blank	1.0	282.1091103553772	0.49991893768310547
77	224.5391891002655	response	0	2		75.0	2.5	blank	1.0	282.6008472442627	
77	224.5473711490631	movie	1		301.0	75.0	2.5	blank	1.0	282.6090292930603	2.5082578659057617
77	227.05562901496887	fix_post	2		12.0	75.0	2.5	blank	1.0	285.11728715896606	0.10009503364562988
78	227.1557240486145	fix_pre	0		102.0	76.0	2.5	/experiments/knapen_aot/videos/R_S_wc-NzEeGIXLxvwp_19.mp4	0.0	285.2173821926117	0.8499760627746582
78	227.9975221157074	response	0	2		76.0	2.5	/experiments/knapen_aot/videos/R_S_wc-NzEeGIXLxvwp_19.mp4	0.0	286.0591802597046	
78	228.00570011138916	movie	1		163.0	76.0	2.5	/experiments/knapen_aot/videos/R_S_wc-NzEeGIXLxvwp_19.mp4	0.0	286.06735825538635	2.508375883102417
78	230.51407599449158	fix_post	2		12.0	76.0	2.5	/experiments/knapen_aot/videos/R_S_wc-NzEeGIXLxvwp_19.mp4	0.0	288.57573413848877	0.09996414184570312
79	230.61404013633728	fix_pre	0		16.0	77.0	2.5	/experiments/knapen_aot/videos/R_S_yt-r2jZ0zZrqzQ_45.mp4	0.0	288.6756982803345	0.1334550380706787
79	230.73927807807922	response	0	2		77.0	2.5	/experiments/knapen_aot/videos/R_S_yt-r2jZ0zZrqzQ_45.mp4	0.0	288.8009362220764	
79	230.74749517440796	movie	1		301.0	77.0	2.5	/experiments/knapen_aot/videos/R_S_yt-r2jZ0zZrqzQ_45.mp4	0.0	288.80915331840515	2.508141040802002
79	233.25563621520996	fix_post	2		12.0	77.0	2.5	/experiments/knapen_aot/videos/R_S_yt-r2jZ0zZrqzQ_45.mp4	0.0	291.31729435920715	0.10009598731994629
80	233.3557322025299	fix_pre	0		25.0	78.0	2.5	/experiments/knapen_aot/videos/S_ILSVRC2015_train_00572000.mp4	0.0	291.4173903465271	0.20822501182556152
80	233.5558671951294	response	0	2		78.0	2.5	/experiments/knapen_aot/videos/S_ILSVRC2015_train_00572000.mp4	0.0	291.6175253391266	
80	233.56395721435547	movie	1		301.0	78.0	2.5	/experiments/knapen_aot/videos/S_ILSVRC2015_train_00572000.mp4	0.0	291.62561535835266	2.508457899093628
80	236.0724151134491	fix_post	2		12.0	78.0	2.5	/experiments/knapen_aot/videos/S_ILSVRC2015_train_00572000.mp4	0.0	294.1340732574463	0.10008597373962402
81	236.17250108718872	fix_pre	0		34.0	79.0	2.5	/experiments/knapen_aot/videos/R_S_ILSVRC2015_train_00479002.mp4	0.0	294.2341592311859	0.2833120822906494
81	236.44750499725342	response	0	2		79.0	2.5	/experiments/knapen_aot/videos/R_S_ILSVRC2015_train_00479002.mp4	0.0	294.5091631412506	
81	236.45581316947937	movie	1		301.0	79.0	2.5	/experiments/knapen_aot/videos/R_S_ILSVRC2015_train_00479002.mp4	0.0	294.51747131347656	2.5083189010620117
81	238.1643340587616	response	1	2		79.0	2.5	/experiments/knapen_aot/videos/R_S_ILSVRC2015_train_00479002.mp4	0.0	296.2259922027588	
81	238.96413207054138	fix_post	2		12.0	79.0	2.5	/experiments/knapen_aot/videos/R_S_ILSVRC2015_train_00479002.mp4	0.0	297.0257902145386	0.09990692138671875
82	239.0640389919281	fix_pre	0		11.0	80.0	2.5	/experiments/knapen_aot/videos/S_yt-kxWtOXNIsRA_329.mp4	0.0	297.1256971359253	0.0916140079498291
82	239.14745712280273	response	0	2		80.0	2.5	/experiments/knapen_aot/videos/S_yt-kxWtOXNIsRA_329.mp4	0.0	297.2091152667999	
82	239.15565299987793	movie	1		301.0	80.0	2.5	/experiments/knapen_aot/videos/S_yt-kxWtOXNIsRA_329.mp4	0.0	297.2173111438751	2.5085220336914062
82	241.66417503356934	fix_post	2		12.0	80.0	2.5	/experiments/knapen_aot/videos/S_yt-kxWtOXNIsRA_329.mp4	0.0	299.7258331775665	0.09985804557800293
83	241.76403307914734	fix_pre	0		15.0	81.0	2.5	/experiments/knapen_aot/videos/R_S_video_inspire_uk_edinburgh_arthursseat_010.1080-h264.mp4	0.0	299.82569122314453	0.12501001358032227
83	241.88085508346558	response	0	2		81.0	2.5	/experiments/knapen_aot/videos/R_S_video_inspire_uk_edinburgh_arthursseat_010.1080-h264.mp4	0.0	299.94251322746277	
83	241.88904309272766	movie	1		176.0	81.0	2.5	/experiments/knapen_aot/videos/R_S_video_inspire_uk_edinburgh_arthursseat_010.1080-h264.mp4	0.0	299.95070123672485	2.5083260536193848
83	244.39736914634705	fix_post	2		12.0	81.0	2.5	/experiments/knapen_aot/videos/R_S_video_inspire_uk_edinburgh_arthursseat_010.1080-h264.mp4	0.0	302.45902729034424	0.10012984275817871
83	244.40767908096313	response	2	2		81.0	2.5	/experiments/knapen_aot/videos/R_S_video_inspire_uk_edinburgh_arthursseat_010.1080-h264.mp4	0.0	302.4693372249603	
84	244.49749898910522	fix_pre	0		85.0	82.0	2.5	/experiments/knapen_aot/videos/S_pexels-mikhail-nilov-8410063_1.mp4	0.0	302.5591571331024	0.7082672119140625
84	245.19748401641846	response	0	2		82.0	2.5	/experiments/knapen_aot/videos/S_pexels-mikhail-nilov-8410063_1.mp4	0.0	303.25914216041565	
84	245.2057662010193	movie	1		166.0	82.0	2.5	/experiments/knapen_aot/videos/S_pexels-mikhail-nilov-8410063_1.mp4	0.0	303.2674243450165	2.5082669258117676
84	247.71403312683105	fix_post	2		12.0	82.0	2.5	/experiments/knapen_aot/videos/S_pexels-mikhail-nilov-8410063_1.mp4	0.0	305.77569127082825	0.09998202323913574
85	247.8140151500702	fix_pre	0		6.0	83.0	2.5	blank	1.0	305.8756732940674	0.049989938735961914
85	247.8557951450348	response	0	2		83.0	2.5	blank	1.0	305.917453289032	
85	247.86400508880615	movie	1		301.0	83.0	2.5	blank	1.0	305.92566323280334	2.5084121227264404
85	250.3724172115326	fix_post	2		12.0	83.0	2.5	blank	1.0	308.4340753555298	0.09989690780639648
87	250.472314119339	stim	0		377.0					308.5339722633362	3.143033981323242
87	250.64736700057983	response	0	2						308.709025144577	
87	253.60316705703735	response	0	space						311.66482520103455	
