trial_nr	onset	event_type	phase	response	nr_frames	movie_index	movie_duration	movie_file	blank	onset_abs	duration
0	0.12498116493225098	stim	0		57.0					79.51648616790771	0.5113029479980469
0	0.6178410053253174	response	0	space						80.00934600830078	
1	0.6362841129302979	stim	0		121.0					80.02778911590576	1.0049819946289062
1	1.641266107559204	stim	1		120.0					81.03277111053467	0.9999589920043945
1	1.9413750171661377	response	1	space						81.3328800201416	
2	2.6412250995635986	fix_pre	0		45.0	0.0	2.5	/experiments/knapen_aot/videos/R_S_FZ0hLmjCR0s_26.mp4	0.0	82.03273010253906	0.3750269412994385
2	3.0080552101135254	response	0	space		0.0	2.5	/experiments/knapen_aot/videos/R_S_FZ0hLmjCR0s_26.mp4	0.0	82.39956021308899	
2	3.016252040863037	movie	1		301.0	0.0	2.5	/experiments/knapen_aot/videos/R_S_FZ0hLmjCR0s_26.mp4	0.0	82.4077570438385	2.508527994155884
2	5.524780035018921	fix_post	2		12.0	0.0	2.5	/experiments/knapen_aot/videos/R_S_FZ0hLmjCR0s_26.mp4	0.0	84.91628503799438	0.09984612464904785
3	5.624626159667969	fix_pre	0		159.0	1.0	2.5	/experiments/knapen_aot/videos/S_yt-xlHdGsXVZFU_83.mp4	0.0	85.01613116264343	1.3249189853668213
3	6.945381164550781	response	0	2		1.0	2.5	/experiments/knapen_aot/videos/S_yt-xlHdGsXVZFU_83.mp4	0.0	86.33688616752625	
3	6.94954514503479	movie	1		300.0	1.0	2.5	/experiments/knapen_aot/videos/S_yt-xlHdGsXVZFU_83.mp4	0.0	86.34105014801025	2.5084030628204346
3	9.457948207855225	fix_post	2		12.0	1.0	2.5	/experiments/knapen_aot/videos/S_yt-xlHdGsXVZFU_83.mp4	0.0	88.84945321083069	0.10007095336914062
4	9.558019161224365	fix_pre	0		37.0	2.0	2.5	/experiments/knapen_aot/videos/S_bing-www_break_com_video_like-a-cat-catching-a-fly-3131008_12.mp4	0.0	88.94952416419983	0.3082568645477295
4	9.857909202575684	response	0	4		2.0	2.5	/experiments/knapen_aot/videos/S_bing-www_break_com_video_like-a-cat-catching-a-fly-3131008_12.mp4	0.0	89.24941420555115	
4	9.866276025772095	movie	1		301.0	2.0	2.5	/experiments/knapen_aot/videos/S_bing-www_break_com_video_like-a-cat-catching-a-fly-3131008_12.mp4	0.0	89.25778102874756	2.5084030628204346
4	12.37467908859253	fix_post	2		12.0	2.0	2.5	/experiments/knapen_aot/videos/S_bing-www_break_com_video_like-a-cat-catching-a-fly-3131008_12.mp4	0.0	91.766184091568	0.09988594055175781
5	12.474565029144287	fix_pre	0		50.0	3.0	2.5	/experiments/knapen_aot/videos/S_ILSVRC2015_train_00545000.mp4	0.0	91.86607003211975	0.4166600704193115
5	12.883108139038086	response	0	2		3.0	2.5	/experiments/knapen_aot/videos/S_ILSVRC2015_train_00545000.mp4	0.0	92.27461314201355	
5	12.891225099563599	movie	1		301.0	3.0	2.5	/experiments/knapen_aot/videos/S_ILSVRC2015_train_00545000.mp4	0.0	92.28273010253906	2.5086419582366943
5	15.399867057800293	fix_post	2		12.0	3.0	2.5	/experiments/knapen_aot/videos/S_ILSVRC2015_train_00545000.mp4	0.0	94.79137206077576	0.09975910186767578
6	15.499626159667969	fix_pre	0		22.0	4.0	2.5	/experiments/knapen_aot/videos/S_ILnEDG_aP1A_35.mp4	0.0	94.89113116264343	0.1833038330078125
6	15.674768209457397	response	0	4		4.0	2.5	/experiments/knapen_aot/videos/S_ILnEDG_aP1A_35.mp4	0.0	95.06627321243286	
6	15.682929992675781	movie	1		300.0	4.0	2.5	/experiments/knapen_aot/videos/S_ILnEDG_aP1A_35.mp4	0.0	95.07443499565125	2.5016632080078125
6	18.184593200683594	fix_post	2		13.0	4.0	2.5	/experiments/knapen_aot/videos/S_ILnEDG_aP1A_35.mp4	0.0	97.57609820365906	0.10670685768127441
7	18.291300058364868	fix_pre	0		104.0	5.0	2.5	/experiments/knapen_aot/videos/R_S_yt-F1vQ5nZWhDg_21.mp4	0.0	97.68280506134033	0.8665649890899658
7	19.149763107299805	response	0	2		5.0	2.5	/experiments/knapen_aot/videos/R_S_yt-F1vQ5nZWhDg_21.mp4	0.0	98.54126811027527	
7	19.157865047454834	movie	1		301.0	5.0	2.5	/experiments/knapen_aot/videos/R_S_yt-F1vQ5nZWhDg_21.mp4	0.0	98.5493700504303	2.5084400177001953
7	21.66630506515503	fix_post	2		12.0	5.0	2.5	/experiments/knapen_aot/videos/R_S_yt-F1vQ5nZWhDg_21.mp4	0.0	101.0578100681305	0.09998607635498047
8	21.76629114151001	fix_pre	0		42.0	6.0	2.5	blank	1.0	101.15779614448547	0.34999895095825195
8	22.108131170272827	response	0	4		6.0	2.5	blank	1.0	101.49963617324829	
8	22.11629009246826	movie	1		301.0	6.0	2.5	blank	1.0	101.50779509544373	2.5082340240478516
8	24.624524116516113	fix_post	2		12.0	6.0	2.5	blank	1.0	104.01602911949158	0.10007309913635254
9	24.724597215652466	fix_pre	0		25.0	7.0	2.5	/experiments/knapen_aot/videos/S_yt-EBuE7GbFw7U_180.mp4	0.0	104.11610221862793	0.2082538604736328
9	24.924694061279297	response	0	2		7.0	2.5	/experiments/knapen_aot/videos/S_yt-EBuE7GbFw7U_180.mp4	0.0	104.31619906425476	
9	24.9328510761261	movie	1		301.0	7.0	2.5	/experiments/knapen_aot/videos/S_yt-EBuE7GbFw7U_180.mp4	0.0	104.32435607910156	2.5085129737854004
9	27.4413640499115	fix_post	2		12.0	7.0	2.5	/experiments/knapen_aot/videos/S_yt-EBuE7GbFw7U_180.mp4	0.0	106.83286905288696	0.09991908073425293
10	27.541283130645752	fix_pre	0		54.0	8.0	2.5	/experiments/knapen_aot/videos/S_pexels-nkem-6237382.mp4	0.0	106.93278813362122	0.4499039649963379
10	27.983013153076172	response	0	4		8.0	2.5	/experiments/knapen_aot/videos/S_pexels-nkem-6237382.mp4	0.0	107.37451815605164	
10	27.99118709564209	movie	1		159.0	8.0	2.5	/experiments/knapen_aot/videos/S_pexels-nkem-6237382.mp4	0.0	107.38269209861755	2.5083580017089844
10	30.499545097351074	fix_post	2		12.0	8.0	2.5	/experiments/knapen_aot/videos/S_pexels-nkem-6237382.mp4	0.0	109.89105010032654	0.10001492500305176
11	30.599560022354126	fix_pre	0		75.0	9.0	2.5	/experiments/knapen_aot/videos/S_yt-F1vQ5nZWhDg_21.mp4	0.0	109.99106502532959	0.6264650821685791
11	31.21652603149414	response	0	2		9.0	2.5	/experiments/knapen_aot/videos/S_yt-F1vQ5nZWhDg_21.mp4	0.0	110.6080310344696	
11	31.226025104522705	movie	1		301.0	9.0	2.5	/experiments/knapen_aot/videos/S_yt-F1vQ5nZWhDg_21.mp4	0.0	110.61753010749817	2.5070409774780273
11	33.73306608200073	fix_post	2		12.0	9.0	2.5	/experiments/knapen_aot/videos/S_yt-F1vQ5nZWhDg_21.mp4	0.0	113.1245710849762	0.09985494613647461
12	33.83292102813721	fix_pre	0		48.0	10.0	2.5	/experiments/knapen_aot/videos/R_S_yt-Ojy5TMPX8_Q_165.mp4	0.0	113.22442603111267	0.3999941349029541
12	34.224589109420776	response	0	4		10.0	2.5	/experiments/knapen_aot/videos/R_S_yt-Ojy5TMPX8_Q_165.mp4	0.0	113.61609411239624	
12	34.23291516304016	movie	1		301.0	10.0	2.5	/experiments/knapen_aot/videos/R_S_yt-Ojy5TMPX8_Q_165.mp4	0.0	113.62442016601562	2.5082809925079346
12	36.741196155548096	fix_post	2		12.0	10.0	2.5	/experiments/knapen_aot/videos/R_S_yt-Ojy5TMPX8_Q_165.mp4	0.0	116.13270115852356	0.10015702247619629
13	36.84135317802429	fix_pre	0		31.0	11.0	2.5	/experiments/knapen_aot/videos/S_production_ID_4802716.mp4	0.0	116.23285818099976	0.25821685791015625
13	37.09137201309204	response	0	2		11.0	2.5	/experiments/knapen_aot/videos/S_production_ID_4802716.mp4	0.0	116.4828770160675	
13	37.09957003593445	movie	1		164.0	11.0	2.5	/experiments/knapen_aot/videos/S_production_ID_4802716.mp4	0.0	116.49107503890991	2.508498191833496
13	39.608068227767944	fix_post	2		12.0	11.0	2.5	/experiments/knapen_aot/videos/S_production_ID_4802716.mp4	0.0	118.99957323074341	0.09983491897583008
14	39.707903146743774	fix_pre	0		18.0	12.0	2.5	blank	1.0	119.09940814971924	0.15001392364501953
14	39.84955716133118	response	0	4		12.0	2.5	blank	1.0	119.24106216430664	
14	39.857917070388794	movie	1		301.0	12.0	2.5	blank	1.0	119.24942207336426	2.5083489418029785
14	42.36626601219177	fix_post	2		12.0	12.0	2.5	blank	1.0	121.75777101516724	0.09997105598449707
15	42.46623706817627	fix_pre	0		111.0	13.0	2.5	/experiments/knapen_aot/videos/S_yt-xqHrTtvFFIs_3.mp4	0.0	121.85774207115173	0.9249539375305176
15	43.38299107551575	response	0	2		13.0	2.5	/experiments/knapen_aot/videos/S_yt-xqHrTtvFFIs_3.mp4	0.0	122.77449607849121	
15	43.39119100570679	movie	1		301.0	13.0	2.5	/experiments/knapen_aot/videos/S_yt-xqHrTtvFFIs_3.mp4	0.0	122.78269600868225	2.508333206176758
15	45.899524211883545	fix_post	2		12.0	13.0	2.5	/experiments/knapen_aot/videos/S_yt-xqHrTtvFFIs_3.mp4	0.0	125.29102921485901	0.10004281997680664
16	45.99956703186035	fix_pre	0		40.0	14.0	2.5	/experiments/knapen_aot/videos/S_comp_A001_C001_120530_v04_SDR_FINAL_20180706_SDR_2K_AVC.mp4	0.0	125.39107203483582	0.3333010673522949
16	46.3246910572052	response	0	4		14.0	2.5	/experiments/knapen_aot/videos/S_comp_A001_C001_120530_v04_SDR_FINAL_20180706_SDR_2K_AVC.mp4	0.0	125.71619606018066	
16	46.33286809921265	movie	1		162.0	14.0	2.5	/experiments/knapen_aot/videos/S_comp_A001_C001_120530_v04_SDR_FINAL_20180706_SDR_2K_AVC.mp4	0.0	125.72437310218811	2.508362054824829
16	48.841230154037476	fix_post	2		12.0	14.0	2.5	/experiments/knapen_aot/videos/S_comp_A001_C001_120530_v04_SDR_FINAL_20180706_SDR_2K_AVC.mp4	0.0	128.23273515701294	0.10001492500305176
17	48.94124507904053	fix_pre	0		37.0	15.0	2.5	/experiments/knapen_aot/videos/R_S_yt-Tt_LkR4iAt4_11.mp4	0.0	128.332750082016	0.30823802947998047
17	49.2413330078125	response	0	2		15.0	2.5	/experiments/knapen_aot/videos/R_S_yt-Tt_LkR4iAt4_11.mp4	0.0	128.63283801078796	
17	49.24948310852051	movie	1		301.0	15.0	2.5	/experiments/knapen_aot/videos/R_S_yt-Tt_LkR4iAt4_11.mp4	0.0	128.64098811149597	2.50839900970459
17	51.7578821182251	fix_post	2		12.0	15.0	2.5	/experiments/knapen_aot/videos/R_S_yt-Tt_LkR4iAt4_11.mp4	0.0	131.14938712120056	0.09998798370361328
18	51.85787010192871	fix_pre	0		34.0	16.0	2.5	/experiments/knapen_aot/videos/S_comp_N008_C009_PS_v01_SDR_PS_20180925_SDR_2K_AVC.mp4	0.0	131.24937510490417	0.28464412689208984
18	52.13318204879761	response	0	4		16.0	2.5	/experiments/knapen_aot/videos/S_comp_N008_C009_PS_v01_SDR_PS_20180925_SDR_2K_AVC.mp4	0.0	131.52468705177307	
18	52.1425142288208	movie	1		174.0	16.0	2.5	/experiments/knapen_aot/videos/S_comp_N008_C009_PS_v01_SDR_PS_20180925_SDR_2K_AVC.mp4	0.0	131.53401923179626	2.5069267749786377
18	54.64944100379944	fix_post	2		12.0	16.0	2.5	/experiments/knapen_aot/videos/S_comp_N008_C009_PS_v01_SDR_PS_20180925_SDR_2K_AVC.mp4	0.0	134.0409460067749	0.10001420974731445
19	54.74945521354675	fix_pre	0		39.0	17.0	2.5	/experiments/knapen_aot/videos/R_S_yt-dQRqGgpS9mE_288.mp4	0.0	134.14096021652222	0.32503390312194824
19	55.05890703201294	response	0	2		17.0	2.5	/experiments/knapen_aot/videos/R_S_yt-dQRqGgpS9mE_288.mp4	0.0	134.4504120349884	
19	55.0744891166687	movie	1		301.0	17.0	2.5	/experiments/knapen_aot/videos/R_S_yt-dQRqGgpS9mE_288.mp4	0.0	134.46599411964417	2.5083189010620117
19	57.58280801773071	fix_post	2		12.0	17.0	2.5	/experiments/knapen_aot/videos/R_S_yt-dQRqGgpS9mE_288.mp4	0.0	136.97431302070618	0.10000920295715332
20	57.682817220687866	fix_pre	0		61.0	18.0	2.5	/experiments/knapen_aot/videos/R_S_yt-2y6A9DJPsDU_65.mp4	0.0	137.07432222366333	0.5083677768707275
20	58.18295621871948	response	0	2		18.0	2.5	/experiments/knapen_aot/videos/R_S_yt-2y6A9DJPsDU_65.mp4	0.0	137.57446122169495	
20	58.191184997558594	movie	1		301.0	18.0	2.5	/experiments/knapen_aot/videos/R_S_yt-2y6A9DJPsDU_65.mp4	0.0	137.58269000053406	2.5082480907440186
20	60.69943308830261	fix_post	2		12.0	18.0	2.5	/experiments/knapen_aot/videos/R_S_yt-2y6A9DJPsDU_65.mp4	0.0	140.09093809127808	0.10005807876586914
21	60.79949116706848	fix_pre	0		186.0	19.0	2.5	blank	1.0	140.19099617004395	1.5499160289764404
21	62.34125208854675	response	0	4		19.0	2.5	blank	1.0	141.73275709152222	
21	62.34940719604492	movie	1		301.0	19.0	2.5	blank	1.0	141.74091219902039	2.508375883102417
21	64.85778307914734	fix_post	2		12.0	19.0	2.5	blank	1.0	144.2492880821228	0.09998202323913574
22	64.95776510238647	fix_pre	0		24.0	20.0	2.5	/experiments/knapen_aot/videos/S_ILSVRC2015_train_00323000.mp4	0.0	144.34927010536194	0.20001697540283203
22	65.14955401420593	response	0	2		20.0	2.5	/experiments/knapen_aot/videos/S_ILSVRC2015_train_00323000.mp4	0.0	144.5410590171814	
22	65.1577820777893	movie	1		301.0	20.0	2.5	/experiments/knapen_aot/videos/S_ILSVRC2015_train_00323000.mp4	0.0	144.54928708076477	2.5083439350128174
22	67.66612601280212	fix_post	2		12.0	20.0	2.5	/experiments/knapen_aot/videos/S_ILSVRC2015_train_00323000.mp4	0.0	147.0576310157776	0.09988713264465332
23	67.76601314544678	fix_pre	0		16.0	21.0	2.5	/experiments/knapen_aot/videos/R_S_g201_CA_A016_C002_SDR_20191114_SDR_2K_AVC.mp4	0.0	147.15751814842224	0.1333940029144287
23	67.8912570476532	response	0	4		21.0	2.5	/experiments/knapen_aot/videos/R_S_g201_CA_A016_C002_SDR_20191114_SDR_2K_AVC.mp4	0.0	147.28276205062866	
23	67.8994071483612	movie	1		167.0	21.0	2.5	/experiments/knapen_aot/videos/R_S_g201_CA_A016_C002_SDR_20191114_SDR_2K_AVC.mp4	0.0	147.29091215133667	2.5083000659942627
23	70.40770721435547	fix_post	2		12.0	21.0	2.5	/experiments/knapen_aot/videos/R_S_g201_CA_A016_C002_SDR_20191114_SDR_2K_AVC.mp4	0.0	149.79921221733093	0.10005593299865723
24	70.50776314735413	fix_pre	0		23.0	22.0	2.5	/experiments/knapen_aot/videos/R_S_ILSVRC2015_train_00652001.mp4	0.0	149.8992681503296	0.1915760040283203
24	70.69119310379028	response	0	2		22.0	2.5	/experiments/knapen_aot/videos/R_S_ILSVRC2015_train_00652001.mp4	0.0	150.08269810676575	
24	70.69933915138245	movie	1		301.0	22.0	2.5	/experiments/knapen_aot/videos/R_S_ILSVRC2015_train_00652001.mp4	0.0	150.0908441543579	2.5083529949188232
24	73.20769214630127	fix_post	2		12.0	22.0	2.5	/experiments/knapen_aot/videos/R_S_ILSVRC2015_train_00652001.mp4	0.0	152.59919714927673	0.1013329029083252
25	73.3090250492096	fix_pre	0		33.0	23.0	2.5	/experiments/knapen_aot/videos/R_S_yt-lEPoNlKWibA_1.mp4	0.0	152.70053005218506	0.2736930847167969
25	73.57453203201294	response	0	4		23.0	2.5	/experiments/knapen_aot/videos/R_S_yt-lEPoNlKWibA_1.mp4	0.0	152.9660370349884	
25	73.58271813392639	movie	1		301.0	23.0	2.5	/experiments/knapen_aot/videos/R_S_yt-lEPoNlKWibA_1.mp4	0.0	152.97422313690186	2.5083680152893066
25	76.0910861492157	fix_post	2		12.0	23.0	2.5	/experiments/knapen_aot/videos/R_S_yt-lEPoNlKWibA_1.mp4	0.0	155.48259115219116	0.09998202323913574
26	76.19106817245483	fix_pre	0		17.0	24.0	2.5	/experiments/knapen_aot/videos/R_S_yt-n2PnABmSpxI_115.mp4	0.0	155.5825731754303	0.14164185523986816
26	76.32454109191895	response	0	2		24.0	2.5	/experiments/knapen_aot/videos/R_S_yt-n2PnABmSpxI_115.mp4	0.0	155.7160460948944	
26	76.3327100276947	movie	1		301.0	24.0	2.5	/experiments/knapen_aot/videos/R_S_yt-n2PnABmSpxI_115.mp4	0.0	155.72421503067017	2.508409023284912
26	78.84111905097961	fix_post	2		12.0	24.0	2.5	/experiments/knapen_aot/videos/R_S_yt-n2PnABmSpxI_115.mp4	0.0	158.23262405395508	0.0999751091003418
27	78.94109416007996	fix_pre	0		17.0	25.0	2.5	/experiments/knapen_aot/videos/S_yt-1UFhynm5g6Y_266.mp4	0.0	158.33259916305542	0.14156293869018555
27	79.07447814941406	response	0	4		25.0	2.5	/experiments/knapen_aot/videos/S_yt-1UFhynm5g6Y_266.mp4	0.0	158.46598315238953	
27	79.08265709877014	movie	1		301.0	25.0	2.5	/experiments/knapen_aot/videos/S_yt-1UFhynm5g6Y_266.mp4	0.0	158.4741621017456	2.5083560943603516
27	81.5910131931305	fix_post	2		12.0	25.0	2.5	/experiments/knapen_aot/videos/S_yt-1UFhynm5g6Y_266.mp4	0.0	160.98251819610596	0.10004782676696777
28	81.69106101989746	fix_pre	0		19.0	26.0	2.5	/experiments/knapen_aot/videos/S_Nh81j72Utbs_5.mp4	0.0	161.08256602287292	0.15948915481567383
28	81.84112000465393	response	0	2		26.0	2.5	/experiments/knapen_aot/videos/S_Nh81j72Utbs_5.mp4	0.0	161.2326250076294	
28	81.85055017471313	movie	1		301.0	26.0	2.5	/experiments/knapen_aot/videos/S_Nh81j72Utbs_5.mp4	0.0	161.2420551776886	2.5070860385894775
28	84.35763621330261	fix_post	2		12.0	26.0	2.5	/experiments/knapen_aot/videos/S_Nh81j72Utbs_5.mp4	0.0	163.74914121627808	0.10009288787841797
29	84.45772910118103	fix_pre	0		45.0	27.0	2.5	/experiments/knapen_aot/videos/S_flickr-evananderica-2662125519_8.mp4	0.0	163.8492341041565	0.37488698959350586
29	84.8244411945343	response	0	4		27.0	2.5	/experiments/knapen_aot/videos/S_flickr-evananderica-2662125519_8.mp4	0.0	164.21594619750977	
29	84.83261609077454	movie	1		301.0	27.0	2.5	/experiments/knapen_aot/videos/S_flickr-evananderica-2662125519_8.mp4	0.0	164.22412109375	2.5083861351013184
29	87.34100222587585	fix_post	2		12.0	27.0	2.5	/experiments/knapen_aot/videos/S_flickr-evananderica-2662125519_8.mp4	0.0	166.73250722885132	0.0999608039855957
30	87.44096302986145	fix_pre	0		74.0	28.0	2.5	blank	1.0	166.8324680328369	0.6167020797729492
30	88.04192209243774	response	0	2		28.0	2.5	blank	1.0	167.4334270954132	
30	88.0576651096344	movie	1		301.0	28.0	2.5	blank	1.0	167.44917011260986	2.508284091949463
30	90.56594920158386	fix_post	2		12.0	28.0	2.5	blank	1.0	169.95745420455933	0.10002493858337402
31	90.66597414016724	fix_pre	0		52.0	29.0	2.5	/experiments/knapen_aot/videos/S_video_inspire_oregon_lone-ranch-beach_00015.1080-h264.mp4	0.0	170.0574791431427	0.434406042098999
31	91.09108018875122	response	0	4		29.0	2.5	/experiments/knapen_aot/videos/S_video_inspire_oregon_lone-ranch-beach_00015.1080-h264.mp4	0.0	170.48258519172668	
31	91.10038018226624	movie	1		166.0	29.0	2.5	/experiments/knapen_aot/videos/S_video_inspire_oregon_lone-ranch-beach_00015.1080-h264.mp4	0.0	170.4918851852417	2.5072739124298096
31	93.60765409469604	fix_post	2		12.0	29.0	2.5	/experiments/knapen_aot/videos/S_video_inspire_oregon_lone-ranch-beach_00015.1080-h264.mp4	0.0	172.9991590976715	0.10015511512756348
32	93.70780920982361	fix_pre	0		31.0	30.0	2.5	/experiments/knapen_aot/videos/R_S_yt-c-H45QS0CF4_147.mp4	0.0	173.09931421279907	0.25813794136047363
32	93.95789003372192	response	0	2		30.0	2.5	/experiments/knapen_aot/videos/R_S_yt-c-H45QS0CF4_147.mp4	0.0	173.3493950366974	
32	93.96594715118408	movie	1		301.0	30.0	2.5	/experiments/knapen_aot/videos/R_S_yt-c-H45QS0CF4_147.mp4	0.0	173.35745215415955	2.508347988128662
32	96.47429513931274	fix_post	2		12.0	30.0	2.5	/experiments/knapen_aot/videos/R_S_yt-c-H45QS0CF4_147.mp4	0.0	175.8658001422882	0.10004997253417969
33	96.57434511184692	fix_pre	0		31.0	31.0	2.5	/experiments/knapen_aot/videos/R_S_ILSVRC2015_train_00251004.mp4	0.0	175.9658501148224	0.25829100608825684
33	96.82445311546326	response	0	2		31.0	2.5	/experiments/knapen_aot/videos/R_S_ILSVRC2015_train_00251004.mp4	0.0	176.21595811843872	
33	96.83263611793518	movie	1		300.0	31.0	2.5	/experiments/knapen_aot/videos/R_S_ILSVRC2015_train_00251004.mp4	0.0	176.22414112091064	2.508380889892578
33	99.34101700782776	fix_post	2		12.0	31.0	2.5	/experiments/knapen_aot/videos/R_S_ILSVRC2015_train_00251004.mp4	0.0	178.73252201080322	0.09989118576049805
34	99.44090819358826	fix_pre	0		2.0	32.0	2.5	/experiments/knapen_aot/videos/S_yt-3DM_SqT4RII_10.mp4	0.0	178.83241319656372	0.01663994789123535
34	99.44939303398132	response	0	4		32.0	2.5	/experiments/knapen_aot/videos/S_yt-3DM_SqT4RII_10.mp4	0.0	178.8408980369568	
34	99.45754814147949	movie	1		301.0	32.0	2.5	/experiments/knapen_aot/videos/S_yt-3DM_SqT4RII_10.mp4	0.0	178.84905314445496	2.508336067199707
34	101.9658842086792	fix_post	2		12.0	32.0	2.5	/experiments/knapen_aot/videos/S_yt-3DM_SqT4RII_10.mp4	0.0	181.35738921165466	0.10005378723144531
35	102.06593799591064	fix_pre	0		32.0	33.0	2.5	blank	1.0	181.4574429988861	0.26656603813171387
35	102.3243420124054	response	0	2		33.0	2.5	blank	1.0	181.71584701538086	
35	102.33250403404236	movie	1		301.0	33.0	2.5	blank	1.0	181.72400903701782	2.5083441734313965
35	104.84084820747375	fix_post	2		12.0	33.0	2.5	blank	1.0	184.23235321044922	0.1000218391418457
36	104.9408700466156	fix_pre	0		31.0	34.0	2.5	/experiments/knapen_aot/videos/R_S_ILSVRC2015_train_00473000.mp4	0.0	184.33237504959106	0.2583169937133789
36	105.19100713729858	response	0	4		34.0	2.5	/experiments/knapen_aot/videos/R_S_ILSVRC2015_train_00473000.mp4	0.0	184.58251214027405	
36	105.19918704032898	movie	1		300.0	34.0	2.5	/experiments/knapen_aot/videos/R_S_ILSVRC2015_train_00473000.mp4	0.0	184.59069204330444	2.508388042449951
36	107.70757508277893	fix_post	2		12.0	34.0	2.5	/experiments/knapen_aot/videos/R_S_ILSVRC2015_train_00473000.mp4	0.0	187.0990800857544	0.09996199607849121
37	107.80753707885742	fix_pre	0		18.0	35.0	2.5	/experiments/knapen_aot/videos/S_wc-TAGpcap1KdAS_212.mp4	0.0	187.19904208183289	0.15002703666687012
37	107.94937515258789	response	0	2		35.0	2.5	/experiments/knapen_aot/videos/S_wc-TAGpcap1KdAS_212.mp4	0.0	187.34088015556335	
37	107.95756411552429	movie	1		300.0	35.0	2.5	/experiments/knapen_aot/videos/S_wc-TAGpcap1KdAS_212.mp4	0.0	187.34906911849976	2.508323907852173
37	110.46588802337646	fix_post	2		12.0	35.0	2.5	/experiments/knapen_aot/videos/S_wc-TAGpcap1KdAS_212.mp4	0.0	189.85739302635193	0.10001611709594727
38	110.56590414047241	fix_pre	0		36.0	36.0	2.5	/experiments/knapen_aot/videos/S_yt-XHYYkaHcEtM_72.mp4	0.0	189.95740914344788	0.2999708652496338
38	110.85772514343262	response	0	2		36.0	2.5	/experiments/knapen_aot/videos/S_yt-XHYYkaHcEtM_72.mp4	0.0	190.24923014640808	
38	110.86587500572205	movie	1		301.0	36.0	2.5	/experiments/knapen_aot/videos/S_yt-XHYYkaHcEtM_72.mp4	0.0	190.2573800086975	2.508439064025879
38	113.37431406974792	fix_post	2		12.0	36.0	2.5	/experiments/knapen_aot/videos/S_yt-XHYYkaHcEtM_72.mp4	0.0	192.7658190727234	0.09995198249816895
39	113.4742660522461	fix_pre	0		19.0	37.0	2.5	/experiments/knapen_aot/videos/R_S_ILSVRC2015_train_00708000.mp4	0.0	192.86577105522156	0.1582789421081543
39	113.62441205978394	response	0	2		37.0	2.5	/experiments/knapen_aot/videos/R_S_ILSVRC2015_train_00708000.mp4	0.0	193.0159170627594	
39	113.63254499435425	movie	1		301.0	37.0	2.5	/experiments/knapen_aot/videos/R_S_ILSVRC2015_train_00708000.mp4	0.0	193.0240499973297	2.508310079574585
39	116.14085507392883	fix_post	2		12.0	37.0	2.5	/experiments/knapen_aot/videos/R_S_ILSVRC2015_train_00708000.mp4	0.0	195.5323600769043	0.10015010833740234
40	116.24100518226624	fix_pre	0		12.0	38.0	2.5	/experiments/knapen_aot/videos/S_yt-H45g6700wbc_159.mp4	0.0	195.6325101852417	0.09983682632446289
40	116.33265519142151	response	0	4		38.0	2.5	/experiments/knapen_aot/videos/S_yt-H45g6700wbc_159.mp4	0.0	195.72416019439697	
40	116.3408420085907	movie	1		301.0	38.0	2.5	/experiments/knapen_aot/videos/S_yt-H45g6700wbc_159.mp4	0.0	195.73234701156616	2.5083580017089844
40	118.84920001029968	fix_post	2		12.0	38.0	2.5	/experiments/knapen_aot/videos/S_yt-H45g6700wbc_159.mp4	0.0	198.24070501327515	0.10003304481506348
41	118.94923305511475	fix_pre	0		19.0	39.0	2.5	/experiments/knapen_aot/videos/R_S_ILSVRC2015_train_00545000.mp4	0.0	198.3407380580902	0.15823817253112793
41	119.09938907623291	response	0	2		39.0	2.5	/experiments/knapen_aot/videos/R_S_ILSVRC2015_train_00545000.mp4	0.0	198.49089407920837	
41	119.10747122764587	movie	1		301.0	39.0	2.5	/experiments/knapen_aot/videos/R_S_ILSVRC2015_train_00545000.mp4	0.0	198.49897623062134	2.508358955383301
41	121.61583018302917	fix_post	2		12.0	39.0	2.5	/experiments/knapen_aot/videos/R_S_ILSVRC2015_train_00545000.mp4	0.0	201.00733518600464	0.1000368595123291
42	121.7158670425415	fix_pre	0		13.0	40.0	2.5	/experiments/knapen_aot/videos/R_S_yt-FR_Y1Mm8BwQ_53.mp4	0.0	201.10737204551697	0.10832405090332031
42	121.80844306945801	response	0	2		40.0	2.5	/experiments/knapen_aot/videos/R_S_yt-FR_Y1Mm8BwQ_53.mp4	0.0	201.19994807243347	
42	121.82419109344482	movie	1		301.0	40.0	2.5	/experiments/knapen_aot/videos/R_S_yt-FR_Y1Mm8BwQ_53.mp4	0.0	201.2156960964203	2.508268117904663
42	124.33245921134949	fix_post	2		12.0	40.0	2.5	/experiments/knapen_aot/videos/R_S_yt-FR_Y1Mm8BwQ_53.mp4	0.0	203.72396421432495	0.10000181198120117
43	124.43246102333069	fix_pre	0		127.0	41.0	2.5	/experiments/knapen_aot/videos/R_S_comp_A001_C001_120530_v04_SDR_FINAL_20180706_SDR_2K_AVC.mp4	0.0	203.82396602630615	1.0583109855651855
43	125.48259806632996	response	0	2		41.0	2.5	/experiments/knapen_aot/videos/R_S_comp_A001_C001_120530_v04_SDR_FINAL_20180706_SDR_2K_AVC.mp4	0.0	204.87410306930542	
43	125.49077200889587	movie	1		167.0	41.0	2.5	/experiments/knapen_aot/videos/R_S_comp_A001_C001_120530_v04_SDR_FINAL_20180706_SDR_2K_AVC.mp4	0.0	204.88227701187134	2.508329153060913
43	127.99910116195679	fix_post	2		12.0	41.0	2.5	/experiments/knapen_aot/videos/R_S_comp_A001_C001_120530_v04_SDR_FINAL_20180706_SDR_2K_AVC.mp4	0.0	207.39060616493225	0.10012984275817871
44	128.09923100471497	fix_pre	0		11.0	42.0	2.5	blank	1.0	207.49073600769043	0.09155702590942383
44	128.18262219429016	response	0	2		42.0	2.5	blank	1.0	207.57412719726562	
44	128.1907880306244	movie	1		301.0	42.0	2.5	blank	1.0	207.58229303359985	2.5083119869232178
44	130.6991000175476	fix_post	2		12.0	42.0	2.5	blank	1.0	210.09060502052307	0.09999203681945801
45	130.79909205436707	fix_pre	0		20.0	43.0	2.5	/experiments/knapen_aot/videos/S_ILSVRC2015_train_00538000.mp4	0.0	210.19059705734253	0.16666007041931152
45	130.95760416984558	response	0	4		43.0	2.5	/experiments/knapen_aot/videos/S_ILSVRC2015_train_00538000.mp4	0.0	210.34910917282104	
45	130.96575212478638	movie	1		301.0	43.0	2.5	/experiments/knapen_aot/videos/S_ILSVRC2015_train_00538000.mp4	0.0	210.35725712776184	2.508347988128662
45	133.47410011291504	fix_post	2		12.0	43.0	2.5	/experiments/knapen_aot/videos/S_ILSVRC2015_train_00538000.mp4	0.0	212.8656051158905	0.10001397132873535
46	133.57411408424377	fix_pre	0		20.0	44.0	2.5	/experiments/knapen_aot/videos/S_yt-SCzpSxzt0TA_46.mp4	0.0	212.96561908721924	0.16665911674499512
46	133.73253917694092	response	0	2		44.0	2.5	/experiments/knapen_aot/videos/S_yt-SCzpSxzt0TA_46.mp4	0.0	213.12404417991638	
46	133.74077320098877	movie	1		300.0	44.0	2.5	/experiments/knapen_aot/videos/S_yt-SCzpSxzt0TA_46.mp4	0.0	213.13227820396423	2.5083320140838623
46	136.24910521507263	fix_post	2		12.0	44.0	2.5	/experiments/knapen_aot/videos/S_yt-SCzpSxzt0TA_46.mp4	0.0	215.6406102180481	0.09998178482055664
47	136.3490869998932	fix_pre	0		38.0	45.0	2.5	/experiments/knapen_aot/videos/S_yt-hMyqUMAbFAk_303.mp4	0.0	215.74059200286865	0.3166491985321045
47	136.65755820274353	response	0	2		45.0	2.5	/experiments/knapen_aot/videos/S_yt-hMyqUMAbFAk_303.mp4	0.0	216.049063205719	
47	136.6657361984253	movie	1		301.0	45.0	2.5	/experiments/knapen_aot/videos/S_yt-hMyqUMAbFAk_303.mp4	0.0	216.05724120140076	2.5083508491516113
47	139.1740870475769	fix_post	2		12.0	45.0	2.5	/experiments/knapen_aot/videos/S_yt-hMyqUMAbFAk_303.mp4	0.0	218.56559205055237	0.1000680923461914
48	139.2741551399231	fix_pre	0		10.0	46.0	2.5	/experiments/knapen_aot/videos/S_yt-yPl8LcgSMjo_32.mp4	0.0	218.66566014289856	0.08323192596435547
48	139.34195113182068	response	0	2		46.0	2.5	/experiments/knapen_aot/videos/S_yt-yPl8LcgSMjo_32.mp4	0.0	218.73345613479614	
48	139.35738706588745	movie	1		301.0	46.0	2.5	/experiments/knapen_aot/videos/S_yt-yPl8LcgSMjo_32.mp4	0.0	218.74889206886292	2.508371114730835
48	141.8657581806183	fix_post	2		12.0	46.0	2.5	/experiments/knapen_aot/videos/S_yt-yPl8LcgSMjo_32.mp4	0.0	221.25726318359375	0.10001301765441895
49	141.9657711982727	fix_pre	0		117.0	47.0	2.5	blank	1.0	221.35727620124817	0.9748189449310303
49	142.93252110481262	response	0	2		47.0	2.5	blank	1.0	222.3240261077881	
49	142.94059014320374	movie	1		301.0	47.0	2.5	blank	1.0	222.3320951461792	2.5083839893341064
49	145.44897413253784	fix_post	2		12.0	47.0	2.5	blank	1.0	224.8404791355133	0.10005998611450195
50	145.54903411865234	fix_pre	0		22.0	48.0	2.5	/experiments/knapen_aot/videos/S_production_ID_4428752.mp4	0.0	224.9405391216278	0.18328189849853516
50	145.72414708137512	response	0	2		48.0	2.5	/experiments/knapen_aot/videos/S_production_ID_4428752.mp4	0.0	225.1156520843506	
50	145.73231601715088	movie	1		164.0	48.0	2.5	/experiments/knapen_aot/videos/S_production_ID_4428752.mp4	0.0	225.12382102012634	2.5083370208740234
50	148.2406530380249	fix_post	2		12.0	48.0	2.5	/experiments/knapen_aot/videos/S_production_ID_4428752.mp4	0.0	227.63215804100037	0.10007214546203613
51	148.34072518348694	fix_pre	0		36.0	49.0	2.5	/experiments/knapen_aot/videos/R_S_yt-hMyqUMAbFAk_303.mp4	0.0	227.7322301864624	0.3007528781890869
51	148.63244819641113	response	0	2		49.0	2.5	/experiments/knapen_aot/videos/R_S_yt-hMyqUMAbFAk_303.mp4	0.0	228.0239531993866	
51	148.64147806167603	movie	1		301.0	49.0	2.5	/experiments/knapen_aot/videos/R_S_yt-hMyqUMAbFAk_303.mp4	0.0	228.0329830646515	2.50754714012146
51	151.14902520179749	fix_post	2		12.0	49.0	2.5	/experiments/knapen_aot/videos/R_S_yt-hMyqUMAbFAk_303.mp4	0.0	230.54053020477295	0.0999448299407959
52	151.24897003173828	fix_pre	0		11.0	50.0	2.5	/experiments/knapen_aot/videos/R_S_S005_C015_SDR_2K_AVC.mp4	0.0	230.64047503471375	0.09163117408752441
52	151.33241605758667	response	0	2		50.0	2.5	/experiments/knapen_aot/videos/R_S_S005_C015_SDR_2K_AVC.mp4	0.0	230.72392106056213	
52	151.3406012058258	movie	1		169.0	50.0	2.5	/experiments/knapen_aot/videos/R_S_S005_C015_SDR_2K_AVC.mp4	0.0	230.73210620880127	2.5083940029144287
52	153.84899520874023	fix_post	2		12.0	50.0	2.5	/experiments/knapen_aot/videos/R_S_S005_C015_SDR_2K_AVC.mp4	0.0	233.2405002117157	0.0999448299407959
53	153.94894003868103	fix_pre	0		24.0	51.0	2.5	/experiments/knapen_aot/videos/S_yt-T7RmOAme5dU_213.mp4	0.0	233.3404450416565	0.20003914833068848
53	154.1407401561737	response	0	4		51.0	2.5	/experiments/knapen_aot/videos/S_yt-T7RmOAme5dU_213.mp4	0.0	233.53224515914917	
53	154.14897918701172	movie	1		301.0	51.0	2.5	/experiments/knapen_aot/videos/S_yt-T7RmOAme5dU_213.mp4	0.0	233.54048418998718	2.5083420276641846
53	156.6573212146759	fix_post	2		12.0	51.0	2.5	/experiments/knapen_aot/videos/S_yt-T7RmOAme5dU_213.mp4	0.0	236.04882621765137	0.10001492500305176
54	156.75733613967896	fix_pre	0		21.0	52.0	2.5	/experiments/knapen_aot/videos/S_yt-Dlk44AGz-xM_37.mp4	0.0	236.14884114265442	0.17577004432678223
54	156.92406606674194	response	0	2		52.0	2.5	/experiments/knapen_aot/videos/S_yt-Dlk44AGz-xM_37.mp4	0.0	236.3155710697174	
54	156.93310618400574	movie	1		301.0	52.0	2.5	/experiments/knapen_aot/videos/S_yt-Dlk44AGz-xM_37.mp4	0.0	236.3246111869812	2.507563829421997
54	158.75965309143066	response	1	4		52.0	2.5	/experiments/knapen_aot/videos/S_yt-Dlk44AGz-xM_37.mp4	0.0	238.15115809440613	
54	159.44067001342773	fix_post	2		12.0	52.0	2.5	/experiments/knapen_aot/videos/S_yt-Dlk44AGz-xM_37.mp4	0.0	238.8321750164032	0.0999751091003418
55	159.54064512252808	fix_pre	0		7.0	53.0	2.5	/experiments/knapen_aot/videos/R_S_yt-osz-TXlRdXs_2.mp4	0.0	238.93215012550354	0.059082984924316406
55	159.5907599925995	response	0	4		53.0	2.5	/experiments/knapen_aot/videos/R_S_yt-osz-TXlRdXs_2.mp4	0.0	238.98226499557495	
55	159.5997281074524	movie	1		301.0	53.0	2.5	/experiments/knapen_aot/videos/R_S_yt-osz-TXlRdXs_2.mp4	0.0	238.99123311042786	2.5075490474700928
55	162.10727715492249	fix_post	2		12.0	53.0	2.5	/experiments/knapen_aot/videos/R_S_yt-osz-TXlRdXs_2.mp4	0.0	241.49878215789795	0.09995007514953613
56	162.20722723007202	fix_pre	0		22.0	54.0	2.5	blank	1.0	241.59873223304749	0.18417692184448242
56	162.38249516487122	response	0	2		54.0	2.5	blank	1.0	241.77400016784668	
56	162.3914041519165	movie	1		301.0	54.0	2.5	blank	1.0	241.78290915489197	2.507495880126953
56	164.89890003204346	fix_post	2		12.0	54.0	2.5	blank	1.0	244.29040503501892	0.10004615783691406
57	164.99894618988037	fix_pre	0		22.0	55.0	2.5	/experiments/knapen_aot/videos/S_comp_GMT306_139NC_139J_3066_CALI_TO_VEGAS_v08_SDR_PS_20180824_SDR_2K_AVC.mp4	0.0	244.39045119285583	0.18405580520629883
57	165.1740381717682	response	0	4		55.0	2.5	/experiments/knapen_aot/videos/S_comp_GMT306_139NC_139J_3066_CALI_TO_VEGAS_v08_SDR_PS_20180824_SDR_2K_AVC.mp4	0.0	244.56554317474365	
57	165.18300199508667	movie	1		161.0	55.0	2.5	/experiments/knapen_aot/videos/S_comp_GMT306_139NC_139J_3066_CALI_TO_VEGAS_v08_SDR_PS_20180824_SDR_2K_AVC.mp4	0.0	244.57450699806213	2.50760817527771
57	167.69061017036438	fix_post	2		12.0	55.0	2.5	/experiments/knapen_aot/videos/S_comp_GMT306_139NC_139J_3066_CALI_TO_VEGAS_v08_SDR_PS_20180824_SDR_2K_AVC.mp4	0.0	247.08211517333984	0.09998297691345215
58	167.79059314727783	fix_pre	0		33.0	56.0	2.5	/experiments/knapen_aot/videos/R_S_yt-28ODBE9bVh0_44.mp4	0.0	247.1820981502533	0.2750129699707031
58	168.05737805366516	response	0	2		56.0	2.5	/experiments/knapen_aot/videos/R_S_yt-28ODBE9bVh0_44.mp4	0.0	247.44888305664062	
58	168.06560611724854	movie	1		301.0	56.0	2.5	/experiments/knapen_aot/videos/R_S_yt-28ODBE9bVh0_44.mp4	0.0	247.457111120224	2.5082619190216064
58	170.57386803627014	fix_post	2		12.0	56.0	2.5	/experiments/knapen_aot/videos/R_S_yt-28ODBE9bVh0_44.mp4	0.0	249.9653730392456	0.10000801086425781
59	170.6738760471344	fix_pre	0		7.0	57.0	2.5	/experiments/knapen_aot/videos/S_yt-gzjV6YoK6X0_3.mp4	0.0	250.06538105010986	0.05843806266784668
59	170.71676802635193	response	0	4		57.0	2.5	/experiments/knapen_aot/videos/S_yt-gzjV6YoK6X0_3.mp4	0.0	250.1082730293274	
59	170.73231410980225	movie	1		301.0	57.0	2.5	/experiments/knapen_aot/videos/S_yt-gzjV6YoK6X0_3.mp4	0.0	250.1238191127777	2.5081799030303955
59	173.24049401283264	fix_post	2		12.0	57.0	2.5	/experiments/knapen_aot/videos/S_yt-gzjV6YoK6X0_3.mp4	0.0	252.6319990158081	0.1000211238861084
60	173.34051513671875	fix_pre	0		21.0	58.0	2.5	/experiments/knapen_aot/videos/R_S_ILSVRC2015_train_00538000.mp4	0.0	252.7320201396942	0.17569804191589355
60	173.50725412368774	response	0	2		58.0	2.5	/experiments/knapen_aot/videos/R_S_ILSVRC2015_train_00538000.mp4	0.0	252.8987591266632	
60	173.51621317863464	movie	1		301.0	58.0	2.5	/experiments/knapen_aot/videos/R_S_ILSVRC2015_train_00538000.mp4	0.0	252.9077181816101	2.507611036300659
60	176.0238242149353	fix_post	2		12.0	58.0	2.5	/experiments/knapen_aot/videos/R_S_ILSVRC2015_train_00538000.mp4	0.0	255.41532921791077	0.09999895095825195
61	176.12382316589355	fix_pre	0		25.0	59.0	2.5	/experiments/knapen_aot/videos/R_S_comp_A012_C014_1223PT_v53_SDR_PS_FINAL_20180709_F0F8700_SDR_2K_AVC.mp4	0.0	255.51532816886902	0.20831084251403809
61	176.32391905784607	response	0	4		59.0	2.5	/experiments/knapen_aot/videos/R_S_comp_A012_C014_1223PT_v53_SDR_PS_FINAL_20180709_F0F8700_SDR_2K_AVC.mp4	0.0	255.71542406082153	
61	176.3321340084076	movie	1		170.0	59.0	2.5	/experiments/knapen_aot/videos/R_S_comp_A012_C014_1223PT_v53_SDR_PS_FINAL_20180709_F0F8700_SDR_2K_AVC.mp4	0.0	255.72363901138306	2.508242130279541
61	178.84037613868713	fix_post	2		12.0	59.0	2.5	/experiments/knapen_aot/videos/R_S_comp_A012_C014_1223PT_v53_SDR_PS_FINAL_20180709_F0F8700_SDR_2K_AVC.mp4	0.0	258.2318811416626	0.1000978946685791
62	178.9404740333557	fix_pre	0		16.0	60.0	2.5	/experiments/knapen_aot/videos/S_yt-4wYTkhggZNM_90.mp4	0.0	258.3319790363312	0.13334107398986816
62	179.0655701160431	response	0	2		60.0	2.5	/experiments/knapen_aot/videos/S_yt-4wYTkhggZNM_90.mp4	0.0	258.45707511901855	
62	179.07381510734558	movie	1		301.0	60.0	2.5	/experiments/knapen_aot/videos/S_yt-4wYTkhggZNM_90.mp4	0.0	258.46532011032104	2.5083959102630615
62	181.58221101760864	fix_post	2		12.0	60.0	2.5	/experiments/knapen_aot/videos/S_yt-4wYTkhggZNM_90.mp4	0.0	260.9737160205841	0.09992098808288574
63	181.68213200569153	fix_pre	0		19.0	61.0	2.5	/experiments/knapen_aot/videos/S_ILSVRC2015_train_00549001.mp4	0.0	261.073637008667	0.15831613540649414
63	181.83228206634521	response	0	4		61.0	2.5	/experiments/knapen_aot/videos/S_ILSVRC2015_train_00549001.mp4	0.0	261.2237870693207	
63	181.84044814109802	movie	1		301.0	61.0	2.5	/experiments/knapen_aot/videos/S_ILSVRC2015_train_00549001.mp4	0.0	261.2319531440735	2.5083658695220947
63	184.34881401062012	fix_post	2		12.0	61.0	2.5	/experiments/knapen_aot/videos/S_ILSVRC2015_train_00549001.mp4	0.0	263.7403190135956	0.09998321533203125
64	184.44879722595215	fix_pre	0		23.0	62.0	2.5	/experiments/knapen_aot/videos/R_S_yt-dWF89kq2JIA_13.mp4	0.0	263.8403022289276	0.19246792793273926
64	184.63220405578613	response	0	2		62.0	2.5	/experiments/knapen_aot/videos/R_S_yt-dWF89kq2JIA_13.mp4	0.0	264.0237090587616	
64	184.6412651538849	movie	1		301.0	62.0	2.5	/experiments/knapen_aot/videos/R_S_yt-dWF89kq2JIA_13.mp4	0.0	264.03277015686035	2.5075719356536865
64	187.14883708953857	fix_post	2		12.0	62.0	2.5	/experiments/knapen_aot/videos/R_S_yt-dWF89kq2JIA_13.mp4	0.0	266.54034209251404	0.09993100166320801
65	187.24876809120178	fix_pre	0		23.0	63.0	2.5	blank	1.0	266.64027309417725	0.19169211387634277
65	187.43226408958435	response	0	4		63.0	2.5	blank	1.0	266.8237690925598	
65	187.44046020507812	movie	1		301.0	63.0	2.5	blank	1.0	266.8319652080536	2.5083038806915283
65	189.94876408576965	fix_post	2		12.0	63.0	2.5	blank	1.0	269.3402690887451	0.099945068359375
66	190.04870915412903	fix_pre	0		25.0	64.0	2.5	/experiments/knapen_aot/videos/R_S_ILSVRC2015_train_00549001.mp4	0.0	269.4402141571045	0.2083439826965332
66	190.24886107444763	response	0	2		64.0	2.5	/experiments/knapen_aot/videos/R_S_ILSVRC2015_train_00549001.mp4	0.0	269.6403660774231	
66	190.25705313682556	movie	1		301.0	64.0	2.5	/experiments/knapen_aot/videos/R_S_ILSVRC2015_train_00549001.mp4	0.0	269.648558139801	2.5083999633789062
66	192.76545310020447	fix_post	2		12.0	64.0	2.5	/experiments/knapen_aot/videos/R_S_ILSVRC2015_train_00549001.mp4	0.0	272.15695810317993	0.09995102882385254
67	192.86540412902832	fix_pre	0		23.0	65.0	2.5	/experiments/knapen_aot/videos/R_S_yt-T9Vwt7wFvPk_100.mp4	0.0	272.2569091320038	0.19231295585632324
67	193.04889702796936	response	0	4		65.0	2.5	/experiments/knapen_aot/videos/R_S_yt-T9Vwt7wFvPk_100.mp4	0.0	272.4404020309448	
67	193.05771708488464	movie	1		301.0	65.0	2.5	/experiments/knapen_aot/videos/R_S_yt-T9Vwt7wFvPk_100.mp4	0.0	272.4492220878601	2.507720947265625
67	195.56543803215027	fix_post	2		12.0	65.0	2.5	/experiments/knapen_aot/videos/R_S_yt-T9Vwt7wFvPk_100.mp4	0.0	274.95694303512573	0.10002517700195312
68	195.66546320915222	fix_pre	0		19.0	66.0	2.5	/experiments/knapen_aot/videos/R_S_ILSVRC2015_train_00568000.mp4	0.0	275.0569682121277	0.15828680992126465
68	195.8155860900879	response	0	2		66.0	2.5	/experiments/knapen_aot/videos/R_S_ILSVRC2015_train_00568000.mp4	0.0	275.20709109306335	
68	195.8237500190735	movie	1		300.0	66.0	2.5	/experiments/knapen_aot/videos/R_S_ILSVRC2015_train_00568000.mp4	0.0	275.21525502204895	2.508251190185547
68	198.33200120925903	fix_post	2		12.0	66.0	2.5	/experiments/knapen_aot/videos/R_S_ILSVRC2015_train_00568000.mp4	0.0	277.7235062122345	0.09996199607849121
69	198.43196320533752	fix_pre	0		15.0	67.0	2.5	/experiments/knapen_aot/videos/S_ILSVRC2015_train_00563000.mp4	0.0	277.823468208313	0.125654935836792
69	198.5488440990448	response	0	4		67.0	2.5	/experiments/knapen_aot/videos/S_ILSVRC2015_train_00563000.mp4	0.0	277.94034910202026	
69	198.55761814117432	movie	1		301.0	67.0	2.5	/experiments/knapen_aot/videos/S_ILSVRC2015_train_00563000.mp4	0.0	277.9491231441498	2.5078020095825195
69	201.06542015075684	fix_post	2		12.0	67.0	2.5	/experiments/knapen_aot/videos/S_ILSVRC2015_train_00563000.mp4	0.0	280.4569251537323	0.09990692138671875
70	201.16532707214355	fix_pre	0		32.0	68.0	2.5	blank	1.0	280.556832075119	0.2673790454864502
70	201.41630220413208	response	0	2		68.0	2.5	blank	1.0	280.80780720710754	
70	201.43270611763	movie	1		301.0	68.0	2.5	blank	1.0	280.82421112060547	2.507662057876587
70	203.58209609985352	response	1	4		68.0	2.5	blank	1.0	282.973601102829	
70	203.9403681755066	fix_post	2		12.0	68.0	2.5	blank	1.0	283.33187317848206	0.09993290901184082
71	204.04030108451843	fix_pre	0		17.0	69.0	2.5	/experiments/knapen_aot/videos/S_yt-FR_Y1Mm8BwQ_53.mp4	0.0	283.4318060874939	0.14223408699035645
71	204.17381119728088	response	0	4		69.0	2.5	/experiments/knapen_aot/videos/S_yt-FR_Y1Mm8BwQ_53.mp4	0.0	283.56531620025635	
71	204.1825351715088	movie	1		301.0	69.0	2.5	/experiments/knapen_aot/videos/S_yt-FR_Y1Mm8BwQ_53.mp4	0.0	283.57404017448425	2.5078518390655518
71	206.69038701057434	fix_post	2		12.0	69.0	2.5	/experiments/knapen_aot/videos/S_yt-FR_Y1Mm8BwQ_53.mp4	0.0	286.0818920135498	0.10001301765441895
72	206.79040002822876	fix_pre	0		42.0	70.0	2.5	/experiments/knapen_aot/videos/S_yt-4Qz0m5IYh10_167.mp4	0.0	286.1819050312042	0.3504750728607178
72	207.13213109970093	response	0	2		70.0	2.5	/experiments/knapen_aot/videos/S_yt-4Qz0m5IYh10_167.mp4	0.0	286.5236361026764	
72	207.14087510108948	movie	1		301.0	70.0	2.5	/experiments/knapen_aot/videos/S_yt-4Qz0m5IYh10_167.mp4	0.0	286.53238010406494	2.507801055908203
72	209.64867615699768	fix_post	2		12.0	70.0	2.5	/experiments/knapen_aot/videos/S_yt-4Qz0m5IYh10_167.mp4	0.0	289.04018115997314	0.09999990463256836
73	209.74867606163025	fix_pre	0		13.0	71.0	2.5	/experiments/knapen_aot/videos/S_yt-3EZOeAbiMQE_10.mp4	0.0	289.1401810646057	0.1084139347076416
73	209.84883403778076	response	0	4		71.0	2.5	/experiments/knapen_aot/videos/S_yt-3EZOeAbiMQE_10.mp4	0.0	289.2403390407562	
73	209.8570899963379	movie	1		301.0	71.0	2.5	/experiments/knapen_aot/videos/S_yt-3EZOeAbiMQE_10.mp4	0.0	289.24859499931335	2.5085091590881348
73	212.36559915542603	fix_post	2		12.0	71.0	2.5	/experiments/knapen_aot/videos/S_yt-3EZOeAbiMQE_10.mp4	0.0	291.7571041584015	0.09977102279663086
74	212.46537017822266	fix_pre	0		64.0	72.0	2.5	/experiments/knapen_aot/videos/R_S_yt-zlbtESb7Fcw_28.mp4	0.0	291.8568751811981	0.533282995223999
74	212.9905390739441	response	0	2		72.0	2.5	/experiments/knapen_aot/videos/R_S_yt-zlbtESb7Fcw_28.mp4	0.0	292.38204407691956	
74	212.99865317344666	movie	1		301.0	72.0	2.5	/experiments/knapen_aot/videos/R_S_yt-zlbtESb7Fcw_28.mp4	0.0	292.3901581764221	2.508368968963623
74	215.50702214241028	fix_post	2		12.0	72.0	2.5	/experiments/knapen_aot/videos/R_S_yt-zlbtESb7Fcw_28.mp4	0.0	294.89852714538574	0.09997701644897461
75	215.60699915885925	fix_pre	0		41.0	73.0	2.5	/experiments/knapen_aot/videos/R_S_yt-kiEFK7bDssE_14.mp4	0.0	294.9985041618347	0.34164905548095703
75	215.9329490661621	response	0	4		73.0	2.5	/experiments/knapen_aot/videos/R_S_yt-kiEFK7bDssE_14.mp4	0.0	295.3244540691376	
75	215.9486482143402	movie	1		301.0	73.0	2.5	/experiments/knapen_aot/videos/R_S_yt-kiEFK7bDssE_14.mp4	0.0	295.3401532173157	2.5083329677581787
75	218.4569811820984	fix_post	2		12.0	73.0	2.5	/experiments/knapen_aot/videos/R_S_yt-kiEFK7bDssE_14.mp4	0.0	297.84848618507385	0.1005868911743164
76	218.5575680732727	fix_pre	0		27.0	74.0	2.5	/experiments/knapen_aot/videos/R_S_ILSVRC2015_train_00251004.mp4	0.0	297.94907307624817	0.2243211269378662
76	218.77377820014954	response	0	2		74.0	2.5	/experiments/knapen_aot/videos/R_S_ILSVRC2015_train_00251004.mp4	0.0	298.165283203125	
76	218.78188920021057	movie	1		301.0	74.0	2.5	/experiments/knapen_aot/videos/R_S_ILSVRC2015_train_00251004.mp4	0.0	298.17339420318604	2.5085020065307617
76	221.29039120674133	fix_post	2		12.0	74.0	2.5	/experiments/knapen_aot/videos/R_S_ILSVRC2015_train_00251004.mp4	0.0	300.6818962097168	0.09987998008728027
77	221.3902711868286	fix_pre	0		14.0	75.0	2.5	/experiments/knapen_aot/videos/R_S_ILSVRC2015_train_00563000.mp4	0.0	300.7817761898041	0.11660385131835938
77	221.49874711036682	response	0	2		75.0	2.5	/experiments/knapen_aot/videos/R_S_ILSVRC2015_train_00563000.mp4	0.0	300.8902521133423	
77	221.50687503814697	movie	1		301.0	75.0	2.5	/experiments/knapen_aot/videos/R_S_ILSVRC2015_train_00563000.mp4	0.0	300.89838004112244	2.5084221363067627
77	224.01529717445374	fix_post	2		12.0	75.0	2.5	/experiments/knapen_aot/videos/R_S_ILSVRC2015_train_00563000.mp4	0.0	303.4068021774292	0.09996700286865234
78	224.1152641773224	fix_pre	0		21.0	76.0	2.5	/experiments/knapen_aot/videos/R_S_yt--a-d97T4Gak_75.mp4	0.0	303.50676918029785	0.17499184608459473
78	224.28201699256897	response	0	2		76.0	2.5	/experiments/knapen_aot/videos/R_S_yt--a-d97T4Gak_75.mp4	0.0	303.67352199554443	
78	224.29025602340698	movie	1		301.0	76.0	2.5	/experiments/knapen_aot/videos/R_S_yt--a-d97T4Gak_75.mp4	0.0	303.68176102638245	2.508395195007324
78	226.7986512184143	fix_post	2		12.0	76.0	2.5	/experiments/knapen_aot/videos/R_S_yt--a-d97T4Gak_75.mp4	0.0	306.19015622138977	0.09987282752990723
79	226.8985240459442	fix_pre	0		19.0	77.0	2.5	blank	1.0	306.2900290489197	0.1588301658630371
79	227.04869103431702	response	0	4		77.0	2.5	blank	1.0	306.4401960372925	
79	227.05735421180725	movie	1		301.0	77.0	2.5	blank	1.0	306.4488592147827	2.507858991622925
79	229.56521320343018	fix_post	2		12.0	77.0	2.5	blank	1.0	308.95671820640564	0.09994292259216309
80	229.66515612602234	fix_pre	0		22.0	78.0	2.5	/experiments/knapen_aot/videos/R_S_pexels-laker-5793000.mp4	0.0	309.0566611289978	0.18380498886108398
80	229.8403480052948	response	0	2		78.0	2.5	/experiments/knapen_aot/videos/R_S_pexels-laker-5793000.mp4	0.0	309.23185300827026	
80	229.84896111488342	movie	1		164.0	78.0	2.5	/experiments/knapen_aot/videos/R_S_pexels-laker-5793000.mp4	0.0	309.2404661178589	2.507906913757324
80	232.35686802864075	fix_post	2		12.0	78.0	2.5	/experiments/knapen_aot/videos/R_S_pexels-laker-5793000.mp4	0.0	311.7483730316162	0.10001707077026367
81	232.456885099411	fix_pre	0		17.0	79.0	2.5	/experiments/knapen_aot/videos/S_yt-FbCVXEJicis_5.mp4	0.0	311.8483901023865	0.1419990062713623
81	232.59035801887512	response	0	2		79.0	2.5	/experiments/knapen_aot/videos/S_yt-FbCVXEJicis_5.mp4	0.0	311.9818630218506	
81	232.59888410568237	movie	1		301.0	79.0	2.5	/experiments/knapen_aot/videos/S_yt-FbCVXEJicis_5.mp4	0.0	311.99038910865784	2.5079050064086914
81	235.10678911209106	fix_post	2		12.0	79.0	2.5	/experiments/knapen_aot/videos/S_yt-FbCVXEJicis_5.mp4	0.0	314.4982941150665	0.10007810592651367
82	235.20686721801758	fix_pre	0		25.0	80.0	2.5	/experiments/knapen_aot/videos/R_S_yt-Wf-RauSbVgA_56.mp4	0.0	314.59837222099304	0.20831680297851562
82	235.40700817108154	response	0	2		80.0	2.5	/experiments/knapen_aot/videos/R_S_yt-Wf-RauSbVgA_56.mp4	0.0	314.798513174057	
82	235.4151840209961	movie	1		300.0	80.0	2.5	/experiments/knapen_aot/videos/R_S_yt-Wf-RauSbVgA_56.mp4	0.0	314.80668902397156	2.508273124694824
82	237.92345714569092	fix_post	2		12.0	80.0	2.5	/experiments/knapen_aot/videos/R_S_yt-Wf-RauSbVgA_56.mp4	0.0	317.3149621486664	0.10001707077026367
83	238.02347421646118	fix_pre	0		37.0	81.0	2.5	/experiments/knapen_aot/videos/R_S_bing-www_msn_com_en-us_video_news_tommy-lasorda-salutes-national-league-champs_vp-AAtLThQ_4.mp4	0.0	317.41497921943665	0.30827999114990234
83	238.32360315322876	response	0	2		81.0	2.5	/experiments/knapen_aot/videos/R_S_bing-www_msn_com_en-us_video_news_tommy-lasorda-salutes-national-league-champs_vp-AAtLThQ_4.mp4	0.0	317.7151081562042	
83	238.33175420761108	movie	1		164.0	81.0	2.5	/experiments/knapen_aot/videos/R_S_bing-www_msn_com_en-us_video_news_tommy-lasorda-salutes-national-league-champs_vp-AAtLThQ_4.mp4	0.0	317.72325921058655	2.508443832397461
83	240.84019804000854	fix_post	2		12.0	81.0	2.5	/experiments/knapen_aot/videos/R_S_bing-www_msn_com_en-us_video_news_tommy-lasorda-salutes-national-league-champs_vp-AAtLThQ_4.mp4	0.0	320.231703042984	0.09994816780090332
84	240.94014620780945	fix_pre	0		25.0	82.0	2.5	/experiments/knapen_aot/videos/S_yt-zgkJCgcT1s4_300.mp4	0.0	320.3316512107849	0.20833897590637207
84	241.14027309417725	response	0	2		82.0	2.5	/experiments/knapen_aot/videos/S_yt-zgkJCgcT1s4_300.mp4	0.0	320.5317780971527	
84	241.14848518371582	movie	1		301.0	82.0	2.5	/experiments/knapen_aot/videos/S_yt-zgkJCgcT1s4_300.mp4	0.0	320.5399901866913	2.5083420276641846
84	243.65682721138	fix_post	2		12.0	82.0	2.5	/experiments/knapen_aot/videos/S_yt-zgkJCgcT1s4_300.mp4	0.0	323.04833221435547	0.09991097450256348
85	243.75673818588257	fix_pre	0		20.0	83.0	2.5	blank	1.0	323.14824318885803	0.1666889190673828
85	243.91533422470093	response	0	2		83.0	2.5	blank	1.0	323.3068392276764	
85	243.92342710494995	movie	1		301.0	83.0	2.5	blank	1.0	323.3149321079254	2.508270025253296
85	246.43169713020325	fix_post	2		12.0	83.0	2.5	blank	1.0	325.8232021331787	0.10013508796691895
87	246.53183221817017	stim	0		59.0					325.92333722114563	0.4915778636932373
87	247.0181920528412	response	0	space						326.40969705581665	
