trial_nr	onset	event_type	phase	response	nr_frames	movie_index	movie_duration	movie_file	blank	onset_abs	duration
0	0.13295602798461914	stim	0		67.0					59.35637712478638	0.5583579540252686
0	0.6831040382385254	response	0	space						59.90652513504028	
1	0.6913139820098877	stim	0		121.0					59.914735078811646	1.007972002029419
1	1.4167819023132324	response	0	space						60.64020299911499	
1	1.4295680522918701	response	0	2						60.65298914909363	
1	1.6992859840393066	stim	1		120.0					60.922707080841064	0.9999549388885498
1	2.0244078636169434	response	1	4						61.2478289604187	
1	2.0867879390716553	response	1	space						61.31020903587341	
1	2.4578440189361572	response	1	space						61.681265115737915	
2	2.6992409229278564	fix_pre	0		13.0	0.0	2.5	/experiments/knapen_aot/videos/R_S_yt-QD74nNliDvI_10.mp4	0.0	61.922662019729614	0.10829806327819824
2	2.7993969917297363	response	0	space		0.0	2.5	/experiments/knapen_aot/videos/R_S_yt-QD74nNliDvI_10.mp4	0.0	62.022818088531494	
2	2.8075389862060547	movie	1		299.0	0.0	2.5	/experiments/knapen_aot/videos/R_S_yt-QD74nNliDvI_10.mp4	0.0	62.03096008300781	2.5083389282226562
2	5.315877914428711	fix_post	2		12.0	0.0	2.5	/experiments/knapen_aot/videos/R_S_yt-QD74nNliDvI_10.mp4	0.0	64.53929901123047	0.10026812553405762
3	5.4161460399627686	fix_pre	0		28.0	1.0	2.5	/experiments/knapen_aot/videos/R_S_yt-jcuaf9iSEkI_169.mp4	0.0	64.63956713676453	0.23618483543395996
3	5.638439893722534	response	0	4		1.0	2.5	/experiments/knapen_aot/videos/R_S_yt-jcuaf9iSEkI_169.mp4	0.0	64.86186099052429	
3	5.6523308753967285	movie	1		293.0	1.0	2.5	/experiments/knapen_aot/videos/R_S_yt-jcuaf9iSEkI_169.mp4	0.0	64.87575197219849	2.5052192211151123
3	8.15755009651184	fix_post	2		12.0	1.0	2.5	/experiments/knapen_aot/videos/R_S_yt-jcuaf9iSEkI_169.mp4	0.0	67.3809711933136	0.09996485710144043
4	8.257514953613281	fix_pre	0		2.0	2.0	2.5	/experiments/knapen_aot/videos/S_yt-9NV8zv2Sdq4_30.mp4	0.0	67.48093605041504	0.016782045364379883
4	8.26614499092102	response	0	4		2.0	2.5	/experiments/knapen_aot/videos/S_yt-9NV8zv2Sdq4_30.mp4	0.0	67.48956608772278	
4	8.274296998977661	movie	1		301.0	2.0	2.5	/experiments/knapen_aot/videos/S_yt-9NV8zv2Sdq4_30.mp4	0.0	67.49771809577942	2.5082380771636963
4	10.782535076141357	fix_post	2		12.0	2.0	2.5	/experiments/knapen_aot/videos/S_yt-9NV8zv2Sdq4_30.mp4	0.0	70.00595617294312	0.09999299049377441
5	10.882528066635132	fix_pre	0		10.0	3.0	2.5	/experiments/knapen_aot/videos/R_S_video_inspire_uk_edinburgh_arthursseat_010.1080-h264.mp4	0.0	70.10594916343689	0.08329081535339355
5	10.957693099975586	response	0	4		3.0	2.5	/experiments/knapen_aot/videos/R_S_video_inspire_uk_edinburgh_arthursseat_010.1080-h264.mp4	0.0	70.18111419677734	
5	10.965818881988525	movie	1		173.0	3.0	2.5	/experiments/knapen_aot/videos/R_S_video_inspire_uk_edinburgh_arthursseat_010.1080-h264.mp4	0.0	70.18923997879028	2.5084102153778076
5	13.474229097366333	fix_post	2		12.0	3.0	2.5	/experiments/knapen_aot/videos/R_S_video_inspire_uk_edinburgh_arthursseat_010.1080-h264.mp4	0.0	72.69765019416809	0.09996795654296875
6	13.574197053909302	fix_pre	0		18.0	4.0	2.5	/experiments/knapen_aot/videos/S_yt-UPgF4YAHBQY_33.mp4	0.0	72.79761815071106	0.15000200271606445
6	13.715905904769897	response	0	4		4.0	2.5	/experiments/knapen_aot/videos/S_yt-UPgF4YAHBQY_33.mp4	0.0	72.93932700157166	
6	13.724199056625366	movie	1		301.0	4.0	2.5	/experiments/knapen_aot/videos/S_yt-UPgF4YAHBQY_33.mp4	0.0	72.94762015342712	2.5083088874816895
6	15.861618995666504	response	1	4		4.0	2.5	/experiments/knapen_aot/videos/S_yt-UPgF4YAHBQY_33.mp4	0.0	75.08504009246826	
6	16.232507944107056	fix_post	2		12.0	4.0	2.5	/experiments/knapen_aot/videos/S_yt-UPgF4YAHBQY_33.mp4	0.0	75.45592904090881	0.10022807121276855
7	16.332736015319824	fix_pre	0		4.0	5.0	2.5	/experiments/knapen_aot/videos/S_ILSVRC2015_train_00363000.mp4	0.0	75.55615711212158	0.03471708297729492
7	16.357594966888428	response	0	4		5.0	2.5	/experiments/knapen_aot/videos/S_ILSVRC2015_train_00363000.mp4	0.0	75.58101606369019	
7	16.36745309829712	movie	1		301.0	5.0	2.5	/experiments/knapen_aot/videos/S_ILSVRC2015_train_00363000.mp4	0.0	75.59087419509888	2.5067458152770996
7	18.87419891357422	fix_post	2		12.0	5.0	2.5	/experiments/knapen_aot/videos/S_ILSVRC2015_train_00363000.mp4	0.0	78.09762001037598	0.09992814064025879
8	18.974127054214478	fix_pre	0		14.0	6.0	2.5	blank	1.0	78.19754815101624	0.11668682098388672
8	19.082499027252197	response	0	4		6.0	2.5	blank	1.0	78.30592012405396	
8	19.090813875198364	movie	1		301.0	6.0	2.5	blank	1.0	78.31423497200012	2.50832200050354
8	21.365928888320923	response	1	4		6.0	2.5	blank	1.0	80.58934998512268	
8	21.599135875701904	fix_post	2		12.0	6.0	2.5	blank	1.0	80.82255697250366	0.09998512268066406
9	21.69912099838257	fix_pre	0		1.0	7.0	2.5	/experiments/knapen_aot/videos/S_yt-0MB_IYX1fgo_44.mp4	0.0	80.92254209518433	0.008553028106689453
9	21.701149940490723	response	0	4		7.0	2.5	/experiments/knapen_aot/videos/S_yt-0MB_IYX1fgo_44.mp4	0.0	80.92457103729248	
9	21.707674026489258	movie	1		301.0	7.0	2.5	/experiments/knapen_aot/videos/S_yt-0MB_IYX1fgo_44.mp4	0.0	80.93109512329102	2.508141040802002
9	24.21581506729126	fix_post	2		12.0	7.0	2.5	/experiments/knapen_aot/videos/S_yt-0MB_IYX1fgo_44.mp4	0.0	83.43923616409302	0.09998893737792969
10	24.31580400466919	fix_pre	0		23.0	8.0	2.5	/experiments/knapen_aot/videos/S_yt-6KJ_yZR-Jco_14.mp4	0.0	83.53922510147095	0.1916050910949707
10	24.499254941940308	response	0	4		8.0	2.5	/experiments/knapen_aot/videos/S_yt-6KJ_yZR-Jco_14.mp4	0.0	83.72267603874207	
10	24.50740909576416	movie	1		301.0	8.0	2.5	/experiments/knapen_aot/videos/S_yt-6KJ_yZR-Jco_14.mp4	0.0	83.73083019256592	2.5083189010620117
10	27.015727996826172	fix_post	2		12.0	8.0	2.5	/experiments/knapen_aot/videos/S_yt-6KJ_yZR-Jco_14.mp4	0.0	86.23914909362793	0.10004997253417969
11	27.11577796936035	fix_pre	0		35.0	9.0	2.5	/experiments/knapen_aot/videos/S_yt-8fQ9LaF8U10_382.mp4	0.0	86.33919906616211	0.2916591167449951
11	27.39923906326294	response	0	4		9.0	2.5	/experiments/knapen_aot/videos/S_yt-8fQ9LaF8U10_382.mp4	0.0	86.6226601600647	
11	27.407437086105347	movie	1		301.0	9.0	2.5	/experiments/knapen_aot/videos/S_yt-8fQ9LaF8U10_382.mp4	0.0	86.6308581829071	2.5083727836608887
11	29.915809869766235	fix_post	2		12.0	9.0	2.5	/experiments/knapen_aot/videos/S_yt-8fQ9LaF8U10_382.mp4	0.0	89.139230966568	0.09997916221618652
12	30.015789031982422	fix_pre	0		4.0	10.0	2.5	/experiments/knapen_aot/videos/R_S_yt-pB9w3AA-woE_37.mp4	0.0	89.23921012878418	0.03335690498352051
12	30.040912866592407	response	0	4		10.0	2.5	/experiments/knapen_aot/videos/R_S_yt-pB9w3AA-woE_37.mp4	0.0	89.26433396339417	
12	30.049145936965942	movie	1		301.0	10.0	2.5	/experiments/knapen_aot/videos/R_S_yt-pB9w3AA-woE_37.mp4	0.0	89.2725670337677	2.5082690715789795
12	32.55741500854492	fix_post	2		12.0	10.0	2.5	/experiments/knapen_aot/videos/R_S_yt-pB9w3AA-woE_37.mp4	0.0	91.78083610534668	0.10001802444458008
13	32.6574330329895	fix_pre	0		17.0	11.0	2.5	/experiments/knapen_aot/videos/S_yt-8fQ9LaF8U10_382.mp4	0.0	91.88085412979126	0.14168190956115723
13	32.79087805747986	response	0	4		11.0	2.5	/experiments/knapen_aot/videos/S_yt-8fQ9LaF8U10_382.mp4	0.0	92.01429915428162	
13	32.79911494255066	movie	1		301.0	11.0	2.5	/experiments/knapen_aot/videos/S_yt-8fQ9LaF8U10_382.mp4	0.0	92.02253603935242	2.5082690715789795
13	35.30738401412964	fix_post	2		12.0	11.0	2.5	/experiments/knapen_aot/videos/S_yt-8fQ9LaF8U10_382.mp4	0.0	94.5308051109314	0.10159492492675781
13	35.39925408363342	response	2	4		11.0	2.5	/experiments/knapen_aot/videos/S_yt-8fQ9LaF8U10_382.mp4	0.0	94.62267518043518	
14	35.4089789390564	fix_pre	0		43.0	12.0	2.5	/experiments/knapen_aot/videos/S_yt-5MyvZYFlc9g_125.mp4	0.0	94.63240003585815	0.3568079471588135
14	35.75750803947449	response	0	4		12.0	2.5	/experiments/knapen_aot/videos/S_yt-5MyvZYFlc9g_125.mp4	0.0	94.98092913627625	
14	35.76578688621521	movie	1		301.0	12.0	2.5	/experiments/knapen_aot/videos/S_yt-5MyvZYFlc9g_125.mp4	0.0	94.98920798301697	2.508301019668579
14	38.27408790588379	fix_post	2		12.0	12.0	2.5	/experiments/knapen_aot/videos/S_yt-5MyvZYFlc9g_125.mp4	0.0	97.49750900268555	0.1000661849975586
15	38.37415409088135	fix_pre	0		21.0	13.0	2.5	/experiments/knapen_aot/videos/R_S_pexels-diva-plavalaguna-6985395.mp4	0.0	97.5975751876831	0.1748828887939453
15	38.54095196723938	response	0	4		13.0	2.5	/experiments/knapen_aot/videos/R_S_pexels-diva-plavalaguna-6985395.mp4	0.0	97.76437306404114	
15	38.54903697967529	movie	1		169.0	13.0	2.5	/experiments/knapen_aot/videos/R_S_pexels-diva-plavalaguna-6985395.mp4	0.0	97.77245807647705	2.5083401203155518
15	41.057377099990845	fix_post	2		12.0	13.0	2.5	/experiments/knapen_aot/videos/R_S_pexels-diva-plavalaguna-6985395.mp4	0.0	100.2807981967926	0.10007596015930176
16	41.15745306015015	fix_pre	0		15.0	14.0	2.5	blank	1.0	100.3808741569519	0.12494397163391113
16	41.27418899536133	response	0	4		14.0	2.5	blank	1.0	100.49761009216309	
16	41.28239703178406	movie	1		301.0	14.0	2.5	blank	1.0	100.50581812858582	2.5083818435668945
16	43.79077887535095	fix_post	2		12.0	14.0	2.5	blank	1.0	103.01419997215271	0.09985613822937012
17	43.89063501358032	fix_pre	0		17.0	15.0	2.5	/experiments/knapen_aot/videos/R_S_production_ID_4325516.mp4	0.0	103.11405611038208	0.1417529582977295
17	44.024336099624634	response	0	4		15.0	2.5	/experiments/knapen_aot/videos/R_S_production_ID_4325516.mp4	0.0	103.24775719642639	
17	44.03238797187805	movie	1		210.0	15.0	2.5	/experiments/knapen_aot/videos/R_S_production_ID_4325516.mp4	0.0	103.25580906867981	2.5083820819854736
17	46.540770053863525	fix_post	2		12.0	15.0	2.5	/experiments/knapen_aot/videos/R_S_production_ID_4325516.mp4	0.0	105.76419115066528	0.09992384910583496
18	46.64069390296936	fix_pre	0		52.0	16.0	2.5	/experiments/knapen_aot/videos/S_yt-FzMLLmcD1mE_19.mp4	0.0	105.86411499977112	0.4333231449127197
18	47.06582689285278	response	0	4		16.0	2.5	/experiments/knapen_aot/videos/S_yt-FzMLLmcD1mE_19.mp4	0.0	106.28924798965454	
18	47.07401704788208	movie	1		301.0	16.0	2.5	/experiments/knapen_aot/videos/S_yt-FzMLLmcD1mE_19.mp4	0.0	106.29743814468384	2.5084710121154785
18	49.22417593002319	response	1	4		16.0	2.5	/experiments/knapen_aot/videos/S_yt-FzMLLmcD1mE_19.mp4	0.0	108.44759702682495	
18	49.58248805999756	fix_post	2		12.0	16.0	2.5	/experiments/knapen_aot/videos/S_yt-FzMLLmcD1mE_19.mp4	0.0	108.80590915679932	0.09987497329711914
19	49.68236303329468	fix_pre	0		71.0	17.0	2.5	/experiments/knapen_aot/videos/S_yt-xKteiAi5h7Q_36.mp4	0.0	108.90578413009644	0.5916578769683838
19	50.26574397087097	response	0	4		17.0	2.5	/experiments/knapen_aot/videos/S_yt-xKteiAi5h7Q_36.mp4	0.0	109.48916506767273	
19	50.27402091026306	movie	1		301.0	17.0	2.5	/experiments/knapen_aot/videos/S_yt-xKteiAi5h7Q_36.mp4	0.0	109.49744200706482	2.508366107940674
19	52.782387018203735	fix_post	2		12.0	17.0	2.5	/experiments/knapen_aot/videos/S_yt-xKteiAi5h7Q_36.mp4	0.0	112.0058081150055	0.09990406036376953
20	52.882291078567505	fix_pre	0		11.0	18.0	2.5	/experiments/knapen_aot/videos/R_S_yt-ZYrQIw9VUok_111.mp4	0.0	112.10571217536926	0.09167098999023438
20	52.96578502655029	response	0	4		18.0	2.5	/experiments/knapen_aot/videos/R_S_yt-ZYrQIw9VUok_111.mp4	0.0	112.18920612335205	
20	52.97396206855774	movie	1		301.0	18.0	2.5	/experiments/knapen_aot/videos/R_S_yt-ZYrQIw9VUok_111.mp4	0.0	112.1973831653595	2.5084078311920166
20	55.482369899749756	fix_post	2		12.0	18.0	2.5	/experiments/knapen_aot/videos/R_S_yt-ZYrQIw9VUok_111.mp4	0.0	114.70579099655151	0.09997701644897461
21	55.58234691619873	fix_pre	0		5.0	19.0	2.5	blank	1.0	114.80576801300049	0.05005002021789551
21	55.616015911102295	response	0	4		19.0	2.5	blank	1.0	114.83943700790405	
21	55.632396936416626	movie	1		300.0	19.0	2.5	blank	1.0	114.85581803321838	2.4999821186065674
21	56.8158118724823	response	1	4		19.0	2.5	blank	1.0	116.03923296928406	
21	57.40743589401245	response	1	4		19.0	2.5	blank	1.0	116.63085699081421	
21	57.94912004470825	response	1	4		19.0	2.5	blank	1.0	117.17254114151001	
21	58.13237905502319	fix_post	2		12.0	19.0	2.5	blank	1.0	117.35580015182495	0.09999990463256836
22	58.23237895965576	fix_pre	0		18.0	20.0	2.5	/experiments/knapen_aot/videos/R_S_yt-SCzpSxzt0TA_46.mp4	0.0	117.45580005645752	0.14997410774230957
22	58.37411189079285	response	0	4		20.0	2.5	/experiments/knapen_aot/videos/R_S_yt-SCzpSxzt0TA_46.mp4	0.0	117.5975329875946	
22	58.38235306739807	movie	1		301.0	20.0	2.5	/experiments/knapen_aot/videos/R_S_yt-SCzpSxzt0TA_46.mp4	0.0	117.60577416419983	2.5083208084106445
22	60.890673875808716	fix_post	2		12.0	20.0	2.5	/experiments/knapen_aot/videos/R_S_yt-SCzpSxzt0TA_46.mp4	0.0	120.11409497261047	0.09999513626098633
23	60.9906690120697	fix_pre	0		50.0	21.0	2.5	/experiments/knapen_aot/videos/R_S_-vPHq-7BJ70_15.mp4	0.0	120.21409010887146	0.41660094261169434
23	61.39907908439636	response	0	4		21.0	2.5	/experiments/knapen_aot/videos/R_S_-vPHq-7BJ70_15.mp4	0.0	120.62250018119812	
23	61.4072699546814	movie	1		301.0	21.0	2.5	/experiments/knapen_aot/videos/R_S_-vPHq-7BJ70_15.mp4	0.0	120.63069105148315	2.508397102355957
23	63.91566705703735	fix_post	2		12.0	21.0	2.5	/experiments/knapen_aot/videos/R_S_-vPHq-7BJ70_15.mp4	0.0	123.13908815383911	0.09999299049377441
24	64.01566004753113	fix_pre	0		25.0	22.0	2.5	/experiments/knapen_aot/videos/R_S_yt-8RmEimCI80g_35.mp4	0.0	123.23908114433289	0.20827603340148926
24	64.21590495109558	response	0	4		22.0	2.5	/experiments/knapen_aot/videos/R_S_yt-8RmEimCI80g_35.mp4	0.0	123.43932604789734	
24	64.22393608093262	movie	1		300.0	22.0	2.5	/experiments/knapen_aot/videos/R_S_yt-8RmEimCI80g_35.mp4	0.0	123.44735717773438	2.508296012878418
24	66.73223209381104	fix_post	2		12.0	22.0	2.5	/experiments/knapen_aot/videos/R_S_yt-8RmEimCI80g_35.mp4	0.0	125.9556531906128	0.10005784034729004
25	66.83228993415833	fix_pre	0		31.0	23.0	2.5	/experiments/knapen_aot/videos/S_yt-Fci3dBzt2T4_223.mp4	0.0	126.05571103096008	0.25833916664123535
25	67.08235502243042	response	0	4		23.0	2.5	/experiments/knapen_aot/videos/S_yt-Fci3dBzt2T4_223.mp4	0.0	126.30577611923218	
25	67.09062910079956	movie	1		301.0	23.0	2.5	/experiments/knapen_aot/videos/S_yt-Fci3dBzt2T4_223.mp4	0.0	126.31405019760132	2.508328914642334
25	69.5989580154419	fix_post	2		12.0	23.0	2.5	/experiments/knapen_aot/videos/S_yt-Fci3dBzt2T4_223.mp4	0.0	128.82237911224365	0.0999748706817627
26	69.69893288612366	fix_pre	0		35.0	24.0	2.5	/experiments/knapen_aot/videos/R_S_yt-tX3slAQb9yY_13.mp4	0.0	128.92235398292542	0.2916691303253174
26	69.9824149608612	response	0	4		24.0	2.5	/experiments/knapen_aot/videos/R_S_yt-tX3slAQb9yY_13.mp4	0.0	129.20583605766296	
26	69.99060201644897	movie	1		301.0	24.0	2.5	/experiments/knapen_aot/videos/R_S_yt-tX3slAQb9yY_13.mp4	0.0	129.21402311325073	2.5083370208740234
26	72.498939037323	fix_post	2		12.0	24.0	2.5	/experiments/knapen_aot/videos/R_S_yt-tX3slAQb9yY_13.mp4	0.0	131.72236013412476	0.09997200965881348
27	72.59891104698181	fix_pre	0		5.0	25.0	2.5	/experiments/knapen_aot/videos/R_S_ILSVRC2015_train_00572001.mp4	0.0	131.82233214378357	0.041777849197387695
27	72.62591886520386	response	0	4		25.0	2.5	/experiments/knapen_aot/videos/R_S_ILSVRC2015_train_00572001.mp4	0.0	131.84933996200562	
27	72.6406888961792	movie	1		300.0	25.0	2.5	/experiments/knapen_aot/videos/R_S_ILSVRC2015_train_00572001.mp4	0.0	131.86410999298096	2.5082790851593018
27	75.1489679813385	fix_post	2		12.0	25.0	2.5	/experiments/knapen_aot/videos/R_S_ILSVRC2015_train_00572001.mp4	0.0	134.37238907814026	0.09998106956481934
28	75.24894905090332	fix_pre	0		7.0	26.0	2.5	/experiments/knapen_aot/videos/R_S_ILSVRC2015_train_00219004.mp4	0.0	134.47237014770508	0.0583188533782959
28	75.29171895980835	response	0	4		26.0	2.5	/experiments/knapen_aot/videos/R_S_ILSVRC2015_train_00219004.mp4	0.0	134.5151400566101	
28	75.30726790428162	movie	1		301.0	26.0	2.5	/experiments/knapen_aot/videos/R_S_ILSVRC2015_train_00219004.mp4	0.0	134.53068900108337	2.5083250999450684
28	77.81559300422668	fix_post	2		12.0	26.0	2.5	/experiments/knapen_aot/videos/R_S_ILSVRC2015_train_00219004.mp4	0.0	137.03901410102844	0.10002589225769043
29	77.91561889648438	fix_pre	0		21.0	27.0	2.5	/experiments/knapen_aot/videos/S_yt-V5iQ3MbihnI_103.mp4	0.0	137.13903999328613	0.17497611045837402
29	78.08242797851562	response	0	4		27.0	2.5	/experiments/knapen_aot/videos/S_yt-V5iQ3MbihnI_103.mp4	0.0	137.30584907531738	
29	78.09059500694275	movie	1		301.0	27.0	2.5	/experiments/knapen_aot/videos/S_yt-V5iQ3MbihnI_103.mp4	0.0	137.3140161037445	2.508333921432495
29	79.77403497695923	response	1	4		27.0	2.5	/experiments/knapen_aot/videos/S_yt-V5iQ3MbihnI_103.mp4	0.0	138.997456073761	
29	80.59892892837524	fix_post	2		12.0	27.0	2.5	/experiments/knapen_aot/videos/S_yt-V5iQ3MbihnI_103.mp4	0.0	139.822350025177	0.10004615783691406
30	80.69897508621216	fix_pre	0		16.0	28.0	2.5	blank	1.0	139.92239618301392	0.13339686393737793
30	80.82404899597168	response	0	4		28.0	2.5	blank	1.0	140.04747009277344	
30	80.83237195014954	movie	1		301.0	28.0	2.5	blank	1.0	140.0557930469513	2.508229970932007
30	83.34060192108154	fix_post	2		12.0	28.0	2.5	blank	1.0	142.5640230178833	0.09997105598449707
31	83.44057297706604	fix_pre	0		11.0	29.0	2.5	/experiments/knapen_aot/videos/R_S_ILSVRC2015_train_00524001.mp4	0.0	142.6639940738678	0.09289193153381348
31	83.5241060256958	response	0	4		29.0	2.5	/experiments/knapen_aot/videos/R_S_ILSVRC2015_train_00524001.mp4	0.0	142.74752712249756	
31	83.53346490859985	movie	1		301.0	29.0	2.5	/experiments/knapen_aot/videos/R_S_ILSVRC2015_train_00524001.mp4	0.0	142.7568860054016	2.5071210861206055
31	86.04058599472046	fix_post	2		12.0	29.0	2.5	/experiments/knapen_aot/videos/R_S_ILSVRC2015_train_00524001.mp4	0.0	145.26400709152222	0.1000208854675293
32	86.14060688018799	fix_pre	0		37.0	30.0	2.5	/experiments/knapen_aot/videos/R_S_yt-Ev39pXXfr1Y_152.mp4	0.0	145.36402797698975	0.30951404571533203
32	86.44067597389221	response	0	4		30.0	2.5	/experiments/knapen_aot/videos/R_S_yt-Ev39pXXfr1Y_152.mp4	0.0	145.66409707069397	
32	86.45012092590332	movie	1		301.0	30.0	2.5	/experiments/knapen_aot/videos/R_S_yt-Ev39pXXfr1Y_152.mp4	0.0	145.67354202270508	2.507117986679077
32	88.84906888008118	response	1	4		30.0	2.5	/experiments/knapen_aot/videos/R_S_yt-Ev39pXXfr1Y_152.mp4	0.0	148.07248997688293	
32	88.9572389125824	fix_post	2		12.0	30.0	2.5	/experiments/knapen_aot/videos/R_S_yt-Ev39pXXfr1Y_152.mp4	0.0	148.18066000938416	0.09999299049377441
33	89.05723190307617	fix_pre	0		51.0	31.0	2.5	/experiments/knapen_aot/videos/S_yt-kawmL3oVw8c_2.mp4	0.0	148.28065299987793	0.42497897148132324
33	89.47400307655334	response	0	4		31.0	2.5	/experiments/knapen_aot/videos/S_yt-kawmL3oVw8c_2.mp4	0.0	148.6974241733551	
33	89.4822108745575	movie	1		301.0	31.0	2.5	/experiments/knapen_aot/videos/S_yt-kawmL3oVw8c_2.mp4	0.0	148.70563197135925	2.508345127105713
33	91.99055600166321	fix_post	2		12.0	31.0	2.5	/experiments/knapen_aot/videos/S_yt-kawmL3oVw8c_2.mp4	0.0	151.21397709846497	0.10000991821289062
34	92.0905659198761	fix_pre	0		30.0	32.0	2.5	/experiments/knapen_aot/videos/R_S_Person_Going_Through_A_Bible.mp4	0.0	151.31398701667786	0.2499861717224121
34	92.33238506317139	response	0	4		32.0	2.5	/experiments/knapen_aot/videos/R_S_Person_Going_Through_A_Bible.mp4	0.0	151.55580615997314	
34	92.34055209159851	movie	1		165.0	32.0	2.5	/experiments/knapen_aot/videos/R_S_Person_Going_Through_A_Bible.mp4	0.0	151.56397318840027	2.508307933807373
34	94.84886002540588	fix_post	2		12.0	32.0	2.5	/experiments/knapen_aot/videos/R_S_Person_Going_Through_A_Bible.mp4	0.0	154.07228112220764	0.09993386268615723
35	94.94879388809204	fix_pre	0		30.0	33.0	2.5	/experiments/knapen_aot/videos/R_S_comp_LA_A006_C008_PSNK_ALL_LOGOS_v10_SDR_PS_FINAL_20180801_SDR_2K_AVC.mp4	0.0	154.1722149848938	0.2512190341949463
35	95.19058108329773	response	0	4		33.0	2.5	/experiments/knapen_aot/videos/R_S_comp_LA_A006_C008_PSNK_ALL_LOGOS_v10_SDR_PS_FINAL_20180801_SDR_2K_AVC.mp4	0.0	154.4140021800995	
35	95.20001292228699	movie	1		172.0	33.0	2.5	/experiments/knapen_aot/videos/R_S_comp_LA_A006_C008_PSNK_ALL_LOGOS_v10_SDR_PS_FINAL_20180801_SDR_2K_AVC.mp4	0.0	154.42343401908875	2.50715708732605
35	97.70717000961304	fix_post	2		12.0	33.0	2.5	/experiments/knapen_aot/videos/R_S_comp_LA_A006_C008_PSNK_ALL_LOGOS_v10_SDR_PS_FINAL_20180801_SDR_2K_AVC.mp4	0.0	156.9305911064148	0.09998488426208496
36	97.80715489387512	fix_pre	0		41.0	34.0	2.5	blank	1.0	157.03057599067688	0.34166812896728516
36	98.14061999320984	response	0	4		34.0	2.5	blank	1.0	157.3640410900116	
36	98.14882302284241	movie	1		301.0	34.0	2.5	blank	1.0	157.37224411964417	2.5083189010620117
36	100.45728397369385	response	1	4		34.0	2.5	blank	1.0	159.6807050704956	
36	100.65714192390442	fix_post	2		12.0	34.0	2.5	blank	1.0	159.88056302070618	0.09995603561401367
37	100.75709795951843	fix_pre	0		17.0	35.0	2.5	/experiments/knapen_aot/videos/S_pexels-rodnae-productions-5993671.mp4	0.0	159.9805190563202	0.14171600341796875
37	100.8905758857727	response	0	4		35.0	2.5	/experiments/knapen_aot/videos/S_pexels-rodnae-productions-5993671.mp4	0.0	160.11399698257446	
37	100.8988139629364	movie	1		163.0	35.0	2.5	/experiments/knapen_aot/videos/S_pexels-rodnae-productions-5993671.mp4	0.0	160.12223505973816	2.5083959102630615
37	103.40720987319946	fix_post	2		12.0	35.0	2.5	/experiments/knapen_aot/videos/S_pexels-rodnae-productions-5993671.mp4	0.0	162.63063097000122	0.0999300479888916
38	103.50713992118835	fix_pre	0		27.0	36.0	2.5	/experiments/knapen_aot/videos/R_S_yt-0qfEA1ZFWjA_123.mp4	0.0	162.7305610179901	0.22500109672546387
38	103.71640110015869	response	0	4		36.0	2.5	/experiments/knapen_aot/videos/R_S_yt-0qfEA1ZFWjA_123.mp4	0.0	162.93982219696045	
38	103.73214101791382	movie	1		301.0	36.0	2.5	/experiments/knapen_aot/videos/R_S_yt-0qfEA1ZFWjA_123.mp4	0.0	162.95556211471558	2.5082550048828125
38	106.24039602279663	fix_post	2		12.0	36.0	2.5	/experiments/knapen_aot/videos/R_S_yt-0qfEA1ZFWjA_123.mp4	0.0	165.4638171195984	0.1000359058380127
39	106.34043192863464	fix_pre	0		14.0	37.0	2.5	/experiments/knapen_aot/videos/S_OdxWh1oU8e8_1.mp4	0.0	165.5638530254364	0.11667895317077637
39	106.44891691207886	response	0	4		37.0	2.5	/experiments/knapen_aot/videos/S_OdxWh1oU8e8_1.mp4	0.0	165.67233800888062	
39	106.45711088180542	movie	1		301.0	37.0	2.5	/experiments/knapen_aot/videos/S_OdxWh1oU8e8_1.mp4	0.0	165.68053197860718	2.5083351135253906
39	108.96544599533081	fix_post	2		12.0	37.0	2.5	/experiments/knapen_aot/videos/S_OdxWh1oU8e8_1.mp4	0.0	168.18886709213257	0.09998703002929688
40	109.06543302536011	fix_pre	0		29.0	38.0	2.5	/experiments/knapen_aot/videos/R_S_yt-tX3slAQb9yY_13.mp4	0.0	168.28885412216187	0.24164485931396484
40	109.29895305633545	response	0	4		38.0	2.5	/experiments/knapen_aot/videos/R_S_yt-tX3slAQb9yY_13.mp4	0.0	168.5223741531372	
40	109.30707788467407	movie	1		301.0	38.0	2.5	/experiments/knapen_aot/videos/R_S_yt-tX3slAQb9yY_13.mp4	0.0	168.53049898147583	2.508362054824829
40	111.8154399394989	fix_post	2		12.0	38.0	2.5	/experiments/knapen_aot/videos/R_S_yt-tX3slAQb9yY_13.mp4	0.0	171.03886103630066	0.09992599487304688
40	111.89883494377136	response	2	4		38.0	2.5	/experiments/knapen_aot/videos/R_S_yt-tX3slAQb9yY_13.mp4	0.0	171.12225604057312	
41	111.91536593437195	fix_pre	0		46.0	39.0	2.5	/experiments/knapen_aot/videos/S_yt-OLDm2slgfA4_3.mp4	0.0	171.1387870311737	0.38332104682922363
41	112.29052209854126	response	0	4		39.0	2.5	/experiments/knapen_aot/videos/S_yt-OLDm2slgfA4_3.mp4	0.0	171.51394319534302	
41	112.29868698120117	movie	1		301.0	39.0	2.5	/experiments/knapen_aot/videos/S_yt-OLDm2slgfA4_3.mp4	0.0	171.52210807800293	2.5083560943603516
41	114.80704307556152	fix_post	2		12.0	39.0	2.5	/experiments/knapen_aot/videos/S_yt-OLDm2slgfA4_3.mp4	0.0	174.03046417236328	0.10002398490905762
42	114.90706706047058	fix_pre	0		26.0	40.0	2.5	blank	1.0	174.13048815727234	0.21666884422302246
42	115.11553597450256	response	0	4		40.0	2.5	blank	1.0	174.33895707130432	
42	115.1237359046936	movie	1		301.0	40.0	2.5	blank	1.0	174.34715700149536	2.508336067199707
42	117.63207197189331	fix_post	2		12.0	40.0	2.5	blank	1.0	176.85549306869507	0.10008811950683594
43	117.73216009140015	fix_pre	0		22.0	41.0	2.5	/experiments/knapen_aot/videos/R_S_g201_CA_A016_C002_SDR_20191114_SDR_2K_AVC.mp4	0.0	176.9555811882019	0.18321681022644043
43	117.90721392631531	response	0	4		41.0	2.5	/experiments/knapen_aot/videos/R_S_g201_CA_A016_C002_SDR_20191114_SDR_2K_AVC.mp4	0.0	177.13063502311707	
43	117.91537690162659	movie	1		190.0	41.0	2.5	/experiments/knapen_aot/videos/R_S_g201_CA_A016_C002_SDR_20191114_SDR_2K_AVC.mp4	0.0	177.13879799842834	2.508366107940674
43	120.42374300956726	fix_post	2		12.0	41.0	2.5	/experiments/knapen_aot/videos/R_S_g201_CA_A016_C002_SDR_20191114_SDR_2K_AVC.mp4	0.0	179.64716410636902	0.10000395774841309
44	120.52374696731567	fix_pre	0		33.0	42.0	2.5	/experiments/knapen_aot/videos/S_pexels-c-technical-6753390.mp4	0.0	179.74716806411743	0.27500391006469727
44	120.79047393798828	response	0	4		42.0	2.5	/experiments/knapen_aot/videos/S_pexels-c-technical-6753390.mp4	0.0	180.01389503479004	
44	120.79875087738037	movie	1		197.0	42.0	2.5	/experiments/knapen_aot/videos/S_pexels-c-technical-6753390.mp4	0.0	180.02217197418213	2.5083420276641846
44	123.30709290504456	fix_post	2		12.0	42.0	2.5	/experiments/knapen_aot/videos/S_pexels-c-technical-6753390.mp4	0.0	182.5305140018463	0.09995198249816895
45	123.40704488754272	fix_pre	0		18.0	43.0	2.5	/experiments/knapen_aot/videos/S_pexels-c-technical-6809719.mp4	0.0	182.63046598434448	0.1499919891357422
45	123.5488760471344	response	0	4		43.0	2.5	/experiments/knapen_aot/videos/S_pexels-c-technical-6809719.mp4	0.0	182.77229714393616	
45	123.55703687667847	movie	1		168.0	43.0	2.5	/experiments/knapen_aot/videos/S_pexels-c-technical-6809719.mp4	0.0	182.78045797348022	2.5082640647888184
45	126.06530094146729	fix_post	2		12.0	43.0	2.5	/experiments/knapen_aot/videos/S_pexels-c-technical-6809719.mp4	0.0	185.28872203826904	0.10011410713195801
46	126.16541504859924	fix_pre	0		8.0	44.0	2.5	/experiments/knapen_aot/videos/S_yt-VTNBCfQxnsk_59.mp4	0.0	185.388836145401	0.06662487983703613
46	126.2238359451294	response	0	4		44.0	2.5	/experiments/knapen_aot/videos/S_yt-VTNBCfQxnsk_59.mp4	0.0	185.44725704193115	
46	126.23203992843628	movie	1		301.0	44.0	2.5	/experiments/knapen_aot/videos/S_yt-VTNBCfQxnsk_59.mp4	0.0	185.45546102523804	2.5082430839538574
46	128.74028301239014	fix_post	2		12.0	44.0	2.5	/experiments/knapen_aot/videos/S_yt-VTNBCfQxnsk_59.mp4	0.0	187.9637041091919	0.10008001327514648
47	128.84036302566528	fix_pre	0		10.0	45.0	2.5	/experiments/knapen_aot/videos/R_S_production_ID_4540332.mp4	0.0	188.06378412246704	0.08328986167907715
47	128.91545391082764	response	0	4		45.0	2.5	/experiments/knapen_aot/videos/R_S_production_ID_4540332.mp4	0.0	188.1388750076294	
47	128.92365288734436	movie	1		168.0	45.0	2.5	/experiments/knapen_aot/videos/R_S_production_ID_4540332.mp4	0.0	188.14707398414612	2.508357048034668
47	131.43200993537903	fix_post	2		12.0	45.0	2.5	/experiments/knapen_aot/videos/R_S_production_ID_4540332.mp4	0.0	190.6554310321808	0.09994912147521973
48	131.53195905685425	fix_pre	0		15.0	46.0	2.5	/experiments/knapen_aot/videos/S_comp_LA_A006_C008_PSNK_ALL_LOGOS_v10_SDR_PS_FINAL_20180801_SDR_2K_AVC.mp4	0.0	190.755380153656	0.12602496147155762
48	131.64887499809265	response	0	4		46.0	2.5	/experiments/knapen_aot/videos/S_comp_LA_A006_C008_PSNK_ALL_LOGOS_v10_SDR_PS_FINAL_20180801_SDR_2K_AVC.mp4	0.0	190.8722960948944	
48	131.6579840183258	movie	1		167.0	46.0	2.5	/experiments/knapen_aot/videos/S_comp_LA_A006_C008_PSNK_ALL_LOGOS_v10_SDR_PS_FINAL_20180801_SDR_2K_AVC.mp4	0.0	190.88140511512756	2.5073130130767822
48	134.1652970314026	fix_post	2		12.0	46.0	2.5	/experiments/knapen_aot/videos/S_comp_LA_A006_C008_PSNK_ALL_LOGOS_v10_SDR_PS_FINAL_20180801_SDR_2K_AVC.mp4	0.0	193.38871812820435	0.10001301765441895
49	134.265310049057	fix_pre	0		6.0	47.0	2.5	blank	1.0	193.48873114585876	0.05004596710205078
49	134.3071300983429	response	0	4		47.0	2.5	blank	1.0	193.53055119514465	
49	134.31535601615906	movie	1		301.0	47.0	2.5	blank	1.0	193.53877711296082	2.5082058906555176
49	134.60708808898926	response	1	4		47.0	2.5	blank	1.0	193.83050918579102	
49	136.82356190681458	fix_post	2		12.0	47.0	2.5	blank	1.0	196.04698300361633	0.10008811950683594
50	136.9236500263214	fix_pre	0		17.0	48.0	2.5	/experiments/knapen_aot/videos/R_S_ILSVRC2015_train_00324001.mp4	0.0	196.14707112312317	0.14164400100708008
50	137.04954504966736	response	0	4		48.0	2.5	/experiments/knapen_aot/videos/R_S_ILSVRC2015_train_00324001.mp4	0.0	196.27296614646912	
50	137.0652940273285	movie	1		301.0	48.0	2.5	/experiments/knapen_aot/videos/R_S_ILSVRC2015_train_00324001.mp4	0.0	196.28871512413025	2.5083069801330566
50	139.57360100746155	fix_post	2		12.0	48.0	2.5	/experiments/knapen_aot/videos/R_S_ILSVRC2015_train_00324001.mp4	0.0	198.7970221042633	0.10005688667297363
50	139.66542387008667	response	2	4		48.0	2.5	/experiments/knapen_aot/videos/R_S_ILSVRC2015_train_00324001.mp4	0.0	198.88884496688843	
51	139.67365789413452	fix_pre	0		51.0	49.0	2.5	/experiments/knapen_aot/videos/S_yt-y2RUPYKfBZs_12.mp4	0.0	198.89707899093628	0.4249241352081299
51	140.09041690826416	response	0	4		49.0	2.5	/experiments/knapen_aot/videos/S_yt-y2RUPYKfBZs_12.mp4	0.0	199.31383800506592	
51	140.09858202934265	movie	1		301.0	49.0	2.5	/experiments/knapen_aot/videos/S_yt-y2RUPYKfBZs_12.mp4	0.0	199.3220031261444	2.5084290504455566
51	142.6070110797882	fix_post	2		12.0	49.0	2.5	/experiments/knapen_aot/videos/S_yt-y2RUPYKfBZs_12.mp4	0.0	201.83043217658997	0.09995198249816895
52	142.70696306228638	fix_pre	0		23.0	50.0	2.5	/experiments/knapen_aot/videos/R_S_yt-c5KPuyzO-50_4.mp4	0.0	201.93038415908813	0.19168591499328613
52	142.89041805267334	response	0	4		50.0	2.5	/experiments/knapen_aot/videos/R_S_yt-c5KPuyzO-50_4.mp4	0.0	202.1138391494751	
52	142.89864897727966	movie	1		301.0	50.0	2.5	/experiments/knapen_aot/videos/R_S_yt-c5KPuyzO-50_4.mp4	0.0	202.12207007408142	2.508341073989868
52	145.40699005126953	fix_post	2		12.0	50.0	2.5	/experiments/knapen_aot/videos/R_S_yt-c5KPuyzO-50_4.mp4	0.0	204.6304111480713	0.0999758243560791
53	145.5069658756256	fix_pre	0		32.0	51.0	2.5	/experiments/knapen_aot/videos/S_comp_LW_L001_C003__PSNK_DENOISE_v04_SDR_PS_FINAL_20180803_SDR_2K_AVC.mp4	0.0	204.73038697242737	0.2666771411895752
53	145.76541090011597	response	0	4		51.0	2.5	/experiments/knapen_aot/videos/S_comp_LW_L001_C003__PSNK_DENOISE_v04_SDR_PS_FINAL_20180803_SDR_2K_AVC.mp4	0.0	204.98883199691772	
53	145.77364301681519	movie	1		165.0	51.0	2.5	/experiments/knapen_aot/videos/S_comp_LW_L001_C003__PSNK_DENOISE_v04_SDR_PS_FINAL_20180803_SDR_2K_AVC.mp4	0.0	204.99706411361694	2.508336067199707
53	148.2819790840149	fix_post	2		12.0	51.0	2.5	/experiments/knapen_aot/videos/S_comp_LW_L001_C003__PSNK_DENOISE_v04_SDR_PS_FINAL_20180803_SDR_2K_AVC.mp4	0.0	207.50540018081665	0.09998798370361328
54	148.3819670677185	fix_pre	0		28.0	52.0	2.5	/experiments/knapen_aot/videos/S_production_ID_3923518.mp4	0.0	207.60538816452026	0.2342538833618164
54	148.60710191726685	response	0	4		52.0	2.5	/experiments/knapen_aot/videos/S_production_ID_3923518.mp4	0.0	207.8305230140686	
54	148.61622095108032	movie	1		163.0	52.0	2.5	/experiments/knapen_aot/videos/S_production_ID_3923518.mp4	0.0	207.83964204788208	2.5073599815368652
54	151.1235809326172	fix_post	2		12.0	52.0	2.5	/experiments/knapen_aot/videos/S_production_ID_3923518.mp4	0.0	210.34700202941895	0.09994006156921387
55	151.2235209941864	fix_pre	0		31.0	53.0	2.5	/experiments/knapen_aot/videos/S_yt-osz-TXlRdXs_2.mp4	0.0	210.44694209098816	0.2583620548248291
55	151.47371101379395	response	0	4		53.0	2.5	/experiments/knapen_aot/videos/S_yt-osz-TXlRdXs_2.mp4	0.0	210.6971321105957	
55	151.48188304901123	movie	1		301.0	53.0	2.5	/experiments/knapen_aot/videos/S_yt-osz-TXlRdXs_2.mp4	0.0	210.705304145813	2.5082969665527344
55	153.99018001556396	fix_post	2		12.0	53.0	2.5	/experiments/knapen_aot/videos/S_yt-osz-TXlRdXs_2.mp4	0.0	213.21360111236572	0.1000220775604248
56	154.0902020931244	fix_pre	0		92.0	54.0	2.5	/experiments/knapen_aot/videos/R_S_yt-ThT8utBaywI_68.mp4	0.0	213.31362318992615	0.7666919231414795
56	154.84876990318298	response	0	4		54.0	2.5	/experiments/knapen_aot/videos/R_S_yt-ThT8utBaywI_68.mp4	0.0	214.07219099998474	
56	154.85689401626587	movie	1		301.0	54.0	2.5	/experiments/knapen_aot/videos/R_S_yt-ThT8utBaywI_68.mp4	0.0	214.08031511306763	2.508357048034668
56	157.36525106430054	fix_post	2		12.0	54.0	2.5	/experiments/knapen_aot/videos/R_S_yt-ThT8utBaywI_68.mp4	0.0	216.5886721611023	0.0999917984008789
57	157.46524286270142	fix_pre	0		30.0	55.0	2.5	blank	1.0	216.68866395950317	0.2499861717224121
57	157.7069969177246	response	0	4		55.0	2.5	blank	1.0	216.93041801452637	
57	157.71522903442383	movie	1		301.0	55.0	2.5	blank	1.0	216.9386501312256	2.5083179473876953
57	160.22354698181152	fix_post	2		12.0	55.0	2.5	blank	1.0	219.44696807861328	0.0999000072479248
58	160.32344698905945	fix_pre	0		12.0	56.0	2.5	/experiments/knapen_aot/videos/S_yt-Ev39pXXfr1Y_152.mp4	0.0	219.5468680858612	0.10005903244018555
58	160.41530299186707	response	0	4		56.0	2.5	/experiments/knapen_aot/videos/S_yt-Ev39pXXfr1Y_152.mp4	0.0	219.63872408866882	
58	160.42350602149963	movie	1		301.0	56.0	2.5	/experiments/knapen_aot/videos/S_yt-Ev39pXXfr1Y_152.mp4	0.0	219.6469271183014	2.508410930633545
58	162.93191695213318	fix_post	2		12.0	56.0	2.5	/experiments/knapen_aot/videos/S_yt-Ev39pXXfr1Y_152.mp4	0.0	222.15533804893494	0.10000491142272949
59	163.0319218635559	fix_pre	0		6.0	57.0	2.5	/experiments/knapen_aot/videos/S_g201_CA_A016_C002_SDR_20191114_SDR_2K_AVC.mp4	0.0	222.25534296035767	0.050057172775268555
59	163.06702589988708	response	0	4		57.0	2.5	/experiments/knapen_aot/videos/S_g201_CA_A016_C002_SDR_20191114_SDR_2K_AVC.mp4	0.0	222.29044699668884	
59	163.08197903633118	movie	1		173.0	57.0	2.5	/experiments/knapen_aot/videos/S_g201_CA_A016_C002_SDR_20191114_SDR_2K_AVC.mp4	0.0	222.30540013313293	2.508262872695923
59	165.5902419090271	fix_post	2		12.0	57.0	2.5	/experiments/knapen_aot/videos/S_g201_CA_A016_C002_SDR_20191114_SDR_2K_AVC.mp4	0.0	224.81366300582886	0.10007810592651367
59	165.6403410434723	response	2	4		57.0	2.5	/experiments/knapen_aot/videos/S_g201_CA_A016_C002_SDR_20191114_SDR_2K_AVC.mp4	0.0	224.86376214027405	
60	165.6903200149536	fix_pre	0		46.0	58.0	2.5	/experiments/knapen_aot/videos/S_yt-6mRpmfIvdew_1435.mp4	0.0	224.91374111175537	0.3840489387512207
60	166.06535696983337	response	0	4		58.0	2.5	/experiments/knapen_aot/videos/S_yt-6mRpmfIvdew_1435.mp4	0.0	225.28877806663513	
60	166.07436895370483	movie	1		301.0	58.0	2.5	/experiments/knapen_aot/videos/S_yt-6mRpmfIvdew_1435.mp4	0.0	225.2977900505066	2.507520914077759
60	168.5818898677826	fix_post	2		12.0	58.0	2.5	/experiments/knapen_aot/videos/S_yt-6mRpmfIvdew_1435.mp4	0.0	227.80531096458435	0.099945068359375
61	168.68183493614197	fix_pre	0		1.0	59.0	2.5	/experiments/knapen_aot/videos/S_production_ID_5020960.mp4	0.0	227.90525603294373	0.010650157928466797
61	168.68345999717712	response	0	4		59.0	2.5	/experiments/knapen_aot/videos/S_production_ID_5020960.mp4	0.0	227.90688109397888	
61	168.69248509407043	movie	1		187.0	59.0	2.5	/experiments/knapen_aot/videos/S_production_ID_5020960.mp4	0.0	227.9159061908722	2.5059919357299805
61	171.19847702980042	fix_post	2		12.0	59.0	2.5	/experiments/knapen_aot/videos/S_production_ID_5020960.mp4	0.0	230.42189812660217	0.10003399848937988
62	171.2985110282898	fix_pre	0		24.0	60.0	2.5	/experiments/knapen_aot/videos/S_yt-VjTiMtjdjTw_103.mp4	0.0	230.52193212509155	0.19997096061706543
62	171.4903120994568	response	0	4		60.0	2.5	/experiments/knapen_aot/videos/S_yt-VjTiMtjdjTw_103.mp4	0.0	230.71373319625854	
62	171.49848198890686	movie	1		301.0	60.0	2.5	/experiments/knapen_aot/videos/S_yt-VjTiMtjdjTw_103.mp4	0.0	230.72190308570862	2.5084030628204346
62	174.0068850517273	fix_post	2		12.0	60.0	2.5	/experiments/knapen_aot/videos/S_yt-VjTiMtjdjTw_103.mp4	0.0	233.23030614852905	0.09997987747192383
63	174.10686492919922	fix_pre	0		9.0	61.0	2.5	blank	1.0	233.33028602600098	0.07490205764770508
63	174.1737859249115	response	0	4		61.0	2.5	blank	1.0	233.39720702171326	
63	174.18176698684692	movie	1		301.0	61.0	2.5	blank	1.0	233.40518808364868	2.5083940029144287
63	176.69016098976135	fix_post	2		12.0	61.0	2.5	blank	1.0	235.9135820865631	0.09999203681945801
64	176.7901530265808	fix_pre	0		99.0	62.0	2.5	/experiments/knapen_aot/videos/S_yt-G_eNNzNB-hU_1.mp4	0.0	236.01357412338257	0.8257038593292236
64	177.6069040298462	response	0	4		62.0	2.5	/experiments/knapen_aot/videos/S_yt-G_eNNzNB-hU_1.mp4	0.0	236.83032512664795	
64	177.61585688591003	movie	1		301.0	62.0	2.5	/experiments/knapen_aot/videos/S_yt-G_eNNzNB-hU_1.mp4	0.0	236.8392779827118	2.5075910091400146
64	180.12344789505005	fix_post	2		12.0	62.0	2.5	/experiments/knapen_aot/videos/S_yt-G_eNNzNB-hU_1.mp4	0.0	239.3468689918518	0.09999299049377441
65	180.22344088554382	fix_pre	0		8.0	63.0	2.5	/experiments/knapen_aot/videos/S_yt-Wf-RauSbVgA_56.mp4	0.0	239.44686198234558	0.06675219535827637
65	180.28190803527832	response	0	4		63.0	2.5	/experiments/knapen_aot/videos/S_yt-Wf-RauSbVgA_56.mp4	0.0	239.50532913208008	
65	180.2901930809021	movie	1		301.0	63.0	2.5	/experiments/knapen_aot/videos/S_yt-Wf-RauSbVgA_56.mp4	0.0	239.51361417770386	2.50827693939209
65	182.7984700202942	fix_post	2		12.0	63.0	2.5	/experiments/knapen_aot/videos/S_yt-Wf-RauSbVgA_56.mp4	0.0	242.02189111709595	0.09989786148071289
66	182.8983678817749	fix_pre	0		7.0	64.0	2.5	/experiments/knapen_aot/videos/S_yt-ZzC953ahaxs_195.mp4	0.0	242.12178897857666	0.058756113052368164
66	182.9420928955078	response	0	4		64.0	2.5	/experiments/knapen_aot/videos/S_yt-ZzC953ahaxs_195.mp4	0.0	242.16551399230957	
66	182.95712399482727	movie	1		301.0	64.0	2.5	/experiments/knapen_aot/videos/S_yt-ZzC953ahaxs_195.mp4	0.0	242.18054509162903	2.507996082305908
66	185.46512007713318	fix_post	2		12.0	64.0	2.5	/experiments/knapen_aot/videos/S_yt-ZzC953ahaxs_195.mp4	0.0	244.68854117393494	0.10000491142272949
67	185.5651249885559	fix_pre	0		2.0	65.0	2.5	/experiments/knapen_aot/videos/S_yt-rqYMMAU_GJs_91.mp4	0.0	244.78854608535767	0.016632080078125
67	185.57433700561523	response	0	4		65.0	2.5	/experiments/knapen_aot/videos/S_yt-rqYMMAU_GJs_91.mp4	0.0	244.797758102417	
67	185.58175706863403	movie	1		301.0	65.0	2.5	/experiments/knapen_aot/videos/S_yt-rqYMMAU_GJs_91.mp4	0.0	244.8051781654358	2.5082969665527344
67	188.09005403518677	fix_post	2		12.0	65.0	2.5	/experiments/knapen_aot/videos/S_yt-rqYMMAU_GJs_91.mp4	0.0	247.31347513198853	0.10001993179321289
67	188.1401629447937	response	2	4		65.0	2.5	/experiments/knapen_aot/videos/S_yt-rqYMMAU_GJs_91.mp4	0.0	247.36358404159546	
68	188.19007396697998	fix_pre	0		53.0	66.0	2.5	/experiments/knapen_aot/videos/S_yt-uXDyvrm0Tw0_17.mp4	0.0	247.41349506378174	0.44167494773864746
68	188.6234929561615	response	0	4		66.0	2.5	/experiments/knapen_aot/videos/S_yt-uXDyvrm0Tw0_17.mp4	0.0	247.84691405296326	
68	188.63174891471863	movie	1		301.0	66.0	2.5	/experiments/knapen_aot/videos/S_yt-uXDyvrm0Tw0_17.mp4	0.0	247.85517001152039	2.508409023284912
68	191.14015793800354	fix_post	2		12.0	66.0	2.5	/experiments/knapen_aot/videos/S_yt-uXDyvrm0Tw0_17.mp4	0.0	250.3635790348053	0.10010313987731934
69	191.24026107788086	fix_pre	0		11.0	67.0	2.5	/experiments/knapen_aot/videos/R_S_yt-GWOOQZ19-oU_331.mp4	0.0	250.46368217468262	0.0914909839630127
69	191.32357096672058	response	0	4		67.0	2.5	/experiments/knapen_aot/videos/R_S_yt-GWOOQZ19-oU_331.mp4	0.0	250.54699206352234	
69	191.33175206184387	movie	1		301.0	67.0	2.5	/experiments/knapen_aot/videos/R_S_yt-GWOOQZ19-oU_331.mp4	0.0	250.55517315864563	2.508307933807373
69	193.84005999565125	fix_post	2		12.0	67.0	2.5	/experiments/knapen_aot/videos/R_S_yt-GWOOQZ19-oU_331.mp4	0.0	253.063481092453	0.1000680923461914
70	193.94012808799744	fix_pre	0		8.0	68.0	2.5	blank	1.0	253.1635491847992	0.0666499137878418
70	193.99849486351013	response	0	4		68.0	2.5	blank	1.0	253.2219159603119	
70	194.00677800178528	movie	1		301.0	68.0	2.5	blank	1.0	253.23019909858704	2.508331060409546
70	196.51510906219482	fix_post	2		12.0	68.0	2.5	blank	1.0	255.73853015899658	0.1000058650970459
71	196.61511492729187	fix_pre	0		22.0	69.0	2.5	/experiments/knapen_aot/videos/S_yt-0qfEA1ZFWjA_123.mp4	0.0	255.83853602409363	0.1832411289215088
71	196.79033303260803	response	0	4		69.0	2.5	/experiments/knapen_aot/videos/S_yt-0qfEA1ZFWjA_123.mp4	0.0	256.0137541294098	
71	196.79835605621338	movie	1		301.0	69.0	2.5	/experiments/knapen_aot/videos/S_yt-0qfEA1ZFWjA_123.mp4	0.0	256.02177715301514	2.508441925048828
71	199.3067979812622	fix_post	2		12.0	69.0	2.5	/experiments/knapen_aot/videos/S_yt-0qfEA1ZFWjA_123.mp4	0.0	258.53021907806396	0.1000680923461914
72	199.4068660736084	fix_pre	0		7.0	70.0	2.5	/experiments/knapen_aot/videos/R_S_comp_LW_L001_C003__PSNK_DENOISE_v04_SDR_PS_FINAL_20180803_SDR_2K_AVC.mp4	0.0	258.63028717041016	0.058200836181640625
72	199.4569170475006	response	0	4		70.0	2.5	/experiments/knapen_aot/videos/R_S_comp_LW_L001_C003__PSNK_DENOISE_v04_SDR_PS_FINAL_20180803_SDR_2K_AVC.mp4	0.0	258.68033814430237	
72	199.46506690979004	movie	1		163.0	70.0	2.5	/experiments/knapen_aot/videos/R_S_comp_LW_L001_C003__PSNK_DENOISE_v04_SDR_PS_FINAL_20180803_SDR_2K_AVC.mp4	0.0	258.6884880065918	2.508324146270752
72	201.1152470111847	response	1	4		70.0	2.5	/experiments/knapen_aot/videos/R_S_comp_LW_L001_C003__PSNK_DENOISE_v04_SDR_PS_FINAL_20180803_SDR_2K_AVC.mp4	0.0	260.33866810798645	
72	201.7616400718689	response	1	4		70.0	2.5	/experiments/knapen_aot/videos/R_S_comp_LW_L001_C003__PSNK_DENOISE_v04_SDR_PS_FINAL_20180803_SDR_2K_AVC.mp4	0.0	260.98506116867065	
72	201.9733910560608	fix_post	2		12.0	70.0	2.5	/experiments/knapen_aot/videos/R_S_comp_LW_L001_C003__PSNK_DENOISE_v04_SDR_PS_FINAL_20180803_SDR_2K_AVC.mp4	0.0	261.19681215286255	0.09993195533752441
73	202.07332301139832	fix_pre	0		23.0	71.0	2.5	/experiments/knapen_aot/videos/R_S_yt-VxTTEZNJWjs_110.mp4	0.0	261.2967441082001	0.1917250156402588
73	202.2567479610443	response	0	4		71.0	2.5	/experiments/knapen_aot/videos/R_S_yt-VxTTEZNJWjs_110.mp4	0.0	261.48016905784607	
73	202.26504802703857	movie	1		301.0	71.0	2.5	/experiments/knapen_aot/videos/R_S_yt-VxTTEZNJWjs_110.mp4	0.0	261.48846912384033	2.5083539485931396
73	204.7734019756317	fix_post	2		12.0	71.0	2.5	/experiments/knapen_aot/videos/R_S_yt-VxTTEZNJWjs_110.mp4	0.0	263.9968230724335	0.09988093376159668
74	204.8732829093933	fix_pre	0		30.0	72.0	2.5	/experiments/knapen_aot/videos/S_yt-1V0KJEc4cJ4_203.mp4	0.0	264.09670400619507	0.2500600814819336
74	205.11508989334106	response	0	4		72.0	2.5	/experiments/knapen_aot/videos/S_yt-1V0KJEc4cJ4_203.mp4	0.0	264.3385109901428	
74	205.12334299087524	movie	1		301.0	72.0	2.5	/experiments/knapen_aot/videos/S_yt-1V0KJEc4cJ4_203.mp4	0.0	264.346764087677	2.508413076400757
74	207.631756067276	fix_post	2		12.0	72.0	2.5	/experiments/knapen_aot/videos/S_yt-1V0KJEc4cJ4_203.mp4	0.0	266.85517716407776	0.09986591339111328
75	207.73162198066711	fix_pre	0		32.0	73.0	2.5	/experiments/knapen_aot/videos/R_S_yt-4Qz0m5IYh10_167.mp4	0.0	266.9550430774689	0.2667539119720459
75	207.9901020526886	response	0	4		73.0	2.5	/experiments/knapen_aot/videos/R_S_yt-4Qz0m5IYh10_167.mp4	0.0	267.21352314949036	
75	207.99837589263916	movie	1		301.0	73.0	2.5	/experiments/knapen_aot/videos/R_S_yt-4Qz0m5IYh10_167.mp4	0.0	267.2217969894409	2.5082759857177734
75	210.50665187835693	fix_post	2		12.0	73.0	2.5	/experiments/knapen_aot/videos/R_S_yt-4Qz0m5IYh10_167.mp4	0.0	269.7300729751587	0.09993314743041992
75	210.5568070411682	response	2	4		73.0	2.5	/experiments/knapen_aot/videos/R_S_yt-4Qz0m5IYh10_167.mp4	0.0	269.78022813796997	
76	210.60658502578735	fix_pre	0		46.0	74.0	2.5	/experiments/knapen_aot/videos/R_S_wc-PsidKmkEV7Km_14.mp4	0.0	269.8300061225891	0.3839380741119385
76	210.9817409515381	response	0	4		74.0	2.5	/experiments/knapen_aot/videos/R_S_wc-PsidKmkEV7Km_14.mp4	0.0	270.20516204833984	
76	210.9905230998993	movie	1		166.0	74.0	2.5	/experiments/knapen_aot/videos/R_S_wc-PsidKmkEV7Km_14.mp4	0.0	270.21394419670105	2.507847785949707
76	213.498370885849	fix_post	2		12.0	74.0	2.5	/experiments/knapen_aot/videos/R_S_wc-PsidKmkEV7Km_14.mp4	0.0	272.72179198265076	0.0999600887298584
77	213.59833097457886	fix_pre	0		15.0	75.0	2.5	/experiments/knapen_aot/videos/S_ILSVRC2015_train_00363000.mp4	0.0	272.8217520713806	0.12496805191040039
77	213.7151300907135	response	0	4		75.0	2.5	/experiments/knapen_aot/videos/S_ILSVRC2015_train_00363000.mp4	0.0	272.93855118751526	
77	213.72329902648926	movie	1		301.0	75.0	2.5	/experiments/knapen_aot/videos/S_ILSVRC2015_train_00363000.mp4	0.0	272.946720123291	2.508239984512329
77	216.2315390110016	fix_post	2		12.0	75.0	2.5	/experiments/knapen_aot/videos/S_ILSVRC2015_train_00363000.mp4	0.0	275.45496010780334	0.10005593299865723
78	216.33159494400024	fix_pre	0		9.0	76.0	2.5	blank	1.0	275.555016040802	0.07560300827026367
78	216.398432970047	response	0	4		76.0	2.5	blank	1.0	275.62185406684875	
78	216.4071979522705	movie	1		301.0	76.0	2.5	blank	1.0	275.63061904907227	2.5077879428863525
78	218.91498589515686	fix_post	2		12.0	76.0	2.5	blank	1.0	278.1384069919586	0.09992599487304688
79	219.0149118900299	fix_pre	0		51.0	77.0	2.5	/experiments/knapen_aot/videos/S_yt-yXJr3FR2xrM_27.mp4	0.0	278.23833298683167	0.42500901222229004
79	219.43172693252563	response	0	4		77.0	2.5	/experiments/knapen_aot/videos/S_yt-yXJr3FR2xrM_27.mp4	0.0	278.6551480293274	
79	219.4399209022522	movie	1		301.0	77.0	2.5	/experiments/knapen_aot/videos/S_yt-yXJr3FR2xrM_27.mp4	0.0	278.66334199905396	2.5084149837493896
79	221.9483358860016	fix_post	2		12.0	77.0	2.5	/experiments/knapen_aot/videos/S_yt-yXJr3FR2xrM_27.mp4	0.0	281.17175698280334	0.10001802444458008
80	222.04835391044617	fix_pre	0		6.0	78.0	2.5	/experiments/knapen_aot/videos/S_yt-tneuR3EtSZE_72.mp4	0.0	281.2717750072479	0.04997897148132324
80	222.09010004997253	response	0	4		78.0	2.5	/experiments/knapen_aot/videos/S_yt-tneuR3EtSZE_72.mp4	0.0	281.3135211467743	
80	222.0983328819275	movie	1		301.0	78.0	2.5	/experiments/knapen_aot/videos/S_yt-tneuR3EtSZE_72.mp4	0.0	281.32175397872925	2.5083441734313965
80	224.6066770553589	fix_post	2		12.0	78.0	2.5	/experiments/knapen_aot/videos/S_yt-tneuR3EtSZE_72.mp4	0.0	283.83009815216064	0.10000085830688477
81	224.70667791366577	fix_pre	0		46.0	79.0	2.5	/experiments/knapen_aot/videos/R_S_yt-FoO02U39gy4_398.mp4	0.0	283.93009901046753	0.38332605361938477
81	225.08180594444275	response	0	4		79.0	2.5	/experiments/knapen_aot/videos/R_S_yt-FoO02U39gy4_398.mp4	0.0	284.3052270412445	
81	225.09000396728516	movie	1		301.0	79.0	2.5	/experiments/knapen_aot/videos/R_S_yt-FoO02U39gy4_398.mp4	0.0	284.3134250640869	2.508294105529785
81	227.59829807281494	fix_post	2		12.0	79.0	2.5	/experiments/knapen_aot/videos/R_S_yt-FoO02U39gy4_398.mp4	0.0	286.8217191696167	0.10048079490661621
82	227.69877886772156	fix_pre	0		25.0	80.0	2.5	/experiments/knapen_aot/videos/R_S_yt-LB9LoYfH_EA_15.mp4	0.0	286.9221999645233	0.2083280086517334
82	227.89843797683716	response	0	4		80.0	2.5	/experiments/knapen_aot/videos/R_S_yt-LB9LoYfH_EA_15.mp4	0.0	287.1218590736389	
82	227.9071068763733	movie	1		301.0	80.0	2.5	/experiments/knapen_aot/videos/R_S_yt-LB9LoYfH_EA_15.mp4	0.0	287.13052797317505	2.507855176925659
82	230.41496205329895	fix_post	2		12.0	80.0	2.5	/experiments/knapen_aot/videos/R_S_yt-LB9LoYfH_EA_15.mp4	0.0	289.6383831501007	0.09999799728393555
83	230.51496005058289	fix_pre	0		9.0	81.0	2.5	/experiments/knapen_aot/videos/S_pexels-c-technical-6809719.mp4	0.0	289.73838114738464	0.07497787475585938
83	230.5817370414734	response	0	4		81.0	2.5	/experiments/knapen_aot/videos/S_pexels-c-technical-6809719.mp4	0.0	289.80515813827515	
83	230.58993792533875	movie	1		191.0	81.0	2.5	/experiments/knapen_aot/videos/S_pexels-c-technical-6809719.mp4	0.0	289.8133590221405	2.5083630084991455
83	233.0983009338379	fix_post	2		12.0	81.0	2.5	/experiments/knapen_aot/videos/S_pexels-c-technical-6809719.mp4	0.0	292.32172203063965	0.10042595863342285
84	233.1987268924713	fix_pre	0		18.0	82.0	2.5	/experiments/knapen_aot/videos/R_S_pexels-c-technical-6753390.mp4	0.0	292.42214798927307	0.14954519271850586
84	233.34017205238342	response	0	4		82.0	2.5	/experiments/knapen_aot/videos/R_S_pexels-c-technical-6753390.mp4	0.0	292.5635931491852	
84	233.34827208518982	movie	1		202.0	82.0	2.5	/experiments/knapen_aot/videos/R_S_pexels-c-technical-6753390.mp4	0.0	292.5716931819916	2.5082499980926514
84	235.85652208328247	fix_post	2		12.0	82.0	2.5	/experiments/knapen_aot/videos/R_S_pexels-c-technical-6753390.mp4	0.0	295.07994318008423	0.1000528335571289
85	235.9565749168396	fix_pre	0		8.0	83.0	2.5	blank	1.0	295.17999601364136	0.0666050910949707
85	236.0150110721588	response	0	4		83.0	2.5	blank	1.0	295.23843216896057	
85	236.02318000793457	movie	1		301.0	83.0	2.5	blank	1.0	295.2466011047363	2.508336067199707
85	238.53151607513428	fix_post	2		12.0	83.0	2.5	blank	1.0	297.75493717193604	0.10001897811889648
87	238.63153505325317	stim	0		148.0					297.85495615005493	1.2337818145751953
87	239.00666999816895	response	0	4						298.2300910949707	
87	239.8576099872589	response	0	space						299.08103108406067	
