trial_nr	onset	event_type	phase	response	nr_frames	movie_index	movie_duration	movie_file	blank	onset_abs	duration
0	0.16524815559387207	stim	0		76.0					346.2021641731262	0.6333088874816895
0	0.7905080318450928	response	0	space						346.82742404937744	
1	0.7985570430755615	stim	0		121.0					346.8354730606079	1.008126974105835
1	1.265078067779541	response	0	space						347.3019940853119	
1	1.748384952545166	response	0	space						347.7853009700775	
1	1.8066840171813965	stim	1		120.0					347.84360003471375	1.0000510215759277
1	2.1650819778442383	response	1	space						348.2019979953766	
2	2.806735038757324	fix_pre	0		30.0	0.0	2.5	/experiments/knapen_aot/oldvideos/S_9smWynsk6sI_158.mp4	0.0	348.8436510562897	0.2498769760131836
2	3.0408339500427246	response	0	space		0.0	2.5	/experiments/knapen_aot/oldvideos/S_9smWynsk6sI_158.mp4	0.0	349.0777499675751	
2	3.056612014770508	movie	1		300.0	0.0	2.5	/experiments/knapen_aot/oldvideos/S_9smWynsk6sI_158.mp4	0.0	349.09352803230286	2.5083391666412354
2	5.564951181411743	fix_post	2		12.0	0.0	2.5	/experiments/knapen_aot/oldvideos/S_9smWynsk6sI_158.mp4	0.0	351.6018671989441	0.10001778602600098
3	5.664968967437744	fix_pre	0		24.0	1.0	2.5	/experiments/knapen_aot/oldvideos/R_S_yt-D_f3_HIXG2g_87.mp4	0.0	351.7018849849701	0.2025761604309082
3	5.860553026199341	response	0	2		1.0	2.5	/experiments/knapen_aot/oldvideos/R_S_yt-D_f3_HIXG2g_87.mp4	0.0	351.8974690437317	
3	5.867545127868652	movie	1		299.0	1.0	2.5	/experiments/knapen_aot/oldvideos/R_S_yt-D_f3_HIXG2g_87.mp4	0.0	351.904461145401	2.5056819915771484
3	8.3732271194458	fix_post	2		12.0	1.0	2.5	/experiments/knapen_aot/oldvideos/R_S_yt-D_f3_HIXG2g_87.mp4	0.0	354.41014313697815	0.10006403923034668
4	8.473291158676147	fix_pre	0		21.0	2.0	2.5	/experiments/knapen_aot/oldvideos/S_video_inspire_oregon_lone-ranch-beach_00001.1080-h264.mp4	0.0	354.5102071762085	0.17496180534362793
4	8.640067100524902	response	0	2		2.0	2.5	/experiments/knapen_aot/oldvideos/S_video_inspire_oregon_lone-ranch-beach_00001.1080-h264.mp4	0.0	354.67698311805725	
4	8.648252964019775	movie	1		166.0	2.0	2.5	/experiments/knapen_aot/oldvideos/S_video_inspire_oregon_lone-ranch-beach_00001.1080-h264.mp4	0.0	354.6851689815521	2.5084030628204346
4	11.15665602684021	fix_post	2		12.0	2.0	2.5	/experiments/knapen_aot/oldvideos/S_video_inspire_oregon_lone-ranch-beach_00001.1080-h264.mp4	0.0	357.19357204437256	0.10005402565002441
5	11.256710052490234	fix_pre	0		12.0	3.0	2.5	/experiments/knapen_aot/oldvideos/R_S_S006_C007_SDR_2K_AVC.mp4	0.0	357.2936260700226	0.09991192817687988
5	11.34840202331543	response	0	4		3.0	2.5	/experiments/knapen_aot/oldvideos/R_S_S006_C007_SDR_2K_AVC.mp4	0.0	357.3853180408478	
5	11.356621980667114	movie	1		169.0	3.0	2.5	/experiments/knapen_aot/oldvideos/R_S_S006_C007_SDR_2K_AVC.mp4	0.0	357.39353799819946	2.5084660053253174
5	13.865087985992432	fix_post	2		12.0	3.0	2.5	/experiments/knapen_aot/oldvideos/R_S_S006_C007_SDR_2K_AVC.mp4	0.0	359.9020040035248	0.09991097450256348
6	13.964998960494995	fix_pre	0		5.0	4.0	2.5	/experiments/knapen_aot/oldvideos/R_S_production_ID_4584682.mp4	0.0	360.00191497802734	0.04156613349914551
6	13.998411178588867	response	0	4		4.0	2.5	/experiments/knapen_aot/oldvideos/R_S_production_ID_4584682.mp4	0.0	360.0353271961212	
6	14.00656509399414	movie	1		165.0	4.0	2.5	/experiments/knapen_aot/oldvideos/R_S_production_ID_4584682.mp4	0.0	360.0434811115265	2.5083820819854736
6	16.514947175979614	fix_post	2		12.0	4.0	2.5	/experiments/knapen_aot/oldvideos/R_S_production_ID_4584682.mp4	0.0	362.55186319351196	0.09997797012329102
7	16.614925146102905	fix_pre	0		69.0	5.0	2.5	/experiments/knapen_aot/oldvideos/S_yt-tVfYnm81ywo_82.mp4	0.0	362.65184116363525	0.5749938488006592
7	17.181725025177002	response	0	2		5.0	2.5	/experiments/knapen_aot/oldvideos/S_yt-tVfYnm81ywo_82.mp4	0.0	363.21864104270935	
7	17.189918994903564	movie	1		301.0	5.0	2.5	/experiments/knapen_aot/oldvideos/S_yt-tVfYnm81ywo_82.mp4	0.0	363.2268350124359	2.5083470344543457
7	19.69826602935791	fix_post	2		12.0	5.0	2.5	/experiments/knapen_aot/oldvideos/S_yt-tVfYnm81ywo_82.mp4	0.0	365.73518204689026	0.09995007514953613
8	19.798216104507446	fix_pre	0		17.0	6.0	2.5	blank	1.0	365.8351321220398	0.14168190956115723
8	19.931724071502686	response	0	2		6.0	2.5	blank	1.0	365.96864008903503	
8	19.939898014068604	movie	1		301.0	6.0	2.5	blank	1.0	365.97681403160095	2.508329153060913
8	22.448227167129517	fix_post	2		12.0	6.0	2.5	blank	1.0	368.48514318466187	0.10001087188720703
9	22.548238039016724	fix_pre	0		19.0	7.0	2.5	/experiments/knapen_aot/oldvideos/S_yt-8fQ9LaF8U10_382.mp4	0.0	368.5851540565491	0.15946197509765625
9	22.698299169540405	response	0	4		7.0	2.5	/experiments/knapen_aot/oldvideos/S_yt-8fQ9LaF8U10_382.mp4	0.0	368.73521518707275	
9	22.70770001411438	movie	1		301.0	7.0	2.5	/experiments/knapen_aot/oldvideos/S_yt-8fQ9LaF8U10_382.mp4	0.0	368.74461603164673	2.507327079772949
9	25.21502709388733	fix_post	2		12.0	7.0	2.5	/experiments/knapen_aot/oldvideos/S_yt-8fQ9LaF8U10_382.mp4	0.0	371.2519431114197	0.09986686706542969
10	25.31489396095276	fix_pre	0		22.0	8.0	2.5	/experiments/knapen_aot/oldvideos/S_yt-IX6uxR5DSKk_2.mp4	0.0	371.3518099784851	0.18330717086791992
10	25.48988914489746	response	0	4		8.0	2.5	/experiments/knapen_aot/oldvideos/S_yt-IX6uxR5DSKk_2.mp4	0.0	371.5268051624298	
10	25.49820113182068	movie	1		301.0	8.0	2.5	/experiments/knapen_aot/oldvideos/S_yt-IX6uxR5DSKk_2.mp4	0.0	371.535117149353	2.508344888687134
10	28.006546020507812	fix_post	2		12.0	8.0	2.5	/experiments/knapen_aot/oldvideos/S_yt-IX6uxR5DSKk_2.mp4	0.0	374.04346203804016	0.10002303123474121
11	28.106569051742554	fix_pre	0		25.0	9.0	2.5	/experiments/knapen_aot/oldvideos/R_S_yt-JVhfcpV7OaY_71.mp4	0.0	374.1434850692749	0.20823001861572266
11	28.29913306236267	response	0	2		9.0	2.5	/experiments/knapen_aot/oldvideos/R_S_yt-JVhfcpV7OaY_71.mp4	0.0	374.336049079895	
11	28.314799070358276	movie	1		301.0	9.0	2.5	/experiments/knapen_aot/oldvideos/R_S_yt-JVhfcpV7OaY_71.mp4	0.0	374.3517150878906	2.508452892303467
11	30.823251962661743	fix_post	2		12.0	9.0	2.5	/experiments/knapen_aot/oldvideos/R_S_yt-JVhfcpV7OaY_71.mp4	0.0	376.8601679801941	0.09993100166320801
12	30.92318296432495	fix_pre	0		71.0	10.0	2.5	/experiments/knapen_aot/oldvideos/S_yt-BCFGCganiuE_8.mp4	0.0	376.9600989818573	0.5916521549224854
12	31.506675958633423	response	0	4		10.0	2.5	/experiments/knapen_aot/oldvideos/S_yt-BCFGCganiuE_8.mp4	0.0	377.54359197616577	
12	31.514835119247437	movie	1		301.0	10.0	2.5	/experiments/knapen_aot/oldvideos/S_yt-BCFGCganiuE_8.mp4	0.0	377.5517511367798	2.508370876312256
12	34.02320599555969	fix_post	2		12.0	10.0	2.5	/experiments/knapen_aot/oldvideos/S_yt-BCFGCganiuE_8.mp4	0.0	380.06012201309204	0.10108208656311035
13	34.1242880821228	fix_pre	0		28.0	11.0	2.5	/experiments/knapen_aot/oldvideos/S_yt-K7viJXt9vX8_143.mp4	0.0	380.16120409965515	0.23219990730285645
13	34.34825301170349	response	0	2		11.0	2.5	/experiments/knapen_aot/oldvideos/S_yt-K7viJXt9vX8_143.mp4	0.0	380.38516902923584	
13	34.35648798942566	movie	1		301.0	11.0	2.5	/experiments/knapen_aot/oldvideos/S_yt-K7viJXt9vX8_143.mp4	0.0	380.393404006958	2.508402109146118
13	36.86489009857178	fix_post	2		12.0	11.0	2.5	/experiments/knapen_aot/oldvideos/S_yt-K7viJXt9vX8_143.mp4	0.0	382.9018061161041	0.09989285469055176
14	36.96478295326233	fix_pre	0		33.0	12.0	2.5	blank	1.0	383.0016989707947	0.2751121520996094
14	37.23166513442993	response	0	2		12.0	2.5	blank	1.0	383.2685811519623	
14	37.23989510536194	movie	1		301.0	12.0	2.5	blank	1.0	383.2768111228943	2.5083069801330566
14	39.748202085494995	fix_post	2		12.0	12.0	2.5	blank	1.0	385.78511810302734	0.09999799728393555
15	39.84820008277893	fix_pre	0		36.0	13.0	2.5	/experiments/knapen_aot/oldvideos/S_yt-BCFGCganiuE_8.mp4	0.0	385.8851161003113	0.29993391036987305
15	40.140061140060425	response	0	2		13.0	2.5	/experiments/knapen_aot/oldvideos/S_yt-BCFGCganiuE_8.mp4	0.0	386.1769771575928	
15	40.148133993148804	movie	1		301.0	13.0	2.5	/experiments/knapen_aot/oldvideos/S_yt-BCFGCganiuE_8.mp4	0.0	386.18505001068115	2.5083820819854736
15	42.65651607513428	fix_post	2		12.0	13.0	2.5	/experiments/knapen_aot/oldvideos/S_yt-BCFGCganiuE_8.mp4	0.0	388.6934320926666	0.09996700286865234
16	42.75648307800293	fix_pre	0		40.0	14.0	2.5	/experiments/knapen_aot/oldvideos/S_yt-O_4DgW-XKvA_35.mp4	0.0	388.7933990955353	0.33328795433044434
16	43.08161497116089	response	0	2		14.0	2.5	/experiments/knapen_aot/oldvideos/S_yt-O_4DgW-XKvA_35.mp4	0.0	389.11853098869324	
16	43.089771032333374	movie	1		301.0	14.0	2.5	/experiments/knapen_aot/oldvideos/S_yt-O_4DgW-XKvA_35.mp4	0.0	389.1266870498657	2.5084359645843506
16	45.598206996917725	fix_post	2		12.0	14.0	2.5	/experiments/knapen_aot/oldvideos/S_yt-O_4DgW-XKvA_35.mp4	0.0	391.6351230144501	0.09991598129272461
17	45.69812297821045	fix_pre	0		22.0	15.0	2.5	/experiments/knapen_aot/oldvideos/S_yt-fymgyhmYnMI_557.mp4	0.0	391.7350389957428	0.18332719802856445
17	45.873250007629395	response	0	2		15.0	2.5	/experiments/knapen_aot/oldvideos/S_yt-fymgyhmYnMI_557.mp4	0.0	391.91016602516174	
17	45.881450176239014	movie	1		301.0	15.0	2.5	/experiments/knapen_aot/oldvideos/S_yt-fymgyhmYnMI_557.mp4	0.0	391.91836619377136	2.508265972137451
17	48.389716148376465	fix_post	2		12.0	15.0	2.5	/experiments/knapen_aot/oldvideos/S_yt-fymgyhmYnMI_557.mp4	0.0	394.4266321659088	0.10006594657897949
18	48.489782094955444	fix_pre	0		31.0	16.0	2.5	/experiments/knapen_aot/oldvideos/R_S_pexels-mikhail-nilov-8410063.mp4	0.0	394.5266981124878	0.25936007499694824
18	48.73995399475098	response	0	2		16.0	2.5	/experiments/knapen_aot/oldvideos/R_S_pexels-mikhail-nilov-8410063.mp4	0.0	394.7768700122833	
18	48.74914216995239	movie	1		164.0	16.0	2.5	/experiments/knapen_aot/oldvideos/R_S_pexels-mikhail-nilov-8410063.mp4	0.0	394.78605818748474	2.507328987121582
18	51.256471157073975	fix_post	2		12.0	16.0	2.5	/experiments/knapen_aot/oldvideos/R_S_pexels-mikhail-nilov-8410063.mp4	0.0	397.2933871746063	0.10000085830688477
19	51.35647201538086	fix_pre	0		13.0	17.0	2.5	/experiments/knapen_aot/oldvideos/S_comp_A050_C004_1027V8_v16_SDR_FINAL_20180706_SDR_2K_AVC.mp4	0.0	397.3933880329132	0.10825300216674805
19	51.456542015075684	response	0	2		17.0	2.5	/experiments/knapen_aot/oldvideos/S_comp_A050_C004_1027V8_v16_SDR_FINAL_20180706_SDR_2K_AVC.mp4	0.0	397.49345803260803	
19	51.46472501754761	movie	1		170.0	17.0	2.5	/experiments/knapen_aot/oldvideos/S_comp_A050_C004_1027V8_v16_SDR_FINAL_20180706_SDR_2K_AVC.mp4	0.0	397.50164103507996	2.5083720684051514
19	53.97309708595276	fix_post	2		12.0	17.0	2.5	/experiments/knapen_aot/oldvideos/S_comp_A050_C004_1027V8_v16_SDR_FINAL_20180706_SDR_2K_AVC.mp4	0.0	400.0100131034851	0.1002039909362793
20	54.07330107688904	fix_pre	0		5.0	18.0	2.5	/experiments/knapen_aot/oldvideos/S_ILSVRC2015_train_00761000.mp4	0.0	400.1102170944214	0.041474103927612305
20	54.106651067733765	response	0	2		18.0	2.5	/experiments/knapen_aot/oldvideos/S_ILSVRC2015_train_00761000.mp4	0.0	400.1435670852661	
20	54.11477518081665	movie	1		301.0	18.0	2.5	/experiments/knapen_aot/oldvideos/S_ILSVRC2015_train_00761000.mp4	0.0	400.151691198349	2.508314847946167
20	56.62309002876282	fix_post	2		12.0	18.0	2.5	/experiments/knapen_aot/oldvideos/S_ILSVRC2015_train_00761000.mp4	0.0	402.66000604629517	0.10001111030578613
21	56.7231011390686	fix_pre	0		16.0	19.0	2.5	/experiments/knapen_aot/oldvideos/R_S_ILSVRC2015_train_00538000.mp4	0.0	402.76001715660095	0.1332409381866455
21	56.84816598892212	response	0	2		19.0	2.5	/experiments/knapen_aot/oldvideos/R_S_ILSVRC2015_train_00538000.mp4	0.0	402.88508200645447	
21	56.85634207725525	movie	1		301.0	19.0	2.5	/experiments/knapen_aot/oldvideos/R_S_ILSVRC2015_train_00538000.mp4	0.0	402.8932580947876	2.5084149837493896
21	59.36475706100464	fix_post	2		12.0	19.0	2.5	/experiments/knapen_aot/oldvideos/R_S_ILSVRC2015_train_00538000.mp4	0.0	405.401673078537	0.10006403923034668
22	59.464821100234985	fix_pre	0		10.0	20.0	2.5	/experiments/knapen_aot/oldvideos/S_yt-aiwDdJm1ek8_90.mp4	0.0	405.50173711776733	0.08324599266052246
22	59.53987407684326	response	0	2		20.0	2.5	/experiments/knapen_aot/oldvideos/S_yt-aiwDdJm1ek8_90.mp4	0.0	405.5767900943756	
22	59.54806709289551	movie	1		301.0	20.0	2.5	/experiments/knapen_aot/oldvideos/S_yt-aiwDdJm1ek8_90.mp4	0.0	405.58498311042786	2.508305072784424
22	62.05637216567993	fix_post	2		12.0	20.0	2.5	/experiments/knapen_aot/oldvideos/S_yt-aiwDdJm1ek8_90.mp4	0.0	408.0932881832123	0.09995079040527344
23	62.156322956085205	fix_pre	0		25.0	21.0	2.5	blank	1.0	408.19323897361755	0.20834112167358398
23	62.35652303695679	response	0	2		21.0	2.5	blank	1.0	408.39343905448914	
23	62.36466407775879	movie	1		301.0	21.0	2.5	blank	1.0	408.40158009529114	2.5085949897766113
23	64.8732590675354	fix_post	2		12.0	21.0	2.5	blank	1.0	410.91017508506775	0.09981489181518555
24	64.97307395935059	fix_pre	0		36.0	22.0	2.5	/experiments/knapen_aot/oldvideos/R_S_yt-R5wOWRtRmrI_36.mp4	0.0	411.00998997688293	0.2998981475830078
24	65.26471614837646	response	0	2		22.0	2.5	/experiments/knapen_aot/oldvideos/R_S_yt-R5wOWRtRmrI_36.mp4	0.0	411.3016321659088	
24	65.2729721069336	movie	1		301.0	22.0	2.5	/experiments/knapen_aot/oldvideos/R_S_yt-R5wOWRtRmrI_36.mp4	0.0	411.30988812446594	2.5083909034729004
24	67.7813630104065	fix_post	2		12.0	22.0	2.5	/experiments/knapen_aot/oldvideos/R_S_yt-R5wOWRtRmrI_36.mp4	0.0	413.81827902793884	0.10013508796691895
25	67.88149809837341	fix_pre	0		27.0	23.0	2.5	/experiments/knapen_aot/oldvideos/S_yt-y3tyx6cZjmA_412.mp4	0.0	413.91841411590576	0.2248239517211914
25	68.09062910079956	response	0	2		23.0	2.5	/experiments/knapen_aot/oldvideos/S_yt-y3tyx6cZjmA_412.mp4	0.0	414.1275451183319	
25	68.1063220500946	movie	1		301.0	23.0	2.5	/experiments/knapen_aot/oldvideos/S_yt-y3tyx6cZjmA_412.mp4	0.0	414.14323806762695	2.5083940029144287
25	70.61471605300903	fix_post	2		12.0	23.0	2.5	/experiments/knapen_aot/oldvideos/S_yt-y3tyx6cZjmA_412.mp4	0.0	416.6516320705414	0.09996604919433594
26	70.71468210220337	fix_pre	0		27.0	24.0	2.5	/experiments/knapen_aot/oldvideos/S_yt-8vm83GUgYxI_1.mp4	0.0	416.7515981197357	0.22500205039978027
26	70.93146800994873	response	0	2		24.0	2.5	/experiments/knapen_aot/oldvideos/S_yt-8vm83GUgYxI_1.mp4	0.0	416.9683840274811	
26	70.93968415260315	movie	1		301.0	24.0	2.5	/experiments/knapen_aot/oldvideos/S_yt-8vm83GUgYxI_1.mp4	0.0	416.9766001701355	2.5083110332489014
26	73.44799518585205	fix_post	2		12.0	24.0	2.5	/experiments/knapen_aot/oldvideos/S_yt-8vm83GUgYxI_1.mp4	0.0	419.4849112033844	0.10001778602600098
27	73.54801297187805	fix_pre	0		34.0	25.0	2.5	/experiments/knapen_aot/oldvideos/R_S_yt-oVrkSsEpuvk_118.mp4	0.0	419.5849289894104	0.2842559814453125
27	73.8231270313263	response	0	2		25.0	2.5	/experiments/knapen_aot/oldvideos/R_S_yt-oVrkSsEpuvk_118.mp4	0.0	419.86004304885864	
27	73.83226895332336	movie	1		301.0	25.0	2.5	/experiments/knapen_aot/oldvideos/R_S_yt-oVrkSsEpuvk_118.mp4	0.0	419.8691849708557	2.507432222366333
27	76.3397011756897	fix_post	2		12.0	25.0	2.5	/experiments/knapen_aot/oldvideos/R_S_yt-oVrkSsEpuvk_118.mp4	0.0	422.37661719322205	0.09991192817687988
28	76.43961310386658	fix_pre	0		20.0	26.0	2.5	/experiments/knapen_aot/oldvideos/S_production_ID_4510622.mp4	0.0	422.4765291213989	0.16666603088378906
28	76.59813714027405	response	0	2		26.0	2.5	/experiments/knapen_aot/oldvideos/S_production_ID_4510622.mp4	0.0	422.6350531578064	
28	76.60627913475037	movie	1		167.0	26.0	2.5	/experiments/knapen_aot/oldvideos/S_production_ID_4510622.mp4	0.0	422.6431951522827	2.508410930633545
28	79.11469006538391	fix_post	2		12.0	26.0	2.5	/experiments/knapen_aot/oldvideos/S_production_ID_4510622.mp4	0.0	425.15160608291626	0.10000109672546387
29	79.21469116210938	fix_pre	0		13.0	27.0	2.5	blank	1.0	425.2516071796417	0.10821986198425293
29	79.31476497650146	response	0	2		27.0	2.5	blank	1.0	425.3516809940338	
29	79.32291102409363	movie	1		301.0	27.0	2.5	blank	1.0	425.359827041626	2.5084919929504395
29	81.83140301704407	fix_post	2		12.0	27.0	2.5	blank	1.0	427.8683190345764	0.09987902641296387
30	81.93128204345703	fix_pre	0		210.0	28.0	2.5	/experiments/knapen_aot/oldvideos/S_yt-BFA07F4L4S0_22.mp4	0.0	427.9681980609894	1.7499921321868896
30	83.67306518554688	response	0	2		28.0	2.5	/experiments/knapen_aot/oldvideos/S_yt-BFA07F4L4S0_22.mp4	0.0	429.7099812030792	
30	83.68127417564392	movie	1		301.0	28.0	2.5	/experiments/knapen_aot/oldvideos/S_yt-BFA07F4L4S0_22.mp4	0.0	429.71819019317627	2.5083019733428955
30	86.18957614898682	fix_post	2		12.0	28.0	2.5	/experiments/knapen_aot/oldvideos/S_yt-BFA07F4L4S0_22.mp4	0.0	432.22649216651917	0.10003900527954102
31	86.28961515426636	fix_pre	0		203.0	29.0	2.5	/experiments/knapen_aot/oldvideos/S_yt-oVrkSsEpuvk_118.mp4	0.0	432.3265311717987	1.691619873046875
31	87.97309899330139	response	0	2		29.0	2.5	/experiments/knapen_aot/oldvideos/S_yt-oVrkSsEpuvk_118.mp4	0.0	434.01001501083374	
31	87.98123502731323	movie	1		301.0	29.0	2.5	/experiments/knapen_aot/oldvideos/S_yt-oVrkSsEpuvk_118.mp4	0.0	434.0181510448456	2.5084481239318848
31	90.48968315124512	fix_post	2		12.0	29.0	2.5	/experiments/knapen_aot/oldvideos/S_yt-oVrkSsEpuvk_118.mp4	0.0	436.52659916877747	0.09994792938232422
32	90.58963108062744	fix_pre	0		32.0	30.0	2.5	/experiments/knapen_aot/oldvideos/R_S_b4-3.mp4	0.0	436.6265470981598	0.2666780948638916
32	90.84807395935059	response	0	2		30.0	2.5	/experiments/knapen_aot/oldvideos/R_S_b4-3.mp4	0.0	436.88498997688293	
32	90.85630917549133	movie	1		163.0	30.0	2.5	/experiments/knapen_aot/oldvideos/R_S_b4-3.mp4	0.0	436.8932251930237	2.5082809925079346
32	93.36459016799927	fix_post	2		12.0	30.0	2.5	/experiments/knapen_aot/oldvideos/R_S_b4-3.mp4	0.0	439.4015061855316	0.09997892379760742
33	93.46456909179688	fix_pre	0		16.0	31.0	2.5	/experiments/knapen_aot/oldvideos/S_comp_N013_C004_PS_v01_SDR_PS_20180925_F1970F7193_SDR_2K_AVC.mp4	0.0	439.5014851093292	0.13332009315490723
33	93.58972311019897	response	0	2		31.0	2.5	/experiments/knapen_aot/oldvideos/S_comp_N013_C004_PS_v01_SDR_PS_20180925_F1970F7193_SDR_2K_AVC.mp4	0.0	439.6266391277313	
33	93.59788918495178	movie	1		166.0	31.0	2.5	/experiments/knapen_aot/oldvideos/S_comp_N013_C004_PS_v01_SDR_PS_20180925_F1970F7193_SDR_2K_AVC.mp4	0.0	439.63480520248413	2.508295774459839
33	96.10618495941162	fix_post	2		12.0	31.0	2.5	/experiments/knapen_aot/oldvideos/S_comp_N013_C004_PS_v01_SDR_PS_20180925_F1970F7193_SDR_2K_AVC.mp4	0.0	442.14310097694397	0.10020017623901367
34	96.20638513565063	fix_pre	0		21.0	32.0	2.5	/experiments/knapen_aot/oldvideos/S_yt-Xegmd8whqBs_230.mp4	0.0	442.243301153183	0.17482781410217285
34	96.37299299240112	response	0	2		32.0	2.5	/experiments/knapen_aot/oldvideos/S_yt-Xegmd8whqBs_230.mp4	0.0	442.4099090099335	
34	96.38121294975281	movie	1		301.0	32.0	2.5	/experiments/knapen_aot/oldvideos/S_yt-Xegmd8whqBs_230.mp4	0.0	442.41812896728516	2.508305072784424
34	98.88951802253723	fix_post	2		12.0	32.0	2.5	/experiments/knapen_aot/oldvideos/S_yt-Xegmd8whqBs_230.mp4	0.0	444.9264340400696	0.10017514228820801
35	98.98969316482544	fix_pre	0		427.0	33.0	2.5	blank	1.0	445.0266091823578	3.558104991912842
35	102.53957295417786	response	0	2		33.0	2.5	blank	1.0	448.5764889717102	
35	102.54779815673828	movie	1		301.0	33.0	2.5	blank	1.0	448.58471417427063	2.5083978176116943
35	105.05619597434998	fix_post	2		12.0	33.0	2.5	blank	1.0	451.0931119918823	0.09992718696594238
36	105.15612316131592	fix_pre	0		21.0	34.0	2.5	/experiments/knapen_aot/oldvideos/R_S_yt-VJ65ukWmdxQ_193.mp4	0.0	451.19303917884827	0.17587780952453613
36	105.3228850364685	response	0	2		34.0	2.5	/experiments/knapen_aot/oldvideos/R_S_yt-VJ65ukWmdxQ_193.mp4	0.0	451.35980105400085	
36	105.33200097084045	movie	1		301.0	34.0	2.5	/experiments/knapen_aot/oldvideos/R_S_yt-VJ65ukWmdxQ_193.mp4	0.0	451.3689169883728	2.5075511932373047
36	107.83955216407776	fix_post	2		12.0	34.0	2.5	/experiments/knapen_aot/oldvideos/R_S_yt-VJ65ukWmdxQ_193.mp4	0.0	453.8764681816101	0.09993791580200195
37	107.93949007987976	fix_pre	0		139.0	35.0	2.5	/experiments/knapen_aot/oldvideos/S_yt-pO5SVq-9EhU_114.mp4	0.0	453.9764060974121	1.1583869457244873
37	109.0896680355072	response	0	2		35.0	2.5	/experiments/knapen_aot/oldvideos/S_yt-pO5SVq-9EhU_114.mp4	0.0	455.12658405303955	
37	109.09787702560425	movie	1		301.0	35.0	2.5	/experiments/knapen_aot/oldvideos/S_yt-pO5SVq-9EhU_114.mp4	0.0	455.1347930431366	2.5086710453033447
37	111.60654807090759	fix_post	2		12.0	35.0	2.5	/experiments/knapen_aot/oldvideos/S_yt-pO5SVq-9EhU_114.mp4	0.0	457.64346408843994	0.09963798522949219
38	111.70618605613708	fix_pre	0		12.0	36.0	2.5	/experiments/knapen_aot/oldvideos/S_yt-osz-TXlRdXs_2.mp4	0.0	457.74310207366943	0.09989404678344727
38	111.79798316955566	response	0	2		36.0	2.5	/experiments/knapen_aot/oldvideos/S_yt-osz-TXlRdXs_2.mp4	0.0	457.834899187088	
38	111.80608010292053	movie	1		301.0	36.0	2.5	/experiments/knapen_aot/oldvideos/S_yt-osz-TXlRdXs_2.mp4	0.0	457.8429961204529	2.508497953414917
38	114.31457805633545	fix_post	2		12.0	36.0	2.5	/experiments/knapen_aot/oldvideos/S_yt-osz-TXlRdXs_2.mp4	0.0	460.3514940738678	0.09991192817687988
39	114.41448998451233	fix_pre	0		29.0	37.0	2.5	/experiments/knapen_aot/oldvideos/R_S_yt-wPXrAuiiRZg_1062.mp4	0.0	460.4514060020447	0.2416231632232666
39	114.64788007736206	response	0	2		37.0	2.5	/experiments/knapen_aot/oldvideos/R_S_yt-wPXrAuiiRZg_1062.mp4	0.0	460.6847960948944	
39	114.6561131477356	movie	1		301.0	37.0	2.5	/experiments/knapen_aot/oldvideos/R_S_yt-wPXrAuiiRZg_1062.mp4	0.0	460.69302916526794	2.5083529949188232
39	117.16446614265442	fix_post	2		12.0	37.0	2.5	/experiments/knapen_aot/oldvideos/R_S_yt-wPXrAuiiRZg_1062.mp4	0.0	463.20138216018677	0.0999448299407959
40	117.26441097259521	fix_pre	0		159.0	38.0	2.5	/experiments/knapen_aot/oldvideos/R_S_production_ID_4101244.mp4	0.0	463.30132699012756	1.3250541687011719
40	118.58124208450317	response	0	2		38.0	2.5	/experiments/knapen_aot/oldvideos/R_S_production_ID_4101244.mp4	0.0	464.6181581020355	
40	118.58946514129639	movie	1		193.0	38.0	2.5	/experiments/knapen_aot/oldvideos/R_S_production_ID_4101244.mp4	0.0	464.62638115882874	2.5083508491516113
40	121.097815990448	fix_post	2		12.0	38.0	2.5	/experiments/knapen_aot/oldvideos/R_S_production_ID_4101244.mp4	0.0	467.13473200798035	0.10001015663146973
41	121.19782614707947	fix_pre	0		14.0	39.0	2.5	/experiments/knapen_aot/oldvideos/S_pexels-roman-odintsov-8232443.mp4	0.0	467.2347421646118	0.11659097671508789
41	121.30625200271606	response	0	2		39.0	2.5	/experiments/knapen_aot/oldvideos/S_pexels-roman-odintsov-8232443.mp4	0.0	467.3431680202484	
41	121.31441712379456	movie	1		202.0	39.0	2.5	/experiments/knapen_aot/oldvideos/S_pexels-roman-odintsov-8232443.mp4	0.0	467.3513331413269	2.5083799362182617
41	123.82279706001282	fix_post	2		12.0	39.0	2.5	/experiments/knapen_aot/oldvideos/S_pexels-roman-odintsov-8232443.mp4	0.0	469.85971307754517	0.09999299049377441
42	123.92279005050659	fix_pre	0		19.0	40.0	2.5	/experiments/knapen_aot/oldvideos/R_S_yt-IX6uxR5DSKk_2.mp4	0.0	469.95970606803894	0.1590580940246582
42	124.07291603088379	response	0	2		40.0	2.5	/experiments/knapen_aot/oldvideos/R_S_yt-IX6uxR5DSKk_2.mp4	0.0	470.10983204841614	
42	124.08184814453125	movie	1		301.0	40.0	2.5	/experiments/knapen_aot/oldvideos/R_S_yt-IX6uxR5DSKk_2.mp4	0.0	470.1187641620636	2.5077450275421143
42	126.58959317207336	fix_post	2		12.0	40.0	2.5	/experiments/knapen_aot/oldvideos/R_S_yt-IX6uxR5DSKk_2.mp4	0.0	472.6265091896057	0.0998849868774414
43	126.6894781589508	fix_pre	0		19.0	41.0	2.5	blank	1.0	472.72639417648315	0.15829086303710938
43	126.83958196640015	response	0	2		41.0	2.5	blank	1.0	472.8764979839325	
43	126.84776902198792	movie	1		301.0	41.0	2.5	blank	1.0	472.88468503952026	2.5083529949188232
43	129.35612201690674	fix_post	2		12.0	41.0	2.5	blank	1.0	475.3930380344391	0.10000801086425781
44	129.456130027771	fix_pre	0		40.0	42.0	2.5	/experiments/knapen_aot/oldvideos/R_S_yt-AbJBxqEYoMg_27.mp4	0.0	475.49304604530334	0.3338501453399658
44	129.78121495246887	response	0	2		42.0	2.5	/experiments/knapen_aot/oldvideos/R_S_yt-AbJBxqEYoMg_27.mp4	0.0	475.8181309700012	
44	129.78998017311096	movie	1		301.0	42.0	2.5	/experiments/knapen_aot/oldvideos/R_S_yt-AbJBxqEYoMg_27.mp4	0.0	475.8268961906433	2.5078608989715576
44	132.29784107208252	fix_post	2		12.0	42.0	2.5	/experiments/knapen_aot/oldvideos/R_S_yt-AbJBxqEYoMg_27.mp4	0.0	478.33475708961487	0.09997105598449707
45	132.39781212806702	fix_pre	0		24.0	43.0	2.5	/experiments/knapen_aot/oldvideos/S_yt-2i53vKte7SA_117.mp4	0.0	478.43472814559937	0.19992303848266602
45	132.58954405784607	response	0	2		43.0	2.5	/experiments/knapen_aot/oldvideos/S_yt-2i53vKte7SA_117.mp4	0.0	478.6264600753784	
45	132.59773516654968	movie	1		301.0	43.0	2.5	/experiments/knapen_aot/oldvideos/S_yt-2i53vKte7SA_117.mp4	0.0	478.63465118408203	2.5083320140838623
45	135.10606718063354	fix_post	2		12.0	43.0	2.5	/experiments/knapen_aot/oldvideos/S_yt-2i53vKte7SA_117.mp4	0.0	481.1429831981659	0.09994196891784668
46	135.2060091495514	fix_pre	0		44.0	44.0	2.5	/experiments/knapen_aot/oldvideos/S_ILSVRC2015_train_00682007.mp4	0.0	481.24292516708374	0.3666880130767822
46	135.56450009346008	response	0	2		44.0	2.5	/experiments/knapen_aot/oldvideos/S_ILSVRC2015_train_00682007.mp4	0.0	481.60141611099243	
46	135.57269716262817	movie	1		301.0	44.0	2.5	/experiments/knapen_aot/oldvideos/S_ILSVRC2015_train_00682007.mp4	0.0	481.6096131801605	2.508363962173462
46	138.08106112480164	fix_post	2		12.0	44.0	2.5	/experiments/knapen_aot/oldvideos/S_ILSVRC2015_train_00682007.mp4	0.0	484.117977142334	0.10003089904785156
47	138.1810920238495	fix_pre	0		28.0	45.0	2.5	/experiments/knapen_aot/oldvideos/S_yt-rlEPywo5BEQ_36.mp4	0.0	484.21800804138184	0.2337939739227295
47	138.4061861038208	response	0	2		45.0	2.5	/experiments/knapen_aot/oldvideos/S_yt-rlEPywo5BEQ_36.mp4	0.0	484.44310212135315	
47	138.41488599777222	movie	1		301.0	45.0	2.5	/experiments/knapen_aot/oldvideos/S_yt-rlEPywo5BEQ_36.mp4	0.0	484.45180201530457	2.5078511238098145
47	140.92273712158203	fix_post	2		12.0	45.0	2.5	/experiments/knapen_aot/oldvideos/S_yt-rlEPywo5BEQ_36.mp4	0.0	486.9596531391144	0.0999748706817627
48	141.0227119922638	fix_pre	0		269.0	46.0	2.5	/experiments/knapen_aot/oldvideos/R_S_yt-uT4MXm0UBJM_64.mp4	0.0	487.05962800979614	2.241619110107422
48	143.25613713264465	response	0	2		46.0	2.5	/experiments/knapen_aot/oldvideos/R_S_yt-uT4MXm0UBJM_64.mp4	0.0	489.293053150177	
48	143.26433110237122	movie	1		301.0	46.0	2.5	/experiments/knapen_aot/oldvideos/R_S_yt-uT4MXm0UBJM_64.mp4	0.0	489.30124711990356	2.508579969406128
48	145.77291107177734	fix_post	2		12.0	46.0	2.5	/experiments/knapen_aot/oldvideos/R_S_yt-uT4MXm0UBJM_64.mp4	0.0	491.8098270893097	0.09982109069824219
49	145.8727321624756	fix_pre	0		13.0	47.0	2.5	/experiments/knapen_aot/oldvideos/S_yt-uXDyvrm0Tw0_17.mp4	0.0	491.90964818000793	0.10828089714050293
49	145.97283005714417	response	0	4		47.0	2.5	/experiments/knapen_aot/oldvideos/S_yt-uXDyvrm0Tw0_17.mp4	0.0	492.0097460746765	
49	145.9810130596161	movie	1		301.0	47.0	2.5	/experiments/knapen_aot/oldvideos/S_yt-uXDyvrm0Tw0_17.mp4	0.0	492.01792907714844	2.5084640979766846
49	148.48947715759277	fix_post	2		12.0	47.0	2.5	/experiments/knapen_aot/oldvideos/S_yt-uXDyvrm0Tw0_17.mp4	0.0	494.5263931751251	0.09988093376159668
50	148.58935809135437	fix_pre	0		11.0	48.0	2.5	/experiments/knapen_aot/oldvideos/S_wc-lItGMdwvEd_l_7.mp4	0.0	494.6262741088867	0.09161806106567383
50	148.67277717590332	response	0	4		48.0	2.5	/experiments/knapen_aot/oldvideos/S_wc-lItGMdwvEd_l_7.mp4	0.0	494.70969319343567	
50	148.68097615242004	movie	1		162.0	48.0	2.5	/experiments/knapen_aot/oldvideos/S_wc-lItGMdwvEd_l_7.mp4	0.0	494.7178921699524	2.5084168910980225
50	151.18939304351807	fix_post	2		12.0	48.0	2.5	/experiments/knapen_aot/oldvideos/S_wc-lItGMdwvEd_l_7.mp4	0.0	497.2263090610504	0.10026812553405762
51	151.28966116905212	fix_pre	0		16.0	49.0	2.5	blank	1.0	497.3265771865845	0.13294601440429688
51	151.40693306922913	response	0	4		49.0	2.5	blank	1.0	497.4438490867615	
51	151.42260718345642	movie	1		301.0	49.0	2.5	blank	1.0	497.45952320098877	2.508328914642334
51	153.93093609809875	fix_post	2		12.0	49.0	2.5	blank	1.0	499.9678521156311	0.10006093978881836
52	154.03099703788757	fix_pre	0		35.0	50.0	2.5	/experiments/knapen_aot/oldvideos/S_pexels-kindel-media-8165572.mp4	0.0	500.0679130554199	0.29163694381713867
52	154.3144190311432	response	0	4		50.0	2.5	/experiments/knapen_aot/oldvideos/S_pexels-kindel-media-8165572.mp4	0.0	500.35133504867554	
52	154.3226339817047	movie	1		166.0	50.0	2.5	/experiments/knapen_aot/oldvideos/S_pexels-kindel-media-8165572.mp4	0.0	500.35954999923706	2.5083491802215576
52	156.83098316192627	fix_post	2		12.0	50.0	2.5	/experiments/knapen_aot/oldvideos/S_pexels-kindel-media-8165572.mp4	0.0	502.8678991794586	0.10001802444458008
53	156.93100118637085	fix_pre	0		6.0	51.0	2.5	/experiments/knapen_aot/oldvideos/R_S_flickr-53807584@N00-5565833509_7.mp4	0.0	502.9679172039032	0.04995584487915039
53	156.97284698486328	response	0	4		51.0	2.5	/experiments/knapen_aot/oldvideos/R_S_flickr-53807584@N00-5565833509_7.mp4	0.0	503.00976300239563	
53	156.98095703125	movie	1		301.0	51.0	2.5	/experiments/knapen_aot/oldvideos/R_S_flickr-53807584@N00-5565833509_7.mp4	0.0	503.01787304878235	2.5084121227264404
53	159.48936915397644	fix_post	2		12.0	51.0	2.5	/experiments/knapen_aot/oldvideos/R_S_flickr-53807584@N00-5565833509_7.mp4	0.0	505.5262851715088	0.09993696212768555
54	159.58930611610413	fix_pre	0		16.0	52.0	2.5	/experiments/knapen_aot/oldvideos/S_MEX_A006_C008_SDR_20190923_SDR_2K_AVC.mp4	0.0	505.6262221336365	0.1332859992980957
54	159.71434211730957	response	0	4		52.0	2.5	/experiments/knapen_aot/oldvideos/S_MEX_A006_C008_SDR_20190923_SDR_2K_AVC.mp4	0.0	505.7512581348419	
54	159.72259211540222	movie	1		167.0	52.0	2.5	/experiments/knapen_aot/oldvideos/S_MEX_A006_C008_SDR_20190923_SDR_2K_AVC.mp4	0.0	505.75950813293457	2.508424997329712
54	162.23101711273193	fix_post	2		12.0	52.0	2.5	/experiments/knapen_aot/oldvideos/S_MEX_A006_C008_SDR_20190923_SDR_2K_AVC.mp4	0.0	508.2679331302643	0.10041189193725586
55	162.3314290046692	fix_pre	0		6.0	53.0	2.5	/experiments/knapen_aot/oldvideos/R_S_wc-eJe3wXMgTLRV_20.mp4	0.0	508.36834502220154	0.04951810836791992
55	162.37269711494446	response	0	4		53.0	2.5	/experiments/knapen_aot/oldvideos/R_S_wc-eJe3wXMgTLRV_20.mp4	0.0	508.4096131324768	
55	162.3809471130371	movie	1		167.0	53.0	2.5	/experiments/knapen_aot/oldvideos/R_S_wc-eJe3wXMgTLRV_20.mp4	0.0	508.41786313056946	2.5086610317230225
55	164.88960814476013	fix_post	2		12.0	53.0	2.5	/experiments/knapen_aot/oldvideos/R_S_wc-eJe3wXMgTLRV_20.mp4	0.0	510.9265241622925	0.09970593452453613
56	164.98931407928467	fix_pre	0		15.0	54.0	2.5	/experiments/knapen_aot/oldvideos/S_pexels-mikhail-nilov-8410063.mp4	0.0	511.026230096817	0.12498188018798828
56	165.10604906082153	response	0	4		54.0	2.5	/experiments/knapen_aot/oldvideos/S_pexels-mikhail-nilov-8410063.mp4	0.0	511.1429650783539	
56	165.11429595947266	movie	1		165.0	54.0	2.5	/experiments/knapen_aot/oldvideos/S_pexels-mikhail-nilov-8410063.mp4	0.0	511.151211977005	2.5083210468292236
56	167.62261700630188	fix_post	2		12.0	54.0	2.5	/experiments/knapen_aot/oldvideos/S_pexels-mikhail-nilov-8410063.mp4	0.0	513.6595330238342	0.09989595413208008
57	167.72251296043396	fix_pre	0		12.0	55.0	2.5	blank	1.0	513.7594289779663	0.10008716583251953
57	167.81434202194214	response	0	4		55.0	2.5	blank	1.0	513.8512580394745	
57	167.82260012626648	movie	1		301.0	55.0	2.5	blank	1.0	513.8595161437988	2.5083470344543457
57	170.33094716072083	fix_post	2		12.0	55.0	2.5	blank	1.0	516.3678631782532	0.0999748706817627
58	170.4309220314026	fix_pre	0		23.0	56.0	2.5	/experiments/knapen_aot/oldvideos/S_comp_HK_H004_C010_PSNK_v08_SDR_PS_20181009_SDR_2K_AVC.mp4	0.0	516.4678380489349	0.19213604927062988
58	170.61434817314148	response	0	4		56.0	2.5	/experiments/knapen_aot/oldvideos/S_comp_HK_H004_C010_PSNK_v08_SDR_PS_20181009_SDR_2K_AVC.mp4	0.0	516.6512641906738	
58	170.62305808067322	movie	1		166.0	56.0	2.5	/experiments/knapen_aot/oldvideos/S_comp_HK_H004_C010_PSNK_v08_SDR_PS_20181009_SDR_2K_AVC.mp4	0.0	516.6599740982056	2.507878065109253
58	173.13093614578247	fix_post	2		12.0	56.0	2.5	/experiments/knapen_aot/oldvideos/S_comp_HK_H004_C010_PSNK_v08_SDR_PS_20181009_SDR_2K_AVC.mp4	0.0	519.1678521633148	0.10007596015930176
58	173.19767999649048	response	2	4		56.0	2.5	/experiments/knapen_aot/oldvideos/S_comp_HK_H004_C010_PSNK_v08_SDR_PS_20181009_SDR_2K_AVC.mp4	0.0	519.2345960140228	
59	173.23101210594177	fix_pre	0		104.0	57.0	2.5	/experiments/knapen_aot/oldvideos/S_production_ID_4154238.mp4	0.0	519.2679281234741	0.8665509223937988
59	174.08937811851501	response	0	4		57.0	2.5	/experiments/knapen_aot/oldvideos/S_production_ID_4154238.mp4	0.0	520.1262941360474	
59	174.09756302833557	movie	1		192.0	57.0	2.5	/experiments/knapen_aot/oldvideos/S_production_ID_4154238.mp4	0.0	520.1344790458679	2.508455991744995
59	176.60601902008057	fix_post	2		12.0	57.0	2.5	/experiments/knapen_aot/oldvideos/S_production_ID_4154238.mp4	0.0	522.6429350376129	0.09988093376159668
60	176.70589995384216	fix_pre	0		20.0	58.0	2.5	/experiments/knapen_aot/oldvideos/R_S_ILSVRC2015_train_00556000.mp4	0.0	522.7428159713745	0.16695022583007812
60	176.85679602622986	response	0	4		58.0	2.5	/experiments/knapen_aot/oldvideos/R_S_ILSVRC2015_train_00556000.mp4	0.0	522.8937120437622	
60	176.87285017967224	movie	1		301.0	58.0	2.5	/experiments/knapen_aot/oldvideos/R_S_ILSVRC2015_train_00556000.mp4	0.0	522.9097661972046	2.5080199241638184
60	179.38087010383606	fix_post	2		12.0	58.0	2.5	/experiments/knapen_aot/oldvideos/R_S_ILSVRC2015_train_00556000.mp4	0.0	525.4177861213684	0.10012292861938477
61	179.48099303245544	fix_pre	0		117.0	59.0	2.5	/experiments/knapen_aot/oldvideos/S_yt-fqbi4rGc9dk_65.mp4	0.0	525.5179090499878	0.9751651287078857
61	180.44768810272217	response	0	4		59.0	2.5	/experiments/knapen_aot/oldvideos/S_yt-fqbi4rGc9dk_65.mp4	0.0	526.4846041202545	
61	180.45615816116333	movie	1		301.0	59.0	2.5	/experiments/knapen_aot/oldvideos/S_yt-fqbi4rGc9dk_65.mp4	0.0	526.4930741786957	2.508042812347412
61	182.96420097351074	fix_post	2		12.0	59.0	2.5	/experiments/knapen_aot/oldvideos/S_yt-fqbi4rGc9dk_65.mp4	0.0	529.0011169910431	0.10005712509155273
62	183.0642580986023	fix_pre	0		39.0	60.0	2.5	/experiments/knapen_aot/oldvideos/S_yt-QD74nNliDvI_10.mp4	0.0	529.1011741161346	0.3248288631439209
62	183.38103413581848	response	0	4		60.0	2.5	/experiments/knapen_aot/oldvideos/S_yt-QD74nNliDvI_10.mp4	0.0	529.4179501533508	
62	183.38908696174622	movie	1		301.0	60.0	2.5	/experiments/knapen_aot/oldvideos/S_yt-QD74nNliDvI_10.mp4	0.0	529.4260029792786	2.508458137512207
62	185.89754509925842	fix_post	2		12.0	60.0	2.5	/experiments/knapen_aot/oldvideos/S_yt-QD74nNliDvI_10.mp4	0.0	531.9344611167908	0.10002589225769043
63	185.9975709915161	fix_pre	0		20.0	61.0	2.5	blank	1.0	532.0344870090485	0.16690897941589355
63	186.15591096878052	response	0	4		61.0	2.5	blank	1.0	532.1928269863129	
63	186.164479970932	movie	1		301.0	61.0	2.5	blank	1.0	532.2013959884644	2.508057117462158
63	188.67253708839417	fix_post	2		12.0	61.0	2.5	blank	1.0	534.7094531059265	0.09996390342712402
64	188.7725009918213	fix_pre	0		151.0	62.0	2.5	/experiments/knapen_aot/oldvideos/R_S_yt-BlWfK4MkjWA_469.mp4	0.0	534.8094170093536	1.2582740783691406
64	190.0225920677185	response	0	4		62.0	2.5	/experiments/knapen_aot/oldvideos/R_S_yt-BlWfK4MkjWA_469.mp4	0.0	536.0595080852509	
64	190.03077507019043	movie	1		301.0	62.0	2.5	/experiments/knapen_aot/oldvideos/R_S_yt-BlWfK4MkjWA_469.mp4	0.0	536.0676910877228	2.5083789825439453
64	192.53915405273438	fix_post	2		12.0	62.0	2.5	/experiments/knapen_aot/oldvideos/R_S_yt-BlWfK4MkjWA_469.mp4	0.0	538.5760700702667	0.09995007514953613
65	192.6391041278839	fix_pre	0		30.0	63.0	2.5	/experiments/knapen_aot/oldvideos/S_yt--v_iMUMMX6g_39.mp4	0.0	538.6760201454163	0.25000691413879395
65	192.88083815574646	response	0	4		63.0	2.5	/experiments/knapen_aot/oldvideos/S_yt--v_iMUMMX6g_39.mp4	0.0	538.9177541732788	
65	192.8891110420227	movie	1		301.0	63.0	2.5	/experiments/knapen_aot/oldvideos/S_yt--v_iMUMMX6g_39.mp4	0.0	538.926027059555	2.508431911468506
65	195.3975429534912	fix_post	2		12.0	63.0	2.5	/experiments/knapen_aot/oldvideos/S_yt--v_iMUMMX6g_39.mp4	0.0	541.4344589710236	0.10020017623901367
66	195.49774312973022	fix_pre	0		21.0	64.0	2.5	/experiments/knapen_aot/oldvideos/R_S_yt-8QCcmqaEMPI_16.mp4	0.0	541.5346591472626	0.17480683326721191
66	195.65683817863464	response	0	4		64.0	2.5	/experiments/knapen_aot/oldvideos/R_S_yt-8QCcmqaEMPI_16.mp4	0.0	541.693754196167	
66	195.67254996299744	movie	1		301.0	64.0	2.5	/experiments/knapen_aot/oldvideos/R_S_yt-8QCcmqaEMPI_16.mp4	0.0	541.7094659805298	2.5083210468292236
66	198.18087100982666	fix_post	2		12.0	64.0	2.5	/experiments/knapen_aot/oldvideos/R_S_yt-8QCcmqaEMPI_16.mp4	0.0	544.217787027359	0.09996914863586426
67	198.28084015846252	fix_pre	0		25.0	65.0	2.5	/experiments/knapen_aot/oldvideos/R_S_yt-JTuopUgmg1w_101.mp4	0.0	544.3177561759949	0.2082958221435547
67	198.4809911251068	response	0	4		65.0	2.5	/experiments/knapen_aot/oldvideos/R_S_yt-JTuopUgmg1w_101.mp4	0.0	544.5179071426392	
67	198.48913598060608	movie	1		301.0	65.0	2.5	/experiments/knapen_aot/oldvideos/R_S_yt-JTuopUgmg1w_101.mp4	0.0	544.5260519981384	2.5087950229644775
67	200.99793100357056	fix_post	2		12.0	65.0	2.5	/experiments/knapen_aot/oldvideos/R_S_yt-JTuopUgmg1w_101.mp4	0.0	547.0348470211029	0.09958314895629883
68	201.09751415252686	fix_pre	0		23.0	66.0	2.5	/experiments/knapen_aot/oldvideos/R_S_ILSVRC2015_train_00465000.mp4	0.0	547.1344301700592	0.1917710304260254
68	201.2809271812439	response	0	4		66.0	2.5	/experiments/knapen_aot/oldvideos/R_S_ILSVRC2015_train_00465000.mp4	0.0	547.3178431987762	
68	201.28928518295288	movie	1		301.0	66.0	2.5	/experiments/knapen_aot/oldvideos/R_S_ILSVRC2015_train_00465000.mp4	0.0	547.3262012004852	2.5081868171691895
68	203.79747200012207	fix_post	2		12.0	66.0	2.5	/experiments/knapen_aot/oldvideos/R_S_ILSVRC2015_train_00465000.mp4	0.0	549.8343880176544	0.10003900527954102
69	203.8975110054016	fix_pre	0		114.0	67.0	2.5	/experiments/knapen_aot/oldvideos/R_S_yt-K7viJXt9vX8_143.mp4	0.0	549.934427022934	0.9499461650848389
69	204.839271068573	response	0	4		67.0	2.5	/experiments/knapen_aot/oldvideos/R_S_yt-K7viJXt9vX8_143.mp4	0.0	550.8761870861053	
69	204.84745717048645	movie	1		301.0	67.0	2.5	/experiments/knapen_aot/oldvideos/R_S_yt-K7viJXt9vX8_143.mp4	0.0	550.8843731880188	2.5083699226379395
69	207.3558270931244	fix_post	2		12.0	67.0	2.5	/experiments/knapen_aot/oldvideos/R_S_yt-K7viJXt9vX8_143.mp4	0.0	553.3927431106567	0.10024094581604004
70	207.45606803894043	fix_pre	0		45.0	68.0	2.5	blank	1.0	553.4929840564728	0.37502598762512207
70	207.82257509231567	response	0	4		68.0	2.5	blank	1.0	553.859491109848	
70	207.83109402656555	movie	1		301.0	68.0	2.5	blank	1.0	553.8680100440979	2.508021116256714
70	210.33911514282227	fix_post	2		12.0	68.0	2.5	blank	1.0	556.3760311603546	0.10009884834289551
71	210.43921399116516	fix_pre	0		13.0	69.0	2.5	/experiments/knapen_aot/oldvideos/R_S_pexels-roman-odintsov-8232443.mp4	0.0	556.4761300086975	0.10823202133178711
71	210.53917002677917	response	0	4		69.0	2.5	/experiments/knapen_aot/oldvideos/R_S_pexels-roman-odintsov-8232443.mp4	0.0	556.5760860443115	
71	210.54744601249695	movie	1		200.0	69.0	2.5	/experiments/knapen_aot/oldvideos/R_S_pexels-roman-odintsov-8232443.mp4	0.0	556.5843620300293	2.508296012878418
71	213.05574202537537	fix_post	2		12.0	69.0	2.5	/experiments/knapen_aot/oldvideos/R_S_pexels-roman-odintsov-8232443.mp4	0.0	559.0926580429077	0.100006103515625
72	213.155748128891	fix_pre	0		26.0	70.0	2.5	/experiments/knapen_aot/oldvideos/R_S_yt-fymgyhmYnMI_557.mp4	0.0	559.1926641464233	0.21679186820983887
72	213.36424708366394	response	0	4		70.0	2.5	/experiments/knapen_aot/oldvideos/R_S_yt-fymgyhmYnMI_557.mp4	0.0	559.4011631011963	
72	213.37253999710083	movie	1		301.0	70.0	2.5	/experiments/knapen_aot/oldvideos/R_S_yt-fymgyhmYnMI_557.mp4	0.0	559.4094560146332	2.5081820487976074
72	215.88072204589844	fix_post	2		12.0	70.0	2.5	/experiments/knapen_aot/oldvideos/R_S_yt-fymgyhmYnMI_557.mp4	0.0	561.9176380634308	0.09995698928833008
73	215.98067903518677	fix_pre	0		119.0	71.0	2.5	/experiments/knapen_aot/oldvideos/R_S_production_ID_3927047.mp4	0.0	562.0175950527191	0.9917230606079102
73	216.96421909332275	response	0	4		71.0	2.5	/experiments/knapen_aot/oldvideos/R_S_production_ID_3927047.mp4	0.0	563.0011351108551	
73	216.97240209579468	movie	1		187.0	71.0	2.5	/experiments/knapen_aot/oldvideos/R_S_production_ID_3927047.mp4	0.0	563.009318113327	2.508246898651123
73	219.4806489944458	fix_post	2		12.0	71.0	2.5	/experiments/knapen_aot/oldvideos/R_S_production_ID_3927047.mp4	0.0	565.5175650119781	0.1002190113067627
74	219.58086800575256	fix_pre	0		31.0	72.0	2.5	/experiments/knapen_aot/oldvideos/R_S_yt-8RmEimCI80g_35.mp4	0.0	565.6177840232849	0.2581050395965576
74	219.82336711883545	response	0	4		72.0	2.5	/experiments/knapen_aot/oldvideos/R_S_yt-8RmEimCI80g_35.mp4	0.0	565.8602831363678	
74	219.83897304534912	movie	1		301.0	72.0	2.5	/experiments/knapen_aot/oldvideos/R_S_yt-8RmEimCI80g_35.mp4	0.0	565.8758890628815	2.508784055709839
74	222.34775710105896	fix_post	2		12.0	72.0	2.5	/experiments/knapen_aot/oldvideos/R_S_yt-8RmEimCI80g_35.mp4	0.0	568.3846731185913	0.09952998161315918
75	222.44728708267212	fix_pre	0		8.0	73.0	2.5	/experiments/knapen_aot/oldvideos/R_S_yt-2pRKCSgdXXU_30.mp4	0.0	568.4842031002045	0.0667109489440918
75	222.50578498840332	response	0	4		73.0	2.5	/experiments/knapen_aot/oldvideos/R_S_yt-2pRKCSgdXXU_30.mp4	0.0	568.5427010059357	
75	222.5139980316162	movie	1		301.0	73.0	2.5	/experiments/knapen_aot/oldvideos/R_S_yt-2pRKCSgdXXU_30.mp4	0.0	568.5509140491486	2.508347988128662
75	225.02234601974487	fix_post	2		12.0	73.0	2.5	/experiments/knapen_aot/oldvideos/R_S_yt-2pRKCSgdXXU_30.mp4	0.0	571.0592620372772	0.10049104690551758
76	225.1228370666504	fix_pre	0		29.0	74.0	2.5	/experiments/knapen_aot/oldvideos/R_S_yt-o_Hakzj8PRg_2864.mp4	0.0	571.1597530841827	0.24115395545959473
76	225.35580396652222	response	0	4		74.0	2.5	/experiments/knapen_aot/oldvideos/R_S_yt-o_Hakzj8PRg_2864.mp4	0.0	571.3927199840546	
76	225.36399102210999	movie	1		301.0	74.0	2.5	/experiments/knapen_aot/oldvideos/R_S_yt-o_Hakzj8PRg_2864.mp4	0.0	571.4009070396423	2.5088510513305664
76	227.87284207344055	fix_post	2		12.0	74.0	2.5	/experiments/knapen_aot/oldvideos/R_S_yt-o_Hakzj8PRg_2864.mp4	0.0	573.9097580909729	0.09957194328308105
77	227.97241401672363	fix_pre	0		130.0	75.0	2.5	/experiments/knapen_aot/oldvideos/R_S_yt-ycfVJyrFgB4_15.mp4	0.0	574.009330034256	1.083254098892212
77	229.04748702049255	response	0	4		75.0	2.5	/experiments/knapen_aot/oldvideos/R_S_yt-ycfVJyrFgB4_15.mp4	0.0	575.0844030380249	
77	229.05566811561584	movie	1		301.0	75.0	2.5	/experiments/knapen_aot/oldvideos/R_S_yt-ycfVJyrFgB4_15.mp4	0.0	575.0925841331482	2.5084149837493896
77	231.56408309936523	fix_post	2		12.0	75.0	2.5	/experiments/knapen_aot/oldvideos/R_S_yt-ycfVJyrFgB4_15.mp4	0.0	577.6009991168976	0.09996986389160156
78	231.66405296325684	fix_pre	0		8.0	76.0	2.5	/experiments/knapen_aot/oldvideos/S_-vPHq-7BJ70_15.mp4	0.0	577.7009689807892	0.06664419174194336
78	231.7224531173706	response	0	4		76.0	2.5	/experiments/knapen_aot/oldvideos/S_-vPHq-7BJ70_15.mp4	0.0	577.759369134903	
78	231.73069715499878	movie	1		299.0	76.0	2.5	/experiments/knapen_aot/oldvideos/S_-vPHq-7BJ70_15.mp4	0.0	577.7676131725311	2.508293867111206
78	234.23899102210999	fix_post	2		12.0	76.0	2.5	/experiments/knapen_aot/oldvideos/S_-vPHq-7BJ70_15.mp4	0.0	580.2759070396423	0.09996914863586426
79	234.33896017074585	fix_pre	0		28.0	77.0	2.5	blank	1.0	580.3758761882782	0.2333669662475586
79	234.5641131401062	response	0	4		77.0	2.5	blank	1.0	580.6010291576385	
79	234.5723271369934	movie	1		301.0	77.0	2.5	blank	1.0	580.6092431545258	2.50839900970459
79	237.080726146698	fix_post	2		12.0	77.0	2.5	blank	1.0	583.1176421642303	0.10006093978881836
80	237.18078708648682	fix_pre	0		22.0	78.0	2.5	/experiments/knapen_aot/oldvideos/R_S_yt-JG2OY_7B-gI_537.mp4	0.0	583.2177031040192	0.18316292762756348
80	237.3557059764862	response	0	4		78.0	2.5	/experiments/knapen_aot/oldvideos/R_S_yt-JG2OY_7B-gI_537.mp4	0.0	583.3926219940186	
80	237.36395001411438	movie	1		301.0	78.0	2.5	/experiments/knapen_aot/oldvideos/R_S_yt-JG2OY_7B-gI_537.mp4	0.0	583.4008660316467	2.50839900970459
80	239.87234902381897	fix_post	2		12.0	78.0	2.5	/experiments/knapen_aot/oldvideos/R_S_yt-JG2OY_7B-gI_537.mp4	0.0	585.9092650413513	0.1000821590423584
81	239.97243118286133	fix_pre	0		21.0	79.0	2.5	/experiments/knapen_aot/oldvideos/R_S_yt-ZBk_XFb5PGo_25.mp4	0.0	586.0093472003937	0.17480897903442383
81	240.13918209075928	response	0	4		79.0	2.5	/experiments/knapen_aot/oldvideos/R_S_yt-ZBk_XFb5PGo_25.mp4	0.0	586.1760981082916	
81	240.14724016189575	movie	1		301.0	79.0	2.5	/experiments/knapen_aot/oldvideos/R_S_yt-ZBk_XFb5PGo_25.mp4	0.0	586.1841561794281	2.5083119869232178
81	242.65555214881897	fix_post	2		12.0	79.0	2.5	/experiments/knapen_aot/oldvideos/R_S_yt-ZBk_XFb5PGo_25.mp4	0.0	588.6924681663513	0.1001889705657959
82	242.75574111938477	fix_pre	0		21.0	80.0	2.5	/experiments/knapen_aot/oldvideos/R_S_yt-B7ZRYVhfW2U_52.mp4	0.0	588.7926571369171	0.17479801177978516
82	242.92243003845215	response	0	4		80.0	2.5	/experiments/knapen_aot/oldvideos/R_S_yt-B7ZRYVhfW2U_52.mp4	0.0	588.9593460559845	
82	242.93053913116455	movie	1		301.0	80.0	2.5	/experiments/knapen_aot/oldvideos/R_S_yt-B7ZRYVhfW2U_52.mp4	0.0	588.9674551486969	2.5085020065307617
82	245.4390411376953	fix_post	2		12.0	80.0	2.5	/experiments/knapen_aot/oldvideos/R_S_yt-B7ZRYVhfW2U_52.mp4	0.0	591.4759571552277	0.09991288185119629
83	245.5389540195465	fix_pre	0		25.0	81.0	2.5	/experiments/knapen_aot/oldvideos/R_S_nvbAwZOKBS8_23.mp4	0.0	591.5758700370789	0.2082970142364502
83	245.7390160560608	response	0	4		81.0	2.5	/experiments/knapen_aot/oldvideos/R_S_nvbAwZOKBS8_23.mp4	0.0	591.7759320735931	
83	245.74725103378296	movie	1		301.0	81.0	2.5	/experiments/knapen_aot/oldvideos/R_S_nvbAwZOKBS8_23.mp4	0.0	591.7841670513153	2.508458137512207
83	248.25570917129517	fix_post	2		12.0	81.0	2.5	/experiments/knapen_aot/oldvideos/R_S_nvbAwZOKBS8_23.mp4	0.0	594.2926251888275	0.09987187385559082
84	248.35558104515076	fix_pre	0		31.0	82.0	2.5	/experiments/knapen_aot/oldvideos/R_S_9smWynsk6sI_158.mp4	0.0	594.3924970626831	0.25832390785217285
84	248.60574007034302	response	0	4		82.0	2.5	/experiments/knapen_aot/oldvideos/R_S_9smWynsk6sI_158.mp4	0.0	594.6426560878754	
84	248.61390495300293	movie	1		301.0	82.0	2.5	/experiments/knapen_aot/oldvideos/R_S_9smWynsk6sI_158.mp4	0.0	594.6508209705353	2.508352041244507
84	251.12225699424744	fix_post	2		12.0	82.0	2.5	/experiments/knapen_aot/oldvideos/R_S_9smWynsk6sI_158.mp4	0.0	597.1591730117798	0.10007715225219727
85	251.22233414649963	fix_pre	0		9.0	83.0	2.5	blank	1.0	597.259250164032	0.07489180564880371
85	251.28900909423828	response	0	4		83.0	2.5	blank	1.0	597.3259251117706	
85	251.29722595214844	movie	1		301.0	83.0	2.5	blank	1.0	597.3341419696808	2.5083260536193848
85	253.80555200576782	fix_post	2		12.0	83.0	2.5	blank	1.0	599.8424680233002	0.09997797012329102
87	253.9055299758911	stim	0		338.0					599.9424459934235	2.820768117904663
87	254.0139811038971	response	0	4						600.0508971214294	
87	256.7180531024933	response	0	space						602.7549691200256	
