trial_nr	onset	event_type	phase	response	nr_frames	movie_index	movie_duration	movie_file	blank	onset_abs	duration
0	0.12561392784118652	stim	0		40.0					104.57125782966614	0.3297100067138672
0	0.44721388816833496	response	0	space						104.89285778999329	
1	0.4553239345550537	stim	0		121.0					104.90096783638	1.0085279941558838
1	0.9724040031433105	response	0	space						105.41804790496826	
1	1.2971677780151367	response	0	space						105.74281167984009	
1	1.4638519287109375	stim	1		120.0					105.90949583053589	0.9995460510253906
1	1.6309709548950195	response	1	space						106.07661485671997	
1	2.046787977218628	response	1	space						106.49243187904358	
2	2.463397979736328	fix_pre	0		19.0	0.0	2.5	/experiments/knapen_aot/videos/S_pexels-ekaterina-bolovtsova-7669220.mp4	0.0	106.90904188156128	0.15821480751037598
2	2.6134870052337646	response	0	space		0.0	2.5	/experiments/knapen_aot/videos/S_pexels-ekaterina-bolovtsova-7669220.mp4	0.0	107.05913090705872	
2	2.621612787246704	movie	1		163.0	0.0	2.5	/experiments/knapen_aot/videos/S_pexels-ekaterina-bolovtsova-7669220.mp4	0.0	107.06725668907166	2.5084521770477295
2	5.130064964294434	fix_post	2		12.0	0.0	2.5	/experiments/knapen_aot/videos/S_pexels-ekaterina-bolovtsova-7669220.mp4	0.0	109.57570886611938	0.09996795654296875
3	5.230032920837402	fix_pre	0		30.0	1.0	2.5	/experiments/knapen_aot/videos/S_yt-TbdZrcl_Jso_5.mp4	0.0	109.67567682266235	0.25000500679016113
3	5.468756914138794	response	0	4		1.0	2.5	/experiments/knapen_aot/videos/S_yt-TbdZrcl_Jso_5.mp4	0.0	109.91440081596375	
3	5.4800379276275635	movie	1		301.0	1.0	2.5	/experiments/knapen_aot/videos/S_yt-TbdZrcl_Jso_5.mp4	0.0	109.92568182945251	2.5083460807800293
3	7.988384008407593	fix_post	2		12.0	1.0	2.5	/experiments/knapen_aot/videos/S_yt-TbdZrcl_Jso_5.mp4	0.0	112.43402791023254	0.1000058650970459
4	8.088389873504639	fix_pre	0		35.0	2.0	2.5	/experiments/knapen_aot/videos/R_S_WCwb-DeQOSg_85.mp4	0.0	112.53403377532959	0.29160499572753906
4	8.37179183959961	response	0	4		2.0	2.5	/experiments/knapen_aot/videos/R_S_WCwb-DeQOSg_85.mp4	0.0	112.81743574142456	
4	8.379994869232178	movie	1		301.0	2.0	2.5	/experiments/knapen_aot/videos/R_S_WCwb-DeQOSg_85.mp4	0.0	112.82563877105713	2.5084071159362793
4	10.888401985168457	fix_post	2		12.0	2.0	2.5	/experiments/knapen_aot/videos/R_S_WCwb-DeQOSg_85.mp4	0.0	115.33404588699341	0.09994792938232422
5	10.988349914550781	fix_pre	0		34.0	3.0	2.5	/experiments/knapen_aot/videos/R_S_yt-xqjVM0Vj4mI_161.mp4	0.0	115.43399381637573	0.28322505950927734
5	11.263499975204468	response	0	4		3.0	2.5	/experiments/knapen_aot/videos/R_S_yt-xqjVM0Vj4mI_161.mp4	0.0	115.70914387702942	
5	11.271574974060059	movie	1		301.0	3.0	2.5	/experiments/knapen_aot/videos/R_S_yt-xqjVM0Vj4mI_161.mp4	0.0	115.71721887588501	2.5083818435668945
5	13.779956817626953	fix_post	2		12.0	3.0	2.5	/experiments/knapen_aot/videos/R_S_yt-xqjVM0Vj4mI_161.mp4	0.0	118.2256007194519	0.1000370979309082
6	13.879993915557861	fix_pre	0		149.0	4.0	2.5	/experiments/knapen_aot/videos/R_S_yt-w_e3sxIzepA_27.mp4	0.0	118.32563781738281	1.241610050201416
6	15.113439798355103	response	0	4		4.0	2.5	/experiments/knapen_aot/videos/R_S_yt-w_e3sxIzepA_27.mp4	0.0	119.55908370018005	
6	15.121603965759277	movie	1		301.0	4.0	2.5	/experiments/knapen_aot/videos/R_S_yt-w_e3sxIzepA_27.mp4	0.0	119.56724786758423	2.508410930633545
6	17.04819083213806	response	1	4		4.0	2.5	/experiments/knapen_aot/videos/R_S_yt-w_e3sxIzepA_27.mp4	0.0	121.49383473396301	
6	17.630014896392822	fix_post	2		12.0	4.0	2.5	/experiments/knapen_aot/videos/R_S_yt-w_e3sxIzepA_27.mp4	0.0	122.07565879821777	0.09997701644897461
7	17.729991912841797	fix_pre	0		35.0	5.0	2.5	/experiments/knapen_aot/videos/R_S_yt-bQRBtP9zkms_111.mp4	0.0	122.17563581466675	0.29163694381713867
7	18.013393878936768	response	0	4		5.0	2.5	/experiments/knapen_aot/videos/R_S_yt-bQRBtP9zkms_111.mp4	0.0	122.45903778076172	
7	18.021628856658936	movie	1		301.0	5.0	2.5	/experiments/knapen_aot/videos/R_S_yt-bQRBtP9zkms_111.mp4	0.0	122.46727275848389	2.508362054824829
7	19.92312788963318	response	1	4		5.0	2.5	/experiments/knapen_aot/videos/R_S_yt-bQRBtP9zkms_111.mp4	0.0	124.36877179145813	
7	20.529990911483765	fix_post	2		12.0	5.0	2.5	/experiments/knapen_aot/videos/R_S_yt-bQRBtP9zkms_111.mp4	0.0	124.97563481330872	0.09998297691345215
8	20.629973888397217	fix_pre	0		32.0	6.0	2.5	blank	1.0	125.07561779022217	0.26665592193603516
8	20.88839888572693	response	0	4		6.0	2.5	blank	1.0	125.33404278755188	
8	20.896629810333252	movie	1		301.0	6.0	2.5	blank	1.0	125.3422737121582	2.508213996887207
8	22.121665954589844	response	1	4		6.0	2.5	blank	1.0	126.5673098564148	
8	23.40484380722046	fix_post	2		12.0	6.0	2.5	blank	1.0	127.85048770904541	0.10013508796691895
9	23.504978895187378	fix_pre	0		73.0	7.0	2.5	/experiments/knapen_aot/videos/R_S_BO_A018_C029_SDR_20190812_SDR_2K_AVC.mp4	0.0	127.95062279701233	0.6082680225372314
9	24.10509490966797	response	0	4		7.0	2.5	/experiments/knapen_aot/videos/R_S_BO_A018_C029_SDR_20190812_SDR_2K_AVC.mp4	0.0	128.55073881149292	
9	24.11324691772461	movie	1		195.0	7.0	2.5	/experiments/knapen_aot/videos/R_S_BO_A018_C029_SDR_20190812_SDR_2K_AVC.mp4	0.0	128.55889081954956	2.508344888687134
9	26.621591806411743	fix_post	2		12.0	7.0	2.5	/experiments/knapen_aot/videos/R_S_BO_A018_C029_SDR_20190812_SDR_2K_AVC.mp4	0.0	131.0672357082367	0.09999203681945801
10	26.7215838432312	fix_pre	0		20.0	8.0	2.5	/experiments/knapen_aot/videos/S_yt-w_e3sxIzepA_115.mp4	0.0	131.16722774505615	0.1665821075439453
10	26.880046844482422	response	0	4		8.0	2.5	/experiments/knapen_aot/videos/S_yt-w_e3sxIzepA_115.mp4	0.0	131.32569074630737	
10	26.888165950775146	movie	1		301.0	8.0	2.5	/experiments/knapen_aot/videos/S_yt-w_e3sxIzepA_115.mp4	0.0	131.3338098526001	2.508455991744995
10	29.39662194252014	fix_post	2		12.0	8.0	2.5	/experiments/knapen_aot/videos/S_yt-w_e3sxIzepA_115.mp4	0.0	133.8422658443451	0.09997200965881348
11	29.496593952178955	fix_pre	0		237.0	9.0	2.5	/experiments/knapen_aot/videos/R_S_yt-2ftSsLqRQnA_84.mp4	0.0	133.9422378540039	1.9749529361724854
11	31.46349787712097	response	0	4		9.0	2.5	/experiments/knapen_aot/videos/R_S_yt-2ftSsLqRQnA_84.mp4	0.0	135.90914177894592	
11	31.47154688835144	movie	1		301.0	9.0	2.5	/experiments/knapen_aot/videos/R_S_yt-2ftSsLqRQnA_84.mp4	0.0	135.9171907901764	2.508333921432495
11	33.104986906051636	response	1	4		9.0	2.5	/experiments/knapen_aot/videos/R_S_yt-2ftSsLqRQnA_84.mp4	0.0	137.5506308078766	
11	33.979880809783936	fix_post	2		12.0	9.0	2.5	/experiments/knapen_aot/videos/R_S_yt-2ftSsLqRQnA_84.mp4	0.0	138.4255247116089	0.10004901885986328
12	34.0799298286438	fix_pre	0		40.0	10.0	2.5	/experiments/knapen_aot/videos/R_S_yt-6xXEMHBQ08A_28.mp4	0.0	138.52557373046875	0.333327054977417
12	34.40505599975586	response	0	4		10.0	2.5	/experiments/knapen_aot/videos/R_S_yt-6xXEMHBQ08A_28.mp4	0.0	138.8506999015808	
12	34.413256883621216	movie	1		301.0	10.0	2.5	/experiments/knapen_aot/videos/R_S_yt-6xXEMHBQ08A_28.mp4	0.0	138.85890078544617	2.508305072784424
12	36.92156195640564	fix_post	2		12.0	10.0	2.5	/experiments/knapen_aot/videos/R_S_yt-6xXEMHBQ08A_28.mp4	0.0	141.3672058582306	0.09998703002929688
13	37.02154898643494	fix_pre	0		34.0	11.0	2.5	/experiments/knapen_aot/videos/S_yt-7W50lcw5FCo_37.mp4	0.0	141.4671928882599	0.28332996368408203
13	37.296594858169556	response	0	4		11.0	2.5	/experiments/knapen_aot/videos/S_yt-7W50lcw5FCo_37.mp4	0.0	141.7422387599945	
13	37.30487895011902	movie	1		301.0	11.0	2.5	/experiments/knapen_aot/videos/S_yt-7W50lcw5FCo_37.mp4	0.0	141.75052285194397	2.5083389282226562
13	39.813217878341675	fix_post	2		12.0	11.0	2.5	/experiments/knapen_aot/videos/S_yt-7W50lcw5FCo_37.mp4	0.0	144.25886178016663	0.1000070571899414
14	39.913224935531616	fix_pre	0		34.0	12.0	2.5	/experiments/knapen_aot/videos/R_S_production_ID_4121250.mp4	0.0	144.35886883735657	0.28328895568847656
14	40.1883339881897	response	0	4		12.0	2.5	/experiments/knapen_aot/videos/R_S_production_ID_4121250.mp4	0.0	144.63397789001465	
14	40.19651389122009	movie	1		167.0	12.0	2.5	/experiments/knapen_aot/videos/R_S_production_ID_4121250.mp4	0.0	144.64215779304504	2.508310079574585
14	40.937057971954346	response	1	4		12.0	2.5	/experiments/knapen_aot/videos/R_S_production_ID_4121250.mp4	0.0	145.3827018737793	
14	42.70482397079468	fix_post	2		12.0	12.0	2.5	/experiments/knapen_aot/videos/R_S_production_ID_4121250.mp4	0.0	147.15046787261963	0.10010385513305664
15	42.804927825927734	fix_pre	0		9.0	13.0	2.5	blank	1.0	147.25057172775269	0.0749211311340332
15	42.87164497375488	response	0	4		13.0	2.5	blank	1.0	147.31728887557983	
15	42.87984895706177	movie	1		301.0	13.0	2.5	blank	1.0	147.32549285888672	2.5083630084991455
15	43.62990188598633	response	1	4		13.0	2.5	blank	1.0	148.07554578781128	
15	45.38821196556091	fix_post	2		12.0	13.0	2.5	blank	1.0	149.83385586738586	0.09998703002929688
16	45.48819899559021	fix_pre	0		34.0	14.0	2.5	/experiments/knapen_aot/videos/S_yt-eLQydFSMGCU_75.mp4	0.0	149.93384289741516	0.2833268642425537
16	45.7633318901062	response	0	4		14.0	2.5	/experiments/knapen_aot/videos/S_yt-eLQydFSMGCU_75.mp4	0.0	150.20897579193115	
16	45.771525859832764	movie	1		301.0	14.0	2.5	/experiments/knapen_aot/videos/S_yt-eLQydFSMGCU_75.mp4	0.0	150.21716976165771	2.5083630084991455
16	46.29794979095459	response	1	4		14.0	2.5	/experiments/knapen_aot/videos/S_yt-eLQydFSMGCU_75.mp4	0.0	150.74359369277954	
16	48.27988886833191	fix_post	2		12.0	14.0	2.5	/experiments/knapen_aot/videos/S_yt-eLQydFSMGCU_75.mp4	0.0	152.72553277015686	0.09996390342712402
17	48.37985277175903	fix_pre	0		232.0	15.0	2.5	/experiments/knapen_aot/videos/R_S_yt-Ek1jcvett9E_33.mp4	0.0	152.82549667358398	1.9332852363586426
17	50.30499887466431	response	0	4		15.0	2.5	/experiments/knapen_aot/videos/R_S_yt-Ek1jcvett9E_33.mp4	0.0	154.75064277648926	
17	50.313138008117676	movie	1		301.0	15.0	2.5	/experiments/knapen_aot/videos/R_S_yt-Ek1jcvett9E_33.mp4	0.0	154.75878190994263	2.5084989070892334
17	52.82163691520691	fix_post	2		12.0	15.0	2.5	/experiments/knapen_aot/videos/R_S_yt-Ek1jcvett9E_33.mp4	0.0	157.26728081703186	0.09986495971679688
18	52.921501874923706	fix_pre	0		18.0	16.0	2.5	/experiments/knapen_aot/videos/R_S_flickr-southeasternstar-3464778323_10.mp4	0.0	157.36714577674866	0.150068998336792
18	53.0632688999176	response	0	4		16.0	2.5	/experiments/knapen_aot/videos/R_S_flickr-southeasternstar-3464778323_10.mp4	0.0	157.50891280174255	
18	53.0715708732605	movie	1		301.0	16.0	2.5	/experiments/knapen_aot/videos/R_S_flickr-southeasternstar-3464778323_10.mp4	0.0	157.51721477508545	2.508270025253296
18	55.579840898513794	fix_post	2		12.0	16.0	2.5	/experiments/knapen_aot/videos/R_S_flickr-southeasternstar-3464778323_10.mp4	0.0	160.02548480033875	0.0999610424041748
19	55.67980194091797	fix_pre	0		14.0	17.0	2.5	/experiments/knapen_aot/videos/R_S_yt-iAQ98zgVlds_97.mp4	0.0	160.12544584274292	0.11791396141052246
19	55.788419008255005	response	0	4		17.0	2.5	/experiments/knapen_aot/videos/R_S_yt-iAQ98zgVlds_97.mp4	0.0	160.23406291007996	
19	55.79771590232849	movie	1		301.0	17.0	2.5	/experiments/knapen_aot/videos/R_S_yt-iAQ98zgVlds_97.mp4	0.0	160.24335980415344	2.507097005844116
19	56.56320595741272	response	1	4		17.0	2.5	/experiments/knapen_aot/videos/R_S_yt-iAQ98zgVlds_97.mp4	0.0	161.00884985923767	
19	57.49654483795166	response	1	4		17.0	2.5	/experiments/knapen_aot/videos/R_S_yt-iAQ98zgVlds_97.mp4	0.0	161.9421887397766	
19	58.30481290817261	fix_post	2		12.0	17.0	2.5	/experiments/knapen_aot/videos/R_S_yt-iAQ98zgVlds_97.mp4	0.0	162.75045680999756	0.09998703002929688
20	58.404799938201904	fix_pre	0		5.0	18.0	2.5	/experiments/knapen_aot/videos/R_S_yt-2V2tq9-O_Nc_1669.mp4	0.0	162.85044384002686	0.041610002517700195
20	58.4382438659668	response	0	4		18.0	2.5	/experiments/knapen_aot/videos/R_S_yt-2V2tq9-O_Nc_1669.mp4	0.0	162.88388776779175	
20	58.446409940719604	movie	1		301.0	18.0	2.5	/experiments/knapen_aot/videos/R_S_yt-2V2tq9-O_Nc_1669.mp4	0.0	162.89205384254456	2.5083110332489014
20	60.954720973968506	fix_post	2		12.0	18.0	2.5	/experiments/knapen_aot/videos/R_S_yt-2V2tq9-O_Nc_1669.mp4	0.0	165.40036487579346	0.10007786750793457
21	61.05479884147644	fix_pre	0		19.0	19.0	2.5	blank	1.0	165.5004427433014	0.15942001342773438
21	61.20491886138916	response	0	4		19.0	2.5	blank	1.0	165.6505627632141	
21	61.214218854904175	movie	1		301.0	19.0	2.5	blank	1.0	165.65986275672913	2.507162094116211
21	63.721380949020386	fix_post	2		12.0	19.0	2.5	blank	1.0	168.16702485084534	0.10016202926635742
21	63.73818778991699	response	2	4		19.0	2.5	blank	1.0	168.18383169174194	
22	63.82154297828674	fix_pre	0		38.0	20.0	2.5	/experiments/knapen_aot/videos/R_S_yt-qBPDvSQD0XY_5.mp4	0.0	168.2671868801117	0.31657981872558594
22	64.1298508644104	response	0	4		20.0	2.5	/experiments/knapen_aot/videos/R_S_yt-qBPDvSQD0XY_5.mp4	0.0	168.57549476623535	
22	64.13812279701233	movie	1		300.0	20.0	2.5	/experiments/knapen_aot/videos/R_S_yt-qBPDvSQD0XY_5.mp4	0.0	168.58376669883728	2.508305072784424
22	66.64642786979675	fix_post	2		12.0	20.0	2.5	/experiments/knapen_aot/videos/R_S_yt-qBPDvSQD0XY_5.mp4	0.0	171.0920717716217	0.10006093978881836
23	66.74648880958557	fix_pre	0		20.0	21.0	2.5	/experiments/knapen_aot/videos/R_S_ILSVRC2015_train_00638000.mp4	0.0	171.19213271141052	0.16655397415161133
23	66.90488886833191	response	0	4		21.0	2.5	/experiments/knapen_aot/videos/R_S_ILSVRC2015_train_00638000.mp4	0.0	171.35053277015686	
23	66.91304278373718	movie	1		301.0	21.0	2.5	/experiments/knapen_aot/videos/R_S_ILSVRC2015_train_00638000.mp4	0.0	171.35868668556213	2.508599042892456
23	69.42164182662964	fix_post	2		12.0	21.0	2.5	/experiments/knapen_aot/videos/R_S_ILSVRC2015_train_00638000.mp4	0.0	173.8672857284546	0.09978508949279785
24	69.52142691612244	fix_pre	0		11.0	22.0	2.5	/experiments/knapen_aot/videos/S_production_ID_5144824.mp4	0.0	173.9670708179474	0.09171199798583984
24	69.60484790802002	response	0	4		22.0	2.5	/experiments/knapen_aot/videos/S_production_ID_5144824.mp4	0.0	174.05049180984497	
24	69.61313891410828	movie	1		161.0	22.0	2.5	/experiments/knapen_aot/videos/S_production_ID_5144824.mp4	0.0	174.05878281593323	2.508288860321045
24	70.34667587280273	response	1	4		22.0	2.5	/experiments/knapen_aot/videos/S_production_ID_5144824.mp4	0.0	174.79231977462769	
24	72.12142777442932	fix_post	2		12.0	22.0	2.5	/experiments/knapen_aot/videos/S_production_ID_5144824.mp4	0.0	176.56707167625427	0.10025811195373535
25	72.22168588638306	fix_pre	0		97.0	23.0	2.5	/experiments/knapen_aot/videos/R_S_Pexels_Videos_2376809.mp4	0.0	176.667329788208	0.8080251216888428
25	73.02152585983276	response	0	4		23.0	2.5	/experiments/knapen_aot/videos/R_S_Pexels_Videos_2376809.mp4	0.0	177.46716976165771	
25	73.0297110080719	movie	1		164.0	23.0	2.5	/experiments/knapen_aot/videos/R_S_Pexels_Videos_2376809.mp4	0.0	177.47535490989685	2.508457899093628
25	75.53816890716553	fix_post	2		12.0	23.0	2.5	/experiments/knapen_aot/videos/R_S_Pexels_Videos_2376809.mp4	0.0	179.98381280899048	0.0998539924621582
26	75.63802289962769	fix_pre	0		32.0	24.0	2.5	/experiments/knapen_aot/videos/R_S_yt-H611SOb1T78_189.mp4	0.0	180.08366680145264	0.26671409606933594
26	75.89652585983276	response	0	4		24.0	2.5	/experiments/knapen_aot/videos/R_S_yt-H611SOb1T78_189.mp4	0.0	180.34216976165771	
26	75.90473699569702	movie	1		301.0	24.0	2.5	/experiments/knapen_aot/videos/R_S_yt-H611SOb1T78_189.mp4	0.0	180.35038089752197	2.508331775665283
26	78.4130687713623	fix_post	2		12.0	24.0	2.5	/experiments/knapen_aot/videos/R_S_yt-H611SOb1T78_189.mp4	0.0	182.85871267318726	0.0999460220336914
27	78.513014793396	fix_pre	0		158.0	25.0	2.5	/experiments/knapen_aot/videos/R_S_pexels-koolshooters-7689098.mp4	0.0	182.95865869522095	1.3167030811309814
27	79.81393194198608	response	0	4		25.0	2.5	/experiments/knapen_aot/videos/R_S_pexels-koolshooters-7689098.mp4	0.0	184.25957584381104	
27	79.82971787452698	movie	1		165.0	25.0	2.5	/experiments/knapen_aot/videos/R_S_pexels-koolshooters-7689098.mp4	0.0	184.27536177635193	2.508441925048828
27	82.3381597995758	fix_post	2		12.0	25.0	2.5	/experiments/knapen_aot/videos/R_S_pexels-koolshooters-7689098.mp4	0.0	186.78380370140076	0.09982109069824219
28	82.43798089027405	fix_pre	0		27.0	26.0	2.5	/experiments/knapen_aot/videos/S_yt-9Z9-RT-ysEE_85.mp4	0.0	186.883624792099	0.22501301765441895
28	82.65484499931335	response	0	4		26.0	2.5	/experiments/knapen_aot/videos/S_yt-9Z9-RT-ysEE_85.mp4	0.0	187.1004889011383	
28	82.66299390792847	movie	1		301.0	26.0	2.5	/experiments/knapen_aot/videos/S_yt-9Z9-RT-ysEE_85.mp4	0.0	187.10863780975342	2.5083930492401123
28	85.17138695716858	fix_post	2		12.0	26.0	2.5	/experiments/knapen_aot/videos/S_yt-9Z9-RT-ysEE_85.mp4	0.0	189.61703085899353	0.10006403923034668
29	85.27145099639893	fix_pre	0		394.0	27.0	2.5	blank	1.0	189.71709489822388	3.283144950866699
29	88.54649996757507	response	0	4		27.0	2.5	blank	1.0	192.99214386940002	
29	88.55459594726562	movie	1		301.0	27.0	2.5	blank	1.0	193.00023984909058	2.508441925048828
29	91.06303787231445	fix_post	2		12.0	27.0	2.5	blank	1.0	195.5086817741394	0.10009598731994629
30	91.1631338596344	fix_pre	0		129.0	28.0	2.5	/experiments/knapen_aot/videos/S_yt-4qU-6TEW06E_38.mp4	0.0	195.60877776145935	1.0748519897460938
30	92.22979784011841	response	0	4		28.0	2.5	/experiments/knapen_aot/videos/S_yt-4qU-6TEW06E_38.mp4	0.0	196.67544174194336	
30	92.2379858493805	movie	1		301.0	28.0	2.5	/experiments/knapen_aot/videos/S_yt-4qU-6TEW06E_38.mp4	0.0	196.68362975120544	2.508420944213867
30	94.74640679359436	fix_post	2		12.0	28.0	2.5	/experiments/knapen_aot/videos/S_yt-4qU-6TEW06E_38.mp4	0.0	199.1920506954193	0.09994721412658691
31	94.84635400772095	fix_pre	0		27.0	29.0	2.5	/experiments/knapen_aot/videos/S_yt-7XDVHp75fu4_93.mp4	0.0	199.2919979095459	0.2250359058380127
31	95.06310796737671	response	0	4		29.0	2.5	/experiments/knapen_aot/videos/S_yt-7XDVHp75fu4_93.mp4	0.0	199.50875186920166	
31	95.07138991355896	movie	1		301.0	29.0	2.5	/experiments/knapen_aot/videos/S_yt-7XDVHp75fu4_93.mp4	0.0	199.5170338153839	2.508246898651123
31	97.07145595550537	response	1	4		29.0	2.5	/experiments/knapen_aot/videos/S_yt-7XDVHp75fu4_93.mp4	0.0	201.51709985733032	
31	97.57963681221008	fix_post	2		12.0	29.0	2.5	/experiments/knapen_aot/videos/S_yt-7XDVHp75fu4_93.mp4	0.0	202.02528071403503	0.09995603561401367
32	97.6795928478241	fix_pre	0		61.0	30.0	2.5	/experiments/knapen_aot/videos/S_video_inspire_oregon_portland_00064.1080-h264.mp4	0.0	202.12523674964905	0.5083720684051514
32	98.17219996452332	response	0	4		30.0	2.5	/experiments/knapen_aot/videos/S_video_inspire_oregon_portland_00064.1080-h264.mp4	0.0	202.61784386634827	
32	98.18796491622925	movie	1		167.0	30.0	2.5	/experiments/knapen_aot/videos/S_video_inspire_oregon_portland_00064.1080-h264.mp4	0.0	202.6336088180542	2.5083398818969727
32	100.69630479812622	fix_post	2		12.0	30.0	2.5	/experiments/knapen_aot/videos/S_video_inspire_oregon_portland_00064.1080-h264.mp4	0.0	205.14194869995117	0.09994006156921387
33	100.79624485969543	fix_pre	0		56.0	31.0	2.5	/experiments/knapen_aot/videos/R_S_yt-Jro_TRE8NUQ_234.mp4	0.0	205.24188876152039	0.4666421413421631
33	101.25465488433838	response	0	4		31.0	2.5	/experiments/knapen_aot/videos/R_S_yt-Jro_TRE8NUQ_234.mp4	0.0	205.70029878616333	
33	101.2628870010376	movie	1		301.0	31.0	2.5	/experiments/knapen_aot/videos/R_S_yt-Jro_TRE8NUQ_234.mp4	0.0	205.70853090286255	2.508600950241089
33	103.18810486793518	response	1	4		31.0	2.5	/experiments/knapen_aot/videos/R_S_yt-Jro_TRE8NUQ_234.mp4	0.0	207.63374876976013	
33	103.77148795127869	fix_post	2		12.0	31.0	2.5	/experiments/knapen_aot/videos/R_S_yt-Jro_TRE8NUQ_234.mp4	0.0	208.21713185310364	0.10024189949035645
34	103.87172985076904	fix_pre	0		10.0	32.0	2.5	/experiments/knapen_aot/videos/R_S_yt-bH4nJibL4Jo_164.mp4	0.0	208.317373752594	0.08285903930664062
34	103.94636678695679	response	0	4		32.0	2.5	/experiments/knapen_aot/videos/R_S_yt-bH4nJibL4Jo_164.mp4	0.0	208.39201068878174	
34	103.95458889007568	movie	1		301.0	32.0	2.5	/experiments/knapen_aot/videos/R_S_yt-bH4nJibL4Jo_164.mp4	0.0	208.40023279190063	2.5082919597625732
34	105.18802285194397	response	1	4		32.0	2.5	/experiments/knapen_aot/videos/R_S_yt-bH4nJibL4Jo_164.mp4	0.0	209.63366675376892	
34	106.46288084983826	fix_post	2		12.0	32.0	2.5	/experiments/knapen_aot/videos/R_S_yt-bH4nJibL4Jo_164.mp4	0.0	210.9085247516632	0.10004901885986328
35	106.56292986869812	fix_pre	0		143.0	33.0	2.5	/experiments/knapen_aot/videos/R_S_yt-EKPrSw5xF7k_112.mp4	0.0	211.00857377052307	1.192655086517334
35	107.74625086784363	response	0	4		33.0	2.5	/experiments/knapen_aot/videos/R_S_yt-EKPrSw5xF7k_112.mp4	0.0	212.19189476966858	
35	107.75558495521545	movie	1		301.0	33.0	2.5	/experiments/knapen_aot/videos/R_S_yt-EKPrSw5xF7k_112.mp4	0.0	212.2012288570404	2.5073459148406982
35	110.26293087005615	fix_post	2		12.0	33.0	2.5	/experiments/knapen_aot/videos/R_S_yt-EKPrSw5xF7k_112.mp4	0.0	214.7085747718811	0.09998893737792969
36	110.36291980743408	fix_pre	0		47.0	34.0	2.5	/experiments/knapen_aot/videos/R_S_wc-jujp1kJRHrkJ_54.mp4	0.0	214.80856370925903	0.3925600051879883
36	110.74643683433533	response	0	4		34.0	2.5	/experiments/knapen_aot/videos/R_S_wc-jujp1kJRHrkJ_54.mp4	0.0	215.19208073616028	
36	110.75547981262207	movie	1		301.0	34.0	2.5	/experiments/knapen_aot/videos/R_S_wc-jujp1kJRHrkJ_54.mp4	0.0	215.20112371444702	2.5073699951171875
36	112.31314992904663	response	1	4		34.0	2.5	/experiments/knapen_aot/videos/R_S_wc-jujp1kJRHrkJ_54.mp4	0.0	216.75879383087158	
36	112.82518887519836	response	1	4		34.0	2.5	/experiments/knapen_aot/videos/R_S_wc-jujp1kJRHrkJ_54.mp4	0.0	217.27083277702332	
36	113.26284980773926	fix_post	2		12.0	34.0	2.5	/experiments/knapen_aot/videos/R_S_wc-jujp1kJRHrkJ_54.mp4	0.0	217.7084937095642	0.10005807876586914
36	113.26452088356018	response	2	4		34.0	2.5	/experiments/knapen_aot/videos/R_S_wc-jujp1kJRHrkJ_54.mp4	0.0	217.71016478538513	
37	113.36290788650513	fix_pre	0		33.0	35.0	2.5	blank	1.0	217.80855178833008	0.27498602867126465
37	113.6296079158783	response	0	4		35.0	2.5	blank	1.0	218.07525181770325	
37	113.63789391517639	movie	1		301.0	35.0	2.5	blank	1.0	218.08353781700134	2.5083749294281006
37	116.03796792030334	response	1	4		35.0	2.5	blank	1.0	220.4836118221283	
37	116.14626884460449	fix_post	2		12.0	35.0	2.5	blank	1.0	220.59191274642944	0.10035300254821777
38	116.24662184715271	fix_pre	0		83.0	36.0	2.5	/experiments/knapen_aot/videos/S_video_inspire_florida_miami_brickell_sunset_00036.1080-h264.mp4	0.0	220.69226574897766	0.6913299560546875
38	116.92954277992249	response	0	4		36.0	2.5	/experiments/knapen_aot/videos/S_video_inspire_florida_miami_brickell_sunset_00036.1080-h264.mp4	0.0	221.37518668174744	
38	116.9379518032074	movie	1		178.0	36.0	2.5	/experiments/knapen_aot/videos/S_video_inspire_florida_miami_brickell_sunset_00036.1080-h264.mp4	0.0	221.38359570503235	2.5081961154937744
38	119.44614791870117	fix_post	2		12.0	36.0	2.5	/experiments/knapen_aot/videos/S_video_inspire_florida_miami_brickell_sunset_00036.1080-h264.mp4	0.0	223.89179182052612	0.10044407844543457
39	119.5465919971466	fix_pre	0		17.0	37.0	2.5	/experiments/knapen_aot/videos/S_production_ID_4428752.mp4	0.0	223.99223589897156	0.14125585556030273
39	119.67964482307434	response	0	4		37.0	2.5	/experiments/knapen_aot/videos/S_production_ID_4428752.mp4	0.0	224.1252887248993	
39	119.68784785270691	movie	1		165.0	37.0	2.5	/experiments/knapen_aot/videos/S_production_ID_4428752.mp4	0.0	224.13349175453186	2.508286952972412
39	120.32856297492981	response	1	4		37.0	2.5	/experiments/knapen_aot/videos/S_production_ID_4428752.mp4	0.0	224.77420687675476	
39	122.19613480567932	fix_post	2		12.0	37.0	2.5	/experiments/knapen_aot/videos/S_production_ID_4428752.mp4	0.0	226.64177870750427	0.10010719299316406
40	122.29624199867249	fix_pre	0		137.0	38.0	2.5	/experiments/knapen_aot/videos/S_BO_A018_C029_SDR_20190812_SDR_2K_AVC.mp4	0.0	226.74188590049744	1.1416008472442627
40	123.42958283424377	response	0	4		38.0	2.5	/experiments/knapen_aot/videos/S_BO_A018_C029_SDR_20190812_SDR_2K_AVC.mp4	0.0	227.87522673606873	
40	123.43784284591675	movie	1		163.0	38.0	2.5	/experiments/knapen_aot/videos/S_BO_A018_C029_SDR_20190812_SDR_2K_AVC.mp4	0.0	227.8834867477417	2.5083351135253906
40	124.93795990943909	response	1	4		38.0	2.5	/experiments/knapen_aot/videos/S_BO_A018_C029_SDR_20190812_SDR_2K_AVC.mp4	0.0	229.38360381126404	
40	125.69485998153687	response	1	4		38.0	2.5	/experiments/knapen_aot/videos/S_BO_A018_C029_SDR_20190812_SDR_2K_AVC.mp4	0.0	230.14050388336182	
40	125.94617795944214	fix_post	2		12.0	38.0	2.5	/experiments/knapen_aot/videos/S_BO_A018_C029_SDR_20190812_SDR_2K_AVC.mp4	0.0	230.3918218612671	0.09994792938232422
41	126.04612588882446	fix_pre	0		12.0	39.0	2.5	/experiments/knapen_aot/videos/S_production_ID_5144823.mp4	0.0	230.4917697906494	0.10003805160522461
41	126.13793396949768	response	0	4		39.0	2.5	/experiments/knapen_aot/videos/S_production_ID_5144823.mp4	0.0	230.58357787132263	
41	126.14616394042969	movie	1		164.0	39.0	2.5	/experiments/knapen_aot/videos/S_production_ID_5144823.mp4	0.0	230.59180784225464	2.508358955383301
41	128.654522895813	fix_post	2		12.0	39.0	2.5	/experiments/knapen_aot/videos/S_production_ID_5144823.mp4	0.0	233.10016679763794	0.1001279354095459
42	128.75465083122253	fix_pre	0		30.0	40.0	2.5	blank	1.0	233.20029473304749	0.2507150173187256
42	128.99620580673218	response	0	4		40.0	2.5	blank	1.0	233.44184970855713	
42	129.00536584854126	movie	1		301.0	40.0	2.5	blank	1.0	233.4510097503662	2.507456064224243
42	130.07955884933472	response	1	4		40.0	2.5	blank	1.0	234.52520275115967	
42	131.5128219127655	fix_post	2		12.0	40.0	2.5	blank	1.0	235.95846581459045	0.10001206398010254
43	131.6128339767456	fix_pre	0		98.0	41.0	2.5	/experiments/knapen_aot/videos/R_S_yt-z16pdVTZK1o_3.mp4	0.0	236.05847787857056	0.8166108131408691
43	132.42118883132935	response	0	4		41.0	2.5	/experiments/knapen_aot/videos/R_S_yt-z16pdVTZK1o_3.mp4	0.0	236.8668327331543	
43	132.42944478988647	movie	1		301.0	41.0	2.5	/experiments/knapen_aot/videos/R_S_yt-z16pdVTZK1o_3.mp4	0.0	236.87508869171143	2.508484125137329
43	134.9379289150238	fix_post	2		12.0	41.0	2.5	/experiments/knapen_aot/videos/R_S_yt-z16pdVTZK1o_3.mp4	0.0	239.38357281684875	0.09986495971679688
44	135.0377938747406	fix_pre	0		23.0	42.0	2.5	/experiments/knapen_aot/videos/S_yt-nS2QqSQbjOQ_39.mp4	0.0	239.48343777656555	0.19164800643920898
44	135.2212779521942	response	0	4		42.0	2.5	/experiments/knapen_aot/videos/S_yt-nS2QqSQbjOQ_39.mp4	0.0	239.66692185401917	
44	135.2294418811798	movie	1		301.0	42.0	2.5	/experiments/knapen_aot/videos/S_yt-nS2QqSQbjOQ_39.mp4	0.0	239.67508578300476	2.508291006088257
44	137.73773288726807	fix_post	2		12.0	42.0	2.5	/experiments/knapen_aot/videos/S_yt-nS2QqSQbjOQ_39.mp4	0.0	242.18337678909302	0.1000509262084961
45	137.83778381347656	fix_pre	0		18.0	43.0	2.5	/experiments/knapen_aot/videos/S_bing-www_break_com_video_like-a-cat-catching-a-fly-3131008_12.mp4	0.0	242.2834277153015	0.150068998336792
45	137.97956085205078	response	0	4		43.0	2.5	/experiments/knapen_aot/videos/S_bing-www_break_com_video_like-a-cat-catching-a-fly-3131008_12.mp4	0.0	242.42520475387573	
45	137.98785281181335	movie	1		301.0	43.0	2.5	/experiments/knapen_aot/videos/S_bing-www_break_com_video_like-a-cat-catching-a-fly-3131008_12.mp4	0.0	242.4334967136383	2.5083911418914795
45	139.99122381210327	response	1	4		43.0	2.5	/experiments/knapen_aot/videos/S_bing-www_break_com_video_like-a-cat-catching-a-fly-3131008_12.mp4	0.0	244.43686771392822	
45	140.49624395370483	fix_post	2		12.0	43.0	2.5	/experiments/knapen_aot/videos/S_bing-www_break_com_video_like-a-cat-catching-a-fly-3131008_12.mp4	0.0	244.94188785552979	0.09980297088623047
46	140.59604692459106	fix_pre	0		29.0	44.0	2.5	/experiments/knapen_aot/videos/S_yt--I4Ggi6-QOE_23.mp4	0.0	245.04169082641602	0.24257588386535645
46	140.82955288887024	response	0	4		44.0	2.5	/experiments/knapen_aot/videos/S_yt--I4Ggi6-QOE_23.mp4	0.0	245.2751967906952	
46	140.83862280845642	movie	1		301.0	44.0	2.5	/experiments/knapen_aot/videos/S_yt--I4Ggi6-QOE_23.mp4	0.0	245.28426671028137	2.5074121952056885
46	142.50523781776428	response	1	4		44.0	2.5	/experiments/knapen_aot/videos/S_yt--I4Ggi6-QOE_23.mp4	0.0	246.95088171958923	
46	143.17194986343384	response	1	4		44.0	2.5	/experiments/knapen_aot/videos/S_yt--I4Ggi6-QOE_23.mp4	0.0	247.6175937652588	
46	143.3460350036621	fix_post	2		12.0	44.0	2.5	/experiments/knapen_aot/videos/S_yt--I4Ggi6-QOE_23.mp4	0.0	247.79167890548706	0.10009479522705078
47	143.44612979888916	fix_pre	0		36.0	45.0	2.5	/experiments/knapen_aot/videos/R_S_ILSVRC2015_train_00572000.mp4	0.0	247.8917737007141	0.29987215995788574
47	143.73783493041992	response	0	4		45.0	2.5	/experiments/knapen_aot/videos/R_S_ILSVRC2015_train_00572000.mp4	0.0	248.18347883224487	
47	143.74600195884705	movie	1		301.0	45.0	2.5	/experiments/knapen_aot/videos/R_S_ILSVRC2015_train_00572000.mp4	0.0	248.191645860672	2.5084228515625
47	146.25442481040955	fix_post	2		12.0	45.0	2.5	/experiments/knapen_aot/videos/R_S_ILSVRC2015_train_00572000.mp4	0.0	250.7000687122345	0.1000070571899414
48	146.3544318675995	fix_pre	0		31.0	46.0	2.5	/experiments/knapen_aot/videos/R_S_yt-Xkx53mjgj2E_30.mp4	0.0	250.80007576942444	0.258281946182251
48	146.60449481010437	response	0	4		46.0	2.5	/experiments/knapen_aot/videos/R_S_yt-Xkx53mjgj2E_30.mp4	0.0	251.05013871192932	
48	146.61271381378174	movie	1		301.0	46.0	2.5	/experiments/knapen_aot/videos/R_S_yt-Xkx53mjgj2E_30.mp4	0.0	251.0583577156067	2.5083730220794678
48	148.2968349456787	response	1	4		46.0	2.5	/experiments/knapen_aot/videos/R_S_yt-Xkx53mjgj2E_30.mp4	0.0	252.74247884750366	
48	149.1210868358612	fix_post	2		12.0	46.0	2.5	/experiments/knapen_aot/videos/R_S_yt-Xkx53mjgj2E_30.mp4	0.0	253.56673073768616	0.09998297691345215
49	149.22106981277466	fix_pre	0		18.0	47.0	2.5	blank	1.0	253.6667137145996	0.14990997314453125
49	149.36282181739807	response	0	4		47.0	2.5	blank	1.0	253.80846571922302	
49	149.3709797859192	movie	1		301.0	47.0	2.5	blank	1.0	253.81662368774414	2.508439064025879
49	151.52117490768433	response	1	4		47.0	2.5	blank	1.0	255.96681880950928	
49	151.87941884994507	fix_post	2		12.0	47.0	2.5	blank	1.0	256.32506275177	0.10000109672546387
50	151.97941994667053	fix_pre	0		17.0	48.0	2.5	/experiments/knapen_aot/videos/S_yt-PaxmJhMoP3w_87.mp4	0.0	256.4250638484955	0.14155793190002441
50	152.11284685134888	response	0	4		48.0	2.5	/experiments/knapen_aot/videos/S_yt-PaxmJhMoP3w_87.mp4	0.0	256.5584907531738	
50	152.12097787857056	movie	1		301.0	48.0	2.5	/experiments/knapen_aot/videos/S_yt-PaxmJhMoP3w_87.mp4	0.0	256.5666217803955	2.50844407081604
50	153.6718089580536	response	1	4		48.0	2.5	/experiments/knapen_aot/videos/S_yt-PaxmJhMoP3w_87.mp4	0.0	258.11745285987854	
50	154.52948999404907	response	1	4		48.0	2.5	/experiments/knapen_aot/videos/S_yt-PaxmJhMoP3w_87.mp4	0.0	258.975133895874	
50	154.6294219493866	fix_post	2		12.0	48.0	2.5	/experiments/knapen_aot/videos/S_yt-PaxmJhMoP3w_87.mp4	0.0	259.07506585121155	0.0999748706817627
51	154.72939682006836	fix_pre	0		31.0	49.0	2.5	/experiments/knapen_aot/videos/S_yt-N1EsjM9gD5Q_21.mp4	0.0	259.1750407218933	0.2583119869232178
51	154.9794888496399	response	0	4		49.0	2.5	/experiments/knapen_aot/videos/S_yt-N1EsjM9gD5Q_21.mp4	0.0	259.42513275146484	
51	154.98770880699158	movie	1		301.0	49.0	2.5	/experiments/knapen_aot/videos/S_yt-N1EsjM9gD5Q_21.mp4	0.0	259.4333527088165	2.508510112762451
51	156.67185378074646	response	1	4		49.0	2.5	/experiments/knapen_aot/videos/S_yt-N1EsjM9gD5Q_21.mp4	0.0	261.1174976825714	
51	157.34614777565002	response	1	4		49.0	2.5	/experiments/knapen_aot/videos/S_yt-N1EsjM9gD5Q_21.mp4	0.0	261.791791677475	
51	157.49621891975403	fix_post	2		12.0	49.0	2.5	/experiments/knapen_aot/videos/S_yt-N1EsjM9gD5Q_21.mp4	0.0	261.941862821579	0.0997469425201416
52	157.59596586227417	fix_pre	0		26.0	50.0	2.5	/experiments/knapen_aot/videos/S_yt-Ek1jcvett9E_33.mp4	0.0	262.0416097640991	0.2167339324951172
52	157.80443787574768	response	0	4		50.0	2.5	/experiments/knapen_aot/videos/S_yt-Ek1jcvett9E_33.mp4	0.0	262.25008177757263	
52	157.8126997947693	movie	1		301.0	50.0	2.5	/experiments/knapen_aot/videos/S_yt-Ek1jcvett9E_33.mp4	0.0	262.25834369659424	2.5083861351013184
52	160.3210859298706	fix_post	2		12.0	50.0	2.5	/experiments/knapen_aot/videos/S_yt-Ek1jcvett9E_33.mp4	0.0	264.76672983169556	0.09996199607849121
53	160.4210479259491	fix_pre	0		19.0	51.0	2.5	/experiments/knapen_aot/videos/S_yt-qBPDvSQD0XY_5.mp4	0.0	264.86669182777405	0.15827107429504395
53	160.5711658000946	response	0	4		51.0	2.5	/experiments/knapen_aot/videos/S_yt-qBPDvSQD0XY_5.mp4	0.0	265.01680970191956	
53	160.57931900024414	movie	1		301.0	51.0	2.5	/experiments/knapen_aot/videos/S_yt-qBPDvSQD0XY_5.mp4	0.0	265.0249629020691	2.5083959102630615
53	163.06273794174194	response	1	4		51.0	2.5	/experiments/knapen_aot/videos/S_yt-qBPDvSQD0XY_5.mp4	0.0	267.5083818435669	
53	163.0877149105072	fix_post	2		12.0	51.0	2.5	/experiments/knapen_aot/videos/S_yt-qBPDvSQD0XY_5.mp4	0.0	267.53335881233215	0.09996390342712402
54	163.18767881393433	fix_pre	0		40.0	52.0	2.5	/experiments/knapen_aot/videos/R_S_production_ID_4707837.mp4	0.0	267.6333227157593	0.3332691192626953
54	163.51274394989014	response	0	4		52.0	2.5	/experiments/knapen_aot/videos/R_S_production_ID_4707837.mp4	0.0	267.9583878517151	
54	163.52094793319702	movie	1		166.0	52.0	2.5	/experiments/knapen_aot/videos/R_S_production_ID_4707837.mp4	0.0	267.966591835022	2.5083680152893066
54	164.75448298454285	response	1	4		52.0	2.5	/experiments/knapen_aot/videos/R_S_production_ID_4707837.mp4	0.0	269.2001268863678	
54	166.02931594848633	fix_post	2		12.0	52.0	2.5	/experiments/knapen_aot/videos/R_S_production_ID_4707837.mp4	0.0	270.4749598503113	0.10001683235168457
55	166.129332780838	fix_pre	0		49.0	53.0	2.5	/experiments/knapen_aot/videos/S_video_inspire_florida_miami_brickell_sunset_00036.1080-h264.mp4	0.0	270.57497668266296	0.4082791805267334
55	166.52938580513	response	0	4		53.0	2.5	/experiments/knapen_aot/videos/S_video_inspire_florida_miami_brickell_sunset_00036.1080-h264.mp4	0.0	270.97502970695496	
55	166.53761196136475	movie	1		167.0	53.0	2.5	/experiments/knapen_aot/videos/S_video_inspire_florida_miami_brickell_sunset_00036.1080-h264.mp4	0.0	270.9832558631897	2.5083789825439453
55	168.06161785125732	response	1	4		53.0	2.5	/experiments/knapen_aot/videos/S_video_inspire_florida_miami_brickell_sunset_00036.1080-h264.mp4	0.0	272.5072617530823	
55	169.0459909439087	fix_post	2		12.0	53.0	2.5	/experiments/knapen_aot/videos/S_video_inspire_florida_miami_brickell_sunset_00036.1080-h264.mp4	0.0	273.49163484573364	0.09994983673095703
56	169.14594078063965	fix_pre	0		160.0	54.0	2.5	/experiments/knapen_aot/videos/R_S_yt-IigHVUksnw8_7.mp4	0.0	273.5915846824646	1.333381175994873
56	170.47106385231018	response	0	4		54.0	2.5	/experiments/knapen_aot/videos/R_S_yt-IigHVUksnw8_7.mp4	0.0	274.91670775413513	
56	170.47932195663452	movie	1		301.0	54.0	2.5	/experiments/knapen_aot/videos/R_S_yt-IigHVUksnw8_7.mp4	0.0	274.9249658584595	2.508316993713379
56	172.9876389503479	fix_post	2		12.0	54.0	2.5	/experiments/knapen_aot/videos/R_S_yt-IigHVUksnw8_7.mp4	0.0	277.43328285217285	0.0999758243560791
57	173.08761477470398	fix_pre	0		31.0	55.0	2.5	blank	1.0	277.53325867652893	0.2582821846008301
57	173.33777785301208	response	0	4		55.0	2.5	blank	1.0	277.78342175483704	
57	173.3458969593048	movie	1		301.0	55.0	2.5	blank	1.0	277.79154086112976	2.508340835571289
57	175.8542377948761	fix_post	2		12.0	55.0	2.5	blank	1.0	280.29988169670105	0.1000661849975586
58	175.95430397987366	fix_pre	0		32.0	56.0	2.5	/experiments/knapen_aot/videos/R_S_yt-0aHV3uU8xFY_75.mp4	0.0	280.3999478816986	0.26660990715026855
58	176.21265482902527	response	0	4		56.0	2.5	/experiments/knapen_aot/videos/R_S_yt-0aHV3uU8xFY_75.mp4	0.0	280.6582987308502	
58	176.22091388702393	movie	1		301.0	56.0	2.5	/experiments/knapen_aot/videos/R_S_yt-0aHV3uU8xFY_75.mp4	0.0	280.6665577888489	2.5083401203155518
58	178.72925400733948	fix_post	2		12.0	56.0	2.5	/experiments/knapen_aot/videos/R_S_yt-0aHV3uU8xFY_75.mp4	0.0	283.17489790916443	0.10008883476257324
59	178.82934284210205	fix_pre	0		31.0	57.0	2.5	/experiments/knapen_aot/videos/S_production_ID_4802710.mp4	0.0	283.274986743927	0.2588479518890381
59	179.07935094833374	response	0	4		57.0	2.5	/experiments/knapen_aot/videos/S_production_ID_4802710.mp4	0.0	283.5249948501587	
59	179.0881907939911	movie	1		165.0	57.0	2.5	/experiments/knapen_aot/videos/S_production_ID_4802710.mp4	0.0	283.53383469581604	2.507730007171631
59	181.59592080116272	fix_post	2		12.0	57.0	2.5	/experiments/knapen_aot/videos/S_production_ID_4802710.mp4	0.0	286.04156470298767	0.10002398490905762
60	181.69594478607178	fix_pre	0		12.0	58.0	2.5	/experiments/knapen_aot/videos/S_ILSVRC2015_train_00373000.mp4	0.0	286.14158868789673	0.10057306289672852
60	181.787743806839	response	0	4		58.0	2.5	/experiments/knapen_aot/videos/S_ILSVRC2015_train_00373000.mp4	0.0	286.23338770866394	
60	181.7965178489685	movie	1		301.0	58.0	2.5	/experiments/knapen_aot/videos/S_ILSVRC2015_train_00373000.mp4	0.0	286.24216175079346	2.507733106613159
60	184.30425095558167	fix_post	2		12.0	58.0	2.5	/experiments/knapen_aot/videos/S_ILSVRC2015_train_00373000.mp4	0.0	288.7498948574066	0.09996986389160156
60	184.3960189819336	response	2	4		58.0	2.5	/experiments/knapen_aot/videos/S_ILSVRC2015_train_00373000.mp4	0.0	288.84166288375854	
61	184.40422081947327	fix_pre	0		38.0	59.0	2.5	/experiments/knapen_aot/videos/R_S_production_ID_4802710.mp4	0.0	288.8498647212982	0.316694974899292
61	184.71264791488647	response	0	4		59.0	2.5	/experiments/knapen_aot/videos/R_S_production_ID_4802710.mp4	0.0	289.1582918167114	
61	184.72091579437256	movie	1		166.0	59.0	2.5	/experiments/knapen_aot/videos/R_S_production_ID_4802710.mp4	0.0	289.1665596961975	2.5083210468292236
61	187.22923684120178	fix_post	2		12.0	59.0	2.5	/experiments/knapen_aot/videos/R_S_production_ID_4802710.mp4	0.0	291.67488074302673	0.09997105598449707
62	187.32920789718628	fix_pre	0		26.0	60.0	2.5	/experiments/knapen_aot/videos/S_yt-z16pdVTZK1o_3.mp4	0.0	291.77485179901123	0.21715807914733887
62	187.53768181800842	response	0	4		60.0	2.5	/experiments/knapen_aot/videos/S_yt-z16pdVTZK1o_3.mp4	0.0	291.9833257198334	
62	187.54636597633362	movie	1		301.0	60.0	2.5	/experiments/knapen_aot/videos/S_yt-z16pdVTZK1o_3.mp4	0.0	291.99200987815857	2.507869005203247
62	187.99113178253174	response	1	4		60.0	2.5	/experiments/knapen_aot/videos/S_yt-z16pdVTZK1o_3.mp4	0.0	292.4367756843567	
62	189.0464677810669	response	1	4		60.0	2.5	/experiments/knapen_aot/videos/S_yt-z16pdVTZK1o_3.mp4	0.0	293.49211168289185	
62	190.05423498153687	fix_post	2		12.0	60.0	2.5	/experiments/knapen_aot/videos/S_yt-z16pdVTZK1o_3.mp4	0.0	294.4998788833618	0.10000181198120117
63	190.15423679351807	fix_pre	0		37.0	61.0	2.5	/experiments/knapen_aot/videos/R_S_ILSVRC2015_train_00595000.mp4	0.0	294.599880695343	0.3087329864501953
63	190.45443177223206	response	0	4		61.0	2.5	/experiments/knapen_aot/videos/R_S_ILSVRC2015_train_00595000.mp4	0.0	294.900075674057	
63	190.46296977996826	movie	1		301.0	61.0	2.5	/experiments/knapen_aot/videos/R_S_ILSVRC2015_train_00595000.mp4	0.0	294.9086136817932	2.5081350803375244
63	192.66576981544495	response	1	4		61.0	2.5	/experiments/knapen_aot/videos/R_S_ILSVRC2015_train_00595000.mp4	0.0	297.1114137172699	
63	192.9711048603058	fix_post	2		12.0	61.0	2.5	/experiments/knapen_aot/videos/R_S_ILSVRC2015_train_00595000.mp4	0.0	297.41674876213074	0.09979104995727539
64	193.07089591026306	fix_pre	0		30.0	62.0	2.5	blank	1.0	297.516539812088	0.24994397163391113
64	193.31269478797913	response	0	4		62.0	2.5	blank	1.0	297.7583386898041	
64	193.32083988189697	movie	1		301.0	62.0	2.5	blank	1.0	297.7664837837219	2.5084359645843506
64	194.02926182746887	response	1	4		62.0	2.5	blank	1.0	298.4749057292938	
64	195.82927584648132	fix_post	2		12.0	62.0	2.5	blank	1.0	300.2749197483063	0.10016393661499023
65	195.9294397830963	fix_pre	0		46.0	63.0	2.5	/experiments/knapen_aot/videos/S_yt-bWXohhodbjg_98.mp4	0.0	300.37508368492126	0.383073091506958
65	196.30430698394775	response	0	4		63.0	2.5	/experiments/knapen_aot/videos/S_yt-bWXohhodbjg_98.mp4	0.0	300.7499508857727	
65	196.31251287460327	movie	1		301.0	63.0	2.5	/experiments/knapen_aot/videos/S_yt-bWXohhodbjg_98.mp4	0.0	300.7581567764282	2.50838303565979
65	198.82089591026306	fix_post	2		12.0	63.0	2.5	/experiments/knapen_aot/videos/S_yt-bWXohhodbjg_98.mp4	0.0	303.266539812088	0.09995698928833008
66	198.9208528995514	fix_pre	0		9.0	64.0	2.5	/experiments/knapen_aot/videos/R_S_yt-s-J3C6e5A3Q_18.mp4	0.0	303.36649680137634	0.07505297660827637
66	198.9876298904419	response	0	4		64.0	2.5	/experiments/knapen_aot/videos/R_S_yt-s-J3C6e5A3Q_18.mp4	0.0	303.43327379226685	
66	198.99590587615967	movie	1		301.0	64.0	2.5	/experiments/knapen_aot/videos/R_S_yt-s-J3C6e5A3Q_18.mp4	0.0	303.4415497779846	2.5083611011505127
66	201.50426697731018	fix_post	2		12.0	64.0	2.5	/experiments/knapen_aot/videos/R_S_yt-s-J3C6e5A3Q_18.mp4	0.0	305.94991087913513	0.09994292259216309
67	201.60420989990234	fix_pre	0		11.0	65.0	2.5	/experiments/knapen_aot/videos/S_Y009_C015_SDR_2K_AVC.mp4	0.0	306.0498538017273	0.09162187576293945
67	201.68762183189392	response	0	4		65.0	2.5	/experiments/knapen_aot/videos/S_Y009_C015_SDR_2K_AVC.mp4	0.0	306.1332657337189	
67	201.69583177566528	movie	1		170.0	65.0	2.5	/experiments/knapen_aot/videos/S_Y009_C015_SDR_2K_AVC.mp4	0.0	306.14147567749023	2.5084102153778076
67	202.81260800361633	response	1	4		65.0	2.5	/experiments/knapen_aot/videos/S_Y009_C015_SDR_2K_AVC.mp4	0.0	307.2582519054413	
67	204.2042419910431	fix_post	2		12.0	65.0	2.5	/experiments/knapen_aot/videos/S_Y009_C015_SDR_2K_AVC.mp4	0.0	308.64988589286804	0.10002493858337402
68	204.30426692962646	fix_pre	0		25.0	66.0	2.5	/experiments/knapen_aot/videos/S_ILSVRC2015_train_00303008.mp4	0.0	308.7499108314514	0.208251953125
68	204.50429487228394	response	0	4		66.0	2.5	/experiments/knapen_aot/videos/S_ILSVRC2015_train_00303008.mp4	0.0	308.9499387741089	
68	204.51251888275146	movie	1		301.0	66.0	2.5	/experiments/knapen_aot/videos/S_ILSVRC2015_train_00303008.mp4	0.0	308.9581627845764	2.5083189010620117
68	207.02083778381348	fix_post	2		12.0	66.0	2.5	/experiments/knapen_aot/videos/S_ILSVRC2015_train_00303008.mp4	0.0	311.4664816856384	0.09993505477905273
69	207.12077283859253	fix_pre	0		41.0	67.0	2.5	/experiments/knapen_aot/videos/R_S_yt-Ek1jcvett9E_33.mp4	0.0	311.5664167404175	0.34210705757141113
69	207.45427179336548	response	0	4		67.0	2.5	/experiments/knapen_aot/videos/R_S_yt-Ek1jcvett9E_33.mp4	0.0	311.89991569519043	
69	207.46287989616394	movie	1		301.0	67.0	2.5	/experiments/knapen_aot/videos/R_S_yt-Ek1jcvett9E_33.mp4	0.0	311.9085237979889	2.5079119205474854
69	209.97079181671143	fix_post	2		12.0	67.0	2.5	/experiments/knapen_aot/videos/R_S_yt-Ek1jcvett9E_33.mp4	0.0	314.4164357185364	0.10005307197570801
70	210.07084488868713	fix_pre	0		25.0	68.0	2.5	/experiments/knapen_aot/videos/S_comp_GL_G010_C006_PSNK_NOSUN_v12_SDR_PS_FINAL_20180709_SDR_2K_AVC.mp4	0.0	314.5164887905121	0.20826005935668945
70	210.2635259628296	response	0	4		68.0	2.5	/experiments/knapen_aot/videos/S_comp_GL_G010_C006_PSNK_NOSUN_v12_SDR_PS_FINAL_20180709_SDR_2K_AVC.mp4	0.0	314.70916986465454	
70	210.27910494804382	movie	1		168.0	68.0	2.5	/experiments/knapen_aot/videos/S_comp_GL_G010_C006_PSNK_NOSUN_v12_SDR_PS_FINAL_20180709_SDR_2K_AVC.mp4	0.0	314.7247488498688	2.508538007736206
70	212.78764295578003	fix_post	2		12.0	68.0	2.5	/experiments/knapen_aot/videos/S_comp_GL_G010_C006_PSNK_NOSUN_v12_SDR_PS_FINAL_20180709_SDR_2K_AVC.mp4	0.0	317.233286857605	0.09981894493103027
71	212.88746190071106	fix_pre	0		13.0	69.0	2.5	/experiments/knapen_aot/videos/R_S_yt-isJga8ec5UM_32.mp4	0.0	317.333105802536	0.10831689834594727
71	212.98754596710205	response	0	4		69.0	2.5	/experiments/knapen_aot/videos/R_S_yt-isJga8ec5UM_32.mp4	0.0	317.433189868927	
71	212.995778799057	movie	1		301.0	69.0	2.5	/experiments/knapen_aot/videos/R_S_yt-isJga8ec5UM_32.mp4	0.0	317.44142270088196	2.5083260536193848
71	215.5041048526764	fix_post	2		12.0	69.0	2.5	/experiments/knapen_aot/videos/R_S_yt-isJga8ec5UM_32.mp4	0.0	319.94974875450134	0.10000300407409668
72	215.6041078567505	fix_pre	0		59.0	70.0	2.5	blank	1.0	320.04975175857544	0.49166393280029297
72	216.08756685256958	response	0	4		70.0	2.5	blank	1.0	320.53321075439453	
72	216.09577178955078	movie	1		301.0	70.0	2.5	blank	1.0	320.54141569137573	2.5083560943603516
72	218.60412788391113	fix_post	2		12.0	70.0	2.5	blank	1.0	323.0497717857361	0.09999394416809082
73	218.70412182807922	fix_pre	0		34.0	71.0	2.5	/experiments/knapen_aot/videos/R_S_comp_A012_C014_1223PT_v53_SDR_PS_FINAL_20180709_F0F8700_SDR_2K_AVC.mp4	0.0	323.1497657299042	0.28331995010375977
73	218.97921991348267	response	0	4		71.0	2.5	/experiments/knapen_aot/videos/R_S_comp_A012_C014_1223PT_v53_SDR_PS_FINAL_20180709_F0F8700_SDR_2K_AVC.mp4	0.0	323.4248638153076	
73	218.98744177818298	movie	1		177.0	71.0	2.5	/experiments/knapen_aot/videos/R_S_comp_A012_C014_1223PT_v53_SDR_PS_FINAL_20180709_F0F8700_SDR_2K_AVC.mp4	0.0	323.43308568000793	2.5083231925964355
73	221.49576497077942	fix_post	2		12.0	71.0	2.5	/experiments/knapen_aot/videos/R_S_comp_A012_C014_1223PT_v53_SDR_PS_FINAL_20180709_F0F8700_SDR_2K_AVC.mp4	0.0	325.94140887260437	0.09998202323913574
74	221.59574699401855	fix_pre	0		13.0	72.0	2.5	/experiments/knapen_aot/videos/S_production_ID_4707837.mp4	0.0	326.0413908958435	0.10829997062683105
74	221.69589495658875	response	0	4		72.0	2.5	/experiments/knapen_aot/videos/S_production_ID_4707837.mp4	0.0	326.1415388584137	
74	221.70404696464539	movie	1		165.0	72.0	2.5	/experiments/knapen_aot/videos/S_production_ID_4707837.mp4	0.0	326.14969086647034	2.508380889892578
74	224.21242785453796	fix_post	2		12.0	72.0	2.5	/experiments/knapen_aot/videos/S_production_ID_4707837.mp4	0.0	328.6580717563629	0.10003900527954102
75	224.3124668598175	fix_pre	0		38.0	73.0	2.5	/experiments/knapen_aot/videos/R_S_yt-4qU-6TEW06E_38.mp4	0.0	328.75811076164246	0.31691908836364746
75	224.62088990211487	response	0	4		73.0	2.5	/experiments/knapen_aot/videos/R_S_yt-4qU-6TEW06E_38.mp4	0.0	329.0665338039398	
75	224.62938594818115	movie	1		301.0	73.0	2.5	/experiments/knapen_aot/videos/R_S_yt-4qU-6TEW06E_38.mp4	0.0	329.0750298500061	2.5079519748687744
75	226.20590782165527	response	1	4		73.0	2.5	/experiments/knapen_aot/videos/R_S_yt-4qU-6TEW06E_38.mp4	0.0	330.6515517234802	
75	227.13733792304993	fix_post	2		12.0	73.0	2.5	/experiments/knapen_aot/videos/R_S_yt-4qU-6TEW06E_38.mp4	0.0	331.5829818248749	0.1000509262084961
76	227.23738884925842	fix_pre	0		23.0	74.0	2.5	/experiments/knapen_aot/videos/S_yt-XYULt48onn4_6.mp4	0.0	331.6830327510834	0.19156408309936523
76	227.4208528995514	response	0	4		74.0	2.5	/experiments/knapen_aot/videos/S_yt-XYULt48onn4_6.mp4	0.0	331.86649680137634	
76	227.4289529323578	movie	1		301.0	74.0	2.5	/experiments/knapen_aot/videos/S_yt-XYULt48onn4_6.mp4	0.0	331.87459683418274	2.5087108612060547
76	229.62259697914124	response	1	4		74.0	2.5	/experiments/knapen_aot/videos/S_yt-XYULt48onn4_6.mp4	0.0	334.0682408809662	
76	229.93766379356384	fix_post	2		12.0	74.0	2.5	/experiments/knapen_aot/videos/S_yt-XYULt48onn4_6.mp4	0.0	334.3833076953888	0.0998070240020752
77	230.03747081756592	fix_pre	0		279.0	75.0	2.5	/experiments/knapen_aot/videos/R_S_ILSVRC2015_train_00715000.mp4	0.0	334.48311471939087	2.3248469829559326
77	232.35415697097778	response	0	4		75.0	2.5	/experiments/knapen_aot/videos/R_S_ILSVRC2015_train_00715000.mp4	0.0	336.79980087280273	
77	232.36231780052185	movie	1		301.0	75.0	2.5	/experiments/knapen_aot/videos/R_S_ILSVRC2015_train_00715000.mp4	0.0	336.8079617023468	2.50838303565979
77	234.87070083618164	fix_post	2		12.0	75.0	2.5	/experiments/knapen_aot/videos/R_S_ILSVRC2015_train_00715000.mp4	0.0	339.3163447380066	0.10004305839538574
78	234.97074389457703	fix_pre	0		22.0	76.0	2.5	/experiments/knapen_aot/videos/R_S_yt-9aKqMX9IHPg_242.mp4	0.0	339.416387796402	0.1832280158996582
78	235.14582180976868	response	0	4		76.0	2.5	/experiments/knapen_aot/videos/R_S_yt-9aKqMX9IHPg_242.mp4	0.0	339.5914657115936	
78	235.15397191047668	movie	1		301.0	76.0	2.5	/experiments/knapen_aot/videos/R_S_yt-9aKqMX9IHPg_242.mp4	0.0	339.59961581230164	2.5085840225219727
78	237.66255593299866	fix_post	2		12.0	76.0	2.5	/experiments/knapen_aot/videos/R_S_yt-9aKqMX9IHPg_242.mp4	0.0	342.1081998348236	0.09983491897583008
79	237.7623908519745	fix_pre	0		36.0	77.0	2.5	blank	1.0	342.20803475379944	0.2999701499938965
79	238.05413579940796	response	0	4		77.0	2.5	blank	1.0	342.4997797012329	
79	238.06236100196838	movie	1		301.0	77.0	2.5	blank	1.0	342.50800490379333	2.5083138942718506
79	240.35407090187073	response	1	4		77.0	2.5	blank	1.0	344.7997148036957	
79	240.57067489624023	fix_post	2		12.0	77.0	2.5	blank	1.0	345.0163187980652	0.10029792785644531
80	240.67097282409668	fix_pre	0		33.0	78.0	2.5	/experiments/knapen_aot/videos/R_S_ILSVRC2015_train_00087003.mp4	0.0	345.11661672592163	0.27468109130859375
80	240.93739700317383	response	0	4		78.0	2.5	/experiments/knapen_aot/videos/R_S_ILSVRC2015_train_00087003.mp4	0.0	345.3830409049988	
80	240.94565391540527	movie	1		301.0	78.0	2.5	/experiments/knapen_aot/videos/R_S_ILSVRC2015_train_00087003.mp4	0.0	345.3912978172302	2.5084688663482666
80	243.00055480003357	response	1	4		78.0	2.5	/experiments/knapen_aot/videos/R_S_ILSVRC2015_train_00087003.mp4	0.0	347.4461987018585	
80	243.45412278175354	fix_post	2		12.0	78.0	2.5	/experiments/knapen_aot/videos/R_S_ILSVRC2015_train_00087003.mp4	0.0	347.8997666835785	0.10021305084228516
81	243.55433583259583	fix_pre	0		57.0	79.0	2.5	/experiments/knapen_aot/videos/R_S_ILSVRC2015_train_00087003.mp4	0.0	347.9999797344208	0.47463202476501465
81	244.01331400871277	response	0	4		79.0	2.5	/experiments/knapen_aot/videos/R_S_ILSVRC2015_train_00087003.mp4	0.0	348.4589579105377	
81	244.02896785736084	movie	1		301.0	79.0	2.5	/experiments/knapen_aot/videos/R_S_ILSVRC2015_train_00087003.mp4	0.0	348.4746117591858	2.5084409713745117
81	246.53740882873535	fix_post	2		12.0	79.0	2.5	/experiments/knapen_aot/videos/R_S_ILSVRC2015_train_00087003.mp4	0.0	350.9830527305603	0.10013198852539062
82	246.63754081726074	fix_pre	0		13.0	80.0	2.5	/experiments/knapen_aot/videos/S_BO_A014_C008_SDR_20190719_SDR_2K_AVC.mp4	0.0	351.0831847190857	0.10811018943786621
82	246.72993993759155	response	0	4		80.0	2.5	/experiments/knapen_aot/videos/S_BO_A014_C008_SDR_20190719_SDR_2K_AVC.mp4	0.0	351.1755838394165	
82	246.7456510066986	movie	1		164.0	80.0	2.5	/experiments/knapen_aot/videos/S_BO_A014_C008_SDR_20190719_SDR_2K_AVC.mp4	0.0	351.19129490852356	2.5085368156433105
82	249.25418782234192	fix_post	2		12.0	80.0	2.5	/experiments/knapen_aot/videos/S_BO_A014_C008_SDR_20190719_SDR_2K_AVC.mp4	0.0	353.69983172416687	0.09979605674743652
83	249.35398387908936	fix_pre	0		12.0	81.0	2.5	/experiments/knapen_aot/videos/R_S_ILSVRC2015_train_00457000.mp4	0.0	353.7996277809143	0.09990811347961426
83	249.44575786590576	response	0	4		81.0	2.5	/experiments/knapen_aot/videos/R_S_ILSVRC2015_train_00457000.mp4	0.0	353.8914017677307	
83	249.45389199256897	movie	1		301.0	81.0	2.5	/experiments/knapen_aot/videos/R_S_ILSVRC2015_train_00457000.mp4	0.0	353.8995358943939	2.508509874343872
83	251.96240186691284	fix_post	2		12.0	81.0	2.5	/experiments/knapen_aot/videos/R_S_ILSVRC2015_train_00457000.mp4	0.0	356.4080457687378	0.09991192817687988
84	252.06231379508972	fix_pre	0		11.0	82.0	2.5	/experiments/knapen_aot/videos/R_S_Pz_NXxhQCJc_70.mp4	0.0	356.5079576969147	0.09162116050720215
84	252.13831186294556	response	0	4		82.0	2.5	/experiments/knapen_aot/videos/R_S_Pz_NXxhQCJc_70.mp4	0.0	356.5839557647705	
84	252.15393495559692	movie	1		301.0	82.0	2.5	/experiments/knapen_aot/videos/R_S_Pz_NXxhQCJc_70.mp4	0.0	356.5995788574219	2.5085158348083496
84	254.66245079040527	fix_post	2		12.0	82.0	2.5	/experiments/knapen_aot/videos/R_S_Pz_NXxhQCJc_70.mp4	0.0	359.1080946922302	0.09982705116271973
85	254.762277841568	fix_pre	0		21.0	83.0	2.5	blank	1.0	359.20792174339294	0.17499399185180664
85	254.92901992797852	response	0	4		83.0	2.5	blank	1.0	359.37466382980347	
85	254.9372718334198	movie	1		301.0	83.0	2.5	blank	1.0	359.38291573524475	2.508286952972412
85	257.4455587863922	fix_post	2		12.0	83.0	2.5	blank	1.0	361.89120268821716	0.10028314590454102
87	257.54584193229675	stim	0		234.0					361.9914858341217	1.9513719081878662
87	259.49165391921997	response	0	space						363.9372978210449	
