trial_nr	onset	event_type	phase	response	nr_frames	movie_index	movie_duration	movie_file	blank	onset_abs	duration
0	0.1249837875366211	stim	0		30.0					195.12460780143738	0.25000619888305664
0	0.3667638301849365	response	0	space						195.3663878440857	
1	0.37498998641967773	stim	0		121.0					195.37461400032043	1.007950782775879
1	1.3829407691955566	stim	1		120.0					196.3825647830963	0.9999840259552002
1	1.4166460037231445	response	1	space						196.4162700176239	
1	1.7997009754180908	response	1	space						196.79932498931885	
2	2.382924795150757	fix_pre	0		12.0	0.0	2.5	/experiments/knapen_aot/videos/S_yt-j3Sk8ZnAiEA_32.mp4	0.0	197.3825488090515	0.10064816474914551
2	2.4747278690338135	response	0	space		0.0	2.5	/experiments/knapen_aot/videos/S_yt-j3Sk8ZnAiEA_32.mp4	0.0	197.47435188293457	
2	2.4835729598999023	movie	1		301.0	0.0	2.5	/experiments/knapen_aot/videos/S_yt-j3Sk8ZnAiEA_32.mp4	0.0	197.48319697380066	2.5076940059661865
2	4.991266965866089	fix_post	2		12.0	0.0	2.5	/experiments/knapen_aot/videos/S_yt-j3Sk8ZnAiEA_32.mp4	0.0	199.99089097976685	0.0999150276184082
3	5.091181993484497	fix_pre	0		99.0	1.0	2.5	/experiments/knapen_aot/videos/R_S_b4-3.mp4	0.0	200.09080600738525	0.8249828815460205
3	5.911471843719482	response	0	2		1.0	2.5	/experiments/knapen_aot/videos/R_S_b4-3.mp4	0.0	200.91109585762024	
3	5.916164875030518	movie	1		165.0	1.0	2.5	/experiments/knapen_aot/videos/R_S_b4-3.mp4	0.0	200.91578888893127	2.5083909034729004
3	8.424555778503418	fix_post	2		12.0	1.0	2.5	/experiments/knapen_aot/videos/R_S_b4-3.mp4	0.0	203.42417979240417	0.09996819496154785
4	8.524523973464966	fix_pre	0		95.0	2.0	2.5	/experiments/knapen_aot/videos/S_ILSVRC2015_train_00323000.mp4	0.0	203.52414798736572	0.7922728061676025
4	9.307957887649536	response	0	2		2.0	2.5	/experiments/knapen_aot/videos/S_ILSVRC2015_train_00323000.mp4	0.0	204.3075819015503	
4	9.316796779632568	movie	1		301.0	2.0	2.5	/experiments/knapen_aot/videos/S_ILSVRC2015_train_00323000.mp4	0.0	204.31642079353333	2.507704019546509
4	11.824500799179077	fix_post	2		12.0	2.0	2.5	/experiments/knapen_aot/videos/S_ILSVRC2015_train_00323000.mp4	0.0	206.82412481307983	0.09997916221618652
5	11.924479961395264	fix_pre	0		73.0	3.0	2.5	/experiments/knapen_aot/videos/R_S_G009_C014_UHD_SDR_2K_AVC.mp4	0.0	206.92410397529602	0.6083579063415527
5	12.524687767028809	response	0	2		3.0	2.5	/experiments/knapen_aot/videos/R_S_G009_C014_UHD_SDR_2K_AVC.mp4	0.0	207.52431178092957	
5	12.532837867736816	movie	1		176.0	3.0	2.5	/experiments/knapen_aot/videos/R_S_G009_C014_UHD_SDR_2K_AVC.mp4	0.0	207.53246188163757	2.508265972137451
5	15.041103839874268	fix_post	2		12.0	3.0	2.5	/experiments/knapen_aot/videos/R_S_G009_C014_UHD_SDR_2K_AVC.mp4	0.0	210.04072785377502	0.10007500648498535
6	15.141178846359253	fix_pre	0		64.0	4.0	2.5	/experiments/knapen_aot/videos/S_yt-b7bIulV49DQ_81.mp4	0.0	210.14080286026	0.5333230495452881
6	15.666313886642456	response	0	2		4.0	2.5	/experiments/knapen_aot/videos/S_yt-b7bIulV49DQ_81.mp4	0.0	210.6659379005432	
6	15.674501895904541	movie	1		301.0	4.0	2.5	/experiments/knapen_aot/videos/S_yt-b7bIulV49DQ_81.mp4	0.0	210.6741259098053	2.5082950592041016
6	18.182796955108643	fix_post	2		12.0	4.0	2.5	/experiments/knapen_aot/videos/S_yt-b7bIulV49DQ_81.mp4	0.0	213.1824209690094	0.09990787506103516
7	18.282704830169678	fix_pre	0		63.0	5.0	2.5	/experiments/knapen_aot/videos/R_S_yt-1RVw8p6Dw2Q_20.mp4	0.0	213.28232884407043	0.5251190662384033
7	18.799697875976562	response	0	2		5.0	2.5	/experiments/knapen_aot/videos/R_S_yt-1RVw8p6Dw2Q_20.mp4	0.0	213.79932188987732	
7	18.80782389640808	movie	1		301.0	5.0	2.5	/experiments/knapen_aot/videos/R_S_yt-1RVw8p6Dw2Q_20.mp4	0.0	213.80744791030884	2.5083260536193848
7	21.316149950027466	fix_post	2		12.0	5.0	2.5	/experiments/knapen_aot/videos/R_S_yt-1RVw8p6Dw2Q_20.mp4	0.0	216.31577396392822	0.0999288558959961
8	21.416078805923462	fix_pre	0		78.0	6.0	2.5	/experiments/knapen_aot/videos/R_S_b4-3.mp4	0.0	216.41570281982422	0.6505870819091797
8	22.057950973510742	response	0	2		6.0	2.5	/experiments/knapen_aot/videos/R_S_b4-3.mp4	0.0	217.0575749874115	
8	22.06666588783264	movie	1		163.0	6.0	2.5	/experiments/knapen_aot/videos/R_S_b4-3.mp4	0.0	217.0662899017334	2.507796049118042
8	24.574461936950684	fix_post	2		12.0	6.0	2.5	/experiments/knapen_aot/videos/R_S_b4-3.mp4	0.0	219.57408595085144	0.10003900527954102
9	24.674500942230225	fix_pre	0		77.0	7.0	2.5	blank	1.0	219.67412495613098	0.6421909332275391
9	25.308071851730347	response	0	2		7.0	2.5	blank	1.0	220.3076958656311	
9	25.316691875457764	movie	1		301.0	7.0	2.5	blank	1.0	220.31631588935852	2.50775408744812
9	27.824445962905884	fix_post	2		12.0	7.0	2.5	blank	1.0	222.82406997680664	0.0999138355255127
10	27.924359798431396	fix_pre	0		74.0	8.0	2.5	/experiments/knapen_aot/videos/S_Ds4EKTLx_RI_51.mp4	0.0	222.92398381233215	0.6168880462646484
10	28.532890796661377	response	0	2		8.0	2.5	/experiments/knapen_aot/videos/S_Ds4EKTLx_RI_51.mp4	0.0	223.53251481056213	
10	28.541247844696045	movie	1		301.0	8.0	2.5	/experiments/knapen_aot/videos/S_Ds4EKTLx_RI_51.mp4	0.0	223.5408718585968	2.5081470012664795
10	31.049394845962524	fix_post	2		12.0	8.0	2.5	/experiments/knapen_aot/videos/S_Ds4EKTLx_RI_51.mp4	0.0	226.04901885986328	0.09996700286865234
11	31.149361848831177	fix_pre	0		66.0	9.0	2.5	/experiments/knapen_aot/videos/R_S_yt-w_e3sxIzepA_115.mp4	0.0	226.14898586273193	0.5499939918518066
11	31.69120192527771	response	0	2		9.0	2.5	/experiments/knapen_aot/videos/R_S_yt-w_e3sxIzepA_115.mp4	0.0	226.69082593917847	
11	31.699355840682983	movie	1		301.0	9.0	2.5	/experiments/knapen_aot/videos/R_S_yt-w_e3sxIzepA_115.mp4	0.0	226.69897985458374	2.5083980560302734
11	34.20775389671326	fix_post	2		12.0	9.0	2.5	/experiments/knapen_aot/videos/R_S_yt-w_e3sxIzepA_115.mp4	0.0	229.207377910614	0.10001707077026367
12	34.30777096748352	fix_pre	0		86.0	10.0	2.5	/experiments/knapen_aot/videos/S_video-8.mp4	0.0	229.30739498138428	0.7170929908752441
12	35.01614189147949	response	0	2		10.0	2.5	/experiments/knapen_aot/videos/S_video-8.mp4	0.0	230.01576590538025	
12	35.024863958358765	movie	1		203.0	10.0	2.5	/experiments/knapen_aot/videos/S_video-8.mp4	0.0	230.02448797225952	2.507767915725708
12	37.53263187408447	fix_post	2		12.0	10.0	2.5	/experiments/knapen_aot/videos/S_video-8.mp4	0.0	232.53225588798523	0.10007405281066895
13	37.63270592689514	fix_pre	0		114.0	11.0	2.5	/experiments/knapen_aot/videos/R_S_yt-yJmHtBFyhH4_15.mp4	0.0	232.6323299407959	0.9499740600585938
13	38.57449197769165	response	0	2		11.0	2.5	/experiments/knapen_aot/videos/R_S_yt-yJmHtBFyhH4_15.mp4	0.0	233.5741159915924	
13	38.582679986953735	movie	1		301.0	11.0	2.5	/experiments/knapen_aot/videos/R_S_yt-yJmHtBFyhH4_15.mp4	0.0	233.5823040008545	2.508384943008423
13	41.09106492996216	fix_post	2		12.0	11.0	2.5	/experiments/knapen_aot/videos/R_S_yt-yJmHtBFyhH4_15.mp4	0.0	236.09068894386292	0.09994888305664062
14	41.1910138130188	fix_pre	0		64.0	12.0	2.5	/experiments/knapen_aot/videos/S_yt-ZYrQIw9VUok_111.mp4	0.0	236.19063782691956	0.5333430767059326
14	41.70858383178711	response	0	2		12.0	2.5	/experiments/knapen_aot/videos/S_yt-ZYrQIw9VUok_111.mp4	0.0	236.70820784568787	
14	41.72435688972473	movie	1		301.0	12.0	2.5	/experiments/knapen_aot/videos/S_yt-ZYrQIw9VUok_111.mp4	0.0	236.7239809036255	2.5083138942718506
14	44.23267078399658	fix_post	2		12.0	12.0	2.5	/experiments/knapen_aot/videos/S_yt-ZYrQIw9VUok_111.mp4	0.0	239.23229479789734	0.10021305084228516
15	44.33288383483887	fix_pre	0		93.0	13.0	2.5	blank	1.0	239.33250784873962	0.7752649784088135
15	45.099496841430664	response	0	2		13.0	2.5	blank	1.0	240.09912085533142	
15	45.10814881324768	movie	1		301.0	13.0	2.5	blank	1.0	240.10777282714844	2.5078511238098145
15	47.615999937057495	fix_post	2		12.0	13.0	2.5	blank	1.0	242.61562395095825	0.09991788864135742
16	47.71591782569885	fix_pre	0		53.0	14.0	2.5	/experiments/knapen_aot/videos/R_S_yt-w_e3sxIzepA_115.mp4	0.0	242.7155418395996	0.4417459964752197
16	48.14949178695679	response	0	2		14.0	2.5	/experiments/knapen_aot/videos/R_S_yt-w_e3sxIzepA_115.mp4	0.0	243.14911580085754	
16	48.15766382217407	movie	1		301.0	14.0	2.5	/experiments/knapen_aot/videos/R_S_yt-w_e3sxIzepA_115.mp4	0.0	243.15728783607483	2.508334159851074
16	50.66599798202515	fix_post	2		12.0	14.0	2.5	/experiments/knapen_aot/videos/R_S_yt-w_e3sxIzepA_115.mp4	0.0	245.6656219959259	0.1000359058380127
17	50.76603388786316	fix_pre	0		70.0	15.0	2.5	/experiments/knapen_aot/videos/R_S_yt-FoO02U39gy4_398.mp4	0.0	245.76565790176392	0.583298921585083
17	51.34109687805176	response	0	2		15.0	2.5	/experiments/knapen_aot/videos/R_S_yt-FoO02U39gy4_398.mp4	0.0	246.34072089195251	
17	51.34933280944824	movie	1		301.0	15.0	2.5	/experiments/knapen_aot/videos/R_S_yt-FoO02U39gy4_398.mp4	0.0	246.348956823349	2.508316993713379
17	53.85764980316162	fix_post	2		12.0	15.0	2.5	/experiments/knapen_aot/videos/R_S_yt-FoO02U39gy4_398.mp4	0.0	248.85727381706238	0.10003304481506348
18	53.957682847976685	fix_pre	0		50.0	16.0	2.5	/experiments/knapen_aot/videos/R_S_yt--C2DDZ7LOQA_95.mp4	0.0	248.95730686187744	0.4165980815887451
18	54.36604189872742	response	0	2		16.0	2.5	/experiments/knapen_aot/videos/R_S_yt--C2DDZ7LOQA_95.mp4	0.0	249.36566591262817	
18	54.37428092956543	movie	1		299.0	16.0	2.5	/experiments/knapen_aot/videos/R_S_yt--C2DDZ7LOQA_95.mp4	0.0	249.3739049434662	2.5084030628204346
18	56.882683992385864	fix_post	2		12.0	16.0	2.5	/experiments/knapen_aot/videos/R_S_yt--C2DDZ7LOQA_95.mp4	0.0	251.88230800628662	0.09999299049377441
19	56.98267698287964	fix_pre	0		70.0	17.0	2.5	/experiments/knapen_aot/videos/R_S_yt-06XMUn9DTKc_35.mp4	0.0	251.9823009967804	0.5836999416351318
19	57.5578248500824	response	0	2		17.0	2.5	/experiments/knapen_aot/videos/R_S_yt-06XMUn9DTKc_35.mp4	0.0	252.55744886398315	
19	57.56637692451477	movie	1		301.0	17.0	2.5	/experiments/knapen_aot/videos/R_S_yt-06XMUn9DTKc_35.mp4	0.0	252.56600093841553	2.5079610347747803
19	60.07433795928955	fix_post	2		12.0	17.0	2.5	/experiments/knapen_aot/videos/R_S_yt-06XMUn9DTKc_35.mp4	0.0	255.0739619731903	0.09994101524353027
20	60.17427897453308	fix_pre	0		41.0	18.0	2.5	/experiments/knapen_aot/videos/R_S_yt-F1X_vq0Zioc_154.mp4	0.0	255.17390298843384	0.34170985221862793
20	60.50025796890259	response	0	2		18.0	2.5	/experiments/knapen_aot/videos/R_S_yt-F1X_vq0Zioc_154.mp4	0.0	255.49988198280334	
20	60.51598882675171	movie	1		301.0	18.0	2.5	/experiments/knapen_aot/videos/R_S_yt-F1X_vq0Zioc_154.mp4	0.0	255.51561284065247	2.50872802734375
20	63.02471685409546	fix_post	2		12.0	18.0	2.5	/experiments/knapen_aot/videos/R_S_yt-F1X_vq0Zioc_154.mp4	0.0	258.0243408679962	0.09952902793884277
21	63.1242458820343	fix_pre	0		52.0	19.0	2.5	/experiments/knapen_aot/videos/S_yt-Z0nfPTEEOLo_85.mp4	0.0	258.12386989593506	0.43337297439575195
21	63.549442768096924	response	0	2		19.0	2.5	/experiments/knapen_aot/videos/S_yt-Z0nfPTEEOLo_85.mp4	0.0	258.5490667819977	
21	63.557618856430054	movie	1		301.0	19.0	2.5	/experiments/knapen_aot/videos/S_yt-Z0nfPTEEOLo_85.mp4	0.0	258.5572428703308	2.5083420276641846
21	66.06596088409424	fix_post	2		12.0	19.0	2.5	/experiments/knapen_aot/videos/S_yt-Z0nfPTEEOLo_85.mp4	0.0	261.065584897995	0.10000991821289062
22	66.16597080230713	fix_pre	0		76.0	20.0	2.5	/experiments/knapen_aot/videos/R_S_ILSVRC2015_train_00405000.mp4	0.0	261.1655948162079	0.6333010196685791
22	66.78353691101074	response	0	2		20.0	2.5	/experiments/knapen_aot/videos/R_S_ILSVRC2015_train_00405000.mp4	0.0	261.7831609249115	
22	66.79927182197571	movie	1		301.0	20.0	2.5	/experiments/knapen_aot/videos/R_S_ILSVRC2015_train_00405000.mp4	0.0	261.79889583587646	2.508310079574585
22	69.3075819015503	fix_post	2		12.0	20.0	2.5	/experiments/knapen_aot/videos/R_S_ILSVRC2015_train_00405000.mp4	0.0	264.30720591545105	0.09997010231018066
23	69.40755200386047	fix_pre	0		54.0	21.0	2.5	blank	1.0	264.40717601776123	0.4503958225250244
23	69.8493959903717	response	0	2		21.0	2.5	blank	1.0	264.84902000427246	
23	69.8579478263855	movie	1		301.0	21.0	2.5	blank	1.0	264.85757184028625	2.507962942123413
23	72.36591076850891	fix_post	2		12.0	21.0	2.5	blank	1.0	267.36553478240967	0.09999418258666992
24	72.46590495109558	fix_pre	0		57.0	22.0	2.5	/experiments/knapen_aot/videos/S_yt-jy96-k8drRE_1.mp4	0.0	267.46552896499634	0.4753098487854004
24	72.93266797065735	response	0	2		22.0	2.5	/experiments/knapen_aot/videos/S_yt-jy96-k8drRE_1.mp4	0.0	267.9322919845581	
24	72.94121479988098	movie	1		301.0	22.0	2.5	/experiments/knapen_aot/videos/S_yt-jy96-k8drRE_1.mp4	0.0	267.94083881378174	2.507974147796631
24	75.44918894767761	fix_post	2		12.0	22.0	2.5	/experiments/knapen_aot/videos/S_yt-jy96-k8drRE_1.mp4	0.0	270.44881296157837	0.10001897811889648
25	75.54920792579651	fix_pre	0		44.0	23.0	2.5	/experiments/knapen_aot/videos/S_yt-i-1Gou9SA5U_3.mp4	0.0	270.54883193969727	0.3666958808898926
25	75.90771079063416	response	0	2		23.0	2.5	/experiments/knapen_aot/videos/S_yt-i-1Gou9SA5U_3.mp4	0.0	270.9073348045349	
25	75.9159038066864	movie	1		301.0	23.0	2.5	/experiments/knapen_aot/videos/S_yt-i-1Gou9SA5U_3.mp4	0.0	270.91552782058716	2.508324146270752
25	78.42422795295715	fix_post	2		12.0	23.0	2.5	/experiments/knapen_aot/videos/S_yt-i-1Gou9SA5U_3.mp4	0.0	273.4238519668579	0.10026288032531738
26	78.52449083328247	fix_pre	0		77.0	24.0	2.5	/experiments/knapen_aot/videos/S_yt-4wYTkhggZNM_90.mp4	0.0	273.5241148471832	0.6413450241088867
26	79.15019989013672	response	0	2		24.0	2.5	/experiments/knapen_aot/videos/S_yt-4wYTkhggZNM_90.mp4	0.0	274.1498239040375	
26	79.16583585739136	movie	1		301.0	24.0	2.5	/experiments/knapen_aot/videos/S_yt-4wYTkhggZNM_90.mp4	0.0	274.1654598712921	2.508405923843384
26	81.67424178123474	fix_post	2		12.0	24.0	2.5	/experiments/knapen_aot/videos/S_yt-4wYTkhggZNM_90.mp4	0.0	276.6738657951355	0.10020303726196289
27	81.7744448184967	fix_pre	0		59.0	25.0	2.5	/experiments/knapen_aot/videos/R_S_yt-NqyG4Ar2JWo_10.mp4	0.0	276.77406883239746	0.4914100170135498
27	82.25770378112793	response	0	2		25.0	2.5	/experiments/knapen_aot/videos/R_S_yt-NqyG4Ar2JWo_10.mp4	0.0	277.2573277950287	
27	82.26585483551025	movie	1		301.0	25.0	2.5	/experiments/knapen_aot/videos/R_S_yt-NqyG4Ar2JWo_10.mp4	0.0	277.265478849411	2.50827693939209
27	84.77413177490234	fix_post	2		12.0	25.0	2.5	/experiments/knapen_aot/videos/R_S_yt-NqyG4Ar2JWo_10.mp4	0.0	279.7737557888031	0.10008621215820312
28	84.87421798706055	fix_pre	0		84.0	26.0	2.5	/experiments/knapen_aot/videos/S_yt-s2tZ2NIQrxg_175.mp4	0.0	279.8738420009613	0.6999728679656982
28	85.56601786613464	response	0	2		26.0	2.5	/experiments/knapen_aot/videos/S_yt-s2tZ2NIQrxg_175.mp4	0.0	280.5656418800354	
28	85.57419085502625	movie	1		301.0	26.0	2.5	/experiments/knapen_aot/videos/S_yt-s2tZ2NIQrxg_175.mp4	0.0	280.573814868927	2.508341073989868
28	88.08253192901611	fix_post	2		12.0	26.0	2.5	/experiments/knapen_aot/videos/S_yt-s2tZ2NIQrxg_175.mp4	0.0	283.08215594291687	0.09998297691345215
29	88.18251490592957	fix_pre	0		68.0	27.0	2.5	/experiments/knapen_aot/videos/R_S_yt-HMAa2QbfFPI_216.mp4	0.0	283.1821389198303	0.5666320323944092
29	88.74109387397766	response	0	2		27.0	2.5	/experiments/knapen_aot/videos/R_S_yt-HMAa2QbfFPI_216.mp4	0.0	283.7407178878784	
29	88.74914693832397	movie	1		300.0	27.0	2.5	/experiments/knapen_aot/videos/R_S_yt-HMAa2QbfFPI_216.mp4	0.0	283.74877095222473	2.508327007293701
29	91.25747394561768	fix_post	2		12.0	27.0	2.5	/experiments/knapen_aot/videos/R_S_yt-HMAa2QbfFPI_216.mp4	0.0	286.25709795951843	0.10026884078979492
30	91.35774278640747	fix_pre	0		71.0	28.0	2.5	blank	1.0	286.3573668003082	0.5914640426635742
30	91.94100284576416	response	0	2		28.0	2.5	blank	1.0	286.9406268596649	
30	91.94920682907104	movie	1		301.0	28.0	2.5	blank	1.0	286.9488308429718	2.508316993713379
30	94.45752382278442	fix_post	2		12.0	28.0	2.5	blank	1.0	289.4571478366852	0.09999203681945801
31	94.55751585960388	fix_pre	0		91.0	29.0	2.5	/experiments/knapen_aot/videos/R_S_ILSVRC2015_train_00292005.mp4	0.0	289.55713987350464	0.7586081027984619
31	95.30765295028687	response	0	2		29.0	2.5	/experiments/knapen_aot/videos/R_S_ILSVRC2015_train_00292005.mp4	0.0	290.3072769641876	
31	95.31612396240234	movie	1		301.0	29.0	2.5	/experiments/knapen_aot/videos/R_S_ILSVRC2015_train_00292005.mp4	0.0	290.3157479763031	2.50801682472229
31	97.82414078712463	fix_post	2		12.0	29.0	2.5	/experiments/knapen_aot/videos/R_S_ILSVRC2015_train_00292005.mp4	0.0	292.8237648010254	0.0999460220336914
32	97.92408680915833	fix_pre	0		109.0	30.0	2.5	/experiments/knapen_aot/videos/R_S_ILSVRC2015_train_00415007.mp4	0.0	292.9237108230591	0.9083330631256104
32	98.8242609500885	response	0	2		30.0	2.5	/experiments/knapen_aot/videos/R_S_ILSVRC2015_train_00415007.mp4	0.0	293.82388496398926	
32	98.83241987228394	movie	1		301.0	30.0	2.5	/experiments/knapen_aot/videos/R_S_ILSVRC2015_train_00415007.mp4	0.0	293.8320438861847	2.5084030628204346
32	101.34082293510437	fix_post	2		12.0	30.0	2.5	/experiments/knapen_aot/videos/R_S_ILSVRC2015_train_00415007.mp4	0.0	296.3404469490051	0.10016989707946777
33	101.44099283218384	fix_pre	0		52.0	31.0	2.5	/experiments/knapen_aot/videos/R_S_yt-a9bnYU0Gnxg_59.mp4	0.0	296.4406168460846	0.43311309814453125
33	101.86588788032532	response	0	2		31.0	2.5	/experiments/knapen_aot/videos/R_S_yt-a9bnYU0Gnxg_59.mp4	0.0	296.8655118942261	
33	101.87410593032837	movie	1		298.0	31.0	2.5	/experiments/knapen_aot/videos/R_S_yt-a9bnYU0Gnxg_59.mp4	0.0	296.8737299442291	2.508349895477295
33	104.38245582580566	fix_post	2		12.0	31.0	2.5	/experiments/knapen_aot/videos/R_S_yt-a9bnYU0Gnxg_59.mp4	0.0	299.3820798397064	0.10013508796691895
34	104.48259091377258	fix_pre	0		64.0	32.0	2.5	/experiments/knapen_aot/videos/R_S_Pexels_Videos_2786546.mp4	0.0	299.48221492767334	0.5331540107727051
34	105.00759196281433	response	0	2		32.0	2.5	/experiments/knapen_aot/videos/R_S_Pexels_Videos_2786546.mp4	0.0	300.0072159767151	
34	105.01574492454529	movie	1		162.0	32.0	2.5	/experiments/knapen_aot/videos/R_S_Pexels_Videos_2786546.mp4	0.0	300.01536893844604	2.50846004486084
34	107.52420496940613	fix_post	2		12.0	32.0	2.5	/experiments/knapen_aot/videos/R_S_Pexels_Videos_2786546.mp4	0.0	302.5238289833069	0.09992384910583496
35	107.62412881851196	fix_pre	0		39.0	33.0	2.5	/experiments/knapen_aot/videos/R_S_yt-etQaTgGOhR4_69.mp4	0.0	302.6237528324127	0.3249659538269043
35	107.94087290763855	response	0	2		33.0	2.5	/experiments/knapen_aot/videos/R_S_yt-etQaTgGOhR4_69.mp4	0.0	302.9404969215393	
35	107.94909477233887	movie	1		301.0	33.0	2.5	/experiments/knapen_aot/videos/R_S_yt-etQaTgGOhR4_69.mp4	0.0	302.9487187862396	2.508319139480591
35	110.45741391181946	fix_post	2		12.0	33.0	2.5	/experiments/knapen_aot/videos/R_S_yt-etQaTgGOhR4_69.mp4	0.0	305.4570379257202	0.0999748706817627
36	110.55738878250122	fix_pre	0		111.0	34.0	2.5	blank	1.0	305.557012796402	0.9251430034637451
36	111.4743537902832	response	0	2		34.0	2.5	blank	1.0	306.47397780418396	
36	111.48253178596497	movie	1		301.0	34.0	2.5	blank	1.0	306.4821557998657	2.508153200149536
36	113.9906849861145	fix_post	2		12.0	34.0	2.5	blank	1.0	308.99030900001526	0.10000991821289062
37	114.09069490432739	fix_pre	0		79.0	35.0	2.5	/experiments/knapen_aot/videos/S_ILSVRC2015_train_00292005.mp4	0.0	309.09031891822815	0.6583259105682373
37	114.740877866745	response	0	2		35.0	2.5	/experiments/knapen_aot/videos/S_ILSVRC2015_train_00292005.mp4	0.0	309.74050188064575	
37	114.74902081489563	movie	1		301.0	35.0	2.5	/experiments/knapen_aot/videos/S_ILSVRC2015_train_00292005.mp4	0.0	309.7486448287964	2.5083820819854736
37	117.2574028968811	fix_post	2		12.0	35.0	2.5	/experiments/knapen_aot/videos/S_ILSVRC2015_train_00292005.mp4	0.0	312.25702691078186	0.1000509262084961
38	117.3574538230896	fix_pre	0		87.0	36.0	2.5	/experiments/knapen_aot/videos/S_yt-9mWz93En7Gw_97.mp4	0.0	312.35707783699036	0.7249341011047363
38	118.07419085502625	response	0	2		36.0	2.5	/experiments/knapen_aot/videos/S_yt-9mWz93En7Gw_97.mp4	0.0	313.073814868927	
38	118.08238792419434	movie	1		301.0	36.0	2.5	/experiments/knapen_aot/videos/S_yt-9mWz93En7Gw_97.mp4	0.0	313.0820119380951	2.508301019668579
38	120.59068894386292	fix_post	2		12.0	36.0	2.5	/experiments/knapen_aot/videos/S_yt-9mWz93En7Gw_97.mp4	0.0	315.5903129577637	0.10009384155273438
39	120.69078278541565	fix_pre	0		65.0	37.0	2.5	/experiments/knapen_aot/videos/R_S_yt-J1dw4AznwmQ_7.mp4	0.0	315.6904067993164	0.541619062423706
39	121.22417283058167	response	0	2		37.0	2.5	/experiments/knapen_aot/videos/R_S_yt-J1dw4AznwmQ_7.mp4	0.0	316.2237968444824	
39	121.23240184783936	movie	1		301.0	37.0	2.5	/experiments/knapen_aot/videos/R_S_yt-J1dw4AznwmQ_7.mp4	0.0	316.2320258617401	2.5083510875701904
39	123.74075293540955	fix_post	2		12.0	37.0	2.5	/experiments/knapen_aot/videos/R_S_yt-J1dw4AznwmQ_7.mp4	0.0	318.7403769493103	0.10003495216369629
40	123.84078788757324	fix_pre	0		84.0	38.0	2.5	/experiments/knapen_aot/videos/R_S_yt-dqcUJzNOzbM_156.mp4	0.0	318.840411901474	0.69992995262146
40	124.53255987167358	response	0	2		38.0	2.5	/experiments/knapen_aot/videos/R_S_yt-dqcUJzNOzbM_156.mp4	0.0	319.53218388557434	
40	124.5407178401947	movie	1		300.0	38.0	2.5	/experiments/knapen_aot/videos/R_S_yt-dqcUJzNOzbM_156.mp4	0.0	319.54034185409546	2.5082600116729736
40	127.04897785186768	fix_post	2		12.0	38.0	2.5	/experiments/knapen_aot/videos/R_S_yt-dqcUJzNOzbM_156.mp4	0.0	322.04860186576843	0.10012006759643555
41	127.14909791946411	fix_pre	0		95.0	39.0	2.5	/experiments/knapen_aot/videos/S_yt-lv6mhnH7_g4_134.mp4	0.0	322.14872193336487	0.7916228771209717
41	127.93249893188477	response	0	2		39.0	2.5	/experiments/knapen_aot/videos/S_yt-lv6mhnH7_g4_134.mp4	0.0	322.9321229457855	
41	127.94072079658508	movie	1		301.0	39.0	2.5	/experiments/knapen_aot/videos/S_yt-lv6mhnH7_g4_134.mp4	0.0	322.94034481048584	2.508427143096924
41	130.449147939682	fix_post	2		12.0	39.0	2.5	/experiments/knapen_aot/videos/S_yt-lv6mhnH7_g4_134.mp4	0.0	325.44877195358276	0.09986996650695801
42	130.54901790618896	fix_pre	0		84.0	40.0	2.5	/experiments/knapen_aot/videos/S_Oo8otu7cQ20_112.mp4	0.0	325.5486419200897	0.6999540328979492
42	131.240788936615	response	0	2		40.0	2.5	/experiments/knapen_aot/videos/S_Oo8otu7cQ20_112.mp4	0.0	326.24041295051575	
42	131.2489719390869	movie	1		301.0	40.0	2.5	/experiments/knapen_aot/videos/S_Oo8otu7cQ20_112.mp4	0.0	326.24859595298767	2.5083398818969727
42	133.7573118209839	fix_post	2		12.0	40.0	2.5	/experiments/knapen_aot/videos/S_Oo8otu7cQ20_112.mp4	0.0	328.75693583488464	0.10002303123474121
43	133.85733485221863	fix_pre	0		65.0	41.0	2.5	/experiments/knapen_aot/videos/R_S_yt-gaCbT4RR9Tw_191.mp4	0.0	328.8569588661194	0.5416030883789062
43	134.39076781272888	response	0	2		41.0	2.5	/experiments/knapen_aot/videos/R_S_yt-gaCbT4RR9Tw_191.mp4	0.0	329.39039182662964	
43	134.39893794059753	movie	1		301.0	41.0	2.5	/experiments/knapen_aot/videos/R_S_yt-gaCbT4RR9Tw_191.mp4	0.0	329.3985619544983	2.508358955383301
43	136.90729689598083	fix_post	2		12.0	41.0	2.5	/experiments/knapen_aot/videos/R_S_yt-gaCbT4RR9Tw_191.mp4	0.0	331.9069209098816	0.10001587867736816
44	137.0073127746582	fix_pre	0		66.0	42.0	2.5	blank	1.0	332.00693678855896	0.5500202178955078
44	137.54165983200073	response	0	2		42.0	2.5	blank	1.0	332.5412838459015	
44	137.5573329925537	movie	1		301.0	42.0	2.5	blank	1.0	332.55695700645447	2.5082948207855225
44	140.06562781333923	fix_post	2		12.0	42.0	2.5	blank	1.0	335.06525182724	0.09989404678344727
45	140.16552186012268	fix_pre	0		77.0	43.0	2.5	/experiments/knapen_aot/videos/R_S_yt-K7viJXt9vX8_143.mp4	0.0	335.16514587402344	0.6417620182037354
45	140.79907298088074	response	0	2		43.0	2.5	/experiments/knapen_aot/videos/R_S_yt-K7viJXt9vX8_143.mp4	0.0	335.7986969947815	
45	140.80728387832642	movie	1		301.0	43.0	2.5	/experiments/knapen_aot/videos/R_S_yt-K7viJXt9vX8_143.mp4	0.0	335.8069078922272	2.5082619190216064
45	143.31554579734802	fix_post	2		12.0	43.0	2.5	/experiments/knapen_aot/videos/R_S_yt-K7viJXt9vX8_143.mp4	0.0	338.3151698112488	0.10001516342163086
46	143.41556096076965	fix_pre	0		96.0	44.0	2.5	/experiments/knapen_aot/videos/S_yt-XF0fyyFEgWo_280.mp4	0.0	338.4151849746704	0.7999868392944336
46	144.20753288269043	response	0	2		44.0	2.5	/experiments/knapen_aot/videos/S_yt-XF0fyyFEgWo_280.mp4	0.0	339.2071568965912	
46	144.2155478000641	movie	1		301.0	44.0	2.5	/experiments/knapen_aot/videos/S_yt-XF0fyyFEgWo_280.mp4	0.0	339.21517181396484	2.5083329677581787
46	146.72388076782227	fix_post	2		12.0	44.0	2.5	/experiments/knapen_aot/videos/S_yt-XF0fyyFEgWo_280.mp4	0.0	341.723504781723	0.10000801086425781
47	146.82388877868652	fix_pre	0		73.0	45.0	2.5	/experiments/knapen_aot/videos/R_S_yt-BqJHT4K7Qf8_127.mp4	0.0	341.8235127925873	0.6083590984344482
47	147.4240379333496	response	0	2		45.0	2.5	/experiments/knapen_aot/videos/R_S_yt-BqJHT4K7Qf8_127.mp4	0.0	342.42366194725037	
47	147.43224787712097	movie	1		301.0	45.0	2.5	/experiments/knapen_aot/videos/R_S_yt-BqJHT4K7Qf8_127.mp4	0.0	342.43187189102173	2.508380889892578
47	149.94062876701355	fix_post	2		12.0	45.0	2.5	/experiments/knapen_aot/videos/R_S_yt-BqJHT4K7Qf8_127.mp4	0.0	344.9402527809143	0.09995222091674805
48	150.0405809879303	fix_pre	0		67.0	46.0	2.5	/experiments/knapen_aot/videos/S_yt-yJmHtBFyhH4_15.mp4	0.0	345.04020500183105	0.5583407878875732
48	150.5906879901886	response	0	2		46.0	2.5	/experiments/knapen_aot/videos/S_yt-yJmHtBFyhH4_15.mp4	0.0	345.59031200408936	
48	150.59892177581787	movie	1		301.0	46.0	2.5	/experiments/knapen_aot/videos/S_yt-yJmHtBFyhH4_15.mp4	0.0	345.5985457897186	2.508336067199707
48	153.10725784301758	fix_post	2		12.0	46.0	2.5	/experiments/knapen_aot/videos/S_yt-yJmHtBFyhH4_15.mp4	0.0	348.10688185691833	0.09994196891784668
49	153.20719981193542	fix_pre	0		66.0	47.0	2.5	blank	1.0	348.2068238258362	0.5500459671020508
49	153.7415268421173	response	0	2		47.0	2.5	blank	1.0	348.74115085601807	
49	153.75724577903748	movie	1		301.0	47.0	2.5	blank	1.0	348.75686979293823	2.5083391666412354
49	156.2655849456787	fix_post	2		12.0	47.0	2.5	blank	1.0	351.26520895957947	0.09996604919433594
50	156.36555099487305	fix_pre	0		65.0	48.0	2.5	/experiments/knapen_aot/videos/R_S_yt-ujTY1igjc3E_2.mp4	0.0	351.3651750087738	0.5417048931121826
50	156.89901399612427	response	0	2		48.0	2.5	/experiments/knapen_aot/videos/R_S_yt-ujTY1igjc3E_2.mp4	0.0	351.898638010025	
50	156.90725588798523	movie	1		298.0	48.0	2.5	/experiments/knapen_aot/videos/R_S_yt-ujTY1igjc3E_2.mp4	0.0	351.906879901886	2.5082900524139404
50	159.41554594039917	fix_post	2		12.0	48.0	2.5	/experiments/knapen_aot/videos/R_S_yt-ujTY1igjc3E_2.mp4	0.0	354.4151699542999	0.0999300479888916
51	159.51547598838806	fix_pre	0		99.0	49.0	2.5	/experiments/knapen_aot/videos/R_S_yt-gmFYJR5ABNs_305.mp4	0.0	354.5151000022888	0.8250679969787598
51	160.33235478401184	response	0	2		49.0	2.5	/experiments/knapen_aot/videos/R_S_yt-gmFYJR5ABNs_305.mp4	0.0	355.3319787979126	
51	160.34054398536682	movie	1		301.0	49.0	2.5	/experiments/knapen_aot/videos/R_S_yt-gmFYJR5ABNs_305.mp4	0.0	355.3401679992676	2.5082240104675293
51	162.84876799583435	fix_post	2		12.0	49.0	2.5	/experiments/knapen_aot/videos/R_S_yt-gmFYJR5ABNs_305.mp4	0.0	357.8483920097351	0.10008478164672852
52	162.94885277748108	fix_pre	0		88.0	50.0	2.5	/experiments/knapen_aot/videos/S_yt-JQOHHL30Y54_101.mp4	0.0	357.94847679138184	0.7345302104949951
52	163.67401480674744	response	0	2		50.0	2.5	/experiments/knapen_aot/videos/S_yt-JQOHHL30Y54_101.mp4	0.0	358.6736388206482	
52	163.68338298797607	movie	1		298.0	50.0	2.5	/experiments/knapen_aot/videos/S_yt-JQOHHL30Y54_101.mp4	0.0	358.68300700187683	2.5071749687194824
52	166.19055795669556	fix_post	2		12.0	50.0	2.5	/experiments/knapen_aot/videos/S_yt-JQOHHL30Y54_101.mp4	0.0	361.1901819705963	0.09994888305664062
53	166.2905068397522	fix_pre	0		68.0	51.0	2.5	/experiments/knapen_aot/videos/R_S_yt-UmLeGNcqouI_718.mp4	0.0	361.29013085365295	0.5666780471801758
53	166.84899997711182	response	0	2		51.0	2.5	/experiments/knapen_aot/videos/R_S_yt-UmLeGNcqouI_718.mp4	0.0	361.8486239910126	
53	166.85718488693237	movie	1		301.0	51.0	2.5	/experiments/knapen_aot/videos/R_S_yt-UmLeGNcqouI_718.mp4	0.0	361.85680890083313	2.5082778930664062
53	169.36546277999878	fix_post	2		12.0	51.0	2.5	/experiments/knapen_aot/videos/R_S_yt-UmLeGNcqouI_718.mp4	0.0	364.36508679389954	0.09997820854187012
54	169.46544098854065	fix_pre	0		70.0	52.0	2.5	/experiments/knapen_aot/videos/S_yt-b7bIulV49DQ_81.mp4	0.0	364.4650650024414	0.5833799839019775
54	170.04064297676086	response	0	2		52.0	2.5	/experiments/knapen_aot/videos/S_yt-b7bIulV49DQ_81.mp4	0.0	365.0402669906616	
54	170.04882097244263	movie	1		301.0	52.0	2.5	/experiments/knapen_aot/videos/S_yt-b7bIulV49DQ_81.mp4	0.0	365.0484449863434	2.508354902267456
54	172.55717587471008	fix_post	2		12.0	52.0	2.5	/experiments/knapen_aot/videos/S_yt-b7bIulV49DQ_81.mp4	0.0	367.55679988861084	0.09999704360961914
55	172.6571729183197	fix_pre	0		76.0	53.0	2.5	/experiments/knapen_aot/videos/R_S_yt-EFrazkRaYbs_21.mp4	0.0	367.65679693222046	0.633275032043457
55	173.28230094909668	response	0	2		53.0	2.5	/experiments/knapen_aot/videos/R_S_yt-EFrazkRaYbs_21.mp4	0.0	368.28192496299744	
55	173.29044795036316	movie	1		300.0	53.0	2.5	/experiments/knapen_aot/videos/R_S_yt-EFrazkRaYbs_21.mp4	0.0	368.2900719642639	2.508319854736328
55	175.7987678050995	fix_post	2		12.0	53.0	2.5	/experiments/knapen_aot/videos/R_S_yt-EFrazkRaYbs_21.mp4	0.0	370.79839181900024	0.1000220775604248
56	175.8987898826599	fix_pre	0		67.0	54.0	2.5	/experiments/knapen_aot/videos/S__6qAy77ODUI_175.mp4	0.0	370.89841389656067	0.5584089756011963
56	176.44134998321533	response	0	2		54.0	2.5	/experiments/knapen_aot/videos/S__6qAy77ODUI_175.mp4	0.0	371.4409739971161	
56	176.4571988582611	movie	1		301.0	54.0	2.5	/experiments/knapen_aot/videos/S__6qAy77ODUI_175.mp4	0.0	371.45682287216187	2.508347988128662
56	178.96554684638977	fix_post	2		12.0	54.0	2.5	/experiments/knapen_aot/videos/S__6qAy77ODUI_175.mp4	0.0	373.9651708602905	0.09995198249816895
57	179.06549882888794	fix_pre	0		72.0	55.0	2.5	blank	1.0	374.0651228427887	0.5999460220336914
57	179.65730094909668	response	0	2		55.0	2.5	blank	1.0	374.65692496299744	
57	179.66544485092163	movie	1		301.0	55.0	2.5	blank	1.0	374.6650688648224	2.5083820819854736
57	182.1738269329071	fix_post	2		12.0	55.0	2.5	blank	1.0	377.17345094680786	0.09998893737792969
58	182.27381587028503	fix_pre	0		63.0	56.0	2.5	/experiments/knapen_aot/videos/R_S_ILSVRC2015_train_00087003.mp4	0.0	377.2734398841858	0.5249519348144531
58	182.79063177108765	response	0	2		56.0	2.5	/experiments/knapen_aot/videos/R_S_ILSVRC2015_train_00087003.mp4	0.0	377.7902557849884	
58	182.7987678050995	movie	1		301.0	56.0	2.5	/experiments/knapen_aot/videos/R_S_ILSVRC2015_train_00087003.mp4	0.0	377.79839181900024	2.5083701610565186
58	185.307137966156	fix_post	2		12.0	56.0	2.5	/experiments/knapen_aot/videos/R_S_ILSVRC2015_train_00087003.mp4	0.0	380.30676198005676	0.09999990463256836
59	185.40713787078857	fix_pre	0		96.0	57.0	2.5	/experiments/knapen_aot/videos/R_S_Ds4EKTLx_RI_51.mp4	0.0	380.40676188468933	0.79994797706604
59	186.19900393486023	response	0	2		57.0	2.5	/experiments/knapen_aot/videos/R_S_Ds4EKTLx_RI_51.mp4	0.0	381.198627948761	
59	186.20708584785461	movie	1		301.0	57.0	2.5	/experiments/knapen_aot/videos/R_S_Ds4EKTLx_RI_51.mp4	0.0	381.20670986175537	2.508341073989868
59	188.71542692184448	fix_post	2		12.0	57.0	2.5	/experiments/knapen_aot/videos/R_S_Ds4EKTLx_RI_51.mp4	0.0	383.71505093574524	0.10003089904785156
60	188.81545782089233	fix_pre	0		79.0	58.0	2.5	/experiments/knapen_aot/videos/R_S_yt-jy7rAnpu0u8_128.mp4	0.0	383.8150818347931	0.6594021320343018
60	189.4580099582672	response	0	2		58.0	2.5	/experiments/knapen_aot/videos/R_S_yt-jy7rAnpu0u8_128.mp4	0.0	384.45763397216797	
60	189.47485995292664	movie	1		300.0	58.0	2.5	/experiments/knapen_aot/videos/R_S_yt-jy7rAnpu0u8_128.mp4	0.0	384.4744839668274	2.507211923599243
60	191.98207187652588	fix_post	2		12.0	58.0	2.5	/experiments/knapen_aot/videos/R_S_yt-jy7rAnpu0u8_128.mp4	0.0	386.98169589042664	0.09999489784240723
61	192.0820667743683	fix_pre	0		68.0	59.0	2.5	/experiments/knapen_aot/videos/S_yt-5rC42egLl5E_387.mp4	0.0	387.08169078826904	0.5666611194610596
61	192.64056086540222	response	0	2		59.0	2.5	/experiments/knapen_aot/videos/S_yt-5rC42egLl5E_387.mp4	0.0	387.640184879303	
61	192.64872789382935	movie	1		301.0	59.0	2.5	/experiments/knapen_aot/videos/S_yt-5rC42egLl5E_387.mp4	0.0	387.6483519077301	2.5083670616149902
61	195.15709495544434	fix_post	2		12.0	59.0	2.5	/experiments/knapen_aot/videos/S_yt-5rC42egLl5E_387.mp4	0.0	390.1567189693451	0.09993600845336914
62	195.2570309638977	fix_pre	0		54.0	60.0	2.5	/experiments/knapen_aot/videos/S_yt-aiwDdJm1ek8_90.mp4	0.0	390.25665497779846	0.45003795623779297
62	195.69888186454773	response	0	2		60.0	2.5	/experiments/knapen_aot/videos/S_yt-aiwDdJm1ek8_90.mp4	0.0	390.6985058784485	
62	195.7070689201355	movie	1		301.0	60.0	2.5	/experiments/knapen_aot/videos/S_yt-aiwDdJm1ek8_90.mp4	0.0	390.70669293403625	2.508336067199707
62	198.2154049873352	fix_post	2		12.0	60.0	2.5	/experiments/knapen_aot/videos/S_yt-aiwDdJm1ek8_90.mp4	0.0	393.21502900123596	0.09991884231567383
63	198.31532382965088	fix_pre	0		90.0	61.0	2.5	/experiments/knapen_aot/videos/S_video_inspire_texas_pecos_foggy-landscape_00018.1080-h264.mp4	0.0	393.31494784355164	0.7500009536743164
63	199.05719590187073	response	0	2		61.0	2.5	/experiments/knapen_aot/videos/S_video_inspire_texas_pecos_foggy-landscape_00018.1080-h264.mp4	0.0	394.0568199157715	
63	199.0653247833252	movie	1		165.0	61.0	2.5	/experiments/knapen_aot/videos/S_video_inspire_texas_pecos_foggy-landscape_00018.1080-h264.mp4	0.0	394.06494879722595	2.508404016494751
63	201.57372879981995	fix_post	2		12.0	61.0	2.5	/experiments/knapen_aot/videos/S_video_inspire_texas_pecos_foggy-landscape_00018.1080-h264.mp4	0.0	396.5733528137207	0.10001516342163086
64	201.67374396324158	fix_pre	0		112.0	62.0	2.5	/experiments/knapen_aot/videos/R_S_yt-6vkiJedss6g_5.mp4	0.0	396.67336797714233	0.9332959651947021
64	202.59890794754028	response	0	2		62.0	2.5	/experiments/knapen_aot/videos/R_S_yt-6vkiJedss6g_5.mp4	0.0	397.59853196144104	
64	202.60703992843628	movie	1		301.0	62.0	2.5	/experiments/knapen_aot/videos/R_S_yt-6vkiJedss6g_5.mp4	0.0	397.60666394233704	2.5083189010620117
64	205.1153588294983	fix_post	2		12.0	62.0	2.5	/experiments/knapen_aot/videos/R_S_yt-6vkiJedss6g_5.mp4	0.0	400.11498284339905	0.10005497932434082
65	205.21541380882263	fix_pre	0		77.0	63.0	2.5	blank	1.0	400.2150378227234	0.6416330337524414
65	205.84883880615234	response	0	2		63.0	2.5	blank	1.0	400.8484628200531	
65	205.85704684257507	movie	1		301.0	63.0	2.5	blank	1.0	400.85667085647583	2.508357048034668
65	208.36540389060974	fix_post	2		12.0	63.0	2.5	blank	1.0	403.3650279045105	0.09998106956481934
66	208.46538496017456	fix_pre	0		105.0	64.0	2.5	/experiments/knapen_aot/videos/R_S_yt_R-SwXr0ScjD9o_20.mp4	0.0	403.4650089740753	0.8749740123748779
66	209.33220291137695	response	0	2		64.0	2.5	/experiments/knapen_aot/videos/R_S_yt_R-SwXr0ScjD9o_20.mp4	0.0	404.3318269252777	
66	209.34035897254944	movie	1		301.0	64.0	2.5	/experiments/knapen_aot/videos/R_S_yt_R-SwXr0ScjD9o_20.mp4	0.0	404.3399829864502	2.50834584236145
66	211.8487048149109	fix_post	2		12.0	64.0	2.5	/experiments/knapen_aot/videos/R_S_yt_R-SwXr0ScjD9o_20.mp4	0.0	406.84832882881165	0.09998011589050293
67	211.9486849308014	fix_pre	0		63.0	65.0	2.5	/experiments/knapen_aot/videos/R_S_yt-mQESmS4uqRU_208.mp4	0.0	406.94830894470215	0.5259640216827393
67	212.46552395820618	response	0	2		65.0	2.5	/experiments/knapen_aot/videos/R_S_yt-mQESmS4uqRU_208.mp4	0.0	407.46514797210693	
67	212.47464895248413	movie	1		299.0	65.0	2.5	/experiments/knapen_aot/videos/R_S_yt-mQESmS4uqRU_208.mp4	0.0	407.4742729663849	2.5073108673095703
67	214.9819598197937	fix_post	2		12.0	65.0	2.5	/experiments/knapen_aot/videos/R_S_yt-mQESmS4uqRU_208.mp4	0.0	409.98158383369446	0.0999460220336914
68	215.0819058418274	fix_pre	0		115.0	66.0	2.5	/experiments/knapen_aot/videos/R_S_wc-16LozRfhUGea_49.mp4	0.0	410.08152985572815	0.9583749771118164
68	216.0320689678192	response	0	2		66.0	2.5	/experiments/knapen_aot/videos/R_S_wc-16LozRfhUGea_49.mp4	0.0	411.03169298171997	
68	216.0402808189392	movie	1		301.0	66.0	2.5	/experiments/knapen_aot/videos/R_S_wc-16LozRfhUGea_49.mp4	0.0	411.03990483283997	2.508327007293701
68	218.5486078262329	fix_post	2		12.0	66.0	2.5	/experiments/knapen_aot/videos/R_S_wc-16LozRfhUGea_49.mp4	0.0	413.54823184013367	0.09999203681945801
69	218.64859986305237	fix_pre	0		127.0	67.0	2.5	/experiments/knapen_aot/videos/R_S_yt-2cwARrUMj40_67.mp4	0.0	413.6482238769531	1.0583391189575195
69	219.69882678985596	response	0	2		67.0	2.5	/experiments/knapen_aot/videos/R_S_yt-2cwARrUMj40_67.mp4	0.0	414.6984508037567	
69	219.7069389820099	movie	1		301.0	67.0	2.5	/experiments/knapen_aot/videos/R_S_yt-2cwARrUMj40_67.mp4	0.0	414.70656299591064	2.5083048343658447
69	222.21524381637573	fix_post	2		12.0	67.0	2.5	/experiments/knapen_aot/videos/R_S_yt-2cwARrUMj40_67.mp4	0.0	417.2148678302765	0.10004496574401855
70	222.31528878211975	fix_pre	0		80.0	68.0	2.5	/experiments/knapen_aot/videos/R_S_ILSVRC2015_test_00004002.mp4	0.0	417.3149127960205	0.6666021347045898
70	222.9737229347229	response	0	2		68.0	2.5	/experiments/knapen_aot/videos/R_S_ILSVRC2015_test_00004002.mp4	0.0	417.97334694862366	
70	222.98189091682434	movie	1		301.0	68.0	2.5	/experiments/knapen_aot/videos/R_S_ILSVRC2015_test_00004002.mp4	0.0	417.9815149307251	2.5083749294281006
70	225.49026584625244	fix_post	2		12.0	68.0	2.5	/experiments/knapen_aot/videos/R_S_ILSVRC2015_test_00004002.mp4	0.0	420.4898898601532	0.09998297691345215
71	225.5902488231659	fix_pre	0		91.0	69.0	2.5	blank	1.0	420.58987283706665	0.7592661380767822
71	226.34041500091553	response	0	2		69.0	2.5	blank	1.0	421.3400390148163	
71	226.34951496124268	movie	1		301.0	69.0	2.5	blank	1.0	421.34913897514343	2.507335901260376
71	228.85685086250305	fix_post	2		12.0	69.0	2.5	blank	1.0	423.8564748764038	0.10006904602050781
72	228.95691990852356	fix_pre	0		93.0	70.0	2.5	/experiments/knapen_aot/videos/S_yt-gaCbT4RR9Tw_191.mp4	0.0	423.9565439224243	0.774946928024292
72	229.72375297546387	response	0	2		70.0	2.5	/experiments/knapen_aot/videos/S_yt-gaCbT4RR9Tw_191.mp4	0.0	424.7233769893646	
72	229.73186683654785	movie	1		301.0	70.0	2.5	/experiments/knapen_aot/videos/S_yt-gaCbT4RR9Tw_191.mp4	0.0	424.7314908504486	2.5083329677581787
72	232.24019980430603	fix_post	2		12.0	70.0	2.5	/experiments/knapen_aot/videos/S_yt-gaCbT4RR9Tw_191.mp4	0.0	427.2398238182068	0.09998297691345215
73	232.34018278121948	fix_pre	0		89.0	71.0	2.5	/experiments/knapen_aot/videos/R_S_yt-K7viJXt9vX8_143.mp4	0.0	427.33980679512024	0.7416741847991943
73	233.07361888885498	response	0	2		71.0	2.5	/experiments/knapen_aot/videos/R_S_yt-K7viJXt9vX8_143.mp4	0.0	428.07324290275574	
73	233.08185696601868	movie	1		301.0	71.0	2.5	/experiments/knapen_aot/videos/R_S_yt-K7viJXt9vX8_143.mp4	0.0	428.08148097991943	2.508370876312256
73	235.59022784233093	fix_post	2		12.0	71.0	2.5	/experiments/knapen_aot/videos/R_S_yt-K7viJXt9vX8_143.mp4	0.0	430.5898518562317	0.1000211238861084
74	235.69024896621704	fix_pre	0		95.0	72.0	2.5	/experiments/knapen_aot/videos/R_S_I003_C015_SDR_2K_AVC.mp4	0.0	430.6898729801178	0.7916238307952881
74	236.47376585006714	response	0	2		72.0	2.5	/experiments/knapen_aot/videos/R_S_I003_C015_SDR_2K_AVC.mp4	0.0	431.4733898639679	
74	236.48187279701233	movie	1		171.0	72.0	2.5	/experiments/knapen_aot/videos/R_S_I003_C015_SDR_2K_AVC.mp4	0.0	431.4814968109131	2.5083601474761963
74	238.99023294448853	fix_post	2		12.0	72.0	2.5	/experiments/knapen_aot/videos/R_S_I003_C015_SDR_2K_AVC.mp4	0.0	433.9898569583893	0.09999895095825195
75	239.09023189544678	fix_pre	0		136.0	73.0	2.5	/experiments/knapen_aot/videos/R_S_yt-deiWoIfK6vg_44.mp4	0.0	434.08985590934753	1.1341629028320312
75	240.21532082557678	response	0	2		73.0	2.5	/experiments/knapen_aot/videos/R_S_yt-deiWoIfK6vg_44.mp4	0.0	435.21494483947754	
75	240.2243947982788	movie	1		299.0	73.0	2.5	/experiments/knapen_aot/videos/R_S_yt-deiWoIfK6vg_44.mp4	0.0	435.22401881217957	2.507498025894165
75	242.73189282417297	fix_post	2		12.0	73.0	2.5	/experiments/knapen_aot/videos/R_S_yt-deiWoIfK6vg_44.mp4	0.0	437.73151683807373	0.10000801086425781
76	242.83190083503723	fix_pre	0		83.0	74.0	2.5	/experiments/knapen_aot/videos/S_yt-j-ifVbxZePQ_70.mp4	0.0	437.831524848938	0.6916000843048096
76	243.50780391693115	response	0	2		74.0	2.5	/experiments/knapen_aot/videos/S_yt-j-ifVbxZePQ_70.mp4	0.0	438.5074279308319	
76	243.52350091934204	movie	1		301.0	74.0	2.5	/experiments/knapen_aot/videos/S_yt-j-ifVbxZePQ_70.mp4	0.0	438.5231249332428	2.508331060409546
76	246.0318319797516	fix_post	2		12.0	74.0	2.5	/experiments/knapen_aot/videos/S_yt-j-ifVbxZePQ_70.mp4	0.0	441.03145599365234	0.1000208854675293
77	246.13185286521912	fix_pre	0		131.0	75.0	2.5	/experiments/knapen_aot/videos/S_yt-XYULt48onn4_6.mp4	0.0	441.1314768791199	1.0924360752105713
77	247.21531796455383	response	0	2		75.0	2.5	/experiments/knapen_aot/videos/S_yt-XYULt48onn4_6.mp4	0.0	442.2149419784546	
77	247.2242889404297	movie	1		301.0	75.0	2.5	/experiments/knapen_aot/videos/S_yt-XYULt48onn4_6.mp4	0.0	442.22391295433044	2.507539987564087
77	249.73182892799377	fix_post	2		12.0	75.0	2.5	/experiments/knapen_aot/videos/S_yt-XYULt48onn4_6.mp4	0.0	444.73145294189453	0.09996294975280762
78	249.83179187774658	fix_pre	0		99.0	76.0	2.5	blank	1.0	444.83141589164734	0.8250720500946045
78	250.64862895011902	response	0	2		76.0	2.5	blank	1.0	445.6482529640198	
78	250.6568639278412	movie	1		301.0	76.0	2.5	blank	1.0	445.65648794174194	2.508262872695923
78	253.1651268005371	fix_post	2		12.0	76.0	2.5	blank	1.0	448.16475081443787	0.099945068359375
79	253.26507186889648	fix_pre	0		98.0	77.0	2.5	/experiments/knapen_aot/videos/S_yt-dqcUJzNOzbM_156.mp4	0.0	448.26469588279724	0.816709041595459
79	254.07346391677856	response	0	2		77.0	2.5	/experiments/knapen_aot/videos/S_yt-dqcUJzNOzbM_156.mp4	0.0	449.0730879306793	
79	254.08178091049194	movie	1		301.0	77.0	2.5	/experiments/knapen_aot/videos/S_yt-dqcUJzNOzbM_156.mp4	0.0	449.0814049243927	2.5083560943603516
79	256.5901370048523	fix_post	2		12.0	77.0	2.5	/experiments/knapen_aot/videos/S_yt-dqcUJzNOzbM_156.mp4	0.0	451.58976101875305	0.0999908447265625
80	256.69012784957886	fix_pre	0		122.0	78.0	2.5	/experiments/knapen_aot/videos/R_S_Oo8otu7cQ20_112.mp4	0.0	451.6897518634796	1.016618013381958
80	257.6985638141632	response	0	2		78.0	2.5	/experiments/knapen_aot/videos/R_S_Oo8otu7cQ20_112.mp4	0.0	452.69818782806396	
80	257.7067458629608	movie	1		300.0	78.0	2.5	/experiments/knapen_aot/videos/R_S_Oo8otu7cQ20_112.mp4	0.0	452.7063698768616	2.508359909057617
80	260.21510577201843	fix_post	2		12.0	78.0	2.5	/experiments/knapen_aot/videos/R_S_Oo8otu7cQ20_112.mp4	0.0	455.2147297859192	0.1000220775604248
81	260.31512784957886	fix_pre	0		79.0	79.0	2.5	/experiments/knapen_aot/videos/S_yt-EBuE7GbFw7U_180.mp4	0.0	455.3147518634796	0.6590509414672852
81	260.9651758670807	response	0	2		79.0	2.5	/experiments/knapen_aot/videos/S_yt-EBuE7GbFw7U_180.mp4	0.0	455.96479988098145	
81	260.97417879104614	movie	1		301.0	79.0	2.5	/experiments/knapen_aot/videos/S_yt-EBuE7GbFw7U_180.mp4	0.0	455.9738028049469	2.5075461864471436
81	263.4817249774933	fix_post	2		12.0	79.0	2.5	/experiments/knapen_aot/videos/S_yt-EBuE7GbFw7U_180.mp4	0.0	458.48134899139404	0.10007190704345703
82	263.58179688453674	fix_pre	0		84.0	80.0	2.5	/experiments/knapen_aot/videos/S_yt-bmGWhOCsvJo_128.mp4	0.0	458.5814208984375	0.6999540328979492
82	264.2736117839813	response	0	2		80.0	2.5	/experiments/knapen_aot/videos/S_yt-bmGWhOCsvJo_128.mp4	0.0	459.2732357978821	
82	264.2817509174347	movie	1		301.0	80.0	2.5	/experiments/knapen_aot/videos/S_yt-bmGWhOCsvJo_128.mp4	0.0	459.28137493133545	2.508265972137451
82	266.79001688957214	fix_post	2		12.0	80.0	2.5	/experiments/knapen_aot/videos/S_yt-bmGWhOCsvJo_128.mp4	0.0	461.7896409034729	0.1000819206237793
83	266.8900988101959	fix_pre	0		81.0	81.0	2.5	/experiments/knapen_aot/videos/R_S_video_inspire_uk_london_hampstead-heath_003.1080-h264.mp4	0.0	461.8897228240967	0.6749801635742188
83	267.5569188594818	response	0	2		81.0	2.5	/experiments/knapen_aot/videos/R_S_video_inspire_uk_london_hampstead-heath_003.1080-h264.mp4	0.0	462.55654287338257	
83	267.56507897377014	movie	1		170.0	81.0	2.5	/experiments/knapen_aot/videos/R_S_video_inspire_uk_london_hampstead-heath_003.1080-h264.mp4	0.0	462.5647029876709	2.50834584236145
83	270.0734248161316	fix_post	2		12.0	81.0	2.5	/experiments/knapen_aot/videos/R_S_video_inspire_uk_london_hampstead-heath_003.1080-h264.mp4	0.0	465.07304883003235	0.10001015663146973
84	270.17343497276306	fix_pre	0		67.0	82.0	2.5	/experiments/knapen_aot/videos/S_yt-j3Sk8ZnAiEA_32.mp4	0.0	465.1730589866638	0.5582849979400635
84	270.7235767841339	response	0	2		82.0	2.5	/experiments/knapen_aot/videos/S_yt-j3Sk8ZnAiEA_32.mp4	0.0	465.72320079803467	
84	270.7317199707031	movie	1		301.0	82.0	2.5	/experiments/knapen_aot/videos/S_yt-j3Sk8ZnAiEA_32.mp4	0.0	465.7313439846039	2.508409023284912
84	273.24012899398804	fix_post	2		12.0	82.0	2.5	/experiments/knapen_aot/videos/S_yt-j3Sk8ZnAiEA_32.mp4	0.0	468.2397530078888	0.0999748706817627
85	273.3401038646698	fix_pre	0		94.0	83.0	2.5	blank	1.0	468.33972787857056	0.7832751274108887
85	274.1152517795563	response	0	2		83.0	2.5	blank	1.0	469.11487579345703	
85	274.1233789920807	movie	1		301.0	83.0	2.5	blank	1.0	469.12300300598145	2.508368968963623
85	276.6317479610443	fix_post	2		12.0	83.0	2.5	blank	1.0	471.63137197494507	0.10000181198120117
87	276.7317497730255	stim	0		174.0					471.73137378692627	1.4506230354309082
87	278.1779887676239	response	0	space						473.17761278152466	
