trial_nr	onset	event_type	phase	response	nr_frames	movie_index	movie_duration	movie_file	blank	onset_abs	duration
0	0.12441706657409668	stim	0		76.0					106.7187750339508	0.6333169937133789
0	0.7500431537628174	response	0	space						107.34440112113953	
1	0.7577340602874756	stim	0		121.0					107.35209202766418	1.0078589916229248
1	1.5408611297607422	response	0	space						108.13521909713745	
1	1.7655930519104004	stim	1		120.0					108.35995101928711	1.0002009868621826
1	1.9074320793151855	response	1	space						108.5017900466919	
1	2.5157570838928223	response	1	space						109.11011505126953	
2	2.765794038772583	fix_pre	0		28.0	0.0	2.5	/experiments/knapen_aot/videos/R_S_ILSVRC2015_train_00471000.mp4	0.0	109.36015200614929	0.2337801456451416
2	2.9936671257019043	response	0	4		0.0	2.5	/experiments/knapen_aot/videos/R_S_ILSVRC2015_train_00471000.mp4	0.0	109.58802509307861	
2	2.9995741844177246	movie	1		294.0	0.0	2.5	/experiments/knapen_aot/videos/R_S_ILSVRC2015_train_00471000.mp4	0.0	109.59393215179443	2.507761001586914
2	3.0286149978637695	response	1	space		0.0	2.5	/experiments/knapen_aot/videos/R_S_ILSVRC2015_train_00471000.mp4	0.0	109.62297296524048	
2	5.507335186004639	fix_post	2		12.0	0.0	2.5	/experiments/knapen_aot/videos/R_S_ILSVRC2015_train_00471000.mp4	0.0	112.10169315338135	0.09990596771240234
3	5.607241153717041	fix_pre	0		34.0	1.0	2.5	/experiments/knapen_aot/videos/R_S_wc-DcFDe419cL3d_17.mp4	0.0	112.20159912109375	0.283405065536499
3	5.882415056228638	response	0	4		1.0	2.5	/experiments/knapen_aot/videos/R_S_wc-DcFDe419cL3d_17.mp4	0.0	112.47677302360535	
3	5.89064621925354	movie	1		162.0	1.0	2.5	/experiments/knapen_aot/videos/R_S_wc-DcFDe419cL3d_17.mp4	0.0	112.48500418663025	2.508314847946167
3	8.390864133834839	response	1	4		1.0	2.5	/experiments/knapen_aot/videos/R_S_wc-DcFDe419cL3d_17.mp4	0.0	114.98522210121155	
3	8.398961067199707	fix_post	2		12.0	1.0	2.5	/experiments/knapen_aot/videos/R_S_wc-DcFDe419cL3d_17.mp4	0.0	114.99331903457642	0.10052704811096191
4	8.499488115310669	fix_pre	0		49.0	2.0	2.5	/experiments/knapen_aot/videos/S_yt-ph1AkIToO4E_46.mp4	0.0	115.09384608268738	0.40782690048217773
4	8.899075031280518	response	0	4		2.0	2.5	/experiments/knapen_aot/videos/S_yt-ph1AkIToO4E_46.mp4	0.0	115.49343299865723	
4	8.907315015792847	movie	1		301.0	2.0	2.5	/experiments/knapen_aot/videos/S_yt-ph1AkIToO4E_46.mp4	0.0	115.50167298316956	2.5083770751953125
4	11.41569209098816	fix_post	2		12.0	2.0	2.5	/experiments/knapen_aot/videos/S_yt-ph1AkIToO4E_46.mp4	0.0	118.01005005836487	0.09996604919433594
5	11.515658140182495	fix_pre	0		6.0	3.0	2.5	/experiments/knapen_aot/videos/R_S_ILSVRC2015_train_00638001.mp4	0.0	118.1100161075592	0.049942970275878906
5	11.55750823020935	response	0	4		3.0	2.5	/experiments/knapen_aot/videos/R_S_ILSVRC2015_train_00638001.mp4	0.0	118.15186619758606	
5	11.565601110458374	movie	1		301.0	3.0	2.5	/experiments/knapen_aot/videos/R_S_ILSVRC2015_train_00638001.mp4	0.0	118.15995907783508	2.5083229541778564
5	14.07392406463623	fix_post	2		12.0	3.0	2.5	/experiments/knapen_aot/videos/R_S_ILSVRC2015_train_00638001.mp4	0.0	120.66828203201294	0.1000831127166748
6	14.174007177352905	fix_pre	0		32.0	4.0	2.5	/experiments/knapen_aot/videos/R_S_yt-rIQoRErqnlI_17.mp4	0.0	120.76836514472961	0.26657605171203613
6	14.432396173477173	response	0	4		4.0	2.5	/experiments/knapen_aot/videos/R_S_yt-rIQoRErqnlI_17.mp4	0.0	121.02675414085388	
6	14.440583229064941	movie	1		301.0	4.0	2.5	/experiments/knapen_aot/videos/R_S_yt-rIQoRErqnlI_17.mp4	0.0	121.03494119644165	2.508335828781128
6	16.340737104415894	response	1	4		4.0	2.5	/experiments/knapen_aot/videos/R_S_yt-rIQoRErqnlI_17.mp4	0.0	122.9350950717926	
6	16.94891905784607	fix_post	2		12.0	4.0	2.5	/experiments/knapen_aot/videos/R_S_yt-rIQoRErqnlI_17.mp4	0.0	123.54327702522278	0.10004997253417969
7	17.04896903038025	fix_pre	0		37.0	5.0	2.5	/experiments/knapen_aot/videos/S_yt-etF_WUW5D68_3.mp4	0.0	123.64332699775696	0.308305025100708
7	17.3490891456604	response	0	4		5.0	2.5	/experiments/knapen_aot/videos/S_yt-etF_WUW5D68_3.mp4	0.0	123.94344711303711	
7	17.357274055480957	movie	1		301.0	5.0	2.5	/experiments/knapen_aot/videos/S_yt-etF_WUW5D68_3.mp4	0.0	123.95163202285767	2.508368968963623
7	18.662512063980103	response	1	4		5.0	2.5	/experiments/knapen_aot/videos/S_yt-etF_WUW5D68_3.mp4	0.0	125.25687003135681	
7	19.607338190078735	response	1	4		5.0	2.5	/experiments/knapen_aot/videos/S_yt-etF_WUW5D68_3.mp4	0.0	126.20169615745544	
7	19.86564302444458	fix_post	2		12.0	5.0	2.5	/experiments/knapen_aot/videos/S_yt-etF_WUW5D68_3.mp4	0.0	126.46000099182129	0.10000014305114746
8	19.965643167495728	fix_pre	0		31.0	6.0	2.5	/experiments/knapen_aot/videos/R_S_yt-fjOsq03OC2c_188.mp4	0.0	126.56000113487244	0.2582700252532959
8	20.215763092041016	response	0	4		6.0	2.5	/experiments/knapen_aot/videos/R_S_yt-fjOsq03OC2c_188.mp4	0.0	126.81012105941772	
8	20.223913192749023	movie	1		301.0	6.0	2.5	/experiments/knapen_aot/videos/R_S_yt-fjOsq03OC2c_188.mp4	0.0	126.81827116012573	2.5083580017089844
8	22.55734419822693	response	1	4		6.0	2.5	/experiments/knapen_aot/videos/R_S_yt-fjOsq03OC2c_188.mp4	0.0	129.15170216560364	
8	22.732271194458008	fix_post	2		12.0	6.0	2.5	/experiments/knapen_aot/videos/R_S_yt-fjOsq03OC2c_188.mp4	0.0	129.32662916183472	0.0998988151550293
9	22.832170009613037	fix_pre	0		31.0	7.0	2.5	blank	1.0	129.42652797698975	0.2584230899810791
9	23.07498002052307	response	0	4		7.0	2.5	blank	1.0	129.66933798789978	
9	23.090593099594116	movie	1		301.0	7.0	2.5	blank	1.0	129.68495106697083	2.5083250999450684
9	25.140645027160645	response	1	4		7.0	2.5	blank	1.0	131.73500299453735	
9	25.598918199539185	fix_post	2		12.0	7.0	2.5	blank	1.0	132.1932761669159	0.10008001327514648
10	25.69899821281433	fix_pre	0		26.0	8.0	2.5	/experiments/knapen_aot/videos/S_yt-xSGPe0KemD4_384.mp4	0.0	132.29335618019104	0.21698379516601562
10	25.907385110855103	response	0	4		8.0	2.5	/experiments/knapen_aot/videos/S_yt-xSGPe0KemD4_384.mp4	0.0	132.5017430782318	
10	25.915982007980347	movie	1		301.0	8.0	2.5	/experiments/knapen_aot/videos/S_yt-xSGPe0KemD4_384.mp4	0.0	132.51033997535706	2.507939100265503
10	28.42392110824585	fix_post	2		12.0	8.0	2.5	/experiments/knapen_aot/videos/S_yt-xSGPe0KemD4_384.mp4	0.0	135.01827907562256	0.10001897811889648
11	28.523940086364746	fix_pre	0		27.0	9.0	2.5	/experiments/knapen_aot/videos/S_yt-sWJc_Do8EaI_32.mp4	0.0	135.11829805374146	0.22533798217773438
11	28.740737199783325	response	0	4		9.0	2.5	/experiments/knapen_aot/videos/S_yt-sWJc_Do8EaI_32.mp4	0.0	135.33509516716003	
11	28.74927806854248	movie	1		301.0	9.0	2.5	/experiments/knapen_aot/videos/S_yt-sWJc_Do8EaI_32.mp4	0.0	135.3436360359192	2.507951021194458
11	31.25722908973694	fix_post	2		12.0	9.0	2.5	/experiments/knapen_aot/videos/S_yt-sWJc_Do8EaI_32.mp4	0.0	137.85158705711365	0.09994792938232422
12	31.357177019119263	fix_pre	0		8.0	10.0	2.5	/experiments/knapen_aot/videos/R_S_production_ID_5020953.mp4	0.0	137.95153498649597	0.06667518615722656
12	31.415722131729126	response	0	4		10.0	2.5	/experiments/knapen_aot/videos/R_S_production_ID_5020953.mp4	0.0	138.01008009910583	
12	31.42385220527649	movie	1		199.0	10.0	2.5	/experiments/knapen_aot/videos/R_S_production_ID_5020953.mp4	0.0	138.0182101726532	2.5085439682006836
12	33.28494715690613	response	1	4		10.0	2.5	/experiments/knapen_aot/videos/R_S_production_ID_5020953.mp4	0.0	139.87930512428284	
12	33.93239617347717	fix_post	2		12.0	10.0	2.5	/experiments/knapen_aot/videos/R_S_production_ID_5020953.mp4	0.0	140.52675414085388	0.09983587265014648
13	34.03223204612732	fix_pre	0		7.0	11.0	2.5	/experiments/knapen_aot/videos/R_S_yt-Jo6PxivsTOg_247.mp4	0.0	140.62659001350403	0.05839705467224121
13	34.08286118507385	response	0	4		11.0	2.5	/experiments/knapen_aot/videos/R_S_yt-Jo6PxivsTOg_247.mp4	0.0	140.67721915245056	
13	34.09062910079956	movie	1		301.0	11.0	2.5	/experiments/knapen_aot/videos/R_S_yt-Jo6PxivsTOg_247.mp4	0.0	140.68498706817627	2.5082309246063232
13	35.794074058532715	response	1	4		11.0	2.5	/experiments/knapen_aot/videos/R_S_yt-Jo6PxivsTOg_247.mp4	0.0	142.38843202590942	
13	36.598860025405884	fix_post	2		12.0	11.0	2.5	/experiments/knapen_aot/videos/R_S_yt-Jo6PxivsTOg_247.mp4	0.0	143.1932179927826	0.09998416900634766
14	36.69884419441223	fix_pre	0		46.0	12.0	2.5	blank	1.0	143.29320216178894	0.3837449550628662
14	37.073989152908325	response	0	4		12.0	2.5	blank	1.0	143.66834712028503	
14	37.0825891494751	movie	1		301.0	12.0	2.5	blank	1.0	143.6769471168518	2.50797700881958
14	38.70728015899658	response	1	4		12.0	2.5	blank	1.0	145.3016381263733	
14	39.59056615829468	fix_post	2		12.0	12.0	2.5	blank	1.0	146.1849241256714	0.09998202323913574
15	39.69054818153381	fix_pre	0		57.0	13.0	2.5	/experiments/knapen_aot/videos/S_comp_N003_C006_PS_v01_SDR_PS_20180925_SDR_2K_AVC.mp4	0.0	146.28490614891052	0.47524499893188477
15	40.157347202301025	response	0	4		13.0	2.5	/experiments/knapen_aot/videos/S_comp_N003_C006_PS_v01_SDR_PS_20180925_SDR_2K_AVC.mp4	0.0	146.75170516967773	
15	40.1657931804657	movie	1		165.0	13.0	2.5	/experiments/knapen_aot/videos/S_comp_N003_C006_PS_v01_SDR_PS_20180925_SDR_2K_AVC.mp4	0.0	146.7601511478424	2.5080440044403076
15	42.471726179122925	response	1	4		13.0	2.5	/experiments/knapen_aot/videos/S_comp_N003_C006_PS_v01_SDR_PS_20180925_SDR_2K_AVC.mp4	0.0	149.06608414649963	
15	42.673837184906006	fix_post	2		10.0	13.0	2.5	/experiments/knapen_aot/videos/S_comp_N003_C006_PS_v01_SDR_PS_20180925_SDR_2K_AVC.mp4	0.0	149.26819515228271	0.10003495216369629
16	42.7738721370697	fix_pre	0		48.0	14.0	2.5	/experiments/knapen_aot/videos/R_S_wc-DcFDe419cL3d_17.mp4	0.0	149.3682301044464	0.39987802505493164
16	43.165592193603516	response	0	4		14.0	2.5	/experiments/knapen_aot/videos/R_S_wc-DcFDe419cL3d_17.mp4	0.0	149.75995016098022	
16	43.173750162124634	movie	1		163.0	14.0	2.5	/experiments/knapen_aot/videos/R_S_wc-DcFDe419cL3d_17.mp4	0.0	149.76810812950134	2.5084240436553955
16	44.415422201156616	response	1	4		14.0	2.5	/experiments/knapen_aot/videos/R_S_wc-DcFDe419cL3d_17.mp4	0.0	151.00978016853333	
16	45.05732202529907	response	1	4		14.0	2.5	/experiments/knapen_aot/videos/R_S_wc-DcFDe419cL3d_17.mp4	0.0	151.65167999267578	
16	45.68217420578003	fix_post	2		12.0	14.0	2.5	/experiments/knapen_aot/videos/R_S_wc-DcFDe419cL3d_17.mp4	0.0	152.27653217315674	0.09997797012329102
17	45.78215217590332	fix_pre	0		82.0	15.0	2.5	/experiments/knapen_aot/videos/S_yt-fjOsq03OC2c_188.mp4	0.0	152.37651014328003	0.6833429336547852
17	46.457213163375854	response	0	4		15.0	2.5	/experiments/knapen_aot/videos/S_yt-fjOsq03OC2c_188.mp4	0.0	153.05157113075256	
17	46.465495109558105	movie	1		298.0	15.0	2.5	/experiments/knapen_aot/videos/S_yt-fjOsq03OC2c_188.mp4	0.0	153.05985307693481	2.508310079574585
17	48.732309103012085	response	1	4		15.0	2.5	/experiments/knapen_aot/videos/S_yt-fjOsq03OC2c_188.mp4	0.0	155.3266670703888	
17	48.97380518913269	fix_post	2		12.0	15.0	2.5	/experiments/knapen_aot/videos/S_yt-fjOsq03OC2c_188.mp4	0.0	155.5681631565094	0.09992504119873047
18	49.07373023033142	fix_pre	0		130.0	16.0	2.5	/experiments/knapen_aot/videos/S_yt-BG-G7m5wLZ4_94.mp4	0.0	155.66808819770813	1.0833947658538818
18	50.14897608757019	response	0	4		16.0	2.5	/experiments/knapen_aot/videos/S_yt-BG-G7m5wLZ4_94.mp4	0.0	156.7433340549469	
18	50.1571249961853	movie	1		301.0	16.0	2.5	/experiments/knapen_aot/videos/S_yt-BG-G7m5wLZ4_94.mp4	0.0	156.751482963562	2.5085442066192627
18	51.652008056640625	response	1	4		16.0	2.5	/experiments/knapen_aot/videos/S_yt-BG-G7m5wLZ4_94.mp4	0.0	158.24636602401733	
18	52.665669202804565	fix_post	2		12.0	16.0	2.5	/experiments/knapen_aot/videos/S_yt-BG-G7m5wLZ4_94.mp4	0.0	159.26002717018127	0.09982991218566895
19	52.765499114990234	fix_pre	0		35.0	17.0	2.5	/experiments/knapen_aot/videos/S_yt-Y7-umyL036c_507.mp4	0.0	159.35985708236694	0.29158902168273926
19	53.04896020889282	response	0	4		17.0	2.5	/experiments/knapen_aot/videos/S_yt-Y7-umyL036c_507.mp4	0.0	159.64331817626953	
19	53.057088136672974	movie	1		301.0	17.0	2.5	/experiments/knapen_aot/videos/S_yt-Y7-umyL036c_507.mp4	0.0	159.65144610404968	2.5083889961242676
19	53.56068706512451	response	1	4		17.0	2.5	/experiments/knapen_aot/videos/S_yt-Y7-umyL036c_507.mp4	0.0	160.15504503250122	
19	55.35723900794983	response	1	4		17.0	2.5	/experiments/knapen_aot/videos/S_yt-Y7-umyL036c_507.mp4	0.0	161.95159697532654	
19	55.56547713279724	fix_post	2		12.0	17.0	2.5	/experiments/knapen_aot/videos/S_yt-Y7-umyL036c_507.mp4	0.0	162.15983510017395	0.10020995140075684
20	55.665687084198	fix_pre	0		50.0	18.0	2.5	/experiments/knapen_aot/videos/R_S_ILnEDG_aP1A_35.mp4	0.0	162.2600450515747	0.41663503646850586
20	56.07392501831055	response	0	4		18.0	2.5	/experiments/knapen_aot/videos/R_S_ILnEDG_aP1A_35.mp4	0.0	162.66828298568726	
20	56.082322120666504	movie	1		301.0	18.0	2.5	/experiments/knapen_aot/videos/R_S_ILnEDG_aP1A_35.mp4	0.0	162.6766800880432	2.508178949356079
20	58.59050107002258	fix_post	2		12.0	18.0	2.5	/experiments/knapen_aot/videos/R_S_ILnEDG_aP1A_35.mp4	0.0	165.1848590373993	0.09995293617248535
21	58.69045400619507	fix_pre	0		39.0	19.0	2.5	/experiments/knapen_aot/videos/S_yt-WFiEvQuOqqg_18.mp4	0.0	165.28481197357178	0.3249800205230713
21	59.00725221633911	response	0	4		19.0	2.5	/experiments/knapen_aot/videos/S_yt-WFiEvQuOqqg_18.mp4	0.0	165.60161018371582	
21	59.01543402671814	movie	1		301.0	19.0	2.5	/experiments/knapen_aot/videos/S_yt-WFiEvQuOqqg_18.mp4	0.0	165.60979199409485	2.5083110332489014
21	61.52374505996704	fix_post	2		12.0	19.0	2.5	/experiments/knapen_aot/videos/S_yt-WFiEvQuOqqg_18.mp4	0.0	168.11810302734375	0.10020899772644043
22	61.62395405769348	fix_pre	0		59.0	20.0	2.5	blank	1.0	168.2183120250702	0.49164605140686035
22	62.09984111785889	response	0	4		20.0	2.5	blank	1.0	168.6941990852356	
22	62.11560010910034	movie	1		301.0	20.0	2.5	blank	1.0	168.70995807647705	2.508347988128662
22	64.623948097229	fix_post	2		12.0	20.0	2.5	blank	1.0	171.2183060646057	0.09984993934631348
23	64.72379803657532	fix_pre	0		266.0	21.0	2.5	/experiments/knapen_aot/videos/S_yt-XBAU3cq0rZs_150.mp4	0.0	171.31815600395203	2.216607093811035
23	66.93224620819092	response	0	4		21.0	2.5	/experiments/knapen_aot/videos/S_yt-XBAU3cq0rZs_150.mp4	0.0	173.52660417556763	
23	66.94040513038635	movie	1		301.0	21.0	2.5	/experiments/knapen_aot/videos/S_yt-XBAU3cq0rZs_150.mp4	0.0	173.53476309776306	2.5083470344543457
23	69.4487521648407	fix_post	2		12.0	21.0	2.5	/experiments/knapen_aot/videos/S_yt-XBAU3cq0rZs_150.mp4	0.0	176.0431101322174	0.10003805160522461
24	69.54879021644592	fix_pre	0		53.0	22.0	2.5	/experiments/knapen_aot/videos/S_ILSVRC2015_train_00638001.mp4	0.0	176.14314818382263	0.4416489601135254
24	69.98224306106567	response	0	4		22.0	2.5	/experiments/knapen_aot/videos/S_ILSVRC2015_train_00638001.mp4	0.0	176.57660102844238	
24	69.99043917655945	movie	1		301.0	22.0	2.5	/experiments/knapen_aot/videos/S_ILSVRC2015_train_00638001.mp4	0.0	176.58479714393616	2.50846004486084
24	72.09062814712524	response	1	4		22.0	2.5	/experiments/knapen_aot/videos/S_ILSVRC2015_train_00638001.mp4	0.0	178.68498611450195	
24	72.49889922142029	fix_post	2		12.0	22.0	2.5	/experiments/knapen_aot/videos/S_ILSVRC2015_train_00638001.mp4	0.0	179.093257188797	0.09986090660095215
25	72.59876012802124	fix_pre	0		218.0	23.0	2.5	/experiments/knapen_aot/videos/S_yt-wEbfIR14zZ8_7.mp4	0.0	179.19311809539795	1.8167870044708252
25	74.40724515914917	response	0	4		23.0	2.5	/experiments/knapen_aot/videos/S_yt-wEbfIR14zZ8_7.mp4	0.0	181.00160312652588	
25	74.41554713249207	movie	1		301.0	23.0	2.5	/experiments/knapen_aot/videos/S_yt-wEbfIR14zZ8_7.mp4	0.0	181.00990509986877	2.5082149505615234
25	74.88564920425415	response	1	4		23.0	2.5	/experiments/knapen_aot/videos/S_yt-wEbfIR14zZ8_7.mp4	0.0	181.48000717163086	
25	76.92376208305359	fix_post	2		12.0	23.0	2.5	/experiments/knapen_aot/videos/S_yt-wEbfIR14zZ8_7.mp4	0.0	183.5181200504303	0.09999895095825195
26	77.02376103401184	fix_pre	0		351.0	24.0	2.5	/experiments/knapen_aot/videos/S_yt-1n1jTroiwJs_163.mp4	0.0	183.61811900138855	2.9249351024627686
26	79.94056606292725	response	0	4		24.0	2.5	/experiments/knapen_aot/videos/S_yt-1n1jTroiwJs_163.mp4	0.0	186.53492403030396	
26	79.94869613647461	movie	1		301.0	24.0	2.5	/experiments/knapen_aot/videos/S_yt-1n1jTroiwJs_163.mp4	0.0	186.54305410385132	2.5084409713745117
26	82.45713710784912	fix_post	2		12.0	24.0	2.5	/experiments/knapen_aot/videos/S_yt-1n1jTroiwJs_163.mp4	0.0	189.05149507522583	0.0999140739440918
27	82.55705118179321	fix_pre	0		33.0	25.0	2.5	/experiments/knapen_aot/videos/R_S_b8-3.mp4	0.0	189.15140914916992	0.27505993843078613
27	82.82387709617615	response	0	4		25.0	2.5	/experiments/knapen_aot/videos/R_S_b8-3.mp4	0.0	189.41823506355286	
27	82.832111120224	movie	1		168.0	25.0	2.5	/experiments/knapen_aot/videos/R_S_b8-3.mp4	0.0	189.4264690876007	2.508251905441284
27	85.34036302566528	fix_post	2		12.0	25.0	2.5	/experiments/knapen_aot/videos/R_S_b8-3.mp4	0.0	191.934720993042	0.09997415542602539
28	85.44033718109131	fix_pre	0		183.0	26.0	2.5	/experiments/knapen_aot/videos/S_yt-Xkx53mjgj2E_30.mp4	0.0	192.03469514846802	1.524925947189331
28	86.95713901519775	response	0	4		26.0	2.5	/experiments/knapen_aot/videos/S_yt-Xkx53mjgj2E_30.mp4	0.0	193.55149698257446	
28	86.96526312828064	movie	1		301.0	26.0	2.5	/experiments/knapen_aot/videos/S_yt-Xkx53mjgj2E_30.mp4	0.0	193.55962109565735	2.5083088874816895
28	89.47357201576233	fix_post	2		12.0	26.0	2.5	/experiments/knapen_aot/videos/S_yt-Xkx53mjgj2E_30.mp4	0.0	196.06792998313904	0.10010099411010742
29	89.57367300987244	fix_pre	0		146.0	27.0	2.5	/experiments/knapen_aot/videos/S_yt-tqxZlasEvZA_43.mp4	0.0	196.16803097724915	1.216644048690796
29	90.78213620185852	response	0	4		27.0	2.5	/experiments/knapen_aot/videos/S_yt-tqxZlasEvZA_43.mp4	0.0	197.37649416923523	
29	90.79031705856323	movie	1		301.0	27.0	2.5	/experiments/knapen_aot/videos/S_yt-tqxZlasEvZA_43.mp4	0.0	197.38467502593994	2.5083041191101074
29	93.29862117767334	fix_post	2		12.0	27.0	2.5	/experiments/knapen_aot/videos/S_yt-tqxZlasEvZA_43.mp4	0.0	199.89297914505005	0.10001683235168457
30	93.39863801002502	fix_pre	0		66.0	28.0	2.5	blank	1.0	199.99299597740173	0.5499570369720459
30	93.93290615081787	response	0	4		28.0	2.5	blank	1.0	200.52726411819458	
30	93.94859504699707	movie	1		301.0	28.0	2.5	blank	1.0	200.54295301437378	2.5083510875701904
30	96.45694613456726	fix_post	2		12.0	28.0	2.5	blank	1.0	203.05130410194397	0.10007095336914062
31	96.5570170879364	fix_pre	0		55.0	29.0	2.5	/experiments/knapen_aot/videos/S_yt-oxUpc8I5wWQ_238.mp4	0.0	203.1513750553131	0.45828795433044434
31	97.00708222389221	response	0	4		29.0	2.5	/experiments/knapen_aot/videos/S_yt-oxUpc8I5wWQ_238.mp4	0.0	203.60144019126892	
31	97.01530504226685	movie	1		301.0	29.0	2.5	/experiments/knapen_aot/videos/S_yt-oxUpc8I5wWQ_238.mp4	0.0	203.60966300964355	2.508289098739624
31	99.52359414100647	fix_post	2		12.0	29.0	2.5	/experiments/knapen_aot/videos/S_yt-oxUpc8I5wWQ_238.mp4	0.0	206.11795210838318	0.09997296333312988
32	99.6235671043396	fix_pre	0		56.0	30.0	2.5	/experiments/knapen_aot/videos/S_wc-hmW1OnCPF_xn_37.mp4	0.0	206.2179250717163	0.46666789054870605
32	100.08205699920654	response	0	4		30.0	2.5	/experiments/knapen_aot/videos/S_wc-hmW1OnCPF_xn_37.mp4	0.0	206.67641496658325	
32	100.0902349948883	movie	1		167.0	30.0	2.5	/experiments/knapen_aot/videos/S_wc-hmW1OnCPF_xn_37.mp4	0.0	206.68459296226501	2.508327007293701
32	102.598562002182	fix_post	2		12.0	30.0	2.5	/experiments/knapen_aot/videos/S_wc-hmW1OnCPF_xn_37.mp4	0.0	209.19291996955872	0.10009217262268066
33	102.69865417480469	fix_pre	0		35.0	31.0	2.5	/experiments/knapen_aot/videos/S_ILSVRC2015_train_00601000.mp4	0.0	209.2930121421814	0.29161596298217773
33	102.98203301429749	response	0	4		31.0	2.5	/experiments/knapen_aot/videos/S_ILSVRC2015_train_00601000.mp4	0.0	209.5763909816742	
33	102.99027013778687	movie	1		301.0	31.0	2.5	/experiments/knapen_aot/videos/S_ILSVRC2015_train_00601000.mp4	0.0	209.58462810516357	2.508342981338501
33	105.12368106842041	response	1	4		31.0	2.5	/experiments/knapen_aot/videos/S_ILSVRC2015_train_00601000.mp4	0.0	211.71803903579712	
33	105.49861311912537	fix_post	2		12.0	31.0	2.5	/experiments/knapen_aot/videos/S_ILSVRC2015_train_00601000.mp4	0.0	212.09297108650208	0.09998703002929688
34	105.59860014915466	fix_pre	0		56.0	32.0	2.5	/experiments/knapen_aot/videos/S_yt-w_e3sxIzepA_27.mp4	0.0	212.19295811653137	0.4666280746459961
34	106.05697321891785	response	0	4		32.0	2.5	/experiments/knapen_aot/videos/S_yt-w_e3sxIzepA_27.mp4	0.0	212.65133118629456	
34	106.06522822380066	movie	1		301.0	32.0	2.5	/experiments/knapen_aot/videos/S_yt-w_e3sxIzepA_27.mp4	0.0	212.65958619117737	2.5083088874816895
34	106.60189509391785	response	1	4		32.0	2.5	/experiments/knapen_aot/videos/S_yt-w_e3sxIzepA_27.mp4	0.0	213.19625306129456	
34	107.41534209251404	response	1	4		32.0	2.5	/experiments/knapen_aot/videos/S_yt-w_e3sxIzepA_27.mp4	0.0	214.00970005989075	
34	108.57353711128235	fix_post	2		12.0	32.0	2.5	/experiments/knapen_aot/videos/S_yt-w_e3sxIzepA_27.mp4	0.0	215.16789507865906	0.09998488426208496
35	108.67352199554443	fix_pre	0		189.0	33.0	2.5	/experiments/knapen_aot/videos/S_pexels-c-technical-6344801.mp4	0.0	215.26787996292114	1.5750010013580322
35	110.24040508270264	response	0	4		33.0	2.5	/experiments/knapen_aot/videos/S_pexels-c-technical-6344801.mp4	0.0	216.83476305007935	
35	110.24852299690247	movie	1		197.0	33.0	2.5	/experiments/knapen_aot/videos/S_pexels-c-technical-6344801.mp4	0.0	216.84288096427917	2.5083091259002686
35	112.75683212280273	fix_post	2		12.0	33.0	2.5	/experiments/knapen_aot/videos/S_pexels-c-technical-6344801.mp4	0.0	219.35119009017944	0.10010409355163574
36	112.85693621635437	fix_pre	0		85.0	34.0	2.5	/experiments/knapen_aot/videos/R_S_production_ID_4325509.mp4	0.0	219.45129418373108	0.7083067893981934
36	113.54947519302368	response	0	4		34.0	2.5	/experiments/knapen_aot/videos/R_S_production_ID_4325509.mp4	0.0	220.1438331604004	
36	113.56524300575256	movie	1		208.0	34.0	2.5	/experiments/knapen_aot/videos/R_S_production_ID_4325509.mp4	0.0	220.15960097312927	2.5083131790161133
36	113.96536922454834	response	1	4		34.0	2.5	/experiments/knapen_aot/videos/R_S_production_ID_4325509.mp4	0.0	220.55972719192505	
36	116.07355618476868	fix_post	2		12.0	34.0	2.5	/experiments/knapen_aot/videos/R_S_production_ID_4325509.mp4	0.0	222.66791415214539	0.09987688064575195
37	116.17343306541443	fix_pre	0		156.0	35.0	2.5	blank	1.0	222.76779103279114	1.3000760078430176
37	117.46531915664673	response	0	4		35.0	2.5	blank	1.0	224.05967712402344	
37	117.47350907325745	movie	1		301.0	35.0	2.5	blank	1.0	224.06786704063416	2.5083179473876953
37	119.98182702064514	fix_post	2		12.0	35.0	2.5	blank	1.0	226.57618498802185	0.09999799728393555
38	120.08182501792908	fix_pre	0		45.0	36.0	2.5	/experiments/knapen_aot/videos/R_S_yt-1n1jTroiwJs_163.mp4	0.0	226.6761829853058	0.37502408027648926
38	120.44862914085388	response	0	4		36.0	2.5	/experiments/knapen_aot/videos/R_S_yt-1n1jTroiwJs_163.mp4	0.0	227.0429871082306	
38	120.45684909820557	movie	1		301.0	36.0	2.5	/experiments/knapen_aot/videos/R_S_yt-1n1jTroiwJs_163.mp4	0.0	227.05120706558228	2.508328914642334
38	122.9651780128479	fix_post	2		12.0	36.0	2.5	/experiments/knapen_aot/videos/R_S_yt-1n1jTroiwJs_163.mp4	0.0	229.5595359802246	0.10001301765441895
39	123.06519103050232	fix_pre	0		158.0	37.0	2.5	/experiments/knapen_aot/videos/S_yt-YCjbGOPBQHw_131.mp4	0.0	229.65954899787903	1.3165581226348877
39	124.36611008644104	response	0	4		37.0	2.5	/experiments/knapen_aot/videos/S_yt-YCjbGOPBQHw_131.mp4	0.0	230.96046805381775	
39	124.3817491531372	movie	1		301.0	37.0	2.5	/experiments/knapen_aot/videos/S_yt-YCjbGOPBQHw_131.mp4	0.0	230.97610712051392	2.5083470344543457
39	126.89009618759155	fix_post	2		12.0	37.0	2.5	/experiments/knapen_aot/videos/S_yt-YCjbGOPBQHw_131.mp4	0.0	233.48445415496826	0.10007095336914062
40	126.9901671409607	fix_pre	0		47.0	38.0	2.5	/experiments/knapen_aot/videos/S_yt-Jo6PxivsTOg_247.mp4	0.0	233.5845251083374	0.39160585403442383
40	127.37363505363464	response	0	4		38.0	2.5	/experiments/knapen_aot/videos/S_yt-Jo6PxivsTOg_247.mp4	0.0	233.96799302101135	
40	127.38177299499512	movie	1		299.0	38.0	2.5	/experiments/knapen_aot/videos/S_yt-Jo6PxivsTOg_247.mp4	0.0	233.97613096237183	2.508395195007324
40	129.89016819000244	fix_post	2		12.0	38.0	2.5	/experiments/knapen_aot/videos/S_yt-Jo6PxivsTOg_247.mp4	0.0	236.48452615737915	0.0999758243560791
41	129.99014401435852	fix_pre	0		429.0	39.0	2.5	/experiments/knapen_aot/videos/R_S_yt-zam74qlzGtQ_122.mp4	0.0	236.58450198173523	3.574939012527466
41	133.5494031906128	response	0	4		39.0	2.5	/experiments/knapen_aot/videos/R_S_yt-zam74qlzGtQ_122.mp4	0.0	240.1437611579895	
41	133.565083026886	movie	1		301.0	39.0	2.5	/experiments/knapen_aot/videos/R_S_yt-zam74qlzGtQ_122.mp4	0.0	240.1594409942627	2.5083701610565186
41	134.80694913864136	response	1	4		39.0	2.5	/experiments/knapen_aot/videos/R_S_yt-zam74qlzGtQ_122.mp4	0.0	241.40130710601807	
41	135.65835118293762	response	1	4		39.0	2.5	/experiments/knapen_aot/videos/R_S_yt-zam74qlzGtQ_122.mp4	0.0	242.25270915031433	
41	136.0734531879425	fix_post	2		12.0	39.0	2.5	/experiments/knapen_aot/videos/R_S_yt-zam74qlzGtQ_122.mp4	0.0	242.6678111553192	0.10000896453857422
42	136.17346215248108	fix_pre	0		9.0	40.0	2.5	/experiments/knapen_aot/videos/S_yt-s73Xqkcq9Js_285.mp4	0.0	242.7678201198578	0.07504701614379883
42	136.24048900604248	response	0	4		40.0	2.5	/experiments/knapen_aot/videos/S_yt-s73Xqkcq9Js_285.mp4	0.0	242.8348469734192	
42	136.24850916862488	movie	1		301.0	40.0	2.5	/experiments/knapen_aot/videos/S_yt-s73Xqkcq9Js_285.mp4	0.0	242.8428671360016	2.5084128379821777
42	138.75692200660706	fix_post	2		12.0	40.0	2.5	/experiments/knapen_aot/videos/S_yt-s73Xqkcq9Js_285.mp4	0.0	245.35127997398376	0.09984111785888672
43	138.85676312446594	fix_pre	0		51.0	41.0	2.5	blank	1.0	245.45112109184265	0.4249989986419678
43	139.2735731601715	response	0	4		41.0	2.5	blank	1.0	245.86793112754822	
43	139.2817621231079	movie	1		301.0	41.0	2.5	blank	1.0	245.87612009048462	2.5083320140838623
43	141.79009413719177	fix_post	2		12.0	41.0	2.5	blank	1.0	248.38445210456848	0.10004806518554688
44	141.89014220237732	fix_pre	0		59.0	42.0	2.5	/experiments/knapen_aot/videos/R_S_yt-5fnd__rpWeE_396.mp4	0.0	248.48450016975403	0.4915628433227539
44	142.37352299690247	response	0	4		42.0	2.5	/experiments/knapen_aot/videos/R_S_yt-5fnd__rpWeE_396.mp4	0.0	248.96788096427917	
44	142.38170504570007	movie	1		301.0	42.0	2.5	/experiments/knapen_aot/videos/R_S_yt-5fnd__rpWeE_396.mp4	0.0	248.97606301307678	2.508378028869629
44	144.82364106178284	response	1	4		42.0	2.5	/experiments/knapen_aot/videos/R_S_yt-5fnd__rpWeE_396.mp4	0.0	251.41799902915955	
44	144.8900830745697	fix_post	2		12.0	42.0	2.5	/experiments/knapen_aot/videos/R_S_yt-5fnd__rpWeE_396.mp4	0.0	251.4844410419464	0.099945068359375
45	144.99002814292908	fix_pre	0		45.0	43.0	2.5	/experiments/knapen_aot/videos/R_S_yt-BG-G7m5wLZ4_94.mp4	0.0	251.5843861103058	0.37618303298950195
45	145.3567931652069	response	0	4		43.0	2.5	/experiments/knapen_aot/videos/R_S_yt-BG-G7m5wLZ4_94.mp4	0.0	251.95115113258362	
45	145.36621117591858	movie	1		301.0	43.0	2.5	/experiments/knapen_aot/videos/R_S_yt-BG-G7m5wLZ4_94.mp4	0.0	251.9605691432953	2.5072410106658936
45	145.8902931213379	response	1	4		43.0	2.5	/experiments/knapen_aot/videos/R_S_yt-BG-G7m5wLZ4_94.mp4	0.0	252.4846510887146	
45	147.19276022911072	response	1	4		43.0	2.5	/experiments/knapen_aot/videos/R_S_yt-BG-G7m5wLZ4_94.mp4	0.0	253.78711819648743	
45	147.73189902305603	response	1	4		43.0	2.5	/experiments/knapen_aot/videos/R_S_yt-BG-G7m5wLZ4_94.mp4	0.0	254.32625699043274	
45	147.87345218658447	fix_post	2		12.0	43.0	2.5	/experiments/knapen_aot/videos/R_S_yt-BG-G7m5wLZ4_94.mp4	0.0	254.46781015396118	0.09996294975280762
46	147.97341513633728	fix_pre	0		36.0	44.0	2.5	/experiments/knapen_aot/videos/S_yt-N7ztk2fa3Ls_137.mp4	0.0	254.567773103714	0.3000168800354004
46	148.26520800590515	response	0	4		44.0	2.5	/experiments/knapen_aot/videos/S_yt-N7ztk2fa3Ls_137.mp4	0.0	254.85956597328186	
46	148.27343201637268	movie	1		301.0	44.0	2.5	/experiments/knapen_aot/videos/S_yt-N7ztk2fa3Ls_137.mp4	0.0	254.8677899837494	2.508329153060913
46	148.73439502716064	response	1	4		44.0	2.5	/experiments/knapen_aot/videos/S_yt-N7ztk2fa3Ls_137.mp4	0.0	255.32875299453735	
46	149.17350912094116	response	1	4		44.0	2.5	/experiments/knapen_aot/videos/S_yt-N7ztk2fa3Ls_137.mp4	0.0	255.76786708831787	
46	150.7817611694336	fix_post	2		12.0	44.0	2.5	/experiments/knapen_aot/videos/S_yt-N7ztk2fa3Ls_137.mp4	0.0	257.3761191368103	0.1000669002532959
47	150.8818280696869	fix_pre	0		45.0	45.0	2.5	/experiments/knapen_aot/videos/R_S_yt-KQq7vTlXUiQ_173.mp4	0.0	257.4761860370636	0.3748641014099121
47	151.24853801727295	response	0	4		45.0	2.5	/experiments/knapen_aot/videos/R_S_yt-KQq7vTlXUiQ_173.mp4	0.0	257.84289598464966	
47	151.2566921710968	movie	1		301.0	45.0	2.5	/experiments/knapen_aot/videos/R_S_yt-KQq7vTlXUiQ_173.mp4	0.0	257.8510501384735	2.508349895477295
47	153.7650420665741	fix_post	2		12.0	45.0	2.5	/experiments/knapen_aot/videos/R_S_yt-KQq7vTlXUiQ_173.mp4	0.0	260.3594000339508	0.09998106956481934
48	153.86502313613892	fix_pre	0		161.0	46.0	2.5	/experiments/knapen_aot/videos/S_b8-3.mp4	0.0	260.4593811035156	1.3416779041290283
48	155.19852304458618	response	0	4		46.0	2.5	/experiments/knapen_aot/videos/S_b8-3.mp4	0.0	261.7928810119629	
48	155.20670104026794	movie	1		168.0	46.0	2.5	/experiments/knapen_aot/videos/S_b8-3.mp4	0.0	261.80105900764465	2.508358955383301
48	157.71505999565125	fix_post	2		12.0	46.0	2.5	/experiments/knapen_aot/videos/S_b8-3.mp4	0.0	264.30941796302795	0.09995603561401367
49	157.81501603126526	fix_pre	0		53.0	47.0	2.5	blank	1.0	264.40937399864197	0.44167518615722656
49	158.24861812591553	response	0	4		47.0	2.5	blank	1.0	264.84297609329224	
49	158.25669121742249	movie	1		301.0	47.0	2.5	blank	1.0	264.8510491847992	2.508267879486084
49	160.76495909690857	fix_post	2		12.0	47.0	2.5	blank	1.0	267.3593170642853	0.10004091262817383
50	160.86500000953674	fix_pre	0		6.0	48.0	2.5	/experiments/knapen_aot/videos/R_S_yt-6xXEMHBQ08A_28.mp4	0.0	267.45935797691345	0.050086021423339844
50	160.90010023117065	response	0	4		48.0	2.5	/experiments/knapen_aot/videos/R_S_yt-6xXEMHBQ08A_28.mp4	0.0	267.49445819854736	
50	160.91508603096008	movie	1		301.0	48.0	2.5	/experiments/knapen_aot/videos/R_S_yt-6xXEMHBQ08A_28.mp4	0.0	267.5094439983368	2.5083181858062744
50	162.71856117248535	response	1	4		48.0	2.5	/experiments/knapen_aot/videos/R_S_yt-6xXEMHBQ08A_28.mp4	0.0	269.31291913986206	
50	163.42340421676636	fix_post	2		12.0	48.0	2.5	/experiments/knapen_aot/videos/R_S_yt-6xXEMHBQ08A_28.mp4	0.0	270.01776218414307	0.09998488426208496
51	163.52338910102844	fix_pre	0		47.0	49.0	2.5	/experiments/knapen_aot/videos/S_comp_GMT060_117NC_363D_1034_AUSTRALIA_v35_SDR_PS_FINAL_20180731_SDR_2K_AVC.mp4	0.0	270.11774706840515	0.39162492752075195
51	163.89928817749023	response	0	4		49.0	2.5	/experiments/knapen_aot/videos/S_comp_GMT060_117NC_363D_1034_AUSTRALIA_v35_SDR_PS_FINAL_20180731_SDR_2K_AVC.mp4	0.0	270.49364614486694	
51	163.9150140285492	movie	1		165.0	49.0	2.5	/experiments/knapen_aot/videos/S_comp_GMT060_117NC_363D_1034_AUSTRALIA_v35_SDR_PS_FINAL_20180731_SDR_2K_AVC.mp4	0.0	270.5093719959259	2.5083611011505127
51	165.48195600509644	response	1	4		49.0	2.5	/experiments/knapen_aot/videos/S_comp_GMT060_117NC_363D_1034_AUSTRALIA_v35_SDR_PS_FINAL_20180731_SDR_2K_AVC.mp4	0.0	272.07631397247314	
51	166.4233751296997	fix_post	2		12.0	49.0	2.5	/experiments/knapen_aot/videos/S_comp_GMT060_117NC_363D_1034_AUSTRALIA_v35_SDR_PS_FINAL_20180731_SDR_2K_AVC.mp4	0.0	273.0177330970764	0.09999489784240723
52	166.52337002754211	fix_pre	0		194.0	50.0	2.5	/experiments/knapen_aot/videos/R_S_yt-zKnjBBYWe90_369.mp4	0.0	273.1177279949188	1.6166629791259766
52	168.1318600177765	response	0	4		50.0	2.5	/experiments/knapen_aot/videos/R_S_yt-zKnjBBYWe90_369.mp4	0.0	274.7262179851532	
52	168.1400330066681	movie	1		301.0	50.0	2.5	/experiments/knapen_aot/videos/R_S_yt-zKnjBBYWe90_369.mp4	0.0	274.7343909740448	2.508334159851074
52	170.64836716651917	fix_post	2		12.0	50.0	2.5	/experiments/knapen_aot/videos/R_S_yt-zKnjBBYWe90_369.mp4	0.0	277.2427251338959	0.09999203681945801
53	170.74835920333862	fix_pre	0		36.0	51.0	2.5	/experiments/knapen_aot/videos/S_yt-9CY7rDYBYUI_40.mp4	0.0	277.34271717071533	0.2999567985534668
53	171.04015016555786	response	0	4		51.0	2.5	/experiments/knapen_aot/videos/S_yt-9CY7rDYBYUI_40.mp4	0.0	277.63450813293457	
53	171.0483160018921	movie	1		301.0	51.0	2.5	/experiments/knapen_aot/videos/S_yt-9CY7rDYBYUI_40.mp4	0.0	277.6426739692688	2.508308172225952
53	173.55662417411804	fix_post	2		12.0	51.0	2.5	/experiments/knapen_aot/videos/S_yt-9CY7rDYBYUI_40.mp4	0.0	280.15098214149475	0.09997797012329102
54	173.65660214424133	fix_pre	0		33.0	52.0	2.5	/experiments/knapen_aot/videos/S_yt-l_ioasf6yHg_44.mp4	0.0	280.25096011161804	0.27497100830078125
54	173.9234700202942	response	0	4		52.0	2.5	/experiments/knapen_aot/videos/S_yt-l_ioasf6yHg_44.mp4	0.0	280.5178279876709	
54	173.93157315254211	movie	1		301.0	52.0	2.5	/experiments/knapen_aot/videos/S_yt-l_ioasf6yHg_44.mp4	0.0	280.5259311199188	2.5083189010620117
54	175.4734170436859	response	1	4		52.0	2.5	/experiments/knapen_aot/videos/S_yt-l_ioasf6yHg_44.mp4	0.0	282.0677750110626	
54	176.43989205360413	fix_post	2		12.0	52.0	2.5	/experiments/knapen_aot/videos/S_yt-l_ioasf6yHg_44.mp4	0.0	283.03425002098083	0.10001897811889648
55	176.53991103172302	fix_pre	0		64.0	53.0	2.5	/experiments/knapen_aot/videos/R_S_ahJft-G235A_122.mp4	0.0	283.13426899909973	0.5343191623687744
55	177.06506609916687	response	0	4		53.0	2.5	/experiments/knapen_aot/videos/R_S_ahJft-G235A_122.mp4	0.0	283.6594240665436	
55	177.0742301940918	movie	1		301.0	53.0	2.5	/experiments/knapen_aot/videos/R_S_ahJft-G235A_122.mp4	0.0	283.6685881614685	2.5073599815368652
55	178.12665915489197	response	1	4		53.0	2.5	/experiments/knapen_aot/videos/R_S_ahJft-G235A_122.mp4	0.0	284.7210171222687	
55	179.3900182247162	response	1	4		53.0	2.5	/experiments/knapen_aot/videos/R_S_ahJft-G235A_122.mp4	0.0	285.9843761920929	
55	179.58159017562866	fix_post	2		12.0	53.0	2.5	/experiments/knapen_aot/videos/R_S_ahJft-G235A_122.mp4	0.0	286.17594814300537	0.1000359058380127
56	179.68162608146667	fix_pre	0		47.0	54.0	2.5	blank	1.0	286.2759840488434	0.3916020393371582
56	180.05762720108032	response	0	4		54.0	2.5	blank	1.0	286.65198516845703	
56	180.07322812080383	movie	1		301.0	54.0	2.5	blank	1.0	286.66758608818054	2.508298873901367
56	182.5815269947052	fix_post	2		12.0	54.0	2.5	blank	1.0	289.1758849620819	0.10004615783691406
56	182.6575210094452	response	2	4		54.0	2.5	blank	1.0	289.2518789768219	
57	182.68157315254211	fix_pre	0		50.0	55.0	2.5	/experiments/knapen_aot/videos/S_yt--OkafQ5VFHs_51.mp4	0.0	289.2759311199188	0.416640043258667
57	183.09020018577576	response	0	4		55.0	2.5	/experiments/knapen_aot/videos/S_yt--OkafQ5VFHs_51.mp4	0.0	289.68455815315247	
57	183.09821319580078	movie	1		301.0	55.0	2.5	/experiments/knapen_aot/videos/S_yt--OkafQ5VFHs_51.mp4	0.0	289.6925711631775	2.5083608627319336
57	185.60657405853271	fix_post	2		12.0	55.0	2.5	/experiments/knapen_aot/videos/S_yt--OkafQ5VFHs_51.mp4	0.0	292.2009320259094	0.10002493858337402
58	185.7065989971161	fix_pre	0		49.0	56.0	2.5	/experiments/knapen_aot/videos/R_S_yt-he_RSdeVinA_68.mp4	0.0	292.3009569644928	0.409290075302124
58	186.10678100585938	response	0	4		56.0	2.5	/experiments/knapen_aot/videos/R_S_yt-he_RSdeVinA_68.mp4	0.0	292.7011389732361	
58	186.1158890724182	movie	1		301.0	56.0	2.5	/experiments/knapen_aot/videos/R_S_yt-he_RSdeVinA_68.mp4	0.0	292.7102470397949	2.507323980331421
58	186.63166213035583	response	1	4		56.0	2.5	/experiments/knapen_aot/videos/R_S_yt-he_RSdeVinA_68.mp4	0.0	293.22602009773254	
58	188.62321305274963	fix_post	2		12.0	56.0	2.5	/experiments/knapen_aot/videos/R_S_yt-he_RSdeVinA_68.mp4	0.0	295.21757102012634	0.10002517700195312
59	188.7232382297516	fix_pre	0		58.0	57.0	2.5	/experiments/knapen_aot/videos/S_wc-b4Oquu3WQPRz_45.mp4	0.0	295.3175961971283	0.48328590393066406
59	189.19838213920593	response	0	4		57.0	2.5	/experiments/knapen_aot/videos/S_wc-b4Oquu3WQPRz_45.mp4	0.0	295.79274010658264	
59	189.20652413368225	movie	1		168.0	57.0	2.5	/experiments/knapen_aot/videos/S_wc-b4Oquu3WQPRz_45.mp4	0.0	295.80088210105896	2.5083470344543457
59	191.7148711681366	fix_post	2		12.0	57.0	2.5	/experiments/knapen_aot/videos/S_wc-b4Oquu3WQPRz_45.mp4	0.0	298.3092291355133	0.09990191459655762
60	191.81477308273315	fix_pre	0		27.0	58.0	2.5	/experiments/knapen_aot/videos/S_ILSVRC2015_train_00524001.mp4	0.0	298.40913105010986	0.2250831127166748
60	192.0317361354828	response	0	4		58.0	2.5	/experiments/knapen_aot/videos/S_ILSVRC2015_train_00524001.mp4	0.0	298.6260941028595	
60	192.03985619544983	movie	1		301.0	58.0	2.5	/experiments/knapen_aot/videos/S_ILSVRC2015_train_00524001.mp4	0.0	298.63421416282654	2.5083680152893066
60	194.54822421073914	fix_post	2		12.0	58.0	2.5	/experiments/knapen_aot/videos/S_ILSVRC2015_train_00524001.mp4	0.0	301.14258217811584	0.10000896453857422
61	194.6482331752777	fix_pre	0		295.0	59.0	2.5	/experiments/knapen_aot/videos/R_S_S003_C020_SDR_2K_AVC.mp4	0.0	301.2425911426544	2.4583139419555664
61	197.09835004806519	response	0	4		59.0	2.5	/experiments/knapen_aot/videos/R_S_S003_C020_SDR_2K_AVC.mp4	0.0	303.6927080154419	
61	197.10654711723328	movie	1		176.0	59.0	2.5	/experiments/knapen_aot/videos/R_S_S003_C020_SDR_2K_AVC.mp4	0.0	303.70090508461	2.5083789825439453
61	197.87337803840637	response	1	4		59.0	2.5	/experiments/knapen_aot/videos/R_S_S003_C020_SDR_2K_AVC.mp4	0.0	304.4677360057831	
61	199.61492609977722	fix_post	2		12.0	59.0	2.5	/experiments/knapen_aot/videos/R_S_S003_C020_SDR_2K_AVC.mp4	0.0	306.20928406715393	0.09996199607849121
62	199.7148880958557	fix_pre	0		31.0	60.0	2.5	/experiments/knapen_aot/videos/S_yt-0Zze3Ff12Ys_58.mp4	0.0	306.3092460632324	0.2583119869232178
62	199.96497917175293	response	0	4		60.0	2.5	/experiments/knapen_aot/videos/S_yt-0Zze3Ff12Ys_58.mp4	0.0	306.55933713912964	
62	199.97320008277893	movie	1		301.0	60.0	2.5	/experiments/knapen_aot/videos/S_yt-0Zze3Ff12Ys_58.mp4	0.0	306.56755805015564	2.5083320140838623
62	202.4815320968628	fix_post	2		12.0	60.0	2.5	/experiments/knapen_aot/videos/S_yt-0Zze3Ff12Ys_58.mp4	0.0	309.0758900642395	0.09998106956481934
63	202.5815131664276	fix_pre	0		49.0	61.0	2.5	/experiments/knapen_aot/videos/R_S_yt-QJ2k6vA8aco_12.mp4	0.0	309.1758711338043	0.4091489315032959
63	202.98165011405945	response	0	4		61.0	2.5	/experiments/knapen_aot/videos/R_S_yt-QJ2k6vA8aco_12.mp4	0.0	309.57600808143616	
63	202.9906620979309	movie	1		301.0	61.0	2.5	/experiments/knapen_aot/videos/R_S_yt-QJ2k6vA8aco_12.mp4	0.0	309.5850200653076	2.50757098197937
63	205.49823307991028	fix_post	2		12.0	61.0	2.5	/experiments/knapen_aot/videos/R_S_yt-QJ2k6vA8aco_12.mp4	0.0	312.092591047287	0.09995698928833008
64	205.5981900691986	fix_pre	0		33.0	62.0	2.5	blank	1.0	312.1925480365753	0.27500295639038086
64	205.86501622200012	response	0	4		62.0	2.5	blank	1.0	312.45937418937683	
64	205.873193025589	movie	1		301.0	62.0	2.5	blank	1.0	312.4675509929657	2.508324146270752
64	207.38998413085938	response	1	4		62.0	2.5	blank	1.0	313.9843420982361	
64	208.0232481956482	response	1	4		62.0	2.5	blank	1.0	314.6176061630249	
64	208.38151717185974	fix_post	2		12.0	62.0	2.5	blank	1.0	314.97587513923645	0.09999203681945801
65	208.4815092086792	fix_pre	0		46.0	63.0	2.5	/experiments/knapen_aot/videos/R_S_yt-9CY7rDYBYUI_40.mp4	0.0	315.0758671760559	0.3841848373413086
65	208.85664701461792	response	0	4		63.0	2.5	/experiments/knapen_aot/videos/R_S_yt-9CY7rDYBYUI_40.mp4	0.0	315.45100498199463	
65	208.8656940460205	movie	1		301.0	63.0	2.5	/experiments/knapen_aot/videos/R_S_yt-9CY7rDYBYUI_40.mp4	0.0	315.4600520133972	2.507411003112793
65	211.3731050491333	fix_post	2		12.0	63.0	2.5	/experiments/knapen_aot/videos/R_S_yt-9CY7rDYBYUI_40.mp4	0.0	317.96746301651	0.09997105598449707
66	211.4730761051178	fix_pre	0		257.0	64.0	2.5	/experiments/knapen_aot/videos/R_S_yt-qurTr1BJMec_244.mp4	0.0	318.0674340724945	2.1425909996032715
66	213.5990080833435	response	0	4		64.0	2.5	/experiments/knapen_aot/videos/R_S_yt-qurTr1BJMec_244.mp4	0.0	320.1933660507202	
66	213.61566710472107	movie	1		300.0	64.0	2.5	/experiments/knapen_aot/videos/R_S_yt-qurTr1BJMec_244.mp4	0.0	320.2100250720978	2.507530927658081
66	214.01490020751953	response	1	4		64.0	2.5	/experiments/knapen_aot/videos/R_S_yt-qurTr1BJMec_244.mp4	0.0	320.60925817489624	
66	216.12319803237915	fix_post	2		12.0	64.0	2.5	/experiments/knapen_aot/videos/R_S_yt-qurTr1BJMec_244.mp4	0.0	322.71755599975586	0.0998680591583252
67	216.22306609153748	fix_pre	0		33.0	65.0	2.5	/experiments/knapen_aot/videos/S_yt-4r-oovk9JWg_85.mp4	0.0	322.8174240589142	0.2750239372253418
67	216.4823830127716	response	0	4		65.0	2.5	/experiments/knapen_aot/videos/S_yt-4r-oovk9JWg_85.mp4	0.0	323.0767409801483	
67	216.49809002876282	movie	1		301.0	65.0	2.5	/experiments/knapen_aot/videos/S_yt-4r-oovk9JWg_85.mp4	0.0	323.0924479961395	2.5083811283111572
67	219.00647115707397	fix_post	2		12.0	65.0	2.5	/experiments/knapen_aot/videos/S_yt-4r-oovk9JWg_85.mp4	0.0	325.6008291244507	0.09999895095825195
68	219.10647010803223	fix_pre	0		839.0	66.0	2.5	/experiments/knapen_aot/videos/R_S_r4Npnob1vds_12.mp4	0.0	325.70082807540894	6.991570949554443
68	226.0899200439453	response	0	4		66.0	2.5	/experiments/knapen_aot/videos/R_S_r4Npnob1vds_12.mp4	0.0	332.684278011322	
68	226.09804105758667	movie	1		301.0	66.0	2.5	/experiments/knapen_aot/videos/R_S_r4Npnob1vds_12.mp4	0.0	332.6923990249634	2.5083391666412354
68	228.6063802242279	fix_post	2		12.0	66.0	2.5	/experiments/knapen_aot/videos/R_S_r4Npnob1vds_12.mp4	0.0	335.2007381916046	0.10003495216369629
69	228.7064151763916	fix_pre	0		295.0	67.0	2.5	/experiments/knapen_aot/videos/S_yt-3R23XwTXpKs_238.mp4	0.0	335.3007731437683	2.458256959915161
69	231.15658020973206	response	0	4		67.0	2.5	/experiments/knapen_aot/videos/S_yt-3R23XwTXpKs_238.mp4	0.0	337.75093817710876	
69	231.16467213630676	movie	1		301.0	67.0	2.5	/experiments/knapen_aot/videos/S_yt-3R23XwTXpKs_238.mp4	0.0	337.7590301036835	2.5083560943603516
69	233.67302823066711	fix_post	2		12.0	67.0	2.5	/experiments/knapen_aot/videos/S_yt-3R23XwTXpKs_238.mp4	0.0	340.2673861980438	0.09998679161071777
70	233.77301502227783	fix_pre	0		290.0	68.0	2.5	/experiments/knapen_aot/videos/S_yt-rY_ra5Tb9XU_51.mp4	0.0	340.36737298965454	2.416604995727539
70	236.17394614219666	response	0	4		68.0	2.5	/experiments/knapen_aot/videos/S_yt-rY_ra5Tb9XU_51.mp4	0.0	342.76830410957336	
70	236.18962001800537	movie	1		301.0	68.0	2.5	/experiments/knapen_aot/videos/S_yt-rY_ra5Tb9XU_51.mp4	0.0	342.7839779853821	2.5083820819854736
70	238.69800209999084	fix_post	2		12.0	68.0	2.5	/experiments/knapen_aot/videos/S_yt-rY_ra5Tb9XU_51.mp4	0.0	345.29236006736755	0.10005998611450195
71	238.79806208610535	fix_pre	0		672.0	69.0	2.5	blank	1.0	345.39242005348206	5.599897146224976
71	244.38981008529663	response	0	4		69.0	2.5	blank	1.0	350.98416805267334	
71	244.39795923233032	movie	1		301.0	69.0	2.5	blank	1.0	350.99231719970703	2.508272886276245
71	246.90623211860657	fix_post	2		12.0	69.0	2.5	blank	1.0	353.5005900859833	0.10010504722595215
72	247.00633716583252	fix_pre	0		22.0	70.0	2.5	/experiments/knapen_aot/videos/R_S_yt-Ub5Xx5BqIOk_74.mp4	0.0	353.60069513320923	0.1832740306854248
72	247.18136310577393	response	0	4		70.0	2.5	/experiments/knapen_aot/videos/R_S_yt-Ub5Xx5BqIOk_74.mp4	0.0	353.77572107315063	
72	247.18961119651794	movie	1		301.0	70.0	2.5	/experiments/knapen_aot/videos/R_S_yt-Ub5Xx5BqIOk_74.mp4	0.0	353.78396916389465	2.5083730220794678
72	249.6979842185974	fix_post	2		12.0	70.0	2.5	/experiments/knapen_aot/videos/R_S_yt-Ub5Xx5BqIOk_74.mp4	0.0	356.2923421859741	0.09994077682495117
73	249.79792499542236	fix_pre	0		45.0	71.0	2.5	/experiments/knapen_aot/videos/R_S_yt-fk-z6WCvjjA_3.mp4	0.0	356.3922829627991	0.37509608268737793
73	250.16471815109253	response	0	4		71.0	2.5	/experiments/knapen_aot/videos/R_S_yt-fk-z6WCvjjA_3.mp4	0.0	356.75907611846924	
73	250.17302107810974	movie	1		301.0	71.0	2.5	/experiments/knapen_aot/videos/R_S_yt-fk-z6WCvjjA_3.mp4	0.0	356.76737904548645	2.5082690715789795
73	252.68129014968872	fix_post	2		12.0	71.0	2.5	/experiments/knapen_aot/videos/R_S_yt-fk-z6WCvjjA_3.mp4	0.0	359.27564811706543	0.09994101524353027
74	252.78123116493225	fix_pre	0		33.0	72.0	2.5	/experiments/knapen_aot/videos/S_yt-1Xbcf0BPT-g_57.mp4	0.0	359.37558913230896	0.27497291564941406
74	253.0480751991272	response	0	4		72.0	2.5	/experiments/knapen_aot/videos/S_yt-1Xbcf0BPT-g_57.mp4	0.0	359.6424331665039	
74	253.05620408058167	movie	1		301.0	72.0	2.5	/experiments/knapen_aot/videos/S_yt-1Xbcf0BPT-g_57.mp4	0.0	359.6505620479584	2.508328914642334
74	255.564532995224	fix_post	2		12.0	72.0	2.5	/experiments/knapen_aot/videos/S_yt-1Xbcf0BPT-g_57.mp4	0.0	362.1588909626007	0.10005903244018555
75	255.66459202766418	fix_pre	0		38.0	73.0	2.5	/experiments/knapen_aot/videos/R_S_ILSVRC2015_train_00743006.mp4	0.0	362.2589499950409	0.31664514541625977
75	255.97308802604675	response	0	4		73.0	2.5	/experiments/knapen_aot/videos/R_S_ILSVRC2015_train_00743006.mp4	0.0	362.56744599342346	
75	255.98123717308044	movie	1		301.0	73.0	2.5	/experiments/knapen_aot/videos/R_S_ILSVRC2015_train_00743006.mp4	0.0	362.57559514045715	2.5083529949188232
75	258.48959016799927	fix_post	2		12.0	73.0	2.5	/experiments/knapen_aot/videos/R_S_ILSVRC2015_train_00743006.mp4	0.0	365.083948135376	0.1000208854675293
76	258.5896110534668	fix_pre	0		73.0	74.0	2.5	/experiments/knapen_aot/videos/S_yt-a9bnYU0Gnxg_59.mp4	0.0	365.1839690208435	0.6088261604309082
76	259.18221712112427	response	0	4		74.0	2.5	/experiments/knapen_aot/videos/S_yt-a9bnYU0Gnxg_59.mp4	0.0	365.776575088501	
76	259.1984372138977	movie	1		301.0	74.0	2.5	/experiments/knapen_aot/videos/S_yt-a9bnYU0Gnxg_59.mp4	0.0	365.7927951812744	2.507819890975952
76	261.70625710487366	fix_post	2		12.0	74.0	2.5	/experiments/knapen_aot/videos/S_yt-a9bnYU0Gnxg_59.mp4	0.0	368.30061507225037	0.09998393058776855
77	261.8062410354614	fix_pre	0		17.0	75.0	2.5	/experiments/knapen_aot/videos/S_yt-KM_SJx8CMGc_10.mp4	0.0	368.40059900283813	0.14220404624938965
77	261.9396162033081	response	0	4		75.0	2.5	/experiments/knapen_aot/videos/S_yt-KM_SJx8CMGc_10.mp4	0.0	368.5339741706848	
77	261.9484450817108	movie	1		301.0	75.0	2.5	/experiments/knapen_aot/videos/S_yt-KM_SJx8CMGc_10.mp4	0.0	368.5428030490875	2.507794141769409
77	264.4562392234802	fix_post	2		12.0	75.0	2.5	/experiments/knapen_aot/videos/S_yt-KM_SJx8CMGc_10.mp4	0.0	371.05059719085693	0.09998178482055664
78	264.5562210083008	fix_pre	0		21.0	76.0	2.5	blank	1.0	371.1505789756775	0.17505502700805664
78	264.7230100631714	response	0	4		76.0	2.5	blank	1.0	371.3173680305481	
78	264.73127603530884	movie	1		301.0	76.0	2.5	blank	1.0	371.32563400268555	2.5083370208740234
78	267.23961305618286	fix_post	2		12.0	76.0	2.5	blank	1.0	373.83397102355957	0.10001015663146973
79	267.33962321281433	fix_pre	0		68.0	77.0	2.5	/experiments/knapen_aot/videos/S_r4Npnob1vds_12.mp4	0.0	373.93398118019104	0.5671148300170898
79	267.89808320999146	response	0	4		77.0	2.5	/experiments/knapen_aot/videos/S_r4Npnob1vds_12.mp4	0.0	374.49244117736816	
79	267.9067380428314	movie	1		301.0	77.0	2.5	/experiments/knapen_aot/videos/S_r4Npnob1vds_12.mp4	0.0	374.50109601020813	2.507884979248047
79	270.41462302207947	fix_post	2		12.0	77.0	2.5	/experiments/knapen_aot/videos/S_r4Npnob1vds_12.mp4	0.0	377.0089809894562	0.10000109672546387
80	270.51462411880493	fix_pre	0		15.0	78.0	2.5	/experiments/knapen_aot/videos/S_yt-fQGoTMausn8_88.mp4	0.0	377.10898208618164	0.12491989135742188
80	270.631343126297	response	0	4		78.0	2.5	/experiments/knapen_aot/videos/S_yt-fQGoTMausn8_88.mp4	0.0	377.2257010936737	
80	270.63954401016235	movie	1		301.0	78.0	2.5	/experiments/knapen_aot/videos/S_yt-fQGoTMausn8_88.mp4	0.0	377.23390197753906	2.5083441734313965
80	273.14788818359375	fix_post	2		12.0	78.0	2.5	/experiments/knapen_aot/videos/S_yt-fQGoTMausn8_88.mp4	0.0	379.74224615097046	0.1000218391418457
81	273.2479100227356	fix_pre	0		38.0	79.0	2.5	/experiments/knapen_aot/videos/R_S_dwi2oPzQ1Wo_48.mp4	0.0	379.8422679901123	0.316608190536499
81	273.5563540458679	response	0	4		79.0	2.5	/experiments/knapen_aot/videos/R_S_dwi2oPzQ1Wo_48.mp4	0.0	380.15071201324463	
81	273.5645182132721	movie	1		300.0	79.0	2.5	/experiments/knapen_aot/videos/R_S_dwi2oPzQ1Wo_48.mp4	0.0	380.1588761806488	2.5082828998565674
81	276.07280111312866	fix_post	2		12.0	79.0	2.5	/experiments/knapen_aot/videos/R_S_dwi2oPzQ1Wo_48.mp4	0.0	382.66715908050537	0.10000491142272949
82	276.1728060245514	fix_pre	0		163.0	80.0	2.5	/experiments/knapen_aot/videos/R_S_ILnEDG_aP1A_35.mp4	0.0	382.7671639919281	1.3587939739227295
82	277.51558017730713	response	0	4		80.0	2.5	/experiments/knapen_aot/videos/R_S_ILnEDG_aP1A_35.mp4	0.0	384.10993814468384	
82	277.5315999984741	movie	1		301.0	80.0	2.5	/experiments/knapen_aot/videos/R_S_ILnEDG_aP1A_35.mp4	0.0	384.12595796585083	2.5078961849212646
82	280.0394961833954	fix_post	2		12.0	80.0	2.5	/experiments/knapen_aot/videos/R_S_ILnEDG_aP1A_35.mp4	0.0	386.6338541507721	0.10002398490905762
83	280.13952016830444	fix_pre	0		367.0	81.0	2.5	/experiments/knapen_aot/videos/R_S_ILSVRC2015_train_00479001.mp4	0.0	386.73387813568115	3.0587940216064453
83	283.18963408470154	response	0	4		81.0	2.5	/experiments/knapen_aot/videos/R_S_ILSVRC2015_train_00479001.mp4	0.0	389.78399205207825	
83	283.1983141899109	movie	1		301.0	81.0	2.5	/experiments/knapen_aot/videos/R_S_ILSVRC2015_train_00479001.mp4	0.0	389.7926721572876	2.50787091255188
83	285.70618510246277	fix_post	2		12.0	81.0	2.5	/experiments/knapen_aot/videos/R_S_ILSVRC2015_train_00479001.mp4	0.0	392.3005430698395	0.09995794296264648
84	285.8061430454254	fix_pre	0		66.0	82.0	2.5	blank	1.0	392.4005010128021	0.5499460697174072
84	286.34793615341187	response	0	4		82.0	2.5	blank	1.0	392.9422941207886	
84	286.3560891151428	movie	1		301.0	82.0	2.5	blank	1.0	392.95044708251953	2.5082790851593018
84	288.8643682003021	fix_post	2		12.0	82.0	2.5	blank	1.0	395.45872616767883	0.10005402565002441
85	288.96442222595215	fix_pre	0		66.0	83.0	2.5	/experiments/knapen_aot/videos/R_S_G007_C004_UHD_SDR_2K_AVC.mp4	0.0	395.55878019332886	0.5500209331512451
85	289.50623512268066	response	0	4		83.0	2.5	/experiments/knapen_aot/videos/R_S_G007_C004_UHD_SDR_2K_AVC.mp4	0.0	396.1005930900574	
85	289.5144431591034	movie	1		168.0	83.0	2.5	/experiments/knapen_aot/videos/R_S_G007_C004_UHD_SDR_2K_AVC.mp4	0.0	396.1088011264801	2.508340835571289
85	289.61461114883423	response	1	4		83.0	2.5	/experiments/knapen_aot/videos/R_S_G007_C004_UHD_SDR_2K_AVC.mp4	0.0	396.20896911621094	
85	292.0227839946747	fix_post	2		12.0	83.0	2.5	/experiments/knapen_aot/videos/R_S_G007_C004_UHD_SDR_2K_AVC.mp4	0.0	398.6171419620514	0.1000361442565918
87	292.1228201389313	stim	0		146.0					398.717178106308	1.2166149616241455
87	292.5396201610565	response	0	4						399.1339781284332	
87	293.32911920547485	response	0	space						399.92347717285156	
