trial_nr	onset	event_type	phase	response	nr_frames	movie_index	movie_duration	movie_file	blank	onset_abs	duration
0	0.13070011138916016	stim	0		24.0					133.2600541114807	0.20251989364624023
0	0.15729403495788574	response	0	escape						133.28664803504944	
0	0.3226280212402344	response	0	space						133.4519820213318	
1	0.3332200050354004	stim	0		121.0					133.46257400512695	1.005519151687622
1	0.864203929901123	response	0	space						133.99355792999268	
1	1.1805591583251953	response	0	space						134.30991315841675	
1	1.3387391567230225	stim	1		120.0					134.46809315681458	0.9999709129333496
1	1.6806039810180664	response	1	space						134.80995798110962	
1	2.1388020515441895	response	1	space						135.26815605163574	
2	2.338710069656372	fix_pre	0		13.0	0.0	2.5	/experiments/knapen_aot/videos/S_yt-zydTlQGCUjQ_277.mp4	0.0	135.46806406974792	0.10829997062683105
2	2.4388580322265625	response	0	space		0.0	2.5	/experiments/knapen_aot/videos/S_yt-zydTlQGCUjQ_277.mp4	0.0	135.56821203231812	
2	2.447010040283203	movie	1		301.0	0.0	2.5	/experiments/knapen_aot/videos/S_yt-zydTlQGCUjQ_277.mp4	0.0	135.57636404037476	2.5083770751953125
2	4.955387115478516	fix_post	2		12.0	0.0	2.5	/experiments/knapen_aot/videos/S_yt-zydTlQGCUjQ_277.mp4	0.0	138.08474111557007	0.09997892379760742
3	5.055366039276123	fix_pre	0		166.0	1.0	2.5	/experiments/knapen_aot/videos/S_video_inspire_california_big-sur_landscape_054.1080-h264.mp4	0.0	138.18472003936768	1.3833210468292236
3	6.434056043624878	response	0	4		1.0	2.5	/experiments/knapen_aot/videos/S_video_inspire_california_big-sur_landscape_054.1080-h264.mp4	0.0	139.56341004371643	
3	6.438687086105347	movie	1		166.0	1.0	2.5	/experiments/knapen_aot/videos/S_video_inspire_california_big-sur_landscape_054.1080-h264.mp4	0.0	139.5680410861969	2.508239984512329
3	8.946927070617676	fix_post	2		12.0	1.0	2.5	/experiments/knapen_aot/videos/S_video_inspire_california_big-sur_landscape_054.1080-h264.mp4	0.0	142.07628107070923	0.10003995895385742
4	9.046967029571533	fix_pre	0		32.0	2.0	2.5	/experiments/knapen_aot/videos/R_S_pexels-cottonbro-10639398.mp4	0.0	142.1763210296631	0.2666330337524414
4	9.30548095703125	response	0	4		2.0	2.5	/experiments/knapen_aot/videos/R_S_pexels-cottonbro-10639398.mp4	0.0	142.4348349571228	
4	9.313600063323975	movie	1		192.0	2.0	2.5	/experiments/knapen_aot/videos/R_S_pexels-cottonbro-10639398.mp4	0.0	142.44295406341553	2.508349895477295
4	11.82194995880127	fix_post	2		12.0	2.0	2.5	/experiments/knapen_aot/videos/R_S_pexels-cottonbro-10639398.mp4	0.0	144.95130395889282	0.10001897811889648
5	11.921968936920166	fix_pre	0		51.0	3.0	2.5	/experiments/knapen_aot/videos/R_S_yt-Faxdis4m3Fw_9.mp4	0.0	145.05132293701172	0.42501306533813477
5	12.338797092437744	response	0	4		3.0	2.5	/experiments/knapen_aot/videos/R_S_yt-Faxdis4m3Fw_9.mp4	0.0	145.4681510925293	
5	12.3469820022583	movie	1		301.0	3.0	2.5	/experiments/knapen_aot/videos/R_S_yt-Faxdis4m3Fw_9.mp4	0.0	145.47633600234985	2.5083861351013184
5	14.85536813735962	fix_post	2		12.0	3.0	2.5	/experiments/knapen_aot/videos/R_S_yt-Faxdis4m3Fw_9.mp4	0.0	147.98472213745117	0.09988999366760254
6	14.955258131027222	fix_pre	0		27.0	4.0	2.5	/experiments/knapen_aot/videos/S_yt-M8wvzt_BMXM_173.mp4	0.0	148.08461213111877	0.22512292861938477
6	15.172024965286255	response	0	4		4.0	2.5	/experiments/knapen_aot/videos/S_yt-M8wvzt_BMXM_173.mp4	0.0	148.3013789653778	
6	15.180381059646606	movie	1		301.0	4.0	2.5	/experiments/knapen_aot/videos/S_yt-M8wvzt_BMXM_173.mp4	0.0	148.30973505973816	2.508301019668579
6	17.688682079315186	fix_post	2		12.0	4.0	2.5	/experiments/knapen_aot/videos/S_yt-M8wvzt_BMXM_173.mp4	0.0	150.81803607940674	0.1000070571899414
7	17.788689136505127	fix_pre	0		27.0	5.0	2.5	/experiments/knapen_aot/videos/R_S_yt-M8wvzt_BMXM_173.mp4	0.0	150.91804313659668	0.22497296333312988
7	17.997934103012085	response	0	4		5.0	2.5	/experiments/knapen_aot/videos/R_S_yt-M8wvzt_BMXM_173.mp4	0.0	151.12728810310364	
7	18.013662099838257	movie	1		301.0	5.0	2.5	/experiments/knapen_aot/videos/R_S_yt-M8wvzt_BMXM_173.mp4	0.0	151.1430160999298	2.5082199573516846
7	20.52188205718994	fix_post	2		12.0	5.0	2.5	/experiments/knapen_aot/videos/R_S_yt-M8wvzt_BMXM_173.mp4	0.0	153.6512360572815	0.10010695457458496
8	20.621989011764526	fix_pre	0		19.0	6.0	2.5	blank	1.0	153.75134301185608	0.1582930088043213
8	20.77211594581604	response	0	4		6.0	2.5	blank	1.0	153.9014699459076	
8	20.780282020568848	movie	1		301.0	6.0	2.5	blank	1.0	153.9096360206604	2.5084071159362793
8	23.288689136505127	fix_post	2		12.0	6.0	2.5	blank	1.0	156.41804313659668	0.1000068187713623
9	23.38869595527649	fix_pre	0		45.0	7.0	2.5	/experiments/knapen_aot/videos/R_S_yt-kXarkCFJLeg_46.mp4	0.0	156.51804995536804	0.3749361038208008
9	23.755457162857056	response	0	4		7.0	2.5	/experiments/knapen_aot/videos/R_S_yt-kXarkCFJLeg_46.mp4	0.0	156.8848111629486	
9	23.76363205909729	movie	1		301.0	7.0	2.5	/experiments/knapen_aot/videos/R_S_yt-kXarkCFJLeg_46.mp4	0.0	156.89298605918884	2.508225917816162
9	26.271857976913452	fix_post	2		12.0	7.0	2.5	/experiments/knapen_aot/videos/R_S_yt-kXarkCFJLeg_46.mp4	0.0	159.401211977005	0.10008096694946289
10	26.371938943862915	fix_pre	0		42.0	8.0	2.5	/experiments/knapen_aot/videos/S_pexels-cottonbro-9063801_1.mp4	0.0	159.50129294395447	0.34999799728393555
10	26.706326961517334	response	0	4		8.0	2.5	/experiments/knapen_aot/videos/S_pexels-cottonbro-9063801_1.mp4	0.0	159.8356809616089	
10	26.72193694114685	movie	1		210.0	8.0	2.5	/experiments/knapen_aot/videos/S_pexels-cottonbro-9063801_1.mp4	0.0	159.8512909412384	2.5083491802215576
10	28.0898220539093	response	1	4		8.0	2.5	/experiments/knapen_aot/videos/S_pexels-cottonbro-9063801_1.mp4	0.0	161.21917605400085	
10	28.867529153823853	response	1	4		8.0	2.5	/experiments/knapen_aot/videos/S_pexels-cottonbro-9063801_1.mp4	0.0	161.9968831539154	
10	29.230286121368408	fix_post	2		12.0	8.0	2.5	/experiments/knapen_aot/videos/S_pexels-cottonbro-9063801_1.mp4	0.0	162.35964012145996	0.09988999366760254
11	29.33017611503601	fix_pre	0		35.0	9.0	2.5	/experiments/knapen_aot/videos/S_yt-zlbtESb7Fcw_28.mp4	0.0	162.45953011512756	0.2917008399963379
11	29.613713026046753	response	0	4		9.0	2.5	/experiments/knapen_aot/videos/S_yt-zlbtESb7Fcw_28.mp4	0.0	162.7430670261383	
11	29.62187695503235	movie	1		301.0	9.0	2.5	/experiments/knapen_aot/videos/S_yt-zlbtESb7Fcw_28.mp4	0.0	162.7512309551239	2.508380174636841
11	32.13025712966919	fix_post	2		12.0	9.0	2.5	/experiments/knapen_aot/videos/S_yt-zlbtESb7Fcw_28.mp4	0.0	165.25961112976074	0.1000218391418457
11	32.13198113441467	response	2	4		9.0	2.5	/experiments/knapen_aot/videos/S_yt-zlbtESb7Fcw_28.mp4	0.0	165.26133513450623	
12	32.230278968811035	fix_pre	0		49.0	10.0	2.5	/experiments/knapen_aot/videos/R_S_yt-YCjbGOPBQHw_131.mp4	0.0	165.3596329689026	0.40832996368408203
12	32.622905015945435	response	0	4		10.0	2.5	/experiments/knapen_aot/videos/R_S_yt-YCjbGOPBQHw_131.mp4	0.0	165.752259016037	
12	32.63860893249512	movie	1		301.0	10.0	2.5	/experiments/knapen_aot/videos/R_S_yt-YCjbGOPBQHw_131.mp4	0.0	165.76796293258667	2.508341073989868
12	35.146950006484985	fix_post	2		12.0	10.0	2.5	/experiments/knapen_aot/videos/R_S_yt-YCjbGOPBQHw_131.mp4	0.0	168.27630400657654	0.09995698928833008
13	35.246906995773315	fix_pre	0		20.0	11.0	2.5	/experiments/knapen_aot/videos/S_yt-dQRqGgpS9mE_288.mp4	0.0	168.37626099586487	0.1666431427001953
13	35.40539002418518	response	0	4		11.0	2.5	/experiments/knapen_aot/videos/S_yt-dQRqGgpS9mE_288.mp4	0.0	168.53474402427673	
13	35.41355013847351	movie	1		301.0	11.0	2.5	/experiments/knapen_aot/videos/S_yt-dQRqGgpS9mE_288.mp4	0.0	168.54290413856506	2.5082969665527344
13	37.921847105026245	fix_post	2		12.0	11.0	2.5	/experiments/knapen_aot/videos/S_yt-dQRqGgpS9mE_288.mp4	0.0	171.0512011051178	0.1000518798828125
14	38.02189898490906	fix_pre	0		32.0	12.0	2.5	/experiments/knapen_aot/videos/S_yt-zKnjBBYWe90_369.mp4	0.0	171.1512529850006	0.2666590213775635
14	38.28057098388672	response	0	4		12.0	2.5	/experiments/knapen_aot/videos/S_yt-zKnjBBYWe90_369.mp4	0.0	171.40992498397827	
14	38.28855800628662	movie	1		301.0	12.0	2.5	/experiments/knapen_aot/videos/S_yt-zKnjBBYWe90_369.mp4	0.0	171.41791200637817	2.5083091259002686
14	39.89190602302551	response	1	4		12.0	2.5	/experiments/knapen_aot/videos/S_yt-zKnjBBYWe90_369.mp4	0.0	173.02126002311707	
14	40.79686713218689	fix_post	2		12.0	12.0	2.5	/experiments/knapen_aot/videos/S_yt-zKnjBBYWe90_369.mp4	0.0	173.92622113227844	0.10001301765441895
15	40.89688014984131	fix_pre	0		7.0	13.0	2.5	/experiments/knapen_aot/videos/S_yt-7WYXuBHeorw_188.mp4	0.0	174.02623414993286	0.05835580825805664
15	40.947011947631836	response	0	4		13.0	2.5	/experiments/knapen_aot/videos/S_yt-7WYXuBHeorw_188.mp4	0.0	174.0763659477234	
15	40.955235958099365	movie	1		300.0	13.0	2.5	/experiments/knapen_aot/videos/S_yt-7WYXuBHeorw_188.mp4	0.0	174.08458995819092	2.5083231925964355
15	41.42638301849365	response	1	4		13.0	2.5	/experiments/knapen_aot/videos/S_yt-7WYXuBHeorw_188.mp4	0.0	174.5557370185852	
15	43.4635591506958	fix_post	2		12.0	13.0	2.5	/experiments/knapen_aot/videos/S_yt-7WYXuBHeorw_188.mp4	0.0	176.59291315078735	0.09996485710144043
16	43.56352400779724	fix_pre	0		18.0	14.0	2.5	blank	1.0	176.6928780078888	0.15097308158874512
16	43.69793701171875	response	0	4		14.0	2.5	blank	1.0	176.8272910118103	
16	43.714497089385986	movie	1		301.0	14.0	2.5	blank	1.0	176.84385108947754	2.5073699951171875
16	46.221867084503174	fix_post	2		12.0	14.0	2.5	blank	1.0	179.35122108459473	0.10001206398010254
17	46.321879148483276	fix_pre	0		410.0	15.0	2.5	/experiments/knapen_aot/videos/R_S_yt-WRBmpC-RxIc_678.mp4	0.0	179.45123314857483	3.4165449142456055
17	49.722721099853516	response	0	4		15.0	2.5	/experiments/knapen_aot/videos/R_S_yt-WRBmpC-RxIc_678.mp4	0.0	182.85207509994507	
17	49.73842406272888	movie	1		301.0	15.0	2.5	/experiments/knapen_aot/videos/R_S_yt-WRBmpC-RxIc_678.mp4	0.0	182.86777806282043	2.508349895477295
17	52.24677395820618	fix_post	2		12.0	15.0	2.5	/experiments/knapen_aot/videos/R_S_yt-WRBmpC-RxIc_678.mp4	0.0	185.37612795829773	0.10010004043579102
18	52.34687399864197	fix_pre	0		16.0	16.0	2.5	/experiments/knapen_aot/videos/S_ILSVRC2015_train_00563000.mp4	0.0	185.47622799873352	0.1333601474761963
18	52.47197604179382	response	0	4		16.0	2.5	/experiments/knapen_aot/videos/S_ILSVRC2015_train_00563000.mp4	0.0	185.60133004188538	
18	52.480234146118164	movie	1		301.0	16.0	2.5	/experiments/knapen_aot/videos/S_ILSVRC2015_train_00563000.mp4	0.0	185.60958814620972	2.508248805999756
18	54.830201148986816	response	1	4		16.0	2.5	/experiments/knapen_aot/videos/S_ILSVRC2015_train_00563000.mp4	0.0	187.95955514907837	
18	54.98848295211792	fix_post	2		12.0	16.0	2.5	/experiments/knapen_aot/videos/S_ILSVRC2015_train_00563000.mp4	0.0	188.11783695220947	0.0999910831451416
19	55.08847403526306	fix_pre	0		61.0	17.0	2.5	/experiments/knapen_aot/videos/R_S_pexels-mikhail-nilov-8410063.mp4	0.0	188.21782803535461	0.5083599090576172
19	55.588659048080444	response	0	4		17.0	2.5	/experiments/knapen_aot/videos/R_S_pexels-mikhail-nilov-8410063.mp4	0.0	188.718013048172	
19	55.59683394432068	movie	1		165.0	17.0	2.5	/experiments/knapen_aot/videos/R_S_pexels-mikhail-nilov-8410063.mp4	0.0	188.72618794441223	2.5082590579986572
19	58.105093002319336	fix_post	2		12.0	17.0	2.5	/experiments/knapen_aot/videos/R_S_pexels-mikhail-nilov-8410063.mp4	0.0	191.2344470024109	0.09999299049377441
20	58.20508599281311	fix_pre	0		15.0	18.0	2.5	/experiments/knapen_aot/videos/R_S_yt-4r-oovk9JWg_85.mp4	0.0	191.33443999290466	0.12500810623168945
20	58.32193613052368	response	0	4		18.0	2.5	/experiments/knapen_aot/videos/R_S_yt-4r-oovk9JWg_85.mp4	0.0	191.45129013061523	
20	58.3300940990448	movie	1		301.0	18.0	2.5	/experiments/knapen_aot/videos/R_S_yt-4r-oovk9JWg_85.mp4	0.0	191.45944809913635	2.5084149837493896
20	60.83850908279419	fix_post	2		12.0	18.0	2.5	/experiments/knapen_aot/videos/R_S_yt-4r-oovk9JWg_85.mp4	0.0	193.96786308288574	0.09998607635498047
21	60.93849515914917	fix_pre	0		30.0	19.0	2.5	blank	1.0	194.06784915924072	0.24996280670166016
21	61.18030095100403	response	0	4		19.0	2.5	blank	1.0	194.30965495109558	
21	61.18845796585083	movie	1		301.0	19.0	2.5	blank	1.0	194.31781196594238	2.508303165435791
21	63.69676113128662	fix_post	2		12.0	19.0	2.5	blank	1.0	196.82611513137817	0.10000300407409668
22	63.79676413536072	fix_pre	0		24.0	20.0	2.5	/experiments/knapen_aot/videos/R_S_comp_GMT060_117NC_363D_1034_AUSTRALIA_v35_SDR_PS_FINAL_20180731_SDR_2K_AVC.mp4	0.0	196.92611813545227	0.20001792907714844
22	63.98857402801514	response	0	4		20.0	2.5	/experiments/knapen_aot/videos/R_S_comp_GMT060_117NC_363D_1034_AUSTRALIA_v35_SDR_PS_FINAL_20180731_SDR_2K_AVC.mp4	0.0	197.1179280281067	
22	63.996782064437866	movie	1		166.0	20.0	2.5	/experiments/knapen_aot/videos/R_S_comp_GMT060_117NC_363D_1034_AUSTRALIA_v35_SDR_PS_FINAL_20180731_SDR_2K_AVC.mp4	0.0	197.12613606452942	2.5082590579986572
22	66.50504112243652	fix_post	2		12.0	20.0	2.5	/experiments/knapen_aot/videos/R_S_comp_GMT060_117NC_363D_1034_AUSTRALIA_v35_SDR_PS_FINAL_20180731_SDR_2K_AVC.mp4	0.0	199.63439512252808	0.10002684593200684
23	66.60506796836853	fix_pre	0		22.0	21.0	2.5	/experiments/knapen_aot/videos/R_S_yt-XBAU3cq0rZs_150.mp4	0.0	199.73442196846008	0.18332505226135254
23	66.78015112876892	response	0	4		21.0	2.5	/experiments/knapen_aot/videos/R_S_yt-XBAU3cq0rZs_150.mp4	0.0	199.90950512886047	
23	66.78839302062988	movie	1		301.0	21.0	2.5	/experiments/knapen_aot/videos/R_S_yt-XBAU3cq0rZs_150.mp4	0.0	199.91774702072144	2.5083820819854736
23	69.29677510261536	fix_post	2		12.0	21.0	2.5	/experiments/knapen_aot/videos/R_S_yt-XBAU3cq0rZs_150.mp4	0.0	202.4261291027069	0.09997892379760742
24	69.39675402641296	fix_pre	0		26.0	22.0	2.5	/experiments/knapen_aot/videos/R_S_yt-CR86bVrRwfo_13.mp4	0.0	202.52610802650452	0.2166459560394287
24	69.60520505905151	response	0	4		22.0	2.5	/experiments/knapen_aot/videos/R_S_yt-CR86bVrRwfo_13.mp4	0.0	202.73455905914307	
24	69.61339998245239	movie	1		301.0	22.0	2.5	/experiments/knapen_aot/videos/R_S_yt-CR86bVrRwfo_13.mp4	0.0	202.74275398254395	2.508336067199707
24	72.1217360496521	fix_post	2		12.0	22.0	2.5	/experiments/knapen_aot/videos/R_S_yt-CR86bVrRwfo_13.mp4	0.0	205.25109004974365	0.10004496574401855
25	72.22178101539612	fix_pre	0		29.0	23.0	2.5	/experiments/knapen_aot/videos/S_yt-bQRBtP9zkms_111.mp4	0.0	205.35113501548767	0.2424330711364746
25	72.45507407188416	response	0	4		23.0	2.5	/experiments/knapen_aot/videos/S_yt-bQRBtP9zkms_111.mp4	0.0	205.5844280719757	
25	72.46421408653259	movie	1		301.0	23.0	2.5	/experiments/knapen_aot/videos/S_yt-bQRBtP9zkms_111.mp4	0.0	205.59356808662415	2.507544994354248
25	74.97175908088684	fix_post	2		12.0	23.0	2.5	/experiments/knapen_aot/videos/S_yt-bQRBtP9zkms_111.mp4	0.0	208.1011130809784	0.09998703002929688
26	75.07174611091614	fix_pre	0		34.0	24.0	2.5	/experiments/knapen_aot/videos/S_m-aeoYPMqfg_185.mp4	0.0	208.2011001110077	0.28331494331359863
26	75.34695816040039	response	0	4		24.0	2.5	/experiments/knapen_aot/videos/S_m-aeoYPMqfg_185.mp4	0.0	208.47631216049194	
26	75.35506105422974	movie	1		301.0	24.0	2.5	/experiments/knapen_aot/videos/S_m-aeoYPMqfg_185.mp4	0.0	208.4844150543213	2.508333921432495
26	77.86339497566223	fix_post	2		12.0	24.0	2.5	/experiments/knapen_aot/videos/S_m-aeoYPMqfg_185.mp4	0.0	210.99274897575378	0.10002517700195312
27	77.96342015266418	fix_pre	0		23.0	25.0	2.5	/experiments/knapen_aot/videos/S_yt-WRBmpC-RxIc_678.mp4	0.0	211.09277415275574	0.19159984588623047
27	78.14687895774841	response	0	4		25.0	2.5	/experiments/knapen_aot/videos/S_yt-WRBmpC-RxIc_678.mp4	0.0	211.27623295783997	
27	78.15501999855042	movie	1		301.0	25.0	2.5	/experiments/knapen_aot/videos/S_yt-WRBmpC-RxIc_678.mp4	0.0	211.28437399864197	2.5083680152893066
27	80.66338801383972	fix_post	2		12.0	25.0	2.5	/experiments/knapen_aot/videos/S_yt-WRBmpC-RxIc_678.mp4	0.0	213.79274201393127	0.09990906715393066
28	80.76329708099365	fix_pre	0		309.0	26.0	2.5	/experiments/knapen_aot/videos/R_S_bing-www_cnn_com_2015_04_20_living_steak-eating-contest-molly-schuyler-feat_index_html_1.mp4	0.0	213.8926510810852	2.5757880210876465
28	83.33016514778137	response	0	4		26.0	2.5	/experiments/knapen_aot/videos/R_S_bing-www_cnn_com_2015_04_20_living_steak-eating-contest-molly-schuyler-feat_index_html_1.mp4	0.0	216.45951914787292	
28	83.3390851020813	movie	1		301.0	26.0	2.5	/experiments/knapen_aot/videos/R_S_bing-www_cnn_com_2015_04_20_living_steak-eating-contest-molly-schuyler-feat_index_html_1.mp4	0.0	216.46843910217285	2.5076169967651367
28	85.84670209884644	fix_post	2		12.0	26.0	2.5	/experiments/knapen_aot/videos/R_S_bing-www_cnn_com_2015_04_20_living_steak-eating-contest-molly-schuyler-feat_index_html_1.mp4	0.0	218.976056098938	0.09994292259216309
29	85.9466450214386	fix_pre	0		29.0	27.0	2.5	blank	1.0	219.07599902153015	0.24167990684509277
29	86.17254614830017	response	0	4		27.0	2.5	blank	1.0	219.30190014839172	
29	86.18832492828369	movie	1		301.0	27.0	2.5	blank	1.0	219.31767892837524	2.5082931518554688
29	88.69661808013916	fix_post	2		12.0	27.0	2.5	blank	1.0	221.8259720802307	0.10006904602050781
30	88.79668712615967	fix_pre	0		49.0	28.0	2.5	/experiments/knapen_aot/videos/S_bing-www_break_com_video_like-a-cat-catching-a-fly-3131008_12.mp4	0.0	221.92604112625122	0.40831995010375977
30	89.19676208496094	response	0	4		28.0	2.5	/experiments/knapen_aot/videos/S_bing-www_break_com_video_like-a-cat-catching-a-fly-3131008_12.mp4	0.0	222.3261160850525	
30	89.20500707626343	movie	1		301.0	28.0	2.5	/experiments/knapen_aot/videos/S_bing-www_break_com_video_like-a-cat-catching-a-fly-3131008_12.mp4	0.0	222.33436107635498	2.508378028869629
30	90.7938859462738	response	1	4		28.0	2.5	/experiments/knapen_aot/videos/S_bing-www_break_com_video_like-a-cat-catching-a-fly-3131008_12.mp4	0.0	223.92323994636536	
30	91.71338510513306	fix_post	2		12.0	28.0	2.5	/experiments/knapen_aot/videos/S_bing-www_break_com_video_like-a-cat-catching-a-fly-3131008_12.mp4	0.0	224.8427391052246	0.09993696212768555
31	91.81332206726074	fix_pre	0		852.0	29.0	2.5	/experiments/knapen_aot/videos/R_S_yt-ph1AkIToO4E_46.mp4	0.0	224.9426760673523	7.099901914596558
31	98.90506315231323	response	0	4		29.0	2.5	/experiments/knapen_aot/videos/R_S_yt-ph1AkIToO4E_46.mp4	0.0	232.03441715240479	
31	98.9132239818573	movie	1		301.0	29.0	2.5	/experiments/knapen_aot/videos/R_S_yt-ph1AkIToO4E_46.mp4	0.0	232.04257798194885	2.508432149887085
31	101.42165613174438	fix_post	2		12.0	29.0	2.5	/experiments/knapen_aot/videos/R_S_yt-ph1AkIToO4E_46.mp4	0.0	234.55101013183594	0.09999585151672363
32	101.52165198326111	fix_pre	0		19.0	30.0	2.5	/experiments/knapen_aot/videos/R_S_yt-EuyfT0PuOoQ_91.mp4	0.0	234.65100598335266	0.15828299522399902
32	101.67176103591919	response	0	4		30.0	2.5	/experiments/knapen_aot/videos/R_S_yt-EuyfT0PuOoQ_91.mp4	0.0	234.80111503601074	
32	101.67993497848511	movie	1		301.0	30.0	2.5	/experiments/knapen_aot/videos/R_S_yt-EuyfT0PuOoQ_91.mp4	0.0	234.80928897857666	2.508347988128662
32	104.18828296661377	fix_post	2		12.0	30.0	2.5	/experiments/knapen_aot/videos/R_S_yt-EuyfT0PuOoQ_91.mp4	0.0	237.31763696670532	0.09999918937683105
33	104.2882821559906	fix_pre	0		7.0	31.0	2.5	/experiments/knapen_aot/videos/R_S_yt-YykKZWKmLnQ_386.mp4	0.0	237.41763615608215	0.05850481986999512
33	104.33912301063538	response	0	4		31.0	2.5	/experiments/knapen_aot/videos/R_S_yt-YykKZWKmLnQ_386.mp4	0.0	237.46847701072693	
33	104.3467869758606	movie	1		301.0	31.0	2.5	/experiments/knapen_aot/videos/R_S_yt-YykKZWKmLnQ_386.mp4	0.0	237.47614097595215	2.508155107498169
33	106.85494208335876	fix_post	2		12.0	31.0	2.5	/experiments/knapen_aot/videos/R_S_yt-YykKZWKmLnQ_386.mp4	0.0	239.98429608345032	0.10000801086425781
34	106.95495009422302	fix_pre	0		26.0	32.0	2.5	/experiments/knapen_aot/videos/R_S_yt-w_e3sxIzepA_27.mp4	0.0	240.08430409431458	0.21725797653198242
34	107.16343593597412	response	0	4		32.0	2.5	/experiments/knapen_aot/videos/R_S_yt-w_e3sxIzepA_27.mp4	0.0	240.29278993606567	
34	107.172208070755	movie	1		301.0	32.0	2.5	/experiments/knapen_aot/videos/R_S_yt-w_e3sxIzepA_27.mp4	0.0	240.30156207084656	2.507719039916992
34	108.47167205810547	response	1	4		32.0	2.5	/experiments/knapen_aot/videos/R_S_yt-w_e3sxIzepA_27.mp4	0.0	241.60102605819702	
34	109.679927110672	fix_post	2		12.0	32.0	2.5	/experiments/knapen_aot/videos/R_S_yt-w_e3sxIzepA_27.mp4	0.0	242.80928111076355	0.09994292259216309
35	109.77987003326416	fix_pre	0		44.0	33.0	2.5	/experiments/knapen_aot/videos/R_S_yt-11VGDAOVEag_8.mp4	0.0	242.9092240333557	0.36666297912597656
35	110.13836908340454	response	0	4		33.0	2.5	/experiments/knapen_aot/videos/R_S_yt-11VGDAOVEag_8.mp4	0.0	243.2677230834961	
35	110.14653301239014	movie	1		301.0	33.0	2.5	/experiments/knapen_aot/videos/R_S_yt-11VGDAOVEag_8.mp4	0.0	243.2758870124817	2.508327007293701
35	112.65486001968384	fix_post	2		12.0	33.0	2.5	/experiments/knapen_aot/videos/R_S_yt-11VGDAOVEag_8.mp4	0.0	245.7842140197754	0.10007500648498535
36	112.75493502616882	fix_pre	0		13.0	34.0	2.5	blank	1.0	245.88428902626038	0.10833001136779785
36	112.85510110855103	response	0	4		34.0	2.5	blank	1.0	245.98445510864258	
36	112.86326503753662	movie	1		301.0	34.0	2.5	blank	1.0	245.99261903762817	2.5082380771636963
36	114.73831415176392	response	1	4		34.0	2.5	blank	1.0	247.86766815185547	
36	115.34659504890442	response	1	4		34.0	2.5	blank	1.0	248.47594904899597	
36	115.37150311470032	fix_post	2		12.0	34.0	2.5	blank	1.0	248.50085711479187	0.10004091262817383
37	115.47154402732849	fix_pre	0		33.0	35.0	2.5	/experiments/knapen_aot/videos/R_S_ILSVRC2015_train_00725000.mp4	0.0	248.60089802742004	0.27501797676086426
37	115.73832511901855	response	0	4		35.0	2.5	/experiments/knapen_aot/videos/R_S_ILSVRC2015_train_00725000.mp4	0.0	248.8676791191101	
37	115.74656200408936	movie	1		301.0	35.0	2.5	/experiments/knapen_aot/videos/R_S_ILSVRC2015_train_00725000.mp4	0.0	248.8759160041809	2.508366107940674
37	118.25492811203003	fix_post	2		12.0	35.0	2.5	/experiments/knapen_aot/videos/R_S_ILSVRC2015_train_00725000.mp4	0.0	251.38428211212158	0.10000300407409668
38	118.35493111610413	fix_pre	0		3.0	36.0	2.5	/experiments/knapen_aot/videos/S_yt-XtzmBXKYEWk_60.mp4	0.0	251.48428511619568	0.025516033172607422
38	118.37170696258545	response	0	4		36.0	2.5	/experiments/knapen_aot/videos/S_yt-XtzmBXKYEWk_60.mp4	0.0	251.501060962677	
38	118.38044714927673	movie	1		301.0	36.0	2.5	/experiments/knapen_aot/videos/S_yt-XtzmBXKYEWk_60.mp4	0.0	251.5098011493683	2.507814884185791
38	119.3805000782013	response	1	4		36.0	2.5	/experiments/knapen_aot/videos/S_yt-XtzmBXKYEWk_60.mp4	0.0	252.50985407829285	
38	120.88826203346252	fix_post	2		12.0	36.0	2.5	/experiments/knapen_aot/videos/S_yt-XtzmBXKYEWk_60.mp4	0.0	254.01761603355408	0.09996795654296875
39	120.9882299900055	fix_pre	0		38.0	37.0	2.5	/experiments/knapen_aot/videos/S_yt-XBAU3cq0rZs_150.mp4	0.0	254.11758399009705	0.31666994094848633
39	121.28917098045349	response	0	4		37.0	2.5	/experiments/knapen_aot/videos/S_yt-XBAU3cq0rZs_150.mp4	0.0	254.41852498054504	
39	121.30489993095398	movie	1		301.0	37.0	2.5	/experiments/knapen_aot/videos/S_yt-XBAU3cq0rZs_150.mp4	0.0	254.43425393104553	2.5082380771636963
39	123.81313800811768	fix_post	2		12.0	37.0	2.5	/experiments/knapen_aot/videos/S_yt-XBAU3cq0rZs_150.mp4	0.0	256.94249200820923	0.10000896453857422
40	123.91314697265625	fix_pre	0		14.0	38.0	2.5	/experiments/knapen_aot/videos/R_S_yt-EuyfT0PuOoQ_91.mp4	0.0	257.0425009727478	0.1167140007019043
40	124.02167916297913	response	0	4		38.0	2.5	/experiments/knapen_aot/videos/R_S_yt-EuyfT0PuOoQ_91.mp4	0.0	257.1510331630707	
40	124.02986097335815	movie	1		301.0	38.0	2.5	/experiments/knapen_aot/videos/R_S_yt-EuyfT0PuOoQ_91.mp4	0.0	257.1592149734497	2.5082199573516846
40	126.53808093070984	fix_post	2		12.0	38.0	2.5	/experiments/knapen_aot/videos/R_S_yt-EuyfT0PuOoQ_91.mp4	0.0	259.6674349308014	0.1000661849975586
41	126.6381471157074	fix_pre	0		292.0	39.0	2.5	/experiments/knapen_aot/videos/S_yt-fjOsq03OC2c_188.mp4	0.0	259.76750111579895	2.4333510398864746
41	129.06330609321594	response	0	4		39.0	2.5	/experiments/knapen_aot/videos/S_yt-fjOsq03OC2c_188.mp4	0.0	262.1926600933075	
41	129.07149815559387	movie	1		301.0	39.0	2.5	/experiments/knapen_aot/videos/S_yt-fjOsq03OC2c_188.mp4	0.0	262.2008521556854	2.508380889892578
41	131.57987904548645	fix_post	2		12.0	39.0	2.5	/experiments/knapen_aot/videos/S_yt-fjOsq03OC2c_188.mp4	0.0	264.709233045578	0.0999751091003418
42	131.6798541545868	fix_pre	0		538.0	40.0	2.5	/experiments/knapen_aot/videos/R_S_yt-sWJc_Do8EaI_32.mp4	0.0	264.80920815467834	4.483266830444336
42	136.15489506721497	response	0	4		40.0	2.5	/experiments/knapen_aot/videos/R_S_yt-sWJc_Do8EaI_32.mp4	0.0	269.2842490673065	
42	136.16312098503113	movie	1		301.0	40.0	2.5	/experiments/knapen_aot/videos/R_S_yt-sWJc_Do8EaI_32.mp4	0.0	269.2924749851227	2.508329153060913
42	138.67145013809204	fix_post	2		12.0	40.0	2.5	/experiments/knapen_aot/videos/R_S_yt-sWJc_Do8EaI_32.mp4	0.0	271.8008041381836	0.09995794296264648
43	138.7714080810547	fix_pre	0		29.0	41.0	2.5	blank	1.0	271.90076208114624	0.24167299270629883
43	139.00499296188354	response	0	4		41.0	2.5	blank	1.0	272.1343469619751	
43	139.013081073761	movie	1		301.0	41.0	2.5	blank	1.0	272.14243507385254	2.5083820819854736
43	141.52146315574646	fix_post	2		12.0	41.0	2.5	blank	1.0	274.650817155838	0.10002589225769043
44	141.62148904800415	fix_pre	0		425.0	42.0	2.5	/experiments/knapen_aot/videos/S_3dzza09VbXY_235.mp4	0.0	274.7508430480957	3.541567087173462
44	145.15489196777344	response	0	4		42.0	2.5	/experiments/knapen_aot/videos/S_3dzza09VbXY_235.mp4	0.0	278.284245967865	
44	145.1630561351776	movie	1		301.0	42.0	2.5	/experiments/knapen_aot/videos/S_3dzza09VbXY_235.mp4	0.0	278.29241013526917	2.508359909057617
44	147.67141604423523	fix_post	2		12.0	42.0	2.5	/experiments/knapen_aot/videos/S_3dzza09VbXY_235.mp4	0.0	280.8007700443268	0.10001897811889648
45	147.77143502235413	fix_pre	0		562.0	43.0	2.5	/experiments/knapen_aot/videos/R_S_yt-l_ioasf6yHg_44.mp4	0.0	280.9007890224457	4.683233976364136
45	152.4465310573578	response	0	4		43.0	2.5	/experiments/knapen_aot/videos/R_S_yt-l_ioasf6yHg_44.mp4	0.0	285.57588505744934	
45	152.45466899871826	movie	1		301.0	43.0	2.5	/experiments/knapen_aot/videos/R_S_yt-l_ioasf6yHg_44.mp4	0.0	285.5840229988098	2.50839900970459
45	154.78820204734802	response	1	4		43.0	2.5	/experiments/knapen_aot/videos/R_S_yt-l_ioasf6yHg_44.mp4	0.0	287.9175560474396	
45	154.96306800842285	fix_post	2		12.0	43.0	2.5	/experiments/knapen_aot/videos/R_S_yt-l_ioasf6yHg_44.mp4	0.0	288.0924220085144	0.1000509262084961
46	155.06311893463135	fix_pre	0		25.0	44.0	2.5	/experiments/knapen_aot/videos/R_S_yt-wEbfIR14zZ8_7.mp4	0.0	288.1924729347229	0.20829200744628906
46	155.2630980014801	response	0	4		44.0	2.5	/experiments/knapen_aot/videos/R_S_yt-wEbfIR14zZ8_7.mp4	0.0	288.39245200157166	
46	155.27141094207764	movie	1		301.0	44.0	2.5	/experiments/knapen_aot/videos/R_S_yt-wEbfIR14zZ8_7.mp4	0.0	288.4007649421692	2.5083210468292236
46	157.77973198890686	fix_post	2		12.0	44.0	2.5	/experiments/knapen_aot/videos/R_S_yt-wEbfIR14zZ8_7.mp4	0.0	290.9090859889984	0.09993505477905273
47	157.8796670436859	fix_pre	0		23.0	45.0	2.5	/experiments/knapen_aot/videos/R_S_yt-bQRBtP9zkms_111.mp4	0.0	291.00902104377747	0.19168901443481445
47	158.06307411193848	response	0	4		45.0	2.5	/experiments/knapen_aot/videos/R_S_yt-bQRBtP9zkms_111.mp4	0.0	291.19242811203003	
47	158.07135605812073	movie	1		301.0	45.0	2.5	/experiments/knapen_aot/videos/R_S_yt-bQRBtP9zkms_111.mp4	0.0	291.2007100582123	2.5083119869232178
47	160.57966804504395	fix_post	2		12.0	45.0	2.5	/experiments/knapen_aot/videos/R_S_yt-bQRBtP9zkms_111.mp4	0.0	293.7090220451355	0.10006308555603027
48	160.67973113059998	fix_pre	0		27.0	46.0	2.5	/experiments/knapen_aot/videos/R_S_G007_C004_UHD_SDR_2K_AVC.mp4	0.0	293.8090851306915	0.22487592697143555
48	160.89646005630493	response	0	4		46.0	2.5	/experiments/knapen_aot/videos/R_S_G007_C004_UHD_SDR_2K_AVC.mp4	0.0	294.0258140563965	
48	160.9046070575714	movie	1		169.0	46.0	2.5	/experiments/knapen_aot/videos/R_S_G007_C004_UHD_SDR_2K_AVC.mp4	0.0	294.03396105766296	2.5083630084991455
48	163.27156114578247	response	1	4		46.0	2.5	/experiments/knapen_aot/videos/R_S_G007_C004_UHD_SDR_2K_AVC.mp4	0.0	296.400915145874	
48	163.41297006607056	fix_post	2		12.0	46.0	2.5	/experiments/knapen_aot/videos/R_S_G007_C004_UHD_SDR_2K_AVC.mp4	0.0	296.5423240661621	0.09999608993530273
49	163.51296615600586	fix_pre	0		29.0	47.0	2.5	blank	1.0	296.6423201560974	0.24199986457824707
49	163.7464771270752	response	0	4		47.0	2.5	blank	1.0	296.87583112716675	
49	163.7549660205841	movie	1		301.0	47.0	2.5	blank	1.0	296.88432002067566	2.507995128631592
49	166.2629611492157	fix_post	2		12.0	47.0	2.5	blank	1.0	299.39231514930725	0.10004401206970215
50	166.3630051612854	fix_pre	0		14.0	48.0	2.5	/experiments/knapen_aot/videos/R_S_yt-M8wvzt_BMXM_173.mp4	0.0	299.49235916137695	0.11665892601013184
50	166.4714961051941	response	0	4		48.0	2.5	/experiments/knapen_aot/videos/R_S_yt-M8wvzt_BMXM_173.mp4	0.0	299.60085010528564	
50	166.47966408729553	movie	1		299.0	48.0	2.5	/experiments/knapen_aot/videos/R_S_yt-M8wvzt_BMXM_173.mp4	0.0	299.6090180873871	2.508225917816162
50	168.9878900051117	fix_post	2		12.0	48.0	2.5	/experiments/knapen_aot/videos/R_S_yt-M8wvzt_BMXM_173.mp4	0.0	302.11724400520325	0.10047411918640137
51	169.0883641242981	fix_pre	0		16.0	49.0	2.5	/experiments/knapen_aot/videos/S_pexels-koolshooters-7327405.mp4	0.0	302.21771812438965	0.13295197486877441
51	169.21311593055725	response	0	4		49.0	2.5	/experiments/knapen_aot/videos/S_pexels-koolshooters-7327405.mp4	0.0	302.3424699306488	
51	169.22131609916687	movie	1		166.0	49.0	2.5	/experiments/knapen_aot/videos/S_pexels-koolshooters-7327405.mp4	0.0	302.3506700992584	2.5083189010620117
51	170.67154097557068	response	1	4		49.0	2.5	/experiments/knapen_aot/videos/S_pexels-koolshooters-7327405.mp4	0.0	303.80089497566223	
51	171.04512405395508	response	1	4		49.0	2.5	/experiments/knapen_aot/videos/S_pexels-koolshooters-7327405.mp4	0.0	304.17447805404663	
51	171.48813199996948	response	1	4		49.0	2.5	/experiments/knapen_aot/videos/S_pexels-koolshooters-7327405.mp4	0.0	304.61748600006104	
51	171.72963500022888	fix_post	2		12.0	49.0	2.5	/experiments/knapen_aot/videos/S_pexels-koolshooters-7327405.mp4	0.0	304.85898900032043	0.09998512268066406
52	171.82962012290955	fix_pre	0		13.0	50.0	2.5	/experiments/knapen_aot/videos/R_S_zAKvYNtmhuc_772.mp4	0.0	304.9589741230011	0.10831999778747559
52	171.92973494529724	response	0	4		50.0	2.5	/experiments/knapen_aot/videos/R_S_zAKvYNtmhuc_772.mp4	0.0	305.0590889453888	
52	171.93794012069702	movie	1		301.0	50.0	2.5	/experiments/knapen_aot/videos/R_S_zAKvYNtmhuc_772.mp4	0.0	305.0672941207886	2.5083730220794678
52	172.49816393852234	response	1	4		50.0	2.5	/experiments/knapen_aot/videos/R_S_zAKvYNtmhuc_772.mp4	0.0	305.6275179386139	
52	173.225261926651	response	1	4		50.0	2.5	/experiments/knapen_aot/videos/R_S_zAKvYNtmhuc_772.mp4	0.0	306.35461592674255	
52	174.4463131427765	fix_post	2		12.0	50.0	2.5	/experiments/knapen_aot/videos/R_S_zAKvYNtmhuc_772.mp4	0.0	307.57566714286804	0.10022282600402832
52	174.48810505867004	response	2	4		50.0	2.5	/experiments/knapen_aot/videos/R_S_zAKvYNtmhuc_772.mp4	0.0	307.6174590587616	
53	174.54653596878052	fix_pre	0		40.0	51.0	2.5	/experiments/knapen_aot/videos/R_S_ahJft-G235A_122.mp4	0.0	307.67588996887207	0.333327054977417
53	174.8714051246643	response	0	4		51.0	2.5	/experiments/knapen_aot/videos/R_S_ahJft-G235A_122.mp4	0.0	308.00075912475586	
53	174.87986302375793	movie	1		301.0	51.0	2.5	/experiments/knapen_aot/videos/R_S_ahJft-G235A_122.mp4	0.0	308.0092170238495	2.5080819129943848
53	177.38794493675232	fix_post	2		12.0	51.0	2.5	/experiments/knapen_aot/videos/R_S_ahJft-G235A_122.mp4	0.0	310.5172989368439	0.10001611709594727
54	177.48796105384827	fix_pre	0		14.0	52.0	2.5	/experiments/knapen_aot/videos/S_BO_A018_C029_SDR_20190812_SDR_2K_AVC.mp4	0.0	310.6173150539398	0.11665606498718262
54	177.59645009040833	response	0	4		52.0	2.5	/experiments/knapen_aot/videos/S_BO_A018_C029_SDR_20190812_SDR_2K_AVC.mp4	0.0	310.7258040904999	
54	177.60461711883545	movie	1		164.0	52.0	2.5	/experiments/knapen_aot/videos/S_BO_A018_C029_SDR_20190812_SDR_2K_AVC.mp4	0.0	310.733971118927	2.5083088874816895
54	179.19532704353333	response	1	4		52.0	2.5	/experiments/knapen_aot/videos/S_BO_A018_C029_SDR_20190812_SDR_2K_AVC.mp4	0.0	312.3246810436249	
54	179.7380940914154	response	1	4		52.0	2.5	/experiments/knapen_aot/videos/S_BO_A018_C029_SDR_20190812_SDR_2K_AVC.mp4	0.0	312.86744809150696	
54	180.11292600631714	fix_post	2		12.0	52.0	2.5	/experiments/knapen_aot/videos/S_BO_A018_C029_SDR_20190812_SDR_2K_AVC.mp4	0.0	313.2422800064087	0.10023307800292969
54	180.15463209152222	response	2	4		52.0	2.5	/experiments/knapen_aot/videos/S_BO_A018_C029_SDR_20190812_SDR_2K_AVC.mp4	0.0	313.28398609161377	
55	180.21315908432007	fix_pre	0		41.0	53.0	2.5	/experiments/knapen_aot/videos/S_b8-3.mp4	0.0	313.3425130844116	0.34140896797180176
55	180.5463740825653	response	0	4		53.0	2.5	/experiments/knapen_aot/videos/S_b8-3.mp4	0.0	313.67572808265686	
55	180.55456805229187	movie	1		171.0	53.0	2.5	/experiments/knapen_aot/videos/S_b8-3.mp4	0.0	313.6839220523834	2.5083649158477783
55	182.82797694206238	response	1	4		53.0	2.5	/experiments/knapen_aot/videos/S_b8-3.mp4	0.0	315.95733094215393	
55	183.06293296813965	fix_post	2		12.0	53.0	2.5	/experiments/knapen_aot/videos/S_b8-3.mp4	0.0	316.1922869682312	0.09999799728393555
56	183.16293096542358	fix_pre	0		20.0	54.0	2.5	blank	1.0	316.29228496551514	0.16667914390563965
56	183.32125401496887	response	0	4		54.0	2.5	blank	1.0	316.4506080150604	
56	183.32961010932922	movie	1		301.0	54.0	2.5	blank	1.0	316.4589641094208	2.5083189010620117
56	184.88802695274353	response	1	4		54.0	2.5	blank	1.0	318.0173809528351	
56	185.18798112869263	response	1	4		54.0	2.5	blank	1.0	318.3173351287842	
56	185.83792901039124	fix_post	2		12.0	54.0	2.5	blank	1.0	318.9672830104828	0.09998393058776855
57	185.937912940979	fix_pre	0		33.0	55.0	2.5	/experiments/knapen_aot/videos/S_yt-a0axt7n0GuQ_19.mp4	0.0	319.06726694107056	0.27515506744384766
57	186.20471501350403	response	0	4		55.0	2.5	/experiments/knapen_aot/videos/S_yt-a0axt7n0GuQ_19.mp4	0.0	319.3340690135956	
57	186.21306800842285	movie	1		301.0	55.0	2.5	/experiments/knapen_aot/videos/S_yt-a0axt7n0GuQ_19.mp4	0.0	319.3424220085144	2.508165121078491
57	187.39962315559387	response	1	4		55.0	2.5	/experiments/knapen_aot/videos/S_yt-a0axt7n0GuQ_19.mp4	0.0	320.5289771556854	
57	188.72123312950134	fix_post	2		12.0	55.0	2.5	/experiments/knapen_aot/videos/S_yt-a0axt7n0GuQ_19.mp4	0.0	321.8505871295929	0.1000359058380127
58	188.82126903533936	fix_pre	0		10.0	56.0	2.5	/experiments/knapen_aot/videos/R_S_yt--5ls65Ue1RA_52.mp4	0.0	321.9506230354309	0.08325600624084473
58	188.89641094207764	response	0	4		56.0	2.5	/experiments/knapen_aot/videos/R_S_yt--5ls65Ue1RA_52.mp4	0.0	322.0257649421692	
58	188.9045250415802	movie	1		301.0	56.0	2.5	/experiments/knapen_aot/videos/R_S_yt--5ls65Ue1RA_52.mp4	0.0	322.03387904167175	2.5083720684051514
58	190.80797910690308	response	1	4		56.0	2.5	/experiments/knapen_aot/videos/R_S_yt--5ls65Ue1RA_52.mp4	0.0	323.93733310699463	
58	191.41289710998535	fix_post	2		12.0	56.0	2.5	/experiments/knapen_aot/videos/R_S_yt--5ls65Ue1RA_52.mp4	0.0	324.5422511100769	0.0999138355255127
58	191.46335005760193	response	2	4		56.0	2.5	/experiments/knapen_aot/videos/R_S_yt--5ls65Ue1RA_52.mp4	0.0	324.5927040576935	
59	191.51281094551086	fix_pre	0		49.0	57.0	2.5	/experiments/knapen_aot/videos/R_S_EFR8AteY59I_15.mp4	0.0	324.6421649456024	0.4085500240325928
59	191.91298699378967	response	0	4		57.0	2.5	/experiments/knapen_aot/videos/R_S_EFR8AteY59I_15.mp4	0.0	325.0423409938812	
59	191.92136096954346	movie	1		301.0	57.0	2.5	/experiments/knapen_aot/videos/R_S_EFR8AteY59I_15.mp4	0.0	325.050714969635	2.50817608833313
59	194.4295370578766	fix_post	2		12.0	57.0	2.5	/experiments/knapen_aot/videos/R_S_EFR8AteY59I_15.mp4	0.0	327.55889105796814	0.10007405281066895
60	194.52961111068726	fix_pre	0		15.0	58.0	2.5	/experiments/knapen_aot/videos/S_AK_A004_C012_SDR_20191217_SDR_2K_AVC.mp4	0.0	327.6589651107788	0.12491202354431152
60	194.6462881565094	response	0	4		58.0	2.5	/experiments/knapen_aot/videos/S_AK_A004_C012_SDR_20191217_SDR_2K_AVC.mp4	0.0	327.77564215660095	
60	194.65452313423157	movie	1		165.0	58.0	2.5	/experiments/knapen_aot/videos/S_AK_A004_C012_SDR_20191217_SDR_2K_AVC.mp4	0.0	327.7838771343231	2.5082998275756836
60	197.16282296180725	fix_post	2		12.0	58.0	2.5	/experiments/knapen_aot/videos/S_AK_A004_C012_SDR_20191217_SDR_2K_AVC.mp4	0.0	330.2921769618988	0.10003519058227539
61	197.26285815238953	fix_pre	0		25.0	59.0	2.5	/experiments/knapen_aot/videos/S_pexels-c-technical-6763571.mp4	0.0	330.3922121524811	0.20824193954467773
61	197.46299600601196	response	0	4		59.0	2.5	/experiments/knapen_aot/videos/S_pexels-c-technical-6763571.mp4	0.0	330.5923500061035	
61	197.4711000919342	movie	1		190.0	59.0	2.5	/experiments/knapen_aot/videos/S_pexels-c-technical-6763571.mp4	0.0	330.60045409202576	2.5084450244903564
61	199.97954511642456	fix_post	2		12.0	59.0	2.5	/experiments/knapen_aot/videos/S_pexels-c-technical-6763571.mp4	0.0	333.1088991165161	0.10003495216369629
62	200.07958006858826	fix_pre	0		32.0	60.0	2.5	/experiments/knapen_aot/videos/S_comp_HK_H004_C001_PSNK_DENOISE_v14_SDR_PS_FINAL_20180731_SDR_2K_AVC.mp4	0.0	333.2089340686798	0.2666308879852295
62	200.338073015213	response	0	4		60.0	2.5	/experiments/knapen_aot/videos/S_comp_HK_H004_C001_PSNK_DENOISE_v14_SDR_PS_FINAL_20180731_SDR_2K_AVC.mp4	0.0	333.46742701530457	
62	200.3462109565735	movie	1		171.0	60.0	2.5	/experiments/knapen_aot/videos/S_comp_HK_H004_C001_PSNK_DENOISE_v14_SDR_PS_FINAL_20180731_SDR_2K_AVC.mp4	0.0	333.47556495666504	2.508327007293701
62	202.8545379638672	fix_post	2		12.0	60.0	2.5	/experiments/knapen_aot/videos/S_comp_HK_H004_C001_PSNK_DENOISE_v14_SDR_PS_FINAL_20180731_SDR_2K_AVC.mp4	0.0	335.98389196395874	0.09995913505554199
63	202.95449709892273	fix_pre	0		54.0	61.0	2.5	blank	1.0	336.0838510990143	0.4500448703765869
63	203.396311044693	response	0	4		61.0	2.5	blank	1.0	336.52566504478455	
63	203.40454196929932	movie	1		301.0	61.0	2.5	blank	1.0	336.53389596939087	2.508331060409546
63	205.91287302970886	fix_post	2		12.0	61.0	2.5	blank	1.0	339.0422270298004	0.10001897811889648
64	206.01289200782776	fix_pre	0		101.0	62.0	2.5	/experiments/knapen_aot/videos/R_S_yt-T1mMDOVjvrE_83.mp4	0.0	339.1422460079193	0.8415689468383789
64	206.8463020324707	response	0	4		62.0	2.5	/experiments/knapen_aot/videos/R_S_yt-T1mMDOVjvrE_83.mp4	0.0	339.97565603256226	
64	206.85446095466614	movie	1		301.0	62.0	2.5	/experiments/knapen_aot/videos/R_S_yt-T1mMDOVjvrE_83.mp4	0.0	339.9838149547577	2.5083000659942627
64	209.3627610206604	fix_post	2		12.0	62.0	2.5	/experiments/knapen_aot/videos/R_S_yt-T1mMDOVjvrE_83.mp4	0.0	342.49211502075195	0.10012006759643555
65	209.46288108825684	fix_pre	0		61.0	63.0	2.5	/experiments/knapen_aot/videos/R_S_yt-CR86bVrRwfo_13.mp4	0.0	342.5922350883484	0.508249044418335
65	209.96293711662292	response	0	4		63.0	2.5	/experiments/knapen_aot/videos/R_S_yt-CR86bVrRwfo_13.mp4	0.0	343.0922911167145	
65	209.97113013267517	movie	1		301.0	63.0	2.5	/experiments/knapen_aot/videos/R_S_yt-CR86bVrRwfo_13.mp4	0.0	343.1004841327667	2.5083539485931396
65	212.3310170173645	response	1	4		63.0	2.5	/experiments/knapen_aot/videos/R_S_yt-CR86bVrRwfo_13.mp4	0.0	345.46037101745605	
65	212.4794840812683	fix_post	2		12.0	63.0	2.5	/experiments/knapen_aot/videos/R_S_yt-CR86bVrRwfo_13.mp4	0.0	345.60883808135986	0.09999585151672363
66	212.57947993278503	fix_pre	0		33.0	64.0	2.5	/experiments/knapen_aot/videos/S_S003_C020_SDR_2K_AVC.mp4	0.0	345.7088339328766	0.2750840187072754
66	212.84629201889038	response	0	4		64.0	2.5	/experiments/knapen_aot/videos/S_S003_C020_SDR_2K_AVC.mp4	0.0	345.97564601898193	
66	212.8545639514923	movie	1		179.0	64.0	2.5	/experiments/knapen_aot/videos/S_S003_C020_SDR_2K_AVC.mp4	0.0	345.98391795158386	2.5083000659942627
66	215.36286401748657	fix_post	2		12.0	64.0	2.5	/experiments/knapen_aot/videos/S_S003_C020_SDR_2K_AVC.mp4	0.0	348.4922180175781	0.09996509552001953
66	215.42131209373474	response	2	4		64.0	2.5	/experiments/knapen_aot/videos/S_S003_C020_SDR_2K_AVC.mp4	0.0	348.5506660938263	
67	215.4628291130066	fix_pre	0		47.0	65.0	2.5	/experiments/knapen_aot/videos/R_S_yt-zlbtESb7Fcw_28.mp4	0.0	348.59218311309814	0.3916459083557129
67	215.84618616104126	response	0	4		65.0	2.5	/experiments/knapen_aot/videos/R_S_yt-zlbtESb7Fcw_28.mp4	0.0	348.9755401611328	
67	215.8544750213623	movie	1		301.0	65.0	2.5	/experiments/knapen_aot/videos/R_S_yt-zlbtESb7Fcw_28.mp4	0.0	348.98382902145386	2.5083980560302734
67	217.40455794334412	response	1	4		65.0	2.5	/experiments/knapen_aot/videos/R_S_yt-zlbtESb7Fcw_28.mp4	0.0	350.53391194343567	
67	218.36287307739258	fix_post	2		12.0	65.0	2.5	/experiments/knapen_aot/videos/R_S_yt-zlbtESb7Fcw_28.mp4	0.0	351.49222707748413	0.09997391700744629
68	218.46284699440002	fix_pre	0		43.0	66.0	2.5	/experiments/knapen_aot/videos/S_production_ID_4873122.mp4	0.0	351.5922009944916	0.35830211639404297
68	218.81295108795166	response	0	4		66.0	2.5	/experiments/knapen_aot/videos/S_production_ID_4873122.mp4	0.0	351.9423050880432	
68	218.82114911079407	movie	1		165.0	66.0	2.5	/experiments/knapen_aot/videos/S_production_ID_4873122.mp4	0.0	351.9505031108856	2.5082309246063232
68	221.3293800354004	fix_post	2		12.0	66.0	2.5	/experiments/knapen_aot/videos/S_production_ID_4873122.mp4	0.0	354.45873403549194	0.10004806518554688
69	221.42942810058594	fix_pre	0		24.0	67.0	2.5	/experiments/knapen_aot/videos/S_yt-G_eNNzNB-hU_1.mp4	0.0	354.5587821006775	0.20000290870666504
69	221.62123107910156	response	0	4		67.0	2.5	/experiments/knapen_aot/videos/S_yt-G_eNNzNB-hU_1.mp4	0.0	354.7505850791931	
69	221.6294310092926	movie	1		301.0	67.0	2.5	/experiments/knapen_aot/videos/S_yt-G_eNNzNB-hU_1.mp4	0.0	354.75878500938416	2.5083351135253906
69	224.137766122818	fix_post	2		12.0	67.0	2.5	/experiments/knapen_aot/videos/S_yt-G_eNNzNB-hU_1.mp4	0.0	357.26712012290955	0.10001492500305176
70	224.23778104782104	fix_pre	0		40.0	68.0	2.5	/experiments/knapen_aot/videos/R_S_yt-4r-oovk9JWg_85.mp4	0.0	357.3671350479126	0.333251953125
70	224.56292414665222	response	0	4		68.0	2.5	/experiments/knapen_aot/videos/R_S_yt-4r-oovk9JWg_85.mp4	0.0	357.6922781467438	
70	224.57103300094604	movie	1		301.0	68.0	2.5	/experiments/knapen_aot/videos/R_S_yt-4r-oovk9JWg_85.mp4	0.0	357.7003870010376	2.508371114730835
70	227.07940411567688	fix_post	2		12.0	68.0	2.5	/experiments/knapen_aot/videos/R_S_yt-4r-oovk9JWg_85.mp4	0.0	360.20875811576843	0.1000208854675293
71	227.1794250011444	fix_pre	0		30.0	69.0	2.5	blank	1.0	360.30877900123596	0.24998807907104492
71	227.42120504379272	response	0	4		69.0	2.5	blank	1.0	360.5505590438843	
71	227.42941308021545	movie	1		301.0	69.0	2.5	blank	1.0	360.558767080307	2.5084378719329834
71	229.93785095214844	fix_post	2		12.0	69.0	2.5	blank	1.0	363.06720495224	0.09990501403808594
72	230.03775596618652	fix_pre	0		24.0	70.0	2.5	/experiments/knapen_aot/videos/R_S_yt-pB9w3AA-woE_37.mp4	0.0	363.1671099662781	0.19988512992858887
72	230.22948503494263	response	0	4		70.0	2.5	/experiments/knapen_aot/videos/R_S_yt-pB9w3AA-woE_37.mp4	0.0	363.3588390350342	
72	230.2376410961151	movie	1		301.0	70.0	2.5	/experiments/knapen_aot/videos/R_S_yt-pB9w3AA-woE_37.mp4	0.0	363.36699509620667	2.508358955383301
72	232.7460000514984	fix_post	2		12.0	70.0	2.5	/experiments/knapen_aot/videos/R_S_yt-pB9w3AA-woE_37.mp4	0.0	365.87535405158997	0.10002899169921875
73	232.84602904319763	fix_pre	0		25.0	71.0	2.5	/experiments/knapen_aot/videos/S_yt-zlbtESb7Fcw_28.mp4	0.0	365.9753830432892	0.20835089683532715
73	233.0461461544037	response	0	4		71.0	2.5	/experiments/knapen_aot/videos/S_yt-zlbtESb7Fcw_28.mp4	0.0	366.17550015449524	
73	233.05437994003296	movie	1		301.0	71.0	2.5	/experiments/knapen_aot/videos/S_yt-zlbtESb7Fcw_28.mp4	0.0	366.1837339401245	2.5084919929504395
73	235.17953205108643	response	1	4		71.0	2.5	/experiments/knapen_aot/videos/S_yt-zlbtESb7Fcw_28.mp4	0.0	368.308886051178	
73	235.5628719329834	fix_post	2		12.0	71.0	2.5	/experiments/knapen_aot/videos/S_yt-zlbtESb7Fcw_28.mp4	0.0	368.69222593307495	0.09984922409057617
74	235.66272115707397	fix_pre	0		92.0	72.0	2.5	/experiments/knapen_aot/videos/R_S_yt-11VGDAOVEag_8.mp4	0.0	368.7920751571655	0.766556978225708
74	236.42111706733704	response	0	4		72.0	2.5	/experiments/knapen_aot/videos/R_S_yt-11VGDAOVEag_8.mp4	0.0	369.5504710674286	
74	236.42927813529968	movie	1		300.0	72.0	2.5	/experiments/knapen_aot/videos/R_S_yt-11VGDAOVEag_8.mp4	0.0	369.55863213539124	2.50848388671875
74	238.5993881225586	response	1	4		72.0	2.5	/experiments/knapen_aot/videos/R_S_yt-11VGDAOVEag_8.mp4	0.0	371.72874212265015	
74	238.93776202201843	fix_post	2		12.0	72.0	2.5	/experiments/knapen_aot/videos/R_S_yt-11VGDAOVEag_8.mp4	0.0	372.06711602211	0.09994697570800781
75	239.03770899772644	fix_pre	0		24.0	73.0	2.5	/experiments/knapen_aot/videos/R_S_yt-Rybd-sKJFz0_78.mp4	0.0	372.167062997818	0.20002007484436035
75	239.22946405410767	response	0	4		73.0	2.5	/experiments/knapen_aot/videos/R_S_yt-Rybd-sKJFz0_78.mp4	0.0	372.3588180541992	
75	239.2377290725708	movie	1		301.0	73.0	2.5	/experiments/knapen_aot/videos/R_S_yt-Rybd-sKJFz0_78.mp4	0.0	372.36708307266235	2.5082850456237793
75	241.47962498664856	response	1	4		73.0	2.5	/experiments/knapen_aot/videos/R_S_yt-Rybd-sKJFz0_78.mp4	0.0	374.6089789867401	
75	241.74601411819458	fix_post	2		12.0	73.0	2.5	/experiments/knapen_aot/videos/R_S_yt-Rybd-sKJFz0_78.mp4	0.0	374.87536811828613	0.09997296333312988
76	241.8459870815277	fix_pre	0		29.0	74.0	2.5	/experiments/knapen_aot/videos/S_yt-CNq5mTA8oXY_176.mp4	0.0	374.97534108161926	0.24164390563964844
76	242.0794551372528	response	0	4		74.0	2.5	/experiments/knapen_aot/videos/S_yt-CNq5mTA8oXY_176.mp4	0.0	375.20880913734436	
76	242.08763098716736	movie	1		301.0	74.0	2.5	/experiments/knapen_aot/videos/S_yt-CNq5mTA8oXY_176.mp4	0.0	375.2169849872589	2.5083200931549072
76	244.59595108032227	fix_post	2		12.0	74.0	2.5	/experiments/knapen_aot/videos/S_yt-CNq5mTA8oXY_176.mp4	0.0	377.7253050804138	0.10004806518554688
77	244.6959991455078	fix_pre	0		9.0	75.0	2.5	/experiments/knapen_aot/videos/R_S_3dzza09VbXY_235.mp4	0.0	377.82535314559937	0.07496380805969238
77	244.76281905174255	response	0	4		75.0	2.5	/experiments/knapen_aot/videos/R_S_3dzza09VbXY_235.mp4	0.0	377.8921730518341	
77	244.7709629535675	movie	1		300.0	75.0	2.5	/experiments/knapen_aot/videos/R_S_3dzza09VbXY_235.mp4	0.0	377.90031695365906	2.5083441734313965
77	247.2793071269989	fix_post	2		12.0	75.0	2.5	/experiments/knapen_aot/videos/R_S_3dzza09VbXY_235.mp4	0.0	380.40866112709045	0.10001802444458008
78	247.37932515144348	fix_pre	0		31.0	76.0	2.5	blank	1.0	380.50867915153503	0.25834083557128906
78	247.6294400691986	response	0	4		76.0	2.5	blank	1.0	380.75879406929016	
78	247.63766598701477	movie	1		301.0	76.0	2.5	blank	1.0	380.7670199871063	2.5082881450653076
78	250.14595413208008	fix_post	2		12.0	76.0	2.5	blank	1.0	383.27530813217163	0.09992480278015137
79	250.24587893486023	fix_pre	0		21.0	77.0	2.5	/experiments/knapen_aot/videos/S_yt-OPzchvF7jO8_53.mp4	0.0	383.3752329349518	0.17522120475769043
79	250.40532612800598	response	0	4		77.0	2.5	/experiments/knapen_aot/videos/S_yt-OPzchvF7jO8_53.mp4	0.0	383.53468012809753	
79	250.42110013961792	movie	1		301.0	77.0	2.5	/experiments/knapen_aot/videos/S_yt-OPzchvF7jO8_53.mp4	0.0	383.5504541397095	2.5081539154052734
79	252.9292540550232	fix_post	2		12.0	77.0	2.5	/experiments/knapen_aot/videos/S_yt-OPzchvF7jO8_53.mp4	0.0	386.05860805511475	0.09995293617248535
80	253.02920699119568	fix_pre	0		3.0	78.0	2.5	/experiments/knapen_aot/videos/R_S_yt-Ub5Xx5BqIOk_74.mp4	0.0	386.15856099128723	0.025082111358642578
80	253.04606795310974	response	0	4		78.0	2.5	/experiments/knapen_aot/videos/R_S_yt-Ub5Xx5BqIOk_74.mp4	0.0	386.1754219532013	
80	253.05428910255432	movie	1		301.0	78.0	2.5	/experiments/knapen_aot/videos/R_S_yt-Ub5Xx5BqIOk_74.mp4	0.0	386.1836431026459	2.508394956588745
80	254.88776016235352	response	1	4		78.0	2.5	/experiments/knapen_aot/videos/R_S_yt-Ub5Xx5BqIOk_74.mp4	0.0	388.01711416244507	
80	255.56268405914307	fix_post	2		12.0	78.0	2.5	/experiments/knapen_aot/videos/R_S_yt-Ub5Xx5BqIOk_74.mp4	0.0	388.6920380592346	0.1000208854675293
81	255.6627049446106	fix_pre	0		17.0	79.0	2.5	/experiments/knapen_aot/videos/S_BO_A018_C029_SDR_20190812_SDR_2K_AVC.mp4	0.0	388.79205894470215	0.1416339874267578
81	255.7960479259491	response	0	4		79.0	2.5	/experiments/knapen_aot/videos/S_BO_A018_C029_SDR_20190812_SDR_2K_AVC.mp4	0.0	388.92540192604065	
81	255.80433893203735	movie	1		164.0	79.0	2.5	/experiments/knapen_aot/videos/S_BO_A018_C029_SDR_20190812_SDR_2K_AVC.mp4	0.0	388.9336929321289	2.5082480907440186
81	257.3787491321564	response	1	4		79.0	2.5	/experiments/knapen_aot/videos/S_BO_A018_C029_SDR_20190812_SDR_2K_AVC.mp4	0.0	390.5081031322479	
81	258.3125870227814	fix_post	2		12.0	79.0	2.5	/experiments/knapen_aot/videos/S_BO_A018_C029_SDR_20190812_SDR_2K_AVC.mp4	0.0	391.4419410228729	0.10001206398010254
82	258.4125990867615	fix_pre	0		21.0	80.0	2.5	/experiments/knapen_aot/videos/S_ILSVRC2015_train_00725000.mp4	0.0	391.541953086853	0.17499589920043945
82	258.57939195632935	response	0	4		80.0	2.5	/experiments/knapen_aot/videos/S_ILSVRC2015_train_00725000.mp4	0.0	391.7087459564209	
82	258.5875949859619	movie	1		301.0	80.0	2.5	/experiments/knapen_aot/videos/S_ILSVRC2015_train_00725000.mp4	0.0	391.71694898605347	2.508286952972412
82	261.0958819389343	fix_post	2		12.0	80.0	2.5	/experiments/knapen_aot/videos/S_ILSVRC2015_train_00725000.mp4	0.0	394.2252359390259	0.10006308555603027
83	261.19594502449036	fix_pre	0		126.0	81.0	2.5	/experiments/knapen_aot/videos/R_S_ILSVRC2015_train_00497001.mp4	0.0	394.3252990245819	1.0511720180511475
83	262.23774313926697	response	0	4		81.0	2.5	/experiments/knapen_aot/videos/R_S_ILSVRC2015_train_00497001.mp4	0.0	395.3670971393585	
83	262.2471170425415	movie	1		300.0	81.0	2.5	/experiments/knapen_aot/videos/R_S_ILSVRC2015_train_00497001.mp4	0.0	395.37647104263306	2.507071018218994
83	264.7541880607605	fix_post	2		12.0	81.0	2.5	/experiments/knapen_aot/videos/R_S_ILSVRC2015_train_00497001.mp4	0.0	397.88354206085205	0.10002398490905762
84	264.85421204566956	fix_pre	0		64.0	82.0	2.5	/experiments/knapen_aot/videos/R_S_yt-zydTlQGCUjQ_277.mp4	0.0	397.9835660457611	0.5334200859069824
84	265.3794319629669	response	0	4		82.0	2.5	/experiments/knapen_aot/videos/R_S_yt-zydTlQGCUjQ_277.mp4	0.0	398.5087859630585	
84	265.38763213157654	movie	1		301.0	82.0	2.5	/experiments/knapen_aot/videos/R_S_yt-zydTlQGCUjQ_277.mp4	0.0	398.5169861316681	2.5082340240478516
84	267.8958661556244	fix_post	2		12.0	82.0	2.5	/experiments/knapen_aot/videos/R_S_yt-zydTlQGCUjQ_277.mp4	0.0	401.02522015571594	0.09997296333312988
85	267.9958391189575	fix_pre	0		27.0	83.0	2.5	blank	1.0	401.1251931190491	0.22500896453857422
85	268.21271300315857	response	0	4		83.0	2.5	blank	1.0	401.3420670032501	
85	268.2208480834961	movie	1		301.0	83.0	2.5	blank	1.0	401.35020208358765	2.5083329677581787
85	270.7291810512543	fix_post	2		12.0	83.0	2.5	blank	1.0	403.8585350513458	0.10001587867736816
87	270.82919692993164	stim	0		61.0					403.9585509300232	0.5083630084991455
87	271.12926411628723	response	0	4						404.2586181163788	
87	271.3333110809326	response	0	space						404.46266508102417	
