trial_nr	onset	event_type	phase	response	nr_frames	movie_index	movie_duration	movie_file	blank	onset_abs	duration
0	0.13104820251464844	stim	0		105.0					70.83375310897827	0.877079963684082
0	0.9933199882507324	response	0	space						71.69602489471436	
1	1.0081281661987305	stim	0		121.0					71.71083307266235	1.0081188678741455
1	1.674673080444336	response	0	space						72.37737798690796	
1	2.016247034072876	stim	1		120.0					72.7189519405365	0.9999990463256836
1	2.0754411220550537	response	1	space						72.77814602851868	
1	2.4495689868927	response	1	space						73.15227389335632	
1	2.8080170154571533	response	1	space						73.51072192192078	
2	3.0162460803985596	fix_pre	0		13.0	0.0	2.5	/experiments/knapen_aot/videos/R_S_yt-X6ivH9SqGu8_306.mp4	0.0	73.71895098686218	0.10829591751098633
2	3.1163270473480225	response	0	space		0.0	2.5	/experiments/knapen_aot/videos/R_S_yt-X6ivH9SqGu8_306.mp4	0.0	73.81903195381165	
2	3.124541997909546	movie	1		300.0	0.0	2.5	/experiments/knapen_aot/videos/R_S_yt-X6ivH9SqGu8_306.mp4	0.0	73.82724690437317	2.5083470344543457
2	3.227919101715088	response	1	2		0.0	2.5	/experiments/knapen_aot/videos/R_S_yt-X6ivH9SqGu8_306.mp4	0.0	73.93062400817871	
2	5.632889032363892	fix_post	2		12.0	0.0	2.5	/experiments/knapen_aot/videos/R_S_yt-X6ivH9SqGu8_306.mp4	0.0	76.33559393882751	0.10006499290466309
3	5.732954025268555	fix_pre	0		10.0	1.0	2.5	/experiments/knapen_aot/videos/S_ILSVRC2015_test_00004002.mp4	0.0	76.43565893173218	0.08327698707580566
3	5.808061122894287	response	0	2		1.0	2.5	/experiments/knapen_aot/videos/S_ILSVRC2015_test_00004002.mp4	0.0	76.51076602935791	
3	5.81623101234436	movie	1		301.0	1.0	2.5	/experiments/knapen_aot/videos/S_ILSVRC2015_test_00004002.mp4	0.0	76.51893591880798	2.508296012878418
3	8.324527025222778	fix_post	2		12.0	1.0	2.5	/experiments/knapen_aot/videos/S_ILSVRC2015_test_00004002.mp4	0.0	79.0272319316864	0.09993815422058105
4	8.42446517944336	fix_pre	0		29.0	2.0	2.5	/experiments/knapen_aot/videos/S_bing-www_yahoo_com_entertainment_anastasia-karanikolaou-chantel-jeffries-discuss-182400502_html_9.mp4	0.0	79.12717008590698	0.2417299747467041
4	8.650561094284058	response	0	2		2.0	2.5	/experiments/knapen_aot/videos/S_bing-www_yahoo_com_entertainment_anastasia-karanikolaou-chantel-jeffries-discuss-182400502_html_9.mp4	0.0	79.35326600074768	
4	8.666195154190063	movie	1		163.0	2.0	2.5	/experiments/knapen_aot/videos/S_bing-www_yahoo_com_entertainment_anastasia-karanikolaou-chantel-jeffries-discuss-182400502_html_9.mp4	0.0	79.36890006065369	2.5083088874816895
4	11.174504041671753	fix_post	2		12.0	2.0	2.5	/experiments/knapen_aot/videos/S_bing-www_yahoo_com_entertainment_anastasia-karanikolaou-chantel-jeffries-discuss-182400502_html_9.mp4	0.0	81.87720894813538	0.1000521183013916
5	11.274556159973145	fix_pre	0		20.0	3.0	2.5	/experiments/knapen_aot/videos/S_ILSVRC2015_train_00463000.mp4	0.0	81.97726106643677	0.16663694381713867
5	11.432964086532593	response	0	2		3.0	2.5	/experiments/knapen_aot/videos/S_ILSVRC2015_train_00463000.mp4	0.0	82.13566899299622	
5	11.441193103790283	movie	1		301.0	3.0	2.5	/experiments/knapen_aot/videos/S_ILSVRC2015_train_00463000.mp4	0.0	82.1438980102539	2.5083460807800293
5	13.949539184570312	fix_post	2		12.0	3.0	2.5	/experiments/knapen_aot/videos/S_ILSVRC2015_train_00463000.mp4	0.0	84.65224409103394	0.09993982315063477
6	14.049479007720947	fix_pre	0		43.0	4.0	2.5	/experiments/knapen_aot/videos/R_S_yt-FsylDeYfcxU_24.mp4	0.0	84.75218391418457	0.35889315605163574
6	14.399643182754517	response	0	2		4.0	2.5	/experiments/knapen_aot/videos/R_S_yt-FsylDeYfcxU_24.mp4	0.0	85.10234808921814	
6	14.408372163772583	movie	1		301.0	4.0	2.5	/experiments/knapen_aot/videos/R_S_yt-FsylDeYfcxU_24.mp4	0.0	85.1110770702362	2.5077908039093018
6	16.916162967681885	fix_post	2		12.0	4.0	2.5	/experiments/knapen_aot/videos/R_S_yt-FsylDeYfcxU_24.mp4	0.0	87.61886787414551	0.09994816780090332
7	17.016111135482788	fix_pre	0		36.0	5.0	2.5	/experiments/knapen_aot/videos/S_ILSVRC2015_train_00495000.mp4	0.0	87.71881604194641	0.30005598068237305
7	17.30786919593811	response	0	2		5.0	2.5	/experiments/knapen_aot/videos/S_ILSVRC2015_train_00495000.mp4	0.0	88.01057410240173	
7	17.31616711616516	movie	1		301.0	5.0	2.5	/experiments/knapen_aot/videos/S_ILSVRC2015_train_00495000.mp4	0.0	88.01887202262878	2.5083279609680176
7	19.82449507713318	fix_post	2		12.0	5.0	2.5	/experiments/knapen_aot/videos/S_ILSVRC2015_train_00495000.mp4	0.0	90.5271999835968	0.09998703002929688
8	19.924482107162476	fix_pre	0		43.0	6.0	2.5	/experiments/knapen_aot/videos/S_ILSVRC2015_train_00484001.mp4	0.0	90.6271870136261	0.3588600158691406
8	20.274507999420166	response	0	2		6.0	2.5	/experiments/knapen_aot/videos/S_ILSVRC2015_train_00484001.mp4	0.0	90.97721290588379	
8	20.283342123031616	movie	1		301.0	6.0	2.5	/experiments/knapen_aot/videos/S_ILSVRC2015_train_00484001.mp4	0.0	90.98604702949524	2.507801055908203
8	22.79114317893982	fix_post	2		12.0	6.0	2.5	/experiments/knapen_aot/videos/S_ILSVRC2015_train_00484001.mp4	0.0	93.49384808540344	0.09993195533752441
9	22.891075134277344	fix_pre	0		24.0	7.0	2.5	blank	1.0	93.59378004074097	0.20005202293395996
9	23.08302116394043	response	0	2		7.0	2.5	blank	1.0	93.78572607040405	
9	23.091127157211304	movie	1		301.0	7.0	2.5	blank	1.0	93.79383206367493	2.5083529949188232
9	25.599480152130127	fix_post	2		12.0	7.0	2.5	blank	1.0	96.30218505859375	0.10047101974487305
10	25.699951171875	fix_pre	0		25.0	8.0	2.5	/experiments/knapen_aot/videos/S_comp_LA_A011_C003_DGRN_LNFIX_STAB_v57_SDR_PS_20181002_SDR_2K_AVC.mp4	0.0	96.40265607833862	0.20828890800476074
10	25.899574995040894	response	0	2		8.0	2.5	/experiments/knapen_aot/videos/S_comp_LA_A011_C003_DGRN_LNFIX_STAB_v57_SDR_PS_20181002_SDR_2K_AVC.mp4	0.0	96.60227990150452	
10	25.90824007987976	movie	1		165.0	8.0	2.5	/experiments/knapen_aot/videos/S_comp_LA_A011_C003_DGRN_LNFIX_STAB_v57_SDR_PS_20181002_SDR_2K_AVC.mp4	0.0	96.61094498634338	2.50785493850708
10	28.41609501838684	fix_post	2		12.0	8.0	2.5	/experiments/knapen_aot/videos/S_comp_LA_A011_C003_DGRN_LNFIX_STAB_v57_SDR_PS_20181002_SDR_2K_AVC.mp4	0.0	99.11879992485046	0.10002303123474121
11	28.516118049621582	fix_pre	0		27.0	9.0	2.5	/experiments/knapen_aot/videos/S_comp_H005_C012_PS_v01_SDR_PS_20180925_SDR_2K_AVC.mp4	0.0	99.2188229560852	0.22543096542358398
11	28.733160972595215	response	0	2		9.0	2.5	/experiments/knapen_aot/videos/S_comp_H005_C012_PS_v01_SDR_PS_20180925_SDR_2K_AVC.mp4	0.0	99.43586587905884	
11	28.741549015045166	movie	1		169.0	9.0	2.5	/experiments/knapen_aot/videos/S_comp_H005_C012_PS_v01_SDR_PS_20180925_SDR_2K_AVC.mp4	0.0	99.44425392150879	2.5080301761627197
11	31.249579191207886	fix_post	2		12.0	9.0	2.5	/experiments/knapen_aot/videos/S_comp_H005_C012_PS_v01_SDR_PS_20180925_SDR_2K_AVC.mp4	0.0	101.95228409767151	0.09990477561950684
12	31.349483966827393	fix_pre	0		29.0	10.0	2.5	/experiments/knapen_aot/videos/S_yt-JG2OY_7B-gI_537.mp4	0.0	102.05218887329102	0.24158906936645508
12	31.58287501335144	response	0	2		10.0	2.5	/experiments/knapen_aot/videos/S_yt-JG2OY_7B-gI_537.mp4	0.0	102.28557991981506	
12	31.591073036193848	movie	1		301.0	10.0	2.5	/experiments/knapen_aot/videos/S_yt-JG2OY_7B-gI_537.mp4	0.0	102.29377794265747	2.5083720684051514
12	34.099445104599	fix_post	2		12.0	10.0	2.5	/experiments/knapen_aot/videos/S_yt-JG2OY_7B-gI_537.mp4	0.0	104.80215001106262	0.10039806365966797
13	34.19984316825867	fix_pre	0		36.0	11.0	2.5	/experiments/knapen_aot/videos/S_yt-9EnchawJ3pA_90.mp4	0.0	104.90254807472229	0.29964399337768555
13	34.483723163604736	response	0	2		11.0	2.5	/experiments/knapen_aot/videos/S_yt-9EnchawJ3pA_90.mp4	0.0	105.18642807006836	
13	34.49948716163635	movie	1		301.0	11.0	2.5	/experiments/knapen_aot/videos/S_yt-9EnchawJ3pA_90.mp4	0.0	105.20219206809998	2.508188009262085
13	37.00767517089844	fix_post	2		12.0	11.0	2.5	/experiments/knapen_aot/videos/S_yt-9EnchawJ3pA_90.mp4	0.0	107.71038007736206	0.1001129150390625
14	37.1077880859375	fix_pre	0		8.0	12.0	2.5	blank	1.0	107.81049299240112	0.06683111190795898
14	37.16636300086975	response	0	2		12.0	2.5	blank	1.0	107.86906790733337	
14	37.17461919784546	movie	1		301.0	12.0	2.5	blank	1.0	107.87732410430908	2.508178949356079
14	39.68279814720154	fix_post	2		12.0	12.0	2.5	blank	1.0	110.38550305366516	0.09997391700744629
15	39.782772064208984	fix_pre	0		36.0	13.0	2.5	/experiments/knapen_aot/videos/S_yt-Gam0NeyyG8w_22.mp4	0.0	110.48547697067261	0.2999389171600342
15	40.07458019256592	response	0	2		13.0	2.5	/experiments/knapen_aot/videos/S_yt-Gam0NeyyG8w_22.mp4	0.0	110.77728509902954	
15	40.08271098136902	movie	1		301.0	13.0	2.5	/experiments/knapen_aot/videos/S_yt-Gam0NeyyG8w_22.mp4	0.0	110.78541588783264	2.5082809925079346
15	42.59099197387695	fix_post	2		12.0	13.0	2.5	/experiments/knapen_aot/videos/S_yt-Gam0NeyyG8w_22.mp4	0.0	113.29369688034058	0.10005712509155273
16	42.691049098968506	fix_pre	0		34.0	14.0	2.5	/experiments/knapen_aot/videos/R_S_yt-HRuCkU_kBoE_239.mp4	0.0	113.39375400543213	0.28327202796936035
16	42.966176986694336	response	0	2		14.0	2.5	/experiments/knapen_aot/videos/R_S_yt-HRuCkU_kBoE_239.mp4	0.0	113.66888189315796	
16	42.974321126937866	movie	1		301.0	14.0	2.5	/experiments/knapen_aot/videos/R_S_yt-HRuCkU_kBoE_239.mp4	0.0	113.67702603340149	2.508344888687134
16	45.482666015625	fix_post	2		12.0	14.0	2.5	/experiments/knapen_aot/videos/R_S_yt-HRuCkU_kBoE_239.mp4	0.0	116.18537092208862	0.10004305839538574
17	45.582709074020386	fix_pre	0		40.0	15.0	2.5	/experiments/knapen_aot/videos/R_S_ILSVRC2015_test_00001002.mp4	0.0	116.28541398048401	0.3333320617675781
17	45.907809019088745	response	0	2		15.0	2.5	/experiments/knapen_aot/videos/R_S_ILSVRC2015_test_00001002.mp4	0.0	116.61051392555237	
17	45.916041135787964	movie	1		301.0	15.0	2.5	/experiments/knapen_aot/videos/R_S_ILSVRC2015_test_00001002.mp4	0.0	116.61874604225159	2.5083260536193848
17	48.42436718940735	fix_post	2		12.0	15.0	2.5	/experiments/knapen_aot/videos/R_S_ILSVRC2015_test_00001002.mp4	0.0	119.12707209587097	0.10003995895385742
18	48.524407148361206	fix_pre	0		39.0	16.0	2.5	/experiments/knapen_aot/videos/S_yt-uSHBdUi8_V0_24.mp4	0.0	119.22711205482483	0.32508087158203125
18	48.84119009971619	response	0	2		16.0	2.5	/experiments/knapen_aot/videos/S_yt-uSHBdUi8_V0_24.mp4	0.0	119.54389500617981	
18	48.84948801994324	movie	1		301.0	16.0	2.5	/experiments/knapen_aot/videos/S_yt-uSHBdUi8_V0_24.mp4	0.0	119.55219292640686	2.508286952972412
18	51.35777497291565	fix_post	2		12.0	16.0	2.5	/experiments/knapen_aot/videos/S_yt-uSHBdUi8_V0_24.mp4	0.0	122.06047987937927	0.0998830795288086
19	51.45765805244446	fix_pre	0		29.0	17.0	2.5	/experiments/knapen_aot/videos/R_S_yt-y6zr69M0yHI_76.mp4	0.0	122.16036295890808	0.24197912216186523
19	51.69116497039795	response	0	2		17.0	2.5	/experiments/knapen_aot/videos/R_S_yt-y6zr69M0yHI_76.mp4	0.0	122.39386987686157	
19	51.69963717460632	movie	1		301.0	17.0	2.5	/experiments/knapen_aot/videos/R_S_yt-y6zr69M0yHI_76.mp4	0.0	122.40234208106995	2.5080149173736572
19	53.93596005439758	response	1	2		17.0	2.5	/experiments/knapen_aot/videos/R_S_yt-y6zr69M0yHI_76.mp4	0.0	124.6386649608612	
19	54.20765209197998	fix_post	2		12.0	17.0	2.5	/experiments/knapen_aot/videos/R_S_yt-y6zr69M0yHI_76.mp4	0.0	124.9103569984436	0.10000300407409668
20	54.30765509605408	fix_pre	0		44.0	18.0	2.5	/experiments/knapen_aot/videos/R_S_bing-www_dailymotion_com_video_x64c56w_164.mp4	0.0	125.0103600025177	0.3667891025543213
20	54.66612720489502	response	0	2		18.0	2.5	/experiments/knapen_aot/videos/R_S_bing-www_dailymotion_com_video_x64c56w_164.mp4	0.0	125.36883211135864	
20	54.6744441986084	movie	1		164.0	18.0	2.5	/experiments/knapen_aot/videos/R_S_bing-www_dailymotion_com_video_x64c56w_164.mp4	0.0	125.37714910507202	2.508220911026001
20	57.1826651096344	fix_post	2		12.0	18.0	2.5	/experiments/knapen_aot/videos/R_S_bing-www_dailymotion_com_video_x64c56w_164.mp4	0.0	127.88537001609802	0.0999610424041748
21	57.282626152038574	fix_pre	0		86.0	19.0	2.5	/experiments/knapen_aot/videos/R_S_production_ID_4325516.mp4	0.0	127.9853310585022	0.7166249752044678
21	57.99115800857544	response	0	2		19.0	2.5	/experiments/knapen_aot/videos/R_S_production_ID_4325516.mp4	0.0	128.69386291503906	
21	57.99925112724304	movie	1		211.0	19.0	2.5	/experiments/knapen_aot/videos/R_S_production_ID_4325516.mp4	0.0	128.70195603370667	2.508427858352661
21	60.5076789855957	fix_post	2		12.0	19.0	2.5	/experiments/knapen_aot/videos/R_S_production_ID_4325516.mp4	0.0	131.21038389205933	0.100006103515625
22	60.60768508911133	fix_pre	0		100.0	20.0	2.5	blank	1.0	131.31038999557495	0.8333048820495605
22	61.432785987854004	response	0	2		20.0	2.5	blank	1.0	132.13549089431763	
22	61.44098997116089	movie	1		301.0	20.0	2.5	blank	1.0	132.1436948776245	2.508418083190918
22	63.94940805435181	fix_post	2		12.0	20.0	2.5	blank	1.0	134.65211296081543	0.09993505477905273
23	64.04934310913086	fix_pre	0		38.0	21.0	2.5	/experiments/knapen_aot/videos/R_S_yt-kAUL5o7i5mo_116.mp4	0.0	134.75204801559448	0.31690096855163574
23	64.357666015625	response	0	2		21.0	2.5	/experiments/knapen_aot/videos/R_S_yt-kAUL5o7i5mo_116.mp4	0.0	135.06037092208862	
23	64.3662440776825	movie	1		301.0	21.0	2.5	/experiments/knapen_aot/videos/R_S_yt-kAUL5o7i5mo_116.mp4	0.0	135.06894898414612	2.5081100463867188
23	66.87435412406921	fix_post	2		12.0	21.0	2.5	/experiments/knapen_aot/videos/R_S_yt-kAUL5o7i5mo_116.mp4	0.0	137.57705903053284	0.09998703002929688
24	66.97434115409851	fix_pre	0		31.0	22.0	2.5	/experiments/knapen_aot/videos/S_pexels-koolshooters-7689098.mp4	0.0	137.67704606056213	0.25821685791015625
24	67.21700119972229	response	0	2		22.0	2.5	/experiments/knapen_aot/videos/S_pexels-koolshooters-7689098.mp4	0.0	137.9197061061859	
24	67.23255801200867	movie	1		171.0	22.0	2.5	/experiments/knapen_aot/videos/S_pexels-koolshooters-7689098.mp4	0.0	137.9352629184723	2.508439064025879
24	69.06616711616516	response	1	2		22.0	2.5	/experiments/knapen_aot/videos/S_pexels-koolshooters-7689098.mp4	0.0	139.76887202262878	
24	69.74099707603455	fix_post	2		12.0	22.0	2.5	/experiments/knapen_aot/videos/S_pexels-koolshooters-7689098.mp4	0.0	140.44370198249817	0.09992194175720215
25	69.84091901779175	fix_pre	0		36.0	23.0	2.5	/experiments/knapen_aot/videos/S_yt-c-H45QS0CF4_147.mp4	0.0	140.54362392425537	0.2999880313873291
25	70.13274097442627	response	0	2		23.0	2.5	/experiments/knapen_aot/videos/S_yt-c-H45QS0CF4_147.mp4	0.0	140.8354458808899	
25	70.14090704917908	movie	1		299.0	23.0	2.5	/experiments/knapen_aot/videos/S_yt-c-H45QS0CF4_147.mp4	0.0	140.8436119556427	2.5083999633789062
25	72.64930701255798	fix_post	2		12.0	23.0	2.5	/experiments/knapen_aot/videos/S_yt-c-H45QS0CF4_147.mp4	0.0	143.3520119190216	0.09995508193969727
26	72.74926209449768	fix_pre	0		78.0	24.0	2.5	/experiments/knapen_aot/videos/S_yt-nCNZ87Tio1M_1.mp4	0.0	143.4519670009613	0.6499979496002197
26	73.38347315788269	response	0	2		24.0	2.5	/experiments/knapen_aot/videos/S_yt-nCNZ87Tio1M_1.mp4	0.0	144.0861780643463	
26	73.3992600440979	movie	1		301.0	24.0	2.5	/experiments/knapen_aot/videos/S_yt-nCNZ87Tio1M_1.mp4	0.0	144.10196495056152	2.508296012878418
26	75.90755605697632	fix_post	2		12.0	24.0	2.5	/experiments/knapen_aot/videos/S_yt-nCNZ87Tio1M_1.mp4	0.0	146.61026096343994	0.10001611709594727
27	76.00757217407227	fix_pre	0		24.0	25.0	2.5	/experiments/knapen_aot/videos/S_ILSVRC2015_train_00538001.mp4	0.0	146.7102770805359	0.20003700256347656
27	76.19938206672668	response	0	2		25.0	2.5	/experiments/knapen_aot/videos/S_ILSVRC2015_train_00538001.mp4	0.0	146.9020869731903	
27	76.20760917663574	movie	1		301.0	25.0	2.5	/experiments/knapen_aot/videos/S_ILSVRC2015_train_00538001.mp4	0.0	146.91031408309937	2.508356809616089
27	78.71596598625183	fix_post	2		12.0	25.0	2.5	/experiments/knapen_aot/videos/S_ILSVRC2015_train_00538001.mp4	0.0	149.41867089271545	0.09999799728393555
28	78.81596398353577	fix_pre	0		34.0	26.0	2.5	/experiments/knapen_aot/videos/R_S_yt-Uv0dt_-fWJU_40.mp4	0.0	149.5186688899994	0.2833280563354492
28	79.0910701751709	response	0	2		26.0	2.5	/experiments/knapen_aot/videos/R_S_yt-Uv0dt_-fWJU_40.mp4	0.0	149.79377508163452	
28	79.09929203987122	movie	1		301.0	26.0	2.5	/experiments/knapen_aot/videos/R_S_yt-Uv0dt_-fWJU_40.mp4	0.0	149.80199694633484	2.508463144302368
28	81.60775518417358	fix_post	2		12.0	26.0	2.5	/experiments/knapen_aot/videos/R_S_yt-Uv0dt_-fWJU_40.mp4	0.0	152.3104600906372	0.09987783432006836
29	81.70763301849365	fix_pre	0		36.0	27.0	2.5	blank	1.0	152.41033792495728	0.29999518394470215
29	81.99938607215881	response	0	2		27.0	2.5	blank	1.0	152.70209097862244	
29	82.00762820243835	movie	1		301.0	27.0	2.5	blank	1.0	152.71033310890198	2.5083179473876953
29	84.51594614982605	fix_post	2		12.0	27.0	2.5	blank	1.0	155.21865105628967	0.10013484954833984
30	84.61608099937439	fix_pre	0		32.0	28.0	2.5	/experiments/knapen_aot/videos/S_Y009_C015_SDR_2K_AVC.mp4	0.0	155.318785905838	0.2664921283721924
30	84.8743941783905	response	0	2		28.0	2.5	/experiments/knapen_aot/videos/S_Y009_C015_SDR_2K_AVC.mp4	0.0	155.57709908485413	
30	84.88257312774658	movie	1		171.0	28.0	2.5	/experiments/knapen_aot/videos/S_Y009_C015_SDR_2K_AVC.mp4	0.0	155.5852780342102	2.508341073989868
30	87.39091420173645	fix_post	2		12.0	28.0	2.5	/experiments/knapen_aot/videos/S_Y009_C015_SDR_2K_AVC.mp4	0.0	158.09361910820007	0.10017585754394531
31	87.4910900592804	fix_pre	0		14.0	29.0	2.5	/experiments/knapen_aot/videos/R_S_yt-FsylDeYfcxU_24.mp4	0.0	158.19379496574402	0.11644196510314941
31	87.5993161201477	response	0	2		29.0	2.5	/experiments/knapen_aot/videos/R_S_yt-FsylDeYfcxU_24.mp4	0.0	158.30202102661133	
31	87.60753202438354	movie	1		300.0	29.0	2.5	/experiments/knapen_aot/videos/R_S_yt-FsylDeYfcxU_24.mp4	0.0	158.31023693084717	2.5084710121154785
31	90.11600303649902	fix_post	2		12.0	29.0	2.5	/experiments/knapen_aot/videos/R_S_yt-FsylDeYfcxU_24.mp4	0.0	160.81870794296265	0.09990215301513672
32	90.21590518951416	fix_pre	0		35.0	30.0	2.5	/experiments/knapen_aot/videos/S_production_ID_3761571.mp4	0.0	160.91861009597778	0.2916848659515381
32	90.49935817718506	response	0	2		30.0	2.5	/experiments/knapen_aot/videos/S_production_ID_3761571.mp4	0.0	161.20206308364868	
32	90.5075900554657	movie	1		161.0	30.0	2.5	/experiments/knapen_aot/videos/S_production_ID_3761571.mp4	0.0	161.21029496192932	2.508331060409546
32	93.01592111587524	fix_post	2		12.0	30.0	2.5	/experiments/knapen_aot/videos/S_production_ID_3761571.mp4	0.0	163.71862602233887	0.10011887550354004
33	93.11603999137878	fix_pre	0		21.0	31.0	2.5	/experiments/knapen_aot/videos/S_ILSVRC2015_train_00473000.mp4	0.0	163.8187448978424	0.17489004135131836
33	93.28269720077515	response	0	2		31.0	2.5	/experiments/knapen_aot/videos/S_ILSVRC2015_train_00473000.mp4	0.0	163.98540210723877	
33	93.2909300327301	movie	1		300.0	31.0	2.5	/experiments/knapen_aot/videos/S_ILSVRC2015_train_00473000.mp4	0.0	163.99363493919373	2.508247137069702
33	95.7991771697998	fix_post	2		12.0	31.0	2.5	/experiments/knapen_aot/videos/S_ILSVRC2015_train_00473000.mp4	0.0	166.50188207626343	0.09996390342712402
34	95.89914107322693	fix_pre	0		102.0	32.0	2.5	/experiments/knapen_aot/videos/R_S_ILSVRC2015_train_00743000.mp4	0.0	166.60184597969055	0.8499429225921631
34	96.74103212356567	response	0	2		32.0	2.5	/experiments/knapen_aot/videos/R_S_ILSVRC2015_train_00743000.mp4	0.0	167.4437370300293	
34	96.74908399581909	movie	1		301.0	32.0	2.5	/experiments/knapen_aot/videos/R_S_ILSVRC2015_train_00743000.mp4	0.0	167.45178890228271	2.508453130722046
34	99.25753712654114	fix_post	2		12.0	32.0	2.5	/experiments/knapen_aot/videos/R_S_ILSVRC2015_train_00743000.mp4	0.0	169.96024203300476	0.09999394416809082
35	99.35753107070923	fix_pre	0		28.0	33.0	2.5	/experiments/knapen_aot/videos/R_S_production_ID_3761571.mp4	0.0	170.06023597717285	0.23334097862243652
35	99.58272910118103	response	0	2		33.0	2.5	/experiments/knapen_aot/videos/R_S_production_ID_3761571.mp4	0.0	170.28543400764465	
35	99.59087204933167	movie	1		161.0	33.0	2.5	/experiments/knapen_aot/videos/R_S_production_ID_3761571.mp4	0.0	170.2935769557953	2.5084071159362793
35	102.09927916526794	fix_post	2		12.0	33.0	2.5	/experiments/knapen_aot/videos/R_S_production_ID_3761571.mp4	0.0	172.80198407173157	0.09999394416809082
36	102.19927310943604	fix_pre	0		31.0	34.0	2.5	blank	1.0	172.90197801589966	0.2582540512084961
36	102.44928216934204	response	0	2		34.0	2.5	blank	1.0	173.15198707580566	
36	102.45752716064453	movie	1		301.0	34.0	2.5	blank	1.0	173.16023206710815	2.5083420276641846
36	104.96586918830872	fix_post	2		12.0	34.0	2.5	blank	1.0	175.66857409477234	0.0999298095703125
37	105.06579899787903	fix_pre	0		53.0	35.0	2.5	/experiments/knapen_aot/videos/R_S_bing-www_dailymotion_com_video_x64c56w_164.mp4	0.0	175.76850390434265	0.44164609909057617
37	105.49928307533264	response	0	2		35.0	2.5	/experiments/knapen_aot/videos/R_S_bing-www_dailymotion_com_video_x64c56w_164.mp4	0.0	176.20198798179626	
37	105.5074450969696	movie	1		166.0	35.0	2.5	/experiments/knapen_aot/videos/R_S_bing-www_dailymotion_com_video_x64c56w_164.mp4	0.0	176.21015000343323	2.5084140300750732
37	108.01585912704468	fix_post	2		12.0	35.0	2.5	/experiments/knapen_aot/videos/R_S_bing-www_dailymotion_com_video_x64c56w_164.mp4	0.0	178.7185640335083	0.10002684593200684
38	108.11588597297668	fix_pre	0		30.0	36.0	2.5	/experiments/knapen_aot/videos/S_yt-Fm97IY0Z2LU_110.mp4	0.0	178.8185908794403	0.24996519088745117
38	108.35764217376709	response	0	2		36.0	2.5	/experiments/knapen_aot/videos/S_yt-Fm97IY0Z2LU_110.mp4	0.0	179.0603470802307	
38	108.36585116386414	movie	1		301.0	36.0	2.5	/experiments/knapen_aot/videos/S_yt-Fm97IY0Z2LU_110.mp4	0.0	179.06855607032776	2.508359909057617
38	110.87421107292175	fix_post	2		12.0	36.0	2.5	/experiments/knapen_aot/videos/S_yt-Fm97IY0Z2LU_110.mp4	0.0	181.57691597938538	0.09995889663696289
39	110.97416996955872	fix_pre	0		36.0	37.0	2.5	/experiments/knapen_aot/videos/S_ILSVRC2015_train_00638000.mp4	0.0	181.67687487602234	0.29997801780700684
39	111.26587510108948	response	0	2		37.0	2.5	/experiments/knapen_aot/videos/S_ILSVRC2015_train_00638000.mp4	0.0	181.9685800075531	
39	111.27414798736572	movie	1		301.0	37.0	2.5	/experiments/knapen_aot/videos/S_ILSVRC2015_train_00638000.mp4	0.0	181.97685289382935	2.5083260536193848
39	113.78247404098511	fix_post	2		12.0	37.0	2.5	/experiments/knapen_aot/videos/S_ILSVRC2015_train_00638000.mp4	0.0	184.48517894744873	0.09996414184570312
40	113.88243818283081	fix_pre	0		33.0	38.0	2.5	/experiments/knapen_aot/videos/S_yt-szXWk_X_67Q_10.mp4	0.0	184.58514308929443	0.2749907970428467
40	114.14172005653381	response	0	2		38.0	2.5	/experiments/knapen_aot/videos/S_yt-szXWk_X_67Q_10.mp4	0.0	184.84442496299744	
40	114.15742897987366	movie	1		301.0	38.0	2.5	/experiments/knapen_aot/videos/S_yt-szXWk_X_67Q_10.mp4	0.0	184.86013388633728	2.508362054824829
40	116.66579103469849	fix_post	2		12.0	38.0	2.5	/experiments/knapen_aot/videos/S_yt-szXWk_X_67Q_10.mp4	0.0	187.3684959411621	0.09993100166320801
41	116.7657220363617	fix_pre	0		35.0	39.0	2.5	/experiments/knapen_aot/videos/R_S_yt-BJsMGxfjrZk_59.mp4	0.0	187.46842694282532	0.29171299934387207
41	117.0492491722107	response	0	2		39.0	2.5	/experiments/knapen_aot/videos/R_S_yt-BJsMGxfjrZk_59.mp4	0.0	187.75195407867432	
41	117.05743503570557	movie	1		301.0	39.0	2.5	/experiments/knapen_aot/videos/R_S_yt-BJsMGxfjrZk_59.mp4	0.0	187.7601399421692	2.5082321166992188
41	119.56566715240479	fix_post	2		12.0	39.0	2.5	/experiments/knapen_aot/videos/R_S_yt-BJsMGxfjrZk_59.mp4	0.0	190.2683720588684	0.10007691383361816
42	119.6657440662384	fix_pre	0		18.0	40.0	2.5	blank	1.0	190.36844897270203	0.14995408058166504
42	119.79996013641357	response	0	2		40.0	2.5	blank	1.0	190.5026650428772	
42	119.81569814682007	movie	1		301.0	40.0	2.5	blank	1.0	190.5184030532837	2.508384943008423
42	122.32408308982849	fix_post	2		12.0	40.0	2.5	blank	1.0	193.02678799629211	0.09997987747192383
43	122.42406296730042	fix_pre	0		34.0	41.0	2.5	/experiments/knapen_aot/videos/R_S_yt-z16pdVTZK1o_3.mp4	0.0	193.12676787376404	0.28333520889282227
43	122.69920206069946	response	0	2		41.0	2.5	/experiments/knapen_aot/videos/R_S_yt-z16pdVTZK1o_3.mp4	0.0	193.4019069671631	
43	122.70739817619324	movie	1		301.0	41.0	2.5	/experiments/knapen_aot/videos/R_S_yt-z16pdVTZK1o_3.mp4	0.0	193.41010308265686	2.5084760189056396
43	125.21587419509888	fix_post	2		12.0	41.0	2.5	/experiments/knapen_aot/videos/R_S_yt-z16pdVTZK1o_3.mp4	0.0	195.9185791015625	0.09983181953430176
44	125.31570601463318	fix_pre	0		32.0	42.0	2.5	/experiments/knapen_aot/videos/S_yt--Ou506YF3mY_106.mp4	0.0	196.0184109210968	0.26666998863220215
44	125.57421016693115	response	0	2		42.0	2.5	/experiments/knapen_aot/videos/S_yt--Ou506YF3mY_106.mp4	0.0	196.27691507339478	
44	125.58237600326538	movie	1		301.0	42.0	2.5	/experiments/knapen_aot/videos/S_yt--Ou506YF3mY_106.mp4	0.0	196.285080909729	2.508291006088257
44	128.09066700935364	fix_post	2		12.0	42.0	2.5	/experiments/knapen_aot/videos/S_yt--Ou506YF3mY_106.mp4	0.0	198.79337191581726	0.10009098052978516
45	128.19075798988342	fix_pre	0		37.0	43.0	2.5	/experiments/knapen_aot/videos/R_S_ILSVRC2015_train_00165011.mp4	0.0	198.89346289634705	0.3082301616668701
45	128.48325109481812	response	0	2		43.0	2.5	/experiments/knapen_aot/videos/R_S_ILSVRC2015_train_00165011.mp4	0.0	199.18595600128174	
45	128.4989881515503	movie	1		300.0	43.0	2.5	/experiments/knapen_aot/videos/R_S_ILSVRC2015_train_00165011.mp4	0.0	199.20169305801392	2.5084378719329834
45	131.00742602348328	fix_post	2		12.0	43.0	2.5	/experiments/knapen_aot/videos/R_S_ILSVRC2015_train_00165011.mp4	0.0	201.7101309299469	0.09997415542602539
46	131.1074001789093	fix_pre	0		18.0	44.0	2.5	/experiments/knapen_aot/videos/S_pexels-diva-plavalaguna-6985395.mp4	0.0	201.81010508537292	0.14996981620788574
46	131.24913001060486	response	0	2		44.0	2.5	/experiments/knapen_aot/videos/S_pexels-diva-plavalaguna-6985395.mp4	0.0	201.95183491706848	
46	131.2573699951172	movie	1		164.0	44.0	2.5	/experiments/knapen_aot/videos/S_pexels-diva-plavalaguna-6985395.mp4	0.0	201.9600749015808	2.5083611011505127
46	133.7657310962677	fix_post	2		12.0	44.0	2.5	/experiments/knapen_aot/videos/S_pexels-diva-plavalaguna-6985395.mp4	0.0	204.46843600273132	0.10004305839538574
47	133.8657741546631	fix_pre	0		35.0	45.0	2.5	/experiments/knapen_aot/videos/S_yt-HRuCkU_kBoE_239.mp4	0.0	204.5684790611267	0.29159092903137207
47	134.14918899536133	response	0	2		45.0	2.5	/experiments/knapen_aot/videos/S_yt-HRuCkU_kBoE_239.mp4	0.0	204.85189390182495	
47	134.15736508369446	movie	1		301.0	45.0	2.5	/experiments/knapen_aot/videos/S_yt-HRuCkU_kBoE_239.mp4	0.0	204.86006999015808	2.5082859992980957
47	136.66565108299255	fix_post	2		12.0	45.0	2.5	/experiments/knapen_aot/videos/S_yt-HRuCkU_kBoE_239.mp4	0.0	207.36835598945618	0.09993696212768555
48	136.76558804512024	fix_pre	0		33.0	46.0	2.5	/experiments/knapen_aot/videos/R_S_yt-KNdCiW8m1uY_168.mp4	0.0	207.46829295158386	0.2750051021575928
48	137.0324981212616	response	0	2		46.0	2.5	/experiments/knapen_aot/videos/R_S_yt-KNdCiW8m1uY_168.mp4	0.0	207.73520302772522	
48	137.04059314727783	movie	1		301.0	46.0	2.5	/experiments/knapen_aot/videos/R_S_yt-KNdCiW8m1uY_168.mp4	0.0	207.74329805374146	2.508363962173462
48	139.5489571094513	fix_post	2		12.0	46.0	2.5	/experiments/knapen_aot/videos/R_S_yt-KNdCiW8m1uY_168.mp4	0.0	210.25166201591492	0.1000220775604248
49	139.64897918701172	fix_pre	0		35.0	47.0	2.5	blank	1.0	210.35168409347534	0.2916560173034668
49	139.93246698379517	response	0	2		47.0	2.5	blank	1.0	210.6351718902588	
49	139.94063520431519	movie	1		301.0	47.0	2.5	blank	1.0	210.6433401107788	2.5083789825439453
49	142.44901418685913	fix_post	2		12.0	47.0	2.5	blank	1.0	213.15171909332275	0.09997200965881348
50	142.54898619651794	fix_pre	0		123.0	48.0	2.5	/experiments/knapen_aot/videos/S_yt-JkKOG9Fxykc_94.mp4	0.0	213.25169110298157	1.0249779224395752
50	143.55826020240784	response	0	2		48.0	2.5	/experiments/knapen_aot/videos/S_yt-JkKOG9Fxykc_94.mp4	0.0	214.26096510887146	
50	143.57396411895752	movie	1		301.0	48.0	2.5	/experiments/knapen_aot/videos/S_yt-JkKOG9Fxykc_94.mp4	0.0	214.27666902542114	2.5083630084991455
50	146.08232712745667	fix_post	2		12.0	48.0	2.5	/experiments/knapen_aot/videos/S_yt-JkKOG9Fxykc_94.mp4	0.0	216.7850320339203	0.09994292259216309
51	146.18227005004883	fix_pre	0		23.0	49.0	2.5	/experiments/knapen_aot/videos/R_S_yt-JQOHHL30Y54_101.mp4	0.0	216.88497495651245	0.19166803359985352
51	146.35828614234924	response	0	2		49.0	2.5	/experiments/knapen_aot/videos/R_S_yt-JQOHHL30Y54_101.mp4	0.0	217.06099104881287	
51	146.37393808364868	movie	1		300.0	49.0	2.5	/experiments/knapen_aot/videos/R_S_yt-JQOHHL30Y54_101.mp4	0.0	217.0766429901123	2.5083820819854736
51	148.88232016563416	fix_post	2		12.0	49.0	2.5	/experiments/knapen_aot/videos/R_S_yt-JQOHHL30Y54_101.mp4	0.0	219.58502507209778	0.0999448299407959
52	148.98226499557495	fix_pre	0		31.0	50.0	2.5	/experiments/knapen_aot/videos/S_m-aeoYPMqfg_185.mp4	0.0	219.68496990203857	0.25829100608825684
52	149.2324800491333	response	0	2		50.0	2.5	/experiments/knapen_aot/videos/S_m-aeoYPMqfg_185.mp4	0.0	219.93518495559692	
52	149.2405560016632	movie	1		301.0	50.0	2.5	/experiments/knapen_aot/videos/S_m-aeoYPMqfg_185.mp4	0.0	219.94326090812683	2.5084121227264404
52	151.74896812438965	fix_post	2		12.0	50.0	2.5	/experiments/knapen_aot/videos/S_m-aeoYPMqfg_185.mp4	0.0	222.45167303085327	0.10006499290466309
53	151.8490331172943	fix_pre	0		34.0	51.0	2.5	/experiments/knapen_aot/videos/R_S_production_ID_4325585.mp4	0.0	222.55173802375793	0.2833089828491211
53	152.12417197227478	response	0	2		51.0	2.5	/experiments/knapen_aot/videos/R_S_production_ID_4325585.mp4	0.0	222.8268768787384	
53	152.13234210014343	movie	1		195.0	51.0	2.5	/experiments/knapen_aot/videos/R_S_production_ID_4325585.mp4	0.0	222.83504700660706	2.5083189010620117
53	154.64066100120544	fix_post	2		12.0	51.0	2.5	/experiments/knapen_aot/videos/R_S_production_ID_4325585.mp4	0.0	225.34336590766907	0.10000300407409668
54	154.74066400527954	fix_pre	0		40.0	52.0	2.5	/experiments/knapen_aot/videos/R_S_comp_H005_C012_PS_v01_SDR_PS_20180925_SDR_2K_AVC.mp4	0.0	225.44336891174316	0.3333120346069336
54	155.0657241344452	response	0	2		52.0	2.5	/experiments/knapen_aot/videos/R_S_comp_H005_C012_PS_v01_SDR_PS_20180925_SDR_2K_AVC.mp4	0.0	225.7684290409088	
54	155.07397603988647	movie	1		179.0	52.0	2.5	/experiments/knapen_aot/videos/R_S_comp_H005_C012_PS_v01_SDR_PS_20180925_SDR_2K_AVC.mp4	0.0	225.7766809463501	2.508305072784424
54	157.5822811126709	fix_post	2		12.0	52.0	2.5	/experiments/knapen_aot/videos/R_S_comp_H005_C012_PS_v01_SDR_PS_20180925_SDR_2K_AVC.mp4	0.0	228.28498601913452	0.10016798973083496
55	157.68244910240173	fix_pre	0		19.0	53.0	2.5	/experiments/knapen_aot/videos/S_production_ID_4325585.mp4	0.0	228.38515400886536	0.1581120491027832
55	157.83242416381836	response	0	2		53.0	2.5	/experiments/knapen_aot/videos/S_production_ID_4325585.mp4	0.0	228.53512907028198	
55	157.84056115150452	movie	1		207.0	53.0	2.5	/experiments/knapen_aot/videos/S_production_ID_4325585.mp4	0.0	228.54326605796814	2.5084359645843506
55	160.34899711608887	fix_post	2		12.0	53.0	2.5	/experiments/knapen_aot/videos/S_production_ID_4325585.mp4	0.0	231.0517020225525	0.09997391700744629
56	160.4489710330963	fix_pre	0		30.0	54.0	2.5	/experiments/knapen_aot/videos/R_S_ILSVRC2015_train_00563000.mp4	0.0	231.15167593955994	0.2499561309814453
56	160.69071316719055	response	0	2		54.0	2.5	/experiments/knapen_aot/videos/R_S_ILSVRC2015_train_00563000.mp4	0.0	231.39341807365417	
56	160.69892716407776	movie	1		301.0	54.0	2.5	/experiments/knapen_aot/videos/R_S_ILSVRC2015_train_00563000.mp4	0.0	231.40163207054138	2.5082859992980957
56	163.20721316337585	fix_post	2		12.0	54.0	2.5	/experiments/knapen_aot/videos/R_S_ILSVRC2015_train_00563000.mp4	0.0	233.90991806983948	0.10004591941833496
57	163.3072590827942	fix_pre	0		27.0	55.0	2.5	blank	1.0	234.0099639892578	0.22498703002929688
57	163.52401208877563	response	0	2		55.0	2.5	blank	1.0	234.22671699523926	
57	163.5322461128235	movie	1		301.0	55.0	2.5	blank	1.0	234.2349510192871	2.5083119869232178
57	166.0405580997467	fix_post	2		12.0	55.0	2.5	blank	1.0	236.74326300621033	0.10005807876586914
58	166.14061617851257	fix_pre	0		36.0	56.0	2.5	/experiments/knapen_aot/videos/S_yt-Xkx53mjgj2E_30.mp4	0.0	236.8433210849762	0.3010389804840088
58	166.43234610557556	response	0	2		56.0	2.5	/experiments/knapen_aot/videos/S_yt-Xkx53mjgj2E_30.mp4	0.0	237.13505101203918	
58	166.44165515899658	movie	1		300.0	56.0	2.5	/experiments/knapen_aot/videos/S_yt-Xkx53mjgj2E_30.mp4	0.0	237.1443600654602	2.5072569847106934
58	168.94891214370728	fix_post	2		12.0	56.0	2.5	/experiments/knapen_aot/videos/S_yt-Xkx53mjgj2E_30.mp4	0.0	239.6516170501709	0.10001587867736816
59	169.04892802238464	fix_pre	0		38.0	57.0	2.5	/experiments/knapen_aot/videos/S_ILSVRC2015_train_00538000.mp4	0.0	239.75163292884827	0.3166351318359375
59	169.3575451374054	response	0	2		57.0	2.5	/experiments/knapen_aot/videos/S_ILSVRC2015_train_00538000.mp4	0.0	240.06025004386902	
59	169.36556315422058	movie	1		301.0	57.0	2.5	/experiments/knapen_aot/videos/S_ILSVRC2015_train_00538000.mp4	0.0	240.0682680606842	2.5083229541778564
59	171.87388610839844	fix_post	2		12.0	57.0	2.5	/experiments/knapen_aot/videos/S_ILSVRC2015_train_00538000.mp4	0.0	242.57659101486206	0.10003805160522461
60	171.97392416000366	fix_pre	0		19.0	58.0	2.5	/experiments/knapen_aot/videos/R_S_b8-2.mp4	0.0	242.67662906646729	0.15831995010375977
60	172.12400317192078	response	0	2		58.0	2.5	/experiments/knapen_aot/videos/R_S_b8-2.mp4	0.0	242.8267080783844	
60	172.13224411010742	movie	1		167.0	58.0	2.5	/experiments/knapen_aot/videos/R_S_b8-2.mp4	0.0	242.83494901657104	2.508280038833618
60	174.64052414894104	fix_post	2		12.0	58.0	2.5	/experiments/knapen_aot/videos/R_S_b8-2.mp4	0.0	245.34322905540466	0.10004782676696777
61	174.740571975708	fix_pre	0		17.0	59.0	2.5	/experiments/knapen_aot/videos/S_Y009_C015_SDR_2K_AVC.mp4	0.0	245.44327688217163	0.1416471004486084
61	174.87406301498413	response	0	2		59.0	2.5	/experiments/knapen_aot/videos/S_Y009_C015_SDR_2K_AVC.mp4	0.0	245.57676792144775	
61	174.88221907615662	movie	1		169.0	59.0	2.5	/experiments/knapen_aot/videos/S_Y009_C015_SDR_2K_AVC.mp4	0.0	245.58492398262024	2.5083019733428955
61	177.3905210494995	fix_post	2		12.0	59.0	2.5	/experiments/knapen_aot/videos/S_Y009_C015_SDR_2K_AVC.mp4	0.0	248.09322595596313	0.10008907318115234
62	177.49061012268066	fix_pre	0		18.0	60.0	2.5	/experiments/knapen_aot/videos/S_yt-Uv0dt_-fWJU_40.mp4	0.0	248.1933150291443	0.1499159336090088
62	177.63227200508118	response	0	2		60.0	2.5	/experiments/knapen_aot/videos/S_yt-Uv0dt_-fWJU_40.mp4	0.0	248.3349769115448	
62	177.64052605628967	movie	1		301.0	60.0	2.5	/experiments/knapen_aot/videos/S_yt-Uv0dt_-fWJU_40.mp4	0.0	248.3432309627533	2.508355140686035
62	180.1488811969757	fix_post	2		12.0	60.0	2.5	/experiments/knapen_aot/videos/S_yt-Uv0dt_-fWJU_40.mp4	0.0	250.85158610343933	0.09996294975280762
63	180.24884414672852	fix_pre	0		27.0	61.0	2.5	/experiments/knapen_aot/videos/S_wc-TAGpcap1KdAS_212.mp4	0.0	250.95154905319214	0.2249889373779297
63	180.46559619903564	response	0	2		61.0	2.5	/experiments/knapen_aot/videos/S_wc-TAGpcap1KdAS_212.mp4	0.0	251.16830110549927	
63	180.47383308410645	movie	1		301.0	61.0	2.5	/experiments/knapen_aot/videos/S_wc-TAGpcap1KdAS_212.mp4	0.0	251.17653799057007	2.508349895477295
63	182.98218297958374	fix_post	2		12.0	61.0	2.5	/experiments/knapen_aot/videos/S_wc-TAGpcap1KdAS_212.mp4	0.0	253.68488788604736	0.09998917579650879
64	183.08217215538025	fix_pre	0		101.0	62.0	2.5	/experiments/knapen_aot/videos/S_yt-M5qZo3CUXYE_27.mp4	0.0	253.78487706184387	0.8416948318481445
64	183.9156379699707	response	0	2		62.0	2.5	/experiments/knapen_aot/videos/S_yt-M5qZo3CUXYE_27.mp4	0.0	254.61834287643433	
64	183.9238669872284	movie	1		301.0	62.0	2.5	/experiments/knapen_aot/videos/S_yt-M5qZo3CUXYE_27.mp4	0.0	254.62657189369202	2.508324146270752
64	186.43219113349915	fix_post	2		12.0	62.0	2.5	/experiments/knapen_aot/videos/S_yt-M5qZo3CUXYE_27.mp4	0.0	257.13489603996277	0.0999760627746582
65	186.5321671962738	fix_pre	0		170.0	63.0	2.5	blank	1.0	257.2348721027374	1.4166259765625
65	187.940603017807	response	0	2		63.0	2.5	blank	1.0	258.64330792427063	
65	187.9487931728363	movie	1		301.0	63.0	2.5	blank	1.0	258.6514980792999	2.5083298683166504
65	190.45712304115295	fix_post	2		12.0	63.0	2.5	blank	1.0	261.1598279476166	0.1000051498413086
66	190.55712819099426	fix_pre	0		29.0	64.0	2.5	/experiments/knapen_aot/videos/R_S_BsNCrwV7d8Q_9.mp4	0.0	261.2598330974579	0.24158191680908203
66	190.7906551361084	response	0	2		64.0	2.5	/experiments/knapen_aot/videos/R_S_BsNCrwV7d8Q_9.mp4	0.0	261.493360042572	
66	190.79871010780334	movie	1		301.0	64.0	2.5	/experiments/knapen_aot/videos/R_S_BsNCrwV7d8Q_9.mp4	0.0	261.50141501426697	2.5083539485931396
66	193.30706405639648	fix_post	2		12.0	64.0	2.5	/experiments/knapen_aot/videos/R_S_BsNCrwV7d8Q_9.mp4	0.0	264.0097689628601	0.10008692741394043
67	193.40715098381042	fix_pre	0		44.0	65.0	2.5	/experiments/knapen_aot/videos/S_production_ID_4325585.mp4	0.0	264.10985589027405	0.3675811290740967
67	193.76554107666016	response	0	2		65.0	2.5	/experiments/knapen_aot/videos/S_production_ID_4325585.mp4	0.0	264.4682459831238	
67	193.77473211288452	movie	1		205.0	65.0	2.5	/experiments/knapen_aot/videos/S_production_ID_4325585.mp4	0.0	264.47743701934814	2.50734806060791
67	196.28208017349243	fix_post	2		12.0	65.0	2.5	/experiments/knapen_aot/videos/S_production_ID_4325585.mp4	0.0	266.98478507995605	0.10002303123474121
68	196.38210320472717	fix_pre	0		21.0	66.0	2.5	/experiments/knapen_aot/videos/R_S_yt-3V8US8ZD3NU_229.mp4	0.0	267.0848081111908	0.17504191398620605
68	196.54886102676392	response	0	2		66.0	2.5	/experiments/knapen_aot/videos/R_S_yt-3V8US8ZD3NU_229.mp4	0.0	267.25156593322754	
68	196.55714511871338	movie	1		301.0	66.0	2.5	/experiments/knapen_aot/videos/R_S_yt-3V8US8ZD3NU_229.mp4	0.0	267.259850025177	2.50833797454834
68	199.06548309326172	fix_post	2		12.0	66.0	2.5	/experiments/knapen_aot/videos/R_S_yt-3V8US8ZD3NU_229.mp4	0.0	269.76818799972534	0.0998530387878418
69	199.16533613204956	fix_pre	0		38.0	67.0	2.5	/experiments/knapen_aot/videos/R_S_yt-M5qZo3CUXYE_27.mp4	0.0	269.8680410385132	0.31776905059814453
69	199.47387313842773	response	0	2		67.0	2.5	/experiments/knapen_aot/videos/R_S_yt-M5qZo3CUXYE_27.mp4	0.0	270.17657804489136	
69	199.4831051826477	movie	1		301.0	67.0	2.5	/experiments/knapen_aot/videos/R_S_yt-M5qZo3CUXYE_27.mp4	0.0	270.1858100891113	2.5073139667510986
69	201.9904191493988	fix_post	2		12.0	67.0	2.5	/experiments/knapen_aot/videos/R_S_yt-M5qZo3CUXYE_27.mp4	0.0	272.6931240558624	0.1000368595123291
70	202.09045600891113	fix_pre	0		53.0	68.0	2.5	/experiments/knapen_aot/videos/S_yt-RNPFV7lgAvE_362.mp4	0.0	272.79316091537476	0.441586971282959
70	202.52387714385986	response	0	2		68.0	2.5	/experiments/knapen_aot/videos/S_yt-RNPFV7lgAvE_362.mp4	0.0	273.2265820503235	
70	202.5320429801941	movie	1		301.0	68.0	2.5	/experiments/knapen_aot/videos/S_yt-RNPFV7lgAvE_362.mp4	0.0	273.2347478866577	2.5083670616149902
70	205.04041004180908	fix_post	2		12.0	68.0	2.5	/experiments/knapen_aot/videos/S_yt-RNPFV7lgAvE_362.mp4	0.0	275.7431149482727	0.09994912147521973
71	205.1403591632843	fix_pre	0		35.0	69.0	2.5	/experiments/knapen_aot/videos/R_S_yt-s2tZ2NIQrxg_175.mp4	0.0	275.8430640697479	0.2916679382324219
71	205.41631507873535	response	0	2		69.0	2.5	/experiments/knapen_aot/videos/R_S_yt-s2tZ2NIQrxg_175.mp4	0.0	276.119019985199	
71	205.43202710151672	movie	1		301.0	69.0	2.5	/experiments/knapen_aot/videos/R_S_yt-s2tZ2NIQrxg_175.mp4	0.0	276.13473200798035	2.5084118843078613
71	207.94043898582458	fix_post	2		12.0	69.0	2.5	/experiments/knapen_aot/videos/R_S_yt-s2tZ2NIQrxg_175.mp4	0.0	278.6431438922882	0.09994912147521973
72	208.0403881072998	fix_pre	0		47.0	70.0	2.5	blank	1.0	278.7430930137634	0.3916749954223633
72	208.42384099960327	response	0	2		70.0	2.5	blank	1.0	279.1265459060669	
72	208.43206310272217	movie	1		301.0	70.0	2.5	blank	1.0	279.1347680091858	2.5083560943603516
72	210.94041919708252	fix_post	2		12.0	70.0	2.5	blank	1.0	281.64312410354614	0.10000991821289062
73	211.0404291152954	fix_pre	0		38.0	71.0	2.5	/experiments/knapen_aot/videos/R_S_yt-146gReE6xKw_379.mp4	0.0	281.74313402175903	0.317518949508667
73	211.34880900382996	response	0	2		71.0	2.5	/experiments/knapen_aot/videos/R_S_yt-146gReE6xKw_379.mp4	0.0	282.0515139102936	
73	211.35794806480408	movie	1		301.0	71.0	2.5	/experiments/knapen_aot/videos/R_S_yt-146gReE6xKw_379.mp4	0.0	282.0606529712677	2.507460117340088
73	213.86540818214417	fix_post	2		12.0	71.0	2.5	/experiments/knapen_aot/videos/R_S_yt-146gReE6xKw_379.mp4	0.0	284.5681130886078	0.09999799728393555
74	213.9654061794281	fix_pre	0		30.0	72.0	2.5	/experiments/knapen_aot/videos/S_yt-TZ107yBhXoA_1.mp4	0.0	284.6681110858917	0.24995183944702148
74	214.20713114738464	response	0	2		72.0	2.5	/experiments/knapen_aot/videos/S_yt-TZ107yBhXoA_1.mp4	0.0	284.90983605384827	
74	214.21535801887512	movie	1		300.0	72.0	2.5	/experiments/knapen_aot/videos/S_yt-TZ107yBhXoA_1.mp4	0.0	284.91806292533875	2.5083019733428955
74	216.72365999221802	fix_post	2		12.0	72.0	2.5	/experiments/knapen_aot/videos/S_yt-TZ107yBhXoA_1.mp4	0.0	287.42636489868164	0.10010719299316406
75	216.82376718521118	fix_pre	0		29.0	73.0	2.5	/experiments/knapen_aot/videos/S_yt-1n1jTroiwJs_163.mp4	0.0	287.5264720916748	0.24240994453430176
75	217.0570809841156	response	0	2		73.0	2.5	/experiments/knapen_aot/videos/S_yt-1n1jTroiwJs_163.mp4	0.0	287.7597858905792	
75	217.06617712974548	movie	1		301.0	73.0	2.5	/experiments/knapen_aot/videos/S_yt-1n1jTroiwJs_163.mp4	0.0	287.7688820362091	2.5074620246887207
75	219.5736391544342	fix_post	2		12.0	73.0	2.5	/experiments/knapen_aot/videos/S_yt-1n1jTroiwJs_163.mp4	0.0	290.2763440608978	0.10000085830688477
76	219.6736400127411	fix_pre	0		40.0	74.0	2.5	/experiments/knapen_aot/videos/S_Pexels_Videos_2791797.mp4	0.0	290.3763449192047	0.3333320617675781
76	219.99882316589355	response	0	2		74.0	2.5	/experiments/knapen_aot/videos/S_Pexels_Videos_2791797.mp4	0.0	290.7015280723572	
76	220.00697207450867	movie	1		165.0	74.0	2.5	/experiments/knapen_aot/videos/S_Pexels_Videos_2791797.mp4	0.0	290.7096769809723	2.5083460807800293
76	222.5153181552887	fix_post	2		12.0	74.0	2.5	/experiments/knapen_aot/videos/S_Pexels_Videos_2791797.mp4	0.0	293.2180230617523	0.09994101524353027
77	222.61525917053223	fix_pre	0		19.0	75.0	2.5	/experiments/knapen_aot/videos/S_yt-vY49oIv_dWg_73.mp4	0.0	293.31796407699585	0.1604328155517578
77	222.76551604270935	response	0	2		75.0	2.5	/experiments/knapen_aot/videos/S_yt-vY49oIv_dWg_73.mp4	0.0	293.468220949173	
77	222.77569198608398	movie	1		301.0	75.0	2.5	/experiments/knapen_aot/videos/S_yt-vY49oIv_dWg_73.mp4	0.0	293.4783968925476	2.506286144256592
77	225.28197813034058	fix_post	2		12.0	75.0	2.5	/experiments/knapen_aot/videos/S_yt-vY49oIv_dWg_73.mp4	0.0	295.9846830368042	0.1000058650970459
78	225.38198399543762	fix_pre	0		36.0	76.0	2.5	/experiments/knapen_aot/videos/R_S_yt-mmvWYAttrIw_2.mp4	0.0	296.08468890190125	0.29999613761901855
78	225.67376112937927	response	0	2		76.0	2.5	/experiments/knapen_aot/videos/R_S_yt-mmvWYAttrIw_2.mp4	0.0	296.3764660358429	
78	225.68198013305664	movie	1		301.0	76.0	2.5	/experiments/knapen_aot/videos/R_S_yt-mmvWYAttrIw_2.mp4	0.0	296.38468503952026	2.5083658695220947
78	228.19034600257874	fix_post	2		12.0	76.0	2.5	/experiments/knapen_aot/videos/R_S_yt-mmvWYAttrIw_2.mp4	0.0	298.89305090904236	0.09996604919433594
79	228.29031205177307	fix_pre	0		168.0	77.0	2.5	blank	1.0	298.9930169582367	1.4008359909057617
79	229.67460107803345	response	0	2		77.0	2.5	blank	1.0	300.37730598449707	
79	229.69114804267883	movie	1		301.0	77.0	2.5	blank	1.0	300.39385294914246	2.507404088973999
79	232.19855213165283	fix_post	2		12.0	77.0	2.5	blank	1.0	302.90125703811646	0.10008907318115234
80	232.29864120483398	fix_pre	0		42.0	78.0	2.5	/experiments/knapen_aot/videos/S_production_ID_3761571.mp4	0.0	303.0013461112976	0.35077381134033203
80	232.64048504829407	response	0	2		78.0	2.5	/experiments/knapen_aot/videos/S_production_ID_3761571.mp4	0.0	303.3431899547577	
80	232.64941501617432	movie	1		164.0	78.0	2.5	/experiments/knapen_aot/videos/S_production_ID_3761571.mp4	0.0	303.35211992263794	2.507539987564087
80	235.1569550037384	fix_post	2		12.0	78.0	2.5	/experiments/knapen_aot/videos/S_production_ID_3761571.mp4	0.0	305.859659910202	0.1000821590423584
81	235.25703716278076	fix_pre	0		99.0	79.0	2.5	/experiments/knapen_aot/videos/S_ILSVRC2015_test_00001002.mp4	0.0	305.9597420692444	0.8249008655548096
81	236.07378315925598	response	0	2		79.0	2.5	/experiments/knapen_aot/videos/S_ILSVRC2015_test_00001002.mp4	0.0	306.7764880657196	
81	236.08193802833557	movie	1		301.0	79.0	2.5	/experiments/knapen_aot/videos/S_ILSVRC2015_test_00001002.mp4	0.0	306.7846429347992	2.5083861351013184
81	238.5903241634369	fix_post	2		12.0	79.0	2.5	/experiments/knapen_aot/videos/S_ILSVRC2015_test_00001002.mp4	0.0	309.2930290699005	0.10001087188720703
82	238.6903350353241	fix_pre	0		58.0	80.0	2.5	/experiments/knapen_aot/videos/S_ILSVRC2015_train_00545000.mp4	0.0	309.3930399417877	0.4833099842071533
82	239.16538906097412	response	0	2		80.0	2.5	/experiments/knapen_aot/videos/S_ILSVRC2015_train_00545000.mp4	0.0	309.86809396743774	
82	239.17364501953125	movie	1		301.0	80.0	2.5	/experiments/knapen_aot/videos/S_ILSVRC2015_train_00545000.mp4	0.0	309.8763499259949	2.508329153060913
82	241.68197417259216	fix_post	2		12.0	80.0	2.5	/experiments/knapen_aot/videos/S_ILSVRC2015_train_00545000.mp4	0.0	312.3846790790558	0.09995484352111816
83	241.78192901611328	fix_pre	0		43.0	81.0	2.5	/experiments/knapen_aot/videos/R_S_yt-gC3my54_ChQ_58.mp4	0.0	312.4846339225769	0.3583071231842041
83	242.13202500343323	response	0	2		81.0	2.5	/experiments/knapen_aot/videos/R_S_yt-gC3my54_ChQ_58.mp4	0.0	312.83472990989685	
83	242.14023613929749	movie	1		301.0	81.0	2.5	/experiments/knapen_aot/videos/R_S_yt-gC3my54_ChQ_58.mp4	0.0	312.8429410457611	2.508312940597534
83	244.64854907989502	fix_post	2		12.0	81.0	2.5	/experiments/knapen_aot/videos/R_S_yt-gC3my54_ChQ_58.mp4	0.0	315.35125398635864	0.10002708435058594
84	244.7485761642456	fix_pre	0		45.0	82.0	2.5	blank	1.0	315.45128107070923	0.37496280670166016
84	245.11537718772888	response	0	2		82.0	2.5	blank	1.0	315.8180820941925	
84	245.12353897094727	movie	1		301.0	82.0	2.5	blank	1.0	315.8262438774109	2.5084481239318848
84	247.63198709487915	fix_post	2		12.0	82.0	2.5	blank	1.0	318.3346920013428	0.09998703002929688
85	247.73197412490845	fix_pre	0		22.0	83.0	2.5	/experiments/knapen_aot/videos/R_S_yt-O_6CyqHeJig_132.mp4	0.0	318.43467903137207	0.1832749843597412
85	247.906996011734	response	0	2		83.0	2.5	/experiments/knapen_aot/videos/R_S_yt-O_6CyqHeJig_132.mp4	0.0	318.60970091819763	
85	247.9152491092682	movie	1		301.0	83.0	2.5	/experiments/knapen_aot/videos/R_S_yt-O_6CyqHeJig_132.mp4	0.0	318.6179540157318	2.508270025253296
85	250.42351913452148	fix_post	2		12.0	83.0	2.5	/experiments/knapen_aot/videos/R_S_yt-O_6CyqHeJig_132.mp4	0.0	321.1262240409851	0.10073399543762207
87	250.5242531299591	stim	0		195.0					321.22695803642273	1.6249990463256836
87	250.68312215805054	response	0	2						321.38582706451416	
87	252.13750910758972	response	0	space						322.84021401405334	
