trial_nr	onset	event_type	phase	response	nr_frames	movie_index	movie_duration	movie_file	blank	onset_abs	duration
0	0.1559290885925293	stim	0		35.0					53.86501598358154	0.2916450500488281
0	0.43224596977233887	response	0	space						54.14133286476135	
1	0.4475741386413574	stim	0		121.0					54.15666103363037	1.0080900192260742
1	1.4556641578674316	stim	1		120.0					55.164751052856445	1.0000228881835938
1	1.872521162033081	response	1	space						55.581608057022095	
1	2.3890931606292725	response	1	space						56.098180055618286	
2	2.4556870460510254	fix_pre	0		62.0	0.0	2.5	/experiments/knapen_aot/videos/R_S_yt-bOgChEHiroI_20.mp4	0.0	56.16477394104004	0.5166680812835693
2	2.96415114402771	response	0	space		0.0	2.5	/experiments/knapen_aot/videos/R_S_yt-bOgChEHiroI_20.mp4	0.0	56.673238039016724	
2	2.9723551273345947	movie	1		301.0	0.0	2.5	/experiments/knapen_aot/videos/R_S_yt-bOgChEHiroI_20.mp4	0.0	56.68144202232361	2.508491039276123
2	5.480846166610718	fix_post	2		12.0	0.0	2.5	/experiments/knapen_aot/videos/R_S_yt-bOgChEHiroI_20.mp4	0.0	59.18993306159973	0.09983301162719727
3	5.580679178237915	fix_pre	0		160.0	1.0	2.5	/experiments/knapen_aot/videos/S_m-aeoYPMqfg_185.mp4	0.0	59.28976607322693	1.3355038166046143
3	6.909368991851807	response	0	4		1.0	2.5	/experiments/knapen_aot/videos/S_m-aeoYPMqfg_185.mp4	0.0	60.61845588684082	
3	6.916182994842529	movie	1		298.0	1.0	2.5	/experiments/knapen_aot/videos/S_m-aeoYPMqfg_185.mp4	0.0	60.62526988983154	2.5061659812927246
3	9.422348976135254	fix_post	2		12.0	1.0	2.5	/experiments/knapen_aot/videos/S_m-aeoYPMqfg_185.mp4	0.0	63.13143587112427	0.09998703002929688
4	9.52233600616455	fix_pre	0		26.0	2.0	2.5	/experiments/knapen_aot/videos/S_yt-iHmshS63rBc_329.mp4	0.0	63.231422901153564	0.21665501594543457
4	9.730717182159424	response	0	4		2.0	2.5	/experiments/knapen_aot/videos/S_yt-iHmshS63rBc_329.mp4	0.0	63.43980407714844	
4	9.738991022109985	movie	1		301.0	2.0	2.5	/experiments/knapen_aot/videos/S_yt-iHmshS63rBc_329.mp4	0.0	63.448077917099	2.5083460807800293
4	12.247337102890015	fix_post	2		12.0	2.0	2.5	/experiments/knapen_aot/videos/S_yt-iHmshS63rBc_329.mp4	0.0	65.95642399787903	0.09999990463256836
5	12.347337007522583	fix_pre	0		13.0	3.0	2.5	/experiments/knapen_aot/videos/S_yt-1UFhynm5g6Y_266.mp4	0.0	66.0564239025116	0.10830903053283691
5	12.447452068328857	response	0	4		3.0	2.5	/experiments/knapen_aot/videos/S_yt-1UFhynm5g6Y_266.mp4	0.0	66.15653896331787	
5	12.45564603805542	movie	1		301.0	3.0	2.5	/experiments/knapen_aot/videos/S_yt-1UFhynm5g6Y_266.mp4	0.0	66.16473293304443	2.5083701610565186
5	14.964016199111938	fix_post	2		12.0	3.0	2.5	/experiments/knapen_aot/videos/S_yt-1UFhynm5g6Y_266.mp4	0.0	68.67310309410095	0.09993386268615723
6	15.063950061798096	fix_pre	0		43.0	4.0	2.5	/experiments/knapen_aot/videos/S_production_ID_5020960.mp4	0.0	68.77303695678711	0.3591630458831787
6	15.414151191711426	response	0	4		4.0	2.5	/experiments/knapen_aot/videos/S_production_ID_5020960.mp4	0.0	69.12323808670044	
6	15.423113107681274	movie	1		186.0	4.0	2.5	/experiments/knapen_aot/videos/S_production_ID_5020960.mp4	0.0	69.13220000267029	2.5075669288635254
6	17.9306800365448	fix_post	2		12.0	4.0	2.5	/experiments/knapen_aot/videos/S_production_ID_5020960.mp4	0.0	71.63976693153381	0.09995102882385254
7	18.030631065368652	fix_pre	0		22.0	5.0	2.5	blank	1.0	71.73971796035767	0.18417811393737793
7	18.205766201019287	response	0	4		5.0	2.5	blank	1.0	71.9148530960083	
7	18.21480917930603	movie	1		301.0	5.0	2.5	blank	1.0	71.92389607429504	2.5074729919433594
7	20.72228217124939	fix_post	2		12.0	5.0	2.5	blank	1.0	74.4313690662384	0.10002779960632324
8	20.822309970855713	fix_pre	0		671.0	6.0	2.5	/experiments/knapen_aot/videos/R_S_production_ID_5139371.mp4	0.0	74.53139686584473	5.591594219207764
8	26.405781984329224	response	0	4		6.0	2.5	/experiments/knapen_aot/videos/R_S_production_ID_5139371.mp4	0.0	80.11486887931824	
8	26.413904190063477	movie	1		166.0	6.0	2.5	/experiments/knapen_aot/videos/R_S_production_ID_5139371.mp4	0.0	80.12299108505249	2.508349895477295
8	28.92225408554077	fix_post	2		12.0	6.0	2.5	/experiments/knapen_aot/videos/R_S_production_ID_5139371.mp4	0.0	82.63134098052979	0.10001397132873535
9	29.022268056869507	fix_pre	0		31.0	7.0	2.5	/experiments/knapen_aot/videos/R_S_pexels-mikael-blomkvist-8689852.mp4	0.0	82.73135495185852	0.2583150863647461
9	29.272483110427856	response	0	4		7.0	2.5	/experiments/knapen_aot/videos/R_S_pexels-mikael-blomkvist-8689852.mp4	0.0	82.98157000541687	
9	29.280583143234253	movie	1		161.0	7.0	2.5	/experiments/knapen_aot/videos/R_S_pexels-mikael-blomkvist-8689852.mp4	0.0	82.98967003822327	2.508333921432495
9	31.788917064666748	fix_post	2		12.0	7.0	2.5	/experiments/knapen_aot/videos/R_S_pexels-mikael-blomkvist-8689852.mp4	0.0	85.49800395965576	0.1000070571899414
10	31.88892412185669	fix_pre	0		222.0	8.0	2.5	/experiments/knapen_aot/videos/S_yt-dWF89kq2JIA_13.mp4	0.0	85.5980110168457	1.8499679565429688
10	33.730684995651245	response	0	4		8.0	2.5	/experiments/knapen_aot/videos/S_yt-dWF89kq2JIA_13.mp4	0.0	87.43977189064026	
10	33.73889207839966	movie	1		301.0	8.0	2.5	/experiments/knapen_aot/videos/S_yt-dWF89kq2JIA_13.mp4	0.0	87.44797897338867	2.5083420276641846
10	36.24723410606384	fix_post	2		12.0	8.0	2.5	/experiments/knapen_aot/videos/S_yt-dWF89kq2JIA_13.mp4	0.0	89.95632100105286	0.09998607635498047
11	36.34722018241882	fix_pre	0		36.0	9.0	2.5	/experiments/knapen_aot/videos/R_S_production_ID_5139371.mp4	0.0	90.05630707740784	0.2999899387359619
11	36.63902401924133	response	0	4		9.0	2.5	/experiments/knapen_aot/videos/R_S_production_ID_5139371.mp4	0.0	90.34811091423035	
11	36.647210121154785	movie	1		168.0	9.0	2.5	/experiments/knapen_aot/videos/R_S_production_ID_5139371.mp4	0.0	90.3562970161438	2.5083189010620117
11	39.1555290222168	fix_post	2		12.0	9.0	2.5	/experiments/knapen_aot/videos/R_S_production_ID_5139371.mp4	0.0	92.86461591720581	0.10001897811889648
12	39.25554800033569	fix_pre	0		129.0	10.0	2.5	/experiments/knapen_aot/videos/R_S_yt-NQSCGMpo-p8_118.mp4	0.0	92.9646348953247	1.0749921798706055
12	40.31482911109924	response	0	4		10.0	2.5	/experiments/knapen_aot/videos/R_S_yt-NQSCGMpo-p8_118.mp4	0.0	94.02391600608826	
12	40.3305401802063	movie	1		301.0	10.0	2.5	/experiments/knapen_aot/videos/R_S_yt-NQSCGMpo-p8_118.mp4	0.0	94.03962707519531	2.508302927017212
12	42.83884310722351	fix_post	2		12.0	10.0	2.5	/experiments/knapen_aot/videos/R_S_yt-NQSCGMpo-p8_118.mp4	0.0	96.54793000221252	0.10006594657897949
13	42.93890905380249	fix_pre	0		60.0	11.0	2.5	/experiments/knapen_aot/videos/S_pexels-kindel-media-8165572.mp4	0.0	96.6479959487915	0.5000050067901611
13	43.430697202682495	response	0	4		11.0	2.5	/experiments/knapen_aot/videos/S_pexels-kindel-media-8165572.mp4	0.0	97.13978409767151	
13	43.43891406059265	movie	1		166.0	11.0	2.5	/experiments/knapen_aot/videos/S_pexels-kindel-media-8165572.mp4	0.0	97.14800095558167	2.5082509517669678
13	45.94716501235962	fix_post	2		12.0	11.0	2.5	/experiments/knapen_aot/videos/S_pexels-kindel-media-8165572.mp4	0.0	99.65625190734863	0.10062503814697266
14	46.04779005050659	fix_pre	0		28.0	12.0	2.5	blank	1.0	99.7568769454956	0.23274803161621094
14	46.27235817909241	response	0	4		12.0	2.5	blank	1.0	99.98144507408142	
14	46.2805380821228	movie	1		301.0	12.0	2.5	blank	1.0	99.98962497711182	2.5083019733428955
14	48.7888400554657	fix_post	2		12.0	12.0	2.5	blank	1.0	102.49792695045471	0.09999704360961914
15	48.88883709907532	fix_pre	0		107.0	13.0	2.5	/experiments/knapen_aot/videos/R_S_production_ID_5144823.mp4	0.0	102.59792399406433	0.8999109268188477
15	49.78059005737305	response	0	4		13.0	2.5	/experiments/knapen_aot/videos/R_S_production_ID_5144823.mp4	0.0	103.48967695236206	
15	49.788748025894165	movie	1		164.0	13.0	2.5	/experiments/knapen_aot/videos/R_S_production_ID_5144823.mp4	0.0	103.49783492088318	2.5083229541778564
15	52.29707098007202	fix_post	2		12.0	13.0	2.5	/experiments/knapen_aot/videos/R_S_production_ID_5144823.mp4	0.0	106.00615787506104	0.10006499290466309
16	52.397135972976685	fix_pre	0		11.0	14.0	2.5	/experiments/knapen_aot/videos/S_yt-iHmshS63rBc_329.mp4	0.0	106.1062228679657	0.09162402153015137
16	52.480563163757324	response	0	4		14.0	2.5	/experiments/knapen_aot/videos/S_yt-iHmshS63rBc_329.mp4	0.0	106.18965005874634	
16	52.488759994506836	movie	1		300.0	14.0	2.5	/experiments/knapen_aot/videos/S_yt-iHmshS63rBc_329.mp4	0.0	106.19784688949585	2.508366107940674
16	54.99712610244751	fix_post	2		12.0	14.0	2.5	/experiments/knapen_aot/videos/S_yt-iHmshS63rBc_329.mp4	0.0	108.70621299743652	0.10003399848937988
17	55.09716010093689	fix_pre	0		303.0	15.0	2.5	/experiments/knapen_aot/videos/R_S_yt-TZ107yBhXoA_1.mp4	0.0	108.8062469959259	2.524946928024292
17	57.60634708404541	response	0	4		15.0	2.5	/experiments/knapen_aot/videos/R_S_yt-TZ107yBhXoA_1.mp4	0.0	111.31543397903442	
17	57.62210702896118	movie	1		301.0	15.0	2.5	/experiments/knapen_aot/videos/R_S_yt-TZ107yBhXoA_1.mp4	0.0	111.3311939239502	2.5083329677581787
17	60.13043999671936	fix_post	2		12.0	15.0	2.5	/experiments/knapen_aot/videos/R_S_yt-TZ107yBhXoA_1.mp4	0.0	113.83952689170837	0.10000205039978027
18	60.23044204711914	fix_pre	0		158.0	16.0	2.5	/experiments/knapen_aot/videos/S_yt-a9bnYU0Gnxg_59.mp4	0.0	113.93952894210815	1.3174269199371338
18	61.53891706466675	response	0	4		16.0	2.5	/experiments/knapen_aot/videos/S_yt-a9bnYU0Gnxg_59.mp4	0.0	115.24800395965576	
18	61.547868967056274	movie	1		301.0	16.0	2.5	/experiments/knapen_aot/videos/S_yt-a9bnYU0Gnxg_59.mp4	0.0	115.25695586204529	2.5075831413269043
18	64.05545210838318	fix_post	2		12.0	16.0	2.5	/experiments/knapen_aot/videos/S_yt-a9bnYU0Gnxg_59.mp4	0.0	117.76453900337219	0.09995698928833008
19	64.15540909767151	fix_pre	0		210.0	17.0	2.5	/experiments/knapen_aot/videos/R_S_yt-4x2eUikn9rw_212.mp4	0.0	117.86449599266052	1.7500169277191162
19	65.8972601890564	response	0	4		17.0	2.5	/experiments/knapen_aot/videos/R_S_yt-4x2eUikn9rw_212.mp4	0.0	119.60634708404541	
19	65.90542602539062	movie	1		301.0	17.0	2.5	/experiments/knapen_aot/videos/R_S_yt-4x2eUikn9rw_212.mp4	0.0	119.61451292037964	2.508308172225952
19	68.41373419761658	fix_post	2		12.0	17.0	2.5	/experiments/knapen_aot/videos/R_S_yt-4x2eUikn9rw_212.mp4	0.0	122.12282109260559	0.09996986389160156
20	68.51370406150818	fix_pre	0		205.0	18.0	2.5	/experiments/knapen_aot/videos/S_yt-Dwgpjoikt84_122.mp4	0.0	122.22279095649719	1.7083570957183838
20	70.21385908126831	response	0	4		18.0	2.5	/experiments/knapen_aot/videos/S_yt-Dwgpjoikt84_122.mp4	0.0	123.92294597625732	
20	70.22206115722656	movie	1		301.0	18.0	2.5	/experiments/knapen_aot/videos/S_yt-Dwgpjoikt84_122.mp4	0.0	123.93114805221558	2.5083320140838623
20	72.73039317131042	fix_post	2		12.0	18.0	2.5	/experiments/knapen_aot/videos/S_yt-Dwgpjoikt84_122.mp4	0.0	126.43948006629944	0.10002779960632324
21	72.83042097091675	fix_pre	0		143.0	19.0	2.5	/experiments/knapen_aot/videos/R_S_yt-lCb_efvJcdE_5.mp4	0.0	126.53950786590576	1.1917760372161865
21	74.013836145401	response	0	4		19.0	2.5	/experiments/knapen_aot/videos/R_S_yt-lCb_efvJcdE_5.mp4	0.0	127.72292304039001	
21	74.02219700813293	movie	1		301.0	19.0	2.5	/experiments/knapen_aot/videos/R_S_yt-lCb_efvJcdE_5.mp4	0.0	127.73128390312195	2.5081100463867188
21	76.53030705451965	fix_post	2		12.0	19.0	2.5	/experiments/knapen_aot/videos/R_S_yt-lCb_efvJcdE_5.mp4	0.0	130.23939394950867	0.10007405281066895
22	76.63038110733032	fix_pre	0		190.0	20.0	2.5	blank	1.0	130.33946800231934	1.5837938785552979
22	78.20731806755066	response	0	4		20.0	2.5	blank	1.0	131.91640496253967	
22	78.21417498588562	movie	1		301.0	20.0	2.5	blank	1.0	131.92326188087463	2.5077970027923584
22	80.72197198867798	fix_post	2		12.0	20.0	2.5	blank	1.0	134.431058883667	0.09995412826538086
23	80.82192611694336	fix_pre	0		27.0	21.0	2.5	/experiments/knapen_aot/videos/S_yt-YMI27rk5qUQ_117.mp4	0.0	134.53101301193237	0.2255258560180664
23	81.03875803947449	response	0	4		21.0	2.5	/experiments/knapen_aot/videos/S_yt-YMI27rk5qUQ_117.mp4	0.0	134.7478449344635	
23	81.04745197296143	movie	1		301.0	21.0	2.5	/experiments/knapen_aot/videos/S_yt-YMI27rk5qUQ_117.mp4	0.0	134.75653886795044	2.5078771114349365
23	83.55532908439636	fix_post	2		12.0	21.0	2.5	/experiments/knapen_aot/videos/S_yt-YMI27rk5qUQ_117.mp4	0.0	137.26441597938538	0.10000991821289062
24	83.65533900260925	fix_pre	0		20.0	22.0	2.5	/experiments/knapen_aot/videos/S_wc-__wCAtivIDG3_93.mp4	0.0	137.36442589759827	0.16664910316467285
24	83.81382417678833	response	0	4		22.0	2.5	/experiments/knapen_aot/videos/S_wc-__wCAtivIDG3_93.mp4	0.0	137.52291107177734	
24	83.82198810577393	movie	1		165.0	22.0	2.5	/experiments/knapen_aot/videos/S_wc-__wCAtivIDG3_93.mp4	0.0	137.53107500076294	2.5083038806915283
24	86.33029198646545	fix_post	2		12.0	22.0	2.5	/experiments/knapen_aot/videos/S_wc-__wCAtivIDG3_93.mp4	0.0	140.03937888145447	0.09993600845336914
25	86.43022799491882	fix_pre	0		16.0	23.0	2.5	/experiments/knapen_aot/videos/S_yt-j-ifVbxZePQ_70.mp4	0.0	140.13931488990784	0.1333920955657959
25	86.54783201217651	response	0	4		23.0	2.5	/experiments/knapen_aot/videos/S_yt-j-ifVbxZePQ_70.mp4	0.0	140.25691890716553	
25	86.56362009048462	movie	1		301.0	23.0	2.5	/experiments/knapen_aot/videos/S_yt-j-ifVbxZePQ_70.mp4	0.0	140.27270698547363	2.5083420276641846
25	89.0719621181488	fix_post	2		12.0	23.0	2.5	/experiments/knapen_aot/videos/S_yt-j-ifVbxZePQ_70.mp4	0.0	142.78104901313782	0.09997987747192383
26	89.17194199562073	fix_pre	0		83.0	24.0	2.5	/experiments/knapen_aot/videos/R_S_ILSVRC2015_train_00654000.mp4	0.0	142.88102889060974	0.6916751861572266
26	89.84800100326538	response	0	4		24.0	2.5	/experiments/knapen_aot/videos/R_S_ILSVRC2015_train_00654000.mp4	0.0	143.5570878982544	
26	89.86361718177795	movie	1		301.0	24.0	2.5	/experiments/knapen_aot/videos/R_S_ILSVRC2015_train_00654000.mp4	0.0	143.57270407676697	2.50832200050354
26	92.3719391822815	fix_post	2		12.0	24.0	2.5	/experiments/knapen_aot/videos/R_S_ILSVRC2015_train_00654000.mp4	0.0	146.0810260772705	0.09999895095825195
27	92.47193813323975	fix_pre	0		91.0	25.0	2.5	/experiments/knapen_aot/videos/R_S_yt-4x2eUikn9rw_212.mp4	0.0	146.18102502822876	0.7583329677581787
27	93.21451807022095	response	0	4		25.0	2.5	/experiments/knapen_aot/videos/R_S_yt-4x2eUikn9rw_212.mp4	0.0	146.92360496520996	
27	93.23027110099792	movie	1		301.0	25.0	2.5	/experiments/knapen_aot/videos/R_S_yt-4x2eUikn9rw_212.mp4	0.0	146.93935799598694	2.5083539485931396
27	95.73862504959106	fix_post	2		12.0	25.0	2.5	/experiments/knapen_aot/videos/R_S_yt-4x2eUikn9rw_212.mp4	0.0	149.44771194458008	0.1000361442565918
28	95.83866119384766	fix_pre	0		158.0	26.0	2.5	/experiments/knapen_aot/videos/R_S_yt-7Ya-rGPO8cM_159.mp4	0.0	149.54774808883667	1.31660795211792
28	97.14713597297668	response	0	4		26.0	2.5	/experiments/knapen_aot/videos/R_S_yt-7Ya-rGPO8cM_159.mp4	0.0	150.8562228679657	
28	97.15526914596558	movie	1		301.0	26.0	2.5	/experiments/knapen_aot/videos/R_S_yt-7Ya-rGPO8cM_159.mp4	0.0	150.8643560409546	2.508359909057617
28	99.6636290550232	fix_post	2		12.0	26.0	2.5	/experiments/knapen_aot/videos/R_S_yt-7Ya-rGPO8cM_159.mp4	0.0	153.3727159500122	0.10029911994934082
29	99.76392817497253	fix_pre	0		45.0	27.0	2.5	/experiments/knapen_aot/videos/R_S_yt-dWF89kq2JIA_13.mp4	0.0	153.47301506996155	0.3746769428253174
29	100.12286520004272	response	0	4		27.0	2.5	/experiments/knapen_aot/videos/R_S_yt-dWF89kq2JIA_13.mp4	0.0	153.83195209503174	
29	100.13860511779785	movie	1		301.0	27.0	2.5	/experiments/knapen_aot/videos/R_S_yt-dWF89kq2JIA_13.mp4	0.0	153.84769201278687	2.508333921432495
29	102.64693903923035	fix_post	2		12.0	27.0	2.5	/experiments/knapen_aot/videos/R_S_yt-dWF89kq2JIA_13.mp4	0.0	156.35602593421936	0.10000014305114746
30	102.7469391822815	fix_pre	0		30.0	28.0	2.5	blank	1.0	156.4560260772705	0.249985933303833
30	102.98869705200195	response	0	4		28.0	2.5	blank	1.0	156.69778394699097	
30	102.99692511558533	movie	1		301.0	28.0	2.5	blank	1.0	156.70601201057434	2.5083260536193848
30	105.50525116920471	fix_post	2		12.0	28.0	2.5	blank	1.0	159.21433806419373	0.10001397132873535
31	105.60526514053345	fix_pre	0		127.0	29.0	2.5	/experiments/knapen_aot/videos/S_yt-9NV8zv2Sdq4_30.mp4	0.0	159.31435203552246	1.0582618713378906
31	106.6552951335907	response	0	4		29.0	2.5	/experiments/knapen_aot/videos/S_yt-9NV8zv2Sdq4_30.mp4	0.0	160.3643820285797	
31	106.66352701187134	movie	1		301.0	29.0	2.5	/experiments/knapen_aot/videos/S_yt-9NV8zv2Sdq4_30.mp4	0.0	160.37261390686035	2.5083839893341064
31	109.17191100120544	fix_post	2		12.0	29.0	2.5	/experiments/knapen_aot/videos/S_yt-9NV8zv2Sdq4_30.mp4	0.0	162.88099789619446	0.09998416900634766
32	109.27189517021179	fix_pre	0		40.0	30.0	2.5	/experiments/knapen_aot/videos/R_S_yt-lADkWM79teI_18.mp4	0.0	162.9809820652008	0.3333098888397217
32	109.59706211090088	response	0	4		30.0	2.5	/experiments/knapen_aot/videos/R_S_yt-lADkWM79teI_18.mp4	0.0	163.3061490058899	
32	109.60520505905151	movie	1		301.0	30.0	2.5	/experiments/knapen_aot/videos/R_S_yt-lADkWM79teI_18.mp4	0.0	163.31429195404053	2.5083351135253906
32	112.1135401725769	fix_post	2		11.0	30.0	2.5	/experiments/knapen_aot/videos/R_S_yt-lADkWM79teI_18.mp4	0.0	165.82262706756592	0.10037493705749512
33	112.2139151096344	fix_pre	0		110.0	31.0	2.5	/experiments/knapen_aot/videos/S_ILSVRC2015_train_00165008.mp4	0.0	165.9230020046234	0.9166269302368164
33	113.11449718475342	response	0	4		31.0	2.5	/experiments/knapen_aot/videos/S_ILSVRC2015_train_00165008.mp4	0.0	166.82358407974243	
33	113.13054203987122	movie	1		301.0	31.0	2.5	/experiments/knapen_aot/videos/S_ILSVRC2015_train_00165008.mp4	0.0	166.83962893486023	2.5079901218414307
33	115.63853216171265	fix_post	2		12.0	31.0	2.5	/experiments/knapen_aot/videos/S_ILSVRC2015_train_00165008.mp4	0.0	169.34761905670166	0.09993100166320801
34	115.73846316337585	fix_pre	0		36.0	32.0	2.5	/experiments/knapen_aot/videos/R_S_comp_DB_D001_C005_COMP_PSNK_v12_SDR_PS_20180912_SDR_2K_AVC.mp4	0.0	169.44755005836487	0.30003786087036133
34	116.03032302856445	response	0	4		32.0	2.5	/experiments/knapen_aot/videos/R_S_comp_DB_D001_C005_COMP_PSNK_v12_SDR_PS_20180912_SDR_2K_AVC.mp4	0.0	169.73940992355347	
34	116.03850102424622	movie	1		171.0	32.0	2.5	/experiments/knapen_aot/videos/R_S_comp_DB_D001_C005_COMP_PSNK_v12_SDR_PS_20180912_SDR_2K_AVC.mp4	0.0	169.74758791923523	2.5083601474761963
34	118.54686117172241	fix_post	2		12.0	32.0	2.5	/experiments/knapen_aot/videos/R_S_comp_DB_D001_C005_COMP_PSNK_v12_SDR_PS_20180912_SDR_2K_AVC.mp4	0.0	172.25594806671143	0.09995293617248535
35	118.6468141078949	fix_pre	0		8.0	33.0	2.5	/experiments/knapen_aot/videos/S_yt-xrWo3lnbshw_80.mp4	0.0	172.3559010028839	0.06689095497131348
35	118.70532202720642	response	0	4		33.0	2.5	/experiments/knapen_aot/videos/S_yt-xrWo3lnbshw_80.mp4	0.0	172.41440892219543	
35	118.71370506286621	movie	1		301.0	33.0	2.5	/experiments/knapen_aot/videos/S_yt-xrWo3lnbshw_80.mp4	0.0	172.42279195785522	2.5081279277801514
35	121.22183299064636	fix_post	2		12.0	33.0	2.5	/experiments/knapen_aot/videos/S_yt-xrWo3lnbshw_80.mp4	0.0	174.93091988563538	0.10000109672546387
36	121.32183408737183	fix_pre	0		87.0	34.0	2.5	/experiments/knapen_aot/videos/S_yt-4rwBpRuHg-c_1308.mp4	0.0	175.03092098236084	0.7253110408782959
36	122.03867197036743	response	0	4		34.0	2.5	/experiments/knapen_aot/videos/S_yt-4rwBpRuHg-c_1308.mp4	0.0	175.74775886535645	
36	122.04714512825012	movie	1		301.0	34.0	2.5	/experiments/knapen_aot/videos/S_yt-4rwBpRuHg-c_1308.mp4	0.0	175.75623202323914	2.5079689025878906
36	124.55511403083801	fix_post	2		12.0	34.0	2.5	/experiments/knapen_aot/videos/S_yt-4rwBpRuHg-c_1308.mp4	0.0	178.26420092582703	0.09996795654296875
37	124.65508198738098	fix_pre	0		104.0	35.0	2.5	blank	1.0	178.36416888237	0.8666801452636719
37	125.51365518569946	response	0	4		35.0	2.5	blank	1.0	179.22274208068848	
37	125.52176213264465	movie	1		301.0	35.0	2.5	blank	1.0	179.23084902763367	2.5083370208740234
37	128.03009915351868	fix_post	2		12.0	35.0	2.5	blank	1.0	181.7391860485077	0.10024499893188477
38	128.13034415245056	fix_pre	0		56.0	36.0	2.5	/experiments/knapen_aot/videos/S_yt-UmLeGNcqouI_718.mp4	0.0	181.83943104743958	0.4664280414581299
38	128.58859515190125	response	0	4		36.0	2.5	/experiments/knapen_aot/videos/S_yt-UmLeGNcqouI_718.mp4	0.0	182.29768204689026	
38	128.5967721939087	movie	1		301.0	36.0	2.5	/experiments/knapen_aot/videos/S_yt-UmLeGNcqouI_718.mp4	0.0	182.3058590888977	2.5083580017089844
38	131.10513019561768	fix_post	2		12.0	36.0	2.5	/experiments/knapen_aot/videos/S_yt-UmLeGNcqouI_718.mp4	0.0	184.8142170906067	0.0999288558959961
39	131.20505905151367	fix_pre	0		50.0	37.0	2.5	/experiments/knapen_aot/videos/S_yt-zpoIiHGRm5k_296.mp4	0.0	184.91414594650269	0.41677212715148926
39	131.61355805397034	response	0	4		37.0	2.5	/experiments/knapen_aot/videos/S_yt-zpoIiHGRm5k_296.mp4	0.0	185.32264494895935	
39	131.62183117866516	movie	1		301.0	37.0	2.5	/experiments/knapen_aot/videos/S_yt-zpoIiHGRm5k_296.mp4	0.0	185.33091807365417	2.5082199573516846
39	134.13005113601685	fix_post	2		12.0	37.0	2.5	/experiments/knapen_aot/videos/S_yt-zpoIiHGRm5k_296.mp4	0.0	187.83913803100586	0.10010194778442383
40	134.23015308380127	fix_pre	0		43.0	38.0	2.5	/experiments/knapen_aot/videos/R_S_pexels-kampus-production-6022792.mp4	0.0	187.93923997879028	0.35843992233276367
40	134.5801441669464	response	0	4		38.0	2.5	/experiments/knapen_aot/videos/R_S_pexels-kampus-production-6022792.mp4	0.0	188.28923106193542	
40	134.58859300613403	movie	1		165.0	38.0	2.5	/experiments/knapen_aot/videos/R_S_pexels-kampus-production-6022792.mp4	0.0	188.29767990112305	2.5081851482391357
40	137.09677815437317	fix_post	2		12.0	38.0	2.5	/experiments/knapen_aot/videos/R_S_pexels-kampus-production-6022792.mp4	0.0	190.80586504936218	0.10002398490905762
41	137.19680213928223	fix_pre	0		27.0	39.0	2.5	/experiments/knapen_aot/videos/S_yt-BLmwmX-mni8_56.mp4	0.0	190.90588903427124	0.22515392303466797
41	137.41361713409424	response	0	4		39.0	2.5	/experiments/knapen_aot/videos/S_yt-BLmwmX-mni8_56.mp4	0.0	191.12270402908325	
41	137.4219560623169	movie	1		301.0	39.0	2.5	/experiments/knapen_aot/videos/S_yt-BLmwmX-mni8_56.mp4	0.0	191.1310429573059	2.5081400871276855
41	139.93009614944458	fix_post	2		12.0	39.0	2.5	/experiments/knapen_aot/videos/S_yt-BLmwmX-mni8_56.mp4	0.0	193.6391830444336	0.10000491142272949
42	140.0301010608673	fix_pre	0		277.0	40.0	2.5	blank	1.0	193.73918795585632	2.3084909915924072
42	142.33024501800537	response	0	4		40.0	2.5	blank	1.0	196.03933191299438	
42	142.33859205245972	movie	1		301.0	40.0	2.5	blank	1.0	196.04767894744873	2.5081770420074463
42	144.84676909446716	fix_post	2		12.0	40.0	2.5	blank	1.0	198.55585598945618	0.10000109672546387
43	144.94677019119263	fix_pre	0		151.0	41.0	2.5	/experiments/knapen_aot/videos/S_yt-dWF89kq2JIA_13.mp4	0.0	198.65585708618164	1.2582919597625732
43	146.19686818122864	response	0	4		41.0	2.5	/experiments/knapen_aot/videos/S_yt-dWF89kq2JIA_13.mp4	0.0	199.90595507621765	
43	146.2050621509552	movie	1		298.0	41.0	2.5	/experiments/knapen_aot/videos/S_yt-dWF89kq2JIA_13.mp4	0.0	199.9141490459442	2.50846004486084
43	148.71352219581604	fix_post	2		12.0	41.0	2.5	/experiments/knapen_aot/videos/S_yt-dWF89kq2JIA_13.mp4	0.0	202.42260909080505	0.09989094734191895
44	148.81341314315796	fix_pre	0		21.0	42.0	2.5	/experiments/knapen_aot/videos/R_S_Y004_C015_SDR_2K_AVC.mp4	0.0	202.52250003814697	0.17496800422668457
44	148.9802210330963	response	0	4		42.0	2.5	/experiments/knapen_aot/videos/R_S_Y004_C015_SDR_2K_AVC.mp4	0.0	202.68930792808533	
44	148.98838114738464	movie	1		167.0	42.0	2.5	/experiments/knapen_aot/videos/R_S_Y004_C015_SDR_2K_AVC.mp4	0.0	202.69746804237366	2.508362054824829
44	151.49674320220947	fix_post	2		12.0	42.0	2.5	/experiments/knapen_aot/videos/R_S_Y004_C015_SDR_2K_AVC.mp4	0.0	205.2058300971985	0.09998393058776855
45	151.59672713279724	fix_pre	0		62.0	43.0	2.5	/experiments/knapen_aot/videos/S_ILSVRC2015_train_00594000.mp4	0.0	205.30581402778625	0.5166878700256348
45	152.1052370071411	response	0	4		43.0	2.5	/experiments/knapen_aot/videos/S_ILSVRC2015_train_00594000.mp4	0.0	205.81432390213013	
45	152.11341500282288	movie	1		301.0	43.0	2.5	/experiments/knapen_aot/videos/S_ILSVRC2015_train_00594000.mp4	0.0	205.8225018978119	2.5083401203155518
45	154.62175512313843	fix_post	2		12.0	43.0	2.5	/experiments/knapen_aot/videos/S_ILSVRC2015_train_00594000.mp4	0.0	208.33084201812744	0.0999598503112793
46	154.7217149734497	fix_pre	0		38.0	44.0	2.5	/experiments/knapen_aot/videos/R_S_yt-gMqeZkpA_1Q_61.mp4	0.0	208.43080186843872	0.3166470527648926
46	155.03017210960388	response	0	4		44.0	2.5	/experiments/knapen_aot/videos/R_S_yt-gMqeZkpA_1Q_61.mp4	0.0	208.7392590045929	
46	155.0383620262146	movie	1		301.0	44.0	2.5	/experiments/knapen_aot/videos/R_S_yt-gMqeZkpA_1Q_61.mp4	0.0	208.7474489212036	2.5083789825439453
46	157.54674100875854	fix_post	2		12.0	44.0	2.5	/experiments/knapen_aot/videos/R_S_yt-gMqeZkpA_1Q_61.mp4	0.0	211.25582790374756	0.0999460220336914
47	157.64668703079224	fix_pre	0		112.0	45.0	2.5	/experiments/knapen_aot/videos/S_yt-lCb_efvJcdE_5.mp4	0.0	211.35577392578125	0.9332771301269531
47	158.57182216644287	response	0	4		45.0	2.5	/experiments/knapen_aot/videos/S_yt-lCb_efvJcdE_5.mp4	0.0	212.28090906143188	
47	158.5799641609192	movie	1		301.0	45.0	2.5	/experiments/knapen_aot/videos/S_yt-lCb_efvJcdE_5.mp4	0.0	212.2890510559082	2.5084738731384277
47	161.08843803405762	fix_post	2		12.0	45.0	2.5	/experiments/knapen_aot/videos/S_yt-lCb_efvJcdE_5.mp4	0.0	214.79752492904663	0.0999150276184082
48	161.18835306167603	fix_pre	0		54.0	46.0	2.5	/experiments/knapen_aot/videos/S_yt-qF-69JWJX_Y_55.mp4	0.0	214.89743995666504	0.44997596740722656
48	161.6301670074463	response	0	4		46.0	2.5	/experiments/knapen_aot/videos/S_yt-qF-69JWJX_Y_55.mp4	0.0	215.3392539024353	
48	161.63832902908325	movie	1		301.0	46.0	2.5	/experiments/knapen_aot/videos/S_yt-qF-69JWJX_Y_55.mp4	0.0	215.34741592407227	2.5083441734313965
48	164.14667320251465	fix_post	2		12.0	46.0	2.5	/experiments/knapen_aot/videos/S_yt-qF-69JWJX_Y_55.mp4	0.0	217.85576009750366	0.10001897811889648
49	164.24669218063354	fix_pre	0		34.0	47.0	2.5	blank	1.0	217.95577907562256	0.2833077907562256
49	164.52176904678345	response	0	4		47.0	2.5	blank	1.0	218.23085594177246	
49	164.52999997138977	movie	1		301.0	47.0	2.5	blank	1.0	218.23908686637878	2.50832200050354
49	167.0383219718933	fix_post	2		12.0	47.0	2.5	blank	1.0	220.74740886688232	0.10000300407409668
50	167.1383249759674	fix_pre	0		29.0	48.0	2.5	/experiments/knapen_aot/videos/R_S_comp_CH_C002_C005_PSNK_v05_SDR_PS_FINAL_20180709_SDR_2K_AVC.mp4	0.0	220.84741187095642	0.2416820526123047
50	167.3717861175537	response	0	4		48.0	2.5	/experiments/knapen_aot/videos/R_S_comp_CH_C002_C005_PSNK_v05_SDR_PS_FINAL_20180709_SDR_2K_AVC.mp4	0.0	221.08087301254272	
50	167.3800070285797	movie	1		182.0	48.0	2.5	/experiments/knapen_aot/videos/R_S_comp_CH_C002_C005_PSNK_v05_SDR_PS_FINAL_20180709_SDR_2K_AVC.mp4	0.0	221.08909392356873	2.5083141326904297
50	169.88832116127014	fix_post	2		12.0	48.0	2.5	/experiments/knapen_aot/videos/R_S_comp_CH_C002_C005_PSNK_v05_SDR_PS_FINAL_20180709_SDR_2K_AVC.mp4	0.0	223.59740805625916	0.0999448299407959
51	169.98826599121094	fix_pre	0		10.0	49.0	2.5	/experiments/knapen_aot/videos/S_yt-aiWUhl8MCto_71.mp4	0.0	223.69735288619995	0.08338618278503418
51	170.06367206573486	response	0	4		49.0	2.5	/experiments/knapen_aot/videos/S_yt-aiWUhl8MCto_71.mp4	0.0	223.77275896072388	
51	170.07165217399597	movie	1		301.0	49.0	2.5	/experiments/knapen_aot/videos/S_yt-aiWUhl8MCto_71.mp4	0.0	223.78073906898499	2.5083348751068115
51	172.57998704910278	fix_post	2		12.0	49.0	2.5	/experiments/knapen_aot/videos/S_yt-aiWUhl8MCto_71.mp4	0.0	226.2890739440918	0.09992814064025879
52	172.67991518974304	fix_pre	0		48.0	50.0	2.5	/experiments/knapen_aot/videos/R_S_ILSVRC2015_train_00219003.mp4	0.0	226.38900208473206	0.4000380039215088
52	173.07178497314453	response	0	4		50.0	2.5	/experiments/knapen_aot/videos/R_S_ILSVRC2015_train_00219003.mp4	0.0	226.78087186813354	
52	173.07995319366455	movie	1		299.0	50.0	2.5	/experiments/knapen_aot/videos/R_S_ILSVRC2015_train_00219003.mp4	0.0	226.78904008865356	2.508291006088257
52	175.5882441997528	fix_post	2		12.0	50.0	2.5	/experiments/knapen_aot/videos/R_S_ILSVRC2015_train_00219003.mp4	0.0	229.29733109474182	0.09991788864135742
53	175.68816208839417	fix_pre	0		29.0	51.0	2.5	/experiments/knapen_aot/videos/R_S_yt-X6ivH9SqGu8_306.mp4	0.0	229.39724898338318	0.24175190925598145
53	175.92170214653015	response	0	4		51.0	2.5	/experiments/knapen_aot/videos/R_S_yt-X6ivH9SqGu8_306.mp4	0.0	229.63078904151917	
53	175.92991399765015	movie	1		301.0	51.0	2.5	/experiments/knapen_aot/videos/R_S_yt-X6ivH9SqGu8_306.mp4	0.0	229.63900089263916	2.5082361698150635
53	178.4381501674652	fix_post	2		12.0	51.0	2.5	/experiments/knapen_aot/videos/R_S_yt-X6ivH9SqGu8_306.mp4	0.0	232.14723706245422	0.1000368595123291
54	178.53818702697754	fix_pre	0		33.0	52.0	2.5	/experiments/knapen_aot/videos/R_S_yt-xrWo3lnbshw_80.mp4	0.0	232.24727392196655	0.2750070095062256
54	178.79747819900513	response	0	4		52.0	2.5	/experiments/knapen_aot/videos/R_S_yt-xrWo3lnbshw_80.mp4	0.0	232.50656509399414	
54	178.81319403648376	movie	1		300.0	52.0	2.5	/experiments/knapen_aot/videos/R_S_yt-xrWo3lnbshw_80.mp4	0.0	232.52228093147278	2.508376121520996
54	181.32157015800476	fix_post	2		12.0	52.0	2.5	/experiments/knapen_aot/videos/R_S_yt-xrWo3lnbshw_80.mp4	0.0	235.03065705299377	0.09995102882385254
55	181.4215211868286	fix_pre	0		226.0	53.0	2.5	/experiments/knapen_aot/videos/R_S_yt-MWX0EtpWIs8_286.mp4	0.0	235.13060808181763	1.8833270072937012
55	183.29669618606567	response	0	4		53.0	2.5	/experiments/knapen_aot/videos/R_S_yt-MWX0EtpWIs8_286.mp4	0.0	237.0057830810547	
55	183.30484819412231	movie	1		301.0	53.0	2.5	/experiments/knapen_aot/videos/R_S_yt-MWX0EtpWIs8_286.mp4	0.0	237.01393508911133	2.5083107948303223
55	185.81315898895264	fix_post	2		12.0	53.0	2.5	/experiments/knapen_aot/videos/R_S_yt-MWX0EtpWIs8_286.mp4	0.0	239.52224588394165	0.10142803192138672
56	185.91458702087402	fix_pre	0		31.0	54.0	2.5	/experiments/knapen_aot/videos/R_S_pexels-tima-miroshnichenko-5717005.mp4	0.0	239.62367391586304	0.25695204734802246
56	186.16335010528564	response	0	4		54.0	2.5	/experiments/knapen_aot/videos/R_S_pexels-tima-miroshnichenko-5717005.mp4	0.0	239.87243700027466	
56	186.17153906822205	movie	1		166.0	54.0	2.5	/experiments/knapen_aot/videos/R_S_pexels-tima-miroshnichenko-5717005.mp4	0.0	239.88062596321106	2.5083699226379395
56	188.67990899085999	fix_post	2		12.0	54.0	2.5	/experiments/knapen_aot/videos/R_S_pexels-tima-miroshnichenko-5717005.mp4	0.0	242.388995885849	0.09996199607849121
57	188.77987098693848	fix_pre	0		48.0	55.0	2.5	/experiments/knapen_aot/videos/S_yt-feTWuKPZA_k_34.mp4	0.0	242.4889578819275	0.39992713928222656
57	189.17173218727112	response	0	4		55.0	2.5	/experiments/knapen_aot/videos/S_yt-feTWuKPZA_k_34.mp4	0.0	242.88081908226013	
57	189.1797981262207	movie	1		300.0	55.0	2.5	/experiments/knapen_aot/videos/S_yt-feTWuKPZA_k_34.mp4	0.0	242.88888502120972	2.508358955383301
57	191.688157081604	fix_post	2		12.0	55.0	2.5	/experiments/knapen_aot/videos/S_yt-feTWuKPZA_k_34.mp4	0.0	245.39724397659302	0.10005497932434082
58	191.78821206092834	fix_pre	0		93.0	56.0	2.5	blank	1.0	245.49729895591736	0.7749760150909424
58	192.55497908592224	response	0	4		56.0	2.5	blank	1.0	246.26406598091125	
58	192.5631880760193	movie	1		301.0	56.0	2.5	blank	1.0	246.2722749710083	2.5083510875701904
58	195.07153916358948	fix_post	2		12.0	56.0	2.5	blank	1.0	248.7806260585785	0.09990692138671875
59	195.1714460849762	fix_pre	0		245.0	57.0	2.5	/experiments/knapen_aot/videos/S_ILSVRC2015_train_00042003.mp4	0.0	248.8805329799652	2.0416789054870605
59	197.20487999916077	response	0	4		57.0	2.5	/experiments/knapen_aot/videos/S_ILSVRC2015_train_00042003.mp4	0.0	250.91396689414978	
59	197.21312499046326	movie	1		301.0	57.0	2.5	/experiments/knapen_aot/videos/S_ILSVRC2015_train_00042003.mp4	0.0	250.92221188545227	2.5084221363067627
59	199.72154712677002	fix_post	2		12.0	57.0	2.5	/experiments/knapen_aot/videos/S_ILSVRC2015_train_00042003.mp4	0.0	253.43063402175903	0.09989285469055176
60	199.82143998146057	fix_pre	0		36.0	58.0	2.5	/experiments/knapen_aot/videos/S_pexels-tima-miroshnichenko-8724308.mp4	0.0	253.53052687644958	0.30126118659973145
60	200.1133680343628	response	0	4		58.0	2.5	/experiments/knapen_aot/videos/S_pexels-tima-miroshnichenko-8724308.mp4	0.0	253.8224549293518	
60	200.1227011680603	movie	1		194.0	58.0	2.5	/experiments/knapen_aot/videos/S_pexels-tima-miroshnichenko-8724308.mp4	0.0	253.83178806304932	2.5071189403533936
60	202.6298201084137	fix_post	2		12.0	58.0	2.5	/experiments/knapen_aot/videos/S_pexels-tima-miroshnichenko-8724308.mp4	0.0	256.3389070034027	0.10000801086425781
61	202.72982811927795	fix_pre	0		224.0	59.0	2.5	/experiments/knapen_aot/videos/S_yt-Iu2ZPHLqXuY_32.mp4	0.0	256.43891501426697	1.866610050201416
61	204.5882580280304	response	0	4		59.0	2.5	/experiments/knapen_aot/videos/S_yt-Iu2ZPHLqXuY_32.mp4	0.0	258.2973449230194	
61	204.59643816947937	movie	1		301.0	59.0	2.5	/experiments/knapen_aot/videos/S_yt-Iu2ZPHLqXuY_32.mp4	0.0	258.3055250644684	2.508288860321045
61	207.10472702980042	fix_post	2		12.0	59.0	2.5	/experiments/knapen_aot/videos/S_yt-Iu2ZPHLqXuY_32.mp4	0.0	260.81381392478943	0.10004305839538574
62	207.2047700881958	fix_pre	0		127.0	60.0	2.5	/experiments/knapen_aot/videos/R_S_yt-2CWrK9nbhTk_211.mp4	0.0	260.9138569831848	1.0583240985870361
62	208.255038022995	response	0	4		60.0	2.5	/experiments/knapen_aot/videos/R_S_yt-2CWrK9nbhTk_211.mp4	0.0	261.964124917984	
62	208.26309418678284	movie	1		301.0	60.0	2.5	/experiments/knapen_aot/videos/R_S_yt-2CWrK9nbhTk_211.mp4	0.0	261.97218108177185	2.508384943008423
62	210.77147912979126	fix_post	2		12.0	60.0	2.5	/experiments/knapen_aot/videos/R_S_yt-2CWrK9nbhTk_211.mp4	0.0	264.4805660247803	0.09997296333312988
63	210.8714520931244	fix_pre	0		53.0	61.0	2.5	/experiments/knapen_aot/videos/R_S_yt-IPiZqn4dG9k_9.mp4	0.0	264.5805389881134	0.4416630268096924
63	211.30489706993103	response	0	4		61.0	2.5	/experiments/knapen_aot/videos/R_S_yt-IPiZqn4dG9k_9.mp4	0.0	265.01398396492004	
63	211.31311511993408	movie	1		300.0	61.0	2.5	/experiments/knapen_aot/videos/R_S_yt-IPiZqn4dG9k_9.mp4	0.0	265.0222020149231	2.5083439350128174
63	213.8214590549469	fix_post	2		12.0	61.0	2.5	/experiments/knapen_aot/videos/R_S_yt-IPiZqn4dG9k_9.mp4	0.0	267.5305459499359	0.10001707077026367
64	213.92147612571716	fix_pre	0		30.0	62.0	2.5	/experiments/knapen_aot/videos/S_yt-lGQ3wMI5-Yg_140.mp4	0.0	267.6305630207062	0.2499380111694336
64	214.16324520111084	response	0	4		62.0	2.5	/experiments/knapen_aot/videos/S_yt-lGQ3wMI5-Yg_140.mp4	0.0	267.87233209609985	
64	214.1714141368866	movie	1		301.0	62.0	2.5	/experiments/knapen_aot/videos/S_yt-lGQ3wMI5-Yg_140.mp4	0.0	267.8805010318756	2.508327007293701
64	216.6797411441803	fix_post	2		12.0	62.0	2.5	/experiments/knapen_aot/videos/S_yt-lGQ3wMI5-Yg_140.mp4	0.0	270.3888280391693	0.0999908447265625
65	216.77973198890686	fix_pre	0		45.0	63.0	2.5	blank	1.0	270.4888188838959	0.37499308586120605
65	217.1465699672699	response	0	4		63.0	2.5	blank	1.0	270.8556568622589	
65	217.15472507476807	movie	1		301.0	63.0	2.5	blank	1.0	270.8638119697571	2.508371114730835
65	219.6630961894989	fix_post	2		12.0	63.0	2.5	blank	1.0	273.3721830844879	0.09994983673095703
66	219.76304602622986	fix_pre	0		145.0	64.0	2.5	/experiments/knapen_aot/videos/R_S_yt-IPiZqn4dG9k_9.mp4	0.0	273.4721329212189	1.2083351612091064
66	220.95568299293518	response	0	4		64.0	2.5	/experiments/knapen_aot/videos/R_S_yt-IPiZqn4dG9k_9.mp4	0.0	274.6647698879242	
66	220.97138118743896	movie	1		300.0	64.0	2.5	/experiments/knapen_aot/videos/R_S_yt-IPiZqn4dG9k_9.mp4	0.0	274.680468082428	2.5082647800445557
66	223.47964596748352	fix_post	2		12.0	64.0	2.5	/experiments/knapen_aot/videos/R_S_yt-IPiZqn4dG9k_9.mp4	0.0	277.18873286247253	0.10009908676147461
67	223.579745054245	fix_pre	0		26.0	65.0	2.5	/experiments/knapen_aot/videos/R_S_yt-wrxk7fFkxHg_177.mp4	0.0	277.288831949234	0.21660995483398438
67	223.7882170677185	response	0	4		65.0	2.5	/experiments/knapen_aot/videos/R_S_yt-wrxk7fFkxHg_177.mp4	0.0	277.4973039627075	
67	223.79635500907898	movie	1		301.0	65.0	2.5	/experiments/knapen_aot/videos/R_S_yt-wrxk7fFkxHg_177.mp4	0.0	277.505441904068	2.5083460807800293
67	226.304701089859	fix_post	2		12.0	65.0	2.5	/experiments/knapen_aot/videos/R_S_yt-wrxk7fFkxHg_177.mp4	0.0	280.013787984848	0.10003995895385742
68	226.40474104881287	fix_pre	0		35.0	66.0	2.5	/experiments/knapen_aot/videos/R_S_yt-7VVzNnp36DM_62.mp4	0.0	280.1138279438019	0.29163503646850586
68	226.68817520141602	response	0	4		66.0	2.5	/experiments/knapen_aot/videos/R_S_yt-7VVzNnp36DM_62.mp4	0.0	280.39726209640503	
68	226.69637608528137	movie	1		301.0	66.0	2.5	/experiments/knapen_aot/videos/R_S_yt-7VVzNnp36DM_62.mp4	0.0	280.4054629802704	2.508533000946045
68	229.20490908622742	fix_post	2		12.0	66.0	2.5	/experiments/knapen_aot/videos/R_S_yt-7VVzNnp36DM_62.mp4	0.0	282.91399598121643	0.09977602958679199
69	229.3046851158142	fix_pre	0		37.0	67.0	2.5	/experiments/knapen_aot/videos/R_S_video_inspire_oregon_portland_00064.1080-h264.mp4	0.0	283.0137720108032	0.30826497077941895
69	229.60480499267578	response	0	4		67.0	2.5	/experiments/knapen_aot/videos/R_S_video_inspire_oregon_portland_00064.1080-h264.mp4	0.0	283.3138918876648	
69	229.61295008659363	movie	1		174.0	67.0	2.5	/experiments/knapen_aot/videos/R_S_video_inspire_oregon_portland_00064.1080-h264.mp4	0.0	283.32203698158264	2.5083870887756348
69	232.12133717536926	fix_post	2		12.0	67.0	2.5	/experiments/knapen_aot/videos/R_S_video_inspire_oregon_portland_00064.1080-h264.mp4	0.0	285.8304240703583	0.10000491142272949
70	232.221342086792	fix_pre	0		64.0	68.0	2.5	/experiments/knapen_aot/videos/S_ILSVRC2015_train_00704000.mp4	0.0	285.930428981781	0.5333399772644043
70	232.74649310112	response	0	4		68.0	2.5	/experiments/knapen_aot/videos/S_ILSVRC2015_train_00704000.mp4	0.0	286.455579996109	
70	232.7546820640564	movie	1		301.0	68.0	2.5	/experiments/knapen_aot/videos/S_ILSVRC2015_train_00704000.mp4	0.0	286.4637689590454	2.5083370208740234
70	235.26301908493042	fix_post	2		12.0	68.0	2.5	/experiments/knapen_aot/videos/S_ILSVRC2015_train_00704000.mp4	0.0	288.97210597991943	0.09998893737792969
71	235.36300802230835	fix_pre	0		42.0	69.0	2.5	/experiments/knapen_aot/videos/S_yt-GBt59U0KUR0_6.mp4	0.0	289.07209491729736	0.3499901294708252
71	235.7048110961914	response	0	4		69.0	2.5	/experiments/knapen_aot/videos/S_yt-GBt59U0KUR0_6.mp4	0.0	289.4138979911804	
71	235.71299815177917	movie	1		301.0	69.0	2.5	/experiments/knapen_aot/videos/S_yt-GBt59U0KUR0_6.mp4	0.0	289.4220850467682	2.5082900524139404
71	238.22128820419312	fix_post	2		12.0	69.0	2.5	/experiments/knapen_aot/videos/S_yt-GBt59U0KUR0_6.mp4	0.0	291.93037509918213	0.09993195533752441
72	238.32122015953064	fix_pre	0		26.0	70.0	2.5	blank	1.0	292.03030705451965	0.21677088737487793
72	238.52978706359863	response	0	4		70.0	2.5	blank	1.0	292.23887395858765	
72	238.53799104690552	movie	1		301.0	70.0	2.5	blank	1.0	292.24707794189453	2.508263111114502
72	241.04625415802002	fix_post	2		12.0	70.0	2.5	blank	1.0	294.75534105300903	0.10001087188720703
73	241.14626502990723	fix_pre	0		38.0	71.0	2.5	/experiments/knapen_aot/videos/S_yt-4rwBpRuHg-c_1308.mp4	0.0	294.85535192489624	0.31668996810913086
73	241.45474100112915	response	0	4		71.0	2.5	/experiments/knapen_aot/videos/S_yt-4rwBpRuHg-c_1308.mp4	0.0	295.16382789611816	
73	241.46295499801636	movie	1		301.0	71.0	2.5	/experiments/knapen_aot/videos/S_yt-4rwBpRuHg-c_1308.mp4	0.0	295.17204189300537	2.5082950592041016
73	243.97125005722046	fix_post	2		12.0	71.0	2.5	/experiments/knapen_aot/videos/S_yt-4rwBpRuHg-c_1308.mp4	0.0	297.6803369522095	0.10011506080627441
74	244.07136511802673	fix_pre	0		25.0	72.0	2.5	/experiments/knapen_aot/videos/S_yt-kxWtOXNIsRA_329.mp4	0.0	297.78045201301575	0.2082509994506836
74	244.26393103599548	response	0	4		72.0	2.5	/experiments/knapen_aot/videos/S_yt-kxWtOXNIsRA_329.mp4	0.0	297.9730179309845	
74	244.27961611747742	movie	1		301.0	72.0	2.5	/experiments/knapen_aot/videos/S_yt-kxWtOXNIsRA_329.mp4	0.0	297.98870301246643	2.5083320140838623
74	246.78794813156128	fix_post	2		12.0	72.0	2.5	/experiments/knapen_aot/videos/S_yt-kxWtOXNIsRA_329.mp4	0.0	300.4970350265503	0.10005402565002441
75	246.8880021572113	fix_pre	0		12.0	73.0	2.5	/experiments/knapen_aot/videos/R_S_pexels-pavel-danilyuk-8057714.mp4	0.0	300.5970890522003	0.0999598503112793
75	246.97978520393372	response	0	4		73.0	2.5	/experiments/knapen_aot/videos/R_S_pexels-pavel-danilyuk-8057714.mp4	0.0	300.68887209892273	
75	246.98796200752258	movie	1		168.0	73.0	2.5	/experiments/knapen_aot/videos/R_S_pexels-pavel-danilyuk-8057714.mp4	0.0	300.6970489025116	2.5083231925964355
75	249.49628520011902	fix_post	2		12.0	73.0	2.5	/experiments/knapen_aot/videos/R_S_pexels-pavel-danilyuk-8057714.mp4	0.0	303.20537209510803	0.10006284713745117
76	249.59634804725647	fix_pre	0		52.0	74.0	2.5	/experiments/knapen_aot/videos/R_S_ILSVRC2015_train_00371006.mp4	0.0	303.3054349422455	0.43325209617614746
76	250.02147316932678	response	0	4		74.0	2.5	/experiments/knapen_aot/videos/R_S_ILSVRC2015_train_00371006.mp4	0.0	303.7305600643158	
76	250.02960014343262	movie	1		301.0	74.0	2.5	/experiments/knapen_aot/videos/R_S_ILSVRC2015_train_00371006.mp4	0.0	303.73868703842163	2.5083818435668945
76	252.5379819869995	fix_post	2		12.0	74.0	2.5	/experiments/knapen_aot/videos/R_S_ILSVRC2015_train_00371006.mp4	0.0	306.2470688819885	0.10001301765441895
77	252.63799500465393	fix_pre	0		56.0	75.0	2.5	/experiments/knapen_aot/videos/R_S_yt-f9iXELY0EJ0_344.mp4	0.0	306.34708189964294	0.466655969619751
77	253.09643697738647	response	0	4		75.0	2.5	/experiments/knapen_aot/videos/R_S_yt-f9iXELY0EJ0_344.mp4	0.0	306.8055238723755	
77	253.10465097427368	movie	1		301.0	75.0	2.5	/experiments/knapen_aot/videos/R_S_yt-f9iXELY0EJ0_344.mp4	0.0	306.8137378692627	2.5083072185516357
77	255.61295819282532	fix_post	2		12.0	75.0	2.5	/experiments/knapen_aot/videos/R_S_yt-f9iXELY0EJ0_344.mp4	0.0	309.32204508781433	0.10000181198120117
78	255.71296000480652	fix_pre	0		56.0	76.0	2.5	/experiments/knapen_aot/videos/S_yt-zpoIiHGRm5k_296.mp4	0.0	309.42204689979553	0.4666471481323242
78	256.171452999115	response	0	4		76.0	2.5	/experiments/knapen_aot/videos/S_yt-zpoIiHGRm5k_296.mp4	0.0	309.880539894104	
78	256.17960715293884	movie	1		301.0	76.0	2.5	/experiments/knapen_aot/videos/S_yt-zpoIiHGRm5k_296.mp4	0.0	309.88869404792786	2.508352041244507
78	258.68795919418335	fix_post	2		12.0	76.0	2.5	/experiments/knapen_aot/videos/S_yt-zpoIiHGRm5k_296.mp4	0.0	312.39704608917236	0.10001397132873535
79	258.7879731655121	fix_pre	0		26.0	77.0	2.5	blank	1.0	312.4970600605011	0.21671700477600098
79	258.9888470172882	response	0	4		77.0	2.5	blank	1.0	312.6979339122772	
79	259.0046901702881	movie	1		301.0	77.0	2.5	blank	1.0	312.7137770652771	2.5082738399505615
79	261.51296401023865	fix_post	2		12.0	77.0	2.5	blank	1.0	315.22205090522766	0.09996199607849121
80	261.61292600631714	fix_pre	0		421.0	78.0	2.5	/experiments/knapen_aot/videos/S_yt-oVrkSsEpuvk_118.mp4	0.0	315.32201290130615	3.5091631412506104
80	265.1130111217499	response	0	4		78.0	2.5	/experiments/knapen_aot/videos/S_yt-oVrkSsEpuvk_118.mp4	0.0	318.8220980167389	
80	265.12208914756775	movie	1		300.0	78.0	2.5	/experiments/knapen_aot/videos/S_yt-oVrkSsEpuvk_118.mp4	0.0	318.83117604255676	2.5074288845062256
80	267.629518032074	fix_post	2		12.0	78.0	2.5	/experiments/knapen_aot/videos/S_yt-oVrkSsEpuvk_118.mp4	0.0	321.338604927063	0.09999299049377441
81	267.72951102256775	fix_pre	0		28.0	79.0	2.5	/experiments/knapen_aot/videos/S_yt-gMqeZkpA_1Q_61.mp4	0.0	321.43859791755676	0.23333406448364258
81	267.95465302467346	response	0	4		79.0	2.5	/experiments/knapen_aot/videos/S_yt-gMqeZkpA_1Q_61.mp4	0.0	321.6637399196625	
81	267.9628450870514	movie	1		301.0	79.0	2.5	/experiments/knapen_aot/videos/S_yt-gMqeZkpA_1Q_61.mp4	0.0	321.6719319820404	2.5083000659942627
81	270.47114515304565	fix_post	2		12.0	79.0	2.5	/experiments/knapen_aot/videos/S_yt-gMqeZkpA_1Q_61.mp4	0.0	324.18023204803467	0.10001802444458008
82	270.57116317749023	fix_pre	0		34.0	80.0	2.5	/experiments/knapen_aot/videos/S_pexels-rodnae-productions-5993671.mp4	0.0	324.28025007247925	0.28338193893432617
82	270.8463010787964	response	0	4		80.0	2.5	/experiments/knapen_aot/videos/S_pexels-rodnae-productions-5993671.mp4	0.0	324.5553879737854	
82	270.85454511642456	movie	1		163.0	80.0	2.5	/experiments/knapen_aot/videos/S_pexels-rodnae-productions-5993671.mp4	0.0	324.5636320114136	2.5082859992980957
82	273.36283111572266	fix_post	2		12.0	80.0	2.5	/experiments/knapen_aot/videos/S_pexels-rodnae-productions-5993671.mp4	0.0	327.07191801071167	0.1000220775604248
83	273.4628531932831	fix_pre	0		60.0	81.0	2.5	/experiments/knapen_aot/videos/S_yt--DXkjCUzThU_413.mp4	0.0	327.1719400882721	0.4999849796295166
83	273.9545910358429	response	0	4		81.0	2.5	/experiments/knapen_aot/videos/S_yt--DXkjCUzThU_413.mp4	0.0	327.6636779308319	
83	273.9628381729126	movie	1		301.0	81.0	2.5	/experiments/knapen_aot/videos/S_yt--DXkjCUzThU_413.mp4	0.0	327.6719250679016	2.50839900970459
83	276.4712371826172	fix_post	2		12.0	81.0	2.5	/experiments/knapen_aot/videos/S_yt--DXkjCUzThU_413.mp4	0.0	330.1803240776062	0.09993886947631836
84	276.5711760520935	fix_pre	0		37.0	82.0	2.5	/experiments/knapen_aot/videos/R_S_yt-5ws2gxbcjs4_381.mp4	0.0	330.2802629470825	0.3082699775695801
84	276.8712320327759	response	0	4		82.0	2.5	/experiments/knapen_aot/videos/R_S_yt-5ws2gxbcjs4_381.mp4	0.0	330.5803189277649	
84	276.8794460296631	movie	1		301.0	82.0	2.5	/experiments/knapen_aot/videos/R_S_yt-5ws2gxbcjs4_381.mp4	0.0	330.5885329246521	2.508331060409546
84	279.38777709007263	fix_post	2		12.0	82.0	2.5	/experiments/knapen_aot/videos/R_S_yt-5ws2gxbcjs4_381.mp4	0.0	333.09686398506165	0.1000220775604248
85	279.48779916763306	fix_pre	0		158.0	83.0	2.5	blank	1.0	333.19688606262207	1.3166348934173584
85	280.79630398750305	response	0	4		83.0	2.5	blank	1.0	334.50539088249207	
85	280.8044340610504	movie	1		301.0	83.0	2.5	blank	1.0	334.51352095603943	2.5083720684051514
85	283.31280612945557	fix_post	2		12.0	83.0	2.5	blank	1.0	337.0218930244446	0.0999150276184082
87	283.412721157074	stim	0		116.0					337.121808052063	0.9667320251464844
87	284.36834502220154	response	0	space						338.07743191719055	
