trial_nr	onset	event_type	phase	response	nr_frames	movie_index	movie_duration	movie_file	blank	onset_abs	duration
0	0.15982818603515625	stim	0		46.0					130.01481819152832	0.38183093070983887
0	0.5250771045684814	response	0	space						130.38006711006165	
1	0.5416591167449951	stim	0		121.0					130.39664912223816	1.007422924041748
1	1.2408771514892578	response	0	space						131.09586715698242	
1	1.5490820407867432	stim	1		120.0					131.4040720462799	0.999567985534668
1	2.057131052017212	response	1	space						131.91212105751038	
2	2.548650026321411	fix_pre	0		15.0	0.0	2.5	/experiments/knapen_aot/videos/S_yt-xKteiAi5h7Q_36.mp4	0.0	132.40364003181458	0.12499499320983887
2	2.6653871536254883	response	0	space		0.0	2.5	/experiments/knapen_aot/videos/S_yt-xKteiAi5h7Q_36.mp4	0.0	132.52037715911865	
2	2.67364501953125	movie	1		298.0	0.0	2.5	/experiments/knapen_aot/videos/S_yt-xKteiAi5h7Q_36.mp4	0.0	132.5286350250244	2.5083301067352295
2	5.1819751262664795	fix_post	2		12.0	0.0	2.5	/experiments/knapen_aot/videos/S_yt-xKteiAi5h7Q_36.mp4	0.0	135.03696513175964	0.10005998611450195
3	5.2820351123809814	fix_pre	0		80.0	1.0	2.5	/experiments/knapen_aot/videos/R_S_yt-M5qZo3CUXYE_27.mp4	0.0	135.13702511787415	0.6689648628234863
3	5.942944049835205	response	0	2		1.0	2.5	/experiments/knapen_aot/videos/R_S_yt-M5qZo3CUXYE_27.mp4	0.0	135.79793405532837	
3	5.950999975204468	movie	1		300.0	1.0	2.5	/experiments/knapen_aot/videos/R_S_yt-M5qZo3CUXYE_27.mp4	0.0	135.80598998069763	2.5059289932250977
3	8.456928968429565	fix_post	2		12.0	1.0	2.5	/experiments/knapen_aot/videos/R_S_yt-M5qZo3CUXYE_27.mp4	0.0	138.31191897392273	0.09996414184570312
4	8.556893110275269	fix_pre	0		51.0	2.0	2.5	/experiments/knapen_aot/videos/S_g201_WH_D004_L014_SDR_20191031_SDR_2K_AVC.mp4	0.0	138.41188311576843	0.42500805854797363
4	8.97373104095459	response	0	2		2.0	2.5	/experiments/knapen_aot/videos/S_g201_WH_D004_L014_SDR_20191031_SDR_2K_AVC.mp4	0.0	138.82872104644775	
4	8.981901168823242	movie	1		167.0	2.0	2.5	/experiments/knapen_aot/videos/S_g201_WH_D004_L014_SDR_20191031_SDR_2K_AVC.mp4	0.0	138.8368911743164	2.508427858352661
4	11.490329027175903	fix_post	2		12.0	2.0	2.5	/experiments/knapen_aot/videos/S_g201_WH_D004_L014_SDR_20191031_SDR_2K_AVC.mp4	0.0	141.34531903266907	0.09997916221618652
5	11.59030818939209	fix_pre	0		17.0	3.0	2.5	/experiments/knapen_aot/videos/S_yt-_zDYi2P-QxY_128.mp4	0.0	141.44529819488525	0.1416149139404297
5	11.716238975524902	response	0	2		3.0	2.5	/experiments/knapen_aot/videos/S_yt-_zDYi2P-QxY_128.mp4	0.0	141.57122898101807	
5	11.73192310333252	movie	1		301.0	3.0	2.5	/experiments/knapen_aot/videos/S_yt-_zDYi2P-QxY_128.mp4	0.0	141.58691310882568	2.5082879066467285
5	14.240211009979248	fix_post	2		12.0	3.0	2.5	/experiments/knapen_aot/videos/S_yt-_zDYi2P-QxY_128.mp4	0.0	144.0952010154724	0.10006308555603027
6	14.340274095535278	fix_pre	0		151.0	4.0	2.5	/experiments/knapen_aot/videos/R_S_yt-kNZUFy3cbjQ_9.mp4	0.0	144.19526410102844	1.2582390308380127
6	15.590469121932983	response	0	2		4.0	2.5	/experiments/knapen_aot/videos/R_S_yt-kNZUFy3cbjQ_9.mp4	0.0	145.44545912742615	
6	15.598513126373291	movie	1		301.0	4.0	2.5	/experiments/knapen_aot/videos/R_S_yt-kNZUFy3cbjQ_9.mp4	0.0	145.45350313186646	2.5083370208740234
6	18.106850147247314	fix_post	2		12.0	4.0	2.5	/experiments/knapen_aot/videos/R_S_yt-kNZUFy3cbjQ_9.mp4	0.0	147.96184015274048	0.1000819206237793
7	18.206932067871094	fix_pre	0		40.0	5.0	2.5	blank	1.0	148.06192207336426	0.3342709541320801
7	18.53203511238098	response	0	2		5.0	2.5	blank	1.0	148.38702511787415	
7	18.541203022003174	movie	1		301.0	5.0	2.5	blank	1.0	148.39619302749634	2.507341146469116
7	21.04854416847229	fix_post	2		12.0	5.0	2.5	blank	1.0	150.90353417396545	0.09992098808288574
8	21.148465156555176	fix_pre	0		32.0	6.0	2.5	/experiments/knapen_aot/videos/R_S_yt-WrwPgZYBXlA_34.mp4	0.0	151.00345516204834	0.2676818370819092
8	21.406960010528564	response	0	2		6.0	2.5	/experiments/knapen_aot/videos/R_S_yt-WrwPgZYBXlA_34.mp4	0.0	151.26195001602173	
8	21.416146993637085	movie	1		301.0	6.0	2.5	/experiments/knapen_aot/videos/R_S_yt-WrwPgZYBXlA_34.mp4	0.0	151.27113699913025	2.5073940753936768
8	23.92354106903076	fix_post	2		12.0	6.0	2.5	/experiments/knapen_aot/videos/R_S_yt-WrwPgZYBXlA_34.mp4	0.0	153.77853107452393	0.10006999969482422
9	24.023611068725586	fix_pre	0		24.0	7.0	2.5	/experiments/knapen_aot/videos/R_S_yt-r7brAHgxZSU_248.mp4	0.0	153.87860107421875	0.19991707801818848
9	24.207884073257446	response	0	2		7.0	2.5	/experiments/knapen_aot/videos/R_S_yt-r7brAHgxZSU_248.mp4	0.0	154.0628740787506	
9	24.223528146743774	movie	1		301.0	7.0	2.5	/experiments/knapen_aot/videos/R_S_yt-r7brAHgxZSU_248.mp4	0.0	154.07851815223694	2.5083160400390625
9	26.731844186782837	fix_post	2		12.0	7.0	2.5	/experiments/knapen_aot/videos/R_S_yt-r7brAHgxZSU_248.mp4	0.0	156.586834192276	0.10089588165283203
10	26.83274006843567	fix_pre	0		32.0	8.0	2.5	/experiments/knapen_aot/videos/R_S_yt-ja8Pmpik_ao_112.mp4	0.0	156.68773007392883	0.2658369541168213
10	27.0903000831604	response	0	2		8.0	2.5	/experiments/knapen_aot/videos/R_S_yt-ja8Pmpik_ao_112.mp4	0.0	156.94529008865356	
10	27.09857702255249	movie	1		301.0	8.0	2.5	/experiments/knapen_aot/videos/R_S_yt-ja8Pmpik_ao_112.mp4	0.0	156.95356702804565	2.50829815864563
10	29.60687518119812	fix_post	2		12.0	8.0	2.5	/experiments/knapen_aot/videos/R_S_yt-ja8Pmpik_ao_112.mp4	0.0	159.46186518669128	0.09998083114624023
11	29.70685601234436	fix_pre	0		48.0	9.0	2.5	/experiments/knapen_aot/videos/S_production_ID_5139371.mp4	0.0	159.56184601783752	0.3999330997467041
11	30.098656177520752	response	0	2		9.0	2.5	/experiments/knapen_aot/videos/S_production_ID_5139371.mp4	0.0	159.95364618301392	
11	30.106789112091064	movie	1		164.0	9.0	2.5	/experiments/knapen_aot/videos/S_production_ID_5139371.mp4	0.0	159.96177911758423	2.508391857147217
11	32.61518096923828	fix_post	2		12.0	9.0	2.5	/experiments/knapen_aot/videos/S_production_ID_5139371.mp4	0.0	162.47017097473145	0.09998607635498047
12	32.71516704559326	fix_pre	0		147.0	10.0	2.5	/experiments/knapen_aot/videos/R_S_P005_C002_UHD_SDR_2K_AVC.mp4	0.0	162.57015705108643	1.2249770164489746
12	33.932021141052246	response	0	2		10.0	2.5	/experiments/knapen_aot/videos/R_S_P005_C002_UHD_SDR_2K_AVC.mp4	0.0	163.7870111465454	
12	33.940144062042236	movie	1		169.0	10.0	2.5	/experiments/knapen_aot/videos/R_S_P005_C002_UHD_SDR_2K_AVC.mp4	0.0	163.7951340675354	2.5083250999450684
12	36.448469161987305	fix_post	2		12.0	10.0	2.5	/experiments/knapen_aot/videos/R_S_P005_C002_UHD_SDR_2K_AVC.mp4	0.0	166.30345916748047	0.10003995895385742
13	36.54850912094116	fix_pre	0		42.0	11.0	2.5	/experiments/knapen_aot/videos/R_S_ILSVRC2015_train_00762000.mp4	0.0	166.40349912643433	0.34995007514953613
13	36.89024305343628	response	0	2		11.0	2.5	/experiments/knapen_aot/videos/R_S_ILSVRC2015_train_00762000.mp4	0.0	166.74523305892944	
13	36.8984591960907	movie	1		301.0	11.0	2.5	/experiments/knapen_aot/videos/R_S_ILSVRC2015_train_00762000.mp4	0.0	166.75344920158386	2.5084068775177
13	39.4068660736084	fix_post	2		12.0	11.0	2.5	/experiments/knapen_aot/videos/R_S_ILSVRC2015_train_00762000.mp4	0.0	169.26185607910156	0.09999203681945801
14	39.506858110427856	fix_pre	0		24.0	12.0	2.5	blank	1.0	169.36184811592102	0.20086288452148438
14	39.698646068573	response	0	2		12.0	2.5	blank	1.0	169.55363607406616	
14	39.70772099494934	movie	1		301.0	12.0	2.5	blank	1.0	169.5627110004425	2.5074620246887207
14	42.21518301963806	fix_post	2		12.0	12.0	2.5	blank	1.0	172.07017302513123	0.10000014305114746
15	42.31518316268921	fix_pre	0		170.0	13.0	2.5	/experiments/knapen_aot/videos/R_S_ILSVRC2015_train_00067003.mp4	0.0	172.17017316818237	1.416651964187622
15	43.72364902496338	response	0	2		13.0	2.5	/experiments/knapen_aot/videos/R_S_ILSVRC2015_train_00067003.mp4	0.0	173.57863903045654	
15	43.73183512687683	movie	1		301.0	13.0	2.5	/experiments/knapen_aot/videos/R_S_ILSVRC2015_train_00067003.mp4	0.0	173.58682513237	2.508336067199707
15	46.24017119407654	fix_post	2		12.0	13.0	2.5	/experiments/knapen_aot/videos/R_S_ILSVRC2015_train_00067003.mp4	0.0	176.0951611995697	0.09995484352111816
16	46.340126037597656	fix_pre	0		43.0	14.0	2.5	/experiments/knapen_aot/videos/R_S_yt-zlbtESb7Fcw_28.mp4	0.0	176.19511604309082	0.3583641052246094
16	46.690317153930664	response	0	2		14.0	2.5	/experiments/knapen_aot/videos/R_S_yt-zlbtESb7Fcw_28.mp4	0.0	176.54530715942383	
16	46.698490142822266	movie	1		301.0	14.0	2.5	/experiments/knapen_aot/videos/R_S_yt-zlbtESb7Fcw_28.mp4	0.0	176.55348014831543	2.508319854736328
16	49.206809997558594	fix_post	2		12.0	14.0	2.5	/experiments/knapen_aot/videos/R_S_yt-zlbtESb7Fcw_28.mp4	0.0	179.06180000305176	0.09996914863586426
17	49.30677914619446	fix_pre	0		50.0	15.0	2.5	/experiments/knapen_aot/videos/R_S_pexels-mikhail-nilov-8410063.mp4	0.0	179.16176915168762	0.41681790351867676
17	49.71525001525879	response	0	2		15.0	2.5	/experiments/knapen_aot/videos/R_S_pexels-mikhail-nilov-8410063.mp4	0.0	179.57024002075195	
17	49.723597049713135	movie	1		165.0	15.0	2.5	/experiments/knapen_aot/videos/R_S_pexels-mikhail-nilov-8410063.mp4	0.0	179.5785870552063	2.508165121078491
17	52.231762170791626	fix_post	2		12.0	15.0	2.5	/experiments/knapen_aot/videos/R_S_pexels-mikhail-nilov-8410063.mp4	0.0	182.0867521762848	0.09991788864135742
18	52.33168005943298	fix_pre	0		42.0	16.0	2.5	/experiments/knapen_aot/videos/R_S_yt-w_C-15eJeCQ_191.mp4	0.0	182.18667006492615	0.35004401206970215
18	52.673583984375	response	0	2		16.0	2.5	/experiments/knapen_aot/videos/R_S_yt-w_C-15eJeCQ_191.mp4	0.0	182.52857398986816	
18	52.681724071502686	movie	1		301.0	16.0	2.5	/experiments/knapen_aot/videos/R_S_yt-w_C-15eJeCQ_191.mp4	0.0	182.53671407699585	2.5083200931549072
18	55.19004416465759	fix_post	2		12.0	16.0	2.5	/experiments/knapen_aot/videos/R_S_yt-w_C-15eJeCQ_191.mp4	0.0	185.04503417015076	0.10006499290466309
19	55.290109157562256	fix_pre	0		53.0	17.0	2.5	/experiments/knapen_aot/videos/R_S_yt-etQaTgGOhR4_69.mp4	0.0	185.14509916305542	0.4416370391845703
19	55.72353410720825	response	0	2		17.0	2.5	/experiments/knapen_aot/videos/R_S_yt-etQaTgGOhR4_69.mp4	0.0	185.57852411270142	
19	55.731746196746826	movie	1		301.0	17.0	2.5	/experiments/knapen_aot/videos/R_S_yt-etQaTgGOhR4_69.mp4	0.0	185.58673620224	2.508380889892578
19	58.240127086639404	fix_post	2		12.0	17.0	2.5	/experiments/knapen_aot/videos/R_S_yt-etQaTgGOhR4_69.mp4	0.0	188.09511709213257	0.09991788864135742
20	58.34004497528076	fix_pre	0		81.0	18.0	2.5	/experiments/knapen_aot/videos/S_yt-e9AZJKNv9ow_359.mp4	0.0	188.19503498077393	0.6749551296234131
20	58.99924898147583	response	0	2		18.0	2.5	/experiments/knapen_aot/videos/S_yt-e9AZJKNv9ow_359.mp4	0.0	188.854238986969	
20	59.015000104904175	movie	1		301.0	18.0	2.5	/experiments/knapen_aot/videos/S_yt-e9AZJKNv9ow_359.mp4	0.0	188.86999011039734	2.5084149837493896
20	61.523415088653564	fix_post	2		12.0	18.0	2.5	/experiments/knapen_aot/videos/S_yt-e9AZJKNv9ow_359.mp4	0.0	191.37840509414673	0.10000205039978027
21	61.623417139053345	fix_pre	0		38.0	19.0	2.5	/experiments/knapen_aot/videos/R_S_yt-e9AZJKNv9ow_359.mp4	0.0	191.4784071445465	0.3166379928588867
21	61.93185997009277	response	0	2		19.0	2.5	/experiments/knapen_aot/videos/R_S_yt-e9AZJKNv9ow_359.mp4	0.0	191.78684997558594	
21	61.94005513191223	movie	1		298.0	19.0	2.5	/experiments/knapen_aot/videos/R_S_yt-e9AZJKNv9ow_359.mp4	0.0	191.7950451374054	2.508359909057617
21	64.44841504096985	fix_post	2		12.0	19.0	2.5	/experiments/knapen_aot/videos/R_S_yt-e9AZJKNv9ow_359.mp4	0.0	194.303405046463	0.09993505477905273
22	64.5483500957489	fix_pre	0		80.0	20.0	2.5	/experiments/knapen_aot/videos/S_yt-VTNBCfQxnsk_59.mp4	0.0	194.40334010124207	0.6666889190673828
22	65.20680499076843	response	0	2		20.0	2.5	/experiments/knapen_aot/videos/S_yt-VTNBCfQxnsk_59.mp4	0.0	195.0617949962616	
22	65.21503901481628	movie	1		301.0	20.0	2.5	/experiments/knapen_aot/videos/S_yt-VTNBCfQxnsk_59.mp4	0.0	195.07002902030945	2.5083789825439453
22	67.72341799736023	fix_post	2		12.0	20.0	2.5	/experiments/knapen_aot/videos/S_yt-VTNBCfQxnsk_59.mp4	0.0	197.5784080028534	0.09999513626098633
23	67.82341313362122	fix_pre	0		39.0	21.0	2.5	blank	1.0	197.67840313911438	0.3249850273132324
23	68.14005613327026	response	0	2		21.0	2.5	blank	1.0	197.99504613876343	
23	68.14839816093445	movie	1		301.0	21.0	2.5	blank	1.0	198.0033881664276	2.5083189010620117
23	70.65671706199646	fix_post	2		12.0	21.0	2.5	blank	1.0	200.51170706748962	0.09996700286865234
24	70.75668406486511	fix_pre	0		36.0	22.0	2.5	/experiments/knapen_aot/videos/S_production_ID_4325516.mp4	0.0	200.61167407035828	0.2999749183654785
24	71.04844117164612	response	0	2		22.0	2.5	/experiments/knapen_aot/videos/S_production_ID_4325516.mp4	0.0	200.90343117713928	
24	71.05665898323059	movie	1		200.0	22.0	2.5	/experiments/knapen_aot/videos/S_production_ID_4325516.mp4	0.0	200.91164898872375	2.5083889961242676
24	73.56504797935486	fix_post	2		12.0	22.0	2.5	/experiments/knapen_aot/videos/S_production_ID_4325516.mp4	0.0	203.42003798484802	0.10001301765441895
25	73.66506099700928	fix_pre	0		24.0	23.0	2.5	/experiments/knapen_aot/videos/S_yt-2IxVZeiSv3g_28.mp4	0.0	203.52005100250244	0.20889711380004883
25	73.86513614654541	response	0	2		23.0	2.5	/experiments/knapen_aot/videos/S_yt-2IxVZeiSv3g_28.mp4	0.0	203.72012615203857	
25	73.87395811080933	movie	1		301.0	23.0	2.5	/experiments/knapen_aot/videos/S_yt-2IxVZeiSv3g_28.mp4	0.0	203.7289481163025	2.507646083831787
25	76.38160419464111	fix_post	2		12.0	23.0	2.5	/experiments/knapen_aot/videos/S_yt-2IxVZeiSv3g_28.mp4	0.0	206.23659420013428	0.10004782676696777
26	76.48165202140808	fix_pre	0		14.0	24.0	2.5	/experiments/knapen_aot/videos/R_S_yt-bmGWhOCsvJo_128.mp4	0.0	206.33664202690125	0.11666011810302734
26	76.59011197090149	response	0	2		24.0	2.5	/experiments/knapen_aot/videos/R_S_yt-bmGWhOCsvJo_128.mp4	0.0	206.44510197639465	
26	76.59831213951111	movie	1		301.0	24.0	2.5	/experiments/knapen_aot/videos/R_S_yt-bmGWhOCsvJo_128.mp4	0.0	206.45330214500427	2.508359909057617
26	79.10667204856873	fix_post	2		12.0	24.0	2.5	/experiments/knapen_aot/videos/R_S_yt-bmGWhOCsvJo_128.mp4	0.0	208.9616620540619	0.09999394416809082
27	79.20666599273682	fix_pre	0		16.0	25.0	2.5	/experiments/knapen_aot/videos/S_yt-9mWz93En7Gw_97.mp4	0.0	209.06165599822998	0.13331818580627441
27	79.33172917366028	response	0	2		25.0	2.5	/experiments/knapen_aot/videos/S_yt-9mWz93En7Gw_97.mp4	0.0	209.18671917915344	
27	79.33998417854309	movie	1		301.0	25.0	2.5	/experiments/knapen_aot/videos/S_yt-9mWz93En7Gw_97.mp4	0.0	209.19497418403625	2.508301019668579
27	81.84828519821167	fix_post	2		12.0	25.0	2.5	/experiments/knapen_aot/videos/S_yt-9mWz93En7Gw_97.mp4	0.0	211.70327520370483	0.09999489784240723
28	81.94828009605408	fix_pre	0		82.0	26.0	2.5	/experiments/knapen_aot/videos/R_S_yt-xWCPbUQc-vg_7.mp4	0.0	211.80327010154724	0.6833240985870361
28	82.62344002723694	response	0	2		26.0	2.5	/experiments/knapen_aot/videos/R_S_yt-xWCPbUQc-vg_7.mp4	0.0	212.4784300327301	
28	82.63160419464111	movie	1		301.0	26.0	2.5	/experiments/knapen_aot/videos/R_S_yt-xWCPbUQc-vg_7.mp4	0.0	212.48659420013428	2.5083398818969727
28	85.13994407653809	fix_post	2		12.0	26.0	2.5	/experiments/knapen_aot/videos/R_S_yt-xWCPbUQc-vg_7.mp4	0.0	214.99493408203125	0.10002398490905762
29	85.23996806144714	fix_pre	0		43.0	27.0	2.5	blank	1.0	215.0949580669403	0.35831499099731445
29	85.59012007713318	response	0	2		27.0	2.5	blank	1.0	215.44511008262634	
29	85.59828305244446	movie	1		301.0	27.0	2.5	blank	1.0	215.45327305793762	2.50833797454834
29	88.1066210269928	fix_post	2		12.0	27.0	2.5	blank	1.0	217.96161103248596	0.10061097145080566
30	88.2072319984436	fix_pre	0		60.0	28.0	2.5	/experiments/knapen_aot/videos/R_S_yt-CXn1PGH67_s_20.mp4	0.0	218.06222200393677	0.4999401569366455
30	88.69845199584961	response	0	2		28.0	2.5	/experiments/knapen_aot/videos/R_S_yt-CXn1PGH67_s_20.mp4	0.0	218.55344200134277	
30	88.70717215538025	movie	1		301.0	28.0	2.5	/experiments/knapen_aot/videos/R_S_yt-CXn1PGH67_s_20.mp4	0.0	218.5621621608734	2.5077948570251465
30	91.2149670124054	fix_post	2		12.0	28.0	2.5	/experiments/knapen_aot/videos/R_S_yt-CXn1PGH67_s_20.mp4	0.0	221.06995701789856	0.09995102882385254
31	91.31491804122925	fix_pre	0		38.0	29.0	2.5	/experiments/knapen_aot/videos/R_S_production_ID_4269182.mp4	0.0	221.1699080467224	0.3166821002960205
31	91.62340116500854	response	0	2		29.0	2.5	/experiments/knapen_aot/videos/R_S_production_ID_4269182.mp4	0.0	221.4783911705017	
31	91.63160014152527	movie	1		201.0	29.0	2.5	/experiments/knapen_aot/videos/R_S_production_ID_4269182.mp4	0.0	221.48659014701843	2.508333921432495
31	94.13993406295776	fix_post	2		12.0	29.0	2.5	/experiments/knapen_aot/videos/R_S_production_ID_4269182.mp4	0.0	223.99492406845093	0.09996509552001953
32	94.23989915847778	fix_pre	0		81.0	30.0	2.5	/experiments/knapen_aot/videos/S_yt-cG2qDR5ka5w_119.mp4	0.0	224.09488916397095	0.6756198406219482
32	94.90674710273743	response	0	2		30.0	2.5	/experiments/knapen_aot/videos/S_yt-cG2qDR5ka5w_119.mp4	0.0	224.7617371082306	
32	94.91551899909973	movie	1		301.0	30.0	2.5	/experiments/knapen_aot/videos/S_yt-cG2qDR5ka5w_119.mp4	0.0	224.7705090045929	2.5077621936798096
32	97.42328119277954	fix_post	2		12.0	30.0	2.5	/experiments/knapen_aot/videos/S_yt-cG2qDR5ka5w_119.mp4	0.0	227.2782711982727	0.0999608039855957
33	97.52324199676514	fix_pre	0		24.0	31.0	2.5	/experiments/knapen_aot/videos/S_comp_DB_D011_D009_SIGNCMP_v15_6Mbps.mp4	0.0	227.3782320022583	0.20001912117004395
33	97.71507096290588	response	0	2		31.0	2.5	/experiments/knapen_aot/videos/S_comp_DB_D011_D009_SIGNCMP_v15_6Mbps.mp4	0.0	227.57006096839905	
33	97.72326111793518	movie	1		182.0	31.0	2.5	/experiments/knapen_aot/videos/S_comp_DB_D011_D009_SIGNCMP_v15_6Mbps.mp4	0.0	227.57825112342834	2.5083110332489014
33	100.23157215118408	fix_post	2		12.0	31.0	2.5	/experiments/knapen_aot/videos/S_comp_DB_D011_D009_SIGNCMP_v15_6Mbps.mp4	0.0	230.08656215667725	0.10057401657104492
34	100.33214616775513	fix_pre	0		21.0	32.0	2.5	/experiments/knapen_aot/videos/S_yt-wPXrAuiiRZg_1062.mp4	0.0	230.1871361732483	0.17441797256469727
34	100.49840116500854	response	0	2		32.0	2.5	/experiments/knapen_aot/videos/S_yt-wPXrAuiiRZg_1062.mp4	0.0	230.3533911705017	
34	100.50656414031982	movie	1		301.0	32.0	2.5	/experiments/knapen_aot/videos/S_yt-wPXrAuiiRZg_1062.mp4	0.0	230.361554145813	2.5082759857177734
34	103.0148401260376	fix_post	2		10.0	32.0	2.5	/experiments/knapen_aot/videos/S_yt-wPXrAuiiRZg_1062.mp4	0.0	232.86983013153076	0.09995293617248535
35	103.11479306221008	fix_pre	0		13.0	33.0	2.5	blank	1.0	232.96978306770325	0.1084139347076416
35	103.21504712104797	response	0	2		33.0	2.5	blank	1.0	233.07003712654114	
35	103.22320699691772	movie	1		301.0	33.0	2.5	blank	1.0	233.0781970024109	2.508334159851074
35	105.7315411567688	fix_post	2		12.0	33.0	2.5	blank	1.0	235.58653116226196	0.09997797012329102
36	105.83151912689209	fix_pre	0		24.0	34.0	2.5	/experiments/knapen_aot/videos/R_S_ILSVRC2015_train_00457000.mp4	0.0	235.68650913238525	0.20000791549682617
36	106.02332019805908	response	0	2		34.0	2.5	/experiments/knapen_aot/videos/R_S_ILSVRC2015_train_00457000.mp4	0.0	235.87831020355225	
36	106.03152704238892	movie	1		301.0	34.0	2.5	/experiments/knapen_aot/videos/R_S_ILSVRC2015_train_00457000.mp4	0.0	235.88651704788208	2.50826096534729
36	108.5397880077362	fix_post	2		12.0	34.0	2.5	/experiments/knapen_aot/videos/R_S_ILSVRC2015_train_00457000.mp4	0.0	238.39477801322937	0.10004806518554688
37	108.63983607292175	fix_pre	0		21.0	35.0	2.5	/experiments/knapen_aot/videos/R_S_3WAnGcPubBY_179.mp4	0.0	238.49482607841492	0.17497897148132324
37	108.8066520690918	response	0	2		35.0	2.5	/experiments/knapen_aot/videos/R_S_3WAnGcPubBY_179.mp4	0.0	238.66164207458496	
37	108.81481504440308	movie	1		298.0	35.0	2.5	/experiments/knapen_aot/videos/R_S_3WAnGcPubBY_179.mp4	0.0	238.66980504989624	2.508289098739624
37	111.3231041431427	fix_post	2		12.0	35.0	2.5	/experiments/knapen_aot/videos/R_S_3WAnGcPubBY_179.mp4	0.0	241.17809414863586	0.1000969409942627
38	111.42320108413696	fix_pre	0		30.0	36.0	2.5	/experiments/knapen_aot/videos/S_yt-qF-69JWJX_Y_55.mp4	0.0	241.27819108963013	0.24998188018798828
38	111.66494798660278	response	0	2		36.0	2.5	/experiments/knapen_aot/videos/S_yt-qF-69JWJX_Y_55.mp4	0.0	241.51993799209595	
38	111.67318296432495	movie	1		301.0	36.0	2.5	/experiments/knapen_aot/videos/S_yt-qF-69JWJX_Y_55.mp4	0.0	241.52817296981812	2.5083601474761963
38	114.18154311180115	fix_post	2		12.0	36.0	2.5	/experiments/knapen_aot/videos/S_yt-qF-69JWJX_Y_55.mp4	0.0	244.0365331172943	0.09992289543151855
39	114.28146600723267	fix_pre	0		45.0	37.0	2.5	/experiments/knapen_aot/videos/R_S_pexels-cottonbro-5310858.mp4	0.0	244.13645601272583	0.374920129776001
39	114.64832401275635	response	0	2		37.0	2.5	/experiments/knapen_aot/videos/R_S_pexels-cottonbro-5310858.mp4	0.0	244.5033140182495	
39	114.65638613700867	movie	1		168.0	37.0	2.5	/experiments/knapen_aot/videos/R_S_pexels-cottonbro-5310858.mp4	0.0	244.51137614250183	2.5085229873657227
39	117.16490912437439	fix_post	2		12.0	37.0	2.5	/experiments/knapen_aot/videos/R_S_pexels-cottonbro-5310858.mp4	0.0	247.01989912986755	0.09987998008728027
40	117.26478910446167	fix_pre	0		47.0	38.0	2.5	/experiments/knapen_aot/videos/R_S_yt-FLMdajcbjcg_35.mp4	0.0	247.11977910995483	0.39180588722229004
40	117.64827799797058	response	0	2		38.0	2.5	/experiments/knapen_aot/videos/R_S_yt-FLMdajcbjcg_35.mp4	0.0	247.50326800346375	
40	117.65659499168396	movie	1		301.0	38.0	2.5	/experiments/knapen_aot/videos/R_S_yt-FLMdajcbjcg_35.mp4	0.0	247.51158499717712	2.5082011222839355
40	120.1647961139679	fix_post	2		12.0	38.0	2.5	/experiments/knapen_aot/videos/R_S_yt-FLMdajcbjcg_35.mp4	0.0	250.01978611946106	0.10006499290466309
41	120.26486110687256	fix_pre	0		45.0	39.0	2.5	/experiments/knapen_aot/videos/R_S_ILSVRC2015_train_00087003.mp4	0.0	250.11985111236572	0.37489891052246094
41	120.63158297538757	response	0	2		39.0	2.5	/experiments/knapen_aot/videos/R_S_ILSVRC2015_train_00087003.mp4	0.0	250.48657298088074	
41	120.63976001739502	movie	1		301.0	39.0	2.5	/experiments/knapen_aot/videos/R_S_ILSVRC2015_train_00087003.mp4	0.0	250.49475002288818	2.5083320140838623
41	123.14809203147888	fix_post	2		12.0	39.0	2.5	/experiments/knapen_aot/videos/R_S_ILSVRC2015_train_00087003.mp4	0.0	253.00308203697205	0.10044312477111816
42	123.24853515625	fix_pre	0		20.0	40.0	2.5	blank	1.0	253.10352516174316	0.1666858196258545
42	123.40656900405884	response	0	2		40.0	2.5	blank	1.0	253.261559009552	
42	123.41522097587585	movie	1		301.0	40.0	2.5	blank	1.0	253.27021098136902	2.507840156555176
42	125.92306113243103	fix_post	2		12.0	40.0	2.5	blank	1.0	255.7780511379242	0.10006499290466309
43	126.0231261253357	fix_pre	0		46.0	41.0	2.5	/experiments/knapen_aot/videos/R_S_yt-fIEGqReekCM_10.mp4	0.0	255.87811613082886	0.3832838535308838
43	126.39814400672913	response	0	2		41.0	2.5	/experiments/knapen_aot/videos/R_S_yt-fIEGqReekCM_10.mp4	0.0	256.2531340122223	
43	126.40640997886658	movie	1		301.0	41.0	2.5	/experiments/knapen_aot/videos/R_S_yt-fIEGqReekCM_10.mp4	0.0	256.26139998435974	2.5083630084991455
43	128.91477298736572	fix_post	2		12.0	41.0	2.5	/experiments/knapen_aot/videos/R_S_yt-fIEGqReekCM_10.mp4	0.0	258.7697629928589	0.09998416900634766
44	129.01475715637207	fix_pre	0		7.0	42.0	2.5	/experiments/knapen_aot/videos/R_S_yt-IyxCMODHSSE_29.mp4	0.0	258.86974716186523	0.05835294723510742
44	129.0649220943451	response	0	2		42.0	2.5	/experiments/knapen_aot/videos/R_S_yt-IyxCMODHSSE_29.mp4	0.0	258.91991209983826	
44	129.07311010360718	movie	1		301.0	42.0	2.5	/experiments/knapen_aot/videos/R_S_yt-IyxCMODHSSE_29.mp4	0.0	258.92810010910034	2.5083460807800293
44	131.5814561843872	fix_post	2		12.0	42.0	2.5	/experiments/knapen_aot/videos/R_S_yt-IyxCMODHSSE_29.mp4	0.0	261.43644618988037	0.09993791580200195
45	131.6813941001892	fix_pre	0		33.0	43.0	2.5	/experiments/knapen_aot/videos/R_S_wc-oyG6AjP_W2EL_15.mp4	0.0	261.5363841056824	0.2753889560699463
45	131.94810009002686	response	0	2		43.0	2.5	/experiments/knapen_aot/videos/R_S_wc-oyG6AjP_W2EL_15.mp4	0.0	261.80309009552	
45	131.95678305625916	movie	1		301.0	43.0	2.5	/experiments/knapen_aot/videos/R_S_wc-oyG6AjP_W2EL_15.mp4	0.0	261.8117730617523	2.5079989433288574
45	134.464781999588	fix_post	2		12.0	43.0	2.5	/experiments/knapen_aot/videos/R_S_wc-oyG6AjP_W2EL_15.mp4	0.0	264.3197720050812	0.10002517700195312
46	134.56480717658997	fix_pre	0		19.0	44.0	2.5	/experiments/knapen_aot/videos/S_ILnEDG_aP1A_35.mp4	0.0	264.41979718208313	0.15829801559448242
46	134.70743012428284	response	0	2		44.0	2.5	/experiments/knapen_aot/videos/S_ILnEDG_aP1A_35.mp4	0.0	264.562420129776	
46	134.72310519218445	movie	1		301.0	44.0	2.5	/experiments/knapen_aot/videos/S_ILnEDG_aP1A_35.mp4	0.0	264.5780951976776	2.5083518028259277
46	137.23145699501038	fix_post	2		12.0	44.0	2.5	/experiments/knapen_aot/videos/S_ILnEDG_aP1A_35.mp4	0.0	267.08644700050354	0.09998798370361328
47	137.331444978714	fix_pre	0		53.0	45.0	2.5	/experiments/knapen_aot/videos/R_S_yt-r7brAHgxZSU_248.mp4	0.0	267.18643498420715	0.4415900707244873
47	137.76486897468567	response	0	2		45.0	2.5	/experiments/knapen_aot/videos/R_S_yt-r7brAHgxZSU_248.mp4	0.0	267.61985898017883	
47	137.77303504943848	movie	1		298.0	45.0	2.5	/experiments/knapen_aot/videos/R_S_yt-r7brAHgxZSU_248.mp4	0.0	267.62802505493164	2.5083839893341064
47	140.28141903877258	fix_post	2		12.0	45.0	2.5	/experiments/knapen_aot/videos/R_S_yt-r7brAHgxZSU_248.mp4	0.0	270.13640904426575	0.09999799728393555
48	140.38141703605652	fix_pre	0		24.0	46.0	2.5	/experiments/knapen_aot/videos/S_ILSVRC2015_train_00565000.mp4	0.0	270.2364070415497	0.20028305053710938
48	140.5731840133667	response	0	2		46.0	2.5	/experiments/knapen_aot/videos/S_ILSVRC2015_train_00565000.mp4	0.0	270.42817401885986	
48	140.58170008659363	movie	1		301.0	46.0	2.5	/experiments/knapen_aot/videos/S_ILSVRC2015_train_00565000.mp4	0.0	270.4366900920868	2.5079801082611084
48	143.08968019485474	fix_post	2		12.0	46.0	2.5	/experiments/knapen_aot/videos/S_ILSVRC2015_train_00565000.mp4	0.0	272.9446702003479	0.10005998611450195
49	143.18974018096924	fix_pre	0		27.0	47.0	2.5	/experiments/knapen_aot/videos/R_S_yt-GFcuvjHJmS4_86.mp4	0.0	273.0447301864624	0.22525882720947266
49	143.40651416778564	response	0	2		47.0	2.5	/experiments/knapen_aot/videos/R_S_yt-GFcuvjHJmS4_86.mp4	0.0	273.2615041732788	
49	143.4149990081787	movie	1		301.0	47.0	2.5	/experiments/knapen_aot/videos/R_S_yt-GFcuvjHJmS4_86.mp4	0.0	273.2699890136719	2.5080010890960693
49	145.92300009727478	fix_post	2		12.0	47.0	2.5	/experiments/knapen_aot/videos/R_S_yt-GFcuvjHJmS4_86.mp4	0.0	275.77799010276794	0.10004997253417969
50	146.02305006980896	fix_pre	0		48.0	48.0	2.5	blank	1.0	275.8780400753021	0.39990711212158203
50	146.41485214233398	response	0	2		48.0	2.5	blank	1.0	276.26984214782715	
50	146.42295718193054	movie	1		301.0	48.0	2.5	blank	1.0	276.2779471874237	2.5082828998565674
50	148.9312400817871	fix_post	2		12.0	48.0	2.5	blank	1.0	278.7862300872803	0.10006093978881836
51	149.03130102157593	fix_pre	0		68.0	49.0	2.5	/experiments/knapen_aot/videos/S_yt-CR86bVrRwfo_13.mp4	0.0	278.8862910270691	0.5666661262512207
51	149.58977007865906	response	0	2		49.0	2.5	/experiments/knapen_aot/videos/S_yt-CR86bVrRwfo_13.mp4	0.0	279.4447600841522	
51	149.59796714782715	movie	1		301.0	49.0	2.5	/experiments/knapen_aot/videos/S_yt-CR86bVrRwfo_13.mp4	0.0	279.4529571533203	2.508363962173462
51	152.1063311100006	fix_post	2		12.0	49.0	2.5	/experiments/knapen_aot/videos/S_yt-CR86bVrRwfo_13.mp4	0.0	281.9613211154938	0.10027694702148438
52	152.2066080570221	fix_pre	0		22.0	50.0	2.5	/experiments/knapen_aot/videos/R_S_ILSVRC2015_train_00682003.mp4	0.0	282.06159806251526	0.18302106857299805
52	152.38146710395813	response	0	2		50.0	2.5	/experiments/knapen_aot/videos/R_S_ILSVRC2015_train_00682003.mp4	0.0	282.2364571094513	
52	152.3896291255951	movie	1		301.0	50.0	2.5	/experiments/knapen_aot/videos/R_S_ILSVRC2015_train_00682003.mp4	0.0	282.24461913108826	2.5084478855133057
52	154.8980770111084	fix_post	2		12.0	50.0	2.5	/experiments/knapen_aot/videos/R_S_ILSVRC2015_train_00682003.mp4	0.0	284.75306701660156	0.10018301010131836
53	154.99826002120972	fix_pre	0		4.0	51.0	2.5	/experiments/knapen_aot/videos/R_S_wc-DgBY_btLlgBC_19.mp4	0.0	284.8532500267029	0.03309512138366699
53	155.0231430530548	response	0	2		51.0	2.5	/experiments/knapen_aot/videos/R_S_wc-DgBY_btLlgBC_19.mp4	0.0	284.878133058548	
53	155.03135514259338	movie	1		168.0	51.0	2.5	/experiments/knapen_aot/videos/R_S_wc-DgBY_btLlgBC_19.mp4	0.0	284.88634514808655	2.508323907852173
53	157.53967905044556	fix_post	2		12.0	51.0	2.5	/experiments/knapen_aot/videos/R_S_wc-DgBY_btLlgBC_19.mp4	0.0	287.3946690559387	0.09998106956481934
54	157.63966012001038	fix_pre	0		129.0	52.0	2.5	/experiments/knapen_aot/videos/S_video-11.mp4	0.0	287.49465012550354	1.0749430656433105
54	158.70645117759705	response	0	2		52.0	2.5	/experiments/knapen_aot/videos/S_video-11.mp4	0.0	288.5614411830902	
54	158.7146031856537	movie	1		168.0	52.0	2.5	/experiments/knapen_aot/videos/S_video-11.mp4	0.0	288.56959319114685	2.5083768367767334
54	161.22298002243042	fix_post	2		12.0	52.0	2.5	/experiments/knapen_aot/videos/S_video-11.mp4	0.0	291.0779700279236	0.1000070571899414
55	161.32298707962036	fix_pre	0		64.0	53.0	2.5	/experiments/knapen_aot/videos/S_wc-q23aBNJMZbnZ_27.mp4	0.0	291.1779770851135	0.5332839488983154
55	161.84946298599243	response	0	2		53.0	2.5	/experiments/knapen_aot/videos/S_wc-q23aBNJMZbnZ_27.mp4	0.0	291.7044529914856	
55	161.85627102851868	movie	1		164.0	53.0	2.5	/experiments/knapen_aot/videos/S_wc-q23aBNJMZbnZ_27.mp4	0.0	291.71126103401184	2.5084540843963623
55	164.36472511291504	fix_post	2		12.0	53.0	2.5	/experiments/knapen_aot/videos/S_wc-q23aBNJMZbnZ_27.mp4	0.0	294.2197151184082	0.09990191459655762
56	164.4646270275116	fix_pre	0		21.0	54.0	2.5	/experiments/knapen_aot/videos/S_yt-xBwq6sHHF5M_21.mp4	0.0	294.31961703300476	0.1750030517578125
56	164.63145518302917	response	0	2		54.0	2.5	/experiments/knapen_aot/videos/S_yt-xBwq6sHHF5M_21.mp4	0.0	294.48644518852234	
56	164.6396300792694	movie	1		301.0	54.0	2.5	/experiments/knapen_aot/videos/S_yt-xBwq6sHHF5M_21.mp4	0.0	294.4946200847626	2.508302927017212
56	167.14793300628662	fix_post	2		12.0	54.0	2.5	/experiments/knapen_aot/videos/S_yt-xBwq6sHHF5M_21.mp4	0.0	297.0029230117798	0.10014009475708008
57	167.2480731010437	fix_pre	0		23.0	55.0	2.5	/experiments/knapen_aot/videos/S_3WAnGcPubBY_179.mp4	0.0	297.10306310653687	0.19150209426879883
57	167.4313941001892	response	0	2		55.0	2.5	/experiments/knapen_aot/videos/S_3WAnGcPubBY_179.mp4	0.0	297.2863841056824	
57	167.4395751953125	movie	1		301.0	55.0	2.5	/experiments/knapen_aot/videos/S_3WAnGcPubBY_179.mp4	0.0	297.29456520080566	2.5083580017089844
57	169.94793319702148	fix_post	2		12.0	55.0	2.5	/experiments/knapen_aot/videos/S_3WAnGcPubBY_179.mp4	0.0	299.80292320251465	0.10005497932434082
58	170.04798817634583	fix_pre	0		184.0	56.0	2.5	blank	1.0	299.902978181839	1.5334208011627197
58	171.573096036911	response	0	2		56.0	2.5	blank	1.0	301.4280860424042	
58	171.58140897750854	movie	1		301.0	56.0	2.5	blank	1.0	301.4363989830017	2.5081961154937744
58	174.08960509300232	fix_post	2		12.0	56.0	2.5	blank	1.0	303.9445950984955	0.09998202323913574
59	174.18958711624146	fix_pre	0		32.0	57.0	2.5	/experiments/knapen_aot/videos/S_KP_A010_C002_SDR_20190717_SDR_2K_AVC.mp4	0.0	304.0445771217346	0.26678991317749023
59	174.44792103767395	response	0	2		57.0	2.5	/experiments/knapen_aot/videos/S_KP_A010_C002_SDR_20190717_SDR_2K_AVC.mp4	0.0	304.3029110431671	
59	174.45637702941895	movie	1		169.0	57.0	2.5	/experiments/knapen_aot/videos/S_KP_A010_C002_SDR_20190717_SDR_2K_AVC.mp4	0.0	304.3113670349121	2.5081779956817627
59	176.9645550251007	fix_post	2		12.0	57.0	2.5	/experiments/knapen_aot/videos/S_KP_A010_C002_SDR_20190717_SDR_2K_AVC.mp4	0.0	306.8195450305939	0.09998011589050293
60	177.0645351409912	fix_pre	0		92.0	58.0	2.5	/experiments/knapen_aot/videos/S_yt-0n0uppNuUus_15.mp4	0.0	306.9195251464844	0.7668468952178955
60	177.82293915748596	response	0	2		58.0	2.5	/experiments/knapen_aot/videos/S_yt-0n0uppNuUus_15.mp4	0.0	307.6779291629791	
60	177.8313820362091	movie	1		301.0	58.0	2.5	/experiments/knapen_aot/videos/S_yt-0n0uppNuUus_15.mp4	0.0	307.68637204170227	2.508178949356079
60	180.33956098556519	fix_post	2		12.0	58.0	2.5	/experiments/knapen_aot/videos/S_yt-0n0uppNuUus_15.mp4	0.0	310.19455099105835	0.10000300407409668
61	180.43956398963928	fix_pre	0		54.0	59.0	2.5	/experiments/knapen_aot/videos/S_production_ID_4673611.mp4	0.0	310.29455399513245	0.4499959945678711
61	180.88125014305115	response	0	2		59.0	2.5	/experiments/knapen_aot/videos/S_production_ID_4673611.mp4	0.0	310.7362401485443	
61	180.88955998420715	movie	1		175.0	59.0	2.5	/experiments/knapen_aot/videos/S_production_ID_4673611.mp4	0.0	310.7445499897003	2.5082671642303467
61	183.3978271484375	fix_post	2		12.0	59.0	2.5	/experiments/knapen_aot/videos/S_production_ID_4673611.mp4	0.0	313.25281715393066	0.10013794898986816
62	183.49796509742737	fix_pre	0		3.0	60.0	2.5	/experiments/knapen_aot/videos/R_S_yt-28ODBE9bVh0_44.mp4	0.0	313.35295510292053	0.024858951568603516
62	183.51471304893494	response	0	2		60.0	2.5	/experiments/knapen_aot/videos/R_S_yt-28ODBE9bVh0_44.mp4	0.0	313.3697030544281	
62	183.52282404899597	movie	1		301.0	60.0	2.5	/experiments/knapen_aot/videos/R_S_yt-28ODBE9bVh0_44.mp4	0.0	313.37781405448914	2.5083699226379395
62	186.0311939716339	fix_post	2		12.0	60.0	2.5	/experiments/knapen_aot/videos/R_S_yt-28ODBE9bVh0_44.mp4	0.0	315.8861839771271	0.10000014305114746
63	186.13119411468506	fix_pre	0		78.0	61.0	2.5	blank	1.0	315.9861841201782	0.6499738693237305
63	186.7729971408844	response	0	2		61.0	2.5	blank	1.0	316.62798714637756	
63	186.7811679840088	movie	1		301.0	61.0	2.5	blank	1.0	316.63615798950195	2.5084590911865234
63	189.2896270751953	fix_post	2		12.0	61.0	2.5	blank	1.0	319.1446170806885	0.09990906715393066
64	189.38953614234924	fix_pre	0		140.0	62.0	2.5	/experiments/knapen_aot/videos/S_yt-o0Hbe7kcPps_70.mp4	0.0	319.2445261478424	1.1666629314422607
64	190.547993183136	response	0	2		62.0	2.5	/experiments/knapen_aot/videos/S_yt-o0Hbe7kcPps_70.mp4	0.0	320.40298318862915	
64	190.5561990737915	movie	1		300.0	62.0	2.5	/experiments/knapen_aot/videos/S_yt-o0Hbe7kcPps_70.mp4	0.0	320.41118907928467	2.5083189010620117
64	193.06451797485352	fix_post	2		12.0	62.0	2.5	/experiments/knapen_aot/videos/S_yt-o0Hbe7kcPps_70.mp4	0.0	322.9195079803467	0.10004615783691406
65	193.16456413269043	fix_pre	0		31.0	63.0	2.5	/experiments/knapen_aot/videos/S_yt-IyxCMODHSSE_29.mp4	0.0	323.0195541381836	0.25824785232543945
65	193.41463804244995	response	0	2		63.0	2.5	/experiments/knapen_aot/videos/S_yt-IyxCMODHSSE_29.mp4	0.0	323.2696280479431	
65	193.42281198501587	movie	1		301.0	63.0	2.5	/experiments/knapen_aot/videos/S_yt-IyxCMODHSSE_29.mp4	0.0	323.27780199050903	2.5083861351013184
65	195.9311981201172	fix_post	2		12.0	63.0	2.5	/experiments/knapen_aot/videos/S_yt-IyxCMODHSSE_29.mp4	0.0	325.78618812561035	0.09993505477905273
66	196.03113317489624	fix_pre	0		35.0	64.0	2.5	/experiments/knapen_aot/videos/S_yt-BLmwmX-mni8_56.mp4	0.0	325.8861231803894	0.2916579246520996
66	196.31454396247864	response	0	2		64.0	2.5	/experiments/knapen_aot/videos/S_yt-BLmwmX-mni8_56.mp4	0.0	326.1695339679718	
66	196.32279109954834	movie	1		300.0	64.0	2.5	/experiments/knapen_aot/videos/S_yt-BLmwmX-mni8_56.mp4	0.0	326.1777811050415	2.508404016494751
66	198.8311951160431	fix_post	2		12.0	64.0	2.5	/experiments/knapen_aot/videos/S_yt-BLmwmX-mni8_56.mp4	0.0	328.68618512153625	0.09999489784240723
67	198.9311900138855	fix_pre	0		33.0	65.0	2.5	/experiments/knapen_aot/videos/R_S_production_ID_4325516.mp4	0.0	328.78618001937866	0.2749309539794922
67	199.19796204566956	response	0	2		65.0	2.5	/experiments/knapen_aot/videos/R_S_production_ID_4325516.mp4	0.0	329.0529520511627	
67	199.206120967865	movie	1		199.0	65.0	2.5	/experiments/knapen_aot/videos/R_S_production_ID_4325516.mp4	0.0	329.06111097335815	2.508418083190918
67	201.7145390510559	fix_post	2		12.0	65.0	2.5	/experiments/knapen_aot/videos/R_S_production_ID_4325516.mp4	0.0	331.5695290565491	0.0999460220336914
68	201.8144850730896	fix_pre	0		78.0	66.0	2.5	/experiments/knapen_aot/videos/R_S_pexels-koolshooters-7327401.mp4	0.0	331.66947507858276	0.6499481201171875
68	202.44873809814453	response	0	2		66.0	2.5	/experiments/knapen_aot/videos/R_S_pexels-koolshooters-7327401.mp4	0.0	332.3037281036377	
68	202.4644331932068	movie	1		168.0	66.0	2.5	/experiments/knapen_aot/videos/R_S_pexels-koolshooters-7327401.mp4	0.0	332.31942319869995	2.5083229541778564
68	204.97275614738464	fix_post	2		12.0	66.0	2.5	/experiments/knapen_aot/videos/R_S_pexels-koolshooters-7327401.mp4	0.0	334.8277461528778	0.1000669002532959
69	205.07282304763794	fix_pre	0		13.0	67.0	2.5	/experiments/knapen_aot/videos/S_production_ID_4997166.mp4	0.0	334.9278130531311	0.10830807685852051
69	205.17293310165405	response	0	2		67.0	2.5	/experiments/knapen_aot/videos/S_production_ID_4997166.mp4	0.0	335.0279231071472	
69	205.18113112449646	movie	1		171.0	67.0	2.5	/experiments/knapen_aot/videos/S_production_ID_4997166.mp4	0.0	335.0361211299896	2.5083470344543457
69	207.6894781589508	fix_post	2		12.0	67.0	2.5	/experiments/knapen_aot/videos/S_production_ID_4997166.mp4	0.0	337.54446816444397	0.10000491142272949
70	207.78948307037354	fix_pre	0		62.0	68.0	2.5	/experiments/knapen_aot/videos/S_yt-etQaTgGOhR4_69.mp4	0.0	337.6444730758667	0.5165929794311523
70	208.29794216156006	response	0	2		68.0	2.5	/experiments/knapen_aot/videos/S_yt-etQaTgGOhR4_69.mp4	0.0	338.1529321670532	
70	208.3060760498047	movie	1		301.0	68.0	2.5	/experiments/knapen_aot/videos/S_yt-etQaTgGOhR4_69.mp4	0.0	338.16106605529785	2.5083200931549072
70	210.8143961429596	fix_post	2		12.0	68.0	2.5	/experiments/knapen_aot/videos/S_yt-etQaTgGOhR4_69.mp4	0.0	340.66938614845276	0.1000518798828125
71	210.9144480228424	fix_pre	0		35.0	69.0	2.5	blank	1.0	340.76943802833557	0.29163098335266113
71	211.1979410648346	response	0	2		69.0	2.5	blank	1.0	341.05293107032776	
71	211.20607900619507	movie	1		301.0	69.0	2.5	blank	1.0	341.06106901168823	2.5083060264587402
71	213.7143850326538	fix_post	2		12.0	69.0	2.5	blank	1.0	343.569375038147	0.09995913505554199
72	213.81434416770935	fix_pre	0		23.0	70.0	2.5	/experiments/knapen_aot/videos/S_yt-BAwvfRmE1LU_79.mp4	0.0	343.6693341732025	0.19169902801513672
72	213.9977991580963	response	0	2		70.0	2.5	/experiments/knapen_aot/videos/S_yt-BAwvfRmE1LU_79.mp4	0.0	343.8527891635895	
72	214.0060431957245	movie	1		301.0	70.0	2.5	/experiments/knapen_aot/videos/S_yt-BAwvfRmE1LU_79.mp4	0.0	343.86103320121765	2.5083558559417725
72	216.51439905166626	fix_post	2		12.0	70.0	2.5	/experiments/knapen_aot/videos/S_yt-BAwvfRmE1LU_79.mp4	0.0	346.3693890571594	0.10000300407409668
73	216.61440205574036	fix_pre	0		28.0	71.0	2.5	/experiments/knapen_aot/videos/R_S_yt-qjg6kRxNXK8_217.mp4	0.0	346.4693920612335	0.23328208923339844
73	216.83950805664062	response	0	2		71.0	2.5	/experiments/knapen_aot/videos/R_S_yt-qjg6kRxNXK8_217.mp4	0.0	346.6944980621338	
73	216.84768414497375	movie	1		301.0	71.0	2.5	/experiments/knapen_aot/videos/R_S_yt-qjg6kRxNXK8_217.mp4	0.0	346.7026741504669	2.5084149837493896
73	219.35609912872314	fix_post	2		12.0	71.0	2.5	/experiments/knapen_aot/videos/R_S_yt-qjg6kRxNXK8_217.mp4	0.0	349.2110891342163	0.09995889663696289
74	219.4560580253601	fix_pre	0		13.0	72.0	2.5	/experiments/knapen_aot/videos/S_yt-BLmwmX-mni8_1030.mp4	0.0	349.31104803085327	0.11109113693237305
74	219.55618715286255	response	0	2		72.0	2.5	/experiments/knapen_aot/videos/S_yt-BLmwmX-mni8_1030.mp4	0.0	349.4111771583557	
74	219.56714916229248	movie	1		301.0	72.0	2.5	/experiments/knapen_aot/videos/S_yt-BLmwmX-mni8_1030.mp4	0.0	349.42213916778564	2.505520820617676
74	222.07266998291016	fix_post	2		12.0	72.0	2.5	/experiments/knapen_aot/videos/S_yt-BLmwmX-mni8_1030.mp4	0.0	351.9276599884033	0.10004711151123047
75	222.1727170944214	fix_pre	0		16.0	73.0	2.5	/experiments/knapen_aot/videos/R_S_Pexels_Videos_278654_1.mp4	0.0	352.02770709991455	0.13334989547729492
75	222.29778599739075	response	0	2		73.0	2.5	/experiments/knapen_aot/videos/R_S_Pexels_Videos_278654_1.mp4	0.0	352.1527760028839	
75	222.30606698989868	movie	1		170.0	73.0	2.5	/experiments/knapen_aot/videos/R_S_Pexels_Videos_278654_1.mp4	0.0	352.16105699539185	2.5083281993865967
75	224.81439518928528	fix_post	2		12.0	73.0	2.5	/experiments/knapen_aot/videos/R_S_Pexels_Videos_278654_1.mp4	0.0	354.66938519477844	0.09995889663696289
76	224.91435408592224	fix_pre	0		12.0	74.0	2.5	/experiments/knapen_aot/videos/R_S_production_ID_3967181.mp4	0.0	354.7693440914154	0.10000991821289062
76	225.0061161518097	response	0	2		74.0	2.5	/experiments/knapen_aot/videos/R_S_production_ID_3967181.mp4	0.0	354.86110615730286	
76	225.01436400413513	movie	1		203.0	74.0	2.5	/experiments/knapen_aot/videos/R_S_production_ID_3967181.mp4	0.0	354.8693540096283	2.508355140686035
76	227.52271914482117	fix_post	2		12.0	74.0	2.5	/experiments/knapen_aot/videos/R_S_production_ID_3967181.mp4	0.0	357.37770915031433	0.09996891021728516
77	227.62268805503845	fix_pre	0		58.0	75.0	2.5	blank	1.0	357.4776780605316	0.48332691192626953
77	228.09786200523376	response	0	2		75.0	2.5	blank	1.0	357.95285201072693	
77	228.10601496696472	movie	1		301.0	75.0	2.5	blank	1.0	357.9610049724579	2.5083210468292236
77	230.61433601379395	fix_post	2		12.0	75.0	2.5	blank	1.0	360.4693260192871	0.10002517700195312
78	230.7143611907959	fix_pre	0		49.0	76.0	2.5	/experiments/knapen_aot/videos/R_S_yt-Z4W6l0eZza4_6.mp4	0.0	360.56935119628906	0.4082520008087158
78	231.106840133667	response	0	2		76.0	2.5	/experiments/knapen_aot/videos/R_S_yt-Z4W6l0eZza4_6.mp4	0.0	360.96183013916016	
78	231.12261319160461	movie	1		301.0	76.0	2.5	/experiments/knapen_aot/videos/R_S_yt-Z4W6l0eZza4_6.mp4	0.0	360.9776031970978	2.5084428787231445
78	233.63105607032776	fix_post	2		12.0	76.0	2.5	/experiments/knapen_aot/videos/R_S_yt-Z4W6l0eZza4_6.mp4	0.0	363.4860460758209	0.09992289543151855
79	233.73097896575928	fix_pre	0		26.0	77.0	2.5	/experiments/knapen_aot/videos/R_S_production_ID_5139371.mp4	0.0	363.58596897125244	0.2178502082824707
79	233.9394199848175	response	0	2		77.0	2.5	/experiments/knapen_aot/videos/R_S_production_ID_5139371.mp4	0.0	363.79440999031067	
79	233.94882917404175	movie	1		169.0	77.0	2.5	/experiments/knapen_aot/videos/R_S_production_ID_5139371.mp4	0.0	363.8038191795349	2.5071349143981934
79	236.45596408843994	fix_post	2		12.0	77.0	2.5	/experiments/knapen_aot/videos/R_S_production_ID_5139371.mp4	0.0	366.3109540939331	0.1000359058380127
80	236.55599999427795	fix_pre	0		219.0	78.0	2.5	/experiments/knapen_aot/videos/S_yt-gaCbT4RR9Tw_191.mp4	0.0	366.4109899997711	1.824965000152588
80	238.36530804634094	response	0	2		78.0	2.5	/experiments/knapen_aot/videos/S_yt-gaCbT4RR9Tw_191.mp4	0.0	368.2202980518341	
80	238.38096499443054	movie	1		300.0	78.0	2.5	/experiments/knapen_aot/videos/S_yt-gaCbT4RR9Tw_191.mp4	0.0	368.2359549999237	2.5083370208740234
80	240.88930201530457	fix_post	2		12.0	78.0	2.5	/experiments/knapen_aot/videos/S_yt-gaCbT4RR9Tw_191.mp4	0.0	370.74429202079773	0.09997200965881348
81	240.98927402496338	fix_pre	0		18.0	79.0	2.5	/experiments/knapen_aot/videos/S_yt-WrwPgZYBXlA_34.mp4	0.0	370.84426403045654	0.14999604225158691
81	241.1311480998993	response	0	2		79.0	2.5	/experiments/knapen_aot/videos/S_yt-WrwPgZYBXlA_34.mp4	0.0	370.98613810539246	
81	241.13927006721497	movie	1		300.0	79.0	2.5	/experiments/knapen_aot/videos/S_yt-WrwPgZYBXlA_34.mp4	0.0	370.99426007270813	2.5083439350128174
81	243.64761400222778	fix_post	2		12.0	79.0	2.5	/experiments/knapen_aot/videos/S_yt-WrwPgZYBXlA_34.mp4	0.0	373.50260400772095	0.10006999969482422
82	243.7476840019226	fix_pre	0		61.0	80.0	2.5	/experiments/knapen_aot/videos/R_S_yt-fCjjH_4i8Fg_115.mp4	0.0	373.60267400741577	0.5082471370697021
82	244.24769806861877	response	0	2		80.0	2.5	/experiments/knapen_aot/videos/R_S_yt-fCjjH_4i8Fg_115.mp4	0.0	374.10268807411194	
82	244.2559311389923	movie	1		301.0	80.0	2.5	/experiments/knapen_aot/videos/R_S_yt-fCjjH_4i8Fg_115.mp4	0.0	374.1109211444855	2.508342981338501
82	246.7642741203308	fix_post	2		12.0	80.0	2.5	/experiments/knapen_aot/videos/R_S_yt-fCjjH_4i8Fg_115.mp4	0.0	376.619264125824	0.10118484497070312
83	246.8654589653015	fix_pre	0		72.0	81.0	2.5	/experiments/knapen_aot/videos/S_ILSVRC2015_train_00479001.mp4	0.0	376.7204489707947	0.5987801551818848
83	247.4560570716858	response	0	2		81.0	2.5	/experiments/knapen_aot/videos/S_ILSVRC2015_train_00479001.mp4	0.0	377.31104707717896	
83	247.4642391204834	movie	1		301.0	81.0	2.5	/experiments/knapen_aot/videos/S_ILSVRC2015_train_00479001.mp4	0.0	377.31922912597656	2.5083558559417725
83	249.97259497642517	fix_post	2		12.0	81.0	2.5	/experiments/knapen_aot/videos/S_ILSVRC2015_train_00479001.mp4	0.0	379.82758498191833	0.1000370979309082
84	250.07263207435608	fix_pre	0		25.0	82.0	2.5	blank	1.0	379.92762207984924	0.20822596549987793
84	250.27274012565613	response	0	2		82.0	2.5	blank	1.0	380.1277301311493	
84	250.28085803985596	movie	1		301.0	82.0	2.5	blank	1.0	380.1358480453491	2.508352041244507
84	252.78921008110046	fix_post	2		12.0	82.0	2.5	blank	1.0	382.6442000865936	0.09999394416809082
85	252.88920402526855	fix_pre	0		76.0	83.0	2.5	/experiments/knapen_aot/videos/R_S_yt-fja6A_3ys_w_116.mp4	0.0	382.7441940307617	0.6333050727844238
85	253.5143461227417	response	0	2		83.0	2.5	/experiments/knapen_aot/videos/R_S_yt-fja6A_3ys_w_116.mp4	0.0	383.36933612823486	
85	253.52250909805298	movie	1		301.0	83.0	2.5	/experiments/knapen_aot/videos/R_S_yt-fja6A_3ys_w_116.mp4	0.0	383.37749910354614	2.5083460807800293
85	256.030855178833	fix_post	2		12.0	83.0	2.5	/experiments/knapen_aot/videos/R_S_yt-fja6A_3ys_w_116.mp4	0.0	385.8858451843262	0.10008788108825684
87	256.13094305992126	stim	0		567.0					385.98593306541443	4.727427005767822
87	256.51535511016846	response	0	2						386.3703451156616	
87	260.84478402137756	response	0	space						390.6997740268707	
