trial_nr	onset	event_type	phase	response	nr_frames	movie_index	movie_duration	movie_file	blank	onset_abs	duration
0	0.15848183631896973	stim	0		74.0					111.973965883255	0.6163661479949951
0	0.7672879695892334	response	0	space						112.58277201652527	
1	0.7748479843139648	stim	0		121.0					112.59033203125	1.00813889503479
1	1.7829868793487549	stim	1		120.0					113.59847092628479	0.999967098236084
1	1.9331538677215576	response	1	space						113.74863791465759	
1	2.4163877964019775	response	1	space						114.23187184333801	
2	2.782953977584839	fix_pre	0		21.0	0.0	2.5	/experiments/knapen_aot/videos/R_S_yt-Ek1jcvett9E_33.mp4	0.0	114.59843802452087	0.17502784729003906
2	2.9497640132904053	response	0	space		0.0	2.5	/experiments/knapen_aot/videos/R_S_yt-Ek1jcvett9E_33.mp4	0.0	114.76524806022644	
2	2.957981824874878	movie	1		296.0	0.0	2.5	/experiments/knapen_aot/videos/R_S_yt-Ek1jcvett9E_33.mp4	0.0	114.77346587181091	2.5082900524139404
2	5.466271877288818	fix_post	2		12.0	0.0	2.5	/experiments/knapen_aot/videos/R_S_yt-Ek1jcvett9E_33.mp4	0.0	117.28175592422485	0.09993195533752441
3	5.566203832626343	fix_pre	0		2.0	1.0	2.5	/experiments/knapen_aot/videos/R_S_yt-JVhfcpV7OaY_71.mp4	0.0	117.38168787956238	0.016740083694458008
3	5.57546591758728	response	0	2		1.0	2.5	/experiments/knapen_aot/videos/R_S_yt-JVhfcpV7OaY_71.mp4	0.0	117.39094996452332	
3	5.582943916320801	movie	1		301.0	1.0	2.5	/experiments/knapen_aot/videos/R_S_yt-JVhfcpV7OaY_71.mp4	0.0	117.39842796325684	2.5083389282226562
3	8.091282844543457	fix_post	2		12.0	1.0	2.5	/experiments/knapen_aot/videos/R_S_yt-JVhfcpV7OaY_71.mp4	0.0	119.90676689147949	0.10000395774841309
4	8.19128680229187	fix_pre	0		14.0	2.0	2.5	/experiments/knapen_aot/videos/S_comp_A114_C001_0305OT_v10_SDR_FINAL_22062018_SDR_2K_AVC.mp4	0.0	120.0067708492279	0.11670112609863281
4	8.299736976623535	response	0	2		2.0	2.5	/experiments/knapen_aot/videos/S_comp_A114_C001_0305OT_v10_SDR_FINAL_22062018_SDR_2K_AVC.mp4	0.0	120.11522102355957	
4	8.307987928390503	movie	1		168.0	2.0	2.5	/experiments/knapen_aot/videos/S_comp_A114_C001_0305OT_v10_SDR_FINAL_22062018_SDR_2K_AVC.mp4	0.0	120.12347197532654	2.5082590579986572
4	10.81624698638916	fix_post	2		12.0	2.0	2.5	/experiments/knapen_aot/videos/S_comp_A114_C001_0305OT_v10_SDR_FINAL_22062018_SDR_2K_AVC.mp4	0.0	122.6317310333252	0.09998297691345215
5	10.916229963302612	fix_pre	0		26.0	3.0	2.5	/experiments/knapen_aot/videos/S_yt-CR86bVrRwfo_13.mp4	0.0	122.73171401023865	0.21664786338806152
5	11.124738931655884	response	0	2		3.0	2.5	/experiments/knapen_aot/videos/S_yt-CR86bVrRwfo_13.mp4	0.0	122.94022297859192	
5	11.132877826690674	movie	1		301.0	3.0	2.5	/experiments/knapen_aot/videos/S_yt-CR86bVrRwfo_13.mp4	0.0	122.94836187362671	2.5084500312805176
5	13.641327857971191	fix_post	2		12.0	3.0	2.5	/experiments/knapen_aot/videos/S_yt-CR86bVrRwfo_13.mp4	0.0	125.45681190490723	0.09993410110473633
6	13.741261959075928	fix_pre	0		3.0	4.0	2.5	/experiments/knapen_aot/videos/S_BsNCrwV7d8Q_9.mp4	0.0	125.55674600601196	0.025441884994506836
6	13.758042812347412	response	0	2		4.0	2.5	/experiments/knapen_aot/videos/S_BsNCrwV7d8Q_9.mp4	0.0	125.57352685928345	
6	13.766703844070435	movie	1		301.0	4.0	2.5	/experiments/knapen_aot/videos/S_BsNCrwV7d8Q_9.mp4	0.0	125.58218789100647	2.5078561305999756
6	16.27455997467041	fix_post	2		12.0	4.0	2.5	/experiments/knapen_aot/videos/S_BsNCrwV7d8Q_9.mp4	0.0	128.09004402160645	0.09999585151672363
6	16.366271018981934	response	2	2		4.0	2.5	/experiments/knapen_aot/videos/S_BsNCrwV7d8Q_9.mp4	0.0	128.18175506591797	
7	16.374555826187134	fix_pre	0		39.0	5.0	2.5	/experiments/knapen_aot/videos/S_yt-B7ZRYVhfW2U_52.mp4	0.0	128.19003987312317	0.3249661922454834
7	16.691401958465576	response	0	2		5.0	2.5	/experiments/knapen_aot/videos/S_yt-B7ZRYVhfW2U_52.mp4	0.0	128.5068860054016	
7	16.699522018432617	movie	1		301.0	5.0	2.5	/experiments/knapen_aot/videos/S_yt-B7ZRYVhfW2U_52.mp4	0.0	128.51500606536865	2.50834584236145
7	19.207867860794067	fix_post	2		12.0	5.0	2.5	/experiments/knapen_aot/videos/S_yt-B7ZRYVhfW2U_52.mp4	0.0	131.0233519077301	0.10010004043579102
8	19.30796790122986	fix_pre	0		100.0	6.0	2.5	/experiments/knapen_aot/videos/R_S_yt-yJmHtBFyhH4_15.mp4	0.0	131.1234519481659	0.8332788944244385
8	20.13305401802063	response	0	2		6.0	2.5	/experiments/knapen_aot/videos/R_S_yt-yJmHtBFyhH4_15.mp4	0.0	131.94853806495667	
8	20.141246795654297	movie	1		301.0	6.0	2.5	/experiments/knapen_aot/videos/R_S_yt-yJmHtBFyhH4_15.mp4	0.0	131.95673084259033	2.5082762241363525
8	22.64952301979065	fix_post	2		12.0	6.0	2.5	/experiments/knapen_aot/videos/R_S_yt-yJmHtBFyhH4_15.mp4	0.0	134.46500706672668	0.10005593299865723
9	22.749578952789307	fix_pre	0		29.0	7.0	2.5	blank	1.0	134.56506299972534	0.24170899391174316
9	22.983043909072876	response	0	2		7.0	2.5	blank	1.0	134.7985279560089	
9	22.99128794670105	movie	1		301.0	7.0	2.5	blank	1.0	134.80677199363708	2.5082850456237793
9	25.49957299232483	fix_post	2		12.0	7.0	2.5	blank	1.0	137.31505703926086	0.09992384910583496
9	25.57546901702881	response	2	2		7.0	2.5	blank	1.0	137.39095306396484	
10	25.599496841430664	fix_pre	0		64.0	8.0	2.5	/experiments/knapen_aot/videos/R_S_yt-4r-oovk9JWg_85.mp4	0.0	137.4149808883667	0.5332951545715332
10	26.124627828598022	response	0	2		8.0	2.5	/experiments/knapen_aot/videos/R_S_yt-4r-oovk9JWg_85.mp4	0.0	137.94011187553406	
10	26.132791996002197	movie	1		301.0	8.0	2.5	/experiments/knapen_aot/videos/R_S_yt-4r-oovk9JWg_85.mp4	0.0	137.94827604293823	2.5083580017089844
10	28.64114999771118	fix_post	2		12.0	8.0	2.5	/experiments/knapen_aot/videos/R_S_yt-4r-oovk9JWg_85.mp4	0.0	140.45663404464722	0.1000359058380127
11	28.741185903549194	fix_pre	0		25.0	9.0	2.5	/experiments/knapen_aot/videos/S_yt-5MyvZYFlc9g_125.mp4	0.0	140.55666995048523	0.2083120346069336
11	28.941317796707153	response	0	2		9.0	2.5	/experiments/knapen_aot/videos/S_yt-5MyvZYFlc9g_125.mp4	0.0	140.7568018436432	
11	28.949497938156128	movie	1		301.0	9.0	2.5	/experiments/knapen_aot/videos/S_yt-5MyvZYFlc9g_125.mp4	0.0	140.76498198509216	2.5083720684051514
11	31.45787000656128	fix_post	2		12.0	9.0	2.5	/experiments/knapen_aot/videos/S_yt-5MyvZYFlc9g_125.mp4	0.0	143.27335405349731	0.09994888305664062
11	31.500435829162598	response	2	2		9.0	2.5	/experiments/knapen_aot/videos/S_yt-5MyvZYFlc9g_125.mp4	0.0	143.31591987609863	
12	31.55781888961792	fix_pre	0		57.0	10.0	2.5	/experiments/knapen_aot/videos/S_yt-11VGDAOVEag_8.mp4	0.0	143.37330293655396	0.47492313385009766
12	32.01700496673584	response	0	2		10.0	2.5	/experiments/knapen_aot/videos/S_yt-11VGDAOVEag_8.mp4	0.0	143.83248901367188	
12	32.03274202346802	movie	1		301.0	10.0	2.5	/experiments/knapen_aot/videos/S_yt-11VGDAOVEag_8.mp4	0.0	143.84822607040405	2.5084469318389893
12	34.54118895530701	fix_post	2		12.0	10.0	2.5	/experiments/knapen_aot/videos/S_yt-11VGDAOVEag_8.mp4	0.0	146.35667300224304	0.09998893737792969
13	34.64117789268494	fix_pre	0		1.0	11.0	2.5	/experiments/knapen_aot/videos/R_S_yt-G_eNNzNB-hU_1.mp4	0.0	146.45666193962097	0.008394956588745117
13	34.64293694496155	response	0	2		11.0	2.5	/experiments/knapen_aot/videos/R_S_yt-G_eNNzNB-hU_1.mp4	0.0	146.45842099189758	
13	34.64957284927368	movie	1		301.0	11.0	2.5	/experiments/knapen_aot/videos/R_S_yt-G_eNNzNB-hU_1.mp4	0.0	146.46505689620972	2.5082039833068848
13	37.157776832580566	fix_post	2		12.0	11.0	2.5	/experiments/knapen_aot/videos/R_S_yt-G_eNNzNB-hU_1.mp4	0.0	148.9732608795166	0.10002708435058594
14	37.25780391693115	fix_pre	0		12.0	12.0	2.5	/experiments/knapen_aot/videos/S_ILSVRC2015_train_00743000.mp4	0.0	149.0732879638672	0.10001707077026367
14	37.34963393211365	response	0	2		12.0	2.5	/experiments/knapen_aot/videos/S_ILSVRC2015_train_00743000.mp4	0.0	149.16511797904968	
14	37.357820987701416	movie	1		301.0	12.0	2.5	/experiments/knapen_aot/videos/S_ILSVRC2015_train_00743000.mp4	0.0	149.17330503463745	2.508330821990967
14	39.86615180969238	fix_post	2		12.0	12.0	2.5	/experiments/knapen_aot/videos/S_ILSVRC2015_train_00743000.mp4	0.0	151.68163585662842	0.10140419006347656
15	39.96755599975586	fix_pre	0		4.0	13.0	2.5	blank	1.0	151.7830400466919	0.03185391426086426
15	39.99151682853699	response	0	2		13.0	2.5	blank	1.0	151.80700087547302	
15	39.999409914016724	movie	1		301.0	13.0	2.5	blank	1.0	151.81489396095276	2.508344888687134
15	42.50775480270386	fix_post	2		12.0	13.0	2.5	blank	1.0	154.3232388496399	0.09999608993530273
16	42.60775089263916	fix_pre	0		10.0	14.0	2.5	/experiments/knapen_aot/videos/S_ILSVRC2015_train_00599000.mp4	0.0	154.4232349395752	0.0833439826965332
16	42.682952880859375	response	0	2		14.0	2.5	/experiments/knapen_aot/videos/S_ILSVRC2015_train_00599000.mp4	0.0	154.4984369277954	
16	42.69109487533569	movie	1		301.0	14.0	2.5	/experiments/knapen_aot/videos/S_ILSVRC2015_train_00599000.mp4	0.0	154.50657892227173	2.5083329677581787
16	45.13281989097595	response	1	2		14.0	2.5	/experiments/knapen_aot/videos/S_ILSVRC2015_train_00599000.mp4	0.0	156.948303937912	
16	45.19942784309387	fix_post	2		12.0	14.0	2.5	/experiments/knapen_aot/videos/S_ILSVRC2015_train_00599000.mp4	0.0	157.0149118900299	0.10002017021179199
17	45.299448013305664	fix_pre	0		33.0	15.0	2.5	/experiments/knapen_aot/videos/R_S_yt-JmmyeMOFpII_29.mp4	0.0	157.1149320602417	0.27496790885925293
17	45.566263914108276	response	0	2		15.0	2.5	/experiments/knapen_aot/videos/R_S_yt-JmmyeMOFpII_29.mp4	0.0	157.3817479610443	
17	45.57441592216492	movie	1		301.0	15.0	2.5	/experiments/knapen_aot/videos/R_S_yt-JmmyeMOFpII_29.mp4	0.0	157.38989996910095	2.5082359313964844
17	48.0826518535614	fix_post	2		12.0	15.0	2.5	/experiments/knapen_aot/videos/R_S_yt-JmmyeMOFpII_29.mp4	0.0	159.89813590049744	0.10010194778442383
17	48.15802788734436	response	2	2		15.0	2.5	/experiments/knapen_aot/videos/R_S_yt-JmmyeMOFpII_29.mp4	0.0	159.9735119342804	
18	48.182753801345825	fix_pre	0		48.0	16.0	2.5	/experiments/knapen_aot/videos/S_yt-CEQnXB0LxQU_278.mp4	0.0	159.99823784828186	0.39995408058166504
18	48.57451796531677	response	0	2		16.0	2.5	/experiments/knapen_aot/videos/S_yt-CEQnXB0LxQU_278.mp4	0.0	160.3900020122528	
18	48.58270788192749	movie	1		301.0	16.0	2.5	/experiments/knapen_aot/videos/S_yt-CEQnXB0LxQU_278.mp4	0.0	160.39819192886353	2.5084080696105957
18	51.091115951538086	fix_post	2		12.0	16.0	2.5	/experiments/knapen_aot/videos/S_yt-CEQnXB0LxQU_278.mp4	0.0	162.90659999847412	0.09999203681945801
19	51.191107988357544	fix_pre	0		10.0	17.0	2.5	/experiments/knapen_aot/videos/S_yt_R-lST38EdfMMQ_5.mp4	0.0	163.00659203529358	0.08331990242004395
19	51.266286849975586	response	0	2		17.0	2.5	/experiments/knapen_aot/videos/S_yt_R-lST38EdfMMQ_5.mp4	0.0	163.08177089691162	
19	51.27442789077759	movie	1		301.0	17.0	2.5	/experiments/knapen_aot/videos/S_yt_R-lST38EdfMMQ_5.mp4	0.0	163.08991193771362	2.508281946182251
19	53.78270983695984	fix_post	2		12.0	17.0	2.5	/experiments/knapen_aot/videos/S_yt_R-lST38EdfMMQ_5.mp4	0.0	165.59819388389587	0.09998512268066406
19	53.80785799026489	response	2	2		17.0	2.5	/experiments/knapen_aot/videos/S_yt_R-lST38EdfMMQ_5.mp4	0.0	165.62334203720093	
20	53.8826949596405	fix_pre	0		40.0	18.0	2.5	/experiments/knapen_aot/videos/S_pexels-sora-shimazaki-5925295.mp4	0.0	165.69817900657654	0.33337998390197754
20	54.20781683921814	response	0	2		18.0	2.5	/experiments/knapen_aot/videos/S_pexels-sora-shimazaki-5925295.mp4	0.0	166.02330088615417	
20	54.21607494354248	movie	1		165.0	18.0	2.5	/experiments/knapen_aot/videos/S_pexels-sora-shimazaki-5925295.mp4	0.0	166.03155899047852	2.5083558559417725
20	56.72443079948425	fix_post	2		12.0	18.0	2.5	/experiments/knapen_aot/videos/S_pexels-sora-shimazaki-5925295.mp4	0.0	168.5399148464203	0.09990310668945312
21	56.824333906173706	fix_pre	0		1.0	19.0	2.5	blank	1.0	168.63981795310974	0.008369922637939453
21	56.82596683502197	response	0	2		19.0	2.5	blank	1.0	168.641450881958	
21	56.832703828811646	movie	1		301.0	19.0	2.5	blank	1.0	168.64818787574768	2.508352041244507
21	59.34105587005615	fix_post	2		12.0	19.0	2.5	blank	1.0	171.1565399169922	0.10001707077026367
22	59.441072940826416	fix_pre	0		18.0	20.0	2.5	/experiments/knapen_aot/videos/R_S_yt-xqjVM0Vj4mI_161.mp4	0.0	171.25655698776245	0.15111994743347168
22	59.58290100097656	response	0	2		20.0	2.5	/experiments/knapen_aot/videos/R_S_yt-xqjVM0Vj4mI_161.mp4	0.0	171.3983850479126	
22	59.59219288825989	movie	1		298.0	20.0	2.5	/experiments/knapen_aot/videos/R_S_yt-xqjVM0Vj4mI_161.mp4	0.0	171.40767693519592	2.507158041000366
22	62.099350929260254	fix_post	2		12.0	20.0	2.5	/experiments/knapen_aot/videos/R_S_yt-xqjVM0Vj4mI_161.mp4	0.0	173.9148349761963	0.10002994537353516
22	62.13283681869507	response	2	2		20.0	2.5	/experiments/knapen_aot/videos/R_S_yt-xqjVM0Vj4mI_161.mp4	0.0	173.9483208656311	
23	62.19938087463379	fix_pre	0		34.0	21.0	2.5	/experiments/knapen_aot/videos/R_S_yt-BrepyEWKrPQ_20.mp4	0.0	174.01486492156982	0.2832801342010498
23	62.46696901321411	response	0	2		21.0	2.5	/experiments/knapen_aot/videos/R_S_yt-BrepyEWKrPQ_20.mp4	0.0	174.28245306015015	
23	62.48266100883484	movie	1		301.0	21.0	2.5	/experiments/knapen_aot/videos/R_S_yt-BrepyEWKrPQ_20.mp4	0.0	174.29814505577087	2.50832200050354
23	64.99098300933838	fix_post	2		12.0	21.0	2.5	/experiments/knapen_aot/videos/R_S_yt-BrepyEWKrPQ_20.mp4	0.0	176.8064670562744	0.10007596015930176
23	65.0344078540802	response	2	2		21.0	2.5	/experiments/knapen_aot/videos/R_S_yt-BrepyEWKrPQ_20.mp4	0.0	176.84989190101624	
24	65.09105896949768	fix_pre	0		65.0	22.0	2.5	/experiments/knapen_aot/videos/S_yt-ThT8utBaywI_68.mp4	0.0	176.90654301643372	0.5428340435028076
24	65.62442994117737	response	0	2		22.0	2.5	/experiments/knapen_aot/videos/S_yt-ThT8utBaywI_68.mp4	0.0	177.4399139881134	
24	65.63389301300049	movie	1		301.0	22.0	2.5	/experiments/knapen_aot/videos/S_yt-ThT8utBaywI_68.mp4	0.0	177.44937705993652	2.507147789001465
24	68.14104080200195	fix_post	2		12.0	22.0	2.5	/experiments/knapen_aot/videos/S_yt-ThT8utBaywI_68.mp4	0.0	179.956524848938	0.09996509552001953
24	68.21615600585938	response	2	2		22.0	2.5	/experiments/knapen_aot/videos/S_yt-ThT8utBaywI_68.mp4	0.0	180.0316400527954	
25	68.24100589752197	fix_pre	0		49.0	23.0	2.5	/experiments/knapen_aot/videos/S_yt-iKe-0YNR5Eo_164.mp4	0.0	180.056489944458	0.40833401679992676
25	68.64105796813965	response	0	2		23.0	2.5	/experiments/knapen_aot/videos/S_yt-iKe-0YNR5Eo_164.mp4	0.0	180.45654201507568	
25	68.6493399143219	movie	1		301.0	23.0	2.5	/experiments/knapen_aot/videos/S_yt-iKe-0YNR5Eo_164.mp4	0.0	180.46482396125793	2.5083858966827393
25	71.15772581100464	fix_post	2		12.0	23.0	2.5	/experiments/knapen_aot/videos/S_yt-iKe-0YNR5Eo_164.mp4	0.0	182.97320985794067	0.09996318817138672
26	71.25768899917603	fix_pre	0		19.0	24.0	2.5	/experiments/knapen_aot/videos/S__9v_wUywaAA_35.mp4	0.0	183.07317304611206	0.15828800201416016
26	71.40780282020569	response	0	2		24.0	2.5	/experiments/knapen_aot/videos/S__9v_wUywaAA_35.mp4	0.0	183.22328686714172	
26	71.41597700119019	movie	1		301.0	24.0	2.5	/experiments/knapen_aot/videos/S__9v_wUywaAA_35.mp4	0.0	183.23146104812622	2.50836181640625
26	73.92433881759644	fix_post	2		12.0	24.0	2.5	/experiments/knapen_aot/videos/S__9v_wUywaAA_35.mp4	0.0	185.73982286453247	0.10002517700195312
27	74.02436399459839	fix_pre	0		105.0	25.0	2.5	/experiments/knapen_aot/videos/S_yt-Jro_TRE8NUQ_234.mp4	0.0	185.83984804153442	0.8749170303344727
27	74.88347887992859	response	0	2		25.0	2.5	/experiments/knapen_aot/videos/S_yt-Jro_TRE8NUQ_234.mp4	0.0	186.69896292686462	
27	74.89928102493286	movie	1		301.0	25.0	2.5	/experiments/knapen_aot/videos/S_yt-Jro_TRE8NUQ_234.mp4	0.0	186.7147650718689	2.5083248615264893
27	77.40760588645935	fix_post	2		12.0	25.0	2.5	/experiments/knapen_aot/videos/S_yt-Jro_TRE8NUQ_234.mp4	0.0	189.22308993339539	0.10001301765441895
28	77.50761890411377	fix_pre	0		15.0	26.0	2.5	/experiments/knapen_aot/videos/S_production_ID_3944248.mp4	0.0	189.3231029510498	0.1261429786682129
28	77.62444281578064	response	0	2		26.0	2.5	/experiments/knapen_aot/videos/S_production_ID_3944248.mp4	0.0	189.43992686271667	
28	77.63376188278198	movie	1		191.0	26.0	2.5	/experiments/knapen_aot/videos/S_production_ID_3944248.mp4	0.0	189.44924592971802	2.5072410106658936
28	80.14100289344788	fix_post	2		12.0	26.0	2.5	/experiments/knapen_aot/videos/S_production_ID_3944248.mp4	0.0	191.9564869403839	0.100006103515625
29	80.2410089969635	fix_pre	0		5.0	27.0	2.5	blank	1.0	192.05649304389954	0.041584014892578125
29	80.27443885803223	response	0	2		27.0	2.5	blank	1.0	192.08992290496826	
29	80.28259301185608	movie	1		301.0	27.0	2.5	blank	1.0	192.09807705879211	2.508323907852173
29	81.22438502311707	response	1	2		27.0	2.5	blank	1.0	193.0398690700531	
29	81.76601696014404	response	1	2		27.0	2.5	blank	1.0	193.58150100708008	
29	82.23275899887085	response	1	2		27.0	2.5	blank	1.0	194.04824304580688	
29	82.79091691970825	fix_post	2		12.0	27.0	2.5	blank	1.0	194.6064009666443	0.10005307197570801
30	82.89096999168396	fix_pre	0		29.0	28.0	2.5	/experiments/knapen_aot/videos/S_video.mp4	0.0	194.70645403862	0.24273085594177246
30	83.1244068145752	response	0	2		28.0	2.5	/experiments/knapen_aot/videos/S_video.mp4	0.0	194.93989086151123	
30	83.13370084762573	movie	1		167.0	28.0	2.5	/experiments/knapen_aot/videos/S_video.mp4	0.0	194.94918489456177	2.5072319507598877
30	85.64093279838562	fix_post	2		12.0	28.0	2.5	/experiments/knapen_aot/videos/S_video.mp4	0.0	197.45641684532166	0.10001707077026367
31	85.74094986915588	fix_pre	0		6.0	29.0	2.5	/experiments/knapen_aot/videos/S_yt-qYuLW5vSotM_160.mp4	0.0	197.55643391609192	0.05005812644958496
31	85.78276991844177	response	0	2		29.0	2.5	/experiments/knapen_aot/videos/S_yt-qYuLW5vSotM_160.mp4	0.0	197.5982539653778	
31	85.79100799560547	movie	1		299.0	29.0	2.5	/experiments/knapen_aot/videos/S_yt-qYuLW5vSotM_160.mp4	0.0	197.6064920425415	2.508301019668579
31	88.29930901527405	fix_post	2		12.0	29.0	2.5	/experiments/knapen_aot/videos/S_yt-qYuLW5vSotM_160.mp4	0.0	200.11479306221008	0.09995388984680176
32	88.39926290512085	fix_pre	0		5.0	30.0	2.5	/experiments/knapen_aot/videos/R_S_yt-IXMtF998XFY_547.mp4	0.0	200.21474695205688	0.04169297218322754
32	88.4254379272461	response	0	2		30.0	2.5	/experiments/knapen_aot/videos/R_S_yt-IXMtF998XFY_547.mp4	0.0	200.24092197418213	
32	88.44095587730408	movie	1		301.0	30.0	2.5	/experiments/knapen_aot/videos/R_S_yt-IXMtF998XFY_547.mp4	0.0	200.2564399242401	2.5082859992980957
32	90.94924187660217	fix_post	2		12.0	30.0	2.5	/experiments/knapen_aot/videos/R_S_yt-IXMtF998XFY_547.mp4	0.0	202.7647259235382	0.10002803802490234
33	91.04926991462708	fix_pre	0		11.0	31.0	2.5	/experiments/knapen_aot/videos/S_yt-B7ZRYVhfW2U_52.mp4	0.0	202.8647539615631	0.09163808822631836
33	91.13270401954651	response	0	2		31.0	2.5	/experiments/knapen_aot/videos/S_yt-B7ZRYVhfW2U_52.mp4	0.0	202.94818806648254	
33	91.1409080028534	movie	1		301.0	31.0	2.5	/experiments/knapen_aot/videos/S_yt-B7ZRYVhfW2U_52.mp4	0.0	202.95639204978943	2.508328914642334
33	93.591059923172	response	1	2		31.0	2.5	/experiments/knapen_aot/videos/S_yt-B7ZRYVhfW2U_52.mp4	0.0	205.40654397010803	
33	93.64923691749573	fix_post	2		12.0	31.0	2.5	/experiments/knapen_aot/videos/S_yt-B7ZRYVhfW2U_52.mp4	0.0	205.46472096443176	0.09998106956481934
34	93.74921798706055	fix_pre	0		29.0	32.0	2.5	/experiments/knapen_aot/videos/S_yt-ph1AkIToO4E_46.mp4	0.0	205.56470203399658	0.24171185493469238
34	93.9827208518982	response	0	2		32.0	2.5	/experiments/knapen_aot/videos/S_yt-ph1AkIToO4E_46.mp4	0.0	205.79820489883423	
34	93.99092984199524	movie	1		301.0	32.0	2.5	/experiments/knapen_aot/videos/S_yt-ph1AkIToO4E_46.mp4	0.0	205.80641388893127	2.508255958557129
34	96.49918580055237	fix_post	2		12.0	32.0	2.5	/experiments/knapen_aot/videos/S_yt-ph1AkIToO4E_46.mp4	0.0	208.3146698474884	0.10000920295715332
35	96.59919500350952	fix_pre	0		8.0	33.0	2.5	blank	1.0	208.41467905044556	0.06681585311889648
35	96.6506998538971	response	0	2		33.0	2.5	blank	1.0	208.46618390083313	
35	96.66601085662842	movie	1		301.0	33.0	2.5	blank	1.0	208.48149490356445	2.508193016052246
35	99.17420387268066	fix_post	2		12.0	33.0	2.5	blank	1.0	210.9896879196167	0.10008001327514648
36	99.27428388595581	fix_pre	0		28.0	34.0	2.5	/experiments/knapen_aot/videos/R_S_ILSVRC2015_train_00185002.mp4	0.0	211.08976793289185	0.23425507545471191
36	99.49924302101135	response	0	2		34.0	2.5	/experiments/knapen_aot/videos/R_S_ILSVRC2015_train_00185002.mp4	0.0	211.3147270679474	
36	99.50853896141052	movie	1		301.0	34.0	2.5	/experiments/knapen_aot/videos/R_S_ILSVRC2015_train_00185002.mp4	0.0	211.32402300834656	2.5072848796844482
36	102.01582384109497	fix_post	2		12.0	34.0	2.5	/experiments/knapen_aot/videos/R_S_ILSVRC2015_train_00185002.mp4	0.0	213.831307888031	0.10013914108276367
37	102.11596298217773	fix_pre	0		14.0	35.0	2.5	/experiments/knapen_aot/videos/S_yt-F1vQ5nZWhDg_21.mp4	0.0	213.93144702911377	0.11657190322875977
37	102.22431683540344	response	0	2		35.0	2.5	/experiments/knapen_aot/videos/S_yt-F1vQ5nZWhDg_21.mp4	0.0	214.03980088233948	
37	102.2325348854065	movie	1		301.0	35.0	2.5	/experiments/knapen_aot/videos/S_yt-F1vQ5nZWhDg_21.mp4	0.0	214.04801893234253	2.5082199573516846
37	104.74075484275818	fix_post	2		12.0	35.0	2.5	/experiments/knapen_aot/videos/S_yt-F1vQ5nZWhDg_21.mp4	0.0	216.5562388896942	0.10004305839538574
38	104.84079790115356	fix_pre	0		13.0	36.0	2.5	/experiments/knapen_aot/videos/R_S_video_inspire_oregon_lone-ranch-beach_00015.1080-h264.mp4	0.0	216.6562819480896	0.10838890075683594
38	104.93354296684265	response	0	2		36.0	2.5	/experiments/knapen_aot/videos/R_S_video_inspire_oregon_lone-ranch-beach_00015.1080-h264.mp4	0.0	216.7490270137787	
38	104.9491868019104	movie	1		170.0	36.0	2.5	/experiments/knapen_aot/videos/R_S_video_inspire_oregon_lone-ranch-beach_00015.1080-h264.mp4	0.0	216.76467084884644	2.5082991123199463
38	107.45748591423035	fix_post	2		12.0	36.0	2.5	/experiments/knapen_aot/videos/R_S_video_inspire_oregon_lone-ranch-beach_00015.1080-h264.mp4	0.0	219.27296996116638	0.10000109672546387
39	107.55748701095581	fix_pre	0		8.0	37.0	2.5	/experiments/knapen_aot/videos/S_r4Npnob1vds_12.mp4	0.0	219.37297105789185	0.06668901443481445
39	107.61598086357117	response	0	2		37.0	2.5	/experiments/knapen_aot/videos/S_r4Npnob1vds_12.mp4	0.0	219.4314649105072	
39	107.62417602539062	movie	1		301.0	37.0	2.5	/experiments/knapen_aot/videos/S_r4Npnob1vds_12.mp4	0.0	219.43966007232666	2.50826096534729
39	110.13243699073792	fix_post	2		12.0	37.0	2.5	/experiments/knapen_aot/videos/S_r4Npnob1vds_12.mp4	0.0	221.94792103767395	0.10002303123474121
40	110.23246002197266	fix_pre	0		12.0	38.0	2.5	/experiments/knapen_aot/videos/S_yt-4r-oovk9JWg_85.mp4	0.0	222.0479440689087	0.09999799728393555
40	110.32423901557922	response	0	2		38.0	2.5	/experiments/knapen_aot/videos/S_yt-4r-oovk9JWg_85.mp4	0.0	222.13972306251526	
40	110.33245801925659	movie	1		301.0	38.0	2.5	/experiments/knapen_aot/videos/S_yt-4r-oovk9JWg_85.mp4	0.0	222.14794206619263	2.508314847946167
40	112.84077286720276	fix_post	2		12.0	38.0	2.5	/experiments/knapen_aot/videos/S_yt-4r-oovk9JWg_85.mp4	0.0	224.6562569141388	0.10001802444458008
41	112.94079089164734	fix_pre	0		142.0	39.0	2.5	/experiments/knapen_aot/videos/S_comp_LA_A011_C003_DGRN_LNFIX_STAB_v57_SDR_PS_20181002_SDR_2K_AVC.mp4	0.0	224.75627493858337	1.1833200454711914
41	114.115975856781	response	0	2		39.0	2.5	/experiments/knapen_aot/videos/S_comp_LA_A011_C003_DGRN_LNFIX_STAB_v57_SDR_PS_20181002_SDR_2K_AVC.mp4	0.0	225.93145990371704	
41	114.12411093711853	movie	1		168.0	39.0	2.5	/experiments/knapen_aot/videos/S_comp_LA_A011_C003_DGRN_LNFIX_STAB_v57_SDR_PS_20181002_SDR_2K_AVC.mp4	0.0	225.93959498405457	2.508352041244507
41	116.63246297836304	fix_post	2		12.0	39.0	2.5	/experiments/knapen_aot/videos/S_comp_LA_A011_C003_DGRN_LNFIX_STAB_v57_SDR_PS_20181002_SDR_2K_AVC.mp4	0.0	228.44794702529907	0.09991192817687988
42	116.73237490653992	fix_pre	0		13.0	40.0	2.5	/experiments/knapen_aot/videos/R_S_yt-4W224-RSCnM_15.mp4	0.0	228.54785895347595	0.10931992530822754
42	116.83257794380188	response	0	2		40.0	2.5	/experiments/knapen_aot/videos/R_S_yt-4W224-RSCnM_15.mp4	0.0	228.64806199073792	
42	116.84169483184814	movie	1		301.0	40.0	2.5	/experiments/knapen_aot/videos/R_S_yt-4W224-RSCnM_15.mp4	0.0	228.65717887878418	2.507462978363037
42	119.34915781021118	fix_post	2		12.0	40.0	2.5	/experiments/knapen_aot/videos/R_S_yt-4W224-RSCnM_15.mp4	0.0	231.16464185714722	0.0999460220336914
43	119.44910383224487	fix_pre	0		10.0	41.0	2.5	/experiments/knapen_aot/videos/R_S_ILSVRC2015_train_00575000.mp4	0.0	231.2645878791809	0.08333301544189453
43	119.52429699897766	response	0	2		41.0	2.5	/experiments/knapen_aot/videos/R_S_ILSVRC2015_train_00575000.mp4	0.0	231.3397810459137	
43	119.53243684768677	movie	1		301.0	41.0	2.5	/experiments/knapen_aot/videos/R_S_ILSVRC2015_train_00575000.mp4	0.0	231.3479208946228	2.508286952972412
43	122.04072380065918	fix_post	2		12.0	41.0	2.5	/experiments/knapen_aot/videos/R_S_ILSVRC2015_train_00575000.mp4	0.0	233.85620784759521	0.10001516342163086
44	122.14073896408081	fix_pre	0		22.0	42.0	2.5	blank	1.0	233.95622301101685	0.1833498477935791
44	122.31592893600464	response	0	2		42.0	2.5	blank	1.0	234.13141298294067	
44	122.32408881187439	movie	1		301.0	42.0	2.5	blank	1.0	234.13957285881042	2.5083839893341064
44	124.8324728012085	fix_post	2		12.0	42.0	2.5	blank	1.0	236.64795684814453	0.10011506080627441
45	124.93258786201477	fix_pre	0		13.0	43.0	2.5	/experiments/knapen_aot/videos/S_yt-oPq1uvbw-lQ_62.mp4	0.0	236.7480719089508	0.10812711715698242
45	125.03252601623535	response	0	2		43.0	2.5	/experiments/knapen_aot/videos/S_yt-oPq1uvbw-lQ_62.mp4	0.0	236.8480100631714	
45	125.04071497917175	movie	1		301.0	43.0	2.5	/experiments/knapen_aot/videos/S_yt-oPq1uvbw-lQ_62.mp4	0.0	236.8561990261078	2.508357048034668
45	127.54907202720642	fix_post	2		12.0	43.0	2.5	/experiments/knapen_aot/videos/S_yt-oPq1uvbw-lQ_62.mp4	0.0	239.36455607414246	0.09993290901184082
46	127.64900493621826	fix_pre	0		19.0	44.0	2.5	/experiments/knapen_aot/videos/R_S_comp_LA_A009_C009_PSNK_v02_SDR_PS_FINAL_20180709_SDR_2K_AVC.mp4	0.0	239.4644889831543	0.1584339141845703
46	127.79174089431763	response	0	2		44.0	2.5	/experiments/knapen_aot/videos/R_S_comp_LA_A009_C009_PSNK_v02_SDR_PS_FINAL_20180709_SDR_2K_AVC.mp4	0.0	239.60722494125366	
46	127.80743885040283	movie	1		168.0	44.0	2.5	/experiments/knapen_aot/videos/R_S_comp_LA_A009_C009_PSNK_v02_SDR_PS_FINAL_20180709_SDR_2K_AVC.mp4	0.0	239.62292289733887	2.5083160400390625
46	130.3157548904419	fix_post	2		12.0	44.0	2.5	/experiments/knapen_aot/videos/R_S_comp_LA_A009_C009_PSNK_v02_SDR_PS_FINAL_20180709_SDR_2K_AVC.mp4	0.0	242.13123893737793	0.09989809989929199
47	130.4156529903412	fix_pre	0		13.0	45.0	2.5	/experiments/knapen_aot/videos/S_ILSVRC2015_train_00001009.mp4	0.0	242.23113703727722	0.10838699340820312
47	130.51590085029602	response	0	2		45.0	2.5	/experiments/knapen_aot/videos/S_ILSVRC2015_train_00001009.mp4	0.0	242.33138489723206	
47	130.5240399837494	movie	1		300.0	45.0	2.5	/experiments/knapen_aot/videos/S_ILSVRC2015_train_00001009.mp4	0.0	242.33952403068542	2.508435010910034
47	133.03247499465942	fix_post	2		12.0	45.0	2.5	/experiments/knapen_aot/videos/S_ILSVRC2015_train_00001009.mp4	0.0	244.84795904159546	0.10000300407409668
48	133.13247799873352	fix_pre	0		5.0	46.0	2.5	/experiments/knapen_aot/videos/R_S_yt-6MwA-jx56AQ_612.mp4	0.0	244.94796204566956	0.04290294647216797
48	133.16591787338257	response	0	2		46.0	2.5	/experiments/knapen_aot/videos/R_S_yt-6MwA-jx56AQ_612.mp4	0.0	244.9814019203186	
48	133.1753809452057	movie	1		301.0	46.0	2.5	/experiments/knapen_aot/videos/R_S_yt-6MwA-jx56AQ_612.mp4	0.0	244.99086499214172	2.507086992263794
48	135.68246793746948	fix_post	2		12.0	46.0	2.5	/experiments/knapen_aot/videos/R_S_yt-6MwA-jx56AQ_612.mp4	0.0	247.49795198440552	0.10003089904785156
49	135.78249883651733	fix_pre	0		42.0	47.0	2.5	blank	1.0	247.59798288345337	0.35075807571411133
49	136.124253988266	response	0	2		47.0	2.5	blank	1.0	247.93973803520203	
49	136.13325691223145	movie	1		301.0	47.0	2.5	blank	1.0	247.94874095916748	2.5074141025543213
49	138.64067101478577	fix_post	2		12.0	47.0	2.5	blank	1.0	250.4561550617218	0.09999394416809082
50	138.74066495895386	fix_pre	0		30.0	48.0	2.5	/experiments/knapen_aot/videos/S_ILSVRC2015_train_00425000.mp4	0.0	250.5561490058899	0.24996185302734375
50	138.97503685951233	response	0	2		48.0	2.5	/experiments/knapen_aot/videos/S_ILSVRC2015_train_00425000.mp4	0.0	250.79052090644836	
50	138.9906268119812	movie	1		298.0	48.0	2.5	/experiments/knapen_aot/videos/S_ILSVRC2015_train_00425000.mp4	0.0	250.80611085891724	2.508347988128662
50	141.49897480010986	fix_post	2		12.0	48.0	2.5	/experiments/knapen_aot/videos/S_ILSVRC2015_train_00425000.mp4	0.0	253.3144588470459	0.10005903244018555
51	141.59903383255005	fix_pre	0		14.0	49.0	2.5	/experiments/knapen_aot/videos/S_yt-hQ5pge893b4_6.mp4	0.0	253.41451787948608	0.11746907234191895
51	141.70747900009155	response	0	2		49.0	2.5	/experiments/knapen_aot/videos/S_yt-hQ5pge893b4_6.mp4	0.0	253.5229630470276	
51	141.71650290489197	movie	1		301.0	49.0	2.5	/experiments/knapen_aot/videos/S_yt-hQ5pge893b4_6.mp4	0.0	253.531986951828	2.507568120956421
51	143.8033378124237	response	1	2		49.0	2.5	/experiments/knapen_aot/videos/S_yt-hQ5pge893b4_6.mp4	0.0	255.61882185935974	
51	144.2240710258484	fix_post	2		12.0	49.0	2.5	/experiments/knapen_aot/videos/S_yt-hQ5pge893b4_6.mp4	0.0	256.0395550727844	0.09996485710144043
52	144.32403588294983	fix_pre	0		15.0	50.0	2.5	/experiments/knapen_aot/videos/S_yt-uXDyvrm0Tw0_17.mp4	0.0	256.13951992988586	0.12489700317382812
52	144.44079899787903	response	0	2		50.0	2.5	/experiments/knapen_aot/videos/S_yt-uXDyvrm0Tw0_17.mp4	0.0	256.25628304481506	
52	144.44893288612366	movie	1		299.0	50.0	2.5	/experiments/knapen_aot/videos/S_yt-uXDyvrm0Tw0_17.mp4	0.0	256.2644169330597	2.508397102355957
52	146.95732998847961	fix_post	2		12.0	50.0	2.5	/experiments/knapen_aot/videos/S_yt-uXDyvrm0Tw0_17.mp4	0.0	258.77281403541565	0.10003399848937988
53	147.057363986969	fix_pre	0		17.0	51.0	2.5	/experiments/knapen_aot/videos/R_S_yt-QQPv17nfR_E_2.mp4	0.0	258.87284803390503	0.1416339874267578
53	147.190771818161	response	0	2		51.0	2.5	/experiments/knapen_aot/videos/R_S_yt-QQPv17nfR_E_2.mp4	0.0	259.00625586509705	
53	147.19899797439575	movie	1		301.0	51.0	2.5	/experiments/knapen_aot/videos/R_S_yt-QQPv17nfR_E_2.mp4	0.0	259.0144820213318	2.5083630084991455
53	149.7073609828949	fix_post	2		12.0	51.0	2.5	/experiments/knapen_aot/videos/R_S_yt-QQPv17nfR_E_2.mp4	0.0	261.52284502983093	0.09998583793640137
54	149.8073468208313	fix_pre	0		12.0	52.0	2.5	/experiments/knapen_aot/videos/S_ILSVRC2015_train_00599000.mp4	0.0	261.62283086776733	0.09992504119873047
54	149.8991129398346	response	0	2		52.0	2.5	/experiments/knapen_aot/videos/S_ILSVRC2015_train_00599000.mp4	0.0	261.71459698677063	
54	149.90727186203003	movie	1		301.0	52.0	2.5	/experiments/knapen_aot/videos/S_ILSVRC2015_train_00599000.mp4	0.0	261.72275590896606	2.5083119869232178
54	152.41558384895325	fix_post	2		12.0	52.0	2.5	/experiments/knapen_aot/videos/S_ILSVRC2015_train_00599000.mp4	0.0	264.2310678958893	0.10008096694946289
55	152.5156648159027	fix_pre	0		68.0	53.0	2.5	/experiments/knapen_aot/videos/S_ILSVRC2015_train_00423000.mp4	0.0	264.33114886283875	0.5666120052337646
55	153.07412600517273	response	0	2		53.0	2.5	/experiments/knapen_aot/videos/S_ILSVRC2015_train_00423000.mp4	0.0	264.88961005210876	
55	153.08227682113647	movie	1		301.0	53.0	2.5	/experiments/knapen_aot/videos/S_ILSVRC2015_train_00423000.mp4	0.0	264.8977608680725	2.508392095565796
55	155.59066891670227	fix_post	2		12.0	53.0	2.5	/experiments/knapen_aot/videos/S_ILSVRC2015_train_00423000.mp4	0.0	267.4061529636383	0.10004997253417969
56	155.69071888923645	fix_pre	0		10.0	54.0	2.5	blank	1.0	267.5062029361725	0.08326101303100586
56	155.76571893692017	response	0	2		54.0	2.5	blank	1.0	267.5812029838562	
56	155.77397990226746	movie	1		301.0	54.0	2.5	blank	1.0	267.5894639492035	2.508316993713379
56	158.28229689598083	fix_post	2		12.0	54.0	2.5	blank	1.0	270.09778094291687	0.09998607635498047
57	158.38228297233582	fix_pre	0		25.0	55.0	2.5	/experiments/knapen_aot/videos/R_S_pexels-mikhail-nilov-8410088.mp4	0.0	270.19776701927185	0.20901989936828613
57	158.57491183280945	response	0	2		55.0	2.5	/experiments/knapen_aot/videos/R_S_pexels-mikhail-nilov-8410088.mp4	0.0	270.3903958797455	
57	158.5913028717041	movie	1		167.0	55.0	2.5	/experiments/knapen_aot/videos/R_S_pexels-mikhail-nilov-8410088.mp4	0.0	270.40678691864014	2.5077431201934814
57	161.09904599189758	fix_post	2		12.0	55.0	2.5	/experiments/knapen_aot/videos/R_S_pexels-mikhail-nilov-8410088.mp4	0.0	272.9145300388336	0.09987282752990723
58	161.1989188194275	fix_pre	0		76.0	56.0	2.5	/experiments/knapen_aot/videos/R_S_production_ID_4154238.mp4	0.0	273.0144028663635	0.6333491802215576
58	161.8240728378296	response	0	2		56.0	2.5	/experiments/knapen_aot/videos/R_S_production_ID_4154238.mp4	0.0	273.6395568847656	
58	161.83226799964905	movie	1		203.0	56.0	2.5	/experiments/knapen_aot/videos/R_S_production_ID_4154238.mp4	0.0	273.6477520465851	2.5083038806915283
58	164.34057188034058	fix_post	2		12.0	56.0	2.5	/experiments/knapen_aot/videos/R_S_production_ID_4154238.mp4	0.0	276.1560559272766	0.09995698928833008
59	164.4405288696289	fix_pre	0		33.0	57.0	2.5	/experiments/knapen_aot/videos/R_S_flickr-evananderica-2662125519_8.mp4	0.0	276.25601291656494	0.27570414543151855
59	164.6999650001526	response	0	2		57.0	2.5	/experiments/knapen_aot/videos/R_S_flickr-evananderica-2662125519_8.mp4	0.0	276.5154490470886	
59	164.71623301506042	movie	1		301.0	57.0	2.5	/experiments/knapen_aot/videos/R_S_flickr-evananderica-2662125519_8.mp4	0.0	276.53171706199646	2.507614850997925
59	167.22384786605835	fix_post	2		12.0	57.0	2.5	/experiments/knapen_aot/videos/R_S_flickr-evananderica-2662125519_8.mp4	0.0	279.0393319129944	0.10009193420410156
60	167.32393980026245	fix_pre	0		93.0	58.0	2.5	/experiments/knapen_aot/videos/S_comp_LA_A009_C009_PSNK_v02_SDR_PS_FINAL_20180709_SDR_2K_AVC.mp4	0.0	279.1394238471985	0.7750070095062256
60	168.0907688140869	response	0	2		58.0	2.5	/experiments/knapen_aot/videos/S_comp_LA_A009_C009_PSNK_v02_SDR_PS_FINAL_20180709_SDR_2K_AVC.mp4	0.0	279.90625286102295	
60	168.09894680976868	movie	1		165.0	58.0	2.5	/experiments/knapen_aot/videos/S_comp_LA_A009_C009_PSNK_v02_SDR_PS_FINAL_20180709_SDR_2K_AVC.mp4	0.0	279.9144308567047	2.508294105529785
60	170.60724091529846	fix_post	2		12.0	58.0	2.5	/experiments/knapen_aot/videos/S_comp_LA_A009_C009_PSNK_v02_SDR_PS_FINAL_20180709_SDR_2K_AVC.mp4	0.0	282.4227249622345	0.1000208854675293
61	170.707261800766	fix_pre	0		24.0	59.0	2.5	/experiments/knapen_aot/videos/R_S_comp_GMT307_136NC_134K_8277_NY_NIGHT_01_v25_SDR_PS_20180907_SDR_2K_AVC.mp4	0.0	282.522745847702	0.20000600814819336
61	170.89905190467834	response	0	2		59.0	2.5	/experiments/knapen_aot/videos/R_S_comp_GMT307_136NC_134K_8277_NY_NIGHT_01_v25_SDR_PS_20180907_SDR_2K_AVC.mp4	0.0	282.7145359516144	
61	170.90726780891418	movie	1		169.0	59.0	2.5	/experiments/knapen_aot/videos/R_S_comp_GMT307_136NC_134K_8277_NY_NIGHT_01_v25_SDR_PS_20180907_SDR_2K_AVC.mp4	0.0	282.7227518558502	2.508352041244507
61	173.4156198501587	fix_post	2		12.0	59.0	2.5	/experiments/knapen_aot/videos/R_S_comp_GMT307_136NC_134K_8277_NY_NIGHT_01_v25_SDR_PS_20180907_SDR_2K_AVC.mp4	0.0	285.2311038970947	0.0999290943145752
62	173.51554894447327	fix_pre	0		8.0	60.0	2.5	/experiments/knapen_aot/videos/R_S_yt-1RGHXtepryM_44.mp4	0.0	285.3310329914093	0.06668686866760254
62	173.57397294044495	response	0	2		60.0	2.5	/experiments/knapen_aot/videos/R_S_yt-1RGHXtepryM_44.mp4	0.0	285.389456987381	
62	173.58223581314087	movie	1		301.0	60.0	2.5	/experiments/knapen_aot/videos/R_S_yt-1RGHXtepryM_44.mp4	0.0	285.3977198600769	2.508324146270752
62	176.09055995941162	fix_post	2		12.0	60.0	2.5	/experiments/knapen_aot/videos/R_S_yt-1RGHXtepryM_44.mp4	0.0	287.90604400634766	0.09997105598449707
63	176.19053101539612	fix_pre	0		14.0	61.0	2.5	/experiments/knapen_aot/videos/S_yt-l6WPyKg_3is_154.mp4	0.0	288.00601506233215	0.11666488647460938
63	176.29901790618896	response	0	2		61.0	2.5	/experiments/knapen_aot/videos/S_yt-l6WPyKg_3is_154.mp4	0.0	288.114501953125	
63	176.30719590187073	movie	1		301.0	61.0	2.5	/experiments/knapen_aot/videos/S_yt-l6WPyKg_3is_154.mp4	0.0	288.12267994880676	2.5083720684051514
63	178.81556797027588	fix_post	2		12.0	61.0	2.5	/experiments/knapen_aot/videos/S_yt-l6WPyKg_3is_154.mp4	0.0	290.6310520172119	0.10000300407409668
64	178.91557097434998	fix_pre	0		96.0	62.0	2.5	blank	1.0	290.731055021286	0.8005590438842773
64	179.70726680755615	response	0	2		62.0	2.5	blank	1.0	291.5227508544922	
64	179.71613001823425	movie	1		301.0	62.0	2.5	blank	1.0	291.5316140651703	2.5077009201049805
64	182.22383093833923	fix_post	2		12.0	62.0	2.5	blank	1.0	294.03931498527527	0.1000070571899414
65	182.32383799552917	fix_pre	0		38.0	63.0	2.5	/experiments/knapen_aot/videos/R_S_ILSVRC2015_train_00044004.mp4	0.0	294.1393220424652	0.316619873046875
65	182.63234496116638	response	0	2		63.0	2.5	/experiments/knapen_aot/videos/R_S_ILSVRC2015_train_00044004.mp4	0.0	294.4478290081024	
65	182.64045786857605	movie	1		301.0	63.0	2.5	/experiments/knapen_aot/videos/R_S_ILSVRC2015_train_00044004.mp4	0.0	294.4559419155121	2.508301019668579
65	185.14875888824463	fix_post	2		12.0	63.0	2.5	/experiments/knapen_aot/videos/R_S_ILSVRC2015_train_00044004.mp4	0.0	296.96424293518066	0.10006403923034668
65	185.20731592178345	response	2	2		63.0	2.5	/experiments/knapen_aot/videos/R_S_ILSVRC2015_train_00044004.mp4	0.0	297.0227999687195	
66	185.24882292747498	fix_pre	0		41.0	64.0	2.5	/experiments/knapen_aot/videos/S_yt-cjndulbUtRc_51.mp4	0.0	297.064306974411	0.34223294258117676
66	185.5823209285736	response	0	2		64.0	2.5	/experiments/knapen_aot/videos/S_yt-cjndulbUtRc_51.mp4	0.0	297.39780497550964	
66	185.59105587005615	movie	1		301.0	64.0	2.5	/experiments/knapen_aot/videos/S_yt-cjndulbUtRc_51.mp4	0.0	297.4065399169922	2.5078389644622803
66	188.09889483451843	fix_post	2		12.0	64.0	2.5	/experiments/knapen_aot/videos/S_yt-cjndulbUtRc_51.mp4	0.0	299.91437888145447	0.10005307197570801
67	188.19894790649414	fix_pre	0		15.0	65.0	2.5	/experiments/knapen_aot/videos/S_yt-5AI_SyK5sg8_112.mp4	0.0	300.0144319534302	0.12494111061096191
67	188.31570982933044	response	0	2		65.0	2.5	/experiments/knapen_aot/videos/S_yt-5AI_SyK5sg8_112.mp4	0.0	300.1311938762665	
67	188.3238890171051	movie	1		301.0	65.0	2.5	/experiments/knapen_aot/videos/S_yt-5AI_SyK5sg8_112.mp4	0.0	300.13937306404114	2.5083038806915283
67	190.83219289779663	fix_post	2		12.0	65.0	2.5	/experiments/knapen_aot/videos/S_yt-5AI_SyK5sg8_112.mp4	0.0	302.64767694473267	0.09997391700744629
67	190.92397594451904	response	2	2		65.0	2.5	/experiments/knapen_aot/videos/S_yt-5AI_SyK5sg8_112.mp4	0.0	302.7394599914551	
68	190.93216681480408	fix_pre	0		36.0	66.0	2.5	/experiments/knapen_aot/videos/R_S_yt-nlfwzxlwRfk_12.mp4	0.0	302.7476508617401	0.3000051975250244
68	191.22390484809875	response	0	2		66.0	2.5	/experiments/knapen_aot/videos/R_S_yt-nlfwzxlwRfk_12.mp4	0.0	303.0393888950348	
68	191.2321720123291	movie	1		301.0	66.0	2.5	/experiments/knapen_aot/videos/R_S_yt-nlfwzxlwRfk_12.mp4	0.0	303.04765605926514	2.508370876312256
68	193.74054288864136	fix_post	2		12.0	66.0	2.5	/experiments/knapen_aot/videos/R_S_yt-nlfwzxlwRfk_12.mp4	0.0	305.5560269355774	0.09997892379760742
69	193.84052181243896	fix_pre	0		16.0	67.0	2.5	/experiments/knapen_aot/videos/R_S_yt-vacON8rxZaI_168.mp4	0.0	305.656005859375	0.13331198692321777
69	193.9656538963318	response	0	2		67.0	2.5	/experiments/knapen_aot/videos/R_S_yt-vacON8rxZaI_168.mp4	0.0	305.7811379432678	
69	193.97383379936218	movie	1		301.0	67.0	2.5	/experiments/knapen_aot/videos/R_S_yt-vacON8rxZaI_168.mp4	0.0	305.7893178462982	2.5083420276641846
69	196.48217582702637	fix_post	2		12.0	67.0	2.5	/experiments/knapen_aot/videos/R_S_yt-vacON8rxZaI_168.mp4	0.0	308.2976598739624	0.09998512268066406
70	196.58216094970703	fix_pre	0		16.0	68.0	2.5	/experiments/knapen_aot/videos/R_S_yt-aSEKRE_FNaI_62.mp4	0.0	308.39764499664307	0.13384699821472168
70	196.7073369026184	response	0	2		68.0	2.5	/experiments/knapen_aot/videos/R_S_yt-aSEKRE_FNaI_62.mp4	0.0	308.52282094955444	
70	196.71600794792175	movie	1		301.0	68.0	2.5	/experiments/knapen_aot/videos/R_S_yt-aSEKRE_FNaI_62.mp4	0.0	308.5314919948578	2.507819890975952
70	199.2238278388977	fix_post	2		12.0	68.0	2.5	/experiments/knapen_aot/videos/R_S_yt-aSEKRE_FNaI_62.mp4	0.0	311.03931188583374	0.10000109672546387
71	199.32382893562317	fix_pre	0		93.0	69.0	2.5	/experiments/knapen_aot/videos/S_comp_HK_B005_C011_PSNK_v16_SDR_PS_20180914_SDR_2K_AVC.mp4	0.0	311.1393129825592	0.7749819755554199
71	200.0906708240509	response	0	2		69.0	2.5	/experiments/knapen_aot/videos/S_comp_HK_B005_C011_PSNK_v16_SDR_PS_20180914_SDR_2K_AVC.mp4	0.0	311.90615487098694	
71	200.0988109111786	movie	1		165.0	69.0	2.5	/experiments/knapen_aot/videos/S_comp_HK_B005_C011_PSNK_v16_SDR_PS_20180914_SDR_2K_AVC.mp4	0.0	311.9142949581146	2.508344888687134
71	202.60715579986572	fix_post	2		12.0	69.0	2.5	/experiments/knapen_aot/videos/S_comp_HK_B005_C011_PSNK_v16_SDR_PS_20180914_SDR_2K_AVC.mp4	0.0	314.42263984680176	0.09999704360961914
72	202.70715284347534	fix_pre	0		22.0	70.0	2.5	blank	1.0	314.5226368904114	0.18337106704711914
72	202.8747799396515	response	0	2		70.0	2.5	blank	1.0	314.6902639865875	
72	202.89052391052246	movie	1		301.0	70.0	2.5	blank	1.0	314.7060079574585	2.5082850456237793
72	205.39880895614624	fix_post	2		12.0	70.0	2.5	blank	1.0	317.2142930030823	0.10001993179321289
73	205.49882888793945	fix_pre	0		39.0	71.0	2.5	/experiments/knapen_aot/videos/S_yt--Ou506YF3mY_106.mp4	0.0	317.3143129348755	0.32497692108154297
73	205.81561589241028	response	0	2		71.0	2.5	/experiments/knapen_aot/videos/S_yt--Ou506YF3mY_106.mp4	0.0	317.6310999393463	
73	205.823805809021	movie	1		301.0	71.0	2.5	/experiments/knapen_aot/videos/S_yt--Ou506YF3mY_106.mp4	0.0	317.63928985595703	2.508235216140747
73	208.33204102516174	fix_post	2		12.0	71.0	2.5	/experiments/knapen_aot/videos/S_yt--Ou506YF3mY_106.mp4	0.0	320.1475250720978	0.10003280639648438
74	208.43207383155823	fix_pre	0		24.0	72.0	2.5	/experiments/knapen_aot/videos/S_yt-H-qQ0oE1kwM_6.mp4	0.0	320.24755787849426	0.20045208930969238
74	208.62395095825195	response	0	2		72.0	2.5	/experiments/knapen_aot/videos/S_yt-H-qQ0oE1kwM_6.mp4	0.0	320.439435005188	
74	208.63252592086792	movie	1		301.0	72.0	2.5	/experiments/knapen_aot/videos/S_yt-H-qQ0oE1kwM_6.mp4	0.0	320.44800996780396	2.507904052734375
74	211.1404299736023	fix_post	2		12.0	72.0	2.5	/experiments/knapen_aot/videos/S_yt-H-qQ0oE1kwM_6.mp4	0.0	322.95591402053833	0.09998583793640137
75	211.2404158115387	fix_pre	0		38.0	73.0	2.5	/experiments/knapen_aot/videos/S_ILSVRC2015_train_00447000.mp4	0.0	323.05589985847473	0.3165590763092041
75	211.54886984825134	response	0	2		73.0	2.5	/experiments/knapen_aot/videos/S_ILSVRC2015_train_00447000.mp4	0.0	323.3643538951874	
75	211.5569748878479	movie	1		298.0	73.0	2.5	/experiments/knapen_aot/videos/S_ILSVRC2015_train_00447000.mp4	0.0	323.37245893478394	2.5084331035614014
75	214.0654079914093	fix_post	2		12.0	73.0	2.5	/experiments/knapen_aot/videos/S_ILSVRC2015_train_00447000.mp4	0.0	325.88089203834534	0.10002803802490234
76	214.1654360294342	fix_pre	0		29.0	74.0	2.5	/experiments/knapen_aot/videos/R_S_production_ID_4720614.mp4	0.0	325.98092007637024	0.2416379451751709
76	214.39876985549927	response	0	2		74.0	2.5	/experiments/knapen_aot/videos/R_S_production_ID_4720614.mp4	0.0	326.2142539024353	
76	214.40707397460938	movie	1		195.0	74.0	2.5	/experiments/knapen_aot/videos/R_S_production_ID_4720614.mp4	0.0	326.2225580215454	2.5082919597625732
76	216.91536593437195	fix_post	2		12.0	74.0	2.5	/experiments/knapen_aot/videos/R_S_production_ID_4720614.mp4	0.0	328.730849981308	0.1000819206237793
77	217.01544785499573	fix_pre	0		83.0	75.0	2.5	/experiments/knapen_aot/videos/S_yt-iKe-0YNR5Eo_164.mp4	0.0	328.83093190193176	0.6916060447692871
77	217.69877195358276	response	0	2		75.0	2.5	/experiments/knapen_aot/videos/S_yt-iKe-0YNR5Eo_164.mp4	0.0	329.5142560005188	
77	217.70705389976501	movie	1		301.0	75.0	2.5	/experiments/knapen_aot/videos/S_yt-iKe-0YNR5Eo_164.mp4	0.0	329.52253794670105	2.5083489418029785
77	220.215402841568	fix_post	2		12.0	75.0	2.5	/experiments/knapen_aot/videos/S_yt-iKe-0YNR5Eo_164.mp4	0.0	332.030886888504	0.10000896453857422
78	220.31541180610657	fix_pre	0		33.0	76.0	2.5	blank	1.0	332.1308958530426	0.27533912658691406
78	220.58209490776062	response	0	2		76.0	2.5	blank	1.0	332.39757895469666	
78	220.59075093269348	movie	1		301.0	76.0	2.5	blank	1.0	332.4062349796295	2.507917881011963
78	223.09866881370544	fix_post	2		12.0	76.0	2.5	blank	1.0	334.9141528606415	0.10004401206970215
79	223.19871282577515	fix_pre	0		23.0	77.0	2.5	/experiments/knapen_aot/videos/R_S_comp_A007_C017_01156B_v02_SDR_PS_20180925_SDR_2K_AVC.mp4	0.0	335.0141968727112	0.19167399406433105
79	223.37463879585266	response	0	2		77.0	2.5	/experiments/knapen_aot/videos/R_S_comp_A007_C017_01156B_v02_SDR_PS_20180925_SDR_2K_AVC.mp4	0.0	335.1901228427887	
79	223.39038681983948	movie	1		168.0	77.0	2.5	/experiments/knapen_aot/videos/R_S_comp_A007_C017_01156B_v02_SDR_PS_20180925_SDR_2K_AVC.mp4	0.0	335.2058708667755	2.5083491802215576
79	225.89873600006104	fix_post	2		12.0	77.0	2.5	/experiments/knapen_aot/videos/R_S_comp_A007_C017_01156B_v02_SDR_PS_20180925_SDR_2K_AVC.mp4	0.0	337.71422004699707	0.10175681114196777
79	225.9164628982544	response	2	2		77.0	2.5	/experiments/knapen_aot/videos/R_S_comp_A007_C017_01156B_v02_SDR_PS_20180925_SDR_2K_AVC.mp4	0.0	337.73194694519043	
80	226.000492811203	fix_pre	0		36.0	78.0	2.5	/experiments/knapen_aot/videos/R_S_yt-qYuLW5vSotM_160.mp4	0.0	337.81597685813904	0.2985501289367676
80	226.29051089286804	response	0	2		78.0	2.5	/experiments/knapen_aot/videos/R_S_yt-qYuLW5vSotM_160.mp4	0.0	338.1059949398041	
80	226.29904294013977	movie	1		300.0	78.0	2.5	/experiments/knapen_aot/videos/R_S_yt-qYuLW5vSotM_160.mp4	0.0	338.1145269870758	2.5079309940338135
80	228.80697393417358	fix_post	2		12.0	78.0	2.5	/experiments/knapen_aot/videos/R_S_yt-qYuLW5vSotM_160.mp4	0.0	340.6224579811096	0.10001707077026367
81	228.90699100494385	fix_pre	0		102.0	79.0	2.5	/experiments/knapen_aot/videos/R_S_yt-gOoDjhfSPj0_162.mp4	0.0	340.7224750518799	0.8503270149230957
81	229.74885082244873	response	0	2		79.0	2.5	/experiments/knapen_aot/videos/R_S_yt-gOoDjhfSPj0_162.mp4	0.0	341.56433486938477	
81	229.75731801986694	movie	1		301.0	79.0	2.5	/experiments/knapen_aot/videos/R_S_yt-gOoDjhfSPj0_162.mp4	0.0	341.572802066803	2.5079848766326904
81	232.26530289649963	fix_post	2		12.0	79.0	2.5	/experiments/knapen_aot/videos/R_S_yt-gOoDjhfSPj0_162.mp4	0.0	344.08078694343567	0.10008811950683594
82	232.36539101600647	fix_pre	0		16.0	80.0	2.5	/experiments/knapen_aot/videos/R_S_flickr-evananderica-2662125519_8.mp4	0.0	344.1808750629425	0.13321590423583984
82	232.49045395851135	response	0	2		80.0	2.5	/experiments/knapen_aot/videos/R_S_flickr-evananderica-2662125519_8.mp4	0.0	344.3059380054474	
82	232.4986069202423	movie	1		301.0	80.0	2.5	/experiments/knapen_aot/videos/R_S_flickr-evananderica-2662125519_8.mp4	0.0	344.31409096717834	2.5083670616149902
82	235.0069739818573	fix_post	2		12.0	80.0	2.5	/experiments/knapen_aot/videos/R_S_flickr-evananderica-2662125519_8.mp4	0.0	346.82245802879333	0.10002899169921875
83	235.10700297355652	fix_pre	0		56.0	81.0	2.5	/experiments/knapen_aot/videos/S_yt-146gReE6xKw_379.mp4	0.0	346.92248702049255	0.46666884422302246
83	235.565495967865	response	0	2		81.0	2.5	/experiments/knapen_aot/videos/S_yt-146gReE6xKw_379.mp4	0.0	347.380980014801	
83	235.57367181777954	movie	1		301.0	81.0	2.5	/experiments/knapen_aot/videos/S_yt-146gReE6xKw_379.mp4	0.0	347.3891558647156	2.5083460807800293
83	238.08201789855957	fix_post	2		12.0	81.0	2.5	/experiments/knapen_aot/videos/S_yt-146gReE6xKw_379.mp4	0.0	349.8975019454956	0.09995508193969727
84	238.18197298049927	fix_pre	0		19.0	82.0	2.5	/experiments/knapen_aot/videos/S_production_ID_4154238.mp4	0.0	349.9974570274353	0.15880489349365234
84	238.33211088180542	response	0	2		82.0	2.5	/experiments/knapen_aot/videos/S_production_ID_4154238.mp4	0.0	350.14759492874146	
84	238.34077787399292	movie	1		188.0	82.0	2.5	/experiments/knapen_aot/videos/S_production_ID_4154238.mp4	0.0	350.15626192092896	2.507883071899414
84	240.84866094589233	fix_post	2		12.0	82.0	2.5	/experiments/knapen_aot/videos/S_production_ID_4154238.mp4	0.0	352.66414499282837	0.09989500045776367
85	240.9485559463501	fix_pre	0		132.0	83.0	2.5	blank	1.0	352.76403999328613	1.1003360748291016
85	242.0403869152069	response	0	2		83.0	2.5	blank	1.0	353.85587096214294	
85	242.0488920211792	movie	1		301.0	83.0	2.5	blank	1.0	353.86437606811523	2.508046865463257
85	244.55693888664246	fix_post	2		12.0	83.0	2.5	blank	1.0	356.3724229335785	0.0999751091003418
87	244.6569139957428	stim	0		182.0					356.47239804267883	1.5169258117675781
87	244.79873299598694	response	0	2						356.614217042923	
87	246.16907382011414	response	0	space						357.98455786705017	
