trial_nr	onset	event_type	phase	response	nr_frames	movie_index	movie_duration	movie_file	blank	onset_abs	duration
0	0.12512516975402832	stim	0		42.0					191.1811192035675	0.3508718013763428
0	0.46691203117370605	response	0	space						191.52290606498718	
1	0.4759969711303711	stim	0		121.0					191.53199100494385	1.007416009902954
1	1.4834129810333252	stim	1		120.0					192.5394070148468	0.9998271465301514
1	1.6918089389801025	response	1	space						192.74780297279358	
1	2.0081281661987305	response	1	space						193.0641222000122	
1	2.17002010345459	response	1	2						193.22601413726807	
1	2.4202780723571777	response	1	space						193.47627210617065	
2	2.4832401275634766	fix_pre	0		44.0	0.0	2.5	/experiments/knapen_aot/videos/R_S_yt-O6W6CZPXvlA_15.mp4	0.0	193.53923416137695	0.3672909736633301
2	2.833928108215332	response	0	space		0.0	2.5	/experiments/knapen_aot/videos/R_S_yt-O6W6CZPXvlA_15.mp4	0.0	193.8899221420288	
2	2.8505311012268066	movie	1		300.0	0.0	2.5	/experiments/knapen_aot/videos/R_S_yt-O6W6CZPXvlA_15.mp4	0.0	193.90652513504028	2.507524013519287
2	5.358055114746094	fix_post	2		12.0	0.0	2.5	/experiments/knapen_aot/videos/R_S_yt-O6W6CZPXvlA_15.mp4	0.0	196.41404914855957	0.09995794296264648
3	5.45801305770874	fix_pre	0		42.0	1.0	2.5	/experiments/knapen_aot/videos/S_yt-mHLTJkMrkZI_143.mp4	0.0	196.51400709152222	0.3508589267730713
3	5.801860094070435	response	0	2		1.0	2.5	/experiments/knapen_aot/videos/S_yt-mHLTJkMrkZI_143.mp4	0.0	196.8578541278839	
3	5.8088719844818115	movie	1		301.0	1.0	2.5	/experiments/knapen_aot/videos/S_yt-mHLTJkMrkZI_143.mp4	0.0	196.8648660182953	2.5074691772460938
3	8.316341161727905	fix_post	2		12.0	1.0	2.5	/experiments/knapen_aot/videos/S_yt-mHLTJkMrkZI_143.mp4	0.0	199.37233519554138	0.10001182556152344
4	8.416352987289429	fix_pre	0		31.0	2.0	2.5	/experiments/knapen_aot/videos/R_S_ILSVRC2015_train_00292006.mp4	0.0	199.4723470211029	0.25830507278442383
4	8.666553974151611	response	0	2		2.0	2.5	/experiments/knapen_aot/videos/R_S_ILSVRC2015_train_00292006.mp4	0.0	199.7225480079651	
4	8.674658060073853	movie	1		301.0	2.0	2.5	/experiments/knapen_aot/videos/R_S_ILSVRC2015_train_00292006.mp4	0.0	199.73065209388733	2.508359909057617
4	11.18301796913147	fix_post	2		12.0	2.0	2.5	/experiments/knapen_aot/videos/R_S_ILSVRC2015_train_00292006.mp4	0.0	202.23901200294495	0.10000014305114746
5	11.283018112182617	fix_pre	0		27.0	3.0	2.5	/experiments/knapen_aot/videos/R_S_yt-DmlSN7mzczI_62.mp4	0.0	202.3390121459961	0.22498583793640137
5	11.492367029190063	response	0	2		3.0	2.5	/experiments/knapen_aot/videos/R_S_yt-DmlSN7mzczI_62.mp4	0.0	202.54836106300354	
5	11.508003950119019	movie	1		301.0	3.0	2.5	/experiments/knapen_aot/videos/R_S_yt-DmlSN7mzczI_62.mp4	0.0	202.5639979839325	2.5083730220794678
5	14.016376972198486	fix_post	2		12.0	3.0	2.5	/experiments/knapen_aot/videos/R_S_yt-DmlSN7mzczI_62.mp4	0.0	205.07237100601196	0.0999910831451416
6	14.116368055343628	fix_pre	0		43.0	4.0	2.5	/experiments/knapen_aot/videos/S_yt-CINajD_PVjQ_494.mp4	0.0	205.1723620891571	0.35904598236083984
6	14.458898067474365	response	0	2		4.0	2.5	/experiments/knapen_aot/videos/S_yt-CINajD_PVjQ_494.mp4	0.0	205.51489210128784	
6	14.475414037704468	movie	1		301.0	4.0	2.5	/experiments/knapen_aot/videos/S_yt-CINajD_PVjQ_494.mp4	0.0	205.53140807151794	2.5075950622558594
6	16.983009099960327	fix_post	2		12.0	4.0	2.5	/experiments/knapen_aot/videos/S_yt-CINajD_PVjQ_494.mp4	0.0	208.0390031337738	0.10000991821289062
7	17.083019018173218	fix_pre	0		53.0	5.0	2.5	blank	1.0	208.1390130519867	0.4415719509124756
7	17.516448974609375	response	0	2		5.0	2.5	blank	1.0	208.57244300842285	
7	17.524590969085693	movie	1		301.0	5.0	2.5	blank	1.0	208.58058500289917	2.50835919380188
7	20.032950162887573	fix_post	2		12.0	5.0	2.5	blank	1.0	211.08894419670105	0.10003089904785156
8	20.132981061935425	fix_pre	0		66.0	6.0	2.5	/experiments/knapen_aot/videos/R_S_yt-K0CzoUy_uIA_22.mp4	0.0	211.1889750957489	0.5506880283355713
8	20.674715995788574	response	0	2		6.0	2.5	/experiments/knapen_aot/videos/R_S_yt-K0CzoUy_uIA_22.mp4	0.0	211.73071002960205	
8	20.683669090270996	movie	1		301.0	6.0	2.5	/experiments/knapen_aot/videos/R_S_yt-K0CzoUy_uIA_22.mp4	0.0	211.73966312408447	2.507654905319214
8	23.19132399559021	fix_post	2		12.0	6.0	2.5	/experiments/knapen_aot/videos/R_S_yt-K0CzoUy_uIA_22.mp4	0.0	214.2473180294037	0.10003113746643066
9	23.29135513305664	fix_pre	0		142.0	7.0	2.5	/experiments/knapen_aot/videos/R_S_production_ID_4802712.mp4	0.0	214.34734916687012	1.1839938163757324
9	24.46639895439148	response	0	2		7.0	2.5	/experiments/knapen_aot/videos/R_S_production_ID_4802712.mp4	0.0	215.52239298820496	
9	24.475348949432373	movie	1		164.0	7.0	2.5	/experiments/knapen_aot/videos/R_S_production_ID_4802712.mp4	0.0	215.53134298324585	2.5076661109924316
9	26.983015060424805	fix_post	2		12.0	7.0	2.5	/experiments/knapen_aot/videos/R_S_production_ID_4802712.mp4	0.0	218.03900909423828	0.09996294975280762
10	27.082978010177612	fix_pre	0		70.0	8.0	2.5	/experiments/knapen_aot/videos/R_S_yt-9T99N7Cvi_o_112.mp4	0.0	218.1389720439911	0.5833220481872559
10	27.65932607650757	response	0	2		8.0	2.5	/experiments/knapen_aot/videos/R_S_yt-9T99N7Cvi_o_112.mp4	0.0	218.71532011032104	
10	27.666300058364868	movie	1		301.0	8.0	2.5	/experiments/knapen_aot/videos/R_S_yt-9T99N7Cvi_o_112.mp4	0.0	218.72229409217834	2.5084500312805176
10	30.174750089645386	fix_post	2		12.0	8.0	2.5	/experiments/knapen_aot/videos/R_S_yt-9T99N7Cvi_o_112.mp4	0.0	221.23074412345886	0.09980607032775879
11	30.274556159973145	fix_pre	0		46.0	9.0	2.5	/experiments/knapen_aot/videos/S_yt-y6zr69M0yHI_76.mp4	0.0	221.33055019378662	0.3834419250488281
11	30.649760961532593	response	0	2		9.0	2.5	/experiments/knapen_aot/videos/S_yt-y6zr69M0yHI_76.mp4	0.0	221.70575499534607	
11	30.657998085021973	movie	1		301.0	9.0	2.5	/experiments/knapen_aot/videos/S_yt-y6zr69M0yHI_76.mp4	0.0	221.71399211883545	2.5085339546203613
11	33.166532039642334	fix_post	2		12.0	9.0	2.5	/experiments/knapen_aot/videos/S_yt-y6zr69M0yHI_76.mp4	0.0	224.2225260734558	0.09973692893981934
12	33.26626896858215	fix_pre	0		50.0	10.0	2.5	/experiments/knapen_aot/videos/R_S_yt-kkbtZP78JxQ_96.mp4	0.0	224.32226300239563	0.41733407974243164
12	33.67473006248474	response	0	2		10.0	2.5	/experiments/knapen_aot/videos/R_S_yt-kkbtZP78JxQ_96.mp4	0.0	224.73072409629822	
12	33.683603048324585	movie	1		301.0	10.0	2.5	/experiments/knapen_aot/videos/R_S_yt-kkbtZP78JxQ_96.mp4	0.0	224.73959708213806	2.507654905319214
12	36.1912579536438	fix_post	2		12.0	10.0	2.5	/experiments/knapen_aot/videos/R_S_yt-kkbtZP78JxQ_96.mp4	0.0	227.24725198745728	0.10006999969482422
13	36.29132795333862	fix_pre	0		70.0	11.0	2.5	/experiments/knapen_aot/videos/S_yt-DmlSN7mzczI_62.mp4	0.0	227.3473219871521	0.5832741260528564
13	36.86647009849548	response	0	2		11.0	2.5	/experiments/knapen_aot/videos/S_yt-DmlSN7mzczI_62.mp4	0.0	227.92246413230896	
13	36.87460207939148	movie	1		301.0	11.0	2.5	/experiments/knapen_aot/videos/S_yt-DmlSN7mzczI_62.mp4	0.0	227.93059611320496	2.5084760189056396
13	39.38307809829712	fix_post	2		12.0	11.0	2.5	/experiments/knapen_aot/videos/S_yt-DmlSN7mzczI_62.mp4	0.0	230.4390721321106	0.09988689422607422
14	39.48296499252319	fix_pre	0		57.0	12.0	2.5	/experiments/knapen_aot/videos/S_yt-T9Vwt7wFvPk_100.mp4	0.0	230.53895902633667	0.4750511646270752
14	39.94976806640625	response	0	2		12.0	2.5	/experiments/knapen_aot/videos/S_yt-T9Vwt7wFvPk_100.mp4	0.0	231.00576210021973	
14	39.95801615715027	movie	1		301.0	12.0	2.5	/experiments/knapen_aot/videos/S_yt-T9Vwt7wFvPk_100.mp4	0.0	231.01401019096375	2.5082578659057617
14	42.46627402305603	fix_post	2		12.0	12.0	2.5	/experiments/knapen_aot/videos/S_yt-T9Vwt7wFvPk_100.mp4	0.0	233.5222680568695	0.09998703002929688
15	42.56626105308533	fix_pre	0		60.0	13.0	2.5	blank	1.0	233.6222550868988	0.49997711181640625
15	43.05797815322876	response	0	2		13.0	2.5	blank	1.0	234.11397218704224	
15	43.06623816490173	movie	1		301.0	13.0	2.5	blank	1.0	234.1222321987152	2.50836181640625
15	45.57459998130798	fix_post	2		12.0	13.0	2.5	blank	1.0	236.63059401512146	0.10004901885986328
16	45.67464900016785	fix_pre	0		49.0	14.0	2.5	/experiments/knapen_aot/videos/R_S_yt-3V8US8ZD3NU_229.mp4	0.0	236.73064303398132	0.40817713737487793
16	46.07465696334839	response	0	2		14.0	2.5	/experiments/knapen_aot/videos/R_S_yt-3V8US8ZD3NU_229.mp4	0.0	237.13065099716187	
16	46.082826137542725	movie	1		301.0	14.0	2.5	/experiments/knapen_aot/videos/R_S_yt-3V8US8ZD3NU_229.mp4	0.0	237.1388201713562	2.5084328651428223
16	48.59125900268555	fix_post	2		12.0	14.0	2.5	/experiments/knapen_aot/videos/R_S_yt-3V8US8ZD3NU_229.mp4	0.0	239.64725303649902	0.10001015663146973
17	48.69126915931702	fix_pre	0		54.0	15.0	2.5	/experiments/knapen_aot/videos/S_yt-Fdv-V--QlR0_117.mp4	0.0	239.7472631931305	0.450531005859375
17	49.1330189704895	response	0	2		15.0	2.5	/experiments/knapen_aot/videos/S_yt-Fdv-V--QlR0_117.mp4	0.0	240.18901300430298	
17	49.14180016517639	movie	1		301.0	15.0	2.5	/experiments/knapen_aot/videos/S_yt-Fdv-V--QlR0_117.mp4	0.0	240.19779419898987	2.5077879428863525
17	51.649588108062744	fix_post	2		12.0	15.0	2.5	/experiments/knapen_aot/videos/S_yt-Fdv-V--QlR0_117.mp4	0.0	242.70558214187622	0.09993386268615723
18	51.7495219707489	fix_pre	0		520.0	16.0	2.5	/experiments/knapen_aot/videos/R_S_yt-J1dw4AznwmQ_7.mp4	0.0	242.80551600456238	4.333209991455078
18	56.07464098930359	response	0	2		16.0	2.5	/experiments/knapen_aot/videos/R_S_yt-J1dw4AznwmQ_7.mp4	0.0	247.13063502311707	
18	56.08273196220398	movie	1		301.0	16.0	2.5	/experiments/knapen_aot/videos/R_S_yt-J1dw4AznwmQ_7.mp4	0.0	247.13872599601746	2.5086331367492676
18	58.59136509895325	fix_post	2		12.0	16.0	2.5	/experiments/knapen_aot/videos/R_S_yt-J1dw4AznwmQ_7.mp4	0.0	249.64735913276672	0.09982895851135254
19	58.6911940574646	fix_pre	0		71.0	17.0	2.5	/experiments/knapen_aot/videos/R_S_yt-3DM_SqT4RII_10.mp4	0.0	249.74718809127808	0.591576099395752
19	59.274659156799316	response	0	2		17.0	2.5	/experiments/knapen_aot/videos/R_S_yt-3DM_SqT4RII_10.mp4	0.0	250.3306531906128	
19	59.28277015686035	movie	1		301.0	17.0	2.5	/experiments/knapen_aot/videos/R_S_yt-3DM_SqT4RII_10.mp4	0.0	250.33876419067383	2.5084118843078613
19	61.79118204116821	fix_post	2		12.0	17.0	2.5	/experiments/knapen_aot/videos/R_S_yt-3DM_SqT4RII_10.mp4	0.0	252.8471760749817	0.09996294975280762
20	61.89114499092102	fix_pre	0		46.0	18.0	2.5	/experiments/knapen_aot/videos/R_S_yt-gikcYT6ZLzA_7.mp4	0.0	252.9471390247345	0.3832840919494629
20	62.25865411758423	response	0	2		18.0	2.5	/experiments/knapen_aot/videos/R_S_yt-gikcYT6ZLzA_7.mp4	0.0	253.3146481513977	
20	62.27442908287048	movie	1		301.0	18.0	2.5	/experiments/knapen_aot/videos/R_S_yt-gikcYT6ZLzA_7.mp4	0.0	253.33042311668396	2.508410930633545
20	64.78284001350403	fix_post	2		12.0	18.0	2.5	/experiments/knapen_aot/videos/R_S_yt-gikcYT6ZLzA_7.mp4	0.0	255.8388340473175	0.10001397132873535
21	64.88285398483276	fix_pre	0		20.0	19.0	2.5	blank	1.0	255.93884801864624	0.16666698455810547
21	65.04127216339111	response	0	2		19.0	2.5	blank	1.0	256.0972661972046	
21	65.04952096939087	movie	1		301.0	19.0	2.5	blank	1.0	256.10551500320435	2.5082809925079346
21	67.39120602607727	response	1	2		19.0	2.5	blank	1.0	258.44720005989075	
21	67.5578019618988	fix_post	2		12.0	19.0	2.5	blank	1.0	258.6137959957123	0.10000300407409668
22	67.6578049659729	fix_pre	0		40.0	20.0	2.5	/experiments/knapen_aot/videos/S_yt-XRQ_LSGGr3Y_712.mp4	0.0	258.7137989997864	0.3332700729370117
22	67.98291015625	response	0	2		20.0	2.5	/experiments/knapen_aot/videos/S_yt-XRQ_LSGGr3Y_712.mp4	0.0	259.0389041900635	
22	67.99107503890991	movie	1		301.0	20.0	2.5	/experiments/knapen_aot/videos/S_yt-XRQ_LSGGr3Y_712.mp4	0.0	259.0470690727234	2.5083889961242676
22	70.49946403503418	fix_post	2		12.0	20.0	2.5	/experiments/knapen_aot/videos/S_yt-XRQ_LSGGr3Y_712.mp4	0.0	261.55545806884766	0.10001206398010254
23	70.59947609901428	fix_pre	0		59.0	21.0	2.5	/experiments/knapen_aot/videos/S_comp_A105_C002_v06_SDR_FINAL_25062018_SDR_2K_AVC.mp4	0.0	261.65547013282776	0.4915580749511719
23	71.08292412757874	response	0	2		21.0	2.5	/experiments/knapen_aot/videos/S_comp_A105_C002_v06_SDR_FINAL_25062018_SDR_2K_AVC.mp4	0.0	262.1389181613922	
23	71.09103417396545	movie	1		168.0	21.0	2.5	/experiments/knapen_aot/videos/S_comp_A105_C002_v06_SDR_FINAL_25062018_SDR_2K_AVC.mp4	0.0	262.14702820777893	2.508424997329712
23	73.59945917129517	fix_post	2		12.0	21.0	2.5	/experiments/knapen_aot/videos/S_comp_A105_C002_v06_SDR_FINAL_25062018_SDR_2K_AVC.mp4	0.0	264.65545320510864	0.09999990463256836
24	73.69945907592773	fix_pre	0		32.0	22.0	2.5	/experiments/knapen_aot/videos/R_S_wc-zkO_omg3nTvg_5.mp4	0.0	264.7554531097412	0.26662302017211914
24	73.95037317276001	response	0	2		22.0	2.5	/experiments/knapen_aot/videos/R_S_wc-zkO_omg3nTvg_5.mp4	0.0	265.0063672065735	
24	73.96608209609985	movie	1		176.0	22.0	2.5	/experiments/knapen_aot/videos/R_S_wc-zkO_omg3nTvg_5.mp4	0.0	265.02207612991333	2.5085558891296387
24	76.47463798522949	fix_post	2		12.0	22.0	2.5	/experiments/knapen_aot/videos/R_S_wc-zkO_omg3nTvg_5.mp4	0.0	267.53063201904297	0.09976911544799805
25	76.57440710067749	fix_pre	0		50.0	23.0	2.5	/experiments/knapen_aot/videos/S_yt-RqWnxg1wT-0_41.mp4	0.0	267.63040113449097	0.4167158603668213
25	76.98289203643799	response	0	2		23.0	2.5	/experiments/knapen_aot/videos/S_yt-RqWnxg1wT-0_41.mp4	0.0	268.03888607025146	
25	76.99112296104431	movie	1		301.0	23.0	2.5	/experiments/knapen_aot/videos/S_yt-RqWnxg1wT-0_41.mp4	0.0	268.0471169948578	2.508380174636841
25	79.49950313568115	fix_post	2		12.0	23.0	2.5	/experiments/knapen_aot/videos/S_yt-RqWnxg1wT-0_41.mp4	0.0	270.55549716949463	0.09991598129272461
26	79.59941911697388	fix_pre	0		70.0	24.0	2.5	/experiments/knapen_aot/videos/R_S_I003_C015_SDR_2K_AVC.mp4	0.0	270.65541315078735	0.583716869354248
26	80.17455697059631	response	0	2		24.0	2.5	/experiments/knapen_aot/videos/R_S_I003_C015_SDR_2K_AVC.mp4	0.0	271.2305510044098	
26	80.18313598632812	movie	1		174.0	24.0	2.5	/experiments/knapen_aot/videos/R_S_I003_C015_SDR_2K_AVC.mp4	0.0	271.2391300201416	2.5081300735473633
26	82.69126605987549	fix_post	2		12.0	24.0	2.5	/experiments/knapen_aot/videos/R_S_I003_C015_SDR_2K_AVC.mp4	0.0	273.74726009368896	0.09973788261413574
27	82.79100394248962	fix_pre	0		31.0	25.0	2.5	/experiments/knapen_aot/videos/R_S_yt-YCjbGOPBQHw_131.mp4	0.0	273.8469979763031	0.2583801746368408
27	83.0413191318512	response	0	2		25.0	2.5	/experiments/knapen_aot/videos/R_S_yt-YCjbGOPBQHw_131.mp4	0.0	274.0973131656647	
27	83.04938411712646	movie	1		301.0	25.0	2.5	/experiments/knapen_aot/videos/R_S_yt-YCjbGOPBQHw_131.mp4	0.0	274.10537815093994	2.5082759857177734
27	85.55766010284424	fix_post	2		12.0	25.0	2.5	/experiments/knapen_aot/videos/R_S_yt-YCjbGOPBQHw_131.mp4	0.0	276.6136541366577	0.10005497932434082
28	85.65771508216858	fix_pre	0		67.0	26.0	2.5	blank	1.0	276.71370911598206	0.5583229064941406
28	86.2078320980072	response	0	2		26.0	2.5	blank	1.0	277.2638261318207	
28	86.21603798866272	movie	1		301.0	26.0	2.5	blank	1.0	277.2720320224762	2.5083301067352295
28	88.53273916244507	response	1	2		26.0	2.5	blank	1.0	279.58873319625854	
28	88.72436809539795	fix_post	2		12.0	26.0	2.5	blank	1.0	279.7803621292114	0.09998202323913574
29	88.82435011863708	fix_pre	0		28.0	27.0	2.5	/experiments/knapen_aot/videos/S_yt-5MyvZYFlc9g_125.mp4	0.0	279.88034415245056	0.23369097709655762
29	89.04951906204224	response	0	2		27.0	2.5	/experiments/knapen_aot/videos/S_yt-5MyvZYFlc9g_125.mp4	0.0	280.1055130958557	
29	89.05804109573364	movie	1		301.0	27.0	2.5	/experiments/knapen_aot/videos/S_yt-5MyvZYFlc9g_125.mp4	0.0	280.1140351295471	2.5080339908599854
29	91.56607508659363	fix_post	2		12.0	27.0	2.5	/experiments/knapen_aot/videos/S_yt-5MyvZYFlc9g_125.mp4	0.0	282.6220691204071	0.10004687309265137
30	91.66612195968628	fix_pre	0		27.0	28.0	2.5	/experiments/knapen_aot/videos/R_S_yt-Kwfwhd07dVo_2.mp4	0.0	282.72211599349976	0.22527718544006348
30	91.88283109664917	response	0	2		28.0	2.5	/experiments/knapen_aot/videos/R_S_yt-Kwfwhd07dVo_2.mp4	0.0	282.93882513046265	
30	91.89139914512634	movie	1		301.0	28.0	2.5	/experiments/knapen_aot/videos/R_S_yt-Kwfwhd07dVo_2.mp4	0.0	282.9473931789398	2.5079588890075684
30	94.39935803413391	fix_post	2		12.0	28.0	2.5	/experiments/knapen_aot/videos/R_S_yt-Kwfwhd07dVo_2.mp4	0.0	285.4553520679474	0.09995293617248535
31	94.4993109703064	fix_pre	0		42.0	29.0	2.5	/experiments/knapen_aot/videos/S_yt-IyxCMODHSSE_29.mp4	0.0	285.5553050041199	0.3503270149230957
31	94.84118294715881	response	0	2		29.0	2.5	/experiments/knapen_aot/videos/S_yt-IyxCMODHSSE_29.mp4	0.0	285.8971769809723	
31	94.84963798522949	movie	1		301.0	29.0	2.5	/experiments/knapen_aot/videos/S_yt-IyxCMODHSSE_29.mp4	0.0	285.90563201904297	2.508164167404175
31	97.35780215263367	fix_post	2		12.0	29.0	2.5	/experiments/knapen_aot/videos/S_yt-IyxCMODHSSE_29.mp4	0.0	288.41379618644714	0.09993195533752441
32	97.45773410797119	fix_pre	0		37.0	30.0	2.5	/experiments/knapen_aot/videos/S_yt-jYSri2JVUqo_1036.mp4	0.0	288.51372814178467	0.30861783027648926
32	97.75781202316284	response	0	2		30.0	2.5	/experiments/knapen_aot/videos/S_yt-jYSri2JVUqo_1036.mp4	0.0	288.8138060569763	
32	97.76635193824768	movie	1		301.0	30.0	2.5	/experiments/knapen_aot/videos/S_yt-jYSri2JVUqo_1036.mp4	0.0	288.82234597206116	2.5079591274261475
32	100.27431106567383	fix_post	2		12.0	30.0	2.5	/experiments/knapen_aot/videos/S_yt-jYSri2JVUqo_1036.mp4	0.0	291.3303050994873	0.10004496574401855
33	100.37435603141785	fix_pre	0		43.0	31.0	2.5	/experiments/knapen_aot/videos/S_yt-ikhlUegH24c_552.mp4	0.0	291.4303500652313	0.3582770824432373
33	100.72449207305908	response	0	2		31.0	2.5	/experiments/knapen_aot/videos/S_yt-ikhlUegH24c_552.mp4	0.0	291.78048610687256	
33	100.73263311386108	movie	1		301.0	31.0	2.5	/experiments/knapen_aot/videos/S_yt-ikhlUegH24c_552.mp4	0.0	291.78862714767456	2.508435010910034
33	103.24106812477112	fix_post	2		12.0	31.0	2.5	/experiments/knapen_aot/videos/S_yt-ikhlUegH24c_552.mp4	0.0	294.2970621585846	0.09993696212768555
34	103.3410050868988	fix_pre	0		48.0	32.0	2.5	/experiments/knapen_aot/videos/R_S_yt-q9-_bG9ry3E_5.mp4	0.0	294.3969991207123	0.39995408058166504
34	103.73280715942383	response	0	2		32.0	2.5	/experiments/knapen_aot/videos/R_S_yt-q9-_bG9ry3E_5.mp4	0.0	294.7888011932373	
34	103.74095916748047	movie	1		301.0	32.0	2.5	/experiments/knapen_aot/videos/R_S_yt-q9-_bG9ry3E_5.mp4	0.0	294.79695320129395	2.508366823196411
34	106.24932599067688	fix_post	2		12.0	32.0	2.5	/experiments/knapen_aot/videos/R_S_yt-q9-_bG9ry3E_5.mp4	0.0	297.30532002449036	0.10031914710998535
35	106.34964513778687	fix_pre	0		31.0	33.0	2.5	/experiments/knapen_aot/videos/R_S_bing-www_cnet_com_videos_amazon-wants-to-put-alexa-on-your-pc__50.mp4	0.0	297.40563917160034	0.25793981552124023
35	106.59944295883179	response	0	2		33.0	2.5	/experiments/knapen_aot/videos/R_S_bing-www_cnet_com_videos_amazon-wants-to-put-alexa-on-your-pc__50.mp4	0.0	297.65543699264526	
35	106.6075849533081	movie	1		167.0	33.0	2.5	/experiments/knapen_aot/videos/R_S_bing-www_cnet_com_videos_amazon-wants-to-put-alexa-on-your-pc__50.mp4	0.0	297.6635789871216	2.5084831714630127
35	109.11606812477112	fix_post	2		12.0	33.0	2.5	/experiments/knapen_aot/videos/R_S_bing-www_cnet_com_videos_amazon-wants-to-put-alexa-on-your-pc__50.mp4	0.0	300.1720621585846	0.10001087188720703
36	109.21607899665833	fix_pre	0		28.0	34.0	2.5	blank	1.0	300.2720730304718	0.23318910598754883
36	109.44108700752258	response	0	2		34.0	2.5	blank	1.0	300.49708104133606	
36	109.44926810264587	movie	1		301.0	34.0	2.5	blank	1.0	300.50526213645935	2.508378028869629
36	111.9576461315155	fix_post	2		12.0	34.0	2.5	blank	1.0	303.013640165329	0.10016489028930664
37	112.05781102180481	fix_pre	0		55.0	35.0	2.5	/experiments/knapen_aot/videos/S_yt-npaE4fe6A6Y_26.mp4	0.0	303.1138050556183	0.458359956741333
37	112.50770497322083	response	0	2		35.0	2.5	/experiments/knapen_aot/videos/S_yt-npaE4fe6A6Y_26.mp4	0.0	303.5636990070343	
37	112.51617097854614	movie	1		301.0	35.0	2.5	/experiments/knapen_aot/videos/S_yt-npaE4fe6A6Y_26.mp4	0.0	303.5721650123596	2.508121967315674
37	115.02429294586182	fix_post	2		12.0	35.0	2.5	/experiments/knapen_aot/videos/S_yt-npaE4fe6A6Y_26.mp4	0.0	306.0802869796753	0.10007905960083008
38	115.12437200546265	fix_pre	0		22.0	36.0	2.5	/experiments/knapen_aot/videos/R_S_ILSVRC2015_train_00404000.mp4	0.0	306.1803660392761	0.18340015411376953
38	115.29939198493958	response	0	2		36.0	2.5	/experiments/knapen_aot/videos/R_S_ILSVRC2015_train_00404000.mp4	0.0	306.35538601875305	
38	115.30777215957642	movie	1		301.0	36.0	2.5	/experiments/knapen_aot/videos/R_S_ILSVRC2015_train_00404000.mp4	0.0	306.3637661933899	2.5082387924194336
38	117.81601095199585	fix_post	2		12.0	36.0	2.5	/experiments/knapen_aot/videos/R_S_ILSVRC2015_train_00404000.mp4	0.0	308.8720049858093	0.09995412826538086
39	117.91596508026123	fix_pre	0		46.0	37.0	2.5	/experiments/knapen_aot/videos/S_yt-s5YONFy3vb4_46.mp4	0.0	308.9719591140747	0.38332605361938477
39	118.29111313819885	response	0	2		37.0	2.5	/experiments/knapen_aot/videos/S_yt-s5YONFy3vb4_46.mp4	0.0	309.34710717201233	
39	118.29929113388062	movie	1		301.0	37.0	2.5	/experiments/knapen_aot/videos/S_yt-s5YONFy3vb4_46.mp4	0.0	309.3552851676941	2.5085818767547607
39	120.80787301063538	fix_post	2		12.0	37.0	2.5	/experiments/knapen_aot/videos/S_yt-s5YONFy3vb4_46.mp4	0.0	311.86386704444885	0.0998380184173584
40	120.90771102905273	fix_pre	0		10.0	38.0	2.5	/experiments/knapen_aot/videos/R_S_wc-zkO_omg3nTvg_5.mp4	0.0	311.9637050628662	0.08320808410644531
40	120.98272514343262	response	0	2		38.0	2.5	/experiments/knapen_aot/videos/R_S_wc-zkO_omg3nTvg_5.mp4	0.0	312.0387191772461	
40	120.99091911315918	movie	1		164.0	38.0	2.5	/experiments/knapen_aot/videos/R_S_wc-zkO_omg3nTvg_5.mp4	0.0	312.04691314697266	2.5082578659057617
40	123.49917697906494	fix_post	2		12.0	38.0	2.5	/experiments/knapen_aot/videos/R_S_wc-zkO_omg3nTvg_5.mp4	0.0	314.5551710128784	0.1002969741821289
41	123.59947395324707	fix_pre	0		42.0	39.0	2.5	/experiments/knapen_aot/videos/S_yt-JpOBXV46TLE_124.mp4	0.0	314.65546798706055	0.34971117973327637
41	123.9334990978241	response	0	2		39.0	2.5	/experiments/knapen_aot/videos/S_yt-JpOBXV46TLE_124.mp4	0.0	314.9894931316376	
41	123.94918513298035	movie	1		301.0	39.0	2.5	/experiments/knapen_aot/videos/S_yt-JpOBXV46TLE_124.mp4	0.0	315.0051791667938	2.5083889961242676
41	126.45757412910461	fix_post	2		12.0	39.0	2.5	/experiments/knapen_aot/videos/S_yt-JpOBXV46TLE_124.mp4	0.0	317.5135681629181	0.10018181800842285
42	126.55775594711304	fix_pre	0		38.0	40.0	2.5	/experiments/knapen_aot/videos/R_S_yt-3eQHOLBzOqA_100.mp4	0.0	317.6137499809265	0.31650519371032715
42	126.86600613594055	response	0	2		40.0	2.5	/experiments/knapen_aot/videos/R_S_yt-3eQHOLBzOqA_100.mp4	0.0	317.922000169754	
42	126.87426114082336	movie	1		301.0	40.0	2.5	/experiments/knapen_aot/videos/R_S_yt-3eQHOLBzOqA_100.mp4	0.0	317.93025517463684	2.508462905883789
42	129.38272404670715	fix_post	2		12.0	40.0	2.5	/experiments/knapen_aot/videos/R_S_yt-3eQHOLBzOqA_100.mp4	0.0	320.43871808052063	0.09983491897583008
43	129.48255896568298	fix_pre	0		39.0	41.0	2.5	blank	1.0	320.53855299949646	0.325206995010376
43	129.79934000968933	response	0	2		41.0	2.5	blank	1.0	320.8553340435028	
43	129.80776596069336	movie	1		301.0	41.0	2.5	blank	1.0	320.86375999450684	2.5082030296325684
43	132.31596899032593	fix_post	2		12.0	41.0	2.5	blank	1.0	323.3719630241394	0.09990715980529785
44	132.41587615013123	fix_pre	0		8.0	42.0	2.5	/experiments/knapen_aot/videos/R_S_goAwcQiFu1Q_99.mp4	0.0	323.4718701839447	0.06661581993103027
44	132.47425603866577	response	0	2		42.0	2.5	/experiments/knapen_aot/videos/R_S_goAwcQiFu1Q_99.mp4	0.0	323.53025007247925	
44	132.48249197006226	movie	1		301.0	42.0	2.5	/experiments/knapen_aot/videos/R_S_goAwcQiFu1Q_99.mp4	0.0	323.53848600387573	2.5084049701690674
44	134.99089694023132	fix_post	2		12.0	42.0	2.5	/experiments/knapen_aot/videos/R_S_goAwcQiFu1Q_99.mp4	0.0	326.0468909740448	0.10006213188171387
45	135.09095907211304	fix_pre	0		67.0	43.0	2.5	/experiments/knapen_aot/videos/S_yt-vQ-rd-1gwH4_238.mp4	0.0	326.1469531059265	0.5581710338592529
45	135.64093494415283	response	0	2		43.0	2.5	/experiments/knapen_aot/videos/S_yt-vQ-rd-1gwH4_238.mp4	0.0	326.6969289779663	
45	135.6491301059723	movie	1		301.0	43.0	2.5	/experiments/knapen_aot/videos/S_yt-vQ-rd-1gwH4_238.mp4	0.0	326.70512413978577	2.508435010910034
45	138.15756511688232	fix_post	2		12.0	43.0	2.5	/experiments/knapen_aot/videos/S_yt-vQ-rd-1gwH4_238.mp4	0.0	329.2135591506958	0.09999489784240723
46	138.25756001472473	fix_pre	0		353.0	44.0	2.5	/experiments/knapen_aot/videos/S_yt-BG-G7m5wLZ4_94.mp4	0.0	329.3135540485382	2.9415619373321533
46	141.1834011077881	response	0	2		44.0	2.5	/experiments/knapen_aot/videos/S_yt-BG-G7m5wLZ4_94.mp4	0.0	332.23939514160156	
46	141.19912195205688	movie	1		301.0	44.0	2.5	/experiments/knapen_aot/videos/S_yt-BG-G7m5wLZ4_94.mp4	0.0	332.25511598587036	2.5083701610565186
46	143.7074921131134	fix_post	2		12.0	44.0	2.5	/experiments/knapen_aot/videos/S_yt-BG-G7m5wLZ4_94.mp4	0.0	334.7634861469269	0.10015988349914551
47	143.80765199661255	fix_pre	0		46.0	45.0	2.5	/experiments/knapen_aot/videos/R_S_yt-kkbtZP78JxQ_96.mp4	0.0	334.863646030426	0.383105993270874
47	144.1826400756836	response	0	2		45.0	2.5	/experiments/knapen_aot/videos/R_S_yt-kkbtZP78JxQ_96.mp4	0.0	335.23863410949707	
47	144.19075798988342	movie	1		301.0	45.0	2.5	/experiments/knapen_aot/videos/R_S_yt-kkbtZP78JxQ_96.mp4	0.0	335.2467520236969	2.508502960205078
47	146.6992609500885	fix_post	2		12.0	45.0	2.5	/experiments/knapen_aot/videos/R_S_yt-kkbtZP78JxQ_96.mp4	0.0	337.755254983902	0.09981322288513184
48	146.79907417297363	fix_pre	0		164.0	46.0	2.5	/experiments/knapen_aot/videos/R_S_yt-uX7qYKQm_pg_277.mp4	0.0	337.8550682067871	1.3666958808898926
48	148.15756607055664	response	0	2		46.0	2.5	/experiments/knapen_aot/videos/R_S_yt-uX7qYKQm_pg_277.mp4	0.0	339.2135601043701	
48	148.16577005386353	movie	1		301.0	46.0	2.5	/experiments/knapen_aot/videos/R_S_yt-uX7qYKQm_pg_277.mp4	0.0	339.221764087677	2.508587121963501
48	150.28579998016357	response	1	2		46.0	2.5	/experiments/knapen_aot/videos/R_S_yt-uX7qYKQm_pg_277.mp4	0.0	341.34179401397705	
48	150.67435717582703	fix_post	2		12.0	46.0	2.5	/experiments/knapen_aot/videos/R_S_yt-uX7qYKQm_pg_277.mp4	0.0	341.7303512096405	0.09979581832885742
49	150.77415299415588	fix_pre	0		59.0	47.0	2.5	/experiments/knapen_aot/videos/S_yt-kkbtZP78JxQ_96.mp4	0.0	341.83014702796936	0.491657018661499
49	151.25756812095642	response	0	2		47.0	2.5	/experiments/knapen_aot/videos/S_yt-kkbtZP78JxQ_96.mp4	0.0	342.3135621547699	
49	151.26581001281738	movie	1		301.0	47.0	2.5	/experiments/knapen_aot/videos/S_yt-kkbtZP78JxQ_96.mp4	0.0	342.32180404663086	2.5083320140838623
49	153.77414202690125	fix_post	2		12.0	47.0	2.5	/experiments/knapen_aot/videos/S_yt-kkbtZP78JxQ_96.mp4	0.0	344.8301360607147	0.09996604919433594
50	153.87410807609558	fix_pre	0		37.0	48.0	2.5	/experiments/knapen_aot/videos/S_ILnEDG_aP1A_35.mp4	0.0	344.93010210990906	0.3083169460296631
50	154.17420315742493	response	0	2		48.0	2.5	/experiments/knapen_aot/videos/S_ILnEDG_aP1A_35.mp4	0.0	345.2301971912384	
50	154.18242502212524	movie	1		301.0	48.0	2.5	/experiments/knapen_aot/videos/S_ILnEDG_aP1A_35.mp4	0.0	345.2384190559387	2.5083889961242676
50	156.6908140182495	fix_post	2		12.0	48.0	2.5	/experiments/knapen_aot/videos/S_ILnEDG_aP1A_35.mp4	0.0	347.746808052063	0.09995794296264648
51	156.79077196121216	fix_pre	0		61.0	49.0	2.5	blank	1.0	347.84676599502563	0.5082650184631348
51	157.29089403152466	response	0	2		49.0	2.5	blank	1.0	348.34688806533813	
51	157.2990369796753	movie	1		301.0	49.0	2.5	blank	1.0	348.35503101348877	2.508418083190918
51	157.99081015586853	response	1	2		49.0	2.5	blank	1.0	349.046804189682	
51	159.8074550628662	fix_post	2		12.0	49.0	2.5	blank	1.0	350.8634490966797	0.09999299049377441
52	159.90744805335999	fix_pre	0		56.0	50.0	2.5	/experiments/knapen_aot/videos/R_S_yt-n2PnABmSpxI_115.mp4	0.0	350.96344208717346	0.46662211418151855
52	160.36583805084229	response	0	2		50.0	2.5	/experiments/knapen_aot/videos/R_S_yt-n2PnABmSpxI_115.mp4	0.0	351.42183208465576	
52	160.3740701675415	movie	1		301.0	50.0	2.5	/experiments/knapen_aot/videos/R_S_yt-n2PnABmSpxI_115.mp4	0.0	351.430064201355	2.508368968963623
52	162.88243913650513	fix_post	2		12.0	50.0	2.5	/experiments/knapen_aot/videos/R_S_yt-n2PnABmSpxI_115.mp4	0.0	353.9384331703186	0.0999898910522461
53	162.98242902755737	fix_pre	0		31.0	51.0	2.5	/experiments/knapen_aot/videos/S_yt-NQSCGMpo-p8_118.mp4	0.0	354.03842306137085	0.25828099250793457
53	163.23254108428955	response	0	2		51.0	2.5	/experiments/knapen_aot/videos/S_yt-NQSCGMpo-p8_118.mp4	0.0	354.288535118103	
53	163.2407100200653	movie	1		301.0	51.0	2.5	/experiments/knapen_aot/videos/S_yt-NQSCGMpo-p8_118.mp4	0.0	354.2967040538788	2.5083560943603516
53	165.74906611442566	fix_post	2		12.0	51.0	2.5	/experiments/knapen_aot/videos/S_yt-NQSCGMpo-p8_118.mp4	0.0	356.80506014823914	0.10001182556152344
54	165.84907793998718	fix_pre	0		320.0	52.0	2.5	/experiments/knapen_aot/videos/R_S_yt-Dwgpjoikt84_122.mp4	0.0	356.90507197380066	2.66652512550354
54	168.507483959198	response	0	2		52.0	2.5	/experiments/knapen_aot/videos/R_S_yt-Dwgpjoikt84_122.mp4	0.0	359.5634779930115	
54	168.51560306549072	movie	1		301.0	52.0	2.5	/experiments/knapen_aot/videos/R_S_yt-Dwgpjoikt84_122.mp4	0.0	359.5715970993042	2.508533000946045
54	171.02413606643677	fix_post	2		12.0	52.0	2.5	/experiments/knapen_aot/videos/R_S_yt-Dwgpjoikt84_122.mp4	0.0	362.08013010025024	0.09994006156921387
55	171.12407612800598	fix_pre	0		51.0	53.0	2.5	/experiments/knapen_aot/videos/R_S_g201_AK_A003_C014_SDR_20191113_SDR_2K_AVC.mp4	0.0	362.18007016181946	0.42635583877563477
55	171.54079413414001	response	0	2		53.0	2.5	/experiments/knapen_aot/videos/R_S_g201_AK_A003_C014_SDR_20191113_SDR_2K_AVC.mp4	0.0	362.5967881679535	
55	171.55043196678162	movie	1		164.0	53.0	2.5	/experiments/knapen_aot/videos/R_S_g201_AK_A003_C014_SDR_20191113_SDR_2K_AVC.mp4	0.0	362.6064260005951	2.506956100463867
55	174.05738806724548	fix_post	2		12.0	53.0	2.5	/experiments/knapen_aot/videos/R_S_g201_AK_A003_C014_SDR_20191113_SDR_2K_AVC.mp4	0.0	365.11338210105896	0.0999748706817627
56	174.15736293792725	fix_pre	0		51.0	54.0	2.5	/experiments/knapen_aot/videos/R_S_yt-qYuLW5vSotM_160.mp4	0.0	365.2133569717407	0.4248840808868408
56	174.57415914535522	response	0	2		54.0	2.5	/experiments/knapen_aot/videos/R_S_yt-qYuLW5vSotM_160.mp4	0.0	365.6301531791687	
56	174.5822470188141	movie	1		301.0	54.0	2.5	/experiments/knapen_aot/videos/R_S_yt-qYuLW5vSotM_160.mp4	0.0	365.63824105262756	2.5084519386291504
56	177.09069895744324	fix_post	2		12.0	54.0	2.5	/experiments/knapen_aot/videos/R_S_yt-qYuLW5vSotM_160.mp4	0.0	368.1466929912567	0.09999704360961914
57	177.19069600105286	fix_pre	0		35.0	55.0	2.5	blank	1.0	368.24669003486633	0.29163408279418945
57	177.474102973938	response	0	2		55.0	2.5	blank	1.0	368.53009700775146	
57	177.48233008384705	movie	1		301.0	55.0	2.5	blank	1.0	368.5383241176605	2.508357048034668
57	179.9906871318817	fix_post	2		12.0	55.0	2.5	blank	1.0	371.0466811656952	0.09997701644897461
58	180.0906641483307	fix_pre	0		35.0	56.0	2.5	/experiments/knapen_aot/videos/R_S_yt-dj0XQUJos38_14.mp4	0.0	371.14665818214417	0.29164695739746094
58	180.37408304214478	response	0	2		56.0	2.5	/experiments/knapen_aot/videos/R_S_yt-dj0XQUJos38_14.mp4	0.0	371.43007707595825	
58	180.38231110572815	movie	1		301.0	56.0	2.5	/experiments/knapen_aot/videos/R_S_yt-dj0XQUJos38_14.mp4	0.0	371.4383051395416	2.5083658695220947
58	182.89067697525024	fix_post	2		12.0	56.0	2.5	/experiments/knapen_aot/videos/R_S_yt-dj0XQUJos38_14.mp4	0.0	373.9466710090637	0.09991812705993652
59	182.99059510231018	fix_pre	0		533.0	57.0	2.5	/experiments/knapen_aot/videos/S_production_ID_5049072.mp4	0.0	374.04658913612366	4.44165301322937
59	187.4240951538086	response	0	2		57.0	2.5	/experiments/knapen_aot/videos/S_production_ID_5049072.mp4	0.0	378.48008918762207	
59	187.43224811553955	movie	1		171.0	57.0	2.5	/experiments/knapen_aot/videos/S_production_ID_5049072.mp4	0.0	378.488242149353	2.508558988571167
59	189.94080710411072	fix_post	2		12.0	57.0	2.5	/experiments/knapen_aot/videos/S_production_ID_5049072.mp4	0.0	380.9968011379242	0.09981584548950195
60	190.04062294960022	fix_pre	0		87.0	58.0	2.5	/experiments/knapen_aot/videos/R_S_yt-Ev39pXXfr1Y_152.mp4	0.0	381.0966169834137	0.7249500751495361
60	190.75758695602417	response	0	2		58.0	2.5	/experiments/knapen_aot/videos/R_S_yt-Ev39pXXfr1Y_152.mp4	0.0	381.81358098983765	
60	190.76557302474976	movie	1		301.0	58.0	2.5	/experiments/knapen_aot/videos/R_S_yt-Ev39pXXfr1Y_152.mp4	0.0	381.82156705856323	2.5083041191101074
60	193.27387714385986	fix_post	2		12.0	58.0	2.5	/experiments/knapen_aot/videos/R_S_yt-Ev39pXXfr1Y_152.mp4	0.0	384.32987117767334	0.10012102127075195
61	193.37399816513062	fix_pre	0		38.0	59.0	2.5	/experiments/knapen_aot/videos/R_S_P006_C002_UHD_SDR_2K_AVC.mp4	0.0	384.4299921989441	0.31658482551574707
61	193.68236708641052	response	0	2		59.0	2.5	/experiments/knapen_aot/videos/R_S_P006_C002_UHD_SDR_2K_AVC.mp4	0.0	384.738361120224	
61	193.69058299064636	movie	1		168.0	59.0	2.5	/experiments/knapen_aot/videos/R_S_P006_C002_UHD_SDR_2K_AVC.mp4	0.0	384.74657702445984	2.50838303565979
61	196.19896602630615	fix_post	2		12.0	59.0	2.5	/experiments/knapen_aot/videos/R_S_P006_C002_UHD_SDR_2K_AVC.mp4	0.0	387.25496006011963	0.09995913505554199
62	196.2989251613617	fix_pre	0		810.0	60.0	2.5	/experiments/knapen_aot/videos/S_yt-GVaF4tmJBZE_253.mp4	0.0	387.35491919517517	6.751288890838623
62	203.04066705703735	response	0	2		60.0	2.5	/experiments/knapen_aot/videos/S_yt-GVaF4tmJBZE_253.mp4	0.0	394.09666109085083	
62	203.05021405220032	movie	1		301.0	60.0	2.5	/experiments/knapen_aot/videos/S_yt-GVaF4tmJBZE_253.mp4	0.0	394.1062080860138	2.5074710845947266
62	205.55768513679504	fix_post	2		12.0	60.0	2.5	/experiments/knapen_aot/videos/S_yt-GVaF4tmJBZE_253.mp4	0.0	396.6136791706085	0.09957098960876465
63	205.6572561264038	fix_pre	0		38.0	61.0	2.5	/experiments/knapen_aot/videos/R_S_comp_A105_C002_v06_SDR_FINAL_25062018_SDR_2K_AVC.mp4	0.0	396.7132501602173	0.3165428638458252
63	205.96567797660828	response	0	2		61.0	2.5	/experiments/knapen_aot/videos/R_S_comp_A105_C002_v06_SDR_FINAL_25062018_SDR_2K_AVC.mp4	0.0	397.02167201042175	
63	205.97379899024963	movie	1		168.0	61.0	2.5	/experiments/knapen_aot/videos/R_S_comp_A105_C002_v06_SDR_FINAL_25062018_SDR_2K_AVC.mp4	0.0	397.0297930240631	2.5084431171417236
63	208.48224210739136	fix_post	2		12.0	61.0	2.5	/experiments/knapen_aot/videos/R_S_comp_A105_C002_v06_SDR_FINAL_25062018_SDR_2K_AVC.mp4	0.0	399.53823614120483	0.10003399848937988
64	208.58227610588074	fix_pre	0		46.0	62.0	2.5	blank	1.0	399.6382701396942	0.3832669258117676
64	208.95735096931458	response	0	2		62.0	2.5	blank	1.0	400.01334500312805	
64	208.9655430316925	movie	1		301.0	62.0	2.5	blank	1.0	400.021537065506	2.5083820819854736
64	211.47392511367798	fix_post	2		12.0	62.0	2.5	blank	1.0	402.52991914749146	0.09993600845336914
65	211.57386112213135	fix_pre	0		64.0	63.0	2.5	/experiments/knapen_aot/videos/S_yt-9pYW_TqVpU4_43.mp4	0.0	402.6298551559448	0.533329963684082
65	212.0989899635315	response	0	2		63.0	2.5	/experiments/knapen_aot/videos/S_yt-9pYW_TqVpU4_43.mp4	0.0	403.15498399734497	
65	212.10719108581543	movie	1		301.0	63.0	2.5	/experiments/knapen_aot/videos/S_yt-9pYW_TqVpU4_43.mp4	0.0	403.1631851196289	2.508549928665161
65	214.6157410144806	fix_post	2		12.0	63.0	2.5	/experiments/knapen_aot/videos/S_yt-9pYW_TqVpU4_43.mp4	0.0	405.67173504829407	0.0998830795288086
66	214.7156240940094	fix_pre	0		158.0	64.0	2.5	/experiments/knapen_aot/videos/S_video-8.mp4	0.0	405.7716181278229	1.3165080547332764
66	216.0240399837494	response	0	2		64.0	2.5	/experiments/knapen_aot/videos/S_video-8.mp4	0.0	407.08003401756287	
66	216.03213214874268	movie	1		203.0	64.0	2.5	/experiments/knapen_aot/videos/S_video-8.mp4	0.0	407.08812618255615	2.5084378719329834
66	218.54057002067566	fix_post	2		12.0	64.0	2.5	/experiments/knapen_aot/videos/S_video-8.mp4	0.0	409.59656405448914	0.09993195533752441
67	218.64050197601318	fix_pre	0		164.0	65.0	2.5	/experiments/knapen_aot/videos/R_S_yt-MTo50ReVNmU_2.mp4	0.0	409.69649600982666	1.367717981338501
67	219.99899411201477	response	0	2		65.0	2.5	/experiments/knapen_aot/videos/R_S_yt-MTo50ReVNmU_2.mp4	0.0	411.05498814582825	
67	220.00821995735168	movie	1		301.0	65.0	2.5	/experiments/knapen_aot/videos/R_S_yt-MTo50ReVNmU_2.mp4	0.0	411.06421399116516	2.5072550773620605
67	222.51547503471375	fix_post	2		12.0	65.0	2.5	/experiments/knapen_aot/videos/R_S_yt-MTo50ReVNmU_2.mp4	0.0	413.5714690685272	0.0999610424041748
68	222.61543607711792	fix_pre	0		50.0	66.0	2.5	/experiments/knapen_aot/videos/R_S_yt-kA0ybjmoiMc_284.mp4	0.0	413.6714301109314	0.4167358875274658
68	223.02393507957458	response	0	2		66.0	2.5	/experiments/knapen_aot/videos/R_S_yt-kA0ybjmoiMc_284.mp4	0.0	414.07992911338806	
68	223.03217196464539	movie	1		301.0	66.0	2.5	/experiments/knapen_aot/videos/R_S_yt-kA0ybjmoiMc_284.mp4	0.0	414.08816599845886	2.5083420276641846
68	225.54051399230957	fix_post	2		12.0	66.0	2.5	/experiments/knapen_aot/videos/R_S_yt-kA0ybjmoiMc_284.mp4	0.0	416.59650802612305	0.09995913505554199
69	225.6404731273651	fix_pre	0		29.0	67.0	2.5	/experiments/knapen_aot/videos/S_ILSVRC2015_train_00396000.mp4	0.0	416.6964671611786	0.24276494979858398
69	225.87391710281372	response	0	2		67.0	2.5	/experiments/knapen_aot/videos/S_ILSVRC2015_train_00396000.mp4	0.0	416.9299111366272	
69	225.8832380771637	movie	1		301.0	67.0	2.5	/experiments/knapen_aot/videos/S_ILSVRC2015_train_00396000.mp4	0.0	416.9392321109772	2.5072860717773438
69	228.39052414894104	fix_post	2		12.0	67.0	2.5	/experiments/knapen_aot/videos/S_ILSVRC2015_train_00396000.mp4	0.0	419.4465181827545	0.10007691383361816
70	228.49060106277466	fix_pre	0		19.0	68.0	2.5	blank	1.0	419.54659509658813	0.1582338809967041
70	228.64059495925903	response	0	2		68.0	2.5	blank	1.0	419.6965889930725	
70	228.64883494377136	movie	1		301.0	68.0	2.5	blank	1.0	419.70482897758484	2.5085840225219727
70	231.15741896629333	fix_post	2		12.0	68.0	2.5	blank	1.0	422.2134130001068	0.09975600242614746
71	231.25717496871948	fix_pre	0		31.0	69.0	2.5	/experiments/knapen_aot/videos/R_S_yt-jYSri2JVUqo_1036.mp4	0.0	422.31316900253296	0.25819897651672363
71	231.50722908973694	response	0	2		69.0	2.5	/experiments/knapen_aot/videos/R_S_yt-jYSri2JVUqo_1036.mp4	0.0	422.5632231235504	
71	231.5153739452362	movie	1		301.0	69.0	2.5	/experiments/knapen_aot/videos/R_S_yt-jYSri2JVUqo_1036.mp4	0.0	422.5713679790497	2.5085370540618896
71	234.0239109992981	fix_post	2		12.0	69.0	2.5	/experiments/knapen_aot/videos/R_S_yt-jYSri2JVUqo_1036.mp4	0.0	425.0799050331116	0.09987616539001465
72	234.1237871646881	fix_pre	0		48.0	70.0	2.5	/experiments/knapen_aot/videos/R_S_ILSVRC2015_train_00339001.mp4	0.0	425.1797811985016	0.3999660015106201
72	234.51559805870056	response	0	2		70.0	2.5	/experiments/knapen_aot/videos/R_S_ILSVRC2015_train_00339001.mp4	0.0	425.57159209251404	
72	234.52375316619873	movie	1		301.0	70.0	2.5	/experiments/knapen_aot/videos/R_S_ILSVRC2015_train_00339001.mp4	0.0	425.5797472000122	2.508333921432495
72	237.03208708763123	fix_post	2		12.0	70.0	2.5	/experiments/knapen_aot/videos/R_S_ILSVRC2015_train_00339001.mp4	0.0	428.0880811214447	0.10001206398010254
73	237.13209915161133	fix_pre	0		26.0	71.0	2.5	/experiments/knapen_aot/videos/S_yt-9T99N7Cvi_o_112.mp4	0.0	428.1880931854248	0.21668481826782227
73	237.34063911437988	response	0	2		71.0	2.5	/experiments/knapen_aot/videos/S_yt-9T99N7Cvi_o_112.mp4	0.0	428.39663314819336	
73	237.34878396987915	movie	1		301.0	71.0	2.5	/experiments/knapen_aot/videos/S_yt-9T99N7Cvi_o_112.mp4	0.0	428.4047780036926	2.508385181427002
73	238.73554611206055	response	1	2		71.0	2.5	/experiments/knapen_aot/videos/S_yt-9T99N7Cvi_o_112.mp4	0.0	429.791540145874	
73	239.85716915130615	fix_post	2		12.0	71.0	2.5	/experiments/knapen_aot/videos/S_yt-9T99N7Cvi_o_112.mp4	0.0	430.91316318511963	0.09991693496704102
74	239.9570860862732	fix_pre	0		171.0	72.0	2.5	/experiments/knapen_aot/videos/R_S_comp_CH_C002_C005_PSNK_v05_SDR_PS_FINAL_20180709_SDR_2K_AVC.mp4	0.0	431.01308012008667	1.4259378910064697
74	241.37389397621155	response	0	2		72.0	2.5	/experiments/knapen_aot/videos/R_S_comp_CH_C002_C005_PSNK_v05_SDR_PS_FINAL_20180709_SDR_2K_AVC.mp4	0.0	432.429888010025	
74	241.38302397727966	movie	1		172.0	72.0	2.5	/experiments/knapen_aot/videos/R_S_comp_CH_C002_C005_PSNK_v05_SDR_PS_FINAL_20180709_SDR_2K_AVC.mp4	0.0	432.43901801109314	2.5075931549072266
74	243.8906171321869	fix_post	2		12.0	72.0	2.5	/experiments/knapen_aot/videos/R_S_comp_CH_C002_C005_PSNK_v05_SDR_PS_FINAL_20180709_SDR_2K_AVC.mp4	0.0	434.94661116600037	0.0997929573059082
75	243.9904100894928	fix_pre	0		21.0	73.0	2.5	/experiments/knapen_aot/videos/S_yt-MhW2fU45JK8_544.mp4	0.0	435.0464041233063	0.17500686645507812
75	244.15709614753723	response	0	2		73.0	2.5	/experiments/knapen_aot/videos/S_yt-MhW2fU45JK8_544.mp4	0.0	435.2130901813507	
75	244.16541695594788	movie	1		301.0	73.0	2.5	/experiments/knapen_aot/videos/S_yt-MhW2fU45JK8_544.mp4	0.0	435.22141098976135	2.5083351135253906
75	246.67375206947327	fix_post	2		12.0	73.0	2.5	/experiments/knapen_aot/videos/S_yt-MhW2fU45JK8_544.mp4	0.0	437.72974610328674	0.10032296180725098
76	246.77407503128052	fix_pre	0		20.0	74.0	2.5	/experiments/knapen_aot/videos/R_S_yt-Iu2ZPHLqXuY_32.mp4	0.0	437.830069065094	0.1663041114807129
76	246.93220901489258	response	0	2		74.0	2.5	/experiments/knapen_aot/videos/R_S_yt-Iu2ZPHLqXuY_32.mp4	0.0	437.98820304870605	
76	246.94037914276123	movie	1		301.0	74.0	2.5	/experiments/knapen_aot/videos/R_S_yt-Iu2ZPHLqXuY_32.mp4	0.0	437.9963731765747	2.5083467960357666
76	249.448725938797	fix_post	2		12.0	74.0	2.5	/experiments/knapen_aot/videos/R_S_yt-Iu2ZPHLqXuY_32.mp4	0.0	440.5047199726105	0.10002422332763672
76	249.47377109527588	response	2	2		74.0	2.5	/experiments/knapen_aot/videos/R_S_yt-Iu2ZPHLqXuY_32.mp4	0.0	440.52976512908936	
77	249.54875016212463	fix_pre	0		54.0	75.0	2.5	/experiments/knapen_aot/videos/R_S_yt-mHLTJkMrkZI_143.mp4	0.0	440.6047441959381	0.44991278648376465
77	249.99047303199768	response	0	2		75.0	2.5	/experiments/knapen_aot/videos/R_S_yt-mHLTJkMrkZI_143.mp4	0.0	441.04646706581116	
77	249.9986629486084	movie	1		301.0	75.0	2.5	/experiments/knapen_aot/videos/R_S_yt-mHLTJkMrkZI_143.mp4	0.0	441.0546569824219	2.50838303565979
77	252.5070459842682	fix_post	2		12.0	75.0	2.5	/experiments/knapen_aot/videos/R_S_yt-mHLTJkMrkZI_143.mp4	0.0	443.56304001808167	0.0999901294708252
78	252.607036113739	fix_pre	0		45.0	76.0	2.5	/experiments/knapen_aot/videos/S_yt-26obL-Z5obg_131.mp4	0.0	443.6630301475525	0.3749878406524658
78	252.9738290309906	response	0	2		76.0	2.5	/experiments/knapen_aot/videos/S_yt-26obL-Z5obg_131.mp4	0.0	444.0298230648041	
78	252.98202395439148	movie	1		301.0	76.0	2.5	/experiments/knapen_aot/videos/S_yt-26obL-Z5obg_131.mp4	0.0	444.03801798820496	2.5084280967712402
78	255.49045205116272	fix_post	2		12.0	76.0	2.5	/experiments/knapen_aot/videos/S_yt-26obL-Z5obg_131.mp4	0.0	446.5464460849762	0.09989595413208008
79	255.5903480052948	fix_pre	0		45.0	77.0	2.5	blank	1.0	446.6463420391083	0.37589216232299805
79	255.9571511745453	response	0	2		77.0	2.5	blank	1.0	447.01314520835876	
79	255.9662401676178	movie	1		301.0	77.0	2.5	blank	1.0	447.0222342014313	2.507530927658081
79	257.25715017318726	response	1	2		77.0	2.5	blank	1.0	448.31314420700073	
79	258.35706305503845	response	1	2		77.0	2.5	blank	1.0	449.41305708885193	
79	258.4737710952759	fix_post	2		12.0	77.0	2.5	blank	1.0	449.52976512908936	0.09987092018127441
80	258.57364201545715	fix_pre	0		39.0	78.0	2.5	/experiments/knapen_aot/videos/R_S_yt-Ryb0K9lGPrg_5.mp4	0.0	449.62963604927063	0.3251841068267822
80	258.8904459476471	response	0	2		78.0	2.5	/experiments/knapen_aot/videos/R_S_yt-Ryb0K9lGPrg_5.mp4	0.0	449.94643998146057	
80	258.89882612228394	movie	1		301.0	78.0	2.5	/experiments/knapen_aot/videos/R_S_yt-Ryb0K9lGPrg_5.mp4	0.0	449.9548201560974	2.508190870285034
80	260.5190050601959	response	1	2		78.0	2.5	/experiments/knapen_aot/videos/R_S_yt-Ryb0K9lGPrg_5.mp4	0.0	451.5749990940094	
80	261.40701699256897	fix_post	2		12.0	78.0	2.5	/experiments/knapen_aot/videos/R_S_yt-Ryb0K9lGPrg_5.mp4	0.0	452.46301102638245	0.10010409355163574
81	261.5071210861206	fix_pre	0		75.0	79.0	2.5	/experiments/knapen_aot/videos/S_pexels-kindel-media-8164443.mp4	0.0	452.5631151199341	0.6258518695831299
81	262.123743057251	response	0	2		79.0	2.5	/experiments/knapen_aot/videos/S_pexels-kindel-media-8164443.mp4	0.0	453.17973709106445	
81	262.13297295570374	movie	1		164.0	79.0	2.5	/experiments/knapen_aot/videos/S_pexels-kindel-media-8164443.mp4	0.0	453.1889669895172	2.5074851512908936
81	263.92298102378845	response	1	2		79.0	2.5	/experiments/knapen_aot/videos/S_pexels-kindel-media-8164443.mp4	0.0	454.97897505760193	
81	264.64045810699463	fix_post	2		12.0	79.0	2.5	/experiments/knapen_aot/videos/S_pexels-kindel-media-8164443.mp4	0.0	455.6964521408081	0.09991192817687988
82	264.7403700351715	fix_pre	0		22.0	80.0	2.5	/experiments/knapen_aot/videos/R_S_yt-0buqUbXVTn8_48.mp4	0.0	455.796364068985	0.1841869354248047
82	264.907879114151	response	0	2		80.0	2.5	/experiments/knapen_aot/videos/R_S_yt-0buqUbXVTn8_48.mp4	0.0	455.9638731479645	
82	264.9245569705963	movie	1		301.0	80.0	2.5	/experiments/knapen_aot/videos/R_S_yt-0buqUbXVTn8_48.mp4	0.0	455.9805510044098	2.5074310302734375
82	265.5775339603424	response	1	2		80.0	2.5	/experiments/knapen_aot/videos/R_S_yt-0buqUbXVTn8_48.mp4	0.0	456.6335279941559	
82	266.0009980201721	response	1	2		80.0	2.5	/experiments/knapen_aot/videos/R_S_yt-0buqUbXVTn8_48.mp4	0.0	457.0569920539856	
82	266.75109815597534	response	1	2		80.0	2.5	/experiments/knapen_aot/videos/R_S_yt-0buqUbXVTn8_48.mp4	0.0	457.8070921897888	
82	267.43198800086975	fix_post	2		12.0	80.0	2.5	/experiments/knapen_aot/videos/R_S_yt-0buqUbXVTn8_48.mp4	0.0	458.4879820346832	0.09998512268066406
83	267.5319731235504	fix_pre	0		136.0	81.0	2.5	/experiments/knapen_aot/videos/R_S_yt-CINajD_PVjQ_494.mp4	0.0	458.5879671573639	1.133302927017212
83	268.657124042511	response	0	2		81.0	2.5	/experiments/knapen_aot/videos/R_S_yt-CINajD_PVjQ_494.mp4	0.0	459.71311807632446	
83	268.6652760505676	movie	1		301.0	81.0	2.5	/experiments/knapen_aot/videos/R_S_yt-CINajD_PVjQ_494.mp4	0.0	459.7212700843811	2.5083940029144287
83	271.17367005348206	fix_post	2		12.0	81.0	2.5	/experiments/knapen_aot/videos/R_S_yt-CINajD_PVjQ_494.mp4	0.0	462.22966408729553	0.09991312026977539
84	271.27358317375183	fix_pre	0		46.0	82.0	2.5	blank	1.0	462.3295772075653	0.38334083557128906
84	271.6487331390381	response	0	2		82.0	2.5	blank	1.0	462.70472717285156	
84	271.6569240093231	movie	1		301.0	82.0	2.5	blank	1.0	462.7129180431366	2.5083889961242676
84	274.1653130054474	fix_post	2		12.0	82.0	2.5	blank	1.0	465.22130703926086	0.09998703002929688
85	274.2653000354767	fix_pre	0		48.0	83.0	2.5	/experiments/knapen_aot/videos/R_S_yt-8aJDzfAaArQ_75.mp4	0.0	465.32129406929016	0.3998830318450928
85	274.6570761203766	response	0	2		83.0	2.5	/experiments/knapen_aot/videos/R_S_yt-8aJDzfAaArQ_75.mp4	0.0	465.71307015419006	
85	274.6651830673218	movie	1		301.0	83.0	2.5	/experiments/knapen_aot/videos/R_S_yt-8aJDzfAaArQ_75.mp4	0.0	465.72117710113525	2.508405923843384
85	275.9737620353699	response	1	2		83.0	2.5	/experiments/knapen_aot/videos/R_S_yt-8aJDzfAaArQ_75.mp4	0.0	467.02975606918335	
85	277.17358899116516	fix_post	2		12.0	83.0	2.5	/experiments/knapen_aot/videos/R_S_yt-8aJDzfAaArQ_75.mp4	0.0	468.22958302497864	0.10017108917236328
87	277.2737600803375	stim	0		147.0					468.329754114151	1.2270479202270508
87	277.55711102485657	response	0	2						468.61310505867004	
87	278.4956691265106	response	0	space						469.5516631603241	
