trial_nr	onset	event_type	phase	response	nr_frames	movie_index	movie_duration	movie_file	blank	onset_abs	duration
0	0.1320018768310547	stim	0		28.0					60.231212854385376	0.2315070629119873
0	0.35518789291381836	response	0	space						60.45439887046814	
1	0.363508939743042	stim	0		121.0					60.46271991729736	1.0083580017089844
1	1.1053080558776855	response	0	space						61.20451903343201	
1	1.3718669414520264	stim	1		120.0					61.47107791900635	0.999661922454834
1	1.4719719886779785	response	1	space						61.5711829662323	
1	1.8382558822631836	response	1	space						61.937466859817505	
1	2.204861879348755	response	1	space						62.304072856903076	
2	2.3715288639068604	fix_pre	0		31.0	0.0	2.5	/experiments/knapen_aot/videos/S_yt-FbCVXEJicis_5.mp4	0.0	62.47073984146118	0.2582080364227295
2	2.6215949058532715	response	0	space		0.0	2.5	/experiments/knapen_aot/videos/S_yt-FbCVXEJicis_5.mp4	0.0	62.72080588340759	
2	2.62973690032959	movie	1		301.0	0.0	2.5	/experiments/knapen_aot/videos/S_yt-FbCVXEJicis_5.mp4	0.0	62.72894787788391	2.508376121520996
2	5.138113021850586	fix_post	2		12.0	0.0	2.5	/experiments/knapen_aot/videos/S_yt-FbCVXEJicis_5.mp4	0.0	65.23732399940491	0.09998893737792969
3	5.238101959228516	fix_pre	0		16.0	1.0	2.5	/experiments/knapen_aot/videos/S_yt-dj0XQUJos38_14.mp4	0.0	65.33731293678284	0.13330507278442383
3	5.364523887634277	response	0	2		1.0	2.5	/experiments/knapen_aot/videos/S_yt-dj0XQUJos38_14.mp4	0.0	65.4637348651886	
3	5.3714070320129395	movie	1		301.0	1.0	2.5	/experiments/knapen_aot/videos/S_yt-dj0XQUJos38_14.mp4	0.0	65.47061800956726	2.5083558559417725
3	7.879762887954712	fix_post	2		12.0	1.0	2.5	/experiments/knapen_aot/videos/S_yt-dj0XQUJos38_14.mp4	0.0	67.97897386550903	0.09990811347961426
4	7.979671001434326	fix_pre	0		24.0	2.0	2.5	/experiments/knapen_aot/videos/S_ILSVRC2015_train_00396000.mp4	0.0	68.07888197898865	0.20047903060913086
4	8.171496868133545	response	0	2		2.0	2.5	/experiments/knapen_aot/videos/S_ILSVRC2015_train_00396000.mp4	0.0	68.27070784568787	
4	8.180150032043457	movie	1		301.0	2.0	2.5	/experiments/knapen_aot/videos/S_ILSVRC2015_train_00396000.mp4	0.0	68.27936100959778	2.507877826690674
4	10.68802785873413	fix_post	2		12.0	2.0	2.5	/experiments/knapen_aot/videos/S_ILSVRC2015_train_00396000.mp4	0.0	70.78723883628845	0.1000661849975586
5	10.78809404373169	fix_pre	0		5.0	3.0	2.5	/experiments/knapen_aot/videos/S_yt-hTkrnNr39dk_202.mp4	0.0	70.88730502128601	0.04166698455810547
5	10.814034938812256	response	0	2		3.0	2.5	/experiments/knapen_aot/videos/S_yt-hTkrnNr39dk_202.mp4	0.0	70.91324591636658	
5	10.829761028289795	movie	1		301.0	3.0	2.5	/experiments/knapen_aot/videos/S_yt-hTkrnNr39dk_202.mp4	0.0	70.92897200584412	2.5082859992980957
5	13.33804702758789	fix_post	2		12.0	3.0	2.5	/experiments/knapen_aot/videos/S_yt-hTkrnNr39dk_202.mp4	0.0	73.43725800514221	0.09993696212768555
6	13.437983989715576	fix_pre	0		2.0	4.0	2.5	/experiments/knapen_aot/videos/R_S_ILSVRC2015_train_00450001.mp4	0.0	73.5371949672699	0.016727924346923828
6	13.44648003578186	response	0	2		4.0	2.5	/experiments/knapen_aot/videos/R_S_ILSVRC2015_train_00450001.mp4	0.0	73.54569101333618	
6	13.4547119140625	movie	1		301.0	4.0	2.5	/experiments/knapen_aot/videos/R_S_ILSVRC2015_train_00450001.mp4	0.0	73.55392289161682	2.508404016494751
6	15.963115930557251	fix_post	2		12.0	4.0	2.5	/experiments/knapen_aot/videos/R_S_ILSVRC2015_train_00450001.mp4	0.0	76.06232690811157	0.09993600845336914
7	16.06305193901062	fix_pre	0		3.0	5.0	2.5	/experiments/knapen_aot/videos/S_g201_TH_804_A001_8_SDR_20191031_SDR_2K_AVC.mp4	0.0	76.16226291656494	0.025002002716064453
7	16.0797860622406	response	0	2		5.0	2.5	/experiments/knapen_aot/videos/S_g201_TH_804_A001_8_SDR_20191031_SDR_2K_AVC.mp4	0.0	76.17899703979492	
7	16.088053941726685	movie	1		163.0	5.0	2.5	/experiments/knapen_aot/videos/S_g201_TH_804_A001_8_SDR_20191031_SDR_2K_AVC.mp4	0.0	76.187264919281	2.508323907852173
7	18.596377849578857	fix_post	2		12.0	5.0	2.5	/experiments/knapen_aot/videos/S_g201_TH_804_A001_8_SDR_20191031_SDR_2K_AVC.mp4	0.0	78.69558882713318	0.09998011589050293
8	18.69635796546936	fix_pre	0		1.0	6.0	2.5	blank	1.0	78.79556894302368	0.008378028869628906
8	18.69798707962036	response	0	2		6.0	2.5	blank	1.0	78.79719805717468	
8	18.70473599433899	movie	1		301.0	6.0	2.5	blank	1.0	78.80394697189331	2.508288860321045
8	21.213024854660034	fix_post	2		12.0	6.0	2.5	blank	1.0	81.31223583221436	0.09999513626098633
9	21.31301999092102	fix_pre	0		8.0	7.0	2.5	/experiments/knapen_aot/videos/S_yt-Gokv9ZtV6zo_70.mp4	0.0	81.41223096847534	0.06661295890808105
9	21.37146496772766	response	0	2		7.0	2.5	/experiments/knapen_aot/videos/S_yt-Gokv9ZtV6zo_70.mp4	0.0	81.47067594528198	
9	21.3796329498291	movie	1		301.0	7.0	2.5	/experiments/knapen_aot/videos/S_yt-Gokv9ZtV6zo_70.mp4	0.0	81.47884392738342	2.5084400177001953
9	23.888072967529297	fix_post	2		12.0	7.0	2.5	/experiments/knapen_aot/videos/S_yt-Gokv9ZtV6zo_70.mp4	0.0	83.98728394508362	0.09991288185119629
10	23.987985849380493	fix_pre	0		11.0	8.0	2.5	/experiments/knapen_aot/videos/S_yt-PP93D7b7Ni4_10.mp4	0.0	84.08719682693481	0.09162116050720215
10	24.07147789001465	response	0	2		8.0	2.5	/experiments/knapen_aot/videos/S_yt-PP93D7b7Ni4_10.mp4	0.0	84.17068886756897	
10	24.079607009887695	movie	1		301.0	8.0	2.5	/experiments/knapen_aot/videos/S_yt-PP93D7b7Ni4_10.mp4	0.0	84.17881798744202	2.5086119174957275
10	26.588218927383423	fix_post	2		12.0	8.0	2.5	/experiments/knapen_aot/videos/S_yt-PP93D7b7Ni4_10.mp4	0.0	86.68742990493774	0.09976315498352051
10	26.679687976837158	response	2	2		8.0	2.5	/experiments/knapen_aot/videos/S_yt-PP93D7b7Ni4_10.mp4	0.0	86.77889895439148	
11	26.687982082366943	fix_pre	0		38.0	9.0	2.5	/experiments/knapen_aot/videos/R_S_yt-n2PnABmSpxI_115.mp4	0.0	86.78719305992126	0.3166508674621582
11	26.996397018432617	response	0	2		9.0	2.5	/experiments/knapen_aot/videos/R_S_yt-n2PnABmSpxI_115.mp4	0.0	87.09560799598694	
11	27.0046329498291	movie	1		301.0	9.0	2.5	/experiments/knapen_aot/videos/R_S_yt-n2PnABmSpxI_115.mp4	0.0	87.10384392738342	2.5084400177001953
11	29.513072967529297	fix_post	2		12.0	9.0	2.5	/experiments/knapen_aot/videos/R_S_yt-n2PnABmSpxI_115.mp4	0.0	89.61228394508362	0.0998380184173584
12	29.612910985946655	fix_pre	0		6.0	10.0	2.5	/experiments/knapen_aot/videos/S_pexels-pavel-danilyuk-8626652.mp4	0.0	89.71212196350098	0.05002593994140625
12	29.65467095375061	response	0	2		10.0	2.5	/experiments/knapen_aot/videos/S_pexels-pavel-danilyuk-8626652.mp4	0.0	89.75388193130493	
12	29.66293692588806	movie	1		165.0	10.0	2.5	/experiments/knapen_aot/videos/S_pexels-pavel-danilyuk-8626652.mp4	0.0	89.76214790344238	2.5085599422454834
12	32.171496868133545	fix_post	2		12.0	10.0	2.5	/experiments/knapen_aot/videos/S_pexels-pavel-danilyuk-8626652.mp4	0.0	92.27070784568787	0.0997781753540039
13	32.27127504348755	fix_pre	0		9.0	11.0	2.5	/experiments/knapen_aot/videos/R_S_yt-bZfmqTZ-d2k_112.mp4	0.0	92.37048602104187	0.0753169059753418
13	32.338099002838135	response	0	2		11.0	2.5	/experiments/knapen_aot/videos/R_S_yt-bZfmqTZ-d2k_112.mp4	0.0	92.43730998039246	
13	32.34659194946289	movie	1		301.0	11.0	2.5	/experiments/knapen_aot/videos/R_S_yt-bZfmqTZ-d2k_112.mp4	0.0	92.44580292701721	2.5082039833068848
13	34.854795932769775	fix_post	2		12.0	11.0	2.5	/experiments/knapen_aot/videos/R_S_yt-bZfmqTZ-d2k_112.mp4	0.0	94.9540069103241	0.09982609748840332
14	34.95462203025818	fix_pre	0		15.0	12.0	2.5	blank	1.0	95.0538330078125	0.12499094009399414
14	35.07134795188904	response	0	2		12.0	2.5	blank	1.0	95.17055892944336	
14	35.07961297035217	movie	1		301.0	12.0	2.5	blank	1.0	95.1788239479065	2.508342981338501
14	37.587955951690674	fix_post	2		12.0	12.0	2.5	blank	1.0	97.687166929245	0.09998297691345215
15	37.687938928604126	fix_pre	0		2.0	13.0	2.5	/experiments/knapen_aot/videos/R_S_yt-PP93D7b7Ni4_10.mp4	0.0	97.78714990615845	0.016659021377563477
15	37.69641304016113	response	0	2		13.0	2.5	/experiments/knapen_aot/videos/R_S_yt-PP93D7b7Ni4_10.mp4	0.0	97.79562401771545	
15	37.70459794998169	movie	1		301.0	13.0	2.5	/experiments/knapen_aot/videos/R_S_yt-PP93D7b7Ni4_10.mp4	0.0	97.80380892753601	2.5083420276641846
15	40.212939977645874	fix_post	2		12.0	13.0	2.5	/experiments/knapen_aot/videos/R_S_yt-PP93D7b7Ni4_10.mp4	0.0	100.3121509552002	0.10002493858337402
16	40.31296491622925	fix_pre	0		1.0	14.0	2.5	/experiments/knapen_aot/videos/R_S_yt-KVB49z48sZU_55.mp4	0.0	100.41217589378357	0.008317947387695312
16	40.31470704078674	response	0	2		14.0	2.5	/experiments/knapen_aot/videos/R_S_yt-KVB49z48sZU_55.mp4	0.0	100.41391801834106	
16	40.32128286361694	movie	1		301.0	14.0	2.5	/experiments/knapen_aot/videos/R_S_yt-KVB49z48sZU_55.mp4	0.0	100.42049384117126	2.508301019668579
16	42.82958388328552	fix_post	2		12.0	14.0	2.5	/experiments/knapen_aot/videos/R_S_yt-KVB49z48sZU_55.mp4	0.0	102.92879486083984	0.10032105445861816
17	42.92990493774414	fix_pre	0		18.0	15.0	2.5	/experiments/knapen_aot/videos/S_yt-s5YONFy3vb4_46.mp4	0.0	103.02911591529846	0.14965391159057617
17	43.07131385803223	response	0	2		15.0	2.5	/experiments/knapen_aot/videos/S_yt-s5YONFy3vb4_46.mp4	0.0	103.17052483558655	
17	43.07955884933472	movie	1		301.0	15.0	2.5	/experiments/knapen_aot/videos/S_yt-s5YONFy3vb4_46.mp4	0.0	103.17876982688904	2.508371114730835
17	45.58792996406555	fix_post	2		12.0	15.0	2.5	/experiments/knapen_aot/videos/S_yt-s5YONFy3vb4_46.mp4	0.0	105.68714094161987	0.10000395774841309
18	45.687933921813965	fix_pre	0		4.0	16.0	2.5	/experiments/knapen_aot/videos/R_S_P007_C027_UHD_SDR_2K_AVC.mp4	0.0	105.78714489936829	0.03376507759094238
18	45.713093996047974	response	0	2		16.0	2.5	/experiments/knapen_aot/videos/R_S_P007_C027_UHD_SDR_2K_AVC.mp4	0.0	105.8123049736023	
18	45.72169899940491	movie	1		171.0	16.0	2.5	/experiments/knapen_aot/videos/R_S_P007_C027_UHD_SDR_2K_AVC.mp4	0.0	105.82090997695923	2.507888078689575
18	48.22958707809448	fix_post	2		12.0	16.0	2.5	/experiments/knapen_aot/videos/R_S_P007_C027_UHD_SDR_2K_AVC.mp4	0.0	108.3287980556488	0.09991288185119629
18	48.304707050323486	response	2	2		16.0	2.5	/experiments/knapen_aot/videos/R_S_P007_C027_UHD_SDR_2K_AVC.mp4	0.0	108.40391802787781	
19	48.32949995994568	fix_pre	0		32.0	17.0	2.5	/experiments/knapen_aot/videos/R_S_yt-tX5U0Lyo6Gs_376.mp4	0.0	108.4287109375	0.2671329975128174
19	48.58793902397156	response	0	2		17.0	2.5	/experiments/knapen_aot/videos/R_S_yt-tX5U0Lyo6Gs_376.mp4	0.0	108.68715000152588	
19	48.596632957458496	movie	1		300.0	17.0	2.5	/experiments/knapen_aot/videos/R_S_yt-tX5U0Lyo6Gs_376.mp4	0.0	108.69584393501282	2.5079150199890137
19	51.10454797744751	fix_post	2		12.0	17.0	2.5	/experiments/knapen_aot/videos/R_S_yt-tX5U0Lyo6Gs_376.mp4	0.0	111.20375895500183	0.10011005401611328
20	51.20465803146362	fix_pre	0		11.0	18.0	2.5	/experiments/knapen_aot/videos/R_S_comp_C004_C003_PS_v01_SDR_PS_20180925_SDR_2K_AVC.mp4	0.0	111.30386900901794	0.09144902229309082
20	51.287981033325195	response	0	2		18.0	2.5	/experiments/knapen_aot/videos/R_S_comp_C004_C003_PS_v01_SDR_PS_20180925_SDR_2K_AVC.mp4	0.0	111.38719201087952	
20	51.296107053756714	movie	1		171.0	18.0	2.5	/experiments/knapen_aot/videos/R_S_comp_C004_C003_PS_v01_SDR_PS_20180925_SDR_2K_AVC.mp4	0.0	111.39531803131104	2.5084128379821777
20	53.80451989173889	fix_post	2		12.0	18.0	2.5	/experiments/knapen_aot/videos/R_S_comp_C004_C003_PS_v01_SDR_PS_20180925_SDR_2K_AVC.mp4	0.0	113.90373086929321	0.10002017021179199
21	53.904540061950684	fix_pre	0		5.0	19.0	2.5	blank	1.0	114.003751039505	0.041687965393066406
21	53.930455923080444	response	0	2		19.0	2.5	blank	1.0	114.02966690063477	
21	53.94622802734375	movie	1		301.0	19.0	2.5	blank	1.0	114.04543900489807	2.5083060264587402
21	56.45453405380249	fix_post	2		12.0	19.0	2.5	blank	1.0	116.55374503135681	0.10001492500305176
22	56.55454897880554	fix_pre	0		13.0	20.0	2.5	/experiments/knapen_aot/videos/S_ILSVRC2015_train_00165009.mp4	0.0	116.65375995635986	0.10827493667602539
22	56.65459895133972	response	0	2		20.0	2.5	/experiments/knapen_aot/videos/S_ILSVRC2015_train_00165009.mp4	0.0	116.75380992889404	
22	56.66282391548157	movie	1		301.0	20.0	2.5	/experiments/knapen_aot/videos/S_ILSVRC2015_train_00165009.mp4	0.0	116.76203489303589	2.508449077606201
22	59.17127299308777	fix_post	2		12.0	20.0	2.5	/experiments/knapen_aot/videos/S_ILSVRC2015_train_00165009.mp4	0.0	119.27048397064209	0.09992289543151855
23	59.27119588851929	fix_pre	0		7.0	21.0	2.5	/experiments/knapen_aot/videos/R_S_yt-Rqwi-Fk9IJQ_114.mp4	0.0	119.37040686607361	0.05832409858703613
23	59.32116985321045	response	0	2		21.0	2.5	/experiments/knapen_aot/videos/R_S_yt-Rqwi-Fk9IJQ_114.mp4	0.0	119.42038083076477	
23	59.32951998710632	movie	1		301.0	21.0	2.5	/experiments/knapen_aot/videos/R_S_yt-Rqwi-Fk9IJQ_114.mp4	0.0	119.42873096466064	2.5083229541778564
23	61.83784294128418	fix_post	2		12.0	21.0	2.5	/experiments/knapen_aot/videos/R_S_yt-Rqwi-Fk9IJQ_114.mp4	0.0	121.9370539188385	0.09999299049377441
24	61.937835931777954	fix_pre	0		20.0	22.0	2.5	/experiments/knapen_aot/videos/R_S_pexels-pavel-danilyuk-8626652.mp4	0.0	122.03704690933228	0.16664409637451172
24	62.09621787071228	response	0	2		22.0	2.5	/experiments/knapen_aot/videos/R_S_pexels-pavel-danilyuk-8626652.mp4	0.0	122.1954288482666	
24	62.104480028152466	movie	1		164.0	22.0	2.5	/experiments/knapen_aot/videos/R_S_pexels-pavel-danilyuk-8626652.mp4	0.0	122.20369100570679	2.508591890335083
24	64.61307191848755	fix_post	2		12.0	22.0	2.5	/experiments/knapen_aot/videos/R_S_pexels-pavel-danilyuk-8626652.mp4	0.0	124.71228289604187	0.09975409507751465
25	64.71282601356506	fix_pre	0		11.0	23.0	2.5	/experiments/knapen_aot/videos/S_yt-aTEGTeQuDWM_93.mp4	0.0	124.81203699111938	0.09177589416503906
25	64.79624700546265	response	0	2		23.0	2.5	/experiments/knapen_aot/videos/S_yt-aTEGTeQuDWM_93.mp4	0.0	124.89545798301697	
25	64.8046019077301	movie	1		301.0	23.0	2.5	/experiments/knapen_aot/videos/S_yt-aTEGTeQuDWM_93.mp4	0.0	124.90381288528442	2.514019012451172
25	67.31862092018127	fix_post	2		11.0	23.0	2.5	/experiments/knapen_aot/videos/S_yt-aTEGTeQuDWM_93.mp4	0.0	127.4178318977356	0.09418702125549316
26	67.41280794143677	fix_pre	0		26.0	24.0	2.5	/experiments/knapen_aot/videos/R_S_I003_C015_SDR_2K_AVC.mp4	0.0	127.51201891899109	0.21667003631591797
26	67.62124991416931	response	0	2		24.0	2.5	/experiments/knapen_aot/videos/R_S_I003_C015_SDR_2K_AVC.mp4	0.0	127.72046089172363	
26	67.62947797775269	movie	1		169.0	24.0	2.5	/experiments/knapen_aot/videos/R_S_I003_C015_SDR_2K_AVC.mp4	0.0	127.728688955307	2.508533000946045
26	70.13801097869873	fix_post	2		12.0	24.0	2.5	/experiments/knapen_aot/videos/R_S_I003_C015_SDR_2K_AVC.mp4	0.0	130.23722195625305	0.0997779369354248
26	70.21291303634644	response	2	2		24.0	2.5	/experiments/knapen_aot/videos/R_S_I003_C015_SDR_2K_AVC.mp4	0.0	130.31212401390076	
27	70.23778891563416	fix_pre	0		31.0	25.0	2.5	/experiments/knapen_aot/videos/R_S_m-aeoYPMqfg_185.mp4	0.0	130.33699989318848	0.25827813148498535
27	70.4878499507904	response	0	2		25.0	2.5	/experiments/knapen_aot/videos/R_S_m-aeoYPMqfg_185.mp4	0.0	130.58706092834473	
27	70.49606704711914	movie	1		301.0	25.0	2.5	/experiments/knapen_aot/videos/R_S_m-aeoYPMqfg_185.mp4	0.0	130.59527802467346	2.508380889892578
27	73.00444793701172	fix_post	2		12.0	25.0	2.5	/experiments/knapen_aot/videos/R_S_m-aeoYPMqfg_185.mp4	0.0	133.10365891456604	0.09997105598449707
28	73.10441899299622	fix_pre	0		13.0	26.0	2.5	/experiments/knapen_aot/videos/S_yt-Uv0dt_-fWJU_40.mp4	0.0	133.20362997055054	0.10832500457763672
28	73.20456099510193	response	0	2		26.0	2.5	/experiments/knapen_aot/videos/S_yt-Uv0dt_-fWJU_40.mp4	0.0	133.30377197265625	
28	73.21274399757385	movie	1		301.0	26.0	2.5	/experiments/knapen_aot/videos/S_yt-Uv0dt_-fWJU_40.mp4	0.0	133.31195497512817	2.5085389614105225
28	75.72128295898438	fix_post	2		12.0	26.0	2.5	/experiments/knapen_aot/videos/S_yt-Uv0dt_-fWJU_40.mp4	0.0	135.8204939365387	0.09982609748840332
29	75.82110905647278	fix_pre	0		22.0	27.0	2.5	/experiments/knapen_aot/videos/R_S_yt-AuQ_WxaNy4Y_255.mp4	0.0	135.9203200340271	0.18329286575317383
29	75.99621295928955	response	0	2		27.0	2.5	/experiments/knapen_aot/videos/R_S_yt-AuQ_WxaNy4Y_255.mp4	0.0	136.09542393684387	
29	76.00440192222595	movie	1		301.0	27.0	2.5	/experiments/knapen_aot/videos/R_S_yt-AuQ_WxaNy4Y_255.mp4	0.0	136.10361289978027	2.508888006210327
29	78.51328992843628	fix_post	2		12.0	27.0	2.5	/experiments/knapen_aot/videos/R_S_yt-AuQ_WxaNy4Y_255.mp4	0.0	138.6125009059906	0.09948992729187012
30	78.61277985572815	fix_pre	0		21.0	28.0	2.5	blank	1.0	138.71199083328247	0.17497801780700684
30	78.77947402000427	response	0	2		28.0	2.5	blank	1.0	138.8786849975586	
30	78.78775787353516	movie	1		301.0	28.0	2.5	blank	1.0	138.88696885108948	2.508305072784424
30	81.29606294631958	fix_post	2		12.0	28.0	2.5	blank	1.0	141.3952739238739	0.1000509262084961
31	81.39611387252808	fix_pre	0		24.0	29.0	2.5	/experiments/knapen_aot/videos/R_S_yt-KVB49z48sZU_55.mp4	0.0	141.4953248500824	0.19999003410339355
31	81.58785104751587	response	0	2		29.0	2.5	/experiments/knapen_aot/videos/R_S_yt-KVB49z48sZU_55.mp4	0.0	141.6870620250702	
31	81.59610390663147	movie	1		301.0	29.0	2.5	/experiments/knapen_aot/videos/R_S_yt-KVB49z48sZU_55.mp4	0.0	141.6953148841858	2.5083651542663574
31	84.10446906089783	fix_post	2		12.0	29.0	2.5	/experiments/knapen_aot/videos/R_S_yt-KVB49z48sZU_55.mp4	0.0	144.20368003845215	0.09994292259216309
32	84.20441198348999	fix_pre	0		5.0	30.0	2.5	/experiments/knapen_aot/videos/R_S_yt-dj0XQUJos38_14.mp4	0.0	144.3036229610443	0.041589975357055664
32	84.23786091804504	response	0	2		30.0	2.5	/experiments/knapen_aot/videos/R_S_yt-dj0XQUJos38_14.mp4	0.0	144.33707189559937	
32	84.24600195884705	movie	1		301.0	30.0	2.5	/experiments/knapen_aot/videos/R_S_yt-dj0XQUJos38_14.mp4	0.0	144.34521293640137	2.5083980560302734
32	86.75440001487732	fix_post	2		12.0	30.0	2.5	/experiments/knapen_aot/videos/R_S_yt-dj0XQUJos38_14.mp4	0.0	146.85361099243164	0.10007500648498535
33	86.8544750213623	fix_pre	0		9.0	31.0	2.5	/experiments/knapen_aot/videos/R_S_yt-zQnaVApUPH0_14.mp4	0.0	146.95368599891663	0.07494997978210449
33	86.91354203224182	response	0	2		31.0	2.5	/experiments/knapen_aot/videos/R_S_yt-zQnaVApUPH0_14.mp4	0.0	147.01275300979614	
33	86.92942500114441	movie	1		301.0	31.0	2.5	/experiments/knapen_aot/videos/R_S_yt-zQnaVApUPH0_14.mp4	0.0	147.02863597869873	2.508301019668579
33	89.43772602081299	fix_post	2		12.0	31.0	2.5	/experiments/knapen_aot/videos/R_S_yt-zQnaVApUPH0_14.mp4	0.0	149.5369369983673	0.10006594657897949
34	89.53779196739197	fix_pre	0		16.0	32.0	2.5	/experiments/knapen_aot/videos/R_S_ILSVRC2015_train_00556000.mp4	0.0	149.6370029449463	0.13323593139648438
34	89.66283106803894	response	0	2		32.0	2.5	/experiments/knapen_aot/videos/R_S_ILSVRC2015_train_00556000.mp4	0.0	149.76204204559326	
34	89.67102789878845	movie	1		301.0	32.0	2.5	/experiments/knapen_aot/videos/R_S_ILSVRC2015_train_00556000.mp4	0.0	149.77023887634277	2.5084080696105957
34	92.17943596839905	fix_post	2		12.0	32.0	2.5	/experiments/knapen_aot/videos/R_S_ILSVRC2015_train_00556000.mp4	0.0	152.27864694595337	0.09995102882385254
35	92.2793869972229	fix_pre	0		16.0	33.0	2.5	/experiments/knapen_aot/videos/S_ILSVRC2015_train_00497001.mp4	0.0	152.37859797477722	0.13319897651672363
35	92.40448999404907	response	0	2		33.0	2.5	/experiments/knapen_aot/videos/S_ILSVRC2015_train_00497001.mp4	0.0	152.5037009716034	
35	92.41258597373962	movie	1		301.0	33.0	2.5	/experiments/knapen_aot/videos/S_ILSVRC2015_train_00497001.mp4	0.0	152.51179695129395	2.5084939002990723
35	94.9210798740387	fix_post	2		12.0	33.0	2.5	/experiments/knapen_aot/videos/S_ILSVRC2015_train_00497001.mp4	0.0	155.02029085159302	0.09995698928833008
36	95.02103686332703	fix_pre	0		12.0	34.0	2.5	/experiments/knapen_aot/videos/R_S_yt-3TF_RGo9cLs_541.mp4	0.0	155.12024784088135	0.10010814666748047
36	95.11270403862	response	0	2		34.0	2.5	/experiments/knapen_aot/videos/R_S_yt-3TF_RGo9cLs_541.mp4	0.0	155.21191501617432	
36	95.1211450099945	movie	1		301.0	34.0	2.5	/experiments/knapen_aot/videos/R_S_yt-3TF_RGo9cLs_541.mp4	0.0	155.22035598754883	2.508204936981201
36	97.62934994697571	fix_post	2		12.0	34.0	2.5	/experiments/knapen_aot/videos/R_S_yt-3TF_RGo9cLs_541.mp4	0.0	157.72856092453003	0.10000491142272949
37	97.72935485839844	fix_pre	0		11.0	35.0	2.5	blank	1.0	157.82856583595276	0.09165811538696289
37	97.8052659034729	response	0	2		35.0	2.5	blank	1.0	157.90447688102722	
37	97.8210129737854	movie	1		301.0	35.0	2.5	blank	1.0	157.92022395133972	2.508258104324341
37	100.32927107810974	fix_post	2		12.0	35.0	2.5	blank	1.0	160.42848205566406	0.10012078285217285
38	100.42939186096191	fix_pre	0		18.0	36.0	2.5	/experiments/knapen_aot/videos/R_S_wc-__wCAtivIDG3_93.mp4	0.0	160.52860283851624	0.15003204345703125
38	100.57107996940613	response	0	2		36.0	2.5	/experiments/knapen_aot/videos/R_S_wc-__wCAtivIDG3_93.mp4	0.0	160.67029094696045	
38	100.57942390441895	movie	1		168.0	36.0	2.5	/experiments/knapen_aot/videos/R_S_wc-__wCAtivIDG3_93.mp4	0.0	160.67863488197327	2.508247137069702
38	103.08767104148865	fix_post	2		12.0	36.0	2.5	/experiments/knapen_aot/videos/R_S_wc-__wCAtivIDG3_93.mp4	0.0	163.18688201904297	0.09996390342712402
39	103.18763494491577	fix_pre	0		23.0	37.0	2.5	/experiments/knapen_aot/videos/S_I003_C015_SDR_2K_AVC.mp4	0.0	163.2868459224701	0.19167709350585938
39	103.37100887298584	response	0	2		37.0	2.5	/experiments/knapen_aot/videos/S_I003_C015_SDR_2K_AVC.mp4	0.0	163.47021985054016	
39	103.37931203842163	movie	1		168.0	37.0	2.5	/experiments/knapen_aot/videos/S_I003_C015_SDR_2K_AVC.mp4	0.0	163.47852301597595	2.5084469318389893
39	105.88775897026062	fix_post	2		12.0	37.0	2.5	/experiments/knapen_aot/videos/S_I003_C015_SDR_2K_AVC.mp4	0.0	165.98696994781494	0.09990692138671875
40	105.98766589164734	fix_pre	0		20.0	38.0	2.5	/experiments/knapen_aot/videos/S_yt-sGckFFOLO30_164.mp4	0.0	166.08687686920166	0.16666197776794434
40	106.14611291885376	response	0	2		38.0	2.5	/experiments/knapen_aot/videos/S_yt-sGckFFOLO30_164.mp4	0.0	166.24532389640808	
40	106.15432786941528	movie	1		301.0	38.0	2.5	/experiments/knapen_aot/videos/S_yt-sGckFFOLO30_164.mp4	0.0	166.2535388469696	2.508526086807251
40	108.66285395622253	fix_post	2		12.0	38.0	2.5	/experiments/knapen_aot/videos/S_yt-sGckFFOLO30_164.mp4	0.0	168.76206493377686	0.0997769832611084
41	108.76263093948364	fix_pre	0		14.0	39.0	2.5	/experiments/knapen_aot/videos/S_yt-xQilXyNKsBw_42.mp4	0.0	168.86184191703796	0.11662793159484863
41	108.87104201316833	response	0	2		39.0	2.5	/experiments/knapen_aot/videos/S_yt-xQilXyNKsBw_42.mp4	0.0	168.97025299072266	
41	108.87925887107849	movie	1		301.0	39.0	2.5	/experiments/knapen_aot/videos/S_yt-xQilXyNKsBw_42.mp4	0.0	168.9784698486328	2.5083839893341064
41	111.3876428604126	fix_post	2		12.0	39.0	2.5	/experiments/knapen_aot/videos/S_yt-xQilXyNKsBw_42.mp4	0.0	171.48685383796692	0.10004520416259766
42	111.4876880645752	fix_pre	0		17.0	40.0	2.5	blank	1.0	171.58689904212952	0.14152288436889648
42	111.6210298538208	response	0	2		40.0	2.5	blank	1.0	171.72024083137512	
42	111.62921094894409	movie	1		301.0	40.0	2.5	blank	1.0	171.7284219264984	2.5084171295166016
42	114.1376280784607	fix_post	2		12.0	40.0	2.5	blank	1.0	174.23683905601501	0.10019779205322266
43	114.23782587051392	fix_pre	0		24.0	41.0	2.5	/experiments/knapen_aot/videos/R_S_pexels-ekaterina-bolovtsova-7669220.mp4	0.0	174.33703684806824	0.19981813430786133
43	114.42938685417175	response	0	2		41.0	2.5	/experiments/knapen_aot/videos/R_S_pexels-ekaterina-bolovtsova-7669220.mp4	0.0	174.52859783172607	
43	114.43764400482178	movie	1		163.0	41.0	2.5	/experiments/knapen_aot/videos/R_S_pexels-ekaterina-bolovtsova-7669220.mp4	0.0	174.5368549823761	2.5082740783691406
43	116.94591808319092	fix_post	2		12.0	41.0	2.5	/experiments/knapen_aot/videos/R_S_pexels-ekaterina-bolovtsova-7669220.mp4	0.0	177.04512906074524	0.10017776489257812
44	117.0460958480835	fix_pre	0		20.0	42.0	2.5	/experiments/knapen_aot/videos/S_yt-m8HxO_-RRq0_127.mp4	0.0	177.14530682563782	0.16646218299865723
44	117.20436692237854	response	0	2		42.0	2.5	/experiments/knapen_aot/videos/S_yt-m8HxO_-RRq0_127.mp4	0.0	177.30357789993286	
44	117.21255803108215	movie	1		301.0	42.0	2.5	/experiments/knapen_aot/videos/S_yt-m8HxO_-RRq0_127.mp4	0.0	177.31176900863647	2.5085630416870117
44	119.72112107276917	fix_post	2		12.0	42.0	2.5	/experiments/knapen_aot/videos/S_yt-m8HxO_-RRq0_127.mp4	0.0	179.8203320503235	0.09981489181518555
45	119.82093596458435	fix_pre	0		22.0	43.0	2.5	/experiments/knapen_aot/videos/R_S_pexels-rodnae-productions-5993237.mp4	0.0	179.92014694213867	0.1832420825958252
45	119.98843288421631	response	0	2		43.0	2.5	/experiments/knapen_aot/videos/R_S_pexels-rodnae-productions-5993237.mp4	0.0	180.08764386177063	
45	120.00417804718018	movie	1		161.0	43.0	2.5	/experiments/knapen_aot/videos/R_S_pexels-rodnae-productions-5993237.mp4	0.0	180.1033890247345	2.5084688663482666
45	122.51264691352844	fix_post	2		12.0	43.0	2.5	/experiments/knapen_aot/videos/R_S_pexels-rodnae-productions-5993237.mp4	0.0	182.61185789108276	0.09992313385009766
46	122.61257004737854	fix_pre	0		8.0	44.0	2.5	/experiments/knapen_aot/videos/R_S_production_ID_3944248.mp4	0.0	182.71178102493286	0.06664180755615234
46	122.6710410118103	response	0	2		44.0	2.5	/experiments/knapen_aot/videos/R_S_production_ID_3944248.mp4	0.0	182.77025198936462	
46	122.67921185493469	movie	1		193.0	44.0	2.5	/experiments/knapen_aot/videos/R_S_production_ID_3944248.mp4	0.0	182.778422832489	2.508409023284912
46	125.1876208782196	fix_post	2		12.0	44.0	2.5	/experiments/knapen_aot/videos/R_S_production_ID_3944248.mp4	0.0	185.28683185577393	0.09994006156921387
47	125.28756093978882	fix_pre	0		10.0	45.0	2.5	/experiments/knapen_aot/videos/R_S_yt-BW6jWEVbxxk_4.mp4	0.0	185.38677191734314	0.08335208892822266
47	125.3627700805664	response	0	2		45.0	2.5	/experiments/knapen_aot/videos/R_S_yt-BW6jWEVbxxk_4.mp4	0.0	185.46198105812073	
47	125.37091302871704	movie	1		301.0	45.0	2.5	/experiments/knapen_aot/videos/R_S_yt-BW6jWEVbxxk_4.mp4	0.0	185.47012400627136	2.5083048343658447
47	127.87921786308289	fix_post	2		12.0	45.0	2.5	/experiments/knapen_aot/videos/R_S_yt-BW6jWEVbxxk_4.mp4	0.0	187.9784288406372	0.09994316101074219
48	127.97916102409363	fix_pre	0		17.0	46.0	2.5	/experiments/knapen_aot/videos/S_gX_VbZnZO0k_13.mp4	0.0	188.07837200164795	0.14173102378845215
48	128.11271286010742	response	0	2		46.0	2.5	/experiments/knapen_aot/videos/S_gX_VbZnZO0k_13.mp4	0.0	188.21192383766174	
48	128.12089204788208	movie	1		301.0	46.0	2.5	/experiments/knapen_aot/videos/S_gX_VbZnZO0k_13.mp4	0.0	188.2201030254364	2.5084638595581055
48	130.62935590744019	fix_post	2		12.0	46.0	2.5	/experiments/knapen_aot/videos/S_gX_VbZnZO0k_13.mp4	0.0	190.7285668849945	0.09988713264465332
49	130.72924304008484	fix_pre	0		27.0	47.0	2.5	/experiments/knapen_aot/videos/R_S_yt-SS7pSyb0_d0_32.mp4	0.0	190.82845401763916	0.2249448299407959
49	130.94592595100403	response	0	2		47.0	2.5	/experiments/knapen_aot/videos/R_S_yt-SS7pSyb0_d0_32.mp4	0.0	191.04513692855835	
49	130.95418787002563	movie	1		301.0	47.0	2.5	/experiments/knapen_aot/videos/R_S_yt-SS7pSyb0_d0_32.mp4	0.0	191.05339884757996	2.5083420276641846
49	133.46252989768982	fix_post	2		12.0	47.0	2.5	/experiments/knapen_aot/videos/R_S_yt-SS7pSyb0_d0_32.mp4	0.0	193.56174087524414	0.09993505477905273
50	133.56246495246887	fix_pre	0		23.0	48.0	2.5	/experiments/knapen_aot/videos/R_S_yt-H3EadcgKySM_58.mp4	0.0	193.6616759300232	0.19169902801513672
50	133.7458689212799	response	0	2		48.0	2.5	/experiments/knapen_aot/videos/R_S_yt-H3EadcgKySM_58.mp4	0.0	193.84507989883423	
50	133.754163980484	movie	1		301.0	48.0	2.5	/experiments/knapen_aot/videos/R_S_yt-H3EadcgKySM_58.mp4	0.0	193.85337495803833	2.5085740089416504
50	136.26273798942566	fix_post	2		12.0	48.0	2.5	/experiments/knapen_aot/videos/R_S_yt-H3EadcgKySM_58.mp4	0.0	196.36194896697998	0.09979391098022461
51	136.36253190040588	fix_pre	0		35.0	49.0	2.5	blank	1.0	196.4617428779602	0.29159116744995117
51	136.64596605300903	response	0	2		49.0	2.5	blank	1.0	196.74517703056335	
51	136.65412306785583	movie	1		301.0	49.0	2.5	blank	1.0	196.75333404541016	2.508366823196411
51	139.16248989105225	fix_post	2		12.0	49.0	2.5	blank	1.0	199.26170086860657	0.10004806518554688
52	139.2625379562378	fix_pre	0		25.0	50.0	2.5	/experiments/knapen_aot/videos/S_wc-rs31_SV1Opy__6.mp4	0.0	199.36174893379211	0.2082529067993164
52	139.462504863739	response	0	2		50.0	2.5	/experiments/knapen_aot/videos/S_wc-rs31_SV1Opy__6.mp4	0.0	199.56171584129333	
52	139.4707908630371	movie	1		169.0	50.0	2.5	/experiments/knapen_aot/videos/S_wc-rs31_SV1Opy__6.mp4	0.0	199.57000184059143	2.508350133895874
52	141.97914099693298	fix_post	2		12.0	50.0	2.5	/experiments/knapen_aot/videos/S_wc-rs31_SV1Opy__6.mp4	0.0	202.0783519744873	0.1001138687133789
53	142.07925486564636	fix_pre	0		24.0	51.0	2.5	/experiments/knapen_aot/videos/S_yt-cgwHIb9LAFc_336.mp4	0.0	202.17846584320068	0.19988608360290527
53	142.27089405059814	response	0	2		51.0	2.5	/experiments/knapen_aot/videos/S_yt-cgwHIb9LAFc_336.mp4	0.0	202.37010502815247	
53	142.27914094924927	movie	1		301.0	51.0	2.5	/experiments/knapen_aot/videos/S_yt-cgwHIb9LAFc_336.mp4	0.0	202.3783519268036	2.5083351135253906
53	144.78747606277466	fix_post	2		12.0	51.0	2.5	/experiments/knapen_aot/videos/S_yt-cgwHIb9LAFc_336.mp4	0.0	204.88668704032898	0.09997200965881348
54	144.88744807243347	fix_pre	0		14.0	52.0	2.5	/experiments/knapen_aot/videos/R_S_yt-4wjGeLyvfjY_223.mp4	0.0	204.9866590499878	0.11780381202697754
54	144.9958848953247	response	0	2		52.0	2.5	/experiments/knapen_aot/videos/R_S_yt-4wjGeLyvfjY_223.mp4	0.0	205.09509587287903	
54	145.00525188446045	movie	1		301.0	52.0	2.5	/experiments/knapen_aot/videos/R_S_yt-4wjGeLyvfjY_223.mp4	0.0	205.10446286201477	2.507261037826538
54	147.512512922287	fix_post	2		12.0	52.0	2.5	/experiments/knapen_aot/videos/R_S_yt-4wjGeLyvfjY_223.mp4	0.0	207.6117238998413	0.0999600887298584
55	147.61247301101685	fix_pre	0		9.0	53.0	2.5	/experiments/knapen_aot/videos/S_yt-aiWUhl8MCto_71.mp4	0.0	207.71168398857117	0.07492804527282715
55	147.6717209815979	response	0	2		53.0	2.5	/experiments/knapen_aot/videos/S_yt-aiWUhl8MCto_71.mp4	0.0	207.77093195915222	
55	147.68740105628967	movie	1		301.0	53.0	2.5	/experiments/knapen_aot/videos/S_yt-aiWUhl8MCto_71.mp4	0.0	207.786612033844	2.5083189010620117
55	150.19571995735168	fix_post	2		12.0	53.0	2.5	/experiments/knapen_aot/videos/S_yt-aiWUhl8MCto_71.mp4	0.0	210.294930934906	0.10010004043579102
56	150.29581999778748	fix_pre	0		27.0	54.0	2.5	/experiments/knapen_aot/videos/R_S_yt-OFbbvxTLrtM_132.mp4	0.0	210.3950309753418	0.22492289543151855
56	150.51256704330444	response	0	2		54.0	2.5	/experiments/knapen_aot/videos/R_S_yt-OFbbvxTLrtM_132.mp4	0.0	210.61177802085876	
56	150.520742893219	movie	1		301.0	54.0	2.5	/experiments/knapen_aot/videos/R_S_yt-OFbbvxTLrtM_132.mp4	0.0	210.61995387077332	2.5083789825439453
56	153.02912187576294	fix_post	2		12.0	54.0	2.5	/experiments/knapen_aot/videos/R_S_yt-OFbbvxTLrtM_132.mp4	0.0	213.12833285331726	0.0999600887298584
57	153.1290819644928	fix_pre	0		21.0	55.0	2.5	blank	1.0	213.22829294204712	0.17517590522766113
57	153.29587197303772	response	0	2		55.0	2.5	blank	1.0	213.39508295059204	
57	153.30425786972046	movie	1		301.0	55.0	2.5	blank	1.0	213.40346884727478	2.508390188217163
57	155.81264805793762	fix_post	2		12.0	55.0	2.5	blank	1.0	215.91185903549194	0.09981393814086914
58	155.9124619960785	fix_pre	0		13.0	56.0	2.5	/experiments/knapen_aot/videos/R_S_ILSVRC2015_train_00497001.mp4	0.0	216.0116729736328	0.10829806327819824
58	156.01253199577332	response	0	2		56.0	2.5	/experiments/knapen_aot/videos/R_S_ILSVRC2015_train_00497001.mp4	0.0	216.11174297332764	
58	156.0207600593567	movie	1		301.0	56.0	2.5	/experiments/knapen_aot/videos/R_S_ILSVRC2015_train_00497001.mp4	0.0	216.119971036911	2.50832200050354
58	158.52908205986023	fix_post	2		12.0	56.0	2.5	/experiments/knapen_aot/videos/R_S_ILSVRC2015_train_00497001.mp4	0.0	218.62829303741455	0.10001778602600098
59	158.62909984588623	fix_pre	0		2.0	57.0	2.5	/experiments/knapen_aot/videos/R_S_ILSVRC2015_train_00165009.mp4	0.0	218.72831082344055	0.016584157943725586
59	158.6375150680542	response	0	2		57.0	2.5	/experiments/knapen_aot/videos/R_S_ILSVRC2015_train_00165009.mp4	0.0	218.73672604560852	
59	158.64568400382996	movie	1		301.0	57.0	2.5	/experiments/knapen_aot/videos/R_S_ILSVRC2015_train_00165009.mp4	0.0	218.74489498138428	2.5084118843078613
59	161.15409588813782	fix_post	2		12.0	57.0	2.5	/experiments/knapen_aot/videos/R_S_ILSVRC2015_train_00165009.mp4	0.0	221.25330686569214	0.09995198249816895
60	161.254047870636	fix_pre	0		7.0	58.0	2.5	/experiments/knapen_aot/videos/R_S_yt-sGckFFOLO30_164.mp4	0.0	221.3532588481903	0.058344125747680664
60	161.3041808605194	response	0	2		58.0	2.5	/experiments/knapen_aot/videos/R_S_yt-sGckFFOLO30_164.mp4	0.0	221.40339183807373	
60	161.31239199638367	movie	1		301.0	58.0	2.5	/experiments/knapen_aot/videos/R_S_yt-sGckFFOLO30_164.mp4	0.0	221.411602973938	2.508341073989868
60	163.82073307037354	fix_post	2		12.0	58.0	2.5	/experiments/knapen_aot/videos/R_S_yt-sGckFFOLO30_164.mp4	0.0	223.91994404792786	0.09997677803039551
61	163.92070984840393	fix_pre	0		8.0	59.0	2.5	/experiments/knapen_aot/videos/R_S_yt-PYP0fEQ357c_89.mp4	0.0	224.01992082595825	0.06667518615722656
61	163.97909307479858	response	0	2		59.0	2.5	/experiments/knapen_aot/videos/R_S_yt-PYP0fEQ357c_89.mp4	0.0	224.0783040523529	
61	163.98738503456116	movie	1		301.0	59.0	2.5	/experiments/knapen_aot/videos/R_S_yt-PYP0fEQ357c_89.mp4	0.0	224.08659601211548	2.5086159706115723
61	166.49600100517273	fix_post	2		12.0	59.0	2.5	/experiments/knapen_aot/videos/R_S_yt-PYP0fEQ357c_89.mp4	0.0	226.59521198272705	0.09972500801086426
62	166.5957260131836	fix_pre	0		16.0	60.0	2.5	/experiments/knapen_aot/videos/S_b8-2.mp4	0.0	226.69493699073792	0.13331198692321777
62	166.72081685066223	response	0	2		60.0	2.5	/experiments/knapen_aot/videos/S_b8-2.mp4	0.0	226.82002782821655	
62	166.7290380001068	movie	1		174.0	60.0	2.5	/experiments/knapen_aot/videos/S_b8-2.mp4	0.0	226.82824897766113	2.508314847946167
62	169.23735284805298	fix_post	2		12.0	60.0	2.5	/experiments/knapen_aot/videos/S_b8-2.mp4	0.0	229.3365638256073	0.10002803802490234
63	169.33738088607788	fix_pre	0		23.0	61.0	2.5	/experiments/knapen_aot/videos/S_ILSVRC2015_train_00743000.mp4	0.0	229.4365918636322	0.1916191577911377
63	169.52083492279053	response	0	2		61.0	2.5	/experiments/knapen_aot/videos/S_ILSVRC2015_train_00743000.mp4	0.0	229.62004590034485	
63	169.52900004386902	movie	1		301.0	61.0	2.5	/experiments/knapen_aot/videos/S_ILSVRC2015_train_00743000.mp4	0.0	229.62821102142334	2.5084099769592285
63	172.03741002082825	fix_post	2		12.0	61.0	2.5	/experiments/knapen_aot/videos/S_ILSVRC2015_train_00743000.mp4	0.0	232.13662099838257	0.09995198249816895
64	172.13736200332642	fix_pre	0		17.0	62.0	2.5	/experiments/knapen_aot/videos/S_ILSVRC2015_train_00479001.mp4	0.0	232.23657298088074	0.14155888557434082
64	172.27073192596436	response	0	2		62.0	2.5	/experiments/knapen_aot/videos/S_ILSVRC2015_train_00479001.mp4	0.0	232.36994290351868	
64	172.27892088890076	movie	1		301.0	62.0	2.5	/experiments/knapen_aot/videos/S_ILSVRC2015_train_00479001.mp4	0.0	232.37813186645508	2.508402109146118
64	174.78732299804688	fix_post	2		12.0	62.0	2.5	/experiments/knapen_aot/videos/S_ILSVRC2015_train_00479001.mp4	0.0	234.8865339756012	0.10023689270019531
65	174.88755989074707	fix_pre	0		31.0	63.0	2.5	blank	1.0	234.9867708683014	0.2580549716949463
65	175.12988591194153	response	0	2		63.0	2.5	blank	1.0	235.22909688949585	
65	175.14561486244202	movie	1		301.0	63.0	2.5	blank	1.0	235.24482583999634	2.5083510875701904
65	177.6539659500122	fix_post	2		12.0	63.0	2.5	blank	1.0	237.75317692756653	0.10005593299865723
66	177.75402188301086	fix_pre	0		22.0	64.0	2.5	/experiments/knapen_aot/videos/R_S_wc-__wCAtivIDG3_93.mp4	0.0	237.85323286056519	0.1832871437072754
66	177.92909693717957	response	0	2		64.0	2.5	/experiments/knapen_aot/videos/R_S_wc-__wCAtivIDG3_93.mp4	0.0	238.0283079147339	
66	177.93730902671814	movie	1		166.0	64.0	2.5	/experiments/knapen_aot/videos/R_S_wc-__wCAtivIDG3_93.mp4	0.0	238.03652000427246	2.5082998275756836
66	180.44560885429382	fix_post	2		12.0	64.0	2.5	/experiments/knapen_aot/videos/R_S_wc-__wCAtivIDG3_93.mp4	0.0	240.54481983184814	0.09998512268066406
67	180.5455939769745	fix_pre	0		10.0	65.0	2.5	/experiments/knapen_aot/videos/S_yt-QJ2k6vA8aco_12.mp4	0.0	240.6448049545288	0.08437204360961914
67	180.62071299552917	response	0	2		65.0	2.5	/experiments/knapen_aot/videos/S_yt-QJ2k6vA8aco_12.mp4	0.0	240.7199239730835	
67	180.6299660205841	movie	1		301.0	65.0	2.5	/experiments/knapen_aot/videos/S_yt-QJ2k6vA8aco_12.mp4	0.0	240.72917699813843	2.5073399543762207
67	183.13730597496033	fix_post	2		12.0	65.0	2.5	/experiments/knapen_aot/videos/S_yt-QJ2k6vA8aco_12.mp4	0.0	243.23651695251465	0.09998488426208496
68	183.2372908592224	fix_pre	0		22.0	66.0	2.5	/experiments/knapen_aot/videos/S_yt-K7viJXt9vX8_143.mp4	0.0	243.33650183677673	0.18435907363891602
68	183.41237688064575	response	0	2		66.0	2.5	/experiments/knapen_aot/videos/S_yt-K7viJXt9vX8_143.mp4	0.0	243.51158785820007	
68	183.42164993286133	movie	1		301.0	66.0	2.5	/experiments/knapen_aot/videos/S_yt-K7viJXt9vX8_143.mp4	0.0	243.52086091041565	2.5073330402374268
68	185.92898297309875	fix_post	2		12.0	66.0	2.5	/experiments/knapen_aot/videos/S_yt-K7viJXt9vX8_143.mp4	0.0	246.02819395065308	0.09995198249816895
69	186.02893495559692	fix_pre	0		18.0	67.0	2.5	/experiments/knapen_aot/videos/S_yt-o0Hbe7kcPps_70.mp4	0.0	246.12814593315125	0.15001797676086426
69	186.1706039905548	response	0	2		67.0	2.5	/experiments/knapen_aot/videos/S_yt-o0Hbe7kcPps_70.mp4	0.0	246.26981496810913	
69	186.1789529323578	movie	1		301.0	67.0	2.5	/experiments/knapen_aot/videos/S_yt-o0Hbe7kcPps_70.mp4	0.0	246.2781639099121	2.5083160400390625
69	188.68726897239685	fix_post	2		12.0	67.0	2.5	/experiments/knapen_aot/videos/S_yt-o0Hbe7kcPps_70.mp4	0.0	248.78647994995117	0.100006103515625
70	188.78727507591248	fix_pre	0		33.0	68.0	2.5	blank	1.0	248.8864860534668	0.27492594718933105
70	189.054053068161	response	0	2		68.0	2.5	blank	1.0	249.15326404571533	
70	189.0622010231018	movie	1		301.0	68.0	2.5	blank	1.0	249.16141200065613	2.5083658695220947
70	191.5705668926239	fix_post	2		12.0	68.0	2.5	blank	1.0	251.66977787017822	0.10002708435058594
71	191.6705939769745	fix_pre	0		25.0	69.0	2.5	/experiments/knapen_aot/videos/S_pexels-kampus-production-5991896.mp4	0.0	251.7698049545288	0.2092909812927246
71	191.8706920146942	response	0	2		69.0	2.5	/experiments/knapen_aot/videos/S_pexels-kampus-production-5991896.mp4	0.0	251.96990299224854	
71	191.8798849582672	movie	1		164.0	69.0	2.5	/experiments/knapen_aot/videos/S_pexels-kampus-production-5991896.mp4	0.0	251.97909593582153	2.5074009895324707
71	194.38728594779968	fix_post	2		12.0	69.0	2.5	/experiments/knapen_aot/videos/S_pexels-kampus-production-5991896.mp4	0.0	254.486496925354	0.09995198249816895
72	194.48723793029785	fix_pre	0		9.0	70.0	2.5	/experiments/knapen_aot/videos/S_yt--jzScB82vKI_212.mp4	0.0	254.58644890785217	0.07498002052307129
72	194.55404496192932	response	0	2		70.0	2.5	/experiments/knapen_aot/videos/S_yt--jzScB82vKI_212.mp4	0.0	254.65325593948364	
72	194.56221795082092	movie	1		301.0	70.0	2.5	/experiments/knapen_aot/videos/S_yt--jzScB82vKI_212.mp4	0.0	254.66142892837524	2.508362054824829
72	197.07058000564575	fix_post	2		12.0	70.0	2.5	/experiments/knapen_aot/videos/S_yt--jzScB82vKI_212.mp4	0.0	257.1697909832001	0.09998798370361328
73	197.17056798934937	fix_pre	0		26.0	71.0	2.5	/experiments/knapen_aot/videos/R_S_g201_TH_804_A001_8_SDR_20191031_SDR_2K_AVC.mp4	0.0	257.2697789669037	0.21655988693237305
73	197.37902998924255	response	0	2		71.0	2.5	/experiments/knapen_aot/videos/R_S_g201_TH_804_A001_8_SDR_20191031_SDR_2K_AVC.mp4	0.0	257.4782409667969	
73	197.38712787628174	movie	1		165.0	71.0	2.5	/experiments/knapen_aot/videos/R_S_g201_TH_804_A001_8_SDR_20191031_SDR_2K_AVC.mp4	0.0	257.48633885383606	2.508411169052124
73	199.89553904533386	fix_post	2		12.0	71.0	2.5	/experiments/knapen_aot/videos/R_S_g201_TH_804_A001_8_SDR_20191031_SDR_2K_AVC.mp4	0.0	259.9947500228882	0.09997200965881348
74	199.99551105499268	fix_pre	0		11.0	72.0	2.5	/experiments/knapen_aot/videos/R_S_yt-fnE8kgUHUMI_64.mp4	0.0	260.094722032547	0.09255099296569824
74	200.07897305488586	response	0	2		72.0	2.5	/experiments/knapen_aot/videos/R_S_yt-fnE8kgUHUMI_64.mp4	0.0	260.1781840324402	
74	200.08806204795837	movie	1		301.0	72.0	2.5	/experiments/knapen_aot/videos/R_S_yt-fnE8kgUHUMI_64.mp4	0.0	260.1872730255127	2.507443904876709
74	202.59550595283508	fix_post	2		12.0	72.0	2.5	/experiments/knapen_aot/videos/R_S_yt-fnE8kgUHUMI_64.mp4	0.0	262.6947169303894	0.10006403923034668
75	202.69556999206543	fix_pre	0		26.0	73.0	2.5	/experiments/knapen_aot/videos/S_yt-BW6jWEVbxxk_4.mp4	0.0	262.79478096961975	0.21661806106567383
75	202.90400195121765	response	0	2		73.0	2.5	/experiments/knapen_aot/videos/S_yt-BW6jWEVbxxk_4.mp4	0.0	263.003212928772	
75	202.9121880531311	movie	1		301.0	73.0	2.5	/experiments/knapen_aot/videos/S_yt-BW6jWEVbxxk_4.mp4	0.0	263.0113990306854	2.5084288120269775
75	205.42061686515808	fix_post	2		12.0	73.0	2.5	/experiments/knapen_aot/videos/S_yt-BW6jWEVbxxk_4.mp4	0.0	265.5198278427124	0.09994721412658691
76	205.52056407928467	fix_pre	0		11.0	74.0	2.5	/experiments/knapen_aot/videos/R_S_yt-gOoDjhfSPj0_162.mp4	0.0	265.619775056839	0.09172797203063965
76	205.59638905525208	response	0	2		74.0	2.5	/experiments/knapen_aot/videos/R_S_yt-gOoDjhfSPj0_162.mp4	0.0	265.6956000328064	
76	205.6122920513153	movie	1		301.0	74.0	2.5	/experiments/knapen_aot/videos/R_S_yt-gOoDjhfSPj0_162.mp4	0.0	265.71150302886963	2.508201837539673
76	208.12049388885498	fix_post	2		12.0	74.0	2.5	/experiments/knapen_aot/videos/R_S_yt-gOoDjhfSPj0_162.mp4	0.0	268.2197048664093	0.10000014305114746
77	208.22049403190613	fix_pre	0		19.0	75.0	2.5	blank	1.0	268.31970500946045	0.15961790084838867
77	208.37060403823853	response	0	2		75.0	2.5	blank	1.0	268.46981501579285	
77	208.38011193275452	movie	1		301.0	75.0	2.5	blank	1.0	268.47932291030884	2.5070860385894775
77	210.887197971344	fix_post	2		12.0	75.0	2.5	blank	1.0	270.9864089488983	0.100006103515625
78	210.98720407485962	fix_pre	0		15.0	76.0	2.5	/experiments/knapen_aot/videos/R_S_yt--jzScB82vKI_212.mp4	0.0	271.08641505241394	0.12492179870605469
78	211.10397791862488	response	0	2		76.0	2.5	/experiments/knapen_aot/videos/R_S_yt--jzScB82vKI_212.mp4	0.0	271.2031888961792	
78	211.11212587356567	movie	1		301.0	76.0	2.5	/experiments/knapen_aot/videos/R_S_yt--jzScB82vKI_212.mp4	0.0	271.21133685112	2.508342981338501
78	213.62046885490417	fix_post	2		12.0	76.0	2.5	/experiments/knapen_aot/videos/R_S_yt--jzScB82vKI_212.mp4	0.0	273.7196798324585	0.10002303123474121
79	213.72049188613892	fix_pre	0		1.0	77.0	2.5	/experiments/knapen_aot/videos/R_S_production_ID_4101309.mp4	0.0	273.81970286369324	0.013303041458129883
79	213.72216987609863	response	0	2		77.0	2.5	/experiments/knapen_aot/videos/R_S_production_ID_4101309.mp4	0.0	273.82138085365295	
79	213.73379492759705	movie	1		195.0	77.0	2.5	/experiments/knapen_aot/videos/R_S_production_ID_4101309.mp4	0.0	273.83300590515137	2.503396987915039
79	216.23719191551208	fix_post	2		12.0	77.0	2.5	/experiments/knapen_aot/videos/R_S_production_ID_4101309.mp4	0.0	276.3364028930664	0.0999760627746582
80	216.33716797828674	fix_pre	0		12.0	78.0	2.5	/experiments/knapen_aot/videos/R_S_pexels-sora-shimazaki-5925295.mp4	0.0	276.43637895584106	0.09999489784240723
80	216.4288399219513	response	0	2		78.0	2.5	/experiments/knapen_aot/videos/R_S_pexels-sora-shimazaki-5925295.mp4	0.0	276.5280508995056	
80	216.43716287612915	movie	1		165.0	78.0	2.5	/experiments/knapen_aot/videos/R_S_pexels-sora-shimazaki-5925295.mp4	0.0	276.5363738536835	2.508316993713379
80	218.94547986984253	fix_post	2		12.0	78.0	2.5	/experiments/knapen_aot/videos/R_S_pexels-sora-shimazaki-5925295.mp4	0.0	279.04469084739685	0.1000211238861084
81	219.04550099372864	fix_pre	0		18.0	79.0	2.5	/experiments/knapen_aot/videos/R_S_yt_R-lST38EdfMMQ_5.mp4	0.0	279.14471197128296	0.14994001388549805
81	219.18726301193237	response	0	2		79.0	2.5	/experiments/knapen_aot/videos/R_S_yt_R-lST38EdfMMQ_5.mp4	0.0	279.2864739894867	
81	219.19544100761414	movie	1		301.0	79.0	2.5	/experiments/knapen_aot/videos/R_S_yt_R-lST38EdfMMQ_5.mp4	0.0	279.29465198516846	2.508349895477295
81	221.70379090309143	fix_post	2		12.0	79.0	2.5	/experiments/knapen_aot/videos/R_S_yt_R-lST38EdfMMQ_5.mp4	0.0	281.80300188064575	0.0999901294708252
82	221.80378103256226	fix_pre	0		18.0	80.0	2.5	/experiments/knapen_aot/videos/S_ILSVRC2015_train_00444000.mp4	0.0	281.9029920101166	0.14993882179260254
82	221.94552206993103	response	0	2		80.0	2.5	/experiments/knapen_aot/videos/S_ILSVRC2015_train_00444000.mp4	0.0	282.04473304748535	
82	221.95371985435486	movie	1		301.0	80.0	2.5	/experiments/knapen_aot/videos/S_ILSVRC2015_train_00444000.mp4	0.0	282.0529308319092	2.508397102355957
82	224.46211695671082	fix_post	2		12.0	80.0	2.5	/experiments/knapen_aot/videos/S_ILSVRC2015_train_00444000.mp4	0.0	284.56132793426514	0.10000991821289062
82	224.53797602653503	response	2	2		80.0	2.5	/experiments/knapen_aot/videos/S_ILSVRC2015_train_00444000.mp4	0.0	284.63718700408936	
83	224.5621268749237	fix_pre	0		35.0	81.0	2.5	/experiments/knapen_aot/videos/S_AK_A004_C012_SDR_20191217_SDR_2K_AVC.mp4	0.0	284.661337852478	0.291640043258667
83	224.8455400466919	response	0	2		81.0	2.5	/experiments/knapen_aot/videos/S_AK_A004_C012_SDR_20191217_SDR_2K_AVC.mp4	0.0	284.9447510242462	
83	224.85376691818237	movie	1		166.0	81.0	2.5	/experiments/knapen_aot/videos/S_AK_A004_C012_SDR_20191217_SDR_2K_AVC.mp4	0.0	284.9529778957367	2.5083389282226562
83	227.36210584640503	fix_post	2		12.0	81.0	2.5	/experiments/knapen_aot/videos/S_AK_A004_C012_SDR_20191217_SDR_2K_AVC.mp4	0.0	287.46131682395935	0.09994316101074219
84	227.46204900741577	fix_pre	0		18.0	82.0	2.5	/experiments/knapen_aot/videos/R_S_pexels-sora-shimazaki-5925295.mp4	0.0	287.5612599849701	0.15008091926574707
84	227.6038908958435	response	0	2		82.0	2.5	/experiments/knapen_aot/videos/R_S_pexels-sora-shimazaki-5925295.mp4	0.0	287.7031018733978	
84	227.61212992668152	movie	1		166.0	82.0	2.5	/experiments/knapen_aot/videos/R_S_pexels-sora-shimazaki-5925295.mp4	0.0	287.71134090423584	2.5082900524139404
84	230.12041997909546	fix_post	2		12.0	82.0	2.5	/experiments/knapen_aot/videos/R_S_pexels-sora-shimazaki-5925295.mp4	0.0	290.2196309566498	0.10003900527954102
85	230.220458984375	fix_pre	0		6.0	83.0	2.5	blank	1.0	290.3196699619293	0.049880027770996094
85	230.2622950077057	response	0	2		83.0	2.5	blank	1.0	290.36150598526	
85	230.270339012146	movie	1		301.0	83.0	2.5	blank	1.0	290.3695499897003	2.508352041244507
85	232.7786910533905	fix_post	2		12.0	83.0	2.5	blank	1.0	292.8779020309448	0.10009193420410156
87	232.8787829875946	stim	0		76.0					292.9779939651489	0.6331770420074463
87	233.50716400146484	response	0	space						293.60637497901917	
