trial_nr	onset	event_type	phase	response	nr_frames	movie_index	movie_duration	movie_file	blank	onset_abs	duration
0	0.12772202491760254	stim	0		70.0					60.02438998222351	0.583482027053833
0	0.7000770568847656	response	0	space						60.596745014190674	
1	0.7112040519714355	stim	0		121.0					60.607872009277344	1.0052478313446045
1	1.341444969177246	response	0	space						61.238112926483154	
1	1.71645188331604	stim	1		120.0					61.61311984062195	0.9998581409454346
1	1.8164830207824707	response	1	space						61.71315097808838	
1	2.349752902984619	response	1	space						62.24642086029053	
2	2.7163100242614746	fix_pre	0		30.0	0.0	2.5	/experiments/knapen_aot/videos/S_yt-kXarkCFJLeg_46.mp4	0.0	62.61297798156738	0.25143885612487793
2	2.95815110206604	response	0	space		0.0	2.5	/experiments/knapen_aot/videos/S_yt-kXarkCFJLeg_46.mp4	0.0	62.85481905937195	
2	2.9677488803863525	movie	1		300.0	0.0	2.5	/experiments/knapen_aot/videos/S_yt-kXarkCFJLeg_46.mp4	0.0	62.86441683769226	2.506946086883545
2	5.377647876739502	response	1	2		0.0	2.5	/experiments/knapen_aot/videos/S_yt-kXarkCFJLeg_46.mp4	0.0	65.27431583404541	
2	5.4746949672698975	fix_post	2		12.0	0.0	2.5	/experiments/knapen_aot/videos/S_yt-kXarkCFJLeg_46.mp4	0.0	65.3713629245758	0.10003209114074707
3	5.5747270584106445	fix_pre	0		39.0	1.0	2.5	/experiments/knapen_aot/videos/S_CR_A009_C007_SDR_20191113_SDR_2K_AVC.mp4	0.0	65.47139501571655	0.3248929977416992
3	5.891412973403931	response	0	2		1.0	2.5	/experiments/knapen_aot/videos/S_CR_A009_C007_SDR_20191113_SDR_2K_AVC.mp4	0.0	65.78808093070984	
3	5.899620056152344	movie	1		163.0	1.0	2.5	/experiments/knapen_aot/videos/S_CR_A009_C007_SDR_20191113_SDR_2K_AVC.mp4	0.0	65.79628801345825	2.5084378719329834
3	8.408057928085327	fix_post	2		12.0	1.0	2.5	/experiments/knapen_aot/videos/S_CR_A009_C007_SDR_20191113_SDR_2K_AVC.mp4	0.0	68.30472588539124	0.09995508193969727
4	8.508013010025024	fix_pre	0		45.0	2.0	2.5	/experiments/knapen_aot/videos/R_S_bing-www_dailymotion_com_video_x64c56w_164.mp4	0.0	68.40468096733093	0.37487292289733887
4	8.874803066253662	response	0	2		2.0	2.5	/experiments/knapen_aot/videos/R_S_bing-www_dailymotion_com_video_x64c56w_164.mp4	0.0	68.77147102355957	
4	8.882885932922363	movie	1		171.0	2.0	2.5	/experiments/knapen_aot/videos/R_S_bing-www_dailymotion_com_video_x64c56w_164.mp4	0.0	68.77955389022827	2.508553981781006
4	11.39143991470337	fix_post	2		12.0	2.0	2.5	/experiments/knapen_aot/videos/R_S_bing-www_dailymotion_com_video_x64c56w_164.mp4	0.0	71.28810787200928	0.09987497329711914
5	11.491314888000488	fix_pre	0		14.0	3.0	2.5	/experiments/knapen_aot/videos/R_S_yt-p0buJEEKeuI_61.mp4	0.0	71.3879828453064	0.11664915084838867
5	11.599692106246948	response	0	2		3.0	2.5	/experiments/knapen_aot/videos/R_S_yt-p0buJEEKeuI_61.mp4	0.0	71.49636006355286	
5	11.607964038848877	movie	1		301.0	3.0	2.5	/experiments/knapen_aot/videos/R_S_yt-p0buJEEKeuI_61.mp4	0.0	71.50463199615479	2.5083670616149902
5	14.116331100463867	fix_post	2		12.0	3.0	2.5	/experiments/knapen_aot/videos/R_S_yt-p0buJEEKeuI_61.mp4	0.0	74.01299905776978	0.10004687309265137
6	14.216377973556519	fix_pre	0		35.0	4.0	2.5	/experiments/knapen_aot/videos/R_S_yt-mL3MuCfKtdY_79.mp4	0.0	74.11304593086243	0.29161691665649414
6	14.499788999557495	response	0	2		4.0	2.5	/experiments/knapen_aot/videos/R_S_yt-mL3MuCfKtdY_79.mp4	0.0	74.3964569568634	
6	14.507994890213013	movie	1		301.0	4.0	2.5	/experiments/knapen_aot/videos/R_S_yt-mL3MuCfKtdY_79.mp4	0.0	74.40466284751892	2.5083060264587402
6	17.016300916671753	fix_post	2		12.0	4.0	2.5	/experiments/knapen_aot/videos/R_S_yt-mL3MuCfKtdY_79.mp4	0.0	76.91296887397766	0.09996914863586426
7	17.116270065307617	fix_pre	0		46.0	5.0	2.5	/experiments/knapen_aot/videos/R_S_yt--v_iMUMMX6g_39.mp4	0.0	77.01293802261353	0.38324403762817383
7	17.491393089294434	response	0	2		5.0	2.5	/experiments/knapen_aot/videos/R_S_yt--v_iMUMMX6g_39.mp4	0.0	77.38806104660034	
7	17.49951410293579	movie	1		301.0	5.0	2.5	/experiments/knapen_aot/videos/R_S_yt--v_iMUMMX6g_39.mp4	0.0	77.3961820602417	2.508664846420288
7	20.00817894935608	fix_post	2		12.0	5.0	2.5	/experiments/knapen_aot/videos/R_S_yt--v_iMUMMX6g_39.mp4	0.0	79.90484690666199	0.09976696968078613
8	20.107945919036865	fix_pre	0		24.0	6.0	2.5	/experiments/knapen_aot/videos/S_ILSVRC2015_train_00371010.mp4	0.0	80.00461387634277	0.19995617866516113
8	20.299681901931763	response	0	2		6.0	2.5	/experiments/knapen_aot/videos/S_ILSVRC2015_train_00371010.mp4	0.0	80.19634985923767	
8	20.307902097702026	movie	1		301.0	6.0	2.5	/experiments/knapen_aot/videos/S_ILSVRC2015_train_00371010.mp4	0.0	80.20457005500793	2.5084009170532227
8	22.81630301475525	fix_post	2		12.0	6.0	2.5	/experiments/knapen_aot/videos/S_ILSVRC2015_train_00371010.mp4	0.0	82.71297097206116	0.10001301765441895
9	22.916316032409668	fix_pre	0		22.0	7.0	2.5	blank	1.0	82.81298398971558	0.1832718849182129
9	23.08384108543396	response	0	2		7.0	2.5	blank	1.0	82.98050904273987	
9	23.09958791732788	movie	1		301.0	7.0	2.5	blank	1.0	82.99625587463379	2.508355140686035
9	24.982990980148315	response	1	2		7.0	2.5	blank	1.0	84.87965893745422	
9	25.607943058013916	fix_post	2		12.0	7.0	2.5	blank	1.0	85.50461101531982	0.09992790222167969
10	25.707870960235596	fix_pre	0		36.0	8.0	2.5	/experiments/knapen_aot/videos/S_yt-4sSV4iIs8gQ_55.mp4	0.0	85.6045389175415	0.3000359535217285
10	25.992158889770508	response	0	2		8.0	2.5	/experiments/knapen_aot/videos/S_yt-4sSV4iIs8gQ_55.mp4	0.0	85.88882684707642	
10	26.007906913757324	movie	1		301.0	8.0	2.5	/experiments/knapen_aot/videos/S_yt-4sSV4iIs8gQ_55.mp4	0.0	85.90457487106323	2.5083470344543457
10	28.51625394821167	fix_post	2		12.0	8.0	2.5	/experiments/knapen_aot/videos/S_yt-4sSV4iIs8gQ_55.mp4	0.0	88.41292190551758	0.09998703002929688
11	28.616240978240967	fix_pre	0		26.0	9.0	2.5	/experiments/knapen_aot/videos/S_yt-MTo50ReVNmU_2.mp4	0.0	88.51290893554688	0.21663308143615723
11	28.824647903442383	response	0	2		9.0	2.5	/experiments/knapen_aot/videos/S_yt-MTo50ReVNmU_2.mp4	0.0	88.72131586074829	
11	28.832874059677124	movie	1		301.0	9.0	2.5	/experiments/knapen_aot/videos/S_yt-MTo50ReVNmU_2.mp4	0.0	88.72954201698303	2.508352041244507
11	31.34122610092163	fix_post	2		12.0	9.0	2.5	/experiments/knapen_aot/videos/S_yt-MTo50ReVNmU_2.mp4	0.0	91.23789405822754	0.09994792938232422
12	31.441174030303955	fix_pre	0		121.0	10.0	2.5	/experiments/knapen_aot/videos/S_yt-GVaF4tmJBZE_253.mp4	0.0	91.33784198760986	1.0082740783691406
12	32.44131088256836	response	0	2		10.0	2.5	/experiments/knapen_aot/videos/S_yt-GVaF4tmJBZE_253.mp4	0.0	92.33797883987427	
12	32.449448108673096	movie	1		301.0	10.0	2.5	/experiments/knapen_aot/videos/S_yt-GVaF4tmJBZE_253.mp4	0.0	92.346116065979	2.508431911468506
12	34.9578800201416	fix_post	2		12.0	10.0	2.5	/experiments/knapen_aot/videos/S_yt-GVaF4tmJBZE_253.mp4	0.0	94.85454797744751	0.1000070571899414
13	35.05788707733154	fix_pre	0		32.0	11.0	2.5	/experiments/knapen_aot/videos/R_S_ILSVRC2015_train_00610000.mp4	0.0	94.95455503463745	0.2666778564453125
13	35.316330909729004	response	0	2		11.0	2.5	/experiments/knapen_aot/videos/R_S_ILSVRC2015_train_00610000.mp4	0.0	95.21299886703491	
13	35.324564933776855	movie	1		301.0	11.0	2.5	/experiments/knapen_aot/videos/R_S_ILSVRC2015_train_00610000.mp4	0.0	95.22123289108276	2.5082969665527344
13	36.59252405166626	response	1	2		11.0	2.5	/experiments/knapen_aot/videos/R_S_ILSVRC2015_train_00610000.mp4	0.0	96.48919200897217	
13	37.83286190032959	fix_post	2		12.0	11.0	2.5	/experiments/knapen_aot/videos/R_S_ILSVRC2015_train_00610000.mp4	0.0	97.7295298576355	0.10005807876586914
14	37.93291997909546	fix_pre	0		43.0	12.0	2.5	blank	1.0	97.82958793640137	0.35825109481811523
14	38.282958030700684	response	0	2		12.0	2.5	blank	1.0	98.17962598800659	
14	38.291171073913574	movie	1		301.0	12.0	2.5	blank	1.0	98.18783903121948	2.508384943008423
14	39.632858991622925	response	1	2		12.0	2.5	blank	1.0	99.52952694892883	
14	40.799556016922	fix_post	2		12.0	12.0	2.5	blank	1.0	100.6962239742279	0.1000058650970459
15	40.89956188201904	fix_pre	0		49.0	13.0	2.5	/experiments/knapen_aot/videos/S_yt-VjTiMtjdjTw_103.mp4	0.0	100.79622983932495	0.40825319290161133
15	41.299570083618164	response	0	2		13.0	2.5	/experiments/knapen_aot/videos/S_yt-VjTiMtjdjTw_103.mp4	0.0	101.19623804092407	
15	41.307815074920654	movie	1		301.0	13.0	2.5	/experiments/knapen_aot/videos/S_yt-VjTiMtjdjTw_103.mp4	0.0	101.20448303222656	2.5083539485931396
15	43.816169023513794	fix_post	2		12.0	13.0	2.5	/experiments/knapen_aot/videos/S_yt-VjTiMtjdjTw_103.mp4	0.0	103.7128369808197	0.10000801086425781
16	43.91617703437805	fix_pre	0		37.0	14.0	2.5	/experiments/knapen_aot/videos/R_S_Pexels_Videos_2786546.mp4	0.0	103.81284499168396	0.3082609176635742
16	44.20871901512146	response	0	2		14.0	2.5	/experiments/knapen_aot/videos/R_S_Pexels_Videos_2786546.mp4	0.0	104.10538697242737	
16	44.224437952041626	movie	1		185.0	14.0	2.5	/experiments/knapen_aot/videos/R_S_Pexels_Videos_2786546.mp4	0.0	104.12110590934753	2.5084030628204346
16	46.73284101486206	fix_post	2		12.0	14.0	2.5	/experiments/knapen_aot/videos/R_S_Pexels_Videos_2786546.mp4	0.0	106.62950897216797	0.10004401206970215
17	46.83288502693176	fix_pre	0		19.0	15.0	2.5	/experiments/knapen_aot/videos/R_S_yt-xNKgc8sFYvU_35.mp4	0.0	106.72955298423767	0.15831804275512695
17	46.98294687271118	response	0	2		15.0	2.5	/experiments/knapen_aot/videos/R_S_yt-xNKgc8sFYvU_35.mp4	0.0	106.87961483001709	
17	46.99120306968689	movie	1		301.0	15.0	2.5	/experiments/knapen_aot/videos/R_S_yt-xNKgc8sFYvU_35.mp4	0.0	106.8878710269928	2.5082948207855225
17	49.49949789047241	fix_post	2		12.0	15.0	2.5	/experiments/knapen_aot/videos/R_S_yt-xNKgc8sFYvU_35.mp4	0.0	109.39616584777832	0.09993815422058105
18	49.59943604469299	fix_pre	0		44.0	16.0	2.5	/experiments/knapen_aot/videos/R_S_wc-jujp1kJRHrkJ_54.mp4	0.0	109.4961040019989	0.3678250312805176
18	49.95799803733826	response	0	2		16.0	2.5	/experiments/knapen_aot/videos/R_S_wc-jujp1kJRHrkJ_54.mp4	0.0	109.85466599464417	
18	49.96726107597351	movie	1		301.0	16.0	2.5	/experiments/knapen_aot/videos/R_S_wc-jujp1kJRHrkJ_54.mp4	0.0	109.86392903327942	2.507159948348999
18	52.47442102432251	fix_post	2		12.0	16.0	2.5	/experiments/knapen_aot/videos/R_S_wc-jujp1kJRHrkJ_54.mp4	0.0	112.37108898162842	0.10007286071777344
19	52.57449388504028	fix_pre	0		40.0	17.0	2.5	/experiments/knapen_aot/videos/R_S_yt-QJ2k6vA8aco_12.mp4	0.0	112.47116184234619	0.3332810401916504
19	52.89954090118408	response	0	2		17.0	2.5	/experiments/knapen_aot/videos/R_S_yt-QJ2k6vA8aco_12.mp4	0.0	112.79620885848999	
19	52.907774925231934	movie	1		301.0	17.0	2.5	/experiments/knapen_aot/videos/R_S_yt-QJ2k6vA8aco_12.mp4	0.0	112.80444288253784	2.508342981338501
19	55.416117906570435	fix_post	2		12.0	17.0	2.5	/experiments/knapen_aot/videos/R_S_yt-QJ2k6vA8aco_12.mp4	0.0	115.31278586387634	0.09996604919433594
20	55.51608395576477	fix_pre	0		33.0	18.0	2.5	/experiments/knapen_aot/videos/R_S_yt-PaxmJhMoP3w_87.mp4	0.0	115.41275191307068	0.2749810218811035
20	55.78295397758484	response	0	2		18.0	2.5	/experiments/knapen_aot/videos/R_S_yt-PaxmJhMoP3w_87.mp4	0.0	115.67962193489075	
20	55.791064977645874	movie	1		301.0	18.0	2.5	/experiments/knapen_aot/videos/R_S_yt-PaxmJhMoP3w_87.mp4	0.0	115.68773293495178	2.5084080696105957
20	58.29947304725647	fix_post	2		12.0	18.0	2.5	/experiments/knapen_aot/videos/R_S_yt-PaxmJhMoP3w_87.mp4	0.0	118.19614100456238	0.09994387626647949
21	58.39941692352295	fix_pre	0		19.0	19.0	2.5	blank	1.0	118.29608488082886	0.15828895568847656
21	58.54954195022583	response	0	2		19.0	2.5	blank	1.0	118.44620990753174	
21	58.557705879211426	movie	1		301.0	19.0	2.5	blank	1.0	118.45437383651733	2.508484125137329
21	60.42451810836792	response	1	2		19.0	2.5	blank	1.0	120.32118606567383	
21	61.066190004348755	fix_post	2		12.0	19.0	2.5	blank	1.0	120.96285796165466	0.09995388984680176
22	61.16614389419556	fix_pre	0		35.0	20.0	2.5	/experiments/knapen_aot/videos/S_production_ID_5146014.mp4	0.0	121.06281185150146	0.29161620140075684
22	61.44956588745117	response	0	2		20.0	2.5	/experiments/knapen_aot/videos/S_production_ID_5146014.mp4	0.0	121.34623384475708	
22	61.45776009559631	movie	1		168.0	20.0	2.5	/experiments/knapen_aot/videos/S_production_ID_5146014.mp4	0.0	121.35442805290222	2.5084068775177
22	63.966166973114014	fix_post	2		12.0	20.0	2.5	/experiments/knapen_aot/videos/S_production_ID_5146014.mp4	0.0	123.86283493041992	0.09994196891784668
23	64.06610894203186	fix_pre	0		21.0	21.0	2.5	/experiments/knapen_aot/videos/R_S_yt-o_CT2MjZ9fA_216.mp4	0.0	123.96277689933777	0.17497897148132324
23	64.23286390304565	response	0	2		21.0	2.5	/experiments/knapen_aot/videos/R_S_yt-o_CT2MjZ9fA_216.mp4	0.0	124.12953186035156	
23	64.24108791351318	movie	1		301.0	21.0	2.5	/experiments/knapen_aot/videos/R_S_yt-o_CT2MjZ9fA_216.mp4	0.0	124.13775587081909	2.508305072784424
23	66.1996169090271	response	1	2		21.0	2.5	/experiments/knapen_aot/videos/R_S_yt-o_CT2MjZ9fA_216.mp4	0.0	126.09628486633301	
23	66.74939298629761	fix_post	2		12.0	21.0	2.5	/experiments/knapen_aot/videos/R_S_yt-o_CT2MjZ9fA_216.mp4	0.0	126.64606094360352	0.10001492500305176
24	66.84940791130066	fix_pre	0		49.0	22.0	2.5	/experiments/knapen_aot/videos/S_ILSVRC2015_train_00274003.mp4	0.0	126.74607586860657	0.4093461036682129
24	67.24942398071289	response	0	2		22.0	2.5	/experiments/knapen_aot/videos/S_ILSVRC2015_train_00274003.mp4	0.0	127.1460919380188	
24	67.25875401496887	movie	1		300.0	22.0	2.5	/experiments/knapen_aot/videos/S_ILSVRC2015_train_00274003.mp4	0.0	127.15542197227478	2.5073108673095703
24	69.76606488227844	fix_post	2		12.0	22.0	2.5	/experiments/knapen_aot/videos/S_ILSVRC2015_train_00274003.mp4	0.0	129.66273283958435	0.09999918937683105
25	69.86606407165527	fix_pre	0		177.0	23.0	2.5	/experiments/knapen_aot/videos/R_S_yt-146gReE6xKw_379.mp4	0.0	129.76273202896118	1.4759788513183594
25	71.33286094665527	response	0	2		23.0	2.5	/experiments/knapen_aot/videos/R_S_yt-146gReE6xKw_379.mp4	0.0	131.22952890396118	
25	71.34204292297363	movie	1		301.0	23.0	2.5	/experiments/knapen_aot/videos/R_S_yt-146gReE6xKw_379.mp4	0.0	131.23871088027954	2.507280111312866
25	73.8493230342865	fix_post	2		12.0	23.0	2.5	/experiments/knapen_aot/videos/R_S_yt-146gReE6xKw_379.mp4	0.0	133.7459909915924	0.10011100769042969
26	73.94943404197693	fix_pre	0		56.0	24.0	2.5	/experiments/knapen_aot/videos/R_S_yt-82O1uT8dmv8_12.mp4	0.0	133.84610199928284	0.4665360450744629
26	74.4080080986023	response	0	2		24.0	2.5	/experiments/knapen_aot/videos/R_S_yt-82O1uT8dmv8_12.mp4	0.0	134.3046760559082	
26	74.41597008705139	movie	1		301.0	24.0	2.5	/experiments/knapen_aot/videos/R_S_yt-82O1uT8dmv8_12.mp4	0.0	134.3126380443573	2.5083370208740234
26	76.92430710792542	fix_post	2		12.0	24.0	2.5	/experiments/knapen_aot/videos/R_S_yt-82O1uT8dmv8_12.mp4	0.0	136.82097506523132	0.10004687309265137
27	77.02435398101807	fix_pre	0		25.0	25.0	2.5	/experiments/knapen_aot/videos/R_S_yt-Gokv9ZtV6zo_70.mp4	0.0	136.92102193832397	0.2083420753479004
27	77.22446203231812	response	0	2		25.0	2.5	/experiments/knapen_aot/videos/R_S_yt-Gokv9ZtV6zo_70.mp4	0.0	137.12112998962402	
27	77.23269605636597	movie	1		301.0	25.0	2.5	/experiments/knapen_aot/videos/R_S_yt-Gokv9ZtV6zo_70.mp4	0.0	137.12936401367188	2.5084168910980225
27	79.74111294746399	fix_post	2		12.0	25.0	2.5	/experiments/knapen_aot/videos/R_S_yt-Gokv9ZtV6zo_70.mp4	0.0	139.6377809047699	0.09993910789489746
28	79.84105205535889	fix_pre	0		410.0	26.0	2.5	/experiments/knapen_aot/videos/S_goAwcQiFu1Q_99.mp4	0.0	139.7377200126648	3.4175238609313965
28	83.24937510490417	response	0	2		26.0	2.5	/experiments/knapen_aot/videos/S_goAwcQiFu1Q_99.mp4	0.0	143.14604306221008	
28	83.25857591629028	movie	1		301.0	26.0	2.5	/experiments/knapen_aot/videos/S_goAwcQiFu1Q_99.mp4	0.0	143.1552438735962	2.5075950622558594
28	85.76617097854614	fix_post	2		12.0	26.0	2.5	/experiments/knapen_aot/videos/S_goAwcQiFu1Q_99.mp4	0.0	145.66283893585205	0.09984397888183594
29	85.86601495742798	fix_pre	0		34.0	27.0	2.5	/experiments/knapen_aot/videos/R_S_yt-4GDusA21cEA_170.mp4	0.0	145.7626829147339	0.2832911014556885
29	86.13358187675476	response	0	2		27.0	2.5	/experiments/knapen_aot/videos/R_S_yt-4GDusA21cEA_170.mp4	0.0	146.03024983406067	
29	86.14930605888367	movie	1		301.0	27.0	2.5	/experiments/knapen_aot/videos/R_S_yt-4GDusA21cEA_170.mp4	0.0	146.04597401618958	2.5083329677581787
29	88.65763902664185	fix_post	2		12.0	27.0	2.5	/experiments/knapen_aot/videos/R_S_yt-4GDusA21cEA_170.mp4	0.0	148.55430698394775	0.10010695457458496
30	88.75774598121643	fix_pre	0		56.0	28.0	2.5	blank	1.0	148.65441393852234	0.46653008460998535
30	89.21606802940369	response	0	2		28.0	2.5	blank	1.0	149.1127359867096	
30	89.22427606582642	movie	1		301.0	28.0	2.5	blank	1.0	149.12094402313232	2.50839900970459
30	91.732675075531	fix_post	2		12.0	28.0	2.5	blank	1.0	151.6293430328369	0.09995794296264648
31	91.83263301849365	fix_pre	0		29.0	29.0	2.5	/experiments/knapen_aot/videos/S_production_ID_4325509.mp4	0.0	151.72930097579956	0.24150490760803223
31	92.06604099273682	response	0	2		29.0	2.5	/experiments/knapen_aot/videos/S_production_ID_4325509.mp4	0.0	151.96270895004272	
31	92.07413792610168	movie	1		187.0	29.0	2.5	/experiments/knapen_aot/videos/S_production_ID_4325509.mp4	0.0	151.9708058834076	2.508466958999634
31	94.58260488510132	fix_post	2		12.0	29.0	2.5	/experiments/knapen_aot/videos/S_production_ID_4325509.mp4	0.0	154.47927284240723	0.10001802444458008
32	94.6826229095459	fix_pre	0		303.0	30.0	2.5	/experiments/knapen_aot/videos/R_S_ILSVRC2015_train_00371010.mp4	0.0	154.5792908668518	2.5249760150909424
32	97.19198393821716	response	0	2		30.0	2.5	/experiments/knapen_aot/videos/R_S_ILSVRC2015_train_00371010.mp4	0.0	157.08865189552307	
32	97.20759892463684	movie	1		301.0	30.0	2.5	/experiments/knapen_aot/videos/R_S_ILSVRC2015_train_00371010.mp4	0.0	157.10426688194275	2.5083420276641846
32	99.71594095230103	fix_post	2		12.0	30.0	2.5	/experiments/knapen_aot/videos/R_S_ILSVRC2015_train_00371010.mp4	0.0	159.61260890960693	0.09994292259216309
33	99.81588387489319	fix_pre	0		25.0	31.0	2.5	/experiments/knapen_aot/videos/S_yt-K0CzoUy_uIA_22.mp4	0.0	159.7125518321991	0.20837020874023438
33	100.0160710811615	response	0	2		31.0	2.5	/experiments/knapen_aot/videos/S_yt-K0CzoUy_uIA_22.mp4	0.0	159.9127390384674	
33	100.02425408363342	movie	1		301.0	31.0	2.5	/experiments/knapen_aot/videos/S_yt-K0CzoUy_uIA_22.mp4	0.0	159.92092204093933	2.508382797241211
33	102.53263688087463	fix_post	2		12.0	31.0	2.5	/experiments/knapen_aot/videos/S_yt-K0CzoUy_uIA_22.mp4	0.0	162.42930483818054	0.10012006759643555
34	102.63275694847107	fix_pre	0		291.0	32.0	2.5	/experiments/knapen_aot/videos/S_yt-JG2OY_7B-gI_537.mp4	0.0	162.52942490577698	2.42478609085083
34	105.04944610595703	response	0	2		32.0	2.5	/experiments/knapen_aot/videos/S_yt-JG2OY_7B-gI_537.mp4	0.0	164.94611406326294	
34	105.0575430393219	movie	1		301.0	32.0	2.5	/experiments/knapen_aot/videos/S_yt-JG2OY_7B-gI_537.mp4	0.0	164.9542109966278	2.5084218978881836
34	107.56596493721008	fix_post	2		12.0	32.0	2.5	/experiments/knapen_aot/videos/S_yt-JG2OY_7B-gI_537.mp4	0.0	167.462632894516	0.09995794296264648
35	107.66592288017273	fix_pre	0		39.0	33.0	2.5	/experiments/knapen_aot/videos/R_S_yt-C0iWlRWU21o_5.mp4	0.0	167.56259083747864	0.3249690532684326
35	107.98287510871887	response	0	2		33.0	2.5	/experiments/knapen_aot/videos/R_S_yt-C0iWlRWU21o_5.mp4	0.0	167.87954306602478	
35	107.99089193344116	movie	1		301.0	33.0	2.5	/experiments/knapen_aot/videos/R_S_yt-C0iWlRWU21o_5.mp4	0.0	167.88755989074707	2.508352041244507
35	110.49924397468567	fix_post	2		12.0	33.0	2.5	/experiments/knapen_aot/videos/R_S_yt-C0iWlRWU21o_5.mp4	0.0	170.39591193199158	0.10004711151123047
36	110.5992910861969	fix_pre	0		32.0	34.0	2.5	blank	1.0	170.4959590435028	0.26662588119506836
36	110.85766506195068	response	0	2		34.0	2.5	blank	1.0	170.7543330192566	
36	110.86591696739197	movie	1		301.0	34.0	2.5	blank	1.0	170.76258492469788	2.5083301067352295
36	113.3742470741272	fix_post	2		12.0	34.0	2.5	blank	1.0	173.2709150314331	0.10019302368164062
37	113.47444009780884	fix_pre	0		62.0	35.0	2.5	/experiments/knapen_aot/videos/S_ILSVRC2015_train_00371010.mp4	0.0	173.37110805511475	0.5164318084716797
37	113.9826979637146	response	0	2		35.0	2.5	/experiments/knapen_aot/videos/S_ILSVRC2015_train_00371010.mp4	0.0	173.8793659210205	
37	113.99087190628052	movie	1		301.0	35.0	2.5	/experiments/knapen_aot/videos/S_ILSVRC2015_train_00371010.mp4	0.0	173.88753986358643	2.508347988128662
37	116.49921989440918	fix_post	2		12.0	35.0	2.5	/experiments/knapen_aot/videos/S_ILSVRC2015_train_00371010.mp4	0.0	176.3958878517151	0.09997820854187012
38	116.59919810295105	fix_pre	0		43.0	36.0	2.5	/experiments/knapen_aot/videos/S_yt-452RKqKIeRU_16.mp4	0.0	176.49586606025696	0.35841798782348633
38	116.94933605194092	response	0	2		36.0	2.5	/experiments/knapen_aot/videos/S_yt-452RKqKIeRU_16.mp4	0.0	176.84600400924683	
38	116.95761609077454	movie	1		299.0	36.0	2.5	/experiments/knapen_aot/videos/S_yt-452RKqKIeRU_16.mp4	0.0	176.85428404808044	2.5082709789276123
38	119.46588706970215	fix_post	2		12.0	36.0	2.5	/experiments/knapen_aot/videos/S_yt-452RKqKIeRU_16.mp4	0.0	179.36255502700806	0.09995102882385254
39	119.565838098526	fix_pre	0		39.0	37.0	2.5	/experiments/knapen_aot/videos/S_P006_C002_UHD_SDR_2K_AVC.mp4	0.0	179.4625060558319	0.324962854385376
39	119.88261389732361	response	0	2		37.0	2.5	/experiments/knapen_aot/videos/S_P006_C002_UHD_SDR_2K_AVC.mp4	0.0	179.77928185462952	
39	119.89080095291138	movie	1		172.0	37.0	2.5	/experiments/knapen_aot/videos/S_P006_C002_UHD_SDR_2K_AVC.mp4	0.0	179.78746891021729	2.508366107940674
39	122.39916706085205	fix_post	2		12.0	37.0	2.5	/experiments/knapen_aot/videos/S_P006_C002_UHD_SDR_2K_AVC.mp4	0.0	182.29583501815796	0.10019397735595703
40	122.49936103820801	fix_pre	0		45.0	38.0	2.5	/experiments/knapen_aot/videos/S_pexels-koolshooters-7327412_1.mp4	0.0	182.39602899551392	0.3748049736022949
40	122.86597299575806	response	0	2		38.0	2.5	/experiments/knapen_aot/videos/S_pexels-koolshooters-7327412_1.mp4	0.0	182.76264095306396	
40	122.8741660118103	movie	1		167.0	38.0	2.5	/experiments/knapen_aot/videos/S_pexels-koolshooters-7327412_1.mp4	0.0	182.7708339691162	2.508341073989868
40	125.38250708580017	fix_post	2		12.0	38.0	2.5	/experiments/knapen_aot/videos/S_pexels-koolshooters-7327412_1.mp4	0.0	185.27917504310608	0.09995579719543457
41	125.4824628829956	fix_pre	0		69.0	39.0	2.5	/experiments/knapen_aot/videos/R_S_ILSVRC2015_train_00379000.mp4	0.0	185.3791308403015	0.5749502182006836
41	126.04925203323364	response	0	2		39.0	2.5	/experiments/knapen_aot/videos/R_S_ILSVRC2015_train_00379000.mp4	0.0	185.94591999053955	
41	126.05741310119629	movie	1		301.0	39.0	2.5	/experiments/knapen_aot/videos/R_S_ILSVRC2015_train_00379000.mp4	0.0	185.9540810585022	2.5083580017089844
41	128.56577110290527	fix_post	2		12.0	39.0	2.5	/experiments/knapen_aot/videos/R_S_ILSVRC2015_train_00379000.mp4	0.0	188.46243906021118	0.10022878646850586
42	128.66599988937378	fix_pre	0		144.0	40.0	2.5	blank	1.0	188.5626678466797	1.1997711658477783
42	129.85761094093323	response	0	2		40.0	2.5	blank	1.0	189.75427889823914	
42	129.86577105522156	movie	1		301.0	40.0	2.5	blank	1.0	189.76243901252747	2.5084099769592285
42	132.3741810321808	fix_post	2		12.0	40.0	2.5	blank	1.0	192.2708489894867	0.09992504119873047
43	132.47410607337952	fix_pre	0		51.0	41.0	2.5	/experiments/knapen_aot/videos/R_S_yt-qazCIJqjxUU_3.mp4	0.0	192.37077403068542	0.4249849319458008
43	132.89100289344788	response	0	2		41.0	2.5	/experiments/knapen_aot/videos/R_S_yt-qazCIJqjxUU_3.mp4	0.0	192.78767085075378	
43	132.89909100532532	movie	1		301.0	41.0	2.5	/experiments/knapen_aot/videos/R_S_yt-qazCIJqjxUU_3.mp4	0.0	192.79575896263123	2.5083348751068115
43	135.40742588043213	fix_post	2		12.0	41.0	2.5	/experiments/knapen_aot/videos/R_S_yt-qazCIJqjxUU_3.mp4	0.0	195.30409383773804	0.0999901294708252
44	135.50741600990295	fix_pre	0		7.0	42.0	2.5	/experiments/knapen_aot/videos/R_S_pexels-mart-production-7279749.mp4	0.0	195.40408396720886	0.058302879333496094
44	135.55754399299622	response	0	2		42.0	2.5	/experiments/knapen_aot/videos/R_S_pexels-mart-production-7279749.mp4	0.0	195.45421195030212	
44	135.56571888923645	movie	1		166.0	42.0	2.5	/experiments/knapen_aot/videos/R_S_pexels-mart-production-7279749.mp4	0.0	195.46238684654236	2.508392095565796
44	138.07411098480225	fix_post	2		12.0	42.0	2.5	/experiments/knapen_aot/videos/R_S_pexels-mart-production-7279749.mp4	0.0	197.97077894210815	0.09991002082824707
45	138.1740210056305	fix_pre	0		21.0	43.0	2.5	/experiments/knapen_aot/videos/S_yt-PCSXJ5YB_AE_3.mp4	0.0	198.0706889629364	0.17505908012390137
45	138.34085488319397	response	0	2		43.0	2.5	/experiments/knapen_aot/videos/S_yt-PCSXJ5YB_AE_3.mp4	0.0	198.23752284049988	
45	138.3490800857544	movie	1		301.0	43.0	2.5	/experiments/knapen_aot/videos/S_yt-PCSXJ5YB_AE_3.mp4	0.0	198.2457480430603	2.5085289478302
45	140.8576090335846	fix_post	2		12.0	43.0	2.5	/experiments/knapen_aot/videos/S_yt-PCSXJ5YB_AE_3.mp4	0.0	200.7542769908905	0.09987092018127441
46	140.95747995376587	fix_pre	0		39.0	44.0	2.5	/experiments/knapen_aot/videos/R_S_pexels-sora-shimazaki-5925295.mp4	0.0	200.85414791107178	0.3249330520629883
46	141.27413702011108	response	0	2		44.0	2.5	/experiments/knapen_aot/videos/R_S_pexels-sora-shimazaki-5925295.mp4	0.0	201.170804977417	
46	141.28241300582886	movie	1		166.0	44.0	2.5	/experiments/knapen_aot/videos/R_S_pexels-sora-shimazaki-5925295.mp4	0.0	201.17908096313477	2.5083789825439453
46	143.7907919883728	fix_post	2		12.0	44.0	2.5	/experiments/knapen_aot/videos/R_S_pexels-sora-shimazaki-5925295.mp4	0.0	203.6874599456787	0.09992289543151855
47	143.89071488380432	fix_pre	0		26.0	45.0	2.5	/experiments/knapen_aot/videos/S_yt-GytLOB9Qjro_76.mp4	0.0	203.78738284111023	0.21660208702087402
47	144.09916400909424	response	0	2		45.0	2.5	/experiments/knapen_aot/videos/S_yt-GytLOB9Qjro_76.mp4	0.0	203.99583196640015	
47	144.1073169708252	movie	1		301.0	45.0	2.5	/experiments/knapen_aot/videos/S_yt-GytLOB9Qjro_76.mp4	0.0	204.0039849281311	2.5084140300750732
47	146.61573100090027	fix_post	2		12.0	45.0	2.5	/experiments/knapen_aot/videos/S_yt-GytLOB9Qjro_76.mp4	0.0	206.51239895820618	0.09996700286865234
48	146.71569800376892	fix_pre	0		26.0	46.0	2.5	/experiments/knapen_aot/videos/S_yt-Q9fI2ar05IE_77.mp4	0.0	206.61236596107483	0.21669507026672363
48	146.9241659641266	response	0	2		46.0	2.5	/experiments/knapen_aot/videos/S_yt-Q9fI2ar05IE_77.mp4	0.0	206.8208339214325	
48	146.93239307403564	movie	1		301.0	46.0	2.5	/experiments/knapen_aot/videos/S_yt-Q9fI2ar05IE_77.mp4	0.0	206.82906103134155	2.508389949798584
48	149.44078302383423	fix_post	2		12.0	46.0	2.5	/experiments/knapen_aot/videos/S_yt-Q9fI2ar05IE_77.mp4	0.0	209.33745098114014	0.09996891021728516
49	149.5407519340515	fix_pre	0		41.0	47.0	2.5	/experiments/knapen_aot/videos/S_yt-dj0XQUJos38_14.mp4	0.0	209.43741989135742	0.34221506118774414
49	149.87415599822998	response	0	2		47.0	2.5	/experiments/knapen_aot/videos/S_yt-dj0XQUJos38_14.mp4	0.0	209.7708239555359	
49	149.88296699523926	movie	1		301.0	47.0	2.5	/experiments/knapen_aot/videos/S_yt-dj0XQUJos38_14.mp4	0.0	209.77963495254517	2.507685899734497
49	152.39065289497375	fix_post	2		12.0	47.0	2.5	/experiments/knapen_aot/videos/S_yt-dj0XQUJos38_14.mp4	0.0	212.28732085227966	0.10005307197570801
50	152.49070596694946	fix_pre	0		51.0	48.0	2.5	blank	1.0	212.38737392425537	0.4249570369720459
50	152.90750002861023	response	0	2		48.0	2.5	blank	1.0	212.80416798591614	
50	152.9156630039215	movie	1		301.0	48.0	2.5	blank	1.0	212.81233096122742	2.5083680152893066
50	155.42403101921082	fix_post	2		12.0	48.0	2.5	blank	1.0	215.32069897651672	0.09993696212768555
51	155.5239679813385	fix_pre	0		241.0	49.0	2.5	/experiments/knapen_aot/videos/S_yt-YFl_NAWBFAw_166.mp4	0.0	215.4206359386444	2.008342981338501
51	157.5241630077362	response	0	2		49.0	2.5	/experiments/knapen_aot/videos/S_yt-YFl_NAWBFAw_166.mp4	0.0	217.42083096504211	
51	157.532310962677	movie	1		301.0	49.0	2.5	/experiments/knapen_aot/videos/S_yt-YFl_NAWBFAw_166.mp4	0.0	217.4289789199829	2.508358955383301
51	160.0406699180603	fix_post	2		12.0	49.0	2.5	/experiments/knapen_aot/videos/S_yt-YFl_NAWBFAw_166.mp4	0.0	219.9373378753662	0.09992003440856934
52	160.14058995246887	fix_pre	0		24.0	50.0	2.5	/experiments/knapen_aot/videos/R_S_ILSVRC2015_train_00274003.mp4	0.0	220.03725790977478	0.20075011253356934
52	160.332417011261	response	0	2		50.0	2.5	/experiments/knapen_aot/videos/R_S_ILSVRC2015_train_00274003.mp4	0.0	220.2290849685669	
52	160.34134006500244	movie	1		301.0	50.0	2.5	/experiments/knapen_aot/videos/R_S_ILSVRC2015_train_00274003.mp4	0.0	220.23800802230835	2.507624864578247
52	162.8489649295807	fix_post	2		12.0	50.0	2.5	/experiments/knapen_aot/videos/R_S_ILSVRC2015_train_00274003.mp4	0.0	222.7456328868866	0.10003399848937988
53	162.94899892807007	fix_pre	0		33.0	51.0	2.5	/experiments/knapen_aot/videos/R_S_production_ID_5049072.mp4	0.0	222.84566688537598	0.27495908737182617
53	163.21568894386292	response	0	2		51.0	2.5	/experiments/knapen_aot/videos/R_S_production_ID_5049072.mp4	0.0	223.11235690116882	
53	163.2239580154419	movie	1		167.0	51.0	2.5	/experiments/knapen_aot/videos/R_S_production_ID_5049072.mp4	0.0	223.1206259727478	2.508347988128662
53	165.73230600357056	fix_post	2		12.0	51.0	2.5	/experiments/knapen_aot/videos/R_S_production_ID_5049072.mp4	0.0	225.62897396087646	0.10001897811889648
54	165.83232498168945	fix_pre	0		8.0	52.0	2.5	/experiments/knapen_aot/videos/S_yt-kXarkCFJLeg_46.mp4	0.0	225.72899293899536	0.0666050910949707
54	165.89078307151794	response	0	2		52.0	2.5	/experiments/knapen_aot/videos/S_yt-kXarkCFJLeg_46.mp4	0.0	225.78745102882385	
54	165.89893007278442	movie	1		301.0	52.0	2.5	/experiments/knapen_aot/videos/S_yt-kXarkCFJLeg_46.mp4	0.0	225.79559803009033	2.5085079669952393
54	168.40743803977966	fix_post	2		12.0	52.0	2.5	/experiments/knapen_aot/videos/S_yt-kXarkCFJLeg_46.mp4	0.0	228.30410599708557	0.09984397888183594
55	168.5072820186615	fix_pre	0		11.0	53.0	2.5	/experiments/knapen_aot/videos/R_S_yt-IPiZqn4dG9k_9.mp4	0.0	228.4039499759674	0.09163999557495117
55	168.59070992469788	response	0	2		53.0	2.5	/experiments/knapen_aot/videos/R_S_yt-IPiZqn4dG9k_9.mp4	0.0	228.48737788200378	
55	168.59892201423645	movie	1		301.0	53.0	2.5	/experiments/knapen_aot/videos/R_S_yt-IPiZqn4dG9k_9.mp4	0.0	228.49558997154236	2.5083870887756348
55	171.10730910301208	fix_post	2		12.0	53.0	2.5	/experiments/knapen_aot/videos/R_S_yt-IPiZqn4dG9k_9.mp4	0.0	231.003977060318	0.10009098052978516
56	171.20740008354187	fix_pre	0		21.0	54.0	2.5	/experiments/knapen_aot/videos/S_yt-kA0ybjmoiMc_284.mp4	0.0	231.10406804084778	0.1754319667816162
56	171.37408304214478	response	0	2		54.0	2.5	/experiments/knapen_aot/videos/S_yt-kA0ybjmoiMc_284.mp4	0.0	231.27075099945068	
56	171.3828320503235	movie	1		301.0	54.0	2.5	/experiments/knapen_aot/videos/S_yt-kA0ybjmoiMc_284.mp4	0.0	231.2795000076294	2.5077788829803467
56	173.89061093330383	fix_post	2		12.0	54.0	2.5	/experiments/knapen_aot/videos/S_yt-kA0ybjmoiMc_284.mp4	0.0	233.78727889060974	0.09996294975280762
57	173.99057388305664	fix_pre	0		27.0	55.0	2.5	/experiments/knapen_aot/videos/S_ILSVRC2015_train_00594001.mp4	0.0	233.88724184036255	0.2254951000213623
57	174.20742011070251	response	0	2		55.0	2.5	/experiments/knapen_aot/videos/S_ILSVRC2015_train_00594001.mp4	0.0	234.10408806800842	
57	174.216068983078	movie	1		301.0	55.0	2.5	/experiments/knapen_aot/videos/S_ILSVRC2015_train_00594001.mp4	0.0	234.1127369403839	2.5079240798950195
57	175.94906091690063	response	1	2		55.0	2.5	/experiments/knapen_aot/videos/S_ILSVRC2015_train_00594001.mp4	0.0	235.84572887420654	
57	176.72399306297302	fix_post	2		12.0	55.0	2.5	/experiments/knapen_aot/videos/S_ILSVRC2015_train_00594001.mp4	0.0	236.62066102027893	0.09997391700744629
58	176.82396697998047	fix_pre	0		29.0	56.0	2.5	blank	1.0	236.72063493728638	0.24172711372375488
58	177.05734205245972	response	0	2		56.0	2.5	blank	1.0	236.95401000976562	
58	177.06569409370422	movie	1		301.0	56.0	2.5	blank	1.0	236.96236205101013	2.508220911026001
58	178.21568894386292	response	1	2		56.0	2.5	blank	1.0	238.11235690116882	
58	179.57391500473022	fix_post	2		12.0	56.0	2.5	blank	1.0	239.47058296203613	0.10010099411010742
59	179.67401599884033	fix_pre	0		20.0	57.0	2.5	/experiments/knapen_aot/videos/R_S_ILSVRC2015_train_00594001.mp4	0.0	239.57068395614624	0.16723895072937012
59	179.82482504844666	response	0	2		57.0	2.5	/experiments/knapen_aot/videos/R_S_ILSVRC2015_train_00594001.mp4	0.0	239.72149300575256	
59	179.8412549495697	movie	1		301.0	57.0	2.5	/experiments/knapen_aot/videos/R_S_ILSVRC2015_train_00594001.mp4	0.0	239.7379229068756	2.507672071456909
59	182.3489270210266	fix_post	2		12.0	57.0	2.5	/experiments/knapen_aot/videos/R_S_ILSVRC2015_train_00594001.mp4	0.0	242.24559497833252	0.09999585151672363
60	182.44892287254333	fix_pre	0		100.0	58.0	2.5	/experiments/knapen_aot/videos/S_yt-c5IgOXX8YZ0_24.mp4	0.0	242.34559082984924	0.8332481384277344
60	183.27404403686523	response	0	2		58.0	2.5	/experiments/knapen_aot/videos/S_yt-c5IgOXX8YZ0_24.mp4	0.0	243.17071199417114	
60	183.28217101097107	movie	1		301.0	58.0	2.5	/experiments/knapen_aot/videos/S_yt-c5IgOXX8YZ0_24.mp4	0.0	243.17883896827698	2.5083649158477783
60	183.94069910049438	response	1	2		58.0	2.5	/experiments/knapen_aot/videos/S_yt-c5IgOXX8YZ0_24.mp4	0.0	243.8373670578003	
60	185.79053592681885	fix_post	2		12.0	58.0	2.5	/experiments/knapen_aot/videos/S_yt-c5IgOXX8YZ0_24.mp4	0.0	245.68720388412476	0.10000014305114746
61	185.89053606987	fix_pre	0		33.0	59.0	2.5	/experiments/knapen_aot/videos/S_yt-roThCERxVCs_133.mp4	0.0	245.7872040271759	0.27495694160461426
61	186.1573030948639	response	0	2		59.0	2.5	/experiments/knapen_aot/videos/S_yt-roThCERxVCs_133.mp4	0.0	246.0539710521698	
61	186.1654930114746	movie	1		301.0	59.0	2.5	/experiments/knapen_aot/videos/S_yt-roThCERxVCs_133.mp4	0.0	246.06216096878052	2.5084850788116455
61	187.82720804214478	response	1	2		59.0	2.5	/experiments/knapen_aot/videos/S_yt-roThCERxVCs_133.mp4	0.0	247.72387599945068	
61	188.67397809028625	fix_post	2		12.0	59.0	2.5	/experiments/knapen_aot/videos/S_yt-roThCERxVCs_133.mp4	0.0	248.57064604759216	0.09991979598999023
62	188.77389788627625	fix_pre	0		18.0	60.0	2.5	/experiments/knapen_aot/videos/S_yt-K0CzoUy_uIA_22.mp4	0.0	248.67056584358215	0.15048003196716309
62	188.90808701515198	response	0	2		60.0	2.5	/experiments/knapen_aot/videos/S_yt-K0CzoUy_uIA_22.mp4	0.0	248.80475497245789	
62	188.9243779182434	movie	1		301.0	60.0	2.5	/experiments/knapen_aot/videos/S_yt-K0CzoUy_uIA_22.mp4	0.0	248.82104587554932	2.5078229904174805
62	189.4521770477295	response	1	2		60.0	2.5	/experiments/knapen_aot/videos/S_yt-K0CzoUy_uIA_22.mp4	0.0	249.3488450050354	
62	191.4322009086609	fix_post	2		12.0	60.0	2.5	/experiments/knapen_aot/videos/S_yt-K0CzoUy_uIA_22.mp4	0.0	251.3288688659668	0.10019612312316895
63	191.53239703178406	fix_pre	0		185.0	61.0	2.5	blank	1.0	251.42906498908997	1.541395902633667
63	193.0655779838562	response	0	2		61.0	2.5	blank	1.0	252.9622459411621	
63	193.07379293441772	movie	1		301.0	61.0	2.5	blank	1.0	252.97046089172363	2.5083770751953125
63	195.58217000961304	fix_post	2		12.0	61.0	2.5	blank	1.0	255.47883796691895	0.1000518798828125
64	195.68222188949585	fix_pre	0		149.0	62.0	2.5	/experiments/knapen_aot/videos/S_yt-wjBwgccZM5k_150.mp4	0.0	255.57888984680176	1.242004156112671
64	196.91561198234558	response	0	2		62.0	2.5	/experiments/knapen_aot/videos/S_yt-wjBwgccZM5k_150.mp4	0.0	256.8122799396515	
64	196.92422604560852	movie	1		301.0	62.0	2.5	/experiments/knapen_aot/videos/S_yt-wjBwgccZM5k_150.mp4	0.0	256.82089400291443	2.507936954498291
64	199.4321630001068	fix_post	2		12.0	62.0	2.5	/experiments/knapen_aot/videos/S_yt-wjBwgccZM5k_150.mp4	0.0	259.3288309574127	0.10011506080627441
65	199.5322780609131	fix_pre	0		43.0	63.0	2.5	/experiments/knapen_aot/videos/R_S_yt-f9iXELY0EJ0_344.mp4	0.0	259.428946018219	0.35814785957336426
65	199.8823618888855	response	0	2		63.0	2.5	/experiments/knapen_aot/videos/R_S_yt-f9iXELY0EJ0_344.mp4	0.0	259.7790298461914	
65	199.89042592048645	movie	1		301.0	63.0	2.5	/experiments/knapen_aot/videos/R_S_yt-f9iXELY0EJ0_344.mp4	0.0	259.78709387779236	2.5083601474761963
65	201.5572760105133	response	1	2		63.0	2.5	/experiments/knapen_aot/videos/R_S_yt-f9iXELY0EJ0_344.mp4	0.0	261.4539439678192	
65	202.39878606796265	fix_post	2		12.0	63.0	2.5	/experiments/knapen_aot/videos/R_S_yt-f9iXELY0EJ0_344.mp4	0.0	262.29545402526855	0.1000208854675293
66	202.49880695343018	fix_pre	0		89.0	64.0	2.5	/experiments/knapen_aot/videos/R_S_yt-BIDHmbneB10_998.mp4	0.0	262.3954749107361	0.7415990829467773
66	203.23224902153015	response	0	2		64.0	2.5	/experiments/knapen_aot/videos/R_S_yt-BIDHmbneB10_998.mp4	0.0	263.12891697883606	
66	203.24040603637695	movie	1		301.0	64.0	2.5	/experiments/knapen_aot/videos/R_S_yt-BIDHmbneB10_998.mp4	0.0	263.13707399368286	2.50862193107605
66	205.749027967453	fix_post	2		12.0	64.0	2.5	/experiments/knapen_aot/videos/R_S_yt-BIDHmbneB10_998.mp4	0.0	265.6456959247589	0.1002039909362793
67	205.84923195838928	fix_pre	0		69.0	65.0	2.5	/experiments/knapen_aot/videos/S_yt-J1dw4AznwmQ_7.mp4	0.0	265.7458999156952	0.5748820304870605
67	206.41558599472046	response	0	2		65.0	2.5	/experiments/knapen_aot/videos/S_yt-J1dw4AznwmQ_7.mp4	0.0	266.31225395202637	
67	206.42411398887634	movie	1		301.0	65.0	2.5	/experiments/knapen_aot/videos/S_yt-J1dw4AznwmQ_7.mp4	0.0	266.32078194618225	2.5080759525299072
67	208.93218994140625	fix_post	2		12.0	65.0	2.5	/experiments/knapen_aot/videos/S_yt-J1dw4AznwmQ_7.mp4	0.0	268.82885789871216	0.09987115859985352
68	209.0320611000061	fix_pre	0		11.0	66.0	2.5	/experiments/knapen_aot/videos/R_S_yt-fjOsq03OC2c_188.mp4	0.0	268.928729057312	0.09171390533447266
68	209.11553692817688	response	0	2		66.0	2.5	/experiments/knapen_aot/videos/R_S_yt-fjOsq03OC2c_188.mp4	0.0	269.0122048854828	
68	209.12377500534058	movie	1		301.0	66.0	2.5	/experiments/knapen_aot/videos/R_S_yt-fjOsq03OC2c_188.mp4	0.0	269.0204429626465	2.5082719326019287
68	211.0454239845276	response	1	2		66.0	2.5	/experiments/knapen_aot/videos/R_S_yt-fjOsq03OC2c_188.mp4	0.0	270.9420919418335	
68	211.54049110412598	response	1	2		66.0	2.5	/experiments/knapen_aot/videos/R_S_yt-fjOsq03OC2c_188.mp4	0.0	271.4371590614319	
68	211.6320469379425	fix_post	2		12.0	66.0	2.5	/experiments/knapen_aot/videos/R_S_yt-fjOsq03OC2c_188.mp4	0.0	271.5287148952484	0.10009908676147461
69	211.73214602470398	fix_pre	0		40.0	67.0	2.5	/experiments/knapen_aot/videos/S_-vPHq-7BJ70_15.mp4	0.0	271.6288139820099	0.33328986167907715
69	212.0571849346161	response	0	2		67.0	2.5	/experiments/knapen_aot/videos/S_-vPHq-7BJ70_15.mp4	0.0	271.953852891922	
69	212.06543588638306	movie	1		301.0	67.0	2.5	/experiments/knapen_aot/videos/S_-vPHq-7BJ70_15.mp4	0.0	271.96210384368896	2.5083320140838623
69	214.57376790046692	fix_post	2		12.0	67.0	2.5	/experiments/knapen_aot/videos/S_-vPHq-7BJ70_15.mp4	0.0	274.4704358577728	0.10027098655700684
70	214.67403888702393	fix_pre	0		18.0	68.0	2.5	blank	1.0	274.57070684432983	0.14974617958068848
70	214.81553196907043	response	0	2		68.0	2.5	blank	1.0	274.71219992637634	
70	214.82378506660461	movie	1		301.0	68.0	2.5	blank	1.0	274.7204530239105	2.508297920227051
70	217.33208298683167	fix_post	2		12.0	68.0	2.5	blank	1.0	277.2287509441376	0.1000359058380127
71	217.43211889266968	fix_pre	0		40.0	69.0	2.5	/experiments/knapen_aot/videos/R_S_yt-XpM1Jtwlvvk_42.mp4	0.0	277.3287868499756	0.3332540988922119
71	217.75717210769653	response	0	2		69.0	2.5	/experiments/knapen_aot/videos/R_S_yt-XpM1Jtwlvvk_42.mp4	0.0	277.65384006500244	
71	217.7653729915619	movie	1		301.0	69.0	2.5	/experiments/knapen_aot/videos/R_S_yt-XpM1Jtwlvvk_42.mp4	0.0	277.6620409488678	2.508366107940674
71	220.27373909950256	fix_post	2		12.0	69.0	2.5	/experiments/knapen_aot/videos/R_S_yt-XpM1Jtwlvvk_42.mp4	0.0	280.1704070568085	0.09997200965881348
72	220.37371110916138	fix_pre	0		55.0	70.0	2.5	/experiments/knapen_aot/videos/S_yt-MhW2fU45JK8_544.mp4	0.0	280.2703790664673	0.45827293395996094
72	220.8238890171051	response	0	2		70.0	2.5	/experiments/knapen_aot/videos/S_yt-MhW2fU45JK8_544.mp4	0.0	280.720556974411	
72	220.83198404312134	movie	1		301.0	70.0	2.5	/experiments/knapen_aot/videos/S_yt-MhW2fU45JK8_544.mp4	0.0	280.72865200042725	2.508427858352661
72	223.340411901474	fix_post	2		12.0	70.0	2.5	/experiments/knapen_aot/videos/S_yt-MhW2fU45JK8_544.mp4	0.0	283.2370798587799	0.10003399848937988
73	223.44044589996338	fix_pre	0		36.0	71.0	2.5	/experiments/knapen_aot/videos/R_S_production_ID_4101307.mp4	0.0	283.3371138572693	0.2999420166015625
73	223.73219299316406	response	0	2		71.0	2.5	/experiments/knapen_aot/videos/R_S_production_ID_4101307.mp4	0.0	283.62886095046997	
73	223.74038791656494	movie	1		191.0	71.0	2.5	/experiments/knapen_aot/videos/R_S_production_ID_4101307.mp4	0.0	283.63705587387085	2.5086240768432617
73	226.04215002059937	response	1	2		71.0	2.5	/experiments/knapen_aot/videos/R_S_production_ID_4101307.mp4	0.0	285.9388179779053	
73	226.2490119934082	fix_post	2		12.0	71.0	2.5	/experiments/knapen_aot/videos/R_S_production_ID_4101307.mp4	0.0	286.1456799507141	0.09981703758239746
74	226.3488290309906	fix_pre	0		151.0	72.0	2.5	/experiments/knapen_aot/videos/S_yt-f9iXELY0EJ0_344.mp4	0.0	286.2454969882965	1.2582080364227295
74	227.59884595870972	response	0	2		72.0	2.5	/experiments/knapen_aot/videos/S_yt-f9iXELY0EJ0_344.mp4	0.0	287.4955139160156	
74	227.60703706741333	movie	1		301.0	72.0	2.5	/experiments/knapen_aot/videos/S_yt-f9iXELY0EJ0_344.mp4	0.0	287.50370502471924	2.508443832397461
74	229.8571810722351	response	1	2		72.0	2.5	/experiments/knapen_aot/videos/S_yt-f9iXELY0EJ0_344.mp4	0.0	289.753849029541	
74	230.1154808998108	fix_post	2		12.0	72.0	2.5	/experiments/knapen_aot/videos/S_yt-f9iXELY0EJ0_344.mp4	0.0	290.0121488571167	0.10014510154724121
75	230.21562600135803	fix_pre	0		33.0	73.0	2.5	/experiments/knapen_aot/videos/S_yt-82O1uT8dmv8_12.mp4	0.0	290.11229395866394	0.2747349739074707
75	230.48214602470398	response	0	2		73.0	2.5	/experiments/knapen_aot/videos/S_yt-82O1uT8dmv8_12.mp4	0.0	290.3788139820099	
75	230.4903609752655	movie	1		301.0	73.0	2.5	/experiments/knapen_aot/videos/S_yt-82O1uT8dmv8_12.mp4	0.0	290.3870289325714	2.5083189010620117
75	232.46559309959412	response	1	2		73.0	2.5	/experiments/knapen_aot/videos/S_yt-82O1uT8dmv8_12.mp4	0.0	292.3622610569	
75	232.99867987632751	fix_post	2		12.0	73.0	2.5	/experiments/knapen_aot/videos/S_yt-82O1uT8dmv8_12.mp4	0.0	292.8953478336334	0.10002517700195312
76	233.09870505332947	fix_pre	0		41.0	74.0	2.5	/experiments/knapen_aot/videos/R_S_yt-SGTgMItFkxY_172.mp4	0.0	292.9953730106354	0.34163784980773926
76	233.4320969581604	response	0	2		74.0	2.5	/experiments/knapen_aot/videos/R_S_yt-SGTgMItFkxY_172.mp4	0.0	293.3287649154663	
76	233.4403429031372	movie	1		301.0	74.0	2.5	/experiments/knapen_aot/videos/R_S_yt-SGTgMItFkxY_172.mp4	0.0	293.3370108604431	2.508519172668457
76	234.30708003044128	response	1	2		74.0	2.5	/experiments/knapen_aot/videos/R_S_yt-SGTgMItFkxY_172.mp4	0.0	294.2037479877472	
76	235.94886207580566	fix_post	2		12.0	74.0	2.5	/experiments/knapen_aot/videos/R_S_yt-SGTgMItFkxY_172.mp4	0.0	295.8455300331116	0.10003781318664551
77	236.0488998889923	fix_pre	0		245.0	75.0	2.5	blank	1.0	295.9455678462982	2.041555166244507
77	238.08212399482727	response	0	4		75.0	2.5	blank	1.0	297.9787919521332	
77	238.09045505523682	movie	1		301.0	75.0	2.5	blank	1.0	297.9871230125427	2.508211851119995
77	240.5986669063568	fix_post	2		12.0	75.0	2.5	blank	1.0	300.4953348636627	0.100006103515625
78	240.69867300987244	fix_pre	0		48.0	76.0	2.5	/experiments/knapen_aot/videos/S_yt-LsCCAQ8BRO8_7.mp4	0.0	300.59534096717834	0.3998839855194092
78	241.09044694900513	response	0	2		76.0	2.5	/experiments/knapen_aot/videos/S_yt-LsCCAQ8BRO8_7.mp4	0.0	300.98711490631104	
78	241.09855699539185	movie	1		301.0	76.0	2.5	/experiments/knapen_aot/videos/S_yt-LsCCAQ8BRO8_7.mp4	0.0	300.99522495269775	2.5084269046783447
78	243.6069839000702	fix_post	2		12.0	76.0	2.5	/experiments/knapen_aot/videos/S_yt-LsCCAQ8BRO8_7.mp4	0.0	303.5036518573761	0.0999901294708252
79	243.70697402954102	fix_pre	0		53.0	77.0	2.5	/experiments/knapen_aot/videos/R_S_yt-JpOBXV46TLE_124.mp4	0.0	303.6036419868469	0.4416649341583252
79	244.14043188095093	response	0	2		77.0	2.5	/experiments/knapen_aot/videos/R_S_yt-JpOBXV46TLE_124.mp4	0.0	304.03709983825684	
79	244.14863896369934	movie	1		301.0	77.0	2.5	/experiments/knapen_aot/videos/R_S_yt-JpOBXV46TLE_124.mp4	0.0	304.04530692100525	2.5083670616149902
79	246.65700602531433	fix_post	2		12.0	77.0	2.5	/experiments/knapen_aot/videos/R_S_yt-JpOBXV46TLE_124.mp4	0.0	306.55367398262024	0.10009193420410156
80	246.75709795951843	fix_pre	0		23.0	78.0	2.5	/experiments/knapen_aot/videos/S_ILSVRC2015_train_00411001.mp4	0.0	306.65376591682434	0.1914670467376709
80	246.94034910202026	response	0	2		78.0	2.5	/experiments/knapen_aot/videos/S_ILSVRC2015_train_00411001.mp4	0.0	306.8370170593262	
80	246.9485650062561	movie	1		301.0	78.0	2.5	/experiments/knapen_aot/videos/S_ILSVRC2015_train_00411001.mp4	0.0	306.845232963562	2.5084218978881836
80	248.58753490447998	response	1	2		78.0	2.5	/experiments/knapen_aot/videos/S_ILSVRC2015_train_00411001.mp4	0.0	308.4842028617859	
80	249.4569869041443	fix_post	2		12.0	78.0	2.5	/experiments/knapen_aot/videos/S_ILSVRC2015_train_00411001.mp4	0.0	309.3536548614502	0.1000220775604248
80	249.49047303199768	response	2	2		78.0	2.5	/experiments/knapen_aot/videos/S_ILSVRC2015_train_00411001.mp4	0.0	309.3871409893036	
81	249.5570089817047	fix_pre	0		49.0	79.0	2.5	/experiments/knapen_aot/videos/R_S_P001_C005_UHD_SDR_2K_AVC.mp4	0.0	309.4536769390106	0.4083061218261719
81	249.95704007148743	response	0	2		79.0	2.5	/experiments/knapen_aot/videos/R_S_P001_C005_UHD_SDR_2K_AVC.mp4	0.0	309.85370802879333	
81	249.96531510353088	movie	1		176.0	79.0	2.5	/experiments/knapen_aot/videos/R_S_P001_C005_UHD_SDR_2K_AVC.mp4	0.0	309.8619830608368	2.5082848072052
81	250.4321529865265	response	1	2		79.0	2.5	/experiments/knapen_aot/videos/R_S_P001_C005_UHD_SDR_2K_AVC.mp4	0.0	310.3288209438324	
81	250.84878492355347	response	1	2		79.0	2.5	/experiments/knapen_aot/videos/R_S_P001_C005_UHD_SDR_2K_AVC.mp4	0.0	310.7454528808594	
81	251.29870796203613	response	1	2		79.0	2.5	/experiments/knapen_aot/videos/R_S_P001_C005_UHD_SDR_2K_AVC.mp4	0.0	311.19537591934204	
81	251.7988429069519	response	1	2		79.0	2.5	/experiments/knapen_aot/videos/R_S_P001_C005_UHD_SDR_2K_AVC.mp4	0.0	311.6955108642578	
81	252.18211007118225	response	1	2		79.0	2.5	/experiments/knapen_aot/videos/R_S_P001_C005_UHD_SDR_2K_AVC.mp4	0.0	312.07877802848816	
81	252.47359991073608	fix_post	2		12.0	79.0	2.5	/experiments/knapen_aot/videos/R_S_P001_C005_UHD_SDR_2K_AVC.mp4	0.0	312.370267868042	0.0998830795288086
82	252.5734829902649	fix_pre	0		13.0	80.0	2.5	/experiments/knapen_aot/videos/S_yt-mHLTJkMrkZI_143.mp4	0.0	312.4701509475708	0.10841798782348633
82	252.67368698120117	response	0	2		80.0	2.5	/experiments/knapen_aot/videos/S_yt-mHLTJkMrkZI_143.mp4	0.0	312.5703549385071	
82	252.68190097808838	movie	1		301.0	80.0	2.5	/experiments/knapen_aot/videos/S_yt-mHLTJkMrkZI_143.mp4	0.0	312.5785689353943	2.508481979370117
82	253.1153109073639	response	1	2		80.0	2.5	/experiments/knapen_aot/videos/S_yt-mHLTJkMrkZI_143.mp4	0.0	313.0119788646698	
82	253.59865188598633	response	1	2		80.0	2.5	/experiments/knapen_aot/videos/S_yt-mHLTJkMrkZI_143.mp4	0.0	313.49531984329224	
82	254.12521290779114	response	1	2		80.0	2.5	/experiments/knapen_aot/videos/S_yt-mHLTJkMrkZI_143.mp4	0.0	314.02188086509705	
82	255.06539106369019	response	1	2		80.0	2.5	/experiments/knapen_aot/videos/S_yt-mHLTJkMrkZI_143.mp4	0.0	314.9620590209961	
82	255.1903829574585	fix_post	2		12.0	80.0	2.5	/experiments/knapen_aot/videos/S_yt-mHLTJkMrkZI_143.mp4	0.0	315.0870509147644	0.09996509552001953
83	255.29034805297852	fix_pre	0		44.0	81.0	2.5	/experiments/knapen_aot/videos/S_yt-4-u4Fw_J_q8_45.mp4	0.0	315.1870160102844	0.366588830947876
83	255.6486930847168	response	0	2		81.0	2.5	/experiments/knapen_aot/videos/S_yt-4-u4Fw_J_q8_45.mp4	0.0	315.5453610420227	
83	255.6569368839264	movie	1		301.0	81.0	2.5	/experiments/knapen_aot/videos/S_yt-4-u4Fw_J_q8_45.mp4	0.0	315.5536048412323	2.508310079574585
83	257.0349109172821	response	1	2		81.0	2.5	/experiments/knapen_aot/videos/S_yt-4-u4Fw_J_q8_45.mp4	0.0	316.931578874588	
83	257.4935929775238	response	1	2		81.0	2.5	/experiments/knapen_aot/videos/S_yt-4-u4Fw_J_q8_45.mp4	0.0	317.3902609348297	
83	257.89359498023987	response	1	2		81.0	2.5	/experiments/knapen_aot/videos/S_yt-4-u4Fw_J_q8_45.mp4	0.0	317.7902629375458	
83	258.165246963501	fix_post	2		12.0	81.0	2.5	/experiments/knapen_aot/videos/S_yt-4-u4Fw_J_q8_45.mp4	0.0	318.0619149208069	0.10000109672546387
84	258.26524806022644	fix_pre	0		10.0	82.0	2.5	/experiments/knapen_aot/videos/R_S_yt-X6ivH9SqGu8_306.mp4	0.0	318.16191601753235	0.08332586288452148
84	258.3403570652008	response	0	2		82.0	2.5	/experiments/knapen_aot/videos/R_S_yt-X6ivH9SqGu8_306.mp4	0.0	318.2370250225067	
84	258.34857392311096	movie	1		301.0	82.0	2.5	/experiments/knapen_aot/videos/R_S_yt-X6ivH9SqGu8_306.mp4	0.0	318.24524188041687	2.5083510875701904
84	258.82659792900085	response	1	2		82.0	2.5	/experiments/knapen_aot/videos/R_S_yt-X6ivH9SqGu8_306.mp4	0.0	318.72326588630676	
84	259.3367428779602	response	1	2		82.0	2.5	/experiments/knapen_aot/videos/R_S_yt-X6ivH9SqGu8_306.mp4	0.0	319.2334108352661	
84	259.8265299797058	response	1	2		82.0	2.5	/experiments/knapen_aot/videos/R_S_yt-X6ivH9SqGu8_306.mp4	0.0	319.7231979370117	
84	260.2737250328064	response	1	2		82.0	2.5	/experiments/knapen_aot/videos/R_S_yt-X6ivH9SqGu8_306.mp4	0.0	320.1703929901123	
84	260.77364206314087	response	1	2		82.0	2.5	/experiments/knapen_aot/videos/R_S_yt-X6ivH9SqGu8_306.mp4	0.0	320.6703100204468	
84	260.85692501068115	fix_post	2		12.0	82.0	2.5	/experiments/knapen_aot/videos/R_S_yt-X6ivH9SqGu8_306.mp4	0.0	320.75359296798706	0.09997987747192383
85	260.9569048881531	fix_pre	0		32.0	83.0	2.5	blank	1.0	320.853572845459	0.26660919189453125
85	261.2152841091156	response	0	2		83.0	2.5	blank	1.0	321.1119520664215	
85	261.2235140800476	movie	1		301.0	83.0	2.5	blank	1.0	321.1201820373535	2.5083768367767334
85	261.7403120994568	response	1	2		83.0	2.5	blank	1.0	321.6369800567627	
85	262.19861793518066	response	1	2		83.0	2.5	blank	1.0	322.0952858924866	
85	262.63195395469666	response	1	2		83.0	2.5	blank	1.0	322.52862191200256	
85	263.0652949810028	response	1	2		83.0	2.5	blank	1.0	322.9619629383087	
85	263.5236179828644	response	1	2		83.0	2.5	blank	1.0	323.4202859401703	
85	263.73189091682434	fix_post	2		12.0	83.0	2.5	blank	1.0	323.62855887413025	0.10000300407409668
87	263.83189392089844	stim	0		113.0					323.72856187820435	0.9416210651397705
87	264.0236129760742	response	0	2						323.9202809333801	
87	264.76250410079956	response	0	space						324.65917205810547	
