trial_nr	onset	event_type	phase	response	nr_frames	movie_index	movie_duration	movie_file	blank	onset_abs	duration
0	0.13197708129882812	stim	0		417.0					76.85048604011536	3.4727840423583984
0	3.596569061279297	response	0	space						80.31507802009583	
1	3.6047611236572266	stim	0		121.0					80.32327008247375	1.0082988739013672
1	4.613059997558594	stim	1		120.0					81.33156895637512	1.0000269412994385
1	4.829899072647095	response	1	space						81.54840803146362	
2	5.613086938858032	fix_pre	0		54.0	0.0	2.5	/experiments/knapen_aot/videos/S_yt-BqJHT4K7Qf8_127.mp4	0.0	82.33159589767456	0.44995617866516113
2	6.054866075515747	response	0	space		0.0	2.5	/experiments/knapen_aot/videos/S_yt-BqJHT4K7Qf8_127.mp4	0.0	82.77337503433228	
2	6.063043117523193	movie	1		300.0	0.0	2.5	/experiments/knapen_aot/videos/S_yt-BqJHT4K7Qf8_127.mp4	0.0	82.78155207633972	2.5084609985351562
2	8.57150411605835	fix_post	2		12.0	0.0	2.5	/experiments/knapen_aot/videos/S_yt-BqJHT4K7Qf8_127.mp4	0.0	85.29001307487488	0.09994888305664062
3	8.67145299911499	fix_pre	0		80.0	1.0	2.5	/experiments/knapen_aot/videos/S_comp_HK_H004_C008_PSNK_v19_SDR_PS_20180914_SDR_2K_AVC.mp4	0.0	85.38996195793152	0.6685841083526611
3	9.332282066345215	response	0	2		1.0	2.5	/experiments/knapen_aot/videos/S_comp_HK_H004_C008_PSNK_v19_SDR_PS_20180914_SDR_2K_AVC.mp4	0.0	86.05079102516174	
3	9.340037107467651	movie	1		167.0	1.0	2.5	/experiments/knapen_aot/videos/S_comp_HK_H004_C008_PSNK_v19_SDR_PS_20180914_SDR_2K_AVC.mp4	0.0	86.05854606628418	2.5063588619232178
3	11.84639596939087	fix_post	2		12.0	1.0	2.5	/experiments/knapen_aot/videos/S_comp_HK_H004_C008_PSNK_v19_SDR_PS_20180914_SDR_2K_AVC.mp4	0.0	88.5649049282074	0.0999460220336914
4	11.94634199142456	fix_pre	0		108.0	2.0	2.5	/experiments/knapen_aot/videos/R_S_yt-KNdCiW8m1uY_168.mp4	0.0	88.66485095024109	0.900393009185791
4	12.83820390701294	response	0	2		2.0	2.5	/experiments/knapen_aot/videos/R_S_yt-KNdCiW8m1uY_168.mp4	0.0	89.55671286582947	
4	12.846735000610352	movie	1		301.0	2.0	2.5	/experiments/knapen_aot/videos/R_S_yt-KNdCiW8m1uY_168.mp4	0.0	89.56524395942688	2.5079169273376465
4	15.354651927947998	fix_post	2		12.0	2.0	2.5	/experiments/knapen_aot/videos/R_S_yt-KNdCiW8m1uY_168.mp4	0.0	92.07316088676453	0.10009908676147461
5	15.454751014709473	fix_pre	0		83.0	3.0	2.5	/experiments/knapen_aot/videos/R_S_yt-mHLTJkMrkZI_143.mp4	0.0	92.173259973526	0.6916399002075195
5	16.138267993927002	response	0	2		3.0	2.5	/experiments/knapen_aot/videos/R_S_yt-mHLTJkMrkZI_143.mp4	0.0	92.85677695274353	
5	16.146390914916992	movie	1		301.0	3.0	2.5	/experiments/knapen_aot/videos/R_S_yt-mHLTJkMrkZI_143.mp4	0.0	92.86489987373352	2.5082759857177734
5	18.654666900634766	fix_post	2		12.0	3.0	2.5	/experiments/knapen_aot/videos/R_S_yt-mHLTJkMrkZI_143.mp4	0.0	95.3731758594513	0.10004019737243652
6	18.754707098007202	fix_pre	0		89.0	4.0	2.5	/experiments/knapen_aot/videos/R_S_ILSVRC2015_train_00697001.mp4	0.0	95.47321605682373	0.7415919303894043
6	19.480783939361572	response	0	2		4.0	2.5	/experiments/knapen_aot/videos/R_S_ILSVRC2015_train_00697001.mp4	0.0	96.1992928981781	
6	19.496299028396606	movie	1		300.0	4.0	2.5	/experiments/knapen_aot/videos/R_S_ILSVRC2015_train_00697001.mp4	0.0	96.21480798721313	2.5083000659942627
6	22.00459909439087	fix_post	2		12.0	4.0	2.5	/experiments/knapen_aot/videos/R_S_ILSVRC2015_train_00697001.mp4	0.0	98.7231080532074	0.1000978946685791
7	22.10469698905945	fix_pre	0		56.0	5.0	2.5	/experiments/knapen_aot/videos/R_S_yt-H-qQ0oE1kwM_6.mp4	0.0	98.82320594787598	0.46655893325805664
7	22.56316089630127	response	0	2		5.0	2.5	/experiments/knapen_aot/videos/R_S_yt-H-qQ0oE1kwM_6.mp4	0.0	99.2816698551178	
7	22.571255922317505	movie	1		301.0	5.0	2.5	/experiments/knapen_aot/videos/R_S_yt-H-qQ0oE1kwM_6.mp4	0.0	99.28976488113403	2.5083861351013184
7	25.079642057418823	fix_post	2		12.0	5.0	2.5	/experiments/knapen_aot/videos/R_S_yt-H-qQ0oE1kwM_6.mp4	0.0	101.79815101623535	0.10032796859741211
8	25.179970026016235	fix_pre	0		83.0	6.0	2.5	blank	1.0	101.89847898483276	0.6912648677825928
8	25.863116979599	response	0	2		6.0	2.5	blank	1.0	102.58162593841553	
8	25.871234893798828	movie	1		301.0	6.0	2.5	blank	1.0	102.58974385261536	2.508333206176758
8	28.221421003341675	response	1	2		6.0	2.5	blank	1.0	104.9399299621582	
8	28.379568099975586	fix_post	2		12.0	6.0	2.5	blank	1.0	105.09807705879211	0.10007786750793457
9	28.47964596748352	fix_pre	0		49.0	7.0	2.5	/experiments/knapen_aot/videos/R_S_video_inspire_california_big-sur_2020_00001.1080-h264.mp4	0.0	105.19815492630005	0.4085969924926758
9	28.879744052886963	response	0	2		7.0	2.5	/experiments/knapen_aot/videos/R_S_video_inspire_california_big-sur_2020_00001.1080-h264.mp4	0.0	105.59825301170349	
9	28.888242959976196	movie	1		172.0	7.0	2.5	/experiments/knapen_aot/videos/R_S_video_inspire_california_big-sur_2020_00001.1080-h264.mp4	0.0	105.60675191879272	2.508007049560547
9	31.396250009536743	fix_post	2		12.0	7.0	2.5	/experiments/knapen_aot/videos/R_S_video_inspire_california_big-sur_2020_00001.1080-h264.mp4	0.0	108.11475896835327	0.09997200965881348
10	31.496222019195557	fix_pre	0		59.0	8.0	2.5	/experiments/knapen_aot/videos/R_S_yt-mmvWYAttrIw_2.mp4	0.0	108.21473097801208	0.4917268753051758
10	31.97979497909546	response	0	2		8.0	2.5	/experiments/knapen_aot/videos/R_S_yt-mmvWYAttrIw_2.mp4	0.0	108.69830393791199	
10	31.987948894500732	movie	1		300.0	8.0	2.5	/experiments/knapen_aot/videos/R_S_yt-mmvWYAttrIw_2.mp4	0.0	108.70645785331726	2.508291006088257
10	34.49623990058899	fix_post	2		12.0	8.0	2.5	/experiments/knapen_aot/videos/R_S_yt-mmvWYAttrIw_2.mp4	0.0	111.21474885940552	0.10030221939086914
11	34.59654211997986	fix_pre	0		71.0	9.0	2.5	/experiments/knapen_aot/videos/S_comp_GMT314_139M_170NC_NORTH_AMERICA_AURORA__COMP_v22_SDR_20181206_v12CC_SDR_2K_AVC.mp4	0.0	111.31505107879639	0.5914168357849121
11	35.17222499847412	response	0	2		9.0	2.5	/experiments/knapen_aot/videos/S_comp_GMT314_139M_170NC_NORTH_AMERICA_AURORA__COMP_v22_SDR_20181206_v12CC_SDR_2K_AVC.mp4	0.0	111.89073395729065	
11	35.18795895576477	movie	1		164.0	9.0	2.5	/experiments/knapen_aot/videos/S_comp_GMT314_139M_170NC_NORTH_AMERICA_AURORA__COMP_v22_SDR_20181206_v12CC_SDR_2K_AVC.mp4	0.0	111.9064679145813	2.508265972137451
11	37.69622492790222	fix_post	2		12.0	9.0	2.5	/experiments/knapen_aot/videos/S_comp_GMT314_139M_170NC_NORTH_AMERICA_AURORA__COMP_v22_SDR_20181206_v12CC_SDR_2K_AVC.mp4	0.0	114.41473388671875	0.10003018379211426
12	37.796255111694336	fix_pre	0		105.0	10.0	2.5	/experiments/knapen_aot/videos/R_S_yt-wnQFgNEnHUI_109.mp4	0.0	114.51476407051086	0.8749918937683105
12	38.66300892829895	response	0	2		10.0	2.5	/experiments/knapen_aot/videos/R_S_yt-wnQFgNEnHUI_109.mp4	0.0	115.38151788711548	
12	38.67124700546265	movie	1		301.0	10.0	2.5	/experiments/knapen_aot/videos/R_S_yt-wnQFgNEnHUI_109.mp4	0.0	115.38975596427917	2.50860595703125
12	41.1798529624939	fix_post	2		12.0	10.0	2.5	/experiments/knapen_aot/videos/R_S_yt-wnQFgNEnHUI_109.mp4	0.0	117.89836192131042	0.0998220443725586
13	41.279675006866455	fix_pre	0		94.0	11.0	2.5	/experiments/knapen_aot/videos/R_S_yt-ak01CHYgEOs_1383.mp4	0.0	117.99818396568298	0.7832040786743164
13	42.054733991622925	response	0	2		11.0	2.5	/experiments/knapen_aot/videos/R_S_yt-ak01CHYgEOs_1383.mp4	0.0	118.77324295043945	
13	42.06287908554077	movie	1		300.0	11.0	2.5	/experiments/knapen_aot/videos/R_S_yt-ak01CHYgEOs_1383.mp4	0.0	118.7813880443573	2.5083839893341064
13	44.57126307487488	fix_post	2		12.0	11.0	2.5	/experiments/knapen_aot/videos/R_S_yt-ak01CHYgEOs_1383.mp4	0.0	121.2897720336914	0.09992098808288574
14	44.671184062957764	fix_pre	0		56.0	12.0	2.5	/experiments/knapen_aot/videos/R_S_yt-kawmL3oVw8c_2.mp4	0.0	121.38969302177429	0.4669339656829834
14	45.12964105606079	response	0	2		12.0	2.5	/experiments/knapen_aot/videos/R_S_yt-kawmL3oVw8c_2.mp4	0.0	121.84815001487732	
14	45.13811802864075	movie	1		301.0	12.0	2.5	/experiments/knapen_aot/videos/R_S_yt-kawmL3oVw8c_2.mp4	0.0	121.85662698745728	2.508152961730957
14	47.646270990371704	fix_post	2		12.0	12.0	2.5	/experiments/knapen_aot/videos/R_S_yt-kawmL3oVw8c_2.mp4	0.0	124.36477994918823	0.09997010231018066
15	47.746241092681885	fix_pre	0		74.0	13.0	2.5	blank	1.0	124.46475005149841	0.6166219711303711
15	48.354676961898804	response	0	2		13.0	2.5	blank	1.0	125.07318592071533	
15	48.362863063812256	movie	1		301.0	13.0	2.5	blank	1.0	125.08137202262878	2.5083470344543457
15	49.13797092437744	response	1	2		13.0	2.5	blank	1.0	125.85647988319397	
15	50.8712100982666	fix_post	2		12.0	13.0	2.5	blank	1.0	127.58971905708313	0.10018801689147949
16	50.97139811515808	fix_pre	0		53.0	14.0	2.5	/experiments/knapen_aot/videos/S_8amznWxLS04_212.mp4	0.0	127.68990707397461	0.4414088726043701
16	51.40465998649597	response	0	2		14.0	2.5	/experiments/knapen_aot/videos/S_8amznWxLS04_212.mp4	0.0	128.1231689453125	
16	51.41280698776245	movie	1		301.0	14.0	2.5	/experiments/knapen_aot/videos/S_8amznWxLS04_212.mp4	0.0	128.13131594657898	2.5084381103515625
16	53.921245098114014	fix_post	2		12.0	14.0	2.5	/experiments/knapen_aot/videos/S_8amznWxLS04_212.mp4	0.0	130.63975405693054	0.09997081756591797
17	54.02121591567993	fix_pre	0		71.0	15.0	2.5	/experiments/knapen_aot/videos/S_flickr-51283549@N02-23064904264_16.mp4	0.0	130.73972487449646	0.5916202068328857
17	54.604695081710815	response	0	2		15.0	2.5	/experiments/knapen_aot/videos/S_flickr-51283549@N02-23064904264_16.mp4	0.0	131.32320404052734	
17	54.61283612251282	movie	1		163.0	15.0	2.5	/experiments/knapen_aot/videos/S_flickr-51283549@N02-23064904264_16.mp4	0.0	131.33134508132935	2.508349895477295
17	57.12118601799011	fix_post	2		12.0	15.0	2.5	/experiments/knapen_aot/videos/S_flickr-51283549@N02-23064904264_16.mp4	0.0	133.83969497680664	0.10014510154724121
18	57.22133111953735	fix_pre	0		52.0	16.0	2.5	/experiments/knapen_aot/videos/R_S_yt-z16pdVTZK1o_3.mp4	0.0	133.93984007835388	0.43314695358276367
18	57.646279096603394	response	0	2		16.0	2.5	/experiments/knapen_aot/videos/R_S_yt-z16pdVTZK1o_3.mp4	0.0	134.36478805541992	
18	57.65447807312012	movie	1		301.0	16.0	2.5	/experiments/knapen_aot/videos/R_S_yt-z16pdVTZK1o_3.mp4	0.0	134.37298703193665	2.508354902267456
18	60.16283297538757	fix_post	2		12.0	16.0	2.5	/experiments/knapen_aot/videos/R_S_yt-z16pdVTZK1o_3.mp4	0.0	136.8813419342041	0.10021615028381348
19	60.26304912567139	fix_pre	0		80.0	17.0	2.5	/experiments/knapen_aot/videos/R_S_ILSVRC2015_train_00373000.mp4	0.0	136.98155808448792	0.6665728092193604
19	60.92130208015442	response	0	2		17.0	2.5	/experiments/knapen_aot/videos/R_S_ILSVRC2015_train_00373000.mp4	0.0	137.63981103897095	
19	60.92962193489075	movie	1		301.0	17.0	2.5	/experiments/knapen_aot/videos/R_S_ILSVRC2015_train_00373000.mp4	0.0	137.64813089370728	2.508139133453369
19	63.437761068344116	fix_post	2		12.0	17.0	2.5	/experiments/knapen_aot/videos/R_S_ILSVRC2015_train_00373000.mp4	0.0	140.15627002716064	0.10009384155273438
20	63.53785490989685	fix_pre	0		93.0	18.0	2.5	/experiments/knapen_aot/videos/R_S_yt-vjed5qyKqZw_1.mp4	0.0	140.25636386871338	0.7749590873718262
20	64.30471396446228	response	0	2		18.0	2.5	/experiments/knapen_aot/videos/R_S_yt-vjed5qyKqZw_1.mp4	0.0	141.0232229232788	
20	64.31281399726868	movie	1		301.0	18.0	2.5	/experiments/knapen_aot/videos/R_S_yt-vjed5qyKqZw_1.mp4	0.0	141.0313229560852	2.5083320140838623
20	66.82114601135254	fix_post	2		12.0	18.0	2.5	/experiments/knapen_aot/videos/R_S_yt-vjed5qyKqZw_1.mp4	0.0	143.53965497016907	0.10001707077026367
21	66.9211630821228	fix_pre	0		84.0	19.0	2.5	/experiments/knapen_aot/videos/R_S_yt-gDZnJCR2uXI_18.mp4	0.0	143.63967204093933	0.6999309062957764
21	67.61292791366577	response	0	2		19.0	2.5	/experiments/knapen_aot/videos/R_S_yt-gDZnJCR2uXI_18.mp4	0.0	144.3314368724823	
21	67.62109398841858	movie	1		301.0	19.0	2.5	/experiments/knapen_aot/videos/R_S_yt-gDZnJCR2uXI_18.mp4	0.0	144.3396029472351	2.5083930492401123
21	70.12948703765869	fix_post	2		12.0	19.0	2.5	/experiments/knapen_aot/videos/R_S_yt-gDZnJCR2uXI_18.mp4	0.0	146.84799599647522	0.09992694854736328
22	70.22941398620605	fix_pre	0		63.0	20.0	2.5	blank	1.0	146.94792294502258	0.5250110626220703
22	70.74625205993652	response	0	2		20.0	2.5	blank	1.0	147.46476101875305	
22	70.75442504882812	movie	1		301.0	20.0	2.5	blank	1.0	147.47293400764465	2.508415937423706
22	71.42958807945251	response	1	2		20.0	2.5	blank	1.0	148.14809703826904	
22	73.26284098625183	fix_post	2		12.0	20.0	2.5	blank	1.0	149.98134994506836	0.09988903999328613
23	73.36273002624512	fix_pre	0		29.0	21.0	2.5	/experiments/knapen_aot/videos/R_S_yt-lADkWM79teI_18.mp4	0.0	150.08123898506165	0.24169397354125977
23	73.59621906280518	response	0	2		21.0	2.5	/experiments/knapen_aot/videos/R_S_yt-lADkWM79teI_18.mp4	0.0	150.3147280216217	
23	73.60442399978638	movie	1		300.0	21.0	2.5	/experiments/knapen_aot/videos/R_S_yt-lADkWM79teI_18.mp4	0.0	150.3229329586029	2.5083820819854736
23	76.11280608177185	fix_post	2		12.0	21.0	2.5	/experiments/knapen_aot/videos/R_S_yt-lADkWM79teI_18.mp4	0.0	152.83131504058838	0.09993100166320801
24	76.21273708343506	fix_pre	0		182.0	22.0	2.5	/experiments/knapen_aot/videos/S_yt-y6zr69M0yHI_76.mp4	0.0	152.9312460422516	1.5166690349578857
24	77.72123408317566	response	0	2		22.0	2.5	/experiments/knapen_aot/videos/S_yt-y6zr69M0yHI_76.mp4	0.0	154.4397430419922	
24	77.72940611839294	movie	1		301.0	22.0	2.5	/experiments/knapen_aot/videos/S_yt-y6zr69M0yHI_76.mp4	0.0	154.44791507720947	2.5083649158477783
24	80.23777103424072	fix_post	2		12.0	22.0	2.5	/experiments/knapen_aot/videos/S_yt-y6zr69M0yHI_76.mp4	0.0	156.95627999305725	0.10000991821289062
25	80.33778095245361	fix_pre	0		98.0	23.0	2.5	/experiments/knapen_aot/videos/S_wc-zkO_omg3nTvg_5.mp4	0.0	157.05628991127014	0.8166680335998535
25	81.14620995521545	response	0	2		23.0	2.5	/experiments/knapen_aot/videos/S_wc-zkO_omg3nTvg_5.mp4	0.0	157.86471891403198	
25	81.15444898605347	movie	1		169.0	23.0	2.5	/experiments/knapen_aot/videos/S_wc-zkO_omg3nTvg_5.mp4	0.0	157.87295794487	2.508247137069702
25	83.66269612312317	fix_post	2		12.0	23.0	2.5	/experiments/knapen_aot/videos/S_wc-zkO_omg3nTvg_5.mp4	0.0	160.3812050819397	0.10005998611450195
26	83.76275610923767	fix_pre	0		80.0	24.0	2.5	/experiments/knapen_aot/videos/S_pexels-rodnae-productions-5993237.mp4	0.0	160.4812650680542	0.6666228771209717
26	84.42123007774353	response	0	2		24.0	2.5	/experiments/knapen_aot/videos/S_pexels-rodnae-productions-5993237.mp4	0.0	161.13973903656006	
26	84.42937898635864	movie	1		166.0	24.0	2.5	/experiments/knapen_aot/videos/S_pexels-rodnae-productions-5993237.mp4	0.0	161.14788794517517	2.5084590911865234
26	86.93783807754517	fix_post	2		12.0	24.0	2.5	/experiments/knapen_aot/videos/S_pexels-rodnae-productions-5993237.mp4	0.0	163.6563470363617	0.09994888305664062
27	87.0377869606018	fix_pre	0		129.0	25.0	2.5	/experiments/knapen_aot/videos/R_S_yt-pPIHiIYSjW8_653.mp4	0.0	163.75629591941833	1.074958086013794
27	88.09696912765503	response	0	2		25.0	2.5	/experiments/knapen_aot/videos/R_S_yt-pPIHiIYSjW8_653.mp4	0.0	164.81547808647156	
27	88.1127450466156	movie	1		300.0	25.0	2.5	/experiments/knapen_aot/videos/R_S_yt-pPIHiIYSjW8_653.mp4	0.0	164.83125400543213	2.5082099437713623
27	90.62095499038696	fix_post	2		12.0	25.0	2.5	/experiments/knapen_aot/videos/R_S_yt-pPIHiIYSjW8_653.mp4	0.0	167.3394639492035	0.10006308555603027
28	90.721018075943	fix_pre	0		102.0	26.0	2.5	/experiments/knapen_aot/videos/R_S_yt-d5jBQ-LOW2I_17.mp4	0.0	167.43952703475952	0.8499958515167236
28	91.56282997131348	response	0	2		26.0	2.5	/experiments/knapen_aot/videos/R_S_yt-d5jBQ-LOW2I_17.mp4	0.0	168.28133893013	
28	91.57101392745972	movie	1		301.0	26.0	2.5	/experiments/knapen_aot/videos/R_S_yt-d5jBQ-LOW2I_17.mp4	0.0	168.28952288627625	2.508336067199707
28	94.07934999465942	fix_post	2		12.0	26.0	2.5	/experiments/knapen_aot/videos/R_S_yt-d5jBQ-LOW2I_17.mp4	0.0	170.79785895347595	0.10004091262817383
29	94.1793909072876	fix_pre	0		63.0	27.0	2.5	blank	1.0	170.89789986610413	0.5248610973358154
29	94.6961920261383	response	0	2		27.0	2.5	blank	1.0	171.41470098495483	
29	94.70425200462341	movie	1		301.0	27.0	2.5	blank	1.0	171.42276096343994	2.508455991744995
29	95.91269993782043	response	1	2		27.0	2.5	blank	1.0	172.63120889663696	
29	97.21270799636841	fix_post	2		12.0	27.0	2.5	blank	1.0	173.93121695518494	0.09998106956481934
30	97.31268906593323	fix_pre	0		69.0	28.0	2.5	/experiments/knapen_aot/videos/R_S_flickr-51283549@N02-23064904264_16.mp4	0.0	174.03119802474976	0.5749478340148926
30	97.87949204444885	response	0	2		28.0	2.5	/experiments/knapen_aot/videos/R_S_flickr-51283549@N02-23064904264_16.mp4	0.0	174.59800100326538	
30	97.88763689994812	movie	1		164.0	28.0	2.5	/experiments/knapen_aot/videos/R_S_flickr-51283549@N02-23064904264_16.mp4	0.0	174.60614585876465	2.50838303565979
30	100.39601993560791	fix_post	2		12.0	28.0	2.5	/experiments/knapen_aot/videos/R_S_flickr-51283549@N02-23064904264_16.mp4	0.0	177.11452889442444	0.09990501403808594
31	100.495924949646	fix_pre	0		88.0	29.0	2.5	/experiments/knapen_aot/videos/R_S_yt-fk-z6WCvjjA_3.mp4	0.0	177.21443390846252	0.7334301471710205
31	101.22125792503357	response	0	2		29.0	2.5	/experiments/knapen_aot/videos/R_S_yt-fk-z6WCvjjA_3.mp4	0.0	177.9397668838501	
31	101.22935509681702	movie	1		301.0	29.0	2.5	/experiments/knapen_aot/videos/R_S_yt-fk-z6WCvjjA_3.mp4	0.0	177.94786405563354	2.5082168579101562
31	103.73757195472717	fix_post	2		12.0	29.0	2.5	/experiments/knapen_aot/videos/R_S_yt-fk-z6WCvjjA_3.mp4	0.0	180.4560809135437	0.10007095336914062
32	103.83764290809631	fix_pre	0		112.0	30.0	2.5	/experiments/knapen_aot/videos/S_yt-11VGDAOVEag_8.mp4	0.0	180.55615186691284	0.9333000183105469
32	104.76297497749329	response	0	2		30.0	2.5	/experiments/knapen_aot/videos/S_yt-11VGDAOVEag_8.mp4	0.0	181.48148393630981	
32	104.77094292640686	movie	1		301.0	30.0	2.5	/experiments/knapen_aot/videos/S_yt-11VGDAOVEag_8.mp4	0.0	181.4894518852234	2.508416175842285
32	107.27935910224915	fix_post	2		12.0	30.0	2.5	/experiments/knapen_aot/videos/S_yt-11VGDAOVEag_8.mp4	0.0	183.99786806106567	0.09999895095825195
33	107.3793580532074	fix_pre	0		79.0	31.0	2.5	/experiments/knapen_aot/videos/S_P005_C002_UHD_SDR_2K_AVC.mp4	0.0	184.09786701202393	0.6583209037780762
33	108.02945709228516	response	0	2		31.0	2.5	/experiments/knapen_aot/videos/S_P005_C002_UHD_SDR_2K_AVC.mp4	0.0	184.74796605110168	
33	108.03767895698547	movie	1		169.0	31.0	2.5	/experiments/knapen_aot/videos/S_P005_C002_UHD_SDR_2K_AVC.mp4	0.0	184.756187915802	2.5083320140838623
33	110.54601097106934	fix_post	2		12.0	31.0	2.5	/experiments/knapen_aot/videos/S_P005_C002_UHD_SDR_2K_AVC.mp4	0.0	187.26451992988586	0.10000801086425781
34	110.6460189819336	fix_pre	0		150.0	32.0	2.5	/experiments/knapen_aot/videos/R_S_yt-s-J3C6e5A3Q_18.mp4	0.0	187.36452794075012	1.2499561309814453
34	111.88786792755127	response	0	2		32.0	2.5	/experiments/knapen_aot/videos/R_S_yt-s-J3C6e5A3Q_18.mp4	0.0	188.6063768863678	
34	111.89597511291504	movie	1		298.0	32.0	2.5	/experiments/knapen_aot/videos/R_S_yt-s-J3C6e5A3Q_18.mp4	0.0	188.61448407173157	2.508281946182251
34	114.40425705909729	fix_post	2		12.0	32.0	2.5	/experiments/knapen_aot/videos/R_S_yt-s-J3C6e5A3Q_18.mp4	0.0	191.12276601791382	0.10004901885986328
35	114.50430607795715	fix_pre	0		132.0	33.0	2.5	blank	1.0	191.22281503677368	1.099951982498169
35	115.59601497650146	response	0	2		33.0	2.5	blank	1.0	192.314523935318	
35	115.60425806045532	movie	1		301.0	33.0	2.5	blank	1.0	192.32276701927185	2.508394956588745
35	118.11265301704407	fix_post	2		12.0	33.0	2.5	blank	1.0	194.8311619758606	0.09996891021728516
36	118.21262192726135	fix_pre	0		31.0	34.0	2.5	/experiments/knapen_aot/videos/R_S_yt-CH4HfNRC1hY_40.mp4	0.0	194.93113088607788	0.25827598571777344
36	118.46268391609192	response	0	2		34.0	2.5	/experiments/knapen_aot/videos/R_S_yt-CH4HfNRC1hY_40.mp4	0.0	195.18119287490845	
36	118.47089791297913	movie	1		301.0	34.0	2.5	/experiments/knapen_aot/videos/R_S_yt-CH4HfNRC1hY_40.mp4	0.0	195.18940687179565	2.5082690715789795
36	120.9791669845581	fix_post	2		12.0	34.0	2.5	/experiments/knapen_aot/videos/R_S_yt-CH4HfNRC1hY_40.mp4	0.0	197.69767594337463	0.10010099411010742
37	121.07926797866821	fix_pre	0		97.0	35.0	2.5	/experiments/knapen_aot/videos/R_S_comp_C004_C003_PS_v01_SDR_PS_20180925_SDR_2K_AVC.mp4	0.0	197.79777693748474	0.8083200454711914
37	121.87933111190796	response	0	2		35.0	2.5	/experiments/knapen_aot/videos/R_S_comp_C004_C003_PS_v01_SDR_PS_20180925_SDR_2K_AVC.mp4	0.0	198.5978400707245	
37	121.8875880241394	movie	1		175.0	35.0	2.5	/experiments/knapen_aot/videos/R_S_comp_C004_C003_PS_v01_SDR_PS_20180925_SDR_2K_AVC.mp4	0.0	198.60609698295593	2.508347988128662
37	124.39593601226807	fix_post	2		12.0	35.0	2.5	/experiments/knapen_aot/videos/R_S_comp_C004_C003_PS_v01_SDR_PS_20180925_SDR_2K_AVC.mp4	0.0	201.1144449710846	0.0999460220336914
38	124.49588203430176	fix_pre	0		98.0	36.0	2.5	/experiments/knapen_aot/videos/R_S_I003_C015_SDR_2K_AVC.mp4	0.0	201.2143909931183	0.8166379928588867
38	125.30432605743408	response	0	2		36.0	2.5	/experiments/knapen_aot/videos/R_S_I003_C015_SDR_2K_AVC.mp4	0.0	202.0228350162506	
38	125.31252002716064	movie	1		172.0	36.0	2.5	/experiments/knapen_aot/videos/R_S_I003_C015_SDR_2K_AVC.mp4	0.0	202.03102898597717	2.50832200050354
38	127.82084202766418	fix_post	2		12.0	36.0	2.5	/experiments/knapen_aot/videos/R_S_I003_C015_SDR_2K_AVC.mp4	0.0	204.5393509864807	0.10005903244018555
39	127.92090106010437	fix_pre	0		87.0	37.0	2.5	/experiments/knapen_aot/videos/R_S_ILSVRC2015_train_00405001.mp4	0.0	204.6394100189209	0.7249360084533691
39	128.63766193389893	response	0	2		37.0	2.5	/experiments/knapen_aot/videos/R_S_ILSVRC2015_train_00405001.mp4	0.0	205.35617089271545	
39	128.64583706855774	movie	1		301.0	37.0	2.5	/experiments/knapen_aot/videos/R_S_ILSVRC2015_train_00405001.mp4	0.0	205.36434602737427	2.508378028869629
39	131.15421509742737	fix_post	2		12.0	37.0	2.5	/experiments/knapen_aot/videos/R_S_ILSVRC2015_train_00405001.mp4	0.0	207.8727240562439	0.09997200965881348
40	131.25418710708618	fix_pre	0		97.0	38.0	2.5	/experiments/knapen_aot/videos/R_S_yt-MsSEF0krKE4_149.mp4	0.0	207.9726960659027	0.8083248138427734
40	132.05432105064392	response	0	2		38.0	2.5	/experiments/knapen_aot/videos/R_S_yt-MsSEF0krKE4_149.mp4	0.0	208.77283000946045	
40	132.06251192092896	movie	1		301.0	38.0	2.5	/experiments/knapen_aot/videos/R_S_yt-MsSEF0krKE4_149.mp4	0.0	208.78102087974548	2.508352041244507
40	134.57086396217346	fix_post	2		12.0	38.0	2.5	/experiments/knapen_aot/videos/R_S_yt-MsSEF0krKE4_149.mp4	0.0	211.28937292099	0.09993314743041992
41	134.67079710960388	fix_pre	0		54.0	39.0	2.5	/experiments/knapen_aot/videos/R_S_comp_C004_C003_PS_v01_SDR_PS_20180925_SDR_2K_AVC.mp4	0.0	211.3893060684204	0.4500110149383545
41	135.11261010169983	response	0	2		39.0	2.5	/experiments/knapen_aot/videos/R_S_comp_C004_C003_PS_v01_SDR_PS_20180925_SDR_2K_AVC.mp4	0.0	211.83111906051636	
41	135.12080812454224	movie	1		169.0	39.0	2.5	/experiments/knapen_aot/videos/R_S_comp_C004_C003_PS_v01_SDR_PS_20180925_SDR_2K_AVC.mp4	0.0	211.83931708335876	2.5083649158477783
41	137.62917304039001	fix_post	2		12.0	39.0	2.5	/experiments/knapen_aot/videos/R_S_comp_C004_C003_PS_v01_SDR_PS_20180925_SDR_2K_AVC.mp4	0.0	214.34768199920654	0.10000801086425781
42	137.72918105125427	fix_pre	0		62.0	40.0	2.5	blank	1.0	214.4476900100708	0.5177850723266602
42	138.23762798309326	response	0	2		40.0	2.5	blank	1.0	214.9561369419098	
42	138.24696612358093	movie	1		301.0	40.0	2.5	blank	1.0	214.96547508239746	2.5071518421173096
42	140.75411796569824	fix_post	2		12.0	40.0	2.5	blank	1.0	217.47262692451477	0.10009503364562988
43	140.85421299934387	fix_pre	0		76.0	41.0	2.5	/experiments/knapen_aot/videos/S_ILSVRC2015_train_00556000.mp4	0.0	217.5727219581604	0.6332080364227295
43	141.47175002098083	response	0	2		41.0	2.5	/experiments/knapen_aot/videos/S_ILSVRC2015_train_00556000.mp4	0.0	218.19025897979736	
43	141.4874210357666	movie	1		301.0	41.0	2.5	/experiments/knapen_aot/videos/S_ILSVRC2015_train_00556000.mp4	0.0	218.20592999458313	2.5084540843963623
43	143.99587512016296	fix_post	2		12.0	41.0	2.5	/experiments/knapen_aot/videos/S_ILSVRC2015_train_00556000.mp4	0.0	220.7143840789795	0.09997892379760742
44	144.09585404396057	fix_pre	0		121.0	42.0	2.5	/experiments/knapen_aot/videos/R_S_ILSVRC2015_train_00324001.mp4	0.0	220.8143630027771	1.008246898651123
44	145.09594011306763	response	0	2		42.0	2.5	/experiments/knapen_aot/videos/R_S_ILSVRC2015_train_00324001.mp4	0.0	221.81444907188416	
44	145.1041009426117	movie	1		301.0	42.0	2.5	/experiments/knapen_aot/videos/R_S_ILSVRC2015_train_00324001.mp4	0.0	221.82260990142822	2.5083630084991455
44	147.61246395111084	fix_post	2		12.0	42.0	2.5	/experiments/knapen_aot/videos/R_S_ILSVRC2015_train_00324001.mp4	0.0	224.33097290992737	0.10000896453857422
45	147.7124729156494	fix_pre	0		157.0	43.0	2.5	/experiments/knapen_aot/videos/S_yt-mmvWYAttrIw_2.mp4	0.0	224.43098187446594	1.3082900047302246
45	149.00502705574036	response	0	2		43.0	2.5	/experiments/knapen_aot/videos/S_yt-mmvWYAttrIw_2.mp4	0.0	225.72353601455688	
45	149.02076292037964	movie	1		301.0	43.0	2.5	/experiments/knapen_aot/videos/S_yt-mmvWYAttrIw_2.mp4	0.0	225.73927187919617	2.508301019668579
45	151.52906394004822	fix_post	2		12.0	43.0	2.5	/experiments/knapen_aot/videos/S_yt-mmvWYAttrIw_2.mp4	0.0	228.24757289886475	0.1000831127166748
46	151.6291470527649	fix_pre	0		98.0	44.0	2.5	/experiments/knapen_aot/videos/S_yt-GFcuvjHJmS4_86.mp4	0.0	228.34765601158142	0.816601037979126
46	152.4375650882721	response	0	2		44.0	2.5	/experiments/knapen_aot/videos/S_yt-GFcuvjHJmS4_86.mp4	0.0	229.15607404708862	
46	152.44574809074402	movie	1		301.0	44.0	2.5	/experiments/knapen_aot/videos/S_yt-GFcuvjHJmS4_86.mp4	0.0	229.16425704956055	2.5083439350128174
46	154.95409202575684	fix_post	2		12.0	44.0	2.5	/experiments/knapen_aot/videos/S_yt-GFcuvjHJmS4_86.mp4	0.0	231.67260098457336	0.10005998611450195
47	155.05415201187134	fix_pre	0		109.0	45.0	2.5	/experiments/knapen_aot/videos/R_S_yt-ZzC953ahaxs_195.mp4	0.0	231.77266097068787	0.9093899726867676
47	155.9542191028595	response	0	2		45.0	2.5	/experiments/knapen_aot/videos/R_S_yt-ZzC953ahaxs_195.mp4	0.0	232.67272806167603	
47	155.9635419845581	movie	1		301.0	45.0	2.5	/experiments/knapen_aot/videos/R_S_yt-ZzC953ahaxs_195.mp4	0.0	232.68205094337463	2.507185935974121
47	158.47072792053223	fix_post	2		12.0	45.0	2.5	/experiments/knapen_aot/videos/R_S_yt-ZzC953ahaxs_195.mp4	0.0	235.18923687934875	0.09999608993530273
48	158.57072401046753	fix_pre	0		81.0	46.0	2.5	/experiments/knapen_aot/videos/S_yt--I4Ggi6-QOE_23.mp4	0.0	235.28923296928406	0.6749439239501953
48	159.2375431060791	response	0	2		46.0	2.5	/experiments/knapen_aot/videos/S_yt--I4Ggi6-QOE_23.mp4	0.0	235.95605206489563	
48	159.24566793441772	movie	1		301.0	46.0	2.5	/experiments/knapen_aot/videos/S_yt--I4Ggi6-QOE_23.mp4	0.0	235.96417689323425	2.5084190368652344
48	161.75408697128296	fix_post	2		12.0	46.0	2.5	/experiments/knapen_aot/videos/S_yt--I4Ggi6-QOE_23.mp4	0.0	238.4725959300995	0.09996509552001953
49	161.85405206680298	fix_pre	0		54.0	47.0	2.5	/experiments/knapen_aot/videos/S_yt-xqjVM0Vj4mI_161.mp4	0.0	238.5725610256195	0.4499969482421875
49	162.29580211639404	response	0	2		47.0	2.5	/experiments/knapen_aot/videos/S_yt-xqjVM0Vj4mI_161.mp4	0.0	239.01431107521057	
49	162.30404901504517	movie	1		301.0	47.0	2.5	/experiments/knapen_aot/videos/S_yt-xqjVM0Vj4mI_161.mp4	0.0	239.0225579738617	2.508327007293701
49	164.81237602233887	fix_post	2		12.0	47.0	2.5	/experiments/knapen_aot/videos/S_yt-xqjVM0Vj4mI_161.mp4	0.0	241.5308849811554	0.10003089904785156
50	164.91240692138672	fix_pre	0		238.0	48.0	2.5	/experiments/knapen_aot/videos/S_ILSVRC2015_train_00572001.mp4	0.0	241.63091588020325	1.983309030532837
50	166.88751602172852	response	0	2		48.0	2.5	/experiments/knapen_aot/videos/S_ILSVRC2015_train_00572001.mp4	0.0	243.60602498054504	
50	166.89571595191956	movie	1		300.0	48.0	2.5	/experiments/knapen_aot/videos/S_ILSVRC2015_train_00572001.mp4	0.0	243.61422491073608	2.508289098739624
50	169.40400505065918	fix_post	2		12.0	48.0	2.5	/experiments/knapen_aot/videos/S_ILSVRC2015_train_00572001.mp4	0.0	246.1225140094757	0.09996485710144043
51	169.50396990776062	fix_pre	0		173.0	49.0	2.5	blank	1.0	246.22247886657715	1.4417672157287598
51	170.9375081062317	response	0	2		49.0	2.5	blank	1.0	247.65601706504822	
51	170.94573712348938	movie	1		301.0	49.0	2.5	blank	1.0	247.6642460823059	2.50827693939209
51	172.63743591308594	response	1	2		49.0	2.5	blank	1.0	249.35594487190247	
51	173.45401406288147	fix_post	2		12.0	49.0	2.5	blank	1.0	250.172523021698	0.0999908447265625
52	173.55400490760803	fix_pre	0		204.0	50.0	2.5	/experiments/knapen_aot/videos/S_yt-BJsMGxfjrZk_59.mp4	0.0	250.27251386642456	1.7009270191192627
52	175.24580597877502	response	0	2		50.0	2.5	/experiments/knapen_aot/videos/S_yt-BJsMGxfjrZk_59.mp4	0.0	251.96431493759155	
52	175.2549319267273	movie	1		301.0	50.0	2.5	/experiments/knapen_aot/videos/S_yt-BJsMGxfjrZk_59.mp4	0.0	251.97344088554382	2.5074291229248047
52	177.7623610496521	fix_post	2		12.0	50.0	2.5	/experiments/knapen_aot/videos/S_yt-BJsMGxfjrZk_59.mp4	0.0	254.48087000846863	0.09998488426208496
53	177.86234593391418	fix_pre	0		65.0	51.0	2.5	/experiments/knapen_aot/videos/R_S_yt-xqjVM0Vj4mI_161.mp4	0.0	254.5808548927307	0.5416150093078613
53	178.39576411247253	response	0	2		51.0	2.5	/experiments/knapen_aot/videos/R_S_yt-xqjVM0Vj4mI_161.mp4	0.0	255.11427307128906	
53	178.40396094322205	movie	1		301.0	51.0	2.5	/experiments/knapen_aot/videos/R_S_yt-xqjVM0Vj4mI_161.mp4	0.0	255.12246990203857	2.50844407081604
53	180.9124050140381	fix_post	2		12.0	51.0	2.5	/experiments/knapen_aot/videos/R_S_yt-xqjVM0Vj4mI_161.mp4	0.0	257.6309139728546	0.09992599487304688
54	181.01233100891113	fix_pre	0		120.0	52.0	2.5	/experiments/knapen_aot/videos/S_ILSVRC2015_train_00079001.mp4	0.0	257.73083996772766	0.9999439716339111
54	182.00409412384033	response	0	2		52.0	2.5	/experiments/knapen_aot/videos/S_ILSVRC2015_train_00079001.mp4	0.0	258.72260308265686	
54	182.01227498054504	movie	1		301.0	52.0	2.5	/experiments/knapen_aot/videos/S_ILSVRC2015_train_00079001.mp4	0.0	258.7307839393616	2.508333921432495
54	184.52060890197754	fix_post	2		12.0	52.0	2.5	/experiments/knapen_aot/videos/S_ILSVRC2015_train_00079001.mp4	0.0	261.23911786079407	0.10008120536804199
55	184.62069010734558	fix_pre	0		59.0	53.0	2.5	/experiments/knapen_aot/videos/R_S_yt-RHPOCG1mII0_138.mp4	0.0	261.3391990661621	0.49160289764404297
55	185.0966169834137	response	0	2		53.0	2.5	/experiments/knapen_aot/videos/R_S_yt-RHPOCG1mII0_138.mp4	0.0	261.8151259422302	
55	185.11229300498962	movie	1		301.0	53.0	2.5	/experiments/knapen_aot/videos/R_S_yt-RHPOCG1mII0_138.mp4	0.0	261.83080196380615	2.50839900970459
55	187.6206920146942	fix_post	2		12.0	53.0	2.5	/experiments/knapen_aot/videos/R_S_yt-RHPOCG1mII0_138.mp4	0.0	264.33920097351074	0.09995388984680176
56	187.72064590454102	fix_pre	0		58.0	54.0	2.5	/experiments/knapen_aot/videos/S_yt-rIQoRErqnlI_17.mp4	0.0	264.43915486335754	0.48326802253723145
56	188.19576501846313	response	0	2		54.0	2.5	/experiments/knapen_aot/videos/S_yt-rIQoRErqnlI_17.mp4	0.0	264.91427397727966	
56	188.20391392707825	movie	1		301.0	54.0	2.5	/experiments/knapen_aot/videos/S_yt-rIQoRErqnlI_17.mp4	0.0	264.9224228858948	2.5083789825439453
56	190.7122929096222	fix_post	2		12.0	54.0	2.5	/experiments/knapen_aot/videos/S_yt-rIQoRErqnlI_17.mp4	0.0	267.4308018684387	0.09999513626098633
57	190.81228804588318	fix_pre	0		264.0	55.0	2.5	blank	1.0	267.5307970046997	2.1999740600585938
57	193.00403690338135	response	0	2		55.0	2.5	blank	1.0	269.7225458621979	
57	193.01226210594177	movie	1		301.0	55.0	2.5	blank	1.0	269.7307710647583	2.508312940597534
57	195.5205750465393	fix_post	2		12.0	55.0	2.5	blank	1.0	272.23908400535583	0.09999299049377441
58	195.62056803703308	fix_pre	0		33.0	56.0	2.5	/experiments/knapen_aot/videos/R_S_yt--cAfxH1WnPo_3.mp4	0.0	272.3390769958496	0.27498602867126465
58	195.87983894348145	response	0	2		56.0	2.5	/experiments/knapen_aot/videos/R_S_yt--cAfxH1WnPo_3.mp4	0.0	272.598347902298	
58	195.89555406570435	movie	1		300.0	56.0	2.5	/experiments/knapen_aot/videos/R_S_yt--cAfxH1WnPo_3.mp4	0.0	272.6140630245209	2.508340835571289
58	198.40389490127563	fix_post	2		12.0	56.0	2.5	/experiments/knapen_aot/videos/R_S_yt--cAfxH1WnPo_3.mp4	0.0	275.12240386009216	0.09998321533203125
59	198.50387811660767	fix_pre	0		207.0	57.0	2.5	/experiments/knapen_aot/videos/S_ILSVRC2015_train_00572001.mp4	0.0	275.2223870754242	1.7249867916107178
59	200.2207179069519	response	0	2		57.0	2.5	/experiments/knapen_aot/videos/S_ILSVRC2015_train_00572001.mp4	0.0	276.93922686576843	
59	200.22886490821838	movie	1		301.0	57.0	2.5	/experiments/knapen_aot/videos/S_ILSVRC2015_train_00572001.mp4	0.0	276.9473738670349	2.508449077606201
59	202.73731398582458	fix_post	2		12.0	57.0	2.5	/experiments/knapen_aot/videos/S_ILSVRC2015_train_00572001.mp4	0.0	279.4558229446411	0.09992408752441406
60	202.837238073349	fix_pre	0		205.0	58.0	2.5	/experiments/knapen_aot/videos/S_flickr-csgzs-8144064966_10.mp4	0.0	279.5557470321655	1.7090728282928467
60	204.52978610992432	response	0	2		58.0	2.5	/experiments/knapen_aot/videos/S_flickr-csgzs-8144064966_10.mp4	0.0	281.24829506874084	
60	204.54631090164185	movie	1		301.0	58.0	2.5	/experiments/knapen_aot/videos/S_flickr-csgzs-8144064966_10.mp4	0.0	281.2648198604584	2.507564067840576
60	207.05387496948242	fix_post	2		12.0	58.0	2.5	/experiments/knapen_aot/videos/S_flickr-csgzs-8144064966_10.mp4	0.0	283.77238392829895	0.10001611709594727
61	207.15389108657837	fix_pre	0		172.0	59.0	2.5	/experiments/knapen_aot/videos/R_S_yt-44ip3uFe4YM_30.mp4	0.0	283.8724000453949	1.4340898990631104
61	208.578999042511	response	0	2		59.0	2.5	/experiments/knapen_aot/videos/R_S_yt-44ip3uFe4YM_30.mp4	0.0	285.2975080013275	
61	208.58798098564148	movie	1		301.0	59.0	2.5	/experiments/knapen_aot/videos/R_S_yt-44ip3uFe4YM_30.mp4	0.0	285.306489944458	2.507551908493042
61	211.09553289413452	fix_post	2		12.0	59.0	2.5	/experiments/knapen_aot/videos/R_S_yt-44ip3uFe4YM_30.mp4	0.0	287.81404185295105	0.09995603561401367
62	211.19548892974854	fix_pre	0		57.0	60.0	2.5	/experiments/knapen_aot/videos/S_yt-gMqeZkpA_1Q_61.mp4	0.0	287.91399788856506	0.4757411479949951
62	211.6623330116272	response	0	2		60.0	2.5	/experiments/knapen_aot/videos/S_yt-gMqeZkpA_1Q_61.mp4	0.0	288.3808419704437	
62	211.67123007774353	movie	1		301.0	60.0	2.5	/experiments/knapen_aot/videos/S_yt-gMqeZkpA_1Q_61.mp4	0.0	288.38973903656006	2.507689952850342
62	214.17892003059387	fix_post	2		12.0	60.0	2.5	/experiments/knapen_aot/videos/S_yt-gMqeZkpA_1Q_61.mp4	0.0	290.8974289894104	0.0999760627746582
63	214.27889609336853	fix_pre	0		93.0	61.0	2.5	/experiments/knapen_aot/videos/R_S_OdxWh1oU8e8_1.mp4	0.0	290.99740505218506	0.7750978469848633
63	215.0456359386444	response	0	2		61.0	2.5	/experiments/knapen_aot/videos/R_S_OdxWh1oU8e8_1.mp4	0.0	291.76414489746094	
63	215.0539939403534	movie	1		301.0	61.0	2.5	/experiments/knapen_aot/videos/R_S_OdxWh1oU8e8_1.mp4	0.0	291.7725028991699	2.5081751346588135
63	217.5621690750122	fix_post	2		12.0	61.0	2.5	/experiments/knapen_aot/videos/R_S_OdxWh1oU8e8_1.mp4	0.0	294.28067803382874	0.09993386268615723
64	217.66210293769836	fix_pre	0		78.0	62.0	2.5	/experiments/knapen_aot/videos/S_yt-8fQ9LaF8U10_382.mp4	0.0	294.3806118965149	0.6500670909881592
64	218.3038730621338	response	0	2		62.0	2.5	/experiments/knapen_aot/videos/S_yt-8fQ9LaF8U10_382.mp4	0.0	295.0223820209503	
64	218.31217002868652	movie	1		301.0	62.0	2.5	/experiments/knapen_aot/videos/S_yt-8fQ9LaF8U10_382.mp4	0.0	295.03067898750305	2.5083470344543457
64	220.82051706314087	fix_post	2		12.0	62.0	2.5	/experiments/knapen_aot/videos/S_yt-8fQ9LaF8U10_382.mp4	0.0	297.5390260219574	0.09998798370361328
65	220.92050504684448	fix_pre	0		316.0	63.0	2.5	blank	1.0	297.639014005661	2.633380889892578
65	223.54556393623352	response	0	2		63.0	2.5	blank	1.0	300.26407289505005	
65	223.55388593673706	movie	1		301.0	63.0	2.5	blank	1.0	300.2723948955536	2.5083470344543457
65	225.71220803260803	response	1	2		63.0	2.5	blank	1.0	302.43071699142456	
65	226.0622329711914	fix_post	2		12.0	63.0	2.5	blank	1.0	302.78074193000793	0.09992694854736328
66	226.16215991973877	fix_pre	0		45.0	64.0	2.5	/experiments/knapen_aot/videos/R_S_yt-LdHRVIb4nIE_6.mp4	0.0	302.8806688785553	0.37494897842407227
66	226.528892993927	response	0	2		64.0	2.5	/experiments/knapen_aot/videos/R_S_yt-LdHRVIb4nIE_6.mp4	0.0	303.24740195274353	
66	226.53710889816284	movie	1		301.0	64.0	2.5	/experiments/knapen_aot/videos/R_S_yt-LdHRVIb4nIE_6.mp4	0.0	303.25561785697937	2.5083141326904297
66	229.04542303085327	fix_post	2		12.0	64.0	2.5	/experiments/knapen_aot/videos/R_S_yt-LdHRVIb4nIE_6.mp4	0.0	305.7639319896698	0.09999299049377441
67	229.14541602134705	fix_pre	0		78.0	65.0	2.5	/experiments/knapen_aot/videos/S_comp_A001_C004_1207W5_v23_SDR_FINAL_20180706_SDR_2K_AVC.mp4	0.0	305.8639249801636	0.6506829261779785
67	229.78724098205566	response	0	2		65.0	2.5	/experiments/knapen_aot/videos/S_comp_A001_C004_1207W5_v23_SDR_FINAL_20180706_SDR_2K_AVC.mp4	0.0	306.5057499408722	
67	229.79609894752502	movie	1		165.0	65.0	2.5	/experiments/knapen_aot/videos/S_comp_A001_C004_1207W5_v23_SDR_FINAL_20180706_SDR_2K_AVC.mp4	0.0	306.51460790634155	2.507652997970581
67	232.3037519454956	fix_post	2		12.0	65.0	2.5	/experiments/knapen_aot/videos/S_comp_A001_C004_1207W5_v23_SDR_FINAL_20180706_SDR_2K_AVC.mp4	0.0	309.02226090431213	0.10004901885986328
68	232.40380096435547	fix_pre	0		77.0	66.0	2.5	/experiments/knapen_aot/videos/S_yt-kuzdrmHa-W0_39.mp4	0.0	309.122309923172	0.6422901153564453
68	233.03729104995728	response	0	2		66.0	2.5	/experiments/knapen_aot/videos/S_yt-kuzdrmHa-W0_39.mp4	0.0	309.7558000087738	
68	233.0460910797119	movie	1		301.0	66.0	2.5	/experiments/knapen_aot/videos/S_yt-kuzdrmHa-W0_39.mp4	0.0	309.76460003852844	2.507657051086426
68	235.55374813079834	fix_post	2		12.0	66.0	2.5	/experiments/knapen_aot/videos/S_yt-kuzdrmHa-W0_39.mp4	0.0	312.27225708961487	0.09992480278015137
69	235.6536729335785	fix_pre	0		241.0	67.0	2.5	/experiments/knapen_aot/videos/S_yt-9qXwehMoX7o_50.mp4	0.0	312.372181892395	2.0083811283111572
69	237.65392398834229	response	0	2		67.0	2.5	/experiments/knapen_aot/videos/S_yt-9qXwehMoX7o_50.mp4	0.0	314.3724329471588	
69	237.66205406188965	movie	1		301.0	67.0	2.5	/experiments/knapen_aot/videos/S_yt-9qXwehMoX7o_50.mp4	0.0	314.3805630207062	2.5083868503570557
69	240.1704409122467	fix_post	2		12.0	67.0	2.5	/experiments/knapen_aot/videos/S_yt-9qXwehMoX7o_50.mp4	0.0	316.88894987106323	0.10000205039978027
70	240.27044296264648	fix_pre	0		177.0	68.0	2.5	blank	1.0	316.988951921463	1.4749619960784912
70	241.72961401939392	response	0	2		68.0	2.5	blank	1.0	318.44812297821045	
70	241.74540495872498	movie	1		301.0	68.0	2.5	blank	1.0	318.4639139175415	2.5083279609680176
70	244.16220211982727	response	1	2		68.0	2.5	blank	1.0	320.8807110786438	
70	244.253732919693	fix_post	2		12.0	68.0	2.5	blank	1.0	320.9722418785095	0.09998106956481934
71	244.3537139892578	fix_pre	0		54.0	69.0	2.5	/experiments/knapen_aot/videos/S_yt-X6ivH9SqGu8_306.mp4	0.0	321.07222294807434	0.45000290870666504
71	244.788015127182	response	0	2		69.0	2.5	/experiments/knapen_aot/videos/S_yt-X6ivH9SqGu8_306.mp4	0.0	321.50652408599854	
71	244.80371689796448	movie	1		300.0	69.0	2.5	/experiments/knapen_aot/videos/S_yt-X6ivH9SqGu8_306.mp4	0.0	321.522225856781	2.5083370208740234
71	247.3120539188385	fix_post	2		12.0	69.0	2.5	/experiments/knapen_aot/videos/S_yt-X6ivH9SqGu8_306.mp4	0.0	324.03056287765503	0.09992218017578125
72	247.41197609901428	fix_pre	0		195.0	70.0	2.5	/experiments/knapen_aot/videos/R_S_bing-www_nytimes_com_video_dining_1247468118505_grilled-chicken-breasts-with-herb-butter_html_132.mp4	0.0	324.1304850578308	1.6250689029693604
72	249.0287880897522	response	0	2		70.0	2.5	/experiments/knapen_aot/videos/R_S_bing-www_nytimes_com_video_dining_1247468118505_grilled-chicken-breasts-with-herb-butter_html_132.mp4	0.0	325.7472970485687	
72	249.03704500198364	movie	1		167.0	70.0	2.5	/experiments/knapen_aot/videos/R_S_bing-www_nytimes_com_video_dining_1247468118505_grilled-chicken-breasts-with-herb-butter_html_132.mp4	0.0	325.75555396080017	2.5082929134368896
72	251.54533791542053	fix_post	2		12.0	70.0	2.5	/experiments/knapen_aot/videos/R_S_bing-www_nytimes_com_video_dining_1247468118505_grilled-chicken-breasts-with-herb-butter_html_132.mp4	0.0	328.26384687423706	0.0999610424041748
73	251.6452989578247	fix_pre	0		129.0	71.0	2.5	/experiments/knapen_aot/videos/S_yt-wPXrAuiiRZg_1062.mp4	0.0	328.36380791664124	1.0750300884246826
73	252.71212792396545	response	0	2		71.0	2.5	/experiments/knapen_aot/videos/S_yt-wPXrAuiiRZg_1062.mp4	0.0	329.430636882782	
73	252.7203290462494	movie	1		301.0	71.0	2.5	/experiments/knapen_aot/videos/S_yt-wPXrAuiiRZg_1062.mp4	0.0	329.4388380050659	2.508342981338501
73	255.2286720275879	fix_post	2		12.0	71.0	2.5	/experiments/knapen_aot/videos/S_yt-wPXrAuiiRZg_1062.mp4	0.0	331.9471809864044	0.10000205039978027
74	255.32867407798767	fix_pre	0		129.0	72.0	2.5	/experiments/knapen_aot/videos/R_S_yt-M_ApPnq00iE_67.mp4	0.0	332.0471830368042	1.074965000152588
74	256.39542412757874	response	0	2		72.0	2.5	/experiments/knapen_aot/videos/R_S_yt-M_ApPnq00iE_67.mp4	0.0	333.11393308639526	
74	256.40363907814026	movie	1		301.0	72.0	2.5	/experiments/knapen_aot/videos/R_S_yt-M_ApPnq00iE_67.mp4	0.0	333.1221480369568	2.508368968963623
74	258.9120080471039	fix_post	2		12.0	72.0	2.5	/experiments/knapen_aot/videos/R_S_yt-M_ApPnq00iE_67.mp4	0.0	335.6305170059204	0.09998393058776855
75	259.01199197769165	fix_pre	0		74.0	73.0	2.5	/experiments/knapen_aot/videos/S_pexels-koolshooters-7691440.mp4	0.0	335.7305009365082	0.6171910762786865
75	259.6204180717468	response	0	2		73.0	2.5	/experiments/knapen_aot/videos/S_pexels-koolshooters-7691440.mp4	0.0	336.33892703056335	
75	259.62918305397034	movie	1		163.0	73.0	2.5	/experiments/knapen_aot/videos/S_pexels-koolshooters-7691440.mp4	0.0	336.34769201278687	2.507783889770508
75	262.13696694374084	fix_post	2		12.0	73.0	2.5	/experiments/knapen_aot/videos/S_pexels-koolshooters-7691440.mp4	0.0	338.8554759025574	0.09999799728393555
76	262.2369649410248	fix_pre	0		107.0	74.0	2.5	/experiments/knapen_aot/videos/S_I003_C015_SDR_2K_AVC.mp4	0.0	338.9554738998413	0.8921999931335449
76	263.11296701431274	response	0	2		74.0	2.5	/experiments/knapen_aot/videos/S_I003_C015_SDR_2K_AVC.mp4	0.0	339.8314759731293	
76	263.1291649341583	movie	1		168.0	74.0	2.5	/experiments/knapen_aot/videos/S_I003_C015_SDR_2K_AVC.mp4	0.0	339.84767389297485	2.5077250003814697
76	265.6368899345398	fix_post	2		12.0	74.0	2.5	/experiments/knapen_aot/videos/S_I003_C015_SDR_2K_AVC.mp4	0.0	342.3553988933563	0.10002517700195312
77	265.73691511154175	fix_pre	0		184.0	75.0	2.5	/experiments/knapen_aot/videos/R_S_pexels-artem-podrez-5457692.mp4	0.0	342.4554240703583	1.533416986465454
77	267.26218008995056	response	0	2		75.0	2.5	/experiments/knapen_aot/videos/R_S_pexels-artem-podrez-5457692.mp4	0.0	343.9806890487671	
77	267.2703320980072	movie	1		167.0	75.0	2.5	/experiments/knapen_aot/videos/R_S_pexels-artem-podrez-5457692.mp4	0.0	343.98884105682373	2.5082948207855225
77	269.7786269187927	fix_post	2		12.0	75.0	2.5	/experiments/knapen_aot/videos/R_S_pexels-artem-podrez-5457692.mp4	0.0	346.49713587760925	0.10044717788696289
78	269.8790740966797	fix_pre	0		120.0	76.0	2.5	blank	1.0	346.5975830554962	0.9999988079071045
78	270.8628830909729	response	0	2		76.0	2.5	blank	1.0	347.58139204978943	
78	270.8790729045868	movie	1		301.0	76.0	2.5	blank	1.0	347.5975818634033	2.5078301429748535
78	273.062068939209	response	1	2		76.0	2.5	blank	1.0	349.7805778980255	
78	273.38690304756165	fix_post	2		12.0	76.0	2.5	blank	1.0	350.1054120063782	0.1000518798828125
79	273.48695492744446	fix_pre	0		45.0	77.0	2.5	/experiments/knapen_aot/videos/S_yt-lADkWM79teI_18.mp4	0.0	350.205463886261	0.37493300437927246
79	273.85370802879333	response	0	2		77.0	2.5	/experiments/knapen_aot/videos/S_yt-lADkWM79teI_18.mp4	0.0	350.57221698760986	
79	273.86188793182373	movie	1		301.0	77.0	2.5	/experiments/knapen_aot/videos/S_yt-lADkWM79teI_18.mp4	0.0	350.58039689064026	2.5083811283111572
79	276.3702690601349	fix_post	2		12.0	77.0	2.5	/experiments/knapen_aot/videos/S_yt-lADkWM79teI_18.mp4	0.0	353.0887780189514	0.09997296333312988
80	276.470242023468	fix_pre	0		72.0	78.0	2.5	/experiments/knapen_aot/videos/S_comp_LA_A005_C009_PSNK_ALT_v09_SDR_PS_201809134_SDR_2K_AVC.mp4	0.0	353.18875098228455	0.5999469757080078
80	277.06201100349426	response	0	2		78.0	2.5	/experiments/knapen_aot/videos/S_comp_LA_A005_C009_PSNK_ALT_v09_SDR_PS_201809134_SDR_2K_AVC.mp4	0.0	353.7805199623108	
80	277.070188999176	movie	1		170.0	78.0	2.5	/experiments/knapen_aot/videos/S_comp_LA_A005_C009_PSNK_ALT_v09_SDR_PS_201809134_SDR_2K_AVC.mp4	0.0	353.78869795799255	2.508384943008423
80	279.57857394218445	fix_post	2		12.0	78.0	2.5	/experiments/knapen_aot/videos/S_comp_LA_A005_C009_PSNK_ALT_v09_SDR_PS_201809134_SDR_2K_AVC.mp4	0.0	356.297082901001	0.10002613067626953
81	279.6786000728607	fix_pre	0		52.0	79.0	2.5	/experiments/knapen_aot/videos/R_S_yt-Uv0dt_-fWJU_40.mp4	0.0	356.39710903167725	0.4332129955291748
81	280.09622406959534	response	0	2		79.0	2.5	/experiments/knapen_aot/videos/R_S_yt-Uv0dt_-fWJU_40.mp4	0.0	356.81473302841187	
81	280.1118130683899	movie	1		301.0	79.0	2.5	/experiments/knapen_aot/videos/R_S_yt-Uv0dt_-fWJU_40.mp4	0.0	356.8303220272064	2.5083260536193848
81	282.6201391220093	fix_post	2		12.0	79.0	2.5	/experiments/knapen_aot/videos/R_S_yt-Uv0dt_-fWJU_40.mp4	0.0	359.3386480808258	0.10004782676696777
82	282.72018694877625	fix_pre	0		94.0	80.0	2.5	/experiments/knapen_aot/videos/R_S_comp_GMT314_139M_170NC_NORTH_AMERICA_AURORA__COMP_v22_SDR_20181206_v12CC_SDR_2K_AVC.mp4	0.0	359.4386959075928	0.7836911678314209
82	283.4953510761261	response	0	2		80.0	2.5	/experiments/knapen_aot/videos/R_S_comp_GMT314_139M_170NC_NORTH_AMERICA_AURORA__COMP_v22_SDR_20181206_v12CC_SDR_2K_AVC.mp4	0.0	360.2138600349426	
82	283.50387811660767	movie	1		166.0	80.0	2.5	/experiments/knapen_aot/videos/R_S_comp_GMT314_139M_170NC_NORTH_AMERICA_AURORA__COMP_v22_SDR_20181206_v12CC_SDR_2K_AVC.mp4	0.0	360.2223870754242	2.508002996444702
82	286.01188111305237	fix_post	2		12.0	80.0	2.5	/experiments/knapen_aot/videos/R_S_comp_GMT314_139M_170NC_NORTH_AMERICA_AURORA__COMP_v22_SDR_20181206_v12CC_SDR_2K_AVC.mp4	0.0	362.7303900718689	0.10001587867736816
83	286.11189699172974	fix_pre	0		74.0	81.0	2.5	/experiments/knapen_aot/videos/R_S_yt-kuzdrmHa-W0_39.mp4	0.0	362.83040595054626	0.6166460514068604
83	286.720321893692	response	0	2		81.0	2.5	/experiments/knapen_aot/videos/R_S_yt-kuzdrmHa-W0_39.mp4	0.0	363.43883085250854	
83	286.7285430431366	movie	1		301.0	81.0	2.5	/experiments/knapen_aot/videos/R_S_yt-kuzdrmHa-W0_39.mp4	0.0	363.4470520019531	2.508357048034668
83	289.23690009117126	fix_post	2		12.0	81.0	2.5	/experiments/knapen_aot/videos/R_S_yt-kuzdrmHa-W0_39.mp4	0.0	365.9554090499878	0.10000991821289062
84	289.33691000938416	fix_pre	0		54.0	82.0	2.5	/experiments/knapen_aot/videos/S_yt-fnE8kgUHUMI_64.mp4	0.0	366.0554189682007	0.4499659538269043
84	289.7786340713501	response	0	2		82.0	2.5	/experiments/knapen_aot/videos/S_yt-fnE8kgUHUMI_64.mp4	0.0	366.4971430301666	
84	289.78687596321106	movie	1		301.0	82.0	2.5	/experiments/knapen_aot/videos/S_yt-fnE8kgUHUMI_64.mp4	0.0	366.5053849220276	2.508664131164551
84	292.2955400943756	fix_post	2		12.0	82.0	2.5	/experiments/knapen_aot/videos/S_yt-fnE8kgUHUMI_64.mp4	0.0	369.01404905319214	0.09969592094421387
85	292.3952360153198	fix_pre	0		144.0	83.0	2.5	blank	1.0	369.11374497413635	1.1998510360717773
85	293.58693408966064	response	0	2		83.0	2.5	blank	1.0	370.3054430484772	
85	293.5950870513916	movie	1		301.0	83.0	2.5	blank	1.0	370.31359601020813	2.5083348751068115
85	296.1034219264984	fix_post	2		12.0	83.0	2.5	blank	1.0	372.82193088531494	0.10011005401611328
87	296.2035319805145	stim	0		634.0					372.92204093933105	5.28635311126709
87	296.5869550704956	response	0	2						373.30546402931213	
87	301.4840500354767	response	0	space						378.2025589942932	
