trial_nr	onset	event_type	phase	response	nr_frames	movie_index	movie_duration	movie_file	blank	onset_abs	duration
0	0.15246200561523438	stim	0		129.0					98.68960905075073	1.0725090503692627
0	1.2167539596557617	response	0	space						99.75390100479126	
1	1.224971055984497	stim	0		121.0					99.76211810112	1.0079669952392578
1	2.232938051223755	stim	1		120.0					100.77008509635925	1.0000269412994385
1	2.899709939956665	response	1	return						101.43685698509216	
1	3.2080349922180176	response	1	return						101.74518203735352	
2	3.2329649925231934	fix_pre	0		114.0	0.0	2.5	/experiments/knapen_aot/videos/S_yt-452RKqKIeRU_16.mp4	0.0	101.77011203765869	0.9499928951263428
2	3.5497419834136963	response	0	return		0.0	2.5	/experiments/knapen_aot/videos/S_yt-452RKqKIeRU_16.mp4	0.0	102.0868890285492	
2	4.1746909618377686	response	0	space		0.0	2.5	/experiments/knapen_aot/videos/S_yt-452RKqKIeRU_16.mp4	0.0	102.71183800697327	
2	4.182957887649536	movie	1		301.0	0.0	2.5	/experiments/knapen_aot/videos/S_yt-452RKqKIeRU_16.mp4	0.0	102.72010493278503	2.5083470344543457
2	6.691304922103882	fix_post	2		12.0	0.0	2.5	/experiments/knapen_aot/videos/S_yt-452RKqKIeRU_16.mp4	0.0	105.22845196723938	0.10001397132873535
3	6.791318893432617	fix_pre	0		12.0	1.0	2.5	/experiments/knapen_aot/videos/R_S_yt-XtzmBXKYEWk_60.mp4	0.0	105.32846593856812	0.10382604598999023
3	6.887670040130615	response	0	2		1.0	2.5	/experiments/knapen_aot/videos/R_S_yt-XtzmBXKYEWk_60.mp4	0.0	105.42481708526611	
3	6.895144939422607	movie	1		299.0	1.0	2.5	/experiments/knapen_aot/videos/R_S_yt-XtzmBXKYEWk_60.mp4	0.0	105.4322919845581	2.504431962966919
3	9.399576902389526	fix_post	2		12.0	1.0	2.5	/experiments/knapen_aot/videos/R_S_yt-XtzmBXKYEWk_60.mp4	0.0	107.93672394752502	0.10005617141723633
4	9.499633073806763	fix_pre	0		14.0	2.0	2.5	/experiments/knapen_aot/videos/R_S_yt-0bovQBIUZho_15.mp4	0.0	108.03678011894226	0.11769580841064453
4	9.608033895492554	response	0	2		2.0	2.5	/experiments/knapen_aot/videos/R_S_yt-0bovQBIUZho_15.mp4	0.0	108.14518094062805	
4	9.617328882217407	movie	1		301.0	2.0	2.5	/experiments/knapen_aot/videos/R_S_yt-0bovQBIUZho_15.mp4	0.0	108.1544759273529	2.5072901248931885
4	12.124619007110596	fix_post	2		12.0	2.0	2.5	/experiments/knapen_aot/videos/R_S_yt-0bovQBIUZho_15.mp4	0.0	110.6617660522461	0.10000085830688477
5	12.22461986541748	fix_pre	0		40.0	3.0	2.5	/experiments/knapen_aot/videos/S_pexels-kelly-lacy-6756531.mp4	0.0	110.76176691055298	0.33330702781677246
5	12.549676895141602	response	0	4		3.0	2.5	/experiments/knapen_aot/videos/S_pexels-kelly-lacy-6756531.mp4	0.0	111.0868239402771	
5	12.557926893234253	movie	1		162.0	3.0	2.5	/experiments/knapen_aot/videos/S_pexels-kelly-lacy-6756531.mp4	0.0	111.09507393836975	2.5083789825439453
5	15.066305875778198	fix_post	2		12.0	3.0	2.5	/experiments/knapen_aot/videos/S_pexels-kelly-lacy-6756531.mp4	0.0	113.6034529209137	0.09995913505554199
6	15.16626501083374	fix_pre	0		6.0	4.0	2.5	/experiments/knapen_aot/videos/R_S_yt-uSHBdUi8_V0_24.mp4	0.0	113.70341205596924	0.04999899864196777
6	15.208112001419067	response	0	4		4.0	2.5	/experiments/knapen_aot/videos/R_S_yt-uSHBdUi8_V0_24.mp4	0.0	113.74525904655457	
6	15.216264009475708	movie	1		301.0	4.0	2.5	/experiments/knapen_aot/videos/R_S_yt-uSHBdUi8_V0_24.mp4	0.0	113.7534110546112	2.508312940597534
6	17.724576950073242	fix_post	2		12.0	4.0	2.5	/experiments/knapen_aot/videos/R_S_yt-uSHBdUi8_V0_24.mp4	0.0	116.26172399520874	0.1000361442565918
7	17.824613094329834	fix_pre	0		22.0	5.0	2.5	/experiments/knapen_aot/videos/R_S_comp_DB_D001_C005_COMP_PSNK_v12_SDR_PS_20180912_SDR_2K_AVC.mp4	0.0	116.36176013946533	0.18331599235534668
7	17.99972891807556	response	0	4		5.0	2.5	/experiments/knapen_aot/videos/R_S_comp_DB_D001_C005_COMP_PSNK_v12_SDR_PS_20180912_SDR_2K_AVC.mp4	0.0	116.53687596321106	
7	18.00792908668518	movie	1		167.0	5.0	2.5	/experiments/knapen_aot/videos/R_S_comp_DB_D001_C005_COMP_PSNK_v12_SDR_PS_20180912_SDR_2K_AVC.mp4	0.0	116.54507613182068	2.5083298683166504
7	20.51625895500183	fix_post	2		12.0	5.0	2.5	/experiments/knapen_aot/videos/R_S_comp_DB_D001_C005_COMP_PSNK_v12_SDR_PS_20180912_SDR_2K_AVC.mp4	0.0	119.05340600013733	0.10095906257629395
7	20.600544929504395	response	2	4		5.0	2.5	/experiments/knapen_aot/videos/R_S_comp_DB_D001_C005_COMP_PSNK_v12_SDR_PS_20180912_SDR_2K_AVC.mp4	0.0	119.13769197463989	
8	20.617218017578125	fix_pre	0		93.0	6.0	2.5	blank	1.0	119.15436506271362	0.7740499973297119
8	21.383096933364868	response	0	4		6.0	2.5	blank	1.0	119.92024397850037	
8	21.391268014907837	movie	1		301.0	6.0	2.5	blank	1.0	119.92841506004333	2.5083329677581787
8	23.899600982666016	fix_post	2		12.0	6.0	2.5	blank	1.0	122.43674802780151	0.0999910831451416
9	23.999592065811157	fix_pre	0		38.0	7.0	2.5	/experiments/knapen_aot/videos/S_G007_C004_UHD_SDR_2K_AVC.mp4	0.0	122.53673911094666	0.31656384468078613
9	24.307995080947876	response	0	4		7.0	2.5	/experiments/knapen_aot/videos/S_G007_C004_UHD_SDR_2K_AVC.mp4	0.0	122.84514212608337	
9	24.316155910491943	movie	1		168.0	7.0	2.5	/experiments/knapen_aot/videos/S_G007_C004_UHD_SDR_2K_AVC.mp4	0.0	122.85330295562744	2.5084211826324463
9	26.82457709312439	fix_post	2		12.0	7.0	2.5	/experiments/knapen_aot/videos/S_G007_C004_UHD_SDR_2K_AVC.mp4	0.0	125.36172413825989	0.09996795654296875
10	26.92454504966736	fix_pre	0		31.0	8.0	2.5	/experiments/knapen_aot/videos/R_S_yt-IlW1U39Dga4_5.mp4	0.0	125.46169209480286	0.2582988739013672
10	27.174695014953613	response	0	4		8.0	2.5	/experiments/knapen_aot/videos/R_S_yt-IlW1U39Dga4_5.mp4	0.0	125.71184206008911	
10	27.182843923568726	movie	1		301.0	8.0	2.5	/experiments/knapen_aot/videos/R_S_yt-IlW1U39Dga4_5.mp4	0.0	125.71999096870422	2.5083200931549072
10	29.691164016723633	fix_post	2		12.0	8.0	2.5	/experiments/knapen_aot/videos/R_S_yt-IlW1U39Dga4_5.mp4	0.0	128.22831106185913	0.10001707077026367
11	29.791181087493896	fix_pre	0		17.0	9.0	2.5	/experiments/knapen_aot/videos/R_S_pexels-kampus-production-5991896.mp4	0.0	128.3283281326294	0.14162898063659668
11	29.91708493232727	response	0	4		9.0	2.5	/experiments/knapen_aot/videos/R_S_pexels-kampus-production-5991896.mp4	0.0	128.45423197746277	
11	29.932810068130493	movie	1		159.0	9.0	2.5	/experiments/knapen_aot/videos/R_S_pexels-kampus-production-5991896.mp4	0.0	128.469957113266	2.508373975753784
11	32.44118404388428	fix_post	2		12.0	9.0	2.5	/experiments/knapen_aot/videos/R_S_pexels-kampus-production-5991896.mp4	0.0	130.97833108901978	0.1000368595123291
12	32.541220903396606	fix_pre	0		1.0	10.0	2.5	/experiments/knapen_aot/videos/S_OdxWh1oU8e8_1.mp4	0.0	131.0783679485321	0.00829005241394043
12	32.542912006378174	response	0	4		10.0	2.5	/experiments/knapen_aot/videos/S_OdxWh1oU8e8_1.mp4	0.0	131.08005905151367	
12	32.54951095581055	movie	1		301.0	10.0	2.5	/experiments/knapen_aot/videos/S_OdxWh1oU8e8_1.mp4	0.0	131.08665800094604	2.5083320140838623
12	34.950610876083374	response	1	4		10.0	2.5	/experiments/knapen_aot/videos/S_OdxWh1oU8e8_1.mp4	0.0	133.48775792121887	
12	35.05784296989441	fix_post	2		12.0	10.0	2.5	/experiments/knapen_aot/videos/S_OdxWh1oU8e8_1.mp4	0.0	133.5949900150299	0.1000521183013916
13	35.1578950881958	fix_pre	0		48.0	11.0	2.5	/experiments/knapen_aot/videos/S_yt-bmGWhOCsvJo_128.mp4	0.0	133.6950421333313	0.3999819755554199
13	35.5497100353241	response	0	4		11.0	2.5	/experiments/knapen_aot/videos/S_yt-bmGWhOCsvJo_128.mp4	0.0	134.0868570804596	
13	35.55787706375122	movie	1		301.0	11.0	2.5	/experiments/knapen_aot/videos/S_yt-bmGWhOCsvJo_128.mp4	0.0	134.09502410888672	2.5082898139953613
13	38.06616687774658	fix_post	2		12.0	11.0	2.5	/experiments/knapen_aot/videos/S_yt-bmGWhOCsvJo_128.mp4	0.0	136.60331392288208	0.09999799728393555
14	38.16616487503052	fix_pre	0		11.0	12.0	2.5	/experiments/knapen_aot/videos/R_S_comp_A083_C002_1130KZ_v04_SDR_PS_FINAL_20180725_SDR_2K_AVC.mp4	0.0	136.70331192016602	0.09180998802185059
14	38.2495698928833	response	0	4		12.0	2.5	/experiments/knapen_aot/videos/R_S_comp_A083_C002_1130KZ_v04_SDR_PS_FINAL_20180725_SDR_2K_AVC.mp4	0.0	136.7867169380188	
14	38.25797486305237	movie	1		164.0	12.0	2.5	/experiments/knapen_aot/videos/R_S_comp_A083_C002_1130KZ_v04_SDR_PS_FINAL_20180725_SDR_2K_AVC.mp4	0.0	136.79512190818787	2.50822114944458
14	40.76619601249695	fix_post	2		12.0	12.0	2.5	/experiments/knapen_aot/videos/R_S_comp_A083_C002_1130KZ_v04_SDR_PS_FINAL_20180725_SDR_2K_AVC.mp4	0.0	139.30334305763245	0.09994292259216309
15	40.86613893508911	fix_pre	0		23.0	13.0	2.5	/experiments/knapen_aot/videos/S_yt-8LO59eN9om4_16.mp4	0.0	139.4032859802246	0.19162511825561523
15	41.049609899520874	response	0	2		13.0	2.5	/experiments/knapen_aot/videos/S_yt-8LO59eN9om4_16.mp4	0.0	139.58675694465637	
15	41.05776405334473	movie	1		301.0	13.0	2.5	/experiments/knapen_aot/videos/S_yt-8LO59eN9om4_16.mp4	0.0	139.59491109848022	2.5083248615264893
15	43.482969999313354	response	1	2		13.0	2.5	/experiments/knapen_aot/videos/S_yt-8LO59eN9om4_16.mp4	0.0	142.02011704444885	
15	43.566088914871216	fix_post	2		12.0	13.0	2.5	/experiments/knapen_aot/videos/S_yt-8LO59eN9om4_16.mp4	0.0	142.1032359600067	0.10004711151123047
16	43.666136026382446	fix_pre	0		28.0	14.0	2.5	blank	1.0	142.20328307151794	0.2332768440246582
16	43.89122796058655	response	0	2		14.0	2.5	blank	1.0	142.42837500572205	
16	43.899412870407104	movie	1		301.0	14.0	2.5	blank	1.0	142.4365599155426	2.5083911418914795
16	46.407804012298584	fix_post	2		12.0	14.0	2.5	blank	1.0	144.94495105743408	0.09997105598449707
17	46.50777506828308	fix_pre	0		23.0	15.0	2.5	/experiments/knapen_aot/videos/R_S_g201_WH_D004_L014_SDR_20191031_SDR_2K_AVC.mp4	0.0	145.04492211341858	0.1925058364868164
17	46.6912579536438	response	0	2		15.0	2.5	/experiments/knapen_aot/videos/R_S_g201_WH_D004_L014_SDR_20191031_SDR_2K_AVC.mp4	0.0	145.2284049987793	
17	46.7002809047699	movie	1		174.0	15.0	2.5	/experiments/knapen_aot/videos/R_S_g201_WH_D004_L014_SDR_20191031_SDR_2K_AVC.mp4	0.0	145.2374279499054	2.507420063018799
17	49.207700967788696	fix_post	2		12.0	15.0	2.5	/experiments/knapen_aot/videos/R_S_g201_WH_D004_L014_SDR_20191031_SDR_2K_AVC.mp4	0.0	147.7448480129242	0.10008502006530762
17	49.26620602607727	response	2	4		15.0	2.5	/experiments/knapen_aot/videos/R_S_g201_WH_D004_L014_SDR_20191031_SDR_2K_AVC.mp4	0.0	147.80335307121277	
18	49.307785987854004	fix_pre	0		61.0	16.0	2.5	/experiments/knapen_aot/videos/S_bing-www_cnet_com_videos_amazon-wants-to-put-alexa-on-your-pc__50.mp4	0.0	147.8449330329895	0.5082719326019287
18	49.80788493156433	response	0	4		16.0	2.5	/experiments/knapen_aot/videos/S_bing-www_cnet_com_videos_amazon-wants-to-put-alexa-on-your-pc__50.mp4	0.0	148.34503197669983	
18	49.81605792045593	movie	1		164.0	16.0	2.5	/experiments/knapen_aot/videos/S_bing-www_cnet_com_videos_amazon-wants-to-put-alexa-on-your-pc__50.mp4	0.0	148.35320496559143	2.5083770751953125
18	52.324434995651245	fix_post	2		12.0	16.0	2.5	/experiments/knapen_aot/videos/S_bing-www_cnet_com_videos_amazon-wants-to-put-alexa-on-your-pc__50.mp4	0.0	150.86158204078674	0.1000359058380127
19	52.42447090148926	fix_pre	0		11.0	17.0	2.5	/experiments/knapen_aot/videos/S_yt-k-MRlbCOzZU_163.mp4	0.0	150.96161794662476	0.09161615371704102
19	52.5080029964447	response	0	4		17.0	2.5	/experiments/knapen_aot/videos/S_yt-k-MRlbCOzZU_163.mp4	0.0	151.0451500415802	
19	52.5160870552063	movie	1		301.0	17.0	2.5	/experiments/knapen_aot/videos/S_yt-k-MRlbCOzZU_163.mp4	0.0	151.0532341003418	2.508275032043457
19	55.024362087249756	fix_post	2		12.0	17.0	2.5	/experiments/knapen_aot/videos/S_yt-k-MRlbCOzZU_163.mp4	0.0	153.56150913238525	0.10002279281616211
20	55.12438488006592	fix_pre	0		19.0	18.0	2.5	/experiments/knapen_aot/videos/S_yt-BrepyEWKrPQ_20.mp4	0.0	153.66153192520142	0.1591200828552246
20	55.274476051330566	response	0	4		18.0	2.5	/experiments/knapen_aot/videos/S_yt-BrepyEWKrPQ_20.mp4	0.0	153.81162309646606	
20	55.28350496292114	movie	1		301.0	18.0	2.5	/experiments/knapen_aot/videos/S_yt-BrepyEWKrPQ_20.mp4	0.0	153.82065200805664	2.5075631141662598
20	57.7910680770874	fix_post	2		12.0	18.0	2.5	/experiments/knapen_aot/videos/S_yt-BrepyEWKrPQ_20.mp4	0.0	156.3282151222229	0.10003781318664551
21	57.89110589027405	fix_pre	0		25.0	19.0	2.5	blank	1.0	156.42825293540955	0.2082381248474121
21	58.091228008270264	response	0	4		19.0	2.5	blank	1.0	156.62837505340576	
21	58.09934401512146	movie	1		301.0	19.0	2.5	blank	1.0	156.63649106025696	2.5083580017089844
21	60.607702016830444	fix_post	2		12.0	19.0	2.5	blank	1.0	159.14484906196594	0.10002899169921875
22	60.70773100852966	fix_pre	0		21.0	20.0	2.5	/experiments/knapen_aot/videos/R_S_yt-LhP0mZ6xxIg_111.mp4	0.0	159.24487805366516	0.1749730110168457
22	60.87444591522217	response	0	4		20.0	2.5	/experiments/knapen_aot/videos/R_S_yt-LhP0mZ6xxIg_111.mp4	0.0	159.41159296035767	
22	60.88270401954651	movie	1		301.0	20.0	2.5	/experiments/knapen_aot/videos/R_S_yt-LhP0mZ6xxIg_111.mp4	0.0	159.419851064682	2.5082919597625732
22	63.39099597930908	fix_post	2		12.0	20.0	2.5	/experiments/knapen_aot/videos/R_S_yt-LhP0mZ6xxIg_111.mp4	0.0	161.92814302444458	0.10004091262817383
23	63.491036891937256	fix_pre	0		11.0	21.0	2.5	/experiments/knapen_aot/videos/R_S_yt-hvuC_2YXsTQ_73.mp4	0.0	162.02818393707275	0.09161615371704102
23	63.57452702522278	response	0	4		21.0	2.5	/experiments/knapen_aot/videos/R_S_yt-hvuC_2YXsTQ_73.mp4	0.0	162.11167407035828	
23	63.5826530456543	movie	1		301.0	21.0	2.5	/experiments/knapen_aot/videos/R_S_yt-hvuC_2YXsTQ_73.mp4	0.0	162.1198000907898	2.5083940029144287
23	66.09104704856873	fix_post	2		12.0	21.0	2.5	/experiments/knapen_aot/videos/R_S_yt-hvuC_2YXsTQ_73.mp4	0.0	164.62819409370422	0.10000801086425781
24	66.19105505943298	fix_pre	0		4.0	22.0	2.5	/experiments/knapen_aot/videos/S_video-5.mp4	0.0	164.72820210456848	0.03331780433654785
24	66.2161660194397	response	0	4		22.0	2.5	/experiments/knapen_aot/videos/S_video-5.mp4	0.0	164.7533130645752	
24	66.22437286376953	movie	1		189.0	22.0	2.5	/experiments/knapen_aot/videos/S_video-5.mp4	0.0	164.76151990890503	2.50829815864563
24	68.73267102241516	fix_post	2		12.0	22.0	2.5	/experiments/knapen_aot/videos/S_video-5.mp4	0.0	167.26981806755066	0.09999799728393555
24	68.78276491165161	response	2	4		22.0	2.5	/experiments/knapen_aot/videos/S_video-5.mp4	0.0	167.3199119567871	
25	68.8326690196991	fix_pre	0		71.0	23.0	2.5	/experiments/knapen_aot/videos/R_S_ILSVRC2015_train_00415005.mp4	0.0	167.3698160648346	0.5916450023651123
25	69.41623401641846	response	0	4		23.0	2.5	/experiments/knapen_aot/videos/R_S_ILSVRC2015_train_00415005.mp4	0.0	167.95338106155396	
25	69.42431402206421	movie	1		301.0	23.0	2.5	/experiments/knapen_aot/videos/R_S_ILSVRC2015_train_00415005.mp4	0.0	167.9614610671997	2.5082590579986572
25	71.93257308006287	fix_post	2		12.0	23.0	2.5	/experiments/knapen_aot/videos/R_S_ILSVRC2015_train_00415005.mp4	0.0	170.46972012519836	0.10007286071777344
26	72.03264594078064	fix_pre	0		26.0	24.0	2.5	/experiments/knapen_aot/videos/R_S_pexels-mart-production-7698911_1.mp4	0.0	170.56979298591614	0.2166750431060791
26	72.24111890792847	response	0	4		24.0	2.5	/experiments/knapen_aot/videos/R_S_pexels-mart-production-7698911_1.mp4	0.0	170.77826595306396	
26	72.24932098388672	movie	1		205.0	24.0	2.5	/experiments/knapen_aot/videos/R_S_pexels-mart-production-7698911_1.mp4	0.0	170.78646802902222	2.508323907852173
26	74.75764489173889	fix_post	2		12.0	24.0	2.5	/experiments/knapen_aot/videos/R_S_pexels-mart-production-7698911_1.mp4	0.0	173.2947919368744	0.10000920295715332
27	74.85765409469604	fix_pre	0		6.0	25.0	2.5	/experiments/knapen_aot/videos/S_ioSkDvwpEaU_35.mp4	0.0	173.39480113983154	0.05068182945251465
27	74.89948606491089	response	0	4		25.0	2.5	/experiments/knapen_aot/videos/S_ioSkDvwpEaU_35.mp4	0.0	173.4366331100464	
27	74.90833592414856	movie	1		301.0	25.0	2.5	/experiments/knapen_aot/videos/S_ioSkDvwpEaU_35.mp4	0.0	173.44548296928406	2.5076680183410645
27	77.41600394248962	fix_post	2		12.0	25.0	2.5	/experiments/knapen_aot/videos/S_ioSkDvwpEaU_35.mp4	0.0	175.95315098762512	0.09995698928833008
28	77.51596093177795	fix_pre	0		13.0	26.0	2.5	blank	1.0	176.05310797691345	0.10830497741699219
28	77.61610102653503	response	0	4		26.0	2.5	blank	1.0	176.15324807167053	
28	77.62426590919495	movie	1		301.0	26.0	2.5	blank	1.0	176.16141295433044	2.508376121520996
28	80.13264203071594	fix_post	2		12.0	26.0	2.5	blank	1.0	178.66978907585144	0.09991288185119629
29	80.23255491256714	fix_pre	0		23.0	27.0	2.5	/experiments/knapen_aot/videos/S_flickr-slruok-8006772217_6.mp4	0.0	178.76970195770264	0.19172000885009766
29	80.4161069393158	response	0	4		27.0	2.5	/experiments/knapen_aot/videos/S_flickr-slruok-8006772217_6.mp4	0.0	178.9532539844513	
29	80.42427492141724	movie	1		300.0	27.0	2.5	/experiments/knapen_aot/videos/S_flickr-slruok-8006772217_6.mp4	0.0	178.96142196655273	2.5083980560302734
29	82.40157294273376	response	1	4		27.0	2.5	/experiments/knapen_aot/videos/S_flickr-slruok-8006772217_6.mp4	0.0	180.93871998786926	
29	82.93267297744751	fix_post	2		12.0	27.0	2.5	/experiments/knapen_aot/videos/S_flickr-slruok-8006772217_6.mp4	0.0	181.469820022583	0.09996509552001953
30	83.03263807296753	fix_pre	0		6.0	28.0	2.5	/experiments/knapen_aot/videos/S_yt-oT4Bq8zYN4E_42.mp4	0.0	181.56978511810303	0.05003094673156738
30	83.0752489566803	response	0	4		28.0	2.5	/experiments/knapen_aot/videos/S_yt-oT4Bq8zYN4E_42.mp4	0.0	181.6123960018158	
30	83.0826690196991	movie	1		301.0	28.0	2.5	/experiments/knapen_aot/videos/S_yt-oT4Bq8zYN4E_42.mp4	0.0	181.6198160648346	2.5082719326019287
30	85.59094095230103	fix_post	2		12.0	28.0	2.5	/experiments/knapen_aot/videos/S_yt-oT4Bq8zYN4E_42.mp4	0.0	184.12808799743652	0.09999513626098633
31	85.69093608856201	fix_pre	0		10.0	29.0	2.5	/experiments/knapen_aot/videos/S_production_ID_5182928.mp4	0.0	184.2280831336975	0.0833280086517334
31	85.76602792739868	response	0	4		29.0	2.5	/experiments/knapen_aot/videos/S_production_ID_5182928.mp4	0.0	184.30317497253418	
31	85.77426409721375	movie	1		172.0	29.0	2.5	/experiments/knapen_aot/videos/S_production_ID_5182928.mp4	0.0	184.31141114234924	2.5083489418029785
31	88.28261303901672	fix_post	2		12.0	29.0	2.5	/experiments/knapen_aot/videos/S_production_ID_5182928.mp4	0.0	186.81976008415222	0.09998297691345215
32	88.38259601593018	fix_pre	0		6.0	30.0	2.5	/experiments/knapen_aot/videos/R_S_wc-DgBY_btLlgBC_19.mp4	0.0	186.91974306106567	0.05002593994140625
32	88.42436194419861	response	0	4		30.0	2.5	/experiments/knapen_aot/videos/R_S_wc-DgBY_btLlgBC_19.mp4	0.0	186.9615089893341	
32	88.43262195587158	movie	1		162.0	30.0	2.5	/experiments/knapen_aot/videos/R_S_wc-DgBY_btLlgBC_19.mp4	0.0	186.96976900100708	2.50827693939209
32	90.94089889526367	fix_post	2		12.0	30.0	2.5	/experiments/knapen_aot/videos/R_S_wc-DgBY_btLlgBC_19.mp4	0.0	189.47804594039917	0.0999910831451416
33	91.04088997840881	fix_pre	0		13.0	31.0	2.5	/experiments/knapen_aot/videos/S_yt-2jVJb1PR2XA_16.mp4	0.0	189.5780370235443	0.10836505889892578
33	91.14101886749268	response	0	4		31.0	2.5	/experiments/knapen_aot/videos/S_yt-2jVJb1PR2XA_16.mp4	0.0	189.67816591262817	
33	91.14925503730774	movie	1		300.0	31.0	2.5	/experiments/knapen_aot/videos/S_yt-2jVJb1PR2XA_16.mp4	0.0	189.68640208244324	2.5083470344543457
33	93.65760207176208	fix_post	2		12.0	31.0	2.5	/experiments/knapen_aot/videos/S_yt-2jVJb1PR2XA_16.mp4	0.0	192.19474911689758	0.09993886947631836
34	93.7575409412384	fix_pre	0		12.0	32.0	2.5	/experiments/knapen_aot/videos/R_S_yt-1RVw8p6Dw2Q_20.mp4	0.0	192.2946879863739	0.10005998611450195
34	93.84932208061218	response	0	4		32.0	2.5	/experiments/knapen_aot/videos/R_S_yt-1RVw8p6Dw2Q_20.mp4	0.0	192.38646912574768	
34	93.8576009273529	movie	1		301.0	32.0	2.5	/experiments/knapen_aot/videos/R_S_yt-1RVw8p6Dw2Q_20.mp4	0.0	192.3947479724884	2.5083301067352295
34	96.36593103408813	fix_post	2		12.0	32.0	2.5	/experiments/knapen_aot/videos/R_S_yt-1RVw8p6Dw2Q_20.mp4	0.0	194.90307807922363	0.10000991821289062
35	96.46594095230103	fix_pre	0		12.0	33.0	2.5	/experiments/knapen_aot/videos/R_S_yt-TbdZrcl_Jso_5.mp4	0.0	195.00308799743652	0.09995412826538086
35	96.55022096633911	response	0	4		33.0	2.5	/experiments/knapen_aot/videos/R_S_yt-TbdZrcl_Jso_5.mp4	0.0	195.0873680114746	
35	96.5658950805664	movie	1		301.0	33.0	2.5	/experiments/knapen_aot/videos/R_S_yt-TbdZrcl_Jso_5.mp4	0.0	195.1030421257019	2.508349895477295
35	99.0742449760437	fix_post	2		12.0	33.0	2.5	/experiments/knapen_aot/videos/R_S_yt-TbdZrcl_Jso_5.mp4	0.0	197.6113920211792	0.09997391700744629
36	99.17421889305115	fix_pre	0		15.0	34.0	2.5	blank	1.0	197.71136593818665	0.12500214576721191
36	99.29095196723938	response	0	4		34.0	2.5	blank	1.0	197.82809901237488	
36	99.29922103881836	movie	1		301.0	34.0	2.5	blank	1.0	197.83636808395386	2.5083119869232178
36	101.80753302574158	fix_post	2		12.0	34.0	2.5	blank	1.0	200.34468007087708	0.09992384910583496
37	101.90745687484741	fix_pre	0		66.0	35.0	2.5	/experiments/knapen_aot/videos/S_yt-bH4nJibL4Jo_164.mp4	0.0	200.4446039199829	0.5500280857086182
37	102.44926691055298	response	0	4		35.0	2.5	/experiments/knapen_aot/videos/S_yt-bH4nJibL4Jo_164.mp4	0.0	200.98641395568848	
37	102.45748496055603	movie	1		301.0	35.0	2.5	/experiments/knapen_aot/videos/S_yt-bH4nJibL4Jo_164.mp4	0.0	200.99463200569153	2.508368968963623
37	104.96585392951965	fix_post	2		12.0	35.0	2.5	/experiments/knapen_aot/videos/S_yt-bH4nJibL4Jo_164.mp4	0.0	203.50300097465515	0.1000070571899414
38	105.0658609867096	fix_pre	0		13.0	36.0	2.5	/experiments/knapen_aot/videos/R_S_flickr-lamujuri-10653517683_4.mp4	0.0	203.6030080318451	0.10830092430114746
38	105.16599988937378	response	0	4		36.0	2.5	/experiments/knapen_aot/videos/R_S_flickr-lamujuri-10653517683_4.mp4	0.0	203.70314693450928	
38	105.17416191101074	movie	1		167.0	36.0	2.5	/experiments/knapen_aot/videos/R_S_flickr-lamujuri-10653517683_4.mp4	0.0	203.71130895614624	2.508294105529785
38	107.68245601654053	fix_post	2		12.0	36.0	2.5	/experiments/knapen_aot/videos/R_S_flickr-lamujuri-10653517683_4.mp4	0.0	206.21960306167603	0.1000678539276123
38	107.70012307167053	response	2	4		36.0	2.5	/experiments/knapen_aot/videos/R_S_flickr-lamujuri-10653517683_4.mp4	0.0	206.23727011680603	
39	107.78252387046814	fix_pre	0		70.0	37.0	2.5	/experiments/knapen_aot/videos/R_S_yt-NZIhxK5NvWE_152.mp4	0.0	206.31967091560364	0.5838401317596436
39	108.35760807991028	response	0	4		37.0	2.5	/experiments/knapen_aot/videos/R_S_yt-NZIhxK5NvWE_152.mp4	0.0	206.89475512504578	
39	108.36636400222778	movie	1		301.0	37.0	2.5	/experiments/knapen_aot/videos/R_S_yt-NZIhxK5NvWE_152.mp4	0.0	206.90351104736328	2.5077579021453857
39	110.87412190437317	fix_post	2		12.0	37.0	2.5	/experiments/knapen_aot/videos/R_S_yt-NZIhxK5NvWE_152.mp4	0.0	209.41126894950867	0.10003113746643066
40	110.9741530418396	fix_pre	0		11.0	38.0	2.5	/experiments/knapen_aot/videos/R_S_comp_HK_H004_C001_PSNK_DENOISE_v14_SDR_PS_FINAL_20180731_SDR_2K_AVC.mp4	0.0	209.5113000869751	0.09172201156616211
40	111.05004787445068	response	0	4		38.0	2.5	/experiments/knapen_aot/videos/R_S_comp_HK_H004_C001_PSNK_DENOISE_v14_SDR_PS_FINAL_20180731_SDR_2K_AVC.mp4	0.0	209.58719491958618	
40	111.06587505340576	movie	1		167.0	38.0	2.5	/experiments/knapen_aot/videos/R_S_comp_HK_H004_C001_PSNK_DENOISE_v14_SDR_PS_FINAL_20180731_SDR_2K_AVC.mp4	0.0	209.60302209854126	2.5083088874816895
40	113.57418394088745	fix_post	2		12.0	38.0	2.5	/experiments/knapen_aot/videos/R_S_comp_HK_H004_C001_PSNK_DENOISE_v14_SDR_PS_FINAL_20180731_SDR_2K_AVC.mp4	0.0	212.11133098602295	0.09992694854736328
41	113.67411088943481	fix_pre	0		23.0	39.0	2.5	/experiments/knapen_aot/videos/S_nvbAwZOKBS8_23.mp4	0.0	212.2112579345703	0.19218802452087402
41	113.85757994651794	response	0	4		39.0	2.5	/experiments/knapen_aot/videos/S_nvbAwZOKBS8_23.mp4	0.0	212.39472699165344	
41	113.86629891395569	movie	1		301.0	39.0	2.5	/experiments/knapen_aot/videos/S_nvbAwZOKBS8_23.mp4	0.0	212.4034459590912	2.5078470706939697
41	116.37414598464966	fix_post	2		12.0	39.0	2.5	/experiments/knapen_aot/videos/S_nvbAwZOKBS8_23.mp4	0.0	214.91129302978516	0.1000220775604248
42	116.47416806221008	fix_pre	0		24.0	40.0	2.5	/experiments/knapen_aot/videos/S_flickr-lamujuri-10653517683_4.mp4	0.0	215.01131510734558	0.19997096061706543
42	116.66592788696289	response	0	4		40.0	2.5	/experiments/knapen_aot/videos/S_flickr-lamujuri-10653517683_4.mp4	0.0	215.2030749320984	
42	116.67413902282715	movie	1		167.0	40.0	2.5	/experiments/knapen_aot/videos/S_flickr-lamujuri-10653517683_4.mp4	0.0	215.21128606796265	2.5083329677581787
42	119.18247199058533	fix_post	2		12.0	40.0	2.5	/experiments/knapen_aot/videos/S_flickr-lamujuri-10653517683_4.mp4	0.0	217.71961903572083	0.10044288635253906
43	119.28291487693787	fix_pre	0		37.0	41.0	2.5	blank	1.0	217.82006192207336	0.30792808532714844
43	119.58255386352539	response	0	4		41.0	2.5	blank	1.0	218.1197009086609	
43	119.59084296226501	movie	1		301.0	41.0	2.5	blank	1.0	218.1279900074005	2.5083560943603516
43	122.09919905662537	fix_post	2		12.0	41.0	2.5	blank	1.0	220.63634610176086	0.09991693496704102
44	122.19911599159241	fix_pre	0		41.0	42.0	2.5	/experiments/knapen_aot/videos/R_S_production_ID_3927047.mp4	0.0	220.7362630367279	0.3416600227355957
44	122.5325379371643	response	0	4		42.0	2.5	/experiments/knapen_aot/videos/R_S_production_ID_3927047.mp4	0.0	221.0696849822998	
44	122.540776014328	movie	1		194.0	42.0	2.5	/experiments/knapen_aot/videos/R_S_production_ID_3927047.mp4	0.0	221.0779230594635	2.5083529949188232
44	125.04912900924683	fix_post	2		12.0	42.0	2.5	/experiments/knapen_aot/videos/R_S_production_ID_3927047.mp4	0.0	223.58627605438232	0.09995102882385254
45	125.14908003807068	fix_pre	0		29.0	43.0	2.5	/experiments/knapen_aot/videos/R_S_yt-Ub5Xx5BqIOk_74.mp4	0.0	223.68622708320618	0.24169301986694336
45	125.38259196281433	response	0	4		43.0	2.5	/experiments/knapen_aot/videos/R_S_yt-Ub5Xx5BqIOk_74.mp4	0.0	223.91973900794983	
45	125.39077305793762	movie	1		297.0	43.0	2.5	/experiments/knapen_aot/videos/R_S_yt-Ub5Xx5BqIOk_74.mp4	0.0	223.92792010307312	2.5082898139953613
45	127.89906287193298	fix_post	2		12.0	43.0	2.5	/experiments/knapen_aot/videos/R_S_yt-Ub5Xx5BqIOk_74.mp4	0.0	226.43620991706848	0.10002303123474121
46	127.99908590316772	fix_pre	0		34.0	44.0	2.5	/experiments/knapen_aot/videos/R_S_yt-wnQFgNEnHUI_109.mp4	0.0	226.53623294830322	0.28370213508605957
46	128.27417707443237	response	0	4		44.0	2.5	/experiments/knapen_aot/videos/R_S_yt-wnQFgNEnHUI_109.mp4	0.0	226.81132411956787	
46	128.28278803825378	movie	1		301.0	44.0	2.5	/experiments/knapen_aot/videos/R_S_yt-wnQFgNEnHUI_109.mp4	0.0	226.81993508338928	2.5080208778381348
46	130.79080891609192	fix_post	2		12.0	44.0	2.5	/experiments/knapen_aot/videos/R_S_yt-wnQFgNEnHUI_109.mp4	0.0	229.32795596122742	0.10001397132873535
47	130.89082288742065	fix_pre	0		8.0	45.0	2.5	/experiments/knapen_aot/videos/R_S_yt-bmGWhOCsvJo_128.mp4	0.0	229.42796993255615	0.06657099723815918
47	130.94927597045898	response	0	4		45.0	2.5	/experiments/knapen_aot/videos/R_S_yt-bmGWhOCsvJo_128.mp4	0.0	229.48642301559448	
47	130.9573938846588	movie	1		301.0	45.0	2.5	/experiments/knapen_aot/videos/R_S_yt-bmGWhOCsvJo_128.mp4	0.0	229.4945409297943	2.508315086364746
47	133.46570897102356	fix_post	2		12.0	45.0	2.5	/experiments/knapen_aot/videos/R_S_yt-bmGWhOCsvJo_128.mp4	0.0	232.00285601615906	0.10007309913635254
48	133.5657820701599	fix_pre	0		10.0	46.0	2.5	/experiments/knapen_aot/videos/S_yt-2l6VKd94eAI_151.mp4	0.0	232.1029291152954	0.08329987525939941
48	133.6409249305725	response	0	4		46.0	2.5	/experiments/knapen_aot/videos/S_yt-2l6VKd94eAI_151.mp4	0.0	232.178071975708	
48	133.6490819454193	movie	1		301.0	46.0	2.5	/experiments/knapen_aot/videos/S_yt-2l6VKd94eAI_151.mp4	0.0	232.1862289905548	2.5082719326019287
48	136.15735387802124	fix_post	2		11.0	46.0	2.5	/experiments/knapen_aot/videos/S_yt-2l6VKd94eAI_151.mp4	0.0	234.69450092315674	0.10007309913635254
49	136.2574269771576	fix_pre	0		19.0	47.0	2.5	/experiments/knapen_aot/videos/S_wc-eJe3wXMgTLRV_20.mp4	0.0	234.7945740222931	0.15825295448303223
49	136.4074900150299	response	0	4		47.0	2.5	/experiments/knapen_aot/videos/S_wc-eJe3wXMgTLRV_20.mp4	0.0	234.9446370601654	
49	136.41567993164062	movie	1		164.0	47.0	2.5	/experiments/knapen_aot/videos/S_wc-eJe3wXMgTLRV_20.mp4	0.0	234.95282697677612	2.5083749294281006
49	138.92405486106873	fix_post	2		12.0	47.0	2.5	/experiments/knapen_aot/videos/S_wc-eJe3wXMgTLRV_20.mp4	0.0	237.46120190620422	0.10001111030578613
50	139.0240659713745	fix_pre	0		11.0	48.0	2.5	blank	1.0	237.56121301651	0.0920100212097168
50	139.10754895210266	response	0	4		48.0	2.5	blank	1.0	237.64469599723816	
50	139.11607599258423	movie	1		301.0	48.0	2.5	blank	1.0	237.65322303771973	2.507978916168213
50	141.62405490875244	fix_post	2		12.0	48.0	2.5	blank	1.0	240.16120195388794	0.09996604919433594
51	141.72402095794678	fix_pre	0		21.0	49.0	2.5	/experiments/knapen_aot/videos/S_yt-s2tZ2NIQrxg_175.mp4	0.0	240.26116800308228	0.17499804496765137
51	141.89082098007202	response	0	4		49.0	2.5	/experiments/knapen_aot/videos/S_yt-s2tZ2NIQrxg_175.mp4	0.0	240.42796802520752	
51	141.89901900291443	movie	1		301.0	49.0	2.5	/experiments/knapen_aot/videos/S_yt-s2tZ2NIQrxg_175.mp4	0.0	240.43616604804993	2.5083470344543457
51	144.40736603736877	fix_post	2		12.0	49.0	2.5	/experiments/knapen_aot/videos/S_yt-s2tZ2NIQrxg_175.mp4	0.0	242.94451308250427	0.0999758243560791
52	144.50734186172485	fix_pre	0		16.0	50.0	2.5	/experiments/knapen_aot/videos/R_S_yt-wUqpCtBOFBA_89.mp4	0.0	243.04448890686035	0.13326120376586914
52	144.63246989250183	response	0	4		50.0	2.5	/experiments/knapen_aot/videos/R_S_yt-wUqpCtBOFBA_89.mp4	0.0	243.16961693763733	
52	144.64060306549072	movie	1		301.0	50.0	2.5	/experiments/knapen_aot/videos/R_S_yt-wUqpCtBOFBA_89.mp4	0.0	243.17775011062622	2.508404016494751
52	147.14900708198547	fix_post	2		12.0	50.0	2.5	/experiments/knapen_aot/videos/R_S_yt-wUqpCtBOFBA_89.mp4	0.0	245.68615412712097	0.09999489784240723
53	147.24900197982788	fix_pre	0		9.0	51.0	2.5	/experiments/knapen_aot/videos/R_S_video-5.mp4	0.0	245.78614902496338	0.08349204063415527
53	147.3247709274292	response	0	4		51.0	2.5	/experiments/knapen_aot/videos/R_S_video-5.mp4	0.0	245.8619179725647	
53	147.33249402046204	movie	1		171.0	51.0	2.5	/experiments/knapen_aot/videos/R_S_video-5.mp4	0.0	245.86964106559753	2.5081820487976074
53	149.84067606925964	fix_post	2		12.0	51.0	2.5	/experiments/knapen_aot/videos/R_S_video-5.mp4	0.0	248.37782311439514	0.09999585151672363
54	149.94067192077637	fix_pre	0		6.0	52.0	2.5	/experiments/knapen_aot/videos/S_production_ID_5182928.mp4	0.0	248.47781896591187	0.050443172454833984
54	149.98251795768738	response	0	4		52.0	2.5	/experiments/knapen_aot/videos/S_production_ID_5182928.mp4	0.0	248.51966500282288	
54	149.9911150932312	movie	1		173.0	52.0	2.5	/experiments/knapen_aot/videos/S_production_ID_5182928.mp4	0.0	248.5282621383667	2.5078978538513184
54	152.49901294708252	fix_post	2		12.0	52.0	2.5	/experiments/knapen_aot/videos/S_production_ID_5182928.mp4	0.0	251.03615999221802	0.09992694854736328
54	152.59074807167053	response	2	4		52.0	2.5	/experiments/knapen_aot/videos/S_production_ID_5182928.mp4	0.0	251.12789511680603	
55	152.59893989562988	fix_pre	0		94.0	53.0	2.5	/experiments/knapen_aot/videos/S_ioSkDvwpEaU_35.mp4	0.0	251.13608694076538	0.7834019660949707
55	153.37403798103333	response	0	4		53.0	2.5	/experiments/knapen_aot/videos/S_ioSkDvwpEaU_35.mp4	0.0	251.91118502616882	
55	153.38234186172485	movie	1		301.0	53.0	2.5	/experiments/knapen_aot/videos/S_ioSkDvwpEaU_35.mp4	0.0	251.91948890686035	2.5083250999450684
55	155.89066696166992	fix_post	2		12.0	53.0	2.5	/experiments/knapen_aot/videos/S_ioSkDvwpEaU_35.mp4	0.0	254.42781400680542	0.10026407241821289
56	155.99093103408813	fix_pre	0		39.0	54.0	2.5	blank	1.0	254.52807807922363	0.32468295097351074
56	156.3074369430542	response	0	4		54.0	2.5	blank	1.0	254.8445839881897	
56	156.31561398506165	movie	1		301.0	54.0	2.5	blank	1.0	254.85276103019714	2.5083210468292236
56	158.82393503189087	fix_post	2		12.0	54.0	2.5	blank	1.0	257.36108207702637	0.1000058650970459
57	158.92394089698792	fix_pre	0		32.0	55.0	2.5	/experiments/knapen_aot/videos/R_S_yt-TbdZrcl_Jso_5.mp4	0.0	257.4610879421234	0.2666890621185303
57	159.18241786956787	response	0	4		55.0	2.5	/experiments/knapen_aot/videos/R_S_yt-TbdZrcl_Jso_5.mp4	0.0	257.71956491470337	
57	159.19062995910645	movie	1		301.0	55.0	2.5	/experiments/knapen_aot/videos/R_S_yt-TbdZrcl_Jso_5.mp4	0.0	257.72777700424194	2.5083060264587402
57	161.69893598556519	fix_post	2		12.0	55.0	2.5	/experiments/knapen_aot/videos/R_S_yt-TbdZrcl_Jso_5.mp4	0.0	260.2360830307007	0.09998202323913574
58	161.79891800880432	fix_pre	0		17.0	56.0	2.5	/experiments/knapen_aot/videos/R_S_ILSVRC2015_train_00594000.mp4	0.0	260.3360650539398	0.14161896705627441
58	161.9323890209198	response	0	4		56.0	2.5	/experiments/knapen_aot/videos/R_S_ILSVRC2015_train_00594000.mp4	0.0	260.4695360660553	
58	161.9405369758606	movie	1		300.0	56.0	2.5	/experiments/knapen_aot/videos/R_S_ILSVRC2015_train_00594000.mp4	0.0	260.4776840209961	2.5084240436553955
58	164.448961019516	fix_post	2		12.0	56.0	2.5	/experiments/knapen_aot/videos/R_S_ILSVRC2015_train_00594000.mp4	0.0	262.9861080646515	0.09996485710144043
59	164.54892587661743	fix_pre	0		17.0	57.0	2.5	/experiments/knapen_aot/videos/R_S_ILSVRC2015_train_00595000.mp4	0.0	263.08607292175293	0.14162707328796387
59	164.68230390548706	response	0	4		57.0	2.5	/experiments/knapen_aot/videos/R_S_ILSVRC2015_train_00595000.mp4	0.0	263.21945095062256	
59	164.6905529499054	movie	1		301.0	57.0	2.5	/experiments/knapen_aot/videos/R_S_ILSVRC2015_train_00595000.mp4	0.0	263.2276999950409	2.508404016494751
59	167.19895696640015	fix_post	2		12.0	57.0	2.5	/experiments/knapen_aot/videos/R_S_ILSVRC2015_train_00595000.mp4	0.0	265.73610401153564	0.10000991821289062
60	167.29896688461304	fix_pre	0		26.0	58.0	2.5	/experiments/knapen_aot/videos/R_S_c5iVM3LI6kI_252.mp4	0.0	265.83611392974854	0.21659207344055176
60	167.49988293647766	response	0	4		58.0	2.5	/experiments/knapen_aot/videos/R_S_c5iVM3LI6kI_252.mp4	0.0	266.03702998161316	
60	167.5155589580536	movie	1		301.0	58.0	2.5	/experiments/knapen_aot/videos/R_S_c5iVM3LI6kI_252.mp4	0.0	266.0527060031891	2.508362054824829
60	170.02392101287842	fix_post	2		12.0	58.0	2.5	/experiments/knapen_aot/videos/R_S_c5iVM3LI6kI_252.mp4	0.0	268.5610680580139	0.09999895095825195
61	170.12391996383667	fix_pre	0		8.0	59.0	2.5	/experiments/knapen_aot/videos/S_yt-Dlk44AGz-xM_37.mp4	0.0	268.66106700897217	0.06664204597473145
61	170.18233799934387	response	0	4		59.0	2.5	/experiments/knapen_aot/videos/S_yt-Dlk44AGz-xM_37.mp4	0.0	268.71948504447937	
61	170.1905620098114	movie	1		301.0	59.0	2.5	/experiments/knapen_aot/videos/S_yt-Dlk44AGz-xM_37.mp4	0.0	268.7277090549469	2.50838303565979
61	172.6989450454712	fix_post	2		12.0	59.0	2.5	/experiments/knapen_aot/videos/S_yt-Dlk44AGz-xM_37.mp4	0.0	271.2360920906067	0.1000828742980957
62	172.7990279197693	fix_pre	0		18.0	60.0	2.5	/experiments/knapen_aot/videos/S_yt-wUqpCtBOFBA_89.mp4	0.0	271.3361749649048	0.14999008178710938
62	172.94067192077637	response	0	4		60.0	2.5	/experiments/knapen_aot/videos/S_yt-wUqpCtBOFBA_89.mp4	0.0	271.47781896591187	
62	172.9490180015564	movie	1		301.0	60.0	2.5	/experiments/knapen_aot/videos/S_yt-wUqpCtBOFBA_89.mp4	0.0	271.4861650466919	2.508094072341919
62	175.45711207389832	fix_post	2		12.0	60.0	2.5	/experiments/knapen_aot/videos/S_yt-wUqpCtBOFBA_89.mp4	0.0	273.9942591190338	0.10005497932434082
63	175.55716705322266	fix_pre	0		20.0	61.0	2.5	/experiments/knapen_aot/videos/R_S_yt-8N5UuN5WQcY_72.mp4	0.0	274.09431409835815	0.16672086715698242
63	175.71562004089355	response	0	4		61.0	2.5	/experiments/knapen_aot/videos/R_S_yt-8N5UuN5WQcY_72.mp4	0.0	274.25276708602905	
63	175.72388792037964	movie	1		301.0	61.0	2.5	/experiments/knapen_aot/videos/R_S_yt-8N5UuN5WQcY_72.mp4	0.0	274.26103496551514	2.5083510875701904
63	178.23223900794983	fix_post	2		12.0	61.0	2.5	/experiments/knapen_aot/videos/R_S_yt-8N5UuN5WQcY_72.mp4	0.0	276.7693860530853	0.09995794296264648
64	178.33219695091248	fix_pre	0		53.0	62.0	2.5	blank	1.0	276.869343996048	0.4416189193725586
64	178.76566195487976	response	0	4		62.0	2.5	blank	1.0	277.30280900001526	
64	178.77381587028503	movie	1		301.0	62.0	2.5	blank	1.0	277.31096291542053	2.5085251331329346
64	181.28234100341797	fix_post	2		12.0	62.0	2.5	blank	1.0	279.81948804855347	0.09981489181518555
65	181.38215589523315	fix_pre	0		24.0	63.0	2.5	/experiments/knapen_aot/videos/S_pexels-c-technical-6754008.mp4	0.0	279.91930294036865	0.19998407363891602
65	181.57395887374878	response	0	4		63.0	2.5	/experiments/knapen_aot/videos/S_pexels-c-technical-6754008.mp4	0.0	280.1111059188843	
65	181.58213996887207	movie	1		183.0	63.0	2.5	/experiments/knapen_aot/videos/S_pexels-c-technical-6754008.mp4	0.0	280.11928701400757	2.508286952972412
65	184.09042692184448	fix_post	2		12.0	63.0	2.5	/experiments/knapen_aot/videos/S_pexels-c-technical-6754008.mp4	0.0	282.62757396698	0.1000981330871582
66	184.19052505493164	fix_pre	0		16.0	64.0	2.5	/experiments/knapen_aot/videos/R_S_c5iVM3LI6kI_252.mp4	0.0	282.72767210006714	0.13341999053955078
66	184.3081350326538	response	0	4		64.0	2.5	/experiments/knapen_aot/videos/R_S_c5iVM3LI6kI_252.mp4	0.0	282.8452820777893	
66	184.3239450454712	movie	1		301.0	64.0	2.5	/experiments/knapen_aot/videos/R_S_c5iVM3LI6kI_252.mp4	0.0	282.8610920906067	2.5082240104675293
66	186.83216905593872	fix_post	2		12.0	64.0	2.5	/experiments/knapen_aot/videos/R_S_c5iVM3LI6kI_252.mp4	0.0	285.3693161010742	0.0999758243560791
67	186.9321448802948	fix_pre	0		16.0	65.0	2.5	/experiments/knapen_aot/videos/S_yt-Gam0NeyyG8w_22.mp4	0.0	285.4692919254303	0.13331007957458496
67	187.05717301368713	response	0	4		65.0	2.5	/experiments/knapen_aot/videos/S_yt-Gam0NeyyG8w_22.mp4	0.0	285.59432005882263	
67	187.06545495986938	movie	1		301.0	65.0	2.5	/experiments/knapen_aot/videos/S_yt-Gam0NeyyG8w_22.mp4	0.0	285.6026020050049	2.508476972579956
67	189.57393193244934	fix_post	2		12.0	65.0	2.5	/experiments/knapen_aot/videos/S_yt-Gam0NeyyG8w_22.mp4	0.0	288.11107897758484	0.09984803199768066
68	189.67377996444702	fix_pre	0		9.0	66.0	2.5	/experiments/knapen_aot/videos/R_S_yt-sPhtPyQM00c_106.mp4	0.0	288.2109270095825	0.07507991790771484
68	189.74139499664307	response	0	4		66.0	2.5	/experiments/knapen_aot/videos/R_S_yt-sPhtPyQM00c_106.mp4	0.0	288.27854204177856	
68	189.74885988235474	movie	1		301.0	66.0	2.5	/experiments/knapen_aot/videos/R_S_yt-sPhtPyQM00c_106.mp4	0.0	288.28600692749023	2.5082600116729736
68	192.2571198940277	fix_post	2		12.0	66.0	2.5	/experiments/knapen_aot/videos/R_S_yt-sPhtPyQM00c_106.mp4	0.0	290.7942669391632	0.09999799728393555
69	192.35711789131165	fix_pre	0		16.0	67.0	2.5	/experiments/knapen_aot/videos/R_S_ILSVRC2015_train_00632002.mp4	0.0	290.89426493644714	0.13340997695922852
69	192.48218488693237	response	0	4		67.0	2.5	/experiments/knapen_aot/videos/R_S_ILSVRC2015_train_00632002.mp4	0.0	291.01933193206787	
69	192.49052786827087	movie	1		301.0	67.0	2.5	/experiments/knapen_aot/videos/R_S_ILSVRC2015_train_00632002.mp4	0.0	291.0276749134064	2.5082449913024902
69	194.99877285957336	fix_post	2		12.0	67.0	2.5	/experiments/knapen_aot/videos/R_S_ILSVRC2015_train_00632002.mp4	0.0	293.53591990470886	0.10001206398010254
70	195.09878492355347	fix_pre	0		3.0	68.0	2.5	/experiments/knapen_aot/videos/S_yt-NZIhxK5NvWE_152.mp4	0.0	293.63593196868896	0.025031089782714844
70	195.1162679195404	response	0	4		68.0	2.5	/experiments/knapen_aot/videos/S_yt-NZIhxK5NvWE_152.mp4	0.0	293.6534149646759	
70	195.12381601333618	movie	1		300.0	68.0	2.5	/experiments/knapen_aot/videos/S_yt-NZIhxK5NvWE_152.mp4	0.0	293.6609630584717	2.5082950592041016
70	197.63211107254028	fix_post	2		12.0	68.0	2.5	/experiments/knapen_aot/videos/S_yt-NZIhxK5NvWE_152.mp4	0.0	296.1692581176758	0.10000085830688477
71	197.73211193084717	fix_pre	0		18.0	69.0	2.5	blank	1.0	296.26925897598267	0.1500861644744873
71	197.87392902374268	response	0	4		69.0	2.5	blank	1.0	296.4110760688782	
71	197.88219809532166	movie	1		301.0	69.0	2.5	blank	1.0	296.41934514045715	2.5082569122314453
71	200.3904550075531	fix_post	2		12.0	69.0	2.5	blank	1.0	298.9276020526886	0.10000991821289062
72	200.490464925766	fix_pre	0		33.0	70.0	2.5	/experiments/knapen_aot/videos/R_S_RS_A008_C010_SDR_20191218_SDR_2K_AVC.mp4	0.0	299.0276119709015	0.27487897872924805
72	200.75721788406372	response	0	4		70.0	2.5	/experiments/knapen_aot/videos/R_S_RS_A008_C010_SDR_20191218_SDR_2K_AVC.mp4	0.0	299.2943649291992	
72	200.76534390449524	movie	1		181.0	70.0	2.5	/experiments/knapen_aot/videos/R_S_RS_A008_C010_SDR_20191218_SDR_2K_AVC.mp4	0.0	299.30249094963074	2.5084211826324463
72	203.17383408546448	response	1	4		70.0	2.5	/experiments/knapen_aot/videos/R_S_RS_A008_C010_SDR_20191218_SDR_2K_AVC.mp4	0.0	301.7109811306	
72	203.27376508712769	fix_post	2		12.0	70.0	2.5	/experiments/knapen_aot/videos/R_S_RS_A008_C010_SDR_20191218_SDR_2K_AVC.mp4	0.0	301.8109121322632	0.09998798370361328
73	203.3737530708313	fix_pre	0		53.0	71.0	2.5	/experiments/knapen_aot/videos/S_production_ID_4325513.mp4	0.0	301.9109001159668	0.44162583351135254
73	203.8071870803833	response	0	4		71.0	2.5	/experiments/knapen_aot/videos/S_production_ID_4325513.mp4	0.0	302.3443341255188	
73	203.81537890434265	movie	1		186.0	71.0	2.5	/experiments/knapen_aot/videos/S_production_ID_4325513.mp4	0.0	302.35252594947815	2.50839900970459
73	206.32377791404724	fix_post	2		12.0	71.0	2.5	/experiments/knapen_aot/videos/S_production_ID_4325513.mp4	0.0	304.86092495918274	0.0999610424041748
74	206.42373895645142	fix_pre	0		10.0	72.0	2.5	/experiments/knapen_aot/videos/R_S_flickr-claywakening-27928940166_2.mp4	0.0	304.9608860015869	0.08330392837524414
74	206.49885988235474	response	0	4		72.0	2.5	/experiments/knapen_aot/videos/R_S_flickr-claywakening-27928940166_2.mp4	0.0	305.03600692749023	
74	206.50704288482666	movie	1		172.0	72.0	2.5	/experiments/knapen_aot/videos/R_S_flickr-claywakening-27928940166_2.mp4	0.0	305.04418992996216	2.5082650184631348
74	209.0153079032898	fix_post	2		12.0	72.0	2.5	/experiments/knapen_aot/videos/R_S_flickr-claywakening-27928940166_2.mp4	0.0	307.5524549484253	0.10010218620300293
75	209.1154100894928	fix_pre	0		44.0	73.0	2.5	/experiments/knapen_aot/videos/S_yt-t-wpKypNysg_27.mp4	0.0	307.6525571346283	0.3666379451751709
75	209.47383999824524	response	0	4		73.0	2.5	/experiments/knapen_aot/videos/S_yt-t-wpKypNysg_27.mp4	0.0	308.01098704338074	
75	209.48204803466797	movie	1		301.0	73.0	2.5	/experiments/knapen_aot/videos/S_yt-t-wpKypNysg_27.mp4	0.0	308.01919507980347	2.508358955383301
75	211.8169310092926	response	1	4		73.0	2.5	/experiments/knapen_aot/videos/S_yt-t-wpKypNysg_27.mp4	0.0	310.3540780544281	
75	211.99040699005127	fix_post	2		12.0	73.0	2.5	/experiments/knapen_aot/videos/S_yt-t-wpKypNysg_27.mp4	0.0	310.52755403518677	0.09991288185119629
76	212.09031987190247	fix_pre	0		25.0	74.0	2.5	/experiments/knapen_aot/videos/R_S_production_ID_4540332.mp4	0.0	310.62746691703796	0.20840120315551758
76	212.29049801826477	response	0	4		74.0	2.5	/experiments/knapen_aot/videos/R_S_production_ID_4540332.mp4	0.0	310.82764506340027	
76	212.29872107505798	movie	1		170.0	74.0	2.5	/experiments/knapen_aot/videos/R_S_production_ID_4540332.mp4	0.0	310.8358681201935	2.5082578659057617
76	214.80697894096375	fix_post	2		12.0	74.0	2.5	/experiments/knapen_aot/videos/R_S_production_ID_4540332.mp4	0.0	313.34412598609924	0.10006904602050781
77	214.90704798698425	fix_pre	0		2.0	75.0	2.5	/experiments/knapen_aot/videos/R_S_yt-452RKqKIeRU_16.mp4	0.0	313.44419503211975	0.016669034957885742
77	214.91549396514893	response	0	4		75.0	2.5	/experiments/knapen_aot/videos/R_S_yt-452RKqKIeRU_16.mp4	0.0	313.4526410102844	
77	214.92371702194214	movie	1		301.0	75.0	2.5	/experiments/knapen_aot/videos/R_S_yt-452RKqKIeRU_16.mp4	0.0	313.46086406707764	2.508349895477295
77	217.43206691741943	fix_post	2		12.0	75.0	2.5	/experiments/knapen_aot/videos/R_S_yt-452RKqKIeRU_16.mp4	0.0	315.96921396255493	0.0999910831451416
78	217.53205800056458	fix_pre	0		25.0	76.0	2.5	/experiments/knapen_aot/videos/R_S_yt-wnQFgNEnHUI_109.mp4	0.0	316.0692050457001	0.208251953125
78	217.73220896720886	response	0	4		76.0	2.5	/experiments/knapen_aot/videos/R_S_yt-wnQFgNEnHUI_109.mp4	0.0	316.26935601234436	
78	217.74030995368958	movie	1		301.0	76.0	2.5	/experiments/knapen_aot/videos/R_S_yt-wnQFgNEnHUI_109.mp4	0.0	316.2774569988251	2.5083210468292236
78	220.2486310005188	fix_post	2		12.0	76.0	2.5	/experiments/knapen_aot/videos/R_S_yt-wnQFgNEnHUI_109.mp4	0.0	318.7857780456543	0.10006403923034668
79	220.34869503974915	fix_pre	0		12.0	77.0	2.5	blank	1.0	318.88584208488464	0.09997296333312988
79	220.43288493156433	response	0	4		77.0	2.5	blank	1.0	318.97003197669983	
79	220.44866800308228	movie	1		301.0	77.0	2.5	blank	1.0	318.9858150482178	2.5083658695220947
79	222.95703387260437	fix_post	2		12.0	77.0	2.5	blank	1.0	321.49418091773987	0.09999299049377441
80	223.05702686309814	fix_pre	0		24.0	78.0	2.5	/experiments/knapen_aot/videos/S_yt--vHa85DHvLU_31.mp4	0.0	321.59417390823364	0.19997310638427734
80	223.2488079071045	response	0	4		78.0	2.5	/experiments/knapen_aot/videos/S_yt--vHa85DHvLU_31.mp4	0.0	321.78595495224	
80	223.25699996948242	movie	1		301.0	78.0	2.5	/experiments/knapen_aot/videos/S_yt--vHa85DHvLU_31.mp4	0.0	321.7941470146179	2.508239984512329
80	225.76523995399475	fix_post	2		12.0	78.0	2.5	/experiments/knapen_aot/videos/S_yt--vHa85DHvLU_31.mp4	0.0	324.30238699913025	0.10015106201171875
81	225.86539101600647	fix_pre	0		27.0	79.0	2.5	/experiments/knapen_aot/videos/S_yt-Xq6uX1jfFRk_21.mp4	0.0	324.40253806114197	0.22490286827087402
81	226.08216094970703	response	0	4		79.0	2.5	/experiments/knapen_aot/videos/S_yt-Xq6uX1jfFRk_21.mp4	0.0	324.61930799484253	
81	226.09029388427734	movie	1		301.0	79.0	2.5	/experiments/knapen_aot/videos/S_yt-Xq6uX1jfFRk_21.mp4	0.0	324.62744092941284	2.508334159851074
81	228.59862804412842	fix_post	2		12.0	79.0	2.5	/experiments/knapen_aot/videos/S_yt-Xq6uX1jfFRk_21.mp4	0.0	327.1357750892639	0.09997200965881348
82	228.69860005378723	fix_pre	0		6.0	80.0	2.5	/experiments/knapen_aot/videos/R_S_ILSVRC2015_train_00574004.mp4	0.0	327.23574709892273	0.0500798225402832
82	228.73329186439514	response	0	4		80.0	2.5	/experiments/knapen_aot/videos/R_S_ILSVRC2015_train_00574004.mp4	0.0	327.27043890953064	
82	228.74867987632751	movie	1		301.0	80.0	2.5	/experiments/knapen_aot/videos/R_S_ILSVRC2015_train_00574004.mp4	0.0	327.285826921463	2.5083320140838623
82	231.25701189041138	fix_post	2		12.0	80.0	2.5	/experiments/knapen_aot/videos/R_S_ILSVRC2015_train_00574004.mp4	0.0	329.7941589355469	0.09995412826538086
83	231.35696601867676	fix_pre	0		8.0	81.0	2.5	/experiments/knapen_aot/videos/R_S_yt-CNq5mTA8oXY_176.mp4	0.0	329.89411306381226	0.0666358470916748
83	231.4154770374298	response	0	4		81.0	2.5	/experiments/knapen_aot/videos/R_S_yt-CNq5mTA8oXY_176.mp4	0.0	329.9526240825653	
83	231.42360186576843	movie	1		301.0	81.0	2.5	/experiments/knapen_aot/videos/R_S_yt-CNq5mTA8oXY_176.mp4	0.0	329.96074891090393	2.5083391666412354
83	233.93194103240967	fix_post	2		12.0	81.0	2.5	/experiments/knapen_aot/videos/R_S_yt-CNq5mTA8oXY_176.mp4	0.0	332.46908807754517	0.10002899169921875
84	234.0319700241089	fix_pre	0		32.0	82.0	2.5	/experiments/knapen_aot/videos/S_yt-e1RAhIW6WAs_535.mp4	0.0	332.5691170692444	0.2665979862213135
84	234.29040503501892	response	0	4		82.0	2.5	/experiments/knapen_aot/videos/S_yt-e1RAhIW6WAs_535.mp4	0.0	332.8275520801544	
84	234.2985680103302	movie	1		301.0	82.0	2.5	/experiments/knapen_aot/videos/S_yt-e1RAhIW6WAs_535.mp4	0.0	332.8357150554657	2.5083749294281006
84	236.8069429397583	fix_post	2		12.0	82.0	2.5	/experiments/knapen_aot/videos/S_yt-e1RAhIW6WAs_535.mp4	0.0	335.3440899848938	0.10001492500305176
85	236.90695786476135	fix_pre	0		12.0	83.0	2.5	blank	1.0	335.44410490989685	0.09995603561401367
85	236.99874687194824	response	0	4		83.0	2.5	blank	1.0	335.53589391708374	
85	237.00691390037537	movie	1		301.0	83.0	2.5	blank	1.0	335.54406094551086	2.508303165435791
85	239.51521706581116	fix_post	2		12.0	83.0	2.5	blank	1.0	338.05236411094666	0.09999489784240723
87	239.61521196365356	stim	0		199.0					338.15235900878906	1.6595990657806396
87	241.2701699733734	response	0	space						339.8073170185089	
