trial_nr	onset	event_type	phase	response	nr_frames	movie_index	movie_duration	movie_file	blank	onset_abs	duration
0	0.15858101844787598	stim	0		71.0					120.11976909637451	0.6578030586242676
0	0.7834489345550537	response	0	space						120.74463701248169	
1	0.8163840770721436	stim	0		121.0					120.77757215499878	1.0082759857177734
1	1.824660062789917	stim	1		120.0					121.78584814071655	0.9999549388885498
1	2.3664181232452393	response	1	space						122.32760620117188	
2	2.824615001678467	fix_pre	0		37.0	0.0	2.5	/experiments/knapen_aot/videos/R_S_yt-7Z6Kmp0n7L8_145.mp4	0.0	122.7858030796051	0.30834007263183594
2	3.12477707862854	response	0	space		0.0	2.5	/experiments/knapen_aot/videos/R_S_yt-7Z6Kmp0n7L8_145.mp4	0.0	123.08596515655518	
2	3.1329550743103027	movie	1		297.0	0.0	2.5	/experiments/knapen_aot/videos/R_S_yt-7Z6Kmp0n7L8_145.mp4	0.0	123.09414315223694	2.508357048034668
2	5.641312122344971	fix_post	2		12.0	0.0	2.5	/experiments/knapen_aot/videos/R_S_yt-7Z6Kmp0n7L8_145.mp4	0.0	125.6025002002716	0.1000368595123291
3	5.7413489818573	fix_pre	0		432.0	1.0	2.5	/experiments/knapen_aot/videos/R_S_yt-yQrDeFlFmfM_138.mp4	0.0	125.70253705978394	3.6028389930725098
3	9.330797910690308	response	0	2		1.0	2.5	/experiments/knapen_aot/videos/R_S_yt-yQrDeFlFmfM_138.mp4	0.0	129.29198598861694	
3	9.34418797492981	movie	1		300.0	1.0	2.5	/experiments/knapen_aot/videos/R_S_yt-yQrDeFlFmfM_138.mp4	0.0	129.30537605285645	2.5054450035095215
3	11.849632978439331	fix_post	2		12.0	1.0	2.5	/experiments/knapen_aot/videos/R_S_yt-yQrDeFlFmfM_138.mp4	0.0	131.81082105636597	0.10000205039978027
4	11.949635028839111	fix_pre	0		34.0	2.0	2.5	/experiments/knapen_aot/videos/S_yt-06XMUn9DTKc_35.mp4	0.0	131.91082310676575	0.28330492973327637
4	12.224796056747437	response	0	2		2.0	2.5	/experiments/knapen_aot/videos/S_yt-06XMUn9DTKc_35.mp4	0.0	132.18598413467407	
4	12.232939958572388	movie	1		301.0	2.0	2.5	/experiments/knapen_aot/videos/S_yt-06XMUn9DTKc_35.mp4	0.0	132.19412803649902	2.5083601474761963
4	14.741300106048584	fix_post	2		12.0	2.0	2.5	/experiments/knapen_aot/videos/S_yt-06XMUn9DTKc_35.mp4	0.0	134.70248818397522	0.09998083114624023
5	14.841280937194824	fix_pre	0		33.0	3.0	2.5	/experiments/knapen_aot/videos/S_wc-sd8_iKx0t7s7_9.mp4	0.0	134.80246901512146	0.2749660015106201
5	15.108150959014893	response	0	2		3.0	2.5	/experiments/knapen_aot/videos/S_wc-sd8_iKx0t7s7_9.mp4	0.0	135.06933903694153	
5	15.116246938705444	movie	1		164.0	3.0	2.5	/experiments/knapen_aot/videos/S_wc-sd8_iKx0t7s7_9.mp4	0.0	135.07743501663208	2.508363962173462
5	17.624610900878906	fix_post	2		12.0	3.0	2.5	/experiments/knapen_aot/videos/S_wc-sd8_iKx0t7s7_9.mp4	0.0	137.58579897880554	0.09999418258666992
6	17.724605083465576	fix_pre	0		250.0	4.0	2.5	/experiments/knapen_aot/videos/S_b1-3.mp4	0.0	137.6857931613922	2.0831868648529053
6	19.799686908721924	response	0	2		4.0	2.5	/experiments/knapen_aot/videos/S_b1-3.mp4	0.0	139.76087498664856	
6	19.80779194831848	movie	1		165.0	4.0	2.5	/experiments/knapen_aot/videos/S_b1-3.mp4	0.0	139.76898002624512	2.508466958999634
6	22.316258907318115	fix_post	2		12.0	4.0	2.5	/experiments/knapen_aot/videos/S_b1-3.mp4	0.0	142.27744698524475	0.09997916221618652
7	22.4162380695343	fix_pre	0		123.0	5.0	2.5	/experiments/knapen_aot/videos/R_S_production_ID_3927047.mp4	0.0	142.37742614746094	1.0249128341674805
7	23.425445079803467	response	0	2		5.0	2.5	/experiments/knapen_aot/videos/R_S_production_ID_3927047.mp4	0.0	143.3866331577301	
7	23.441150903701782	movie	1		176.0	5.0	2.5	/experiments/knapen_aot/videos/R_S_production_ID_3927047.mp4	0.0	143.40233898162842	2.508334159851074
7	25.949485063552856	fix_post	2		12.0	5.0	2.5	/experiments/knapen_aot/videos/R_S_production_ID_3927047.mp4	0.0	145.9106731414795	0.09998583793640137
8	26.049470901489258	fix_pre	0		79.0	6.0	2.5	blank	1.0	146.0106589794159	0.6583740711212158
8	26.69962191581726	response	0	2		6.0	2.5	blank	1.0	146.6608099937439	
8	26.707844972610474	movie	1		301.0	6.0	2.5	blank	1.0	146.6690330505371	2.508402109146118
8	26.93294405937195	response	1	2		6.0	2.5	blank	1.0	146.89413213729858	
8	29.216247081756592	fix_post	2		12.0	6.0	2.5	blank	1.0	149.17743515968323	0.09991097450256348
9	29.316158056259155	fix_pre	0		144.0	7.0	2.5	/experiments/knapen_aot/videos/S_yt-oVrkSsEpuvk_118.mp4	0.0	149.2773461341858	1.1999728679656982
9	30.507992029190063	response	0	2		7.0	2.5	/experiments/knapen_aot/videos/S_yt-oVrkSsEpuvk_118.mp4	0.0	150.4691801071167	
9	30.516130924224854	movie	1		301.0	7.0	2.5	/experiments/knapen_aot/videos/S_yt-oVrkSsEpuvk_118.mp4	0.0	150.4773190021515	2.5083370208740234
9	30.74132490158081	response	1	2		7.0	2.5	/experiments/knapen_aot/videos/S_yt-oVrkSsEpuvk_118.mp4	0.0	150.70251297950745	
9	33.02446794509888	fix_post	2		12.0	7.0	2.5	/experiments/knapen_aot/videos/S_yt-oVrkSsEpuvk_118.mp4	0.0	152.9856560230255	0.10004115104675293
10	33.12450909614563	fix_pre	0		200.0	8.0	2.5	/experiments/knapen_aot/videos/S_2RTDFkjD6vI_93.mp4	0.0	153.08569717407227	1.666632890701294
10	34.78291392326355	response	0	2		8.0	2.5	/experiments/knapen_aot/videos/S_2RTDFkjD6vI_93.mp4	0.0	154.74410200119019	
10	34.791141986846924	movie	1		301.0	8.0	2.5	/experiments/knapen_aot/videos/S_2RTDFkjD6vI_93.mp4	0.0	154.75233006477356	2.5083770751953125
10	37.299519062042236	fix_post	2		12.0	8.0	2.5	/experiments/knapen_aot/videos/S_2RTDFkjD6vI_93.mp4	0.0	157.26070713996887	0.09996485710144043
11	37.39948391914368	fix_pre	0		112.0	9.0	2.5	/experiments/knapen_aot/videos/R_S_yt-kxWtOXNIsRA_329.mp4	0.0	157.3606719970703	0.9333209991455078
11	38.32462191581726	response	0	2		9.0	2.5	/experiments/knapen_aot/videos/R_S_yt-kxWtOXNIsRA_329.mp4	0.0	158.2858099937439	
11	38.332804918289185	movie	1		301.0	9.0	2.5	/experiments/knapen_aot/videos/R_S_yt-kxWtOXNIsRA_329.mp4	0.0	158.29399299621582	2.5084102153778076
11	40.84121513366699	fix_post	2		12.0	9.0	2.5	/experiments/knapen_aot/videos/R_S_yt-kxWtOXNIsRA_329.mp4	0.0	160.80240321159363	0.09991693496704102
12	40.94113206863403	fix_pre	0		50.0	10.0	2.5	/experiments/knapen_aot/videos/R_S_2RTDFkjD6vI_93.mp4	0.0	160.90232014656067	0.4166069030761719
12	41.34201097488403	response	0	2		10.0	2.5	/experiments/knapen_aot/videos/R_S_2RTDFkjD6vI_93.mp4	0.0	161.30319905281067	
12	41.357738971710205	movie	1		301.0	10.0	2.5	/experiments/knapen_aot/videos/R_S_2RTDFkjD6vI_93.mp4	0.0	161.31892704963684	2.5083889961242676
12	43.86612796783447	fix_post	2		12.0	10.0	2.5	/experiments/knapen_aot/videos/R_S_2RTDFkjD6vI_93.mp4	0.0	163.8273160457611	0.0999910831451416
13	43.966119050979614	fix_pre	0		353.0	11.0	2.5	/experiments/knapen_aot/videos/R_S_video_inspire_uk_edinburgh_arthursseat_010.1080-h264.mp4	0.0	163.92730712890625	2.9416470527648926
13	46.899574995040894	response	0	2		11.0	2.5	/experiments/knapen_aot/videos/R_S_video_inspire_uk_edinburgh_arthursseat_010.1080-h264.mp4	0.0	166.86076307296753	
13	46.90776610374451	movie	1		172.0	11.0	2.5	/experiments/knapen_aot/videos/R_S_video_inspire_uk_edinburgh_arthursseat_010.1080-h264.mp4	0.0	166.86895418167114	2.508327007293701
13	49.41609311103821	fix_post	2		12.0	11.0	2.5	/experiments/knapen_aot/videos/R_S_video_inspire_uk_edinburgh_arthursseat_010.1080-h264.mp4	0.0	169.37728118896484	0.09997391700744629
14	49.516067028045654	fix_pre	0		78.0	12.0	2.5	blank	1.0	169.4772551059723	0.6500098705291748
14	50.15780711174011	response	0	2		12.0	2.5	blank	1.0	170.11899518966675	
14	50.16607689857483	movie	1		301.0	12.0	2.5	blank	1.0	170.12726497650146	2.508362054824829
14	52.67443895339966	fix_post	2		12.0	12.0	2.5	blank	1.0	172.6356270313263	0.09995603561401367
15	52.77439498901367	fix_pre	0		165.0	13.0	2.5	/experiments/knapen_aot/videos/R_S_ILSVRC2015_train_00547001.mp4	0.0	172.7355830669403	1.3750369548797607
15	54.14119005203247	response	0	2		13.0	2.5	/experiments/knapen_aot/videos/R_S_ILSVRC2015_train_00547001.mp4	0.0	174.1023781299591	
15	54.14943194389343	movie	1		301.0	13.0	2.5	/experiments/knapen_aot/videos/R_S_ILSVRC2015_train_00547001.mp4	0.0	174.11062002182007	2.508247137069702
15	56.657679080963135	fix_post	2		12.0	13.0	2.5	/experiments/knapen_aot/videos/R_S_ILSVRC2015_train_00547001.mp4	0.0	176.61886715888977	0.10004901885986328
16	56.757728099823	fix_pre	0		92.0	14.0	2.5	/experiments/knapen_aot/videos/R_S_yt-Bx2kLEUuN0E_456.mp4	0.0	176.71891617774963	0.7665729522705078
16	57.51617693901062	response	0	2		14.0	2.5	/experiments/knapen_aot/videos/R_S_yt-Bx2kLEUuN0E_456.mp4	0.0	177.47736501693726	
16	57.524301052093506	movie	1		301.0	14.0	2.5	/experiments/knapen_aot/videos/R_S_yt-Bx2kLEUuN0E_456.mp4	0.0	177.48548913002014	2.508481025695801
16	60.03278207778931	fix_post	2		12.0	14.0	2.5	/experiments/knapen_aot/videos/R_S_yt-Bx2kLEUuN0E_456.mp4	0.0	179.99397015571594	0.09996485710144043
17	60.13274693489075	fix_pre	0		178.0	15.0	2.5	/experiments/knapen_aot/videos/R_S_yt-QXsedpZh800_275.mp4	0.0	180.09393501281738	1.483262062072754
17	61.60782790184021	response	0	2		15.0	2.5	/experiments/knapen_aot/videos/R_S_yt-QXsedpZh800_275.mp4	0.0	181.56901597976685	
17	61.6160089969635	movie	1		301.0	15.0	2.5	/experiments/knapen_aot/videos/R_S_yt-QXsedpZh800_275.mp4	0.0	181.57719707489014	2.508347988128662
17	64.12435698509216	fix_post	2		12.0	15.0	2.5	/experiments/knapen_aot/videos/R_S_yt-QXsedpZh800_275.mp4	0.0	184.0855450630188	0.10001397132873535
18	64.2243709564209	fix_pre	0		101.0	16.0	2.5	/experiments/knapen_aot/videos/R_S_yt-xQPKYWDRy2A_491.mp4	0.0	184.18555903434753	0.8416211605072021
18	65.05778002738953	response	0	2		16.0	2.5	/experiments/knapen_aot/videos/R_S_yt-xQPKYWDRy2A_491.mp4	0.0	185.01896810531616	
18	65.0659921169281	movie	1		301.0	16.0	2.5	/experiments/knapen_aot/videos/R_S_yt-xQPKYWDRy2A_491.mp4	0.0	185.02718019485474	2.5083789825439453
18	67.57437109947205	fix_post	2		12.0	16.0	2.5	/experiments/knapen_aot/videos/R_S_yt-xQPKYWDRy2A_491.mp4	0.0	187.53555917739868	0.09994292259216309
19	67.67431402206421	fix_pre	0		104.0	17.0	2.5	/experiments/knapen_aot/videos/S_flickr-csgzs-8144064966_10.mp4	0.0	187.63550209999084	0.8666529655456543
19	68.53278803825378	response	0	2		17.0	2.5	/experiments/knapen_aot/videos/S_flickr-csgzs-8144064966_10.mp4	0.0	188.49397611618042	
19	68.54096698760986	movie	1		301.0	17.0	2.5	/experiments/knapen_aot/videos/S_flickr-csgzs-8144064966_10.mp4	0.0	188.5021550655365	2.508363962173462
19	71.04933094978333	fix_post	2		12.0	17.0	2.5	/experiments/knapen_aot/videos/S_flickr-csgzs-8144064966_10.mp4	0.0	191.01051902770996	0.10016012191772461
20	71.14949107170105	fix_pre	0		113.0	18.0	2.5	/experiments/knapen_aot/videos/S_yt-Fm97IY0Z2LU_110.mp4	0.0	191.11067914962769	0.9415009021759033
20	72.08287501335144	response	0	2		18.0	2.5	/experiments/knapen_aot/videos/S_yt-Fm97IY0Z2LU_110.mp4	0.0	192.04406309127808	
20	72.09099197387695	movie	1		301.0	18.0	2.5	/experiments/knapen_aot/videos/S_yt-Fm97IY0Z2LU_110.mp4	0.0	192.0521800518036	2.5083119869232178
20	74.59930396080017	fix_post	2		12.0	18.0	2.5	/experiments/knapen_aot/videos/S_yt-Fm97IY0Z2LU_110.mp4	0.0	194.5604920387268	0.10014915466308594
21	74.69945311546326	fix_pre	0		145.0	19.0	2.5	blank	1.0	194.6606411933899	1.2082409858703613
21	75.89945197105408	response	0	2		19.0	2.5	blank	1.0	195.8606400489807	
21	75.90769410133362	movie	1		301.0	19.0	2.5	blank	1.0	195.86888217926025	2.5084149837493896
21	78.41610908508301	fix_post	2		12.0	19.0	2.5	blank	1.0	198.37729716300964	0.09996604919433594
22	78.51607513427734	fix_pre	0		37.0	20.0	2.5	/experiments/knapen_aot/videos/R_S_yt--UhwpukdyBg_51.mp4	0.0	198.47726321220398	0.3082568645477295
22	78.8160970211029	response	0	2		20.0	2.5	/experiments/knapen_aot/videos/R_S_yt--UhwpukdyBg_51.mp4	0.0	198.77728509902954	
22	78.82433199882507	movie	1		301.0	20.0	2.5	/experiments/knapen_aot/videos/R_S_yt--UhwpukdyBg_51.mp4	0.0	198.7855200767517	2.508312940597534
22	81.33264493942261	fix_post	2		12.0	20.0	2.5	/experiments/knapen_aot/videos/R_S_yt--UhwpukdyBg_51.mp4	0.0	201.29383301734924	0.09998512268066406
23	81.43263006210327	fix_pre	0		40.0	21.0	2.5	/experiments/knapen_aot/videos/S_yt-qxtmtMnUfD0_124.mp4	0.0	201.3938181400299	0.3343689441680908
23	81.75779104232788	response	0	2		21.0	2.5	/experiments/knapen_aot/videos/S_yt-qxtmtMnUfD0_124.mp4	0.0	201.71897912025452	
23	81.76699900627136	movie	1		301.0	21.0	2.5	/experiments/knapen_aot/videos/S_yt-qxtmtMnUfD0_124.mp4	0.0	201.728187084198	2.5073049068450928
23	84.27430391311646	fix_post	2		12.0	21.0	2.5	/experiments/knapen_aot/videos/S_yt-qxtmtMnUfD0_124.mp4	0.0	204.2354919910431	0.1000220775604248
24	84.37432599067688	fix_pre	0		95.0	22.0	2.5	/experiments/knapen_aot/videos/R_S_ILSVRC2015_train_00559000.mp4	0.0	204.33551406860352	0.7916300296783447
24	85.15777206420898	response	0	2		22.0	2.5	/experiments/knapen_aot/videos/R_S_ILSVRC2015_train_00559000.mp4	0.0	205.11896014213562	
24	85.16595602035522	movie	1		301.0	22.0	2.5	/experiments/knapen_aot/videos/R_S_ILSVRC2015_train_00559000.mp4	0.0	205.12714409828186	2.508474111557007
24	87.67443013191223	fix_post	2		12.0	22.0	2.5	/experiments/knapen_aot/videos/R_S_ILSVRC2015_train_00559000.mp4	0.0	207.63561820983887	0.09996700286865234
25	87.77439713478088	fix_pre	0		130.0	23.0	2.5	/experiments/knapen_aot/videos/R_S_yt-utYnOeoj2Rw_3.mp4	0.0	207.73558521270752	1.083183765411377
25	88.84943008422852	response	0	2		23.0	2.5	/experiments/knapen_aot/videos/R_S_yt-utYnOeoj2Rw_3.mp4	0.0	208.81061816215515	
25	88.85758090019226	movie	1		301.0	23.0	2.5	/experiments/knapen_aot/videos/R_S_yt-utYnOeoj2Rw_3.mp4	0.0	208.8187689781189	2.5084211826324463
25	91.3660020828247	fix_post	2		12.0	23.0	2.5	/experiments/knapen_aot/videos/R_S_yt-utYnOeoj2Rw_3.mp4	0.0	211.32719016075134	0.0999448299407959
26	91.4659469127655	fix_pre	0		91.0	24.0	2.5	/experiments/knapen_aot/videos/R_S_yt-MXLxcvKZDHw_22.mp4	0.0	211.42713499069214	0.7592580318450928
26	92.21608090400696	response	0	2		24.0	2.5	/experiments/knapen_aot/videos/R_S_yt-MXLxcvKZDHw_22.mp4	0.0	212.1772689819336	
26	92.2252049446106	movie	1		301.0	24.0	2.5	/experiments/knapen_aot/videos/R_S_yt-MXLxcvKZDHw_22.mp4	0.0	212.18639302253723	2.5073440074920654
26	94.73254895210266	fix_post	2		12.0	24.0	2.5	/experiments/knapen_aot/videos/R_S_yt-MXLxcvKZDHw_22.mp4	0.0	214.6937370300293	0.10004901885986328
27	94.83259797096252	fix_pre	0		77.0	25.0	2.5	/experiments/knapen_aot/videos/R_S_yt-PK-Eip9wFr0_24.mp4	0.0	214.79378604888916	0.6426150798797607
27	95.4585189819336	response	0	2		25.0	2.5	/experiments/knapen_aot/videos/R_S_yt-PK-Eip9wFr0_24.mp4	0.0	215.41970705986023	
27	95.47521305084229	movie	1		301.0	25.0	2.5	/experiments/knapen_aot/videos/R_S_yt-PK-Eip9wFr0_24.mp4	0.0	215.43640112876892	2.507390022277832
27	97.98260307312012	fix_post	2		12.0	25.0	2.5	/experiments/knapen_aot/videos/R_S_yt-PK-Eip9wFr0_24.mp4	0.0	217.94379115104675	0.09995293617248535
28	98.0825560092926	fix_pre	0		73.0	26.0	2.5	/experiments/knapen_aot/videos/S_yt-LsCCAQ8BRO8_7.mp4	0.0	218.04374408721924	0.6083319187164307
28	98.68277502059937	response	0	2		26.0	2.5	/experiments/knapen_aot/videos/S_yt-LsCCAQ8BRO8_7.mp4	0.0	218.643963098526	
28	98.69088792800903	movie	1		301.0	26.0	2.5	/experiments/knapen_aot/videos/S_yt-LsCCAQ8BRO8_7.mp4	0.0	218.65207600593567	2.508327007293701
28	101.19921493530273	fix_post	2		12.0	26.0	2.5	/experiments/knapen_aot/videos/S_yt-LsCCAQ8BRO8_7.mp4	0.0	221.16040301322937	0.10001611709594727
29	101.29923105239868	fix_pre	0		215.0	27.0	2.5	/experiments/knapen_aot/videos/R_S_yt-06XMUn9DTKc_35.mp4	0.0	221.26041913032532	1.7915840148925781
29	103.08264493942261	response	0	2		27.0	2.5	/experiments/knapen_aot/videos/R_S_yt-06XMUn9DTKc_35.mp4	0.0	223.04383301734924	
29	103.09081506729126	movie	1		301.0	27.0	2.5	/experiments/knapen_aot/videos/R_S_yt-06XMUn9DTKc_35.mp4	0.0	223.0520031452179	2.508333921432495
29	105.59914898872375	fix_post	2		12.0	27.0	2.5	/experiments/knapen_aot/videos/R_S_yt-06XMUn9DTKc_35.mp4	0.0	225.5603370666504	0.10014796257019043
30	105.69929695129395	fix_pre	0		176.0	28.0	2.5	blank	1.0	225.66048502922058	1.46647310256958
30	107.15756297111511	response	0	2		28.0	2.5	blank	1.0	227.11875104904175	
30	107.16577005386353	movie	1		301.0	28.0	2.5	blank	1.0	227.12695813179016	2.508394956588745
30	109.67416501045227	fix_post	2		12.0	28.0	2.5	blank	1.0	229.6353530883789	0.09996795654296875
31	109.77413296699524	fix_pre	0		181.0	29.0	2.5	/experiments/knapen_aot/videos/S_yt-5DD4XtHSA9Q_171.mp4	0.0	229.73532104492188	1.508316993713379
31	111.26694107055664	response	0	2		29.0	2.5	/experiments/knapen_aot/videos/S_yt-5DD4XtHSA9Q_171.mp4	0.0	231.22812914848328	
31	111.28244996070862	movie	1		301.0	29.0	2.5	/experiments/knapen_aot/videos/S_yt-5DD4XtHSA9Q_171.mp4	0.0	231.24363803863525	2.5083720684051514
31	113.79082202911377	fix_post	2		12.0	29.0	2.5	/experiments/knapen_aot/videos/S_yt-5DD4XtHSA9Q_171.mp4	0.0	233.7520101070404	0.09998202323913574
32	113.8908040523529	fix_pre	0		49.0	30.0	2.5	/experiments/knapen_aot/videos/S_yt-r2jZ0zZrqzQ_45.mp4	0.0	233.85199213027954	0.4082660675048828
32	114.29095196723938	response	0	2		30.0	2.5	/experiments/knapen_aot/videos/S_yt-r2jZ0zZrqzQ_45.mp4	0.0	234.25214004516602	
32	114.29907011985779	movie	1		301.0	30.0	2.5	/experiments/knapen_aot/videos/S_yt-r2jZ0zZrqzQ_45.mp4	0.0	234.26025819778442	2.508344888687134
32	116.80741500854492	fix_post	2		12.0	30.0	2.5	/experiments/knapen_aot/videos/S_yt-r2jZ0zZrqzQ_45.mp4	0.0	236.76860308647156	0.10006308555603027
33	116.90747809410095	fix_pre	0		42.0	31.0	2.5	/experiments/knapen_aot/videos/R_S_yt-gDZnJCR2uXI_18.mp4	0.0	236.8686661720276	0.34995388984680176
33	117.24921298027039	response	0	2		31.0	2.5	/experiments/knapen_aot/videos/R_S_yt-gDZnJCR2uXI_18.mp4	0.0	237.21040105819702	
33	117.25743198394775	movie	1		301.0	31.0	2.5	/experiments/knapen_aot/videos/R_S_yt-gDZnJCR2uXI_18.mp4	0.0	237.2186200618744	2.508336067199707
33	119.76576805114746	fix_post	2		12.0	31.0	2.5	/experiments/knapen_aot/videos/R_S_yt-gDZnJCR2uXI_18.mp4	0.0	239.7269561290741	0.10013008117675781
34	119.86589813232422	fix_pre	0		213.0	32.0	2.5	/experiments/knapen_aot/videos/R_S_production_ID_4820868.mp4	0.0	239.82708621025085	1.775681972503662
34	121.63260006904602	response	0	2		32.0	2.5	/experiments/knapen_aot/videos/R_S_production_ID_4820868.mp4	0.0	241.59378814697266	
34	121.64158010482788	movie	1		166.0	32.0	2.5	/experiments/knapen_aot/videos/R_S_production_ID_4820868.mp4	0.0	241.60276818275452	2.507577896118164
34	124.14915800094604	fix_post	2		12.0	32.0	2.5	/experiments/knapen_aot/videos/R_S_production_ID_4820868.mp4	0.0	244.11034607887268	0.10004711151123047
35	124.24920511245728	fix_pre	0		68.0	33.0	2.5	blank	1.0	244.2103931903839	0.5665647983551025
35	124.80001997947693	response	0	2		33.0	2.5	blank	1.0	244.76120805740356	
35	124.81576991081238	movie	1		301.0	33.0	2.5	blank	1.0	244.776957988739	2.5082881450653076
35	127.32405805587769	fix_post	2		12.0	33.0	2.5	blank	1.0	247.28524613380432	0.10003805160522461
36	127.42409610748291	fix_pre	0		37.0	34.0	2.5	/experiments/knapen_aot/videos/S_comp_DB_D002_C003_PSNK_v04_SDR_PS_20180914_SDR_2K_AVC.mp4	0.0	247.38528418540955	0.3082759380340576
36	127.72426009178162	response	0	2		34.0	2.5	/experiments/knapen_aot/videos/S_comp_DB_D002_C003_PSNK_v04_SDR_PS_20180914_SDR_2K_AVC.mp4	0.0	247.68544816970825	
36	127.73237204551697	movie	1		165.0	34.0	2.5	/experiments/knapen_aot/videos/S_comp_DB_D002_C003_PSNK_v04_SDR_PS_20180914_SDR_2K_AVC.mp4	0.0	247.6935601234436	2.508354902267456
36	130.24072694778442	fix_post	2		12.0	34.0	2.5	/experiments/knapen_aot/videos/S_comp_DB_D002_C003_PSNK_v04_SDR_PS_20180914_SDR_2K_AVC.mp4	0.0	250.20191502571106	0.10004401206970215
37	130.34077095985413	fix_pre	0		43.0	35.0	2.5	/experiments/knapen_aot/videos/R_S_yt-2pRKCSgdXXU_30.mp4	0.0	250.30195903778076	0.35831308364868164
37	130.68334102630615	response	0	2		35.0	2.5	/experiments/knapen_aot/videos/R_S_yt-2pRKCSgdXXU_30.mp4	0.0	250.6445291042328	
37	130.6990840435028	movie	1		301.0	35.0	2.5	/experiments/knapen_aot/videos/R_S_yt-2pRKCSgdXXU_30.mp4	0.0	250.66027212142944	2.508352041244507
37	133.20743608474731	fix_post	2		12.0	35.0	2.5	/experiments/knapen_aot/videos/R_S_yt-2pRKCSgdXXU_30.mp4	0.0	253.16862416267395	0.09989094734191895
38	133.30732703208923	fix_pre	0		40.0	36.0	2.5	/experiments/knapen_aot/videos/S_yt-RMjo2PPEPEA_112.mp4	0.0	253.26851511001587	0.33414506912231445
38	133.63248300552368	response	0	2		36.0	2.5	/experiments/knapen_aot/videos/S_yt-RMjo2PPEPEA_112.mp4	0.0	253.59367108345032	
38	133.64147210121155	movie	1		301.0	36.0	2.5	/experiments/knapen_aot/videos/S_yt-RMjo2PPEPEA_112.mp4	0.0	253.60266017913818	2.5076019763946533
38	136.1490740776062	fix_post	2		12.0	36.0	2.5	/experiments/knapen_aot/videos/S_yt-RMjo2PPEPEA_112.mp4	0.0	256.11026215553284	0.1000368595123291
39	136.24911093711853	fix_pre	0		39.0	37.0	2.5	/experiments/knapen_aot/videos/S_yt-2l6VKd94eAI_151.mp4	0.0	256.21029901504517	0.3249039649963379
39	136.5658929347992	response	0	2		37.0	2.5	/experiments/knapen_aot/videos/S_yt-2l6VKd94eAI_151.mp4	0.0	256.52708101272583	
39	136.57401490211487	movie	1		301.0	37.0	2.5	/experiments/knapen_aot/videos/S_yt-2l6VKd94eAI_151.mp4	0.0	256.5352029800415	2.5083889961242676
39	139.08240389823914	fix_post	2		12.0	37.0	2.5	/experiments/knapen_aot/videos/S_yt-2l6VKd94eAI_151.mp4	0.0	259.04359197616577	0.09992408752441406
40	139.18232798576355	fix_pre	0		79.0	38.0	2.5	/experiments/knapen_aot/videos/S_yt-NQSCGMpo-p8_118.mp4	0.0	259.1435160636902	0.6582939624786377
40	139.832505941391	response	0	2		38.0	2.5	/experiments/knapen_aot/videos/S_yt-NQSCGMpo-p8_118.mp4	0.0	259.7936940193176	
40	139.8406219482422	movie	1		301.0	38.0	2.5	/experiments/knapen_aot/videos/S_yt-NQSCGMpo-p8_118.mp4	0.0	259.8018100261688	2.5083961486816406
40	142.34901809692383	fix_post	2		12.0	38.0	2.5	/experiments/knapen_aot/videos/S_yt-NQSCGMpo-p8_118.mp4	0.0	262.31020617485046	0.1000368595123291
41	142.44905495643616	fix_pre	0		83.0	39.0	2.5	/experiments/knapen_aot/videos/S_yt-PREz5XiiXg0_107.mp4	0.0	262.4102430343628	0.6922950744628906
41	143.1325559616089	response	0	2		39.0	2.5	/experiments/knapen_aot/videos/S_yt-PREz5XiiXg0_107.mp4	0.0	263.0937440395355	
41	143.14135003089905	movie	1		301.0	39.0	2.5	/experiments/knapen_aot/videos/S_yt-PREz5XiiXg0_107.mp4	0.0	263.1025381088257	2.5076780319213867
41	145.64902806282043	fix_post	2		12.0	39.0	2.5	/experiments/knapen_aot/videos/S_yt-PREz5XiiXg0_107.mp4	0.0	265.61021614074707	0.10001206398010254
42	145.74904012680054	fix_pre	0		154.0	40.0	2.5	/experiments/knapen_aot/videos/R_S_ILSVRC2015_train_00479001.mp4	0.0	265.7102282047272	1.283263921737671
42	147.02416896820068	response	0	2		40.0	2.5	/experiments/knapen_aot/videos/R_S_ILSVRC2015_train_00479001.mp4	0.0	266.9853570461273	
42	147.0323040485382	movie	1		301.0	40.0	2.5	/experiments/knapen_aot/videos/R_S_ILSVRC2015_train_00479001.mp4	0.0	266.99349212646484	2.5083580017089844
42	149.5406620502472	fix_post	2		12.0	40.0	2.5	/experiments/knapen_aot/videos/R_S_ILSVRC2015_train_00479001.mp4	0.0	269.5018501281738	0.09999704360961914
43	149.6406590938568	fix_pre	0		112.0	41.0	2.5	blank	1.0	269.60184717178345	0.9333460330963135
43	150.5658209323883	response	0	2		41.0	2.5	blank	1.0	270.52700901031494	
43	150.57400512695312	movie	1		301.0	41.0	2.5	blank	1.0	270.53519320487976	2.5083208084106445
43	153.08232593536377	fix_post	2		12.0	41.0	2.5	blank	1.0	273.0435140132904	0.10006904602050781
44	153.18239498138428	fix_pre	0		39.0	42.0	2.5	/experiments/knapen_aot/videos/S_yt-mL3MuCfKtdY_79.mp4	0.0	273.1435830593109	0.32490015029907227
44	153.49907994270325	response	0	2		42.0	2.5	/experiments/knapen_aot/videos/S_yt-mL3MuCfKtdY_79.mp4	0.0	273.4602680206299	
44	153.50729513168335	movie	1		301.0	42.0	2.5	/experiments/knapen_aot/videos/S_yt-mL3MuCfKtdY_79.mp4	0.0	273.46848320961	2.5084409713745117
44	156.01573610305786	fix_post	2		12.0	42.0	2.5	/experiments/knapen_aot/videos/S_yt-mL3MuCfKtdY_79.mp4	0.0	275.9769241809845	0.09991788864135742
45	156.11565399169922	fix_pre	0		73.0	43.0	2.5	/experiments/knapen_aot/videos/R_S_yt-urJgH6tpfkU_204.mp4	0.0	276.07684206962585	0.6089420318603516
45	156.70825290679932	response	0	2		43.0	2.5	/experiments/knapen_aot/videos/R_S_yt-urJgH6tpfkU_204.mp4	0.0	276.66944098472595	
45	156.72459602355957	movie	1		301.0	43.0	2.5	/experiments/knapen_aot/videos/R_S_yt-urJgH6tpfkU_204.mp4	0.0	276.6857841014862	2.507718086242676
45	159.23231410980225	fix_post	2		12.0	43.0	2.5	/experiments/knapen_aot/videos/R_S_yt-urJgH6tpfkU_204.mp4	0.0	279.1935021877289	0.09999799728393555
46	159.33231210708618	fix_pre	0		124.0	44.0	2.5	/experiments/knapen_aot/videos/S_S005_C015_SDR_2K_AVC.mp4	0.0	279.2935001850128	1.0332908630371094
46	160.3576409816742	response	0	2		44.0	2.5	/experiments/knapen_aot/videos/S_S005_C015_SDR_2K_AVC.mp4	0.0	280.31882905960083	
46	160.3656029701233	movie	1		168.0	44.0	2.5	/experiments/knapen_aot/videos/S_S005_C015_SDR_2K_AVC.mp4	0.0	280.3267910480499	2.508303165435791
46	162.87390613555908	fix_post	2		12.0	44.0	2.5	/experiments/knapen_aot/videos/S_S005_C015_SDR_2K_AVC.mp4	0.0	282.8350942134857	0.1000528335571289
47	162.9739589691162	fix_pre	0		71.0	45.0	2.5	/experiments/knapen_aot/videos/S_g201_TH_803_A001_8_SDR_20191031_SDR_2K_AVC.mp4	0.0	282.93514704704285	0.5916190147399902
47	163.55743193626404	response	0	2		45.0	2.5	/experiments/knapen_aot/videos/S_g201_TH_803_A001_8_SDR_20191031_SDR_2K_AVC.mp4	0.0	283.5186200141907	
47	163.5655779838562	movie	1		163.0	45.0	2.5	/experiments/knapen_aot/videos/S_g201_TH_803_A001_8_SDR_20191031_SDR_2K_AVC.mp4	0.0	283.52676606178284	2.50839900970459
47	166.0739769935608	fix_post	2		12.0	45.0	2.5	/experiments/knapen_aot/videos/S_g201_TH_803_A001_8_SDR_20191031_SDR_2K_AVC.mp4	0.0	286.0351650714874	0.09992814064025879
48	166.17390513420105	fix_pre	0		162.0	46.0	2.5	/experiments/knapen_aot/videos/R_S_yt-2l6VKd94eAI_151.mp4	0.0	286.1350932121277	1.3500878810882568
48	167.51576399803162	response	0	2		46.0	2.5	/experiments/knapen_aot/videos/R_S_yt-2l6VKd94eAI_151.mp4	0.0	287.47695207595825	
48	167.5239930152893	movie	1		301.0	46.0	2.5	/experiments/knapen_aot/videos/R_S_yt-2l6VKd94eAI_151.mp4	0.0	287.48518109321594	2.508373975753784
48	170.0323669910431	fix_post	2		12.0	46.0	2.5	/experiments/knapen_aot/videos/R_S_yt-2l6VKd94eAI_151.mp4	0.0	289.9935550689697	0.09986710548400879
49	170.1322340965271	fix_pre	0		125.0	47.0	2.5	/experiments/knapen_aot/videos/S_comp_A009_C001_010181A_v09_SDR_PS_FINAL_20180725_SDR_2K_AVC.mp4	0.0	290.09342217445374	1.04168701171875
49	171.16579508781433	response	0	2		47.0	2.5	/experiments/knapen_aot/videos/S_comp_A009_C001_010181A_v09_SDR_PS_FINAL_20180725_SDR_2K_AVC.mp4	0.0	291.12698316574097	
49	171.17392110824585	movie	1		164.0	47.0	2.5	/experiments/knapen_aot/videos/S_comp_A009_C001_010181A_v09_SDR_PS_FINAL_20180725_SDR_2K_AVC.mp4	0.0	291.1351091861725	2.508358955383301
49	173.68228006362915	fix_post	2		12.0	47.0	2.5	/experiments/knapen_aot/videos/S_comp_A009_C001_010181A_v09_SDR_PS_FINAL_20180725_SDR_2K_AVC.mp4	0.0	293.6434681415558	0.09997987747192383
50	173.78225994110107	fix_pre	0		87.0	48.0	2.5	/experiments/knapen_aot/videos/R_S_yt-2pRKCSgdXXU_30.mp4	0.0	293.7434480190277	0.724977970123291
50	174.4990849494934	response	0	2		48.0	2.5	/experiments/knapen_aot/videos/R_S_yt-2pRKCSgdXXU_30.mp4	0.0	294.46027302742004	
50	174.50723791122437	movie	1		301.0	48.0	2.5	/experiments/knapen_aot/videos/R_S_yt-2pRKCSgdXXU_30.mp4	0.0	294.468425989151	2.5083301067352295
50	177.0155680179596	fix_post	2		12.0	48.0	2.5	/experiments/knapen_aot/videos/R_S_yt-2pRKCSgdXXU_30.mp4	0.0	296.97675609588623	0.10005402565002441
51	177.11562204360962	fix_pre	0		345.0	49.0	2.5	blank	1.0	297.07681012153625	2.874837875366211
51	179.9748239517212	response	0	2		49.0	2.5	blank	1.0	299.9360120296478	
51	179.99045991897583	movie	1		301.0	49.0	2.5	blank	1.0	299.95164799690247	2.508535146713257
51	182.4989950656891	fix_post	2		12.0	49.0	2.5	blank	1.0	302.4601831436157	0.099884033203125
52	182.5988790988922	fix_pre	0		52.0	50.0	2.5	/experiments/knapen_aot/videos/S_yt-KK6fVRAMm-c_476.mp4	0.0	302.56006717681885	0.4332430362701416
52	183.0239701271057	response	0	2		50.0	2.5	/experiments/knapen_aot/videos/S_yt-KK6fVRAMm-c_476.mp4	0.0	302.98515820503235	
52	183.03212213516235	movie	1		301.0	50.0	2.5	/experiments/knapen_aot/videos/S_yt-KK6fVRAMm-c_476.mp4	0.0	302.993310213089	2.5084328651428223
52	185.54055500030518	fix_post	2		12.0	50.0	2.5	/experiments/knapen_aot/videos/S_yt-KK6fVRAMm-c_476.mp4	0.0	305.5017430782318	0.10000205039978027
53	185.64055705070496	fix_pre	0		119.0	51.0	2.5	/experiments/knapen_aot/videos/R_S_yt-BiBS8EO5GPc_4.mp4	0.0	305.6017451286316	0.9916019439697266
53	186.6239731311798	response	0	2		51.0	2.5	/experiments/knapen_aot/videos/R_S_yt-BiBS8EO5GPc_4.mp4	0.0	306.58516120910645	
53	186.63215899467468	movie	1		301.0	51.0	2.5	/experiments/knapen_aot/videos/R_S_yt-BiBS8EO5GPc_4.mp4	0.0	306.5933470726013	2.508345127105713
53	189.1405041217804	fix_post	2		12.0	51.0	2.5	/experiments/knapen_aot/videos/R_S_yt-BiBS8EO5GPc_4.mp4	0.0	309.10169219970703	0.10003781318664551
54	189.24054193496704	fix_pre	0		78.0	52.0	2.5	/experiments/knapen_aot/videos/R_S_yt--UhwpukdyBg_51.mp4	0.0	309.2017300128937	0.6504240036010742
54	189.88243293762207	response	0	2		52.0	2.5	/experiments/knapen_aot/videos/R_S_yt--UhwpukdyBg_51.mp4	0.0	309.8436210155487	
54	189.89096593856812	movie	1		301.0	52.0	2.5	/experiments/knapen_aot/videos/R_S_yt--UhwpukdyBg_51.mp4	0.0	309.85215401649475	2.507862091064453
54	192.39882802963257	fix_post	2		12.0	52.0	2.5	/experiments/knapen_aot/videos/R_S_yt--UhwpukdyBg_51.mp4	0.0	312.3600161075592	0.10004997253417969
55	192.49887800216675	fix_pre	0		224.0	53.0	2.5	/experiments/knapen_aot/videos/R_S_yt-IX6uxR5DSKk_2.mp4	0.0	312.4600660800934	1.8665831089019775
55	194.357262134552	response	0	2		53.0	2.5	/experiments/knapen_aot/videos/R_S_yt-IX6uxR5DSKk_2.mp4	0.0	314.31845021247864	
55	194.36546111106873	movie	1		301.0	53.0	2.5	/experiments/knapen_aot/videos/R_S_yt-IX6uxR5DSKk_2.mp4	0.0	314.32664918899536	2.508384943008423
55	196.87384605407715	fix_post	2		12.0	53.0	2.5	/experiments/knapen_aot/videos/R_S_yt-IX6uxR5DSKk_2.mp4	0.0	316.8350341320038	0.10008406639099121
56	196.97393012046814	fix_pre	0		124.0	54.0	2.5	/experiments/knapen_aot/videos/S_wc-zkO_omg3nTvg_5.mp4	0.0	316.9351181983948	1.033216953277588
56	197.99899697303772	response	0	2		54.0	2.5	/experiments/knapen_aot/videos/S_wc-zkO_omg3nTvg_5.mp4	0.0	317.96018505096436	
56	198.00714707374573	movie	1		167.0	54.0	2.5	/experiments/knapen_aot/videos/S_wc-zkO_omg3nTvg_5.mp4	0.0	317.96833515167236	2.5084798336029053
56	200.51562690734863	fix_post	2		12.0	54.0	2.5	/experiments/knapen_aot/videos/S_wc-zkO_omg3nTvg_5.mp4	0.0	320.47681498527527	0.09996199607849121
57	200.61558890342712	fix_pre	0		104.0	55.0	2.5	/experiments/knapen_aot/videos/S_Nh81j72Utbs_5.mp4	0.0	320.57677698135376	0.8665480613708496
57	201.4739499092102	response	0	2		55.0	2.5	/experiments/knapen_aot/videos/S_Nh81j72Utbs_5.mp4	0.0	321.43513798713684	
57	201.48213696479797	movie	1		301.0	55.0	2.5	/experiments/knapen_aot/videos/S_Nh81j72Utbs_5.mp4	0.0	321.4433250427246	2.5084760189056396
57	203.9906129837036	fix_post	2		12.0	55.0	2.5	/experiments/knapen_aot/videos/S_Nh81j72Utbs_5.mp4	0.0	323.95180106163025	0.09975004196166992
58	204.09036302566528	fix_pre	0		141.0	56.0	2.5	blank	1.0	324.0515511035919	1.1755270957946777
58	205.25722908973694	response	0	2		56.0	2.5	blank	1.0	325.2184171676636	
58	205.26589012145996	movie	1		301.0	56.0	2.5	blank	1.0	325.2270781993866	2.5080008506774902
58	207.77389097213745	fix_post	2		12.0	56.0	2.5	blank	1.0	327.7350790500641	0.09992313385009766
59	207.87381410598755	fix_pre	0		216.0	57.0	2.5	/experiments/knapen_aot/videos/S_production_ID_4997166.mp4	0.0	327.8350021839142	1.7999298572540283
59	209.66563296318054	response	0	2		57.0	2.5	/experiments/knapen_aot/videos/S_production_ID_4997166.mp4	0.0	329.6268210411072	
59	209.67374396324158	movie	1		163.0	57.0	2.5	/experiments/knapen_aot/videos/S_production_ID_4997166.mp4	0.0	329.6349320411682	2.5084550380706787
59	212.18219900131226	fix_post	2		12.0	57.0	2.5	/experiments/knapen_aot/videos/S_production_ID_4997166.mp4	0.0	332.1433870792389	0.10001802444458008
60	212.28221702575684	fix_pre	0		98.0	58.0	2.5	/experiments/knapen_aot/videos/S_yt-1CV2cYtUlxE_57.mp4	0.0	332.2434051036835	0.8168900012969971
60	213.0905499458313	response	0	2		58.0	2.5	/experiments/knapen_aot/videos/S_yt-1CV2cYtUlxE_57.mp4	0.0	333.05173802375793	
60	213.09910702705383	movie	1		301.0	58.0	2.5	/experiments/knapen_aot/videos/S_yt-1CV2cYtUlxE_57.mp4	0.0	333.06029510498047	2.507997989654541
60	215.60710501670837	fix_post	2		12.0	58.0	2.5	/experiments/knapen_aot/videos/S_yt-1CV2cYtUlxE_57.mp4	0.0	335.568293094635	0.09993696212768555
61	215.70704197883606	fix_pre	0		75.0	59.0	2.5	/experiments/knapen_aot/videos/S_yt-QOnORDmVMyU_10.mp4	0.0	335.6682300567627	0.6250181198120117
61	216.3238890171051	response	0	2		59.0	2.5	/experiments/knapen_aot/videos/S_yt-QOnORDmVMyU_10.mp4	0.0	336.28507709503174	
61	216.33206009864807	movie	1		301.0	59.0	2.5	/experiments/knapen_aot/videos/S_yt-QOnORDmVMyU_10.mp4	0.0	336.2932481765747	2.5082929134368896
61	218.84035301208496	fix_post	2		12.0	59.0	2.5	/experiments/knapen_aot/videos/S_yt-QOnORDmVMyU_10.mp4	0.0	338.8015410900116	0.10005497932434082
62	218.9404079914093	fix_pre	0		50.0	60.0	2.5	/experiments/knapen_aot/videos/R_S_comp_A103_C002_0205DG_v12_SDR_FINAL_20180706_SDR_2K_AVC.mp4	0.0	338.90159606933594	0.4166290760040283
62	219.34883403778076	response	0	2		60.0	2.5	/experiments/knapen_aot/videos/R_S_comp_A103_C002_0205DG_v12_SDR_FINAL_20180706_SDR_2K_AVC.mp4	0.0	339.3100221157074	
62	219.35703706741333	movie	1		166.0	60.0	2.5	/experiments/knapen_aot/videos/R_S_comp_A103_C002_0205DG_v12_SDR_FINAL_20180706_SDR_2K_AVC.mp4	0.0	339.31822514533997	2.5084078311920166
62	221.86544489860535	fix_post	2		12.0	60.0	2.5	/experiments/knapen_aot/videos/R_S_comp_A103_C002_0205DG_v12_SDR_FINAL_20180706_SDR_2K_AVC.mp4	0.0	341.826632976532	0.09995508193969727
63	221.96539998054504	fix_pre	0		204.0	61.0	2.5	blank	1.0	341.9265880584717	1.6999340057373047
63	223.6571500301361	response	0	2		61.0	2.5	blank	1.0	343.61833810806274	
63	223.66533398628235	movie	1		301.0	61.0	2.5	blank	1.0	343.626522064209	2.5084941387176514
63	226.173828125	fix_post	2		12.0	61.0	2.5	blank	1.0	346.13501620292664	0.1000068187713623
64	226.27383494377136	fix_pre	0		122.0	62.0	2.5	/experiments/knapen_aot/videos/R_S_yt-w5lh_rKyKtE_21.mp4	0.0	346.235023021698	1.0164530277252197
64	227.2820999622345	response	0	2		62.0	2.5	/experiments/knapen_aot/videos/R_S_yt-w5lh_rKyKtE_21.mp4	0.0	347.24328804016113	
64	227.29028797149658	movie	1		301.0	62.0	2.5	/experiments/knapen_aot/videos/R_S_yt-w5lh_rKyKtE_21.mp4	0.0	347.2514760494232	2.508315086364746
64	229.79860305786133	fix_post	2		12.0	62.0	2.5	/experiments/knapen_aot/videos/R_S_yt-w5lh_rKyKtE_21.mp4	0.0	349.75979113578796	0.1001138687133789
65	229.8987169265747	fix_pre	0		82.0	63.0	2.5	/experiments/knapen_aot/videos/S_yt-uY5xsUKn8zU_17.mp4	0.0	349.85990500450134	0.6833090782165527
65	230.57377791404724	response	0	2		63.0	2.5	/experiments/knapen_aot/videos/S_yt-uY5xsUKn8zU_17.mp4	0.0	350.5349659919739	
65	230.58202600479126	movie	1		301.0	63.0	2.5	/experiments/knapen_aot/videos/S_yt-uY5xsUKn8zU_17.mp4	0.0	350.5432140827179	2.5083811283111572
65	233.09040713310242	fix_post	2		12.0	63.0	2.5	/experiments/knapen_aot/videos/S_yt-uY5xsUKn8zU_17.mp4	0.0	353.05159521102905	0.09995388984680176
66	233.19036102294922	fix_pre	0		47.0	64.0	2.5	/experiments/knapen_aot/videos/S_ILSVRC2015_train_00418004.mp4	0.0	353.15154910087585	0.3947160243988037
66	233.57371306419373	response	0	2		64.0	2.5	/experiments/knapen_aot/videos/S_ILSVRC2015_train_00418004.mp4	0.0	353.53490114212036	
66	233.58507704734802	movie	1		301.0	64.0	2.5	/experiments/knapen_aot/videos/S_ILSVRC2015_train_00418004.mp4	0.0	353.54626512527466	2.505239963531494
66	236.09031701087952	fix_post	2		12.0	64.0	2.5	/experiments/knapen_aot/videos/S_ILSVRC2015_train_00418004.mp4	0.0	356.05150508880615	0.100006103515625
67	236.19032311439514	fix_pre	0		36.0	65.0	2.5	/experiments/knapen_aot/videos/R_S_yt-Bx2kLEUuN0E_456.mp4	0.0	356.1515111923218	0.2999539375305176
67	236.48205399513245	response	0	2		65.0	2.5	/experiments/knapen_aot/videos/R_S_yt-Bx2kLEUuN0E_456.mp4	0.0	356.4432420730591	
67	236.49027705192566	movie	1		301.0	65.0	2.5	/experiments/knapen_aot/videos/R_S_yt-Bx2kLEUuN0E_456.mp4	0.0	356.4514651298523	2.5084760189056396
67	238.9987530708313	fix_post	2		12.0	65.0	2.5	/experiments/knapen_aot/videos/R_S_yt-Bx2kLEUuN0E_456.mp4	0.0	358.95994114875793	0.10062098503112793
68	239.09937405586243	fix_pre	0		127.0	66.0	2.5	/experiments/knapen_aot/videos/R_S_production_ID_5199636.mp4	0.0	359.06056213378906	1.0575530529022217
68	240.14877009391785	response	0	2		66.0	2.5	/experiments/knapen_aot/videos/R_S_production_ID_5199636.mp4	0.0	360.1099581718445	
68	240.15692710876465	movie	1		164.0	66.0	2.5	/experiments/knapen_aot/videos/R_S_production_ID_5199636.mp4	0.0	360.1181151866913	2.508420944213867
68	242.66534805297852	fix_post	2		12.0	66.0	2.5	/experiments/knapen_aot/videos/R_S_production_ID_5199636.mp4	0.0	362.62653613090515	0.1002199649810791
69	242.7655680179596	fix_pre	0		242.0	67.0	2.5	/experiments/knapen_aot/videos/S_comp_GMT308_139K_142NC_CARIBBEAN_DAY_v09_SDR_FINAL_22062018_SDR_2K_AVC.mp4	0.0	362.72675609588623	2.016429901123047
69	244.77375507354736	response	0	2		67.0	2.5	/experiments/knapen_aot/videos/S_comp_GMT308_139K_142NC_CARIBBEAN_DAY_v09_SDR_FINAL_22062018_SDR_2K_AVC.mp4	0.0	364.734943151474	
69	244.78199791908264	movie	1		169.0	67.0	2.5	/experiments/knapen_aot/videos/S_comp_GMT308_139K_142NC_CARIBBEAN_DAY_v09_SDR_FINAL_22062018_SDR_2K_AVC.mp4	0.0	364.7431859970093	2.508289098739624
69	247.29028701782227	fix_post	2		12.0	67.0	2.5	/experiments/knapen_aot/videos/S_comp_GMT308_139K_142NC_CARIBBEAN_DAY_v09_SDR_FINAL_22062018_SDR_2K_AVC.mp4	0.0	367.2514750957489	0.10022497177124023
70	247.3905119895935	fix_pre	0		64.0	68.0	2.5	blank	1.0	367.35170006752014	0.5330440998077393
70	247.9154200553894	response	0	2		68.0	2.5	blank	1.0	367.87660813331604	
70	247.92355608940125	movie	1		301.0	68.0	2.5	blank	1.0	367.8847441673279	2.508561849594116
70	250.43211793899536	fix_post	2		12.0	68.0	2.5	blank	1.0	370.393306016922	0.09980511665344238
71	250.5319230556488	fix_pre	0		33.0	69.0	2.5	/experiments/knapen_aot/videos/S_yt-K0CzoUy_uIA_22.mp4	0.0	370.49311113357544	0.2751328945159912
71	250.79862213134766	response	0	2		69.0	2.5	/experiments/knapen_aot/videos/S_yt-K0CzoUy_uIA_22.mp4	0.0	370.7598102092743	
71	250.8070559501648	movie	1		301.0	69.0	2.5	/experiments/knapen_aot/videos/S_yt-K0CzoUy_uIA_22.mp4	0.0	370.76824402809143	2.508228063583374
71	253.31528401374817	fix_post	2		12.0	69.0	2.5	/experiments/knapen_aot/videos/S_yt-K0CzoUy_uIA_22.mp4	0.0	373.2764720916748	0.10000896453857422
72	253.41529297828674	fix_pre	0		475.0	70.0	2.5	/experiments/knapen_aot/videos/S_yt-IX6uxR5DSKk_2.mp4	0.0	373.3764810562134	3.958178997039795
72	257.3653199672699	response	0	2		70.0	2.5	/experiments/knapen_aot/videos/S_yt-IX6uxR5DSKk_2.mp4	0.0	377.32650804519653	
72	257.37347197532654	movie	1		301.0	70.0	2.5	/experiments/knapen_aot/videos/S_yt-IX6uxR5DSKk_2.mp4	0.0	377.3346600532532	2.5084660053253174
72	259.88193798065186	fix_post	2		12.0	70.0	2.5	/experiments/knapen_aot/videos/S_yt-IX6uxR5DSKk_2.mp4	0.0	379.8431260585785	0.09997797012329102
73	259.98191595077515	fix_pre	0		377.0	71.0	2.5	/experiments/knapen_aot/videos/S_video_inspire_uk_edinburgh_arthursseat_010.1080-h264.mp4	0.0	379.9431040287018	3.141611099243164
73	263.1153790950775	response	0	2		71.0	2.5	/experiments/knapen_aot/videos/S_video_inspire_uk_edinburgh_arthursseat_010.1080-h264.mp4	0.0	383.07656717300415	
73	263.1235270500183	movie	1		169.0	71.0	2.5	/experiments/knapen_aot/videos/S_video_inspire_uk_edinburgh_arthursseat_010.1080-h264.mp4	0.0	383.08471512794495	2.508570909500122
73	265.63209795951843	fix_post	2		12.0	71.0	2.5	/experiments/knapen_aot/videos/S_video_inspire_uk_edinburgh_arthursseat_010.1080-h264.mp4	0.0	385.59328603744507	0.0997610092163086
74	265.73185896873474	fix_pre	0		43.0	72.0	2.5	/experiments/knapen_aot/videos/R_S_yt-fymgyhmYnMI_557.mp4	0.0	385.6930470466614	0.3584139347076416
74	266.0819890499115	response	0	2		72.0	2.5	/experiments/knapen_aot/videos/R_S_yt-fymgyhmYnMI_557.mp4	0.0	386.04317712783813	
74	266.0902729034424	movie	1		301.0	72.0	2.5	/experiments/knapen_aot/videos/R_S_yt-fymgyhmYnMI_557.mp4	0.0	386.051460981369	2.5089240074157715
74	268.59919691085815	fix_post	2		12.0	72.0	2.5	/experiments/knapen_aot/videos/R_S_yt-fymgyhmYnMI_557.mp4	0.0	388.5603849887848	0.0993051528930664
75	268.6985020637512	fix_pre	0		286.0	73.0	2.5	/experiments/knapen_aot/videos/R_S_yt-4GDusA21cEA_170.mp4	0.0	388.65969014167786	2.3832499980926514
75	271.07366609573364	response	0	2		73.0	2.5	/experiments/knapen_aot/videos/R_S_yt-4GDusA21cEA_170.mp4	0.0	391.0348541736603	
75	271.0817520618439	movie	1		301.0	73.0	2.5	/experiments/knapen_aot/videos/R_S_yt-4GDusA21cEA_170.mp4	0.0	391.0429401397705	2.5084259510040283
75	273.5901780128479	fix_post	2		12.0	73.0	2.5	/experiments/knapen_aot/videos/R_S_yt-4GDusA21cEA_170.mp4	0.0	393.55136609077454	0.09999608993530273
76	273.6901741027832	fix_pre	0		50.0	74.0	2.5	/experiments/knapen_aot/videos/S_yt-Wf-RauSbVgA_56.mp4	0.0	393.65136218070984	0.4165928363800049
76	274.09860610961914	response	0	2		74.0	2.5	/experiments/knapen_aot/videos/S_yt-Wf-RauSbVgA_56.mp4	0.0	394.0597941875458	
76	274.1067669391632	movie	1		301.0	74.0	2.5	/experiments/knapen_aot/videos/S_yt-Wf-RauSbVgA_56.mp4	0.0	394.06795501708984	2.508409023284912
76	276.6151759624481	fix_post	2		12.0	74.0	2.5	/experiments/knapen_aot/videos/S_yt-Wf-RauSbVgA_56.mp4	0.0	396.57636404037476	0.0999300479888916
77	276.715106010437	fix_pre	0		42.0	75.0	2.5	/experiments/knapen_aot/videos/R_S_yt--cAfxH1WnPo_3.mp4	0.0	396.67629408836365	0.3500089645385742
77	277.0568940639496	response	0	2		75.0	2.5	/experiments/knapen_aot/videos/R_S_yt--cAfxH1WnPo_3.mp4	0.0	397.0180821418762	
77	277.0651149749756	movie	1		301.0	75.0	2.5	/experiments/knapen_aot/videos/R_S_yt--cAfxH1WnPo_3.mp4	0.0	397.0263030529022	2.5083749294281006
77	279.5734899044037	fix_post	2		12.0	75.0	2.5	/experiments/knapen_aot/videos/R_S_yt--cAfxH1WnPo_3.mp4	0.0	399.5346779823303	0.0999760627746582
78	279.67346596717834	fix_pre	0		250.0	76.0	2.5	blank	1.0	399.634654045105	2.083333969116211
78	281.7485101222992	response	0	2		76.0	2.5	blank	1.0	401.70969820022583	
78	281.75679993629456	movie	1		301.0	76.0	2.5	blank	1.0	401.7179880142212	2.5084261894226074
78	284.26522612571716	fix_post	2		12.0	76.0	2.5	blank	1.0	404.2264142036438	0.0999288558959961
78	284.29019808769226	response	2	2		76.0	2.5	blank	1.0	404.2513861656189	
79	284.36515498161316	fix_pre	0		388.0	77.0	2.5	/experiments/knapen_aot/videos/S_yt-4GDusA21cEA_170.mp4	0.0	404.3263430595398	3.2332241535186768
79	287.58279609680176	response	0	2		77.0	2.5	/experiments/knapen_aot/videos/S_yt-4GDusA21cEA_170.mp4	0.0	407.5439841747284	
79	287.59837913513184	movie	1		301.0	77.0	2.5	/experiments/knapen_aot/videos/S_yt-4GDusA21cEA_170.mp4	0.0	407.5595672130585	2.508330821990967
79	290.1067099571228	fix_post	2		12.0	77.0	2.5	/experiments/knapen_aot/videos/S_yt-4GDusA21cEA_170.mp4	0.0	410.06789803504944	0.10006904602050781
80	290.2067790031433	fix_pre	0		75.0	78.0	2.5	/experiments/knapen_aot/videos/R_S_yt-deiWoIfK6vg_44.mp4	0.0	410.16796708106995	0.6249070167541504
80	290.8235881328583	response	0	2		78.0	2.5	/experiments/knapen_aot/videos/R_S_yt-deiWoIfK6vg_44.mp4	0.0	410.7847762107849	
80	290.83168601989746	movie	1		301.0	78.0	2.5	/experiments/knapen_aot/videos/R_S_yt-deiWoIfK6vg_44.mp4	0.0	410.7928740978241	2.50844407081604
80	293.3401300907135	fix_post	2		12.0	78.0	2.5	/experiments/knapen_aot/videos/R_S_yt-deiWoIfK6vg_44.mp4	0.0	413.30131816864014	0.09993886947631836
81	293.4400689601898	fix_pre	0		101.0	79.0	2.5	/experiments/knapen_aot/videos/S_yt-Bx2kLEUuN0E_456.mp4	0.0	413.40125703811646	0.8416080474853516
81	294.266077041626	response	0	2		79.0	2.5	/experiments/knapen_aot/videos/S_yt-Bx2kLEUuN0E_456.mp4	0.0	414.2272651195526	
81	294.28167700767517	movie	1		301.0	79.0	2.5	/experiments/knapen_aot/videos/S_yt-Bx2kLEUuN0E_456.mp4	0.0	414.2428650856018	2.508423089981079
81	296.79010009765625	fix_post	2		12.0	79.0	2.5	/experiments/knapen_aot/videos/S_yt-Bx2kLEUuN0E_456.mp4	0.0	416.7512881755829	0.09998703002929688
82	296.89008712768555	fix_pre	0		338.0	80.0	2.5	/experiments/knapen_aot/videos/S_pexels-mart-production-7698911.mp4	0.0	416.8512752056122	2.8165268898010254
82	299.6984739303589	response	0	2		80.0	2.5	/experiments/knapen_aot/videos/S_pexels-mart-production-7698911.mp4	0.0	419.6596620082855	
82	299.7066140174866	movie	1		194.0	80.0	2.5	/experiments/knapen_aot/videos/S_pexels-mart-production-7698911.mp4	0.0	419.6678020954132	2.508618116378784
82	302.21523213386536	fix_post	2		12.0	80.0	2.5	/experiments/knapen_aot/videos/S_pexels-mart-production-7698911.mp4	0.0	422.176420211792	0.09985899925231934
83	302.3150911331177	fix_pre	0		242.0	81.0	2.5	/experiments/knapen_aot/videos/S_production_ID_3709168.mp4	0.0	422.2762792110443	2.0166149139404297
83	304.3234848976135	response	0	2		81.0	2.5	/experiments/knapen_aot/videos/S_production_ID_3709168.mp4	0.0	424.28467297554016	
83	304.3317060470581	movie	1		208.0	81.0	2.5	/experiments/knapen_aot/videos/S_production_ID_3709168.mp4	0.0	424.29289412498474	2.5085320472717285
83	306.84023809432983	fix_post	2		12.0	81.0	2.5	/experiments/knapen_aot/videos/S_production_ID_3709168.mp4	0.0	426.80142617225647	0.09978199005126953
84	306.9400200843811	fix_pre	0		97.0	82.0	2.5	blank	1.0	426.90120816230774	0.8082718849182129
84	307.7400949001312	response	0	2		82.0	2.5	blank	1.0	427.70128297805786	
84	307.7482919692993	movie	1		301.0	82.0	2.5	blank	1.0	427.70948004722595	2.5083889961242676
84	310.2566809654236	fix_post	2		12.0	82.0	2.5	blank	1.0	430.2178690433502	0.10001516342163086
85	310.3566961288452	fix_pre	0		75.0	83.0	2.5	/experiments/knapen_aot/videos/R_S_ILSVRC2015_train_00363000.mp4	0.0	430.31788420677185	0.6249048709869385
85	310.9658770561218	response	0	2		83.0	2.5	/experiments/knapen_aot/videos/R_S_ILSVRC2015_train_00363000.mp4	0.0	430.92706513404846	
85	310.98160099983215	movie	1		301.0	83.0	2.5	/experiments/knapen_aot/videos/R_S_ILSVRC2015_train_00363000.mp4	0.0	430.9427890777588	2.5083930492401123
85	313.48999404907227	fix_post	2		12.0	83.0	2.5	/experiments/knapen_aot/videos/R_S_ILSVRC2015_train_00363000.mp4	0.0	433.4511821269989	0.1000359058380127
87	313.5900299549103	stim	0		135.0					433.5512180328369	1.1261861324310303
87	314.7115559577942	response	0	space						434.6727440357208	
