trial_nr	onset	event_type	phase	response	nr_frames	movie_index	movie_duration	movie_file	blank	onset_abs	duration
0	0.16044211387634277	stim	0		30.0					55.25794291496277	0.2535068988800049
0	0.40584421157836914	response	0	space						55.503345012664795	
1	0.41394901275634766	stim	0		121.0					55.51144981384277	1.008371114730835
1	0.9809601306915283	response	0	space						56.078460931777954	
1	1.230741024017334	response	0	space						56.32824182510376	
1	1.4223201274871826	stim	1		120.0					56.51982092857361	0.9997260570526123
1	1.5059340000152588	response	1	space						56.603434801101685	
1	1.9303820133209229	response	1	space						57.02788281440735	
1	2.2720961570739746	response	1	space						57.3695969581604	
2	2.422046184539795	fix_pre	0		36.0	0.0	2.5	/experiments/knapen_aot/oldvideos/S_yt-X6ivH9SqGu8_306.mp4	0.0	57.51954698562622	0.29990482330322266
2	2.7138161659240723	response	0	space		0.0	2.5	/experiments/knapen_aot/oldvideos/S_yt-X6ivH9SqGu8_306.mp4	0.0	57.8113169670105	
2	2.7219510078430176	movie	1		301.0	0.0	2.5	/experiments/knapen_aot/oldvideos/S_yt-X6ivH9SqGu8_306.mp4	0.0	57.81945180892944	2.508554220199585
2	5.2305052280426025	fix_post	2		12.0	0.0	2.5	/experiments/knapen_aot/oldvideos/S_yt-X6ivH9SqGu8_306.mp4	0.0	60.32800602912903	0.09981799125671387
3	5.330323219299316	fix_pre	0		25.0	1.0	2.5	/experiments/knapen_aot/oldvideos/S_pexels-cottonbro-6789228.mp4	0.0	60.42782402038574	0.20830988883972168
3	5.530922174453735	response	0	2		1.0	2.5	/experiments/knapen_aot/oldvideos/S_pexels-cottonbro-6789228.mp4	0.0	60.62842297554016	
3	5.538633108139038	movie	1		194.0	1.0	2.5	/experiments/knapen_aot/oldvideos/S_pexels-cottonbro-6789228.mp4	0.0	60.636133909225464	2.508347988128662
3	8.0469810962677	fix_post	2		12.0	1.0	2.5	/experiments/knapen_aot/oldvideos/S_pexels-cottonbro-6789228.mp4	0.0	63.144481897354126	0.0999901294708252
4	8.146971225738525	fix_pre	0		6.0	2.0	2.5	/experiments/knapen_aot/oldvideos/R_S_production_ID_4325506.mp4	0.0	63.24447202682495	0.04997587203979492
4	8.188656091690063	response	0	2		2.0	2.5	/experiments/knapen_aot/oldvideos/R_S_production_ID_4325506.mp4	0.0	63.28615689277649	
4	8.19694709777832	movie	1		197.0	2.0	2.5	/experiments/knapen_aot/oldvideos/R_S_production_ID_4325506.mp4	0.0	63.294447898864746	2.5083389282226562
4	10.705286026000977	fix_post	2		12.0	2.0	2.5	/experiments/knapen_aot/oldvideos/R_S_production_ID_4325506.mp4	0.0	65.8027868270874	0.10010004043579102
5	10.805386066436768	fix_pre	0		1.0	3.0	2.5	/experiments/knapen_aot/oldvideos/S_yt-pB9w3AA-woE_37.mp4	0.0	65.9028868675232	0.008214950561523438
5	10.807209014892578	response	0	2		3.0	2.5	/experiments/knapen_aot/oldvideos/S_yt-pB9w3AA-woE_37.mp4	0.0	65.904709815979	
5	10.813601016998291	movie	1		301.0	3.0	2.5	/experiments/knapen_aot/oldvideos/S_yt-pB9w3AA-woE_37.mp4	0.0	65.91110181808472	2.5083720684051514
5	13.321973085403442	fix_post	2		12.0	3.0	2.5	/experiments/knapen_aot/oldvideos/S_yt-pB9w3AA-woE_37.mp4	0.0	68.41947388648987	0.10002899169921875
6	13.422002077102661	fix_pre	0		3.0	4.0	2.5	/experiments/knapen_aot/oldvideos/R_S_yt-tfHCqgH1guY_235.mp4	0.0	68.51950287818909	0.024886131286621094
6	13.438736200332642	response	0	2		4.0	2.5	/experiments/knapen_aot/oldvideos/R_S_yt-tfHCqgH1guY_235.mp4	0.0	68.53623700141907	
6	13.446888208389282	movie	1		301.0	4.0	2.5	/experiments/knapen_aot/oldvideos/R_S_yt-tfHCqgH1guY_235.mp4	0.0	68.54438900947571	2.508435010910034
6	15.955323219299316	fix_post	2		12.0	4.0	2.5	/experiments/knapen_aot/oldvideos/R_S_yt-tfHCqgH1guY_235.mp4	0.0	71.05282402038574	0.09998178482055664
7	16.055305004119873	fix_pre	0		2.0	5.0	2.5	blank	1.0	71.1528058052063	0.01660609245300293
7	16.06374216079712	response	0	2		5.0	2.5	blank	1.0	71.16124296188354	
7	16.071911096572876	movie	1		301.0	5.0	2.5	blank	1.0	71.1694118976593	2.5083351135253906
7	18.580246210098267	fix_post	2		12.0	5.0	2.5	blank	1.0	73.67774701118469	0.1000068187713623
8	18.68025302886963	fix_pre	0		22.0	6.0	2.5	/experiments/knapen_aot/oldvideos/R_S_yt-Xq6uX1jfFRk_21.mp4	0.0	73.77775382995605	0.1833021640777588
8	18.855353116989136	response	0	2		6.0	2.5	/experiments/knapen_aot/oldvideos/R_S_yt-Xq6uX1jfFRk_21.mp4	0.0	73.95285391807556	
8	18.863555192947388	movie	1		301.0	6.0	2.5	/experiments/knapen_aot/oldvideos/R_S_yt-Xq6uX1jfFRk_21.mp4	0.0	73.96105599403381	2.508445978164673
8	21.016847133636475	response	1	2		6.0	2.5	/experiments/knapen_aot/oldvideos/R_S_yt-Xq6uX1jfFRk_21.mp4	0.0	76.1143479347229	
8	21.330343008041382	response	1	2		6.0	2.5	/experiments/knapen_aot/oldvideos/R_S_yt-Xq6uX1jfFRk_21.mp4	0.0	76.42784380912781	
8	21.37200117111206	fix_post	2		12.0	6.0	2.5	/experiments/knapen_aot/oldvideos/R_S_yt-Xq6uX1jfFRk_21.mp4	0.0	76.46950197219849	0.09987902641296387
9	21.471880197525024	fix_pre	0		20.0	7.0	2.5	/experiments/knapen_aot/oldvideos/R_S_yt-_7HJhRPVmHw_255.mp4	0.0	76.56938099861145	0.1666548252105713
9	21.630317211151123	response	0	2		7.0	2.5	/experiments/knapen_aot/oldvideos/R_S_yt-_7HJhRPVmHw_255.mp4	0.0	76.72781801223755	
9	21.638535022735596	movie	1		301.0	7.0	2.5	/experiments/knapen_aot/oldvideos/R_S_yt-_7HJhRPVmHw_255.mp4	0.0	76.73603582382202	2.508303165435791
9	24.146838188171387	fix_post	2		12.0	7.0	2.5	/experiments/knapen_aot/oldvideos/R_S_yt-_7HJhRPVmHw_255.mp4	0.0	79.24433898925781	0.10007286071777344
10	24.24691104888916	fix_pre	0		7.0	8.0	2.5	/experiments/knapen_aot/oldvideos/S_flickr-53807584@N00-5566422012_16.mp4	0.0	79.34441184997559	0.05829000473022461
10	24.297030210494995	response	0	2		8.0	2.5	/experiments/knapen_aot/oldvideos/S_flickr-53807584@N00-5566422012_16.mp4	0.0	79.39453101158142	
10	24.305201053619385	movie	1		300.0	8.0	2.5	/experiments/knapen_aot/oldvideos/S_flickr-53807584@N00-5566422012_16.mp4	0.0	79.40270185470581	2.4999799728393555
10	26.7969970703125	response	1	2		8.0	2.5	/experiments/knapen_aot/oldvideos/S_flickr-53807584@N00-5566422012_16.mp4	0.0	81.89449787139893	
10	26.80518102645874	fix_post	2		13.0	8.0	2.5	/experiments/knapen_aot/oldvideos/S_flickr-53807584@N00-5566422012_16.mp4	0.0	81.90268182754517	0.10843300819396973
11	26.91361403465271	fix_pre	0		22.0	9.0	2.5	/experiments/knapen_aot/oldvideos/S_pexels-tima-miroshnichenko-6077718.mp4	0.0	82.01111483573914	0.18320703506469727
11	27.088595151901245	response	0	2		9.0	2.5	/experiments/knapen_aot/oldvideos/S_pexels-tima-miroshnichenko-6077718.mp4	0.0	82.18609595298767	
11	27.096821069717407	movie	1		169.0	9.0	2.5	/experiments/knapen_aot/oldvideos/S_pexels-tima-miroshnichenko-6077718.mp4	0.0	82.19432187080383	2.5083930492401123
11	29.60521411895752	fix_post	2		12.0	9.0	2.5	/experiments/knapen_aot/oldvideos/S_pexels-tima-miroshnichenko-6077718.mp4	0.0	84.70271492004395	0.09996294975280762
12	29.705177068710327	fix_pre	0		8.0	10.0	2.5	/experiments/knapen_aot/oldvideos/R_S_yt-XpM1Jtwlvvk_42.mp4	0.0	84.80267786979675	0.06666207313537598
12	29.76363205909729	response	0	2		10.0	2.5	/experiments/knapen_aot/oldvideos/R_S_yt-XpM1Jtwlvvk_42.mp4	0.0	84.86113286018372	
12	29.771839141845703	movie	1		301.0	10.0	2.5	/experiments/knapen_aot/oldvideos/R_S_yt-XpM1Jtwlvvk_42.mp4	0.0	84.86933994293213	2.508316993713379
12	32.28015613555908	fix_post	2		12.0	10.0	2.5	/experiments/knapen_aot/oldvideos/R_S_yt-XpM1Jtwlvvk_42.mp4	0.0	87.37765693664551	0.10009098052978516
13	32.38024711608887	fix_pre	0		5.0	11.0	2.5	/experiments/knapen_aot/oldvideos/R_S_yt-s2PWkCdT-TM_258.mp4	0.0	87.4777479171753	0.04275989532470703
13	32.41367721557617	response	0	2		11.0	2.5	/experiments/knapen_aot/oldvideos/R_S_yt-s2PWkCdT-TM_258.mp4	0.0	87.5111780166626	
13	32.423007011413574	movie	1		301.0	11.0	2.5	/experiments/knapen_aot/oldvideos/R_S_yt-s2PWkCdT-TM_258.mp4	0.0	87.5205078125	2.507312059402466
13	34.756394147872925	response	1	2		11.0	2.5	/experiments/knapen_aot/oldvideos/R_S_yt-s2PWkCdT-TM_258.mp4	0.0	89.85389494895935	
13	34.93031907081604	fix_post	2		12.0	11.0	2.5	/experiments/knapen_aot/oldvideos/R_S_yt-s2PWkCdT-TM_258.mp4	0.0	90.02781987190247	0.0998690128326416
14	35.03018808364868	fix_pre	0		1.0	12.0	2.5	/experiments/knapen_aot/oldvideos/R_S_yt-fqbi4rGc9dk_65.mp4	0.0	90.12768888473511	0.010873079299926758
14	35.03179621696472	response	0	2		12.0	2.5	/experiments/knapen_aot/oldvideos/R_S_yt-fqbi4rGc9dk_65.mp4	0.0	90.12929701805115	
14	35.04106116294861	movie	1		301.0	12.0	2.5	/experiments/knapen_aot/oldvideos/R_S_yt-fqbi4rGc9dk_65.mp4	0.0	90.13856196403503	2.505779981613159
14	37.54684114456177	fix_post	2		12.0	12.0	2.5	/experiments/knapen_aot/oldvideos/R_S_yt-fqbi4rGc9dk_65.mp4	0.0	92.6443419456482	0.10015392303466797
15	37.646995067596436	fix_pre	0		18.0	13.0	2.5	/experiments/knapen_aot/oldvideos/R_S_production_ID_4101242.mp4	0.0	92.74449586868286	0.1498100757598877
15	37.78110909461975	response	0	2		13.0	2.5	/experiments/knapen_aot/oldvideos/R_S_production_ID_4101242.mp4	0.0	92.87860989570618	
15	37.79680514335632	movie	1		197.0	13.0	2.5	/experiments/knapen_aot/oldvideos/R_S_production_ID_4101242.mp4	0.0	92.89430594444275	2.508373975753784
15	40.30517911911011	fix_post	2		12.0	13.0	2.5	/experiments/knapen_aot/oldvideos/R_S_production_ID_4101242.mp4	0.0	95.40267992019653	0.10003495216369629
16	40.405214071273804	fix_pre	0		13.0	14.0	2.5	blank	1.0	95.50271487236023	0.1083369255065918
16	40.50526022911072	response	0	2		14.0	2.5	blank	1.0	95.60276103019714	
16	40.513550996780396	movie	1		301.0	14.0	2.5	blank	1.0	95.61105179786682	2.5082662105560303
16	43.021817207336426	fix_post	2		12.0	14.0	2.5	blank	1.0	98.11931800842285	0.1000368595123291
17	43.121854066848755	fix_pre	0		22.0	15.0	2.5	/experiments/knapen_aot/oldvideos/S_yt-vY49oIv_dWg_73.mp4	0.0	98.21935486793518	0.1832411289215088
17	43.296897172927856	response	0	2		15.0	2.5	/experiments/knapen_aot/oldvideos/S_yt-vY49oIv_dWg_73.mp4	0.0	98.39439797401428	
17	43.305095195770264	movie	1		301.0	15.0	2.5	/experiments/knapen_aot/oldvideos/S_yt-vY49oIv_dWg_73.mp4	0.0	98.40259599685669	2.508314847946167
17	45.81341004371643	fix_post	2		12.0	15.0	2.5	/experiments/knapen_aot/oldvideos/S_yt-vY49oIv_dWg_73.mp4	0.0	100.91091084480286	0.10006999969482422
18	45.913480043411255	fix_pre	0		35.0	16.0	2.5	/experiments/knapen_aot/oldvideos/S_production_ID_3709168.mp4	0.0	101.01098084449768	0.29160594940185547
18	46.196818113327026	response	0	2		16.0	2.5	/experiments/knapen_aot/oldvideos/S_production_ID_3709168.mp4	0.0	101.29431891441345	
18	46.20508599281311	movie	1		197.0	16.0	2.5	/experiments/knapen_aot/oldvideos/S_production_ID_3709168.mp4	0.0	101.30258679389954	2.50834321975708
18	48.71342921257019	fix_post	2		12.0	16.0	2.5	/experiments/knapen_aot/oldvideos/S_production_ID_3709168.mp4	0.0	103.81093001365662	0.10008597373962402
19	48.813515186309814	fix_pre	0		5.0	17.0	2.5	/experiments/knapen_aot/oldvideos/R_S_yt-r2jZ0zZrqzQ_45.mp4	0.0	103.91101598739624	0.04166603088378906
19	48.846944093704224	response	0	2		17.0	2.5	/experiments/knapen_aot/oldvideos/R_S_yt-r2jZ0zZrqzQ_45.mp4	0.0	103.94444489479065	
19	48.8551812171936	movie	1		301.0	17.0	2.5	/experiments/knapen_aot/oldvideos/R_S_yt-r2jZ0zZrqzQ_45.mp4	0.0	103.95268201828003	2.508405923843384
19	51.36358714103699	fix_post	2		12.0	17.0	2.5	/experiments/knapen_aot/oldvideos/R_S_yt-r2jZ0zZrqzQ_45.mp4	0.0	106.46108794212341	0.09991908073425293
20	51.46350622177124	fix_pre	0		12.0	18.0	2.5	/experiments/knapen_aot/oldvideos/S_yt-_7HJhRPVmHw_255.mp4	0.0	106.56100702285767	0.09995484352111816
20	51.555294036865234	response	0	2		18.0	2.5	/experiments/knapen_aot/oldvideos/S_yt-_7HJhRPVmHw_255.mp4	0.0	106.65279483795166	
20	51.56346106529236	movie	1		301.0	18.0	2.5	/experiments/knapen_aot/oldvideos/S_yt-_7HJhRPVmHw_255.mp4	0.0	106.66096186637878	2.5083370208740234
20	54.07179808616638	fix_post	2		12.0	18.0	2.5	/experiments/knapen_aot/oldvideos/S_yt-_7HJhRPVmHw_255.mp4	0.0	109.16929888725281	0.09995603561401367
21	54.171754121780396	fix_pre	0		7.0	19.0	2.5	blank	1.0	109.26925492286682	0.058367013931274414
21	54.22186303138733	response	0	2		19.0	2.5	blank	1.0	109.31936383247375	
21	54.23012113571167	movie	1		301.0	19.0	2.5	blank	1.0	109.3276219367981	2.5083959102630615
21	56.73851704597473	fix_post	2		12.0	19.0	2.5	blank	1.0	111.83601784706116	0.09994912147521973
22	56.83846616744995	fix_pre	0		19.0	20.0	2.5	/experiments/knapen_aot/oldvideos/S_yt-q9kT_c9QjbQ_34.mp4	0.0	111.93596696853638	0.1583399772644043
22	56.98852801322937	response	0	2		20.0	2.5	/experiments/knapen_aot/oldvideos/S_yt-q9kT_c9QjbQ_34.mp4	0.0	112.0860288143158	
22	56.996806144714355	movie	1		301.0	20.0	2.5	/experiments/knapen_aot/oldvideos/S_yt-q9kT_c9QjbQ_34.mp4	0.0	112.09430694580078	2.508420944213867
22	59.50522708892822	fix_post	2		12.0	20.0	2.5	/experiments/knapen_aot/oldvideos/S_yt-q9kT_c9QjbQ_34.mp4	0.0	114.60272789001465	0.09989309310913086
23	59.60512018203735	fix_pre	0		28.0	21.0	2.5	/experiments/knapen_aot/oldvideos/S_pexels-c-technical-6754008.mp4	0.0	114.70262098312378	0.23433494567871094
23	59.83027410507202	response	0	2		21.0	2.5	/experiments/knapen_aot/oldvideos/S_pexels-c-technical-6754008.mp4	0.0	114.92777490615845	
23	59.839455127716064	movie	1		193.0	21.0	2.5	/experiments/knapen_aot/oldvideos/S_pexels-c-technical-6754008.mp4	0.0	114.93695592880249	2.5076959133148193
23	62.347151041030884	fix_post	2		12.0	21.0	2.5	/experiments/knapen_aot/oldvideos/S_pexels-c-technical-6754008.mp4	0.0	117.44465184211731	0.09966301918029785
24	62.44681406021118	fix_pre	0		10.0	22.0	2.5	/experiments/knapen_aot/oldvideos/S_pexels-nkem-6237382.mp4	0.0	117.54431486129761	0.08330011367797852
24	62.521889209747314	response	0	2		22.0	2.5	/experiments/knapen_aot/oldvideos/S_pexels-nkem-6237382.mp4	0.0	117.61939001083374	
24	62.53011417388916	movie	1		161.0	22.0	2.5	/experiments/knapen_aot/oldvideos/S_pexels-nkem-6237382.mp4	0.0	117.62761497497559	2.508291006088257
24	65.03840517997742	fix_post	2		12.0	22.0	2.5	/experiments/knapen_aot/oldvideos/S_pexels-nkem-6237382.mp4	0.0	120.13590598106384	0.10001301765441895
25	65.13841819763184	fix_pre	0		10.0	23.0	2.5	/experiments/knapen_aot/oldvideos/R_S_yt-0buqUbXVTn8_48.mp4	0.0	120.23591899871826	0.0832829475402832
25	65.2135100364685	response	0	2		23.0	2.5	/experiments/knapen_aot/oldvideos/R_S_yt-0buqUbXVTn8_48.mp4	0.0	120.31101083755493	
25	65.22170114517212	movie	1		301.0	23.0	2.5	/experiments/knapen_aot/oldvideos/R_S_yt-0buqUbXVTn8_48.mp4	0.0	120.31920194625854	2.5083539485931396
25	67.73005509376526	fix_post	2		12.0	23.0	2.5	/experiments/knapen_aot/oldvideos/R_S_yt-0buqUbXVTn8_48.mp4	0.0	122.82755589485168	0.09999799728393555
26	67.8300530910492	fix_pre	0		14.0	24.0	2.5	/experiments/knapen_aot/oldvideos/S_yt-7WYXuBHeorw_188.mp4	0.0	122.92755389213562	0.1166379451751709
26	67.93856811523438	response	0	2		24.0	2.5	/experiments/knapen_aot/oldvideos/S_yt-7WYXuBHeorw_188.mp4	0.0	123.0360689163208	
26	67.94669103622437	movie	1		301.0	24.0	2.5	/experiments/knapen_aot/oldvideos/S_yt-7WYXuBHeorw_188.mp4	0.0	123.04419183731079	2.5084941387176514
26	70.45518517494202	fix_post	2		12.0	24.0	2.5	/experiments/knapen_aot/oldvideos/S_yt-7WYXuBHeorw_188.mp4	0.0	125.55268597602844	0.09990692138671875
27	70.55509209632874	fix_pre	0		16.0	25.0	2.5	/experiments/knapen_aot/oldvideos/S_yt-FbCVXEJicis_5.mp4	0.0	125.65259289741516	0.13326096534729004
27	70.68011522293091	response	0	2		25.0	2.5	/experiments/knapen_aot/oldvideos/S_yt-FbCVXEJicis_5.mp4	0.0	125.77761602401733	
27	70.68835306167603	movie	1		301.0	25.0	2.5	/experiments/knapen_aot/oldvideos/S_yt-FbCVXEJicis_5.mp4	0.0	125.78585386276245	2.508358955383301
27	73.19671201705933	fix_post	2		12.0	25.0	2.5	/experiments/knapen_aot/oldvideos/S_yt-FbCVXEJicis_5.mp4	0.0	128.29421281814575	0.10000419616699219
28	73.29671621322632	fix_pre	0		21.0	26.0	2.5	/experiments/knapen_aot/oldvideos/S_yt-T1mMDOVjvrE_83.mp4	0.0	128.39421701431274	0.17499589920043945
28	73.46348214149475	response	0	2		26.0	2.5	/experiments/knapen_aot/oldvideos/S_yt-T1mMDOVjvrE_83.mp4	0.0	128.56098294258118	
28	73.47171211242676	movie	1		301.0	26.0	2.5	/experiments/knapen_aot/oldvideos/S_yt-T1mMDOVjvrE_83.mp4	0.0	128.56921291351318	2.508331060409546
28	75.9800431728363	fix_post	2		12.0	26.0	2.5	/experiments/knapen_aot/oldvideos/S_yt-T1mMDOVjvrE_83.mp4	0.0	131.07754397392273	0.09997987747192383
29	76.08002305030823	fix_pre	0		7.0	27.0	2.5	/experiments/knapen_aot/oldvideos/S_yt-QI6k6mhpxLo_453.mp4	0.0	131.17752385139465	0.058283090591430664
29	76.1301372051239	response	0	2		27.0	2.5	/experiments/knapen_aot/oldvideos/S_yt-QI6k6mhpxLo_453.mp4	0.0	131.22763800621033	
29	76.13830614089966	movie	1		301.0	27.0	2.5	/experiments/knapen_aot/oldvideos/S_yt-QI6k6mhpxLo_453.mp4	0.0	131.23580694198608	2.508439064025879
29	78.64674520492554	fix_post	2		12.0	27.0	2.5	/experiments/knapen_aot/oldvideos/S_yt-QI6k6mhpxLo_453.mp4	0.0	133.74424600601196	0.09994196891784668
30	78.74668717384338	fix_pre	0		30.0	28.0	2.5	blank	1.0	133.8441879749298	0.24992799758911133
30	78.98845100402832	response	0	2		28.0	2.5	blank	1.0	134.08595180511475	
30	78.9966151714325	movie	1		301.0	28.0	2.5	blank	1.0	134.09411597251892	2.5083649158477783
30	81.50498008728027	fix_post	2		12.0	28.0	2.5	blank	1.0	136.6024808883667	0.09998202323913574
31	81.60496211051941	fix_pre	0		21.0	29.0	2.5	/experiments/knapen_aot/oldvideos/S_ILSVRC2015_train_00405001.mp4	0.0	136.70246291160583	0.1749279499053955
31	81.77171516418457	response	0	2		29.0	2.5	/experiments/knapen_aot/oldvideos/S_ILSVRC2015_train_00405001.mp4	0.0	136.869215965271	
31	81.7798900604248	movie	1		300.0	29.0	2.5	/experiments/knapen_aot/oldvideos/S_ILSVRC2015_train_00405001.mp4	0.0	136.87739086151123	2.508378028869629
31	84.28826808929443	fix_post	2		12.0	29.0	2.5	/experiments/knapen_aot/oldvideos/S_ILSVRC2015_train_00405001.mp4	0.0	139.38576889038086	0.10003209114074707
32	84.38830018043518	fix_pre	0		55.0	30.0	2.5	/experiments/knapen_aot/oldvideos/S_g201_AK_A003_C014_SDR_20191113_SDR_2K_AVC.mp4	0.0	139.4858009815216	0.4582958221435547
32	84.83839011192322	response	0	2		30.0	2.5	/experiments/knapen_aot/oldvideos/S_g201_AK_A003_C014_SDR_20191113_SDR_2K_AVC.mp4	0.0	139.93589091300964	
32	84.84659600257874	movie	1		163.0	30.0	2.5	/experiments/knapen_aot/oldvideos/S_g201_AK_A003_C014_SDR_20191113_SDR_2K_AVC.mp4	0.0	139.94409680366516	2.5086710453033447
32	87.35526704788208	fix_post	2		12.0	30.0	2.5	/experiments/knapen_aot/oldvideos/S_g201_AK_A003_C014_SDR_20191113_SDR_2K_AVC.mp4	0.0	142.4527678489685	0.0996999740600586
33	87.45496702194214	fix_pre	0		8.0	31.0	2.5	/experiments/knapen_aot/oldvideos/R_S_yt-I2n2eo2zoZs_112.mp4	0.0	142.55246782302856	0.06659197807312012
33	87.51340007781982	response	0	2		31.0	2.5	/experiments/knapen_aot/oldvideos/R_S_yt-I2n2eo2zoZs_112.mp4	0.0	142.61090087890625	
33	87.52155900001526	movie	1		301.0	31.0	2.5	/experiments/knapen_aot/oldvideos/R_S_yt-I2n2eo2zoZs_112.mp4	0.0	142.61905980110168	2.50838303565979
33	90.02994203567505	fix_post	2		12.0	31.0	2.5	/experiments/knapen_aot/oldvideos/R_S_yt-I2n2eo2zoZs_112.mp4	0.0	145.12744283676147	0.10000014305114746
34	90.1299421787262	fix_pre	0		10.0	32.0	2.5	/experiments/knapen_aot/oldvideos/S_yt-jy96-k8drRE_1.mp4	0.0	145.22744297981262	0.08427286148071289
34	90.20507621765137	response	0	2		32.0	2.5	/experiments/knapen_aot/oldvideos/S_yt-jy96-k8drRE_1.mp4	0.0	145.3025770187378	
34	90.21421504020691	movie	1		301.0	32.0	2.5	/experiments/knapen_aot/oldvideos/S_yt-jy96-k8drRE_1.mp4	0.0	145.31171584129333	2.5073230266571045
34	92.72153806686401	fix_post	2		12.0	32.0	2.5	/experiments/knapen_aot/oldvideos/S_yt-jy96-k8drRE_1.mp4	0.0	147.81903886795044	0.10002899169921875
35	92.82156705856323	fix_pre	0		16.0	33.0	2.5	/experiments/knapen_aot/oldvideos/S_production_ID_3709168.mp4	0.0	147.91906785964966	0.1334230899810791
35	92.94670009613037	response	0	2		33.0	2.5	/experiments/knapen_aot/oldvideos/S_production_ID_3709168.mp4	0.0	148.0442008972168	
35	92.95499014854431	movie	1		210.0	33.0	2.5	/experiments/knapen_aot/oldvideos/S_production_ID_3709168.mp4	0.0	148.05249094963074	2.50826096534729
35	95.4632511138916	fix_post	2		12.0	33.0	2.5	/experiments/knapen_aot/oldvideos/S_production_ID_3709168.mp4	0.0	150.56075191497803	0.09997105598449707
36	95.5632221698761	fix_pre	0		12.0	34.0	2.5	/experiments/knapen_aot/oldvideos/S_pexels-koolshooters-7327412.mp4	0.0	150.66072297096252	0.10001993179321289
36	95.65498208999634	response	0	2		34.0	2.5	/experiments/knapen_aot/oldvideos/S_pexels-koolshooters-7327412.mp4	0.0	150.75248289108276	
36	95.66324210166931	movie	1		164.0	34.0	2.5	/experiments/knapen_aot/oldvideos/S_pexels-koolshooters-7327412.mp4	0.0	150.76074290275574	2.508405923843384
36	98.1716480255127	fix_post	2		12.0	34.0	2.5	/experiments/knapen_aot/oldvideos/S_pexels-koolshooters-7327412.mp4	0.0	153.26914882659912	0.09992408752441406
37	98.27157211303711	fix_pre	0		16.0	35.0	2.5	blank	1.0	153.36907291412354	0.13329696655273438
37	98.39664721488953	response	0	2		35.0	2.5	blank	1.0	153.49414801597595	
37	98.40486907958984	movie	1		301.0	35.0	2.5	blank	1.0	153.50236988067627	2.508347988128662
37	100.9132170677185	fix_post	2		12.0	35.0	2.5	blank	1.0	156.01071786880493	0.09996509552001953
38	101.01318216323853	fix_pre	0		156.0	36.0	2.5	/experiments/knapen_aot/oldvideos/S_yt-qsyDLtXcyHc_8.mp4	0.0	156.11068296432495	1.2999749183654785
38	102.30498719215393	response	0	2		36.0	2.5	/experiments/knapen_aot/oldvideos/S_yt-qsyDLtXcyHc_8.mp4	0.0	157.40248799324036	
38	102.313157081604	movie	1		301.0	36.0	2.5	/experiments/knapen_aot/oldvideos/S_yt-qsyDLtXcyHc_8.mp4	0.0	157.41065788269043	2.5083301067352295
38	104.82148718833923	fix_post	2		12.0	36.0	2.5	/experiments/knapen_aot/oldvideos/S_yt-qsyDLtXcyHc_8.mp4	0.0	159.91898798942566	0.09998703002929688
39	104.92147421836853	fix_pre	0		11.0	37.0	2.5	/experiments/knapen_aot/oldvideos/R_S_yt-XF0fyyFEgWo_280.mp4	0.0	160.01897501945496	0.09173083305358887
39	105.00502920150757	response	0	2		37.0	2.5	/experiments/knapen_aot/oldvideos/R_S_yt-XF0fyyFEgWo_280.mp4	0.0	160.102530002594	
39	105.01320505142212	movie	1		301.0	37.0	2.5	/experiments/knapen_aot/oldvideos/R_S_yt-XF0fyyFEgWo_280.mp4	0.0	160.11070585250854	2.5083260536193848
39	107.5215311050415	fix_post	2		12.0	37.0	2.5	/experiments/knapen_aot/oldvideos/R_S_yt-XF0fyyFEgWo_280.mp4	0.0	162.61903190612793	0.10003495216369629
40	107.6215660572052	fix_pre	0		14.0	38.0	2.5	/experiments/knapen_aot/oldvideos/R_S_pexels-tima-miroshnichenko-6077718.mp4	0.0	162.71906685829163	0.11664295196533203
40	107.72997903823853	response	0	2		38.0	2.5	/experiments/knapen_aot/oldvideos/R_S_pexels-tima-miroshnichenko-6077718.mp4	0.0	162.82747983932495	
40	107.73820900917053	movie	1		165.0	38.0	2.5	/experiments/knapen_aot/oldvideos/R_S_pexels-tima-miroshnichenko-6077718.mp4	0.0	162.83570981025696	2.5084550380706787
40	110.24666404724121	fix_post	2		12.0	38.0	2.5	/experiments/knapen_aot/oldvideos/R_S_pexels-tima-miroshnichenko-6077718.mp4	0.0	165.34416484832764	0.09987211227416992
41	110.34653615951538	fix_pre	0		11.0	39.0	2.5	/experiments/knapen_aot/oldvideos/S_pexels-mikhail-nilov-8410084.mp4	0.0	165.4440369606018	0.09161901473999023
41	110.42999815940857	response	0	2		39.0	2.5	/experiments/knapen_aot/oldvideos/S_pexels-mikhail-nilov-8410084.mp4	0.0	165.527498960495	
41	110.43815517425537	movie	1		164.0	39.0	2.5	/experiments/knapen_aot/oldvideos/S_pexels-mikhail-nilov-8410084.mp4	0.0	165.5356559753418	2.5084028244018555
41	112.94655799865723	fix_post	2		12.0	39.0	2.5	/experiments/knapen_aot/oldvideos/S_pexels-mikhail-nilov-8410084.mp4	0.0	168.04405879974365	0.09994220733642578
42	113.04650020599365	fix_pre	0		7.0	40.0	2.5	blank	1.0	168.14400100708008	0.05831098556518555
42	113.0965211391449	response	0	2		40.0	2.5	blank	1.0	168.19402194023132	
42	113.10481119155884	movie	1		301.0	40.0	2.5	blank	1.0	168.20231199264526	2.5084228515625
42	115.61323404312134	fix_post	2		12.0	40.0	2.5	blank	1.0	170.71073484420776	0.10018110275268555
43	115.71341514587402	fix_pre	0		14.0	41.0	2.5	/experiments/knapen_aot/oldvideos/R_S_b6-4.mp4	0.0	170.81091594696045	0.11636900901794434
43	115.82173800468445	response	0	2		41.0	2.5	/experiments/knapen_aot/oldvideos/R_S_b6-4.mp4	0.0	170.91923880577087	
43	115.82978415489197	movie	1		167.0	41.0	2.5	/experiments/knapen_aot/oldvideos/R_S_b6-4.mp4	0.0	170.9272849559784	2.5085630416870117
43	118.33834719657898	fix_post	2		12.0	41.0	2.5	/experiments/knapen_aot/oldvideos/R_S_b6-4.mp4	0.0	173.4358479976654	0.09974980354309082
44	118.43809700012207	fix_pre	0		8.0	42.0	2.5	/experiments/knapen_aot/oldvideos/R_S_yt-4GDusA21cEA_170.mp4	0.0	173.5355978012085	0.06751012802124023
44	118.49659705162048	response	0	2		42.0	2.5	/experiments/knapen_aot/oldvideos/R_S_yt-4GDusA21cEA_170.mp4	0.0	173.5940978527069	
44	118.50560712814331	movie	1		297.0	42.0	2.5	/experiments/knapen_aot/oldvideos/R_S_yt-4GDusA21cEA_170.mp4	0.0	173.60310792922974	2.5075318813323975
44	121.01313900947571	fix_post	2		12.0	42.0	2.5	/experiments/knapen_aot/oldvideos/R_S_yt-4GDusA21cEA_170.mp4	0.0	176.11063981056213	0.10005021095275879
45	121.11318922042847	fix_pre	0		9.0	43.0	2.5	/experiments/knapen_aot/oldvideos/S_comp_DB_D011_C010_PSNK_DENOISE_v19_SDR_PS_20180914_SDR_2K_AVC.mp4	0.0	176.2106900215149	0.07488489151000977
45	121.17992210388184	response	0	2		43.0	2.5	/experiments/knapen_aot/oldvideos/S_comp_DB_D011_C010_PSNK_DENOISE_v19_SDR_PS_20180914_SDR_2K_AVC.mp4	0.0	176.27742290496826	
45	121.18807411193848	movie	1		165.0	43.0	2.5	/experiments/knapen_aot/oldvideos/S_comp_DB_D011_C010_PSNK_DENOISE_v19_SDR_PS_20180914_SDR_2K_AVC.mp4	0.0	176.2855749130249	2.508328914642334
45	123.69640302658081	fix_post	2		12.0	43.0	2.5	/experiments/knapen_aot/oldvideos/S_comp_DB_D011_C010_PSNK_DENOISE_v19_SDR_PS_20180914_SDR_2K_AVC.mp4	0.0	178.79390382766724	0.10006499290466309
46	123.79646801948547	fix_pre	0		2.0	44.0	2.5	/experiments/knapen_aot/oldvideos/S_yt-fryIS5Itzig_124.mp4	0.0	178.8939688205719	0.016607046127319336
46	123.79883813858032	response	0	2		44.0	2.5	/experiments/knapen_aot/oldvideos/S_yt-fryIS5Itzig_124.mp4	0.0	178.89633893966675	
46	123.8130750656128	movie	1		301.0	44.0	2.5	/experiments/knapen_aot/oldvideos/S_yt-fryIS5Itzig_124.mp4	0.0	178.91057586669922	2.5083961486816406
46	126.32147121429443	fix_post	2		12.0	44.0	2.5	/experiments/knapen_aot/oldvideos/S_yt-fryIS5Itzig_124.mp4	0.0	181.41897201538086	0.09997081756591797
47	126.42144203186035	fix_pre	0		8.0	45.0	2.5	/experiments/knapen_aot/oldvideos/S_yt-v9WGfC67DPk_50.mp4	0.0	181.51894283294678	0.0666360855102539
47	126.47992205619812	response	0	2		45.0	2.5	/experiments/knapen_aot/oldvideos/S_yt-v9WGfC67DPk_50.mp4	0.0	181.57742285728455	
47	126.4880781173706	movie	1		301.0	45.0	2.5	/experiments/knapen_aot/oldvideos/S_yt-v9WGfC67DPk_50.mp4	0.0	181.58557891845703	2.5083460807800293
47	128.99642419815063	fix_post	2		12.0	45.0	2.5	/experiments/knapen_aot/oldvideos/S_yt-v9WGfC67DPk_50.mp4	0.0	184.09392499923706	0.10000801086425781
48	129.0964322090149	fix_pre	0		46.0	46.0	2.5	/experiments/knapen_aot/oldvideos/R_S_yt-0Zze3Ff12Ys_58.mp4	0.0	184.19393301010132	0.3832848072052002
48	129.4716830253601	response	0	2		46.0	2.5	/experiments/knapen_aot/oldvideos/R_S_yt-0Zze3Ff12Ys_58.mp4	0.0	184.56918382644653	
48	129.4797170162201	movie	1		301.0	46.0	2.5	/experiments/knapen_aot/oldvideos/R_S_yt-0Zze3Ff12Ys_58.mp4	0.0	184.57721781730652	2.5083911418914795
48	131.98810815811157	fix_post	2		12.0	46.0	2.5	/experiments/knapen_aot/oldvideos/R_S_yt-0Zze3Ff12Ys_58.mp4	0.0	187.085608959198	0.10001802444458008
49	132.08812618255615	fix_pre	0		3.0	47.0	2.5	blank	1.0	187.18562698364258	0.024979829788208008
49	132.1048481464386	response	0	2		47.0	2.5	blank	1.0	187.20234894752502	
49	132.11310601234436	movie	1		301.0	47.0	2.5	blank	1.0	187.2106068134308	2.5083250999450684
49	134.62143111228943	fix_post	2		12.0	47.0	2.5	blank	1.0	189.71893191337585	0.09995198249816895
50	134.7213830947876	fix_pre	0		33.0	48.0	2.5	/experiments/knapen_aot/oldvideos/S_comp_A001_C004_1207W5_v23_SDR_FINAL_20180706_SDR_2K_AVC.mp4	0.0	189.81888389587402	0.2750389575958252
50	134.98811101913452	response	0	2		48.0	2.5	/experiments/knapen_aot/oldvideos/S_comp_A001_C004_1207W5_v23_SDR_FINAL_20180706_SDR_2K_AVC.mp4	0.0	190.08561182022095	
50	134.99642205238342	movie	1		165.0	48.0	2.5	/experiments/knapen_aot/oldvideos/S_comp_A001_C004_1207W5_v23_SDR_FINAL_20180706_SDR_2K_AVC.mp4	0.0	190.09392285346985	2.5083210468292236
50	137.50474309921265	fix_post	2		12.0	48.0	2.5	/experiments/knapen_aot/oldvideos/S_comp_A001_C004_1207W5_v23_SDR_FINAL_20180706_SDR_2K_AVC.mp4	0.0	192.60224390029907	0.1005399227142334
51	137.60528302192688	fix_pre	0		2.0	49.0	2.5	/experiments/knapen_aot/oldvideos/R_S_production_ID_3923518.mp4	0.0	192.7027838230133	0.016144990921020508
51	137.60777616500854	response	0	2		49.0	2.5	/experiments/knapen_aot/oldvideos/R_S_production_ID_3923518.mp4	0.0	192.70527696609497	
51	137.6214280128479	movie	1		163.0	49.0	2.5	/experiments/knapen_aot/oldvideos/R_S_production_ID_3923518.mp4	0.0	192.71892881393433	2.508342981338501
51	140.1297709941864	fix_post	2		12.0	49.0	2.5	/experiments/knapen_aot/oldvideos/R_S_production_ID_3923518.mp4	0.0	195.22727179527283	0.0999751091003418
52	140.22974610328674	fix_pre	0		5.0	50.0	2.5	/experiments/knapen_aot/oldvideos/S_yt-zQnaVApUPH0_14.mp4	0.0	195.32724690437317	0.04164004325866699
52	140.26325011253357	response	0	2		50.0	2.5	/experiments/knapen_aot/oldvideos/S_yt-zQnaVApUPH0_14.mp4	0.0	195.36075091362	
52	140.2713861465454	movie	1		301.0	50.0	2.5	/experiments/knapen_aot/oldvideos/S_yt-zQnaVApUPH0_14.mp4	0.0	195.36888694763184	2.508341073989868
52	142.77972722053528	fix_post	2		12.0	50.0	2.5	/experiments/knapen_aot/oldvideos/S_yt-zQnaVApUPH0_14.mp4	0.0	197.8772280216217	0.1001429557800293
53	142.8798701763153	fix_pre	0		43.0	51.0	2.5	/experiments/knapen_aot/oldvideos/S_ILSVRC2015_train_00479003.mp4	0.0	197.97737097740173	0.358137845993042
53	143.2298800945282	response	0	2		51.0	2.5	/experiments/knapen_aot/oldvideos/S_ILSVRC2015_train_00479003.mp4	0.0	198.32738089561462	
53	143.23800802230835	movie	1		301.0	51.0	2.5	/experiments/knapen_aot/oldvideos/S_ILSVRC2015_train_00479003.mp4	0.0	198.33550882339478	2.5083751678466797
53	145.74638319015503	fix_post	2		12.0	51.0	2.5	/experiments/knapen_aot/oldvideos/S_ILSVRC2015_train_00479003.mp4	0.0	200.84388399124146	0.10000896453857422
54	145.8463921546936	fix_pre	0		28.0	52.0	2.5	/experiments/knapen_aot/oldvideos/R_S_yt-xQPKYWDRy2A_491.mp4	0.0	200.94389295578003	0.23326802253723145
54	146.071533203125	response	0	2		52.0	2.5	/experiments/knapen_aot/oldvideos/R_S_yt-xQPKYWDRy2A_491.mp4	0.0	201.16903400421143	
54	146.07966017723083	movie	1		301.0	52.0	2.5	/experiments/knapen_aot/oldvideos/R_S_yt-xQPKYWDRy2A_491.mp4	0.0	201.17716097831726	2.5083749294281006
54	148.58803510665894	fix_post	2		12.0	52.0	2.5	/experiments/knapen_aot/oldvideos/R_S_yt-xQPKYWDRy2A_491.mp4	0.0	203.68553590774536	0.10000395774841309
55	148.68803906440735	fix_pre	0		5.0	53.0	2.5	/experiments/knapen_aot/oldvideos/S_yt-ayx4rU9bJrU_179.mp4	0.0	203.78553986549377	0.04164695739746094
55	148.7214651107788	response	0	2		53.0	2.5	/experiments/knapen_aot/oldvideos/S_yt-ayx4rU9bJrU_179.mp4	0.0	203.81896591186523	
55	148.7296860218048	movie	1		301.0	53.0	2.5	/experiments/knapen_aot/oldvideos/S_yt-ayx4rU9bJrU_179.mp4	0.0	203.82718682289124	2.508366107940674
55	151.23805212974548	fix_post	2		12.0	53.0	2.5	/experiments/knapen_aot/oldvideos/S_yt-ayx4rU9bJrU_179.mp4	0.0	206.3355529308319	0.09992098808288574
56	151.33797311782837	fix_pre	0		20.0	54.0	2.5	blank	1.0	206.4354739189148	0.16729402542114258
56	151.4964771270752	response	0	2		54.0	2.5	blank	1.0	206.59397792816162	
56	151.5052671432495	movie	1		301.0	54.0	2.5	blank	1.0	206.60276794433594	2.5076868534088135
56	154.01295399665833	fix_post	2		12.0	54.0	2.5	blank	1.0	209.11045479774475	0.10000920295715332
56	154.08809208869934	response	2	2		54.0	2.5	blank	1.0	209.18559288978577	
57	154.11296319961548	fix_pre	0		43.0	55.0	2.5	/experiments/knapen_aot/oldvideos/S_yt-ILARvS15SDQ_741.mp4	0.0	209.2104640007019	0.3583219051361084
57	154.46315002441406	response	0	2		55.0	2.5	/experiments/knapen_aot/oldvideos/S_yt-ILARvS15SDQ_741.mp4	0.0	209.5606508255005	
57	154.4712851047516	movie	1		301.0	55.0	2.5	/experiments/knapen_aot/oldvideos/S_yt-ILARvS15SDQ_741.mp4	0.0	209.568785905838	2.5083959102630615
57	156.82433605194092	response	1	4		55.0	2.5	/experiments/knapen_aot/oldvideos/S_yt-ILARvS15SDQ_741.mp4	0.0	211.92183685302734	
57	156.97968101501465	fix_post	2		12.0	55.0	2.5	/experiments/knapen_aot/oldvideos/S_yt-ILARvS15SDQ_741.mp4	0.0	212.07718181610107	0.09995317459106445
58	157.0796341896057	fix_pre	0		14.0	56.0	2.5	/experiments/knapen_aot/oldvideos/R_S_Pexels_Videos_2795171.mp4	0.0	212.17713499069214	0.1166529655456543
58	157.1880521774292	response	0	4		56.0	2.5	/experiments/knapen_aot/oldvideos/R_S_Pexels_Videos_2795171.mp4	0.0	212.28555297851562	
58	157.19628715515137	movie	1		163.0	56.0	2.5	/experiments/knapen_aot/oldvideos/R_S_Pexels_Videos_2795171.mp4	0.0	212.2937879562378	2.5083558559417725
58	159.70464301109314	fix_post	2		12.0	56.0	2.5	/experiments/knapen_aot/oldvideos/R_S_Pexels_Videos_2795171.mp4	0.0	214.80214381217957	0.09999608993530273
58	159.79642820358276	response	2	4		56.0	2.5	/experiments/knapen_aot/oldvideos/R_S_Pexels_Videos_2795171.mp4	0.0	214.8939290046692	
59	159.80463910102844	fix_pre	0		48.0	57.0	2.5	/experiments/knapen_aot/oldvideos/R_S_yt-2ZsK7zSCJ2w_67.mp4	0.0	214.90213990211487	0.3998720645904541
59	160.19638204574585	response	0	4		57.0	2.5	/experiments/knapen_aot/oldvideos/R_S_yt-2ZsK7zSCJ2w_67.mp4	0.0	215.29388284683228	
59	160.2045111656189	movie	1		301.0	57.0	2.5	/experiments/knapen_aot/oldvideos/R_S_yt-2ZsK7zSCJ2w_67.mp4	0.0	215.30201196670532	2.5084400177001953
59	162.7129511833191	fix_post	2		12.0	57.0	2.5	/experiments/knapen_aot/oldvideos/R_S_yt-2ZsK7zSCJ2w_67.mp4	0.0	217.81045198440552	0.10011696815490723
60	162.813068151474	fix_pre	0		5.0	58.0	2.5	/experiments/knapen_aot/oldvideos/S_yt-c5_SFS4aaJI_1102.mp4	0.0	217.91056895256042	0.041612863540649414
60	162.83896112442017	response	0	4		58.0	2.5	/experiments/knapen_aot/oldvideos/S_yt-c5_SFS4aaJI_1102.mp4	0.0	217.9364619255066	
60	162.85468101501465	movie	1		301.0	58.0	2.5	/experiments/knapen_aot/oldvideos/S_yt-c5_SFS4aaJI_1102.mp4	0.0	217.95218181610107	2.50823712348938
60	165.36291813850403	fix_post	2		12.0	58.0	2.5	/experiments/knapen_aot/oldvideos/S_yt-c5_SFS4aaJI_1102.mp4	0.0	220.46041893959045	0.1000058650970459
61	165.46292400360107	fix_pre	0		17.0	59.0	2.5	/experiments/knapen_aot/oldvideos/S_yt-wLylWnZs3z0_27.mp4	0.0	220.5604248046875	0.14163804054260254
61	165.59633421897888	response	0	4		59.0	2.5	/experiments/knapen_aot/oldvideos/S_yt-wLylWnZs3z0_27.mp4	0.0	220.6938350200653	
61	165.60456204414368	movie	1		301.0	59.0	2.5	/experiments/knapen_aot/oldvideos/S_yt-wLylWnZs3z0_27.mp4	0.0	220.7020628452301	2.5083611011505127
61	168.1129231452942	fix_post	2		12.0	59.0	2.5	/experiments/knapen_aot/oldvideos/S_yt-wLylWnZs3z0_27.mp4	0.0	223.21042394638062	0.10002708435058594
62	168.21295022964478	fix_pre	0		14.0	60.0	2.5	/experiments/knapen_aot/oldvideos/R_S_yt-4r-oovk9JWg_85.mp4	0.0	223.3104510307312	0.11659479141235352
62	168.32131099700928	response	0	4		60.0	2.5	/experiments/knapen_aot/oldvideos/R_S_yt-4r-oovk9JWg_85.mp4	0.0	223.4188117980957	
62	168.32954502105713	movie	1		301.0	60.0	2.5	/experiments/knapen_aot/oldvideos/R_S_yt-4r-oovk9JWg_85.mp4	0.0	223.42704582214355	2.5084052085876465
62	170.83795022964478	fix_post	2		12.0	60.0	2.5	/experiments/knapen_aot/oldvideos/R_S_yt-4r-oovk9JWg_85.mp4	0.0	225.9354510307312	0.09990096092224121
63	170.93785119056702	fix_pre	0		11.0	61.0	2.5	blank	1.0	226.03535199165344	0.09164881706237793
63	171.0137162208557	response	0	4		61.0	2.5	blank	1.0	226.11121702194214	
63	171.0295000076294	movie	1		301.0	61.0	2.5	blank	1.0	226.12700080871582	2.508446216583252
63	173.53794622421265	fix_post	2		12.0	61.0	2.5	blank	1.0	228.63544702529907	0.09995889663696289
64	173.6379051208496	fix_pre	0		17.0	62.0	2.5	/experiments/knapen_aot/oldvideos/R_S_yt-5AI_SyK5sg8_112.mp4	0.0	228.73540592193604	0.1415560245513916
64	173.77136611938477	response	0	4		62.0	2.5	/experiments/knapen_aot/oldvideos/R_S_yt-5AI_SyK5sg8_112.mp4	0.0	228.8688669204712	
64	173.779461145401	movie	1		301.0	62.0	2.5	/experiments/knapen_aot/oldvideos/R_S_yt-5AI_SyK5sg8_112.mp4	0.0	228.87696194648743	2.50846791267395
64	176.28792905807495	fix_post	2		12.0	62.0	2.5	/experiments/knapen_aot/oldvideos/R_S_yt-5AI_SyK5sg8_112.mp4	0.0	231.38542985916138	0.09995794296264648
65	176.3878870010376	fix_pre	0		8.0	63.0	2.5	/experiments/knapen_aot/oldvideos/R_S_flickr-53807584@N00-5566422012_16.mp4	0.0	231.48538780212402	0.06656312942504883
65	176.43875408172607	response	0	4		63.0	2.5	/experiments/knapen_aot/oldvideos/R_S_flickr-53807584@N00-5566422012_16.mp4	0.0	231.5362548828125	
65	176.45445013046265	movie	1		301.0	63.0	2.5	/experiments/knapen_aot/oldvideos/R_S_flickr-53807584@N00-5566422012_16.mp4	0.0	231.55195093154907	2.5084569454193115
65	178.96290707588196	fix_post	2		12.0	63.0	2.5	/experiments/knapen_aot/oldvideos/R_S_flickr-53807584@N00-5566422012_16.mp4	0.0	234.06040787696838	0.09998703002929688
66	179.06289410591125	fix_pre	0		10.0	64.0	2.5	/experiments/knapen_aot/oldvideos/S_ILSVRC2015_train_00318000.mp4	0.0	234.16039490699768	0.08329606056213379
66	179.13041520118713	response	0	4		64.0	2.5	/experiments/knapen_aot/oldvideos/S_ILSVRC2015_train_00318000.mp4	0.0	234.22791600227356	
66	179.1461901664734	movie	1		301.0	64.0	2.5	/experiments/knapen_aot/oldvideos/S_ILSVRC2015_train_00318000.mp4	0.0	234.24369096755981	2.5085959434509277
66	181.65478610992432	fix_post	2		12.0	64.0	2.5	/experiments/knapen_aot/oldvideos/S_ILSVRC2015_train_00318000.mp4	0.0	236.75228691101074	0.09974288940429688
67	181.7545289993286	fix_pre	0		27.0	65.0	2.5	/experiments/knapen_aot/oldvideos/S_yt-mWlx1SIXl5M_850.mp4	0.0	236.85202980041504	0.2249891757965088
67	181.9712791442871	response	0	4		65.0	2.5	/experiments/knapen_aot/oldvideos/S_yt-mWlx1SIXl5M_850.mp4	0.0	237.06877994537354	
67	181.97951817512512	movie	1		301.0	65.0	2.5	/experiments/knapen_aot/oldvideos/S_yt-mWlx1SIXl5M_850.mp4	0.0	237.07701897621155	2.5083718299865723
67	184.4878900051117	fix_post	2		12.0	65.0	2.5	/experiments/knapen_aot/oldvideos/S_yt-mWlx1SIXl5M_850.mp4	0.0	239.58539080619812	0.09995698928833008
68	184.58784699440002	fix_pre	0		20.0	66.0	2.5	/experiments/knapen_aot/oldvideos/R_S_yt-7WYXuBHeorw_188.mp4	0.0	239.68534779548645	0.16710519790649414
68	184.746276140213	response	0	4		66.0	2.5	/experiments/knapen_aot/oldvideos/R_S_yt-7WYXuBHeorw_188.mp4	0.0	239.84377694129944	
68	184.75495219230652	movie	1		301.0	66.0	2.5	/experiments/knapen_aot/oldvideos/R_S_yt-7WYXuBHeorw_188.mp4	0.0	239.85245299339294	2.5079360008239746
68	187.2628881931305	fix_post	2		12.0	66.0	2.5	/experiments/knapen_aot/oldvideos/R_S_yt-7WYXuBHeorw_188.mp4	0.0	242.36038899421692	0.10007381439208984
69	187.36296200752258	fix_pre	0		26.0	67.0	2.5	/experiments/knapen_aot/oldvideos/S_yt-YTQXM5ZjRgg_116.mp4	0.0	242.460462808609	0.21648120880126953
69	187.57127118110657	response	0	4		67.0	2.5	/experiments/knapen_aot/oldvideos/S_yt-YTQXM5ZjRgg_116.mp4	0.0	242.668771982193	
69	187.57944321632385	movie	1		301.0	67.0	2.5	/experiments/knapen_aot/oldvideos/S_yt-YTQXM5ZjRgg_116.mp4	0.0	242.67694401741028	2.5084068775177
69	190.08785009384155	fix_post	2		12.0	67.0	2.5	/experiments/knapen_aot/oldvideos/S_yt-YTQXM5ZjRgg_116.mp4	0.0	245.18535089492798	0.09998798370361328
70	190.18783807754517	fix_pre	0		9.0	68.0	2.5	/experiments/knapen_aot/oldvideos/R_S_yt-FsylDeYfcxU_24.mp4	0.0	245.2853388786316	0.07507014274597168
70	190.25457310676575	response	0	4		68.0	2.5	/experiments/knapen_aot/oldvideos/R_S_yt-FsylDeYfcxU_24.mp4	0.0	245.35207390785217	
70	190.26290822029114	movie	1		301.0	68.0	2.5	/experiments/knapen_aot/oldvideos/R_S_yt-FsylDeYfcxU_24.mp4	0.0	245.36040902137756	2.508502960205078
70	192.77141118049622	fix_post	2		12.0	68.0	2.5	/experiments/knapen_aot/oldvideos/R_S_yt-FsylDeYfcxU_24.mp4	0.0	247.86891198158264	0.0997169017791748
71	192.8711280822754	fix_pre	0		10.0	69.0	2.5	blank	1.0	247.96862888336182	0.08331894874572754
71	192.94629907608032	response	0	4		69.0	2.5	blank	1.0	248.04379987716675	
71	192.95444703102112	movie	1		301.0	69.0	2.5	blank	1.0	248.05194783210754	2.5083320140838623
71	195.46277904510498	fix_post	2		12.0	69.0	2.5	blank	1.0	250.5602798461914	0.1000361442565918
72	195.56281518936157	fix_pre	0		19.0	70.0	2.5	/experiments/knapen_aot/oldvideos/S_yt-0MB_IYX1fgo_44.mp4	0.0	250.660315990448	0.15825700759887695
72	195.71284317970276	response	0	4		70.0	2.5	/experiments/knapen_aot/oldvideos/S_yt-0MB_IYX1fgo_44.mp4	0.0	250.81034398078918	
72	195.72107219696045	movie	1		301.0	70.0	2.5	/experiments/knapen_aot/oldvideos/S_yt-0MB_IYX1fgo_44.mp4	0.0	250.81857299804688	2.5083789825439453
72	198.2294511795044	fix_post	2		12.0	70.0	2.5	/experiments/knapen_aot/oldvideos/S_yt-0MB_IYX1fgo_44.mp4	0.0	253.32695198059082	0.10002303123474121
73	198.32947421073914	fix_pre	0		23.0	71.0	2.5	/experiments/knapen_aot/oldvideos/R_S_yt-wnQFgNEnHUI_109.mp4	0.0	253.42697501182556	0.19164395332336426
73	198.51295113563538	response	0	4		71.0	2.5	/experiments/knapen_aot/oldvideos/R_S_yt-wnQFgNEnHUI_109.mp4	0.0	253.6104519367218	
73	198.5211181640625	movie	1		301.0	71.0	2.5	/experiments/knapen_aot/oldvideos/R_S_yt-wnQFgNEnHUI_109.mp4	0.0	253.61861896514893	2.5083138942718506
73	201.02943205833435	fix_post	2		12.0	71.0	2.5	/experiments/knapen_aot/oldvideos/R_S_yt-wnQFgNEnHUI_109.mp4	0.0	256.1269328594208	0.10040903091430664
74	201.12984108924866	fix_pre	0		7.0	72.0	2.5	/experiments/knapen_aot/oldvideos/R_S_ILSVRC2015_train_00384000.mp4	0.0	256.2273418903351	0.057832956314086914
74	201.17955923080444	response	0	4		72.0	2.5	/experiments/knapen_aot/oldvideos/R_S_ILSVRC2015_train_00384000.mp4	0.0	256.27706003189087	
74	201.18767404556274	movie	1		301.0	72.0	2.5	/experiments/knapen_aot/oldvideos/R_S_ILSVRC2015_train_00384000.mp4	0.0	256.28517484664917	2.5083961486816406
74	203.69607019424438	fix_post	2		12.0	72.0	2.5	/experiments/knapen_aot/oldvideos/R_S_ILSVRC2015_train_00384000.mp4	0.0	258.7935709953308	0.1002650260925293
75	203.7963352203369	fix_pre	0		33.0	73.0	2.5	/experiments/knapen_aot/oldvideos/S_yt-wEbfIR14zZ8_7.mp4	0.0	258.89383602142334	0.2747528553009033
75	204.06282901763916	response	0	4		73.0	2.5	/experiments/knapen_aot/oldvideos/S_yt-wEbfIR14zZ8_7.mp4	0.0	259.1603298187256	
75	204.07108807563782	movie	1		301.0	73.0	2.5	/experiments/knapen_aot/oldvideos/S_yt-wEbfIR14zZ8_7.mp4	0.0	259.16858887672424	2.5083279609680176
75	206.57941603660583	fix_post	2		12.0	73.0	2.5	/experiments/knapen_aot/oldvideos/S_yt-wEbfIR14zZ8_7.mp4	0.0	261.67691683769226	0.09993696212768555
76	206.67935299873352	fix_pre	0		16.0	74.0	2.5	/experiments/knapen_aot/oldvideos/S_yt-Ojy5TMPX8_Q_165.mp4	0.0	261.77685379981995	0.13335418701171875
76	206.8045392036438	response	0	4		74.0	2.5	/experiments/knapen_aot/oldvideos/S_yt-Ojy5TMPX8_Q_165.mp4	0.0	261.9020400047302	
76	206.81270718574524	movie	1		301.0	74.0	2.5	/experiments/knapen_aot/oldvideos/S_yt-Ojy5TMPX8_Q_165.mp4	0.0	261.91020798683167	2.508373975753784
76	209.32108116149902	fix_post	2		12.0	74.0	2.5	/experiments/knapen_aot/oldvideos/S_yt-Ojy5TMPX8_Q_165.mp4	0.0	264.41858196258545	0.10021090507507324
77	209.4212920665741	fix_pre	0		23.0	75.0	2.5	/experiments/knapen_aot/oldvideos/S_yt-xQPKYWDRy2A_491.mp4	0.0	264.5187928676605	0.1914210319519043
77	209.6045150756836	response	0	4		75.0	2.5	/experiments/knapen_aot/oldvideos/S_yt-xQPKYWDRy2A_491.mp4	0.0	264.70201587677	
77	209.612713098526	movie	1		301.0	75.0	2.5	/experiments/knapen_aot/oldvideos/S_yt-xQPKYWDRy2A_491.mp4	0.0	264.7102138996124	2.508388042449951
77	212.12110114097595	fix_post	2		12.0	75.0	2.5	/experiments/knapen_aot/oldvideos/S_yt-xQPKYWDRy2A_491.mp4	0.0	267.2186019420624	0.09992504119873047
77	212.18793320655823	response	2	4		75.0	2.5	/experiments/knapen_aot/oldvideos/S_yt-xQPKYWDRy2A_491.mp4	0.0	267.28543400764465	
78	212.22102618217468	fix_pre	0		41.0	76.0	2.5	/experiments/knapen_aot/oldvideos/S_yt-FsylDeYfcxU_24.mp4	0.0	267.3185269832611	0.3416779041290283
78	212.5544900894165	response	0	4		76.0	2.5	/experiments/knapen_aot/oldvideos/S_yt-FsylDeYfcxU_24.mp4	0.0	267.65199089050293	
78	212.5627040863037	movie	1		301.0	76.0	2.5	/experiments/knapen_aot/oldvideos/S_yt-FsylDeYfcxU_24.mp4	0.0	267.66020488739014	2.508310079574585
78	215.0710141658783	fix_post	2		12.0	76.0	2.5	/experiments/knapen_aot/oldvideos/S_yt-FsylDeYfcxU_24.mp4	0.0	270.1685149669647	0.10035204887390137
79	215.1713662147522	fix_pre	0		6.0	77.0	2.5	blank	1.0	270.2688670158386	0.04960799217224121
79	215.21301102638245	response	0	4		77.0	2.5	blank	1.0	270.3105118274689	
79	215.22097420692444	movie	1		301.0	77.0	2.5	blank	1.0	270.31847500801086	2.508368968963623
79	217.72934317588806	fix_post	2		12.0	77.0	2.5	blank	1.0	272.8268439769745	0.10002589225769043
80	217.82936906814575	fix_pre	0		23.0	78.0	2.5	/experiments/knapen_aot/oldvideos/R_S_yt-_7HJhRPVmHw_255.mp4	0.0	272.9268698692322	0.19160914421081543
80	218.01277709007263	response	0	4		78.0	2.5	/experiments/knapen_aot/oldvideos/R_S_yt-_7HJhRPVmHw_255.mp4	0.0	273.11027789115906	
80	218.02097821235657	movie	1		301.0	78.0	2.5	/experiments/knapen_aot/oldvideos/R_S_yt-_7HJhRPVmHw_255.mp4	0.0	273.118479013443	2.508424997329712
80	220.52940320968628	fix_post	2		12.0	78.0	2.5	/experiments/knapen_aot/oldvideos/R_S_yt-_7HJhRPVmHw_255.mp4	0.0	275.6269040107727	0.10054397583007812
81	220.62994718551636	fix_pre	0		32.0	79.0	2.5	/experiments/knapen_aot/oldvideos/S_yt-Fdv-V--QlR0_117.mp4	0.0	275.7274479866028	0.2660520076751709
81	220.8878140449524	response	0	4		79.0	2.5	/experiments/knapen_aot/oldvideos/S_yt-Fdv-V--QlR0_117.mp4	0.0	275.9853148460388	
81	220.89599919319153	movie	1		301.0	79.0	2.5	/experiments/knapen_aot/oldvideos/S_yt-Fdv-V--QlR0_117.mp4	0.0	275.99349999427795	2.508330821990967
81	223.4043300151825	fix_post	2		12.0	79.0	2.5	/experiments/knapen_aot/oldvideos/S_yt-Fdv-V--QlR0_117.mp4	0.0	278.5018308162689	0.10014104843139648
82	223.5044710636139	fix_pre	0		22.0	80.0	2.5	/experiments/knapen_aot/oldvideos/S_ILSVRC2015_train_00219004.mp4	0.0	278.6019718647003	0.1831531524658203
82	223.6719810962677	response	0	4		80.0	2.5	/experiments/knapen_aot/oldvideos/S_ILSVRC2015_train_00219004.mp4	0.0	278.7694818973541	
82	223.6876242160797	movie	1		301.0	80.0	2.5	/experiments/knapen_aot/oldvideos/S_ILSVRC2015_train_00219004.mp4	0.0	278.78512501716614	2.5083389282226562
82	226.19596314430237	fix_post	2		12.0	80.0	2.5	/experiments/knapen_aot/oldvideos/S_ILSVRC2015_train_00219004.mp4	0.0	281.2934639453888	0.10022902488708496
83	226.29619216918945	fix_pre	0		27.0	81.0	2.5	/experiments/knapen_aot/oldvideos/S_yt-rbJOb1spY9M_16.mp4	0.0	281.3936929702759	0.22498703002929688
83	226.50518703460693	response	0	4		81.0	2.5	/experiments/knapen_aot/oldvideos/S_yt-rbJOb1spY9M_16.mp4	0.0	281.60268783569336	
83	226.52117919921875	movie	1		301.0	81.0	2.5	/experiments/knapen_aot/oldvideos/S_yt-rbJOb1spY9M_16.mp4	0.0	281.6186800003052	2.5082578659057617
83	229.0294370651245	fix_post	2		12.0	81.0	2.5	/experiments/knapen_aot/oldvideos/S_yt-rbJOb1spY9M_16.mp4	0.0	284.12693786621094	0.10000896453857422
84	229.1294460296631	fix_pre	0		18.0	82.0	2.5	blank	1.0	284.2269468307495	0.14989399909973145
84	229.2711260318756	response	0	4		82.0	2.5	blank	1.0	284.36862683296204	
84	229.27934002876282	movie	1		301.0	82.0	2.5	blank	1.0	284.37684082984924	2.5082690715789795
84	231.7876091003418	fix_post	2		12.0	82.0	2.5	blank	1.0	286.8851099014282	0.10005307197570801
85	231.8876621723175	fix_pre	0		28.0	83.0	2.5	/experiments/knapen_aot/oldvideos/S_yt-BLmwmX-mni8_56.mp4	0.0	286.98516297340393	0.23329496383666992
85	232.1127212047577	response	0	4		83.0	2.5	/experiments/knapen_aot/oldvideos/S_yt-BLmwmX-mni8_56.mp4	0.0	287.2102220058441	
85	232.12095713615417	movie	1		301.0	83.0	2.5	/experiments/knapen_aot/oldvideos/S_yt-BLmwmX-mni8_56.mp4	0.0	287.2184579372406	2.508526086807251
85	234.62948322296143	fix_post	2		12.0	83.0	2.5	/experiments/knapen_aot/oldvideos/S_yt-BLmwmX-mni8_56.mp4	0.0	289.72698402404785	0.09981083869934082
87	234.72929406166077	stim	0		352.0					289.8267948627472	2.933293104171753
87	234.8960862159729	response	0	4						289.9935870170593	
87	236.58171916007996	response	0	num_enter						291.6792199611664	
87	237.65427613258362	response	0	space						292.75177693367004	
