trial_nr	onset	event_type	phase	response	nr_frames	movie_index	movie_duration	movie_file	blank	onset_abs	duration
0	0.13322210311889648	stim	0		33.0					214.90727019309998	0.2761268615722656
0	0.4001450538635254	response	0	space						215.1741931438446	
1	0.4093489646911621	stim	0		121.0					215.18339705467224	1.0069060325622559
1	1.091629981994629	response	0	space						215.8656780719757	
1	1.416254997253418	stim	1		120.0					216.1903030872345	0.9999840259552002
1	1.4580919742584229	response	1	space						216.2321400642395	
1	1.966318130493164	response	1	space						216.74036622047424	
2	2.416239023208618	fix_pre	0		45.0	0.0	2.5	/experiments/knapen_aot/videos/R_S_S005_C015_SDR_2K_AVC.mp4	0.0	217.1902871131897	0.37491893768310547
2	2.782999038696289	response	0	space		0.0	2.5	/experiments/knapen_aot/videos/R_S_S005_C015_SDR_2K_AVC.mp4	0.0	217.55704712867737	
2	2.7911579608917236	movie	1		167.0	0.0	2.5	/experiments/knapen_aot/videos/R_S_S005_C015_SDR_2K_AVC.mp4	0.0	217.5652060508728	2.508430004119873
2	5.299587965011597	fix_post	2		12.0	0.0	2.5	/experiments/knapen_aot/videos/R_S_S005_C015_SDR_2K_AVC.mp4	0.0	220.07363605499268	0.09995222091674805
3	5.399540185928345	fix_pre	0		31.0	1.0	2.5	/experiments/knapen_aot/videos/R_S_yt-fA0nOetbOJY_580.mp4	0.0	220.17358827590942	0.25952887535095215
3	5.654927968978882	response	0	2		1.0	2.5	/experiments/knapen_aot/videos/R_S_yt-fA0nOetbOJY_580.mp4	0.0	220.42897605895996	
3	5.659069061279297	movie	1		295.0	1.0	2.5	/experiments/knapen_aot/videos/R_S_yt-fA0nOetbOJY_580.mp4	0.0	220.43311715126038	2.5071709156036377
3	8.166239976882935	fix_post	2		12.0	1.0	2.5	/experiments/knapen_aot/videos/R_S_yt-fA0nOetbOJY_580.mp4	0.0	222.940288066864	0.09999299049377441
4	8.266232967376709	fix_pre	0		39.0	2.0	2.5	/experiments/knapen_aot/videos/S_ILSVRC2015_train_00682009.mp4	0.0	223.0402810573578	0.3249831199645996
4	8.583050966262817	response	0	2		2.0	2.5	/experiments/knapen_aot/videos/S_ILSVRC2015_train_00682009.mp4	0.0	223.3570990562439	
4	8.591216087341309	movie	1		301.0	2.0	2.5	/experiments/knapen_aot/videos/S_ILSVRC2015_train_00682009.mp4	0.0	223.3652641773224	2.5082879066467285
4	11.099503993988037	fix_post	2		12.0	2.0	2.5	/experiments/knapen_aot/videos/S_ILSVRC2015_train_00682009.mp4	0.0	225.87355208396912	0.09999513626098633
5	11.199499130249023	fix_pre	0		19.0	3.0	2.5	/experiments/knapen_aot/videos/S_yt-fryIS5Itzig_124.mp4	0.0	225.9735472202301	0.15836095809936523
5	11.349631071090698	response	0	2		3.0	2.5	/experiments/knapen_aot/videos/S_yt-fryIS5Itzig_124.mp4	0.0	226.12367916107178	
5	11.357860088348389	movie	1		301.0	3.0	2.5	/experiments/knapen_aot/videos/S_yt-fryIS5Itzig_124.mp4	0.0	226.13190817832947	2.5084030628204346
5	13.866263151168823	fix_post	2		12.0	3.0	2.5	/experiments/knapen_aot/videos/S_yt-fryIS5Itzig_124.mp4	0.0	228.6403112411499	0.09997081756591797
6	13.966233968734741	fix_pre	0		22.0	4.0	2.5	/experiments/knapen_aot/videos/R_S_yt-Xs7TCzdnUJQ_79.mp4	0.0	228.74028205871582	0.1833209991455078
6	14.141330003738403	response	0	2		4.0	2.5	/experiments/knapen_aot/videos/R_S_yt-Xs7TCzdnUJQ_79.mp4	0.0	228.91537809371948	
6	14.149554967880249	movie	1		301.0	4.0	2.5	/experiments/knapen_aot/videos/R_S_yt-Xs7TCzdnUJQ_79.mp4	0.0	228.92360305786133	2.508294105529785
6	16.657849073410034	fix_post	2		12.0	4.0	2.5	/experiments/knapen_aot/videos/R_S_yt-Xs7TCzdnUJQ_79.mp4	0.0	231.4318971633911	0.10001802444458008
7	16.757867097854614	fix_pre	0		22.0	5.0	2.5	/experiments/knapen_aot/videos/R_S_yt-GWlwb2QsxIA_48.mp4	0.0	231.5319151878357	0.18333101272583008
7	16.93307113647461	response	0	2		5.0	2.5	/experiments/knapen_aot/videos/R_S_yt-GWlwb2QsxIA_48.mp4	0.0	231.7071192264557	
7	16.941198110580444	movie	1		301.0	5.0	2.5	/experiments/knapen_aot/videos/R_S_yt-GWlwb2QsxIA_48.mp4	0.0	231.71524620056152	2.5082650184631348
7	19.44946312904358	fix_post	2		12.0	5.0	2.5	/experiments/knapen_aot/videos/R_S_yt-GWlwb2QsxIA_48.mp4	0.0	234.22351121902466	0.09999299049377441
8	19.549456119537354	fix_pre	0		25.0	6.0	2.5	blank	1.0	234.32350420951843	0.2083740234375
8	19.7496120929718	response	0	2		6.0	2.5	blank	1.0	234.52366018295288	
8	19.757830142974854	movie	1		301.0	6.0	2.5	blank	1.0	234.53187823295593	2.5082528591156006
8	22.266083002090454	fix_post	2		12.0	6.0	2.5	blank	1.0	237.04013109207153	0.1000680923461914
9	22.366151094436646	fix_pre	0		26.0	7.0	2.5	/experiments/knapen_aot/videos/R_S_ILSVRC2015_train_00565000.mp4	0.0	237.14019918441772	0.21666288375854492
9	22.574604034423828	response	0	2		7.0	2.5	/experiments/knapen_aot/videos/R_S_ILSVRC2015_train_00565000.mp4	0.0	237.3486521244049	
9	22.58281397819519	movie	1		301.0	7.0	2.5	/experiments/knapen_aot/videos/R_S_ILSVRC2015_train_00565000.mp4	0.0	237.35686206817627	2.5083510875701904
9	25.09116506576538	fix_post	2		12.0	7.0	2.5	/experiments/knapen_aot/videos/R_S_ILSVRC2015_train_00565000.mp4	0.0	239.86521315574646	0.10001802444458008
10	25.19118309020996	fix_pre	0		46.0	8.0	2.5	/experiments/knapen_aot/videos/R_S_yt-Z4W6l0eZza4_6.mp4	0.0	239.96523118019104	0.38431692123413086
10	25.566312074661255	response	0	2		8.0	2.5	/experiments/knapen_aot/videos/R_S_yt-Z4W6l0eZza4_6.mp4	0.0	240.34036016464233	
10	25.575500011444092	movie	1		300.0	8.0	2.5	/experiments/knapen_aot/videos/R_S_yt-Z4W6l0eZza4_6.mp4	0.0	240.34954810142517	2.5073399543762207
10	28.082839965820312	fix_post	2		12.0	8.0	2.5	/experiments/knapen_aot/videos/R_S_yt-Z4W6l0eZza4_6.mp4	0.0	242.8568880558014	0.09998011589050293
11	28.182820081710815	fix_pre	0		42.0	9.0	2.5	/experiments/knapen_aot/videos/S_yt-I2n2eo2zoZs_94.mp4	0.0	242.9568681716919	0.351032018661499
11	28.52463412284851	response	0	2		9.0	2.5	/experiments/knapen_aot/videos/S_yt-I2n2eo2zoZs_94.mp4	0.0	243.2986822128296	
11	28.533852100372314	movie	1		301.0	9.0	2.5	/experiments/knapen_aot/videos/S_yt-I2n2eo2zoZs_94.mp4	0.0	243.3079001903534	2.5073130130767822
11	31.041165113449097	fix_post	2		12.0	9.0	2.5	/experiments/knapen_aot/videos/S_yt-I2n2eo2zoZs_94.mp4	0.0	245.81521320343018	0.10001206398010254
12	31.1411771774292	fix_pre	0		55.0	10.0	2.5	/experiments/knapen_aot/videos/R_S_AK_A004_C012_SDR_20191217_SDR_2K_AVC.mp4	0.0	245.91522526741028	0.4582538604736328
12	31.59122395515442	response	0	2		10.0	2.5	/experiments/knapen_aot/videos/R_S_AK_A004_C012_SDR_20191217_SDR_2K_AVC.mp4	0.0	246.3652720451355	
12	31.599431037902832	movie	1		164.0	10.0	2.5	/experiments/knapen_aot/videos/R_S_AK_A004_C012_SDR_20191217_SDR_2K_AVC.mp4	0.0	246.3734791278839	2.5083930492401123
12	34.107824087142944	fix_post	2		12.0	10.0	2.5	/experiments/knapen_aot/videos/R_S_AK_A004_C012_SDR_20191217_SDR_2K_AVC.mp4	0.0	248.88187217712402	0.1000978946685791
13	34.20792198181152	fix_pre	0		30.0	11.0	2.5	/experiments/knapen_aot/videos/R_S_yt-IT741UWKVzg_34.mp4	0.0	248.9819700717926	0.24987196922302246
13	34.449597120285034	response	0	2		11.0	2.5	/experiments/knapen_aot/videos/R_S_yt-IT741UWKVzg_34.mp4	0.0	249.2236452102661	
13	34.457793951034546	movie	1		301.0	11.0	2.5	/experiments/knapen_aot/videos/R_S_yt-IT741UWKVzg_34.mp4	0.0	249.23184204101562	2.5083510875701904
13	36.966145038604736	fix_post	2		12.0	11.0	2.5	/experiments/knapen_aot/videos/R_S_yt-IT741UWKVzg_34.mp4	0.0	251.74019312858582	0.10004091262817383
14	37.06618595123291	fix_pre	0		28.0	12.0	2.5	/experiments/knapen_aot/videos/R_S_wc-0SAXOWjdNVGC_8.mp4	0.0	251.840234041214	0.23329901695251465
14	37.29128313064575	response	0	2		12.0	2.5	/experiments/knapen_aot/videos/R_S_wc-0SAXOWjdNVGC_8.mp4	0.0	252.06533122062683	
14	37.299484968185425	movie	1		163.0	12.0	2.5	/experiments/knapen_aot/videos/R_S_wc-0SAXOWjdNVGC_8.mp4	0.0	252.0735330581665	2.5082461833953857
14	39.80773115158081	fix_post	2		12.0	12.0	2.5	/experiments/knapen_aot/videos/R_S_wc-0SAXOWjdNVGC_8.mp4	0.0	254.5817792415619	0.10005688667297363
15	39.907788038253784	fix_pre	0		40.0	13.0	2.5	/experiments/knapen_aot/videos/R_S_ILSVRC2015_train_00371013.mp4	0.0	254.68183612823486	0.334273099899292
15	40.232911109924316	response	0	2		13.0	2.5	/experiments/knapen_aot/videos/R_S_ILSVRC2015_train_00371013.mp4	0.0	255.0069591999054	
15	40.242061138153076	movie	1		301.0	13.0	2.5	/experiments/knapen_aot/videos/R_S_ILSVRC2015_train_00371013.mp4	0.0	255.01610922813416	2.5074119567871094
15	42.749473094940186	fix_post	2		12.0	13.0	2.5	/experiments/knapen_aot/videos/R_S_ILSVRC2015_train_00371013.mp4	0.0	257.52352118492126	0.09997797012329102
16	42.84945106506348	fix_pre	0		28.0	14.0	2.5	blank	1.0	257.62349915504456	0.23318004608154297
16	43.0745050907135	response	0	2		14.0	2.5	blank	1.0	257.8485531806946	
16	43.08263111114502	movie	1		301.0	14.0	2.5	blank	1.0	257.8566792011261	2.5083999633789062
16	45.591031074523926	fix_post	2		12.0	14.0	2.5	blank	1.0	260.365079164505	0.10008502006530762
17	45.69111609458923	fix_pre	0		31.0	15.0	2.5	/experiments/knapen_aot/videos/R_S_yt-ayx4rU9bJrU_179.mp4	0.0	260.4651641845703	0.2591869831085205
17	45.94131517410278	response	0	2		15.0	2.5	/experiments/knapen_aot/videos/R_S_yt-ayx4rU9bJrU_179.mp4	0.0	260.71536326408386	
17	45.950303077697754	movie	1		301.0	15.0	2.5	/experiments/knapen_aot/videos/R_S_yt-ayx4rU9bJrU_179.mp4	0.0	260.72435116767883	2.5074191093444824
17	48.457722187042236	fix_post	2		12.0	15.0	2.5	/experiments/knapen_aot/videos/R_S_yt-ayx4rU9bJrU_179.mp4	0.0	263.2317702770233	0.09994888305664062
18	48.55767107009888	fix_pre	0		23.0	16.0	2.5	/experiments/knapen_aot/videos/S_yt-Xs-YKSogfak_24.mp4	0.0	263.33171916007996	0.19174408912658691
18	48.73377799987793	response	0	2		16.0	2.5	/experiments/knapen_aot/videos/S_yt-Xs-YKSogfak_24.mp4	0.0	263.507826089859	
18	48.749415159225464	movie	1		301.0	16.0	2.5	/experiments/knapen_aot/videos/S_yt-Xs-YKSogfak_24.mp4	0.0	263.52346324920654	2.5082719326019287
18	51.25768709182739	fix_post	2		12.0	16.0	2.5	/experiments/knapen_aot/videos/S_yt-Xs-YKSogfak_24.mp4	0.0	266.0317351818085	0.10001206398010254
19	51.357699155807495	fix_pre	0		21.0	17.0	2.5	/experiments/knapen_aot/videos/R_S_yt-F2x6e7e7cAE_70.mp4	0.0	266.1317472457886	0.17591500282287598
19	51.524391174316406	response	0	2		17.0	2.5	/experiments/knapen_aot/videos/R_S_yt-F2x6e7e7cAE_70.mp4	0.0	266.2984392642975	
19	51.53361415863037	movie	1		301.0	17.0	2.5	/experiments/knapen_aot/videos/R_S_yt-F2x6e7e7cAE_70.mp4	0.0	266.30766224861145	2.5158238410949707
19	54.04943799972534	fix_post	2		11.0	17.0	2.5	/experiments/knapen_aot/videos/R_S_yt-F2x6e7e7cAE_70.mp4	0.0	268.8234860897064	0.09159517288208008
20	54.14103317260742	fix_pre	0		27.0	18.0	2.5	/experiments/knapen_aot/videos/S_ILSVRC2015_train_00743002.mp4	0.0	268.9150812625885	0.22587895393371582
20	54.357805013656616	response	0	2		18.0	2.5	/experiments/knapen_aot/videos/S_ILSVRC2015_train_00743002.mp4	0.0	269.1318531036377	
20	54.36691212654114	movie	1		297.0	18.0	2.5	/experiments/knapen_aot/videos/S_ILSVRC2015_train_00743002.mp4	0.0	269.1409602165222	2.5074000358581543
20	56.87431216239929	fix_post	2		12.0	18.0	2.5	/experiments/knapen_aot/videos/S_ILSVRC2015_train_00743002.mp4	0.0	271.64836025238037	0.09999585151672363
21	56.974308013916016	fix_pre	0		35.0	19.0	2.5	blank	1.0	271.7483561038971	0.2916591167449951
21	57.2577919960022	response	0	2		19.0	2.5	blank	1.0	272.0318400859833	
21	57.26596713066101	movie	1		301.0	19.0	2.5	blank	1.0	272.0400152206421	2.5083930492401123
21	59.77436017990112	fix_post	2		12.0	19.0	2.5	blank	1.0	274.5484082698822	0.09992599487304688
22	59.87428617477417	fix_pre	0		27.0	20.0	2.5	/experiments/knapen_aot/videos/R_S_ILSVRC2015_train_00559000.mp4	0.0	274.64833426475525	0.2250509262084961
22	60.09121012687683	response	0	2		20.0	2.5	/experiments/knapen_aot/videos/R_S_ILSVRC2015_train_00559000.mp4	0.0	274.8652582168579	
22	60.099337100982666	movie	1		301.0	20.0	2.5	/experiments/knapen_aot/videos/R_S_ILSVRC2015_train_00559000.mp4	0.0	274.87338519096375	2.5083470344543457
22	62.60768413543701	fix_post	2		12.0	20.0	2.5	/experiments/knapen_aot/videos/R_S_ILSVRC2015_train_00559000.mp4	0.0	277.3817322254181	0.09996199607849121
23	62.7076461315155	fix_pre	0		33.0	21.0	2.5	/experiments/knapen_aot/videos/R_S_yt-cjndulbUtRc_51.mp4	0.0	277.4816942214966	0.27499890327453613
23	62.97444009780884	response	0	2		21.0	2.5	/experiments/knapen_aot/videos/R_S_yt-cjndulbUtRc_51.mp4	0.0	277.7484881877899	
23	62.98264503479004	movie	1		299.0	21.0	2.5	/experiments/knapen_aot/videos/R_S_yt-cjndulbUtRc_51.mp4	0.0	277.7566931247711	2.508558988571167
23	65.4912040233612	fix_post	2		12.0	21.0	2.5	/experiments/knapen_aot/videos/R_S_yt-cjndulbUtRc_51.mp4	0.0	280.2652521133423	0.09979915618896484
24	65.59100317955017	fix_pre	0		26.0	22.0	2.5	/experiments/knapen_aot/videos/S_ILSVRC2015_train_00682000.mp4	0.0	280.36505126953125	0.2165689468383789
24	65.79940605163574	response	0	2		22.0	2.5	/experiments/knapen_aot/videos/S_ILSVRC2015_train_00682000.mp4	0.0	280.5734541416168	
24	65.80757212638855	movie	1		301.0	22.0	2.5	/experiments/knapen_aot/videos/S_ILSVRC2015_train_00682000.mp4	0.0	280.58162021636963	2.5083189010620117
24	68.31589102745056	fix_post	2		12.0	22.0	2.5	/experiments/knapen_aot/videos/S_ILSVRC2015_train_00682000.mp4	0.0	283.08993911743164	0.10004806518554688
25	68.41593909263611	fix_pre	0		28.0	23.0	2.5	/experiments/knapen_aot/videos/R_S_pexels-mikhail-nilov-8410063_1.mp4	0.0	283.1899871826172	0.23334908485412598
25	68.64106106758118	response	0	2		23.0	2.5	/experiments/knapen_aot/videos/R_S_pexels-mikhail-nilov-8410063_1.mp4	0.0	283.41510915756226	
25	68.64928817749023	movie	1		165.0	23.0	2.5	/experiments/knapen_aot/videos/R_S_pexels-mikhail-nilov-8410063_1.mp4	0.0	283.4233362674713	2.508359909057617
25	71.15764808654785	fix_post	2		12.0	23.0	2.5	/experiments/knapen_aot/videos/R_S_pexels-mikhail-nilov-8410063_1.mp4	0.0	285.93169617652893	0.10000205039978027
26	71.25765013694763	fix_pre	0		24.0	24.0	2.5	/experiments/knapen_aot/videos/S_yt-ZBhTpmrAlUY_70.mp4	0.0	286.0316982269287	0.19993281364440918
26	71.44936513900757	response	0	2		24.0	2.5	/experiments/knapen_aot/videos/S_yt-ZBhTpmrAlUY_70.mp4	0.0	286.22341322898865	
26	71.45758295059204	movie	1		301.0	24.0	2.5	/experiments/knapen_aot/videos/S_yt-ZBhTpmrAlUY_70.mp4	0.0	286.2316310405731	2.508303165435791
26	73.96588611602783	fix_post	2		12.0	24.0	2.5	/experiments/knapen_aot/videos/S_yt-ZBhTpmrAlUY_70.mp4	0.0	288.7399342060089	0.10001301765441895
27	74.06589913368225	fix_pre	0		18.0	25.0	2.5	/experiments/knapen_aot/videos/R_S_ILnEDG_aP1A_35.mp4	0.0	288.83994722366333	0.14997601509094238
27	74.20772814750671	response	0	2		25.0	2.5	/experiments/knapen_aot/videos/R_S_ILnEDG_aP1A_35.mp4	0.0	288.9817762374878	
27	74.2158751487732	movie	1		301.0	25.0	2.5	/experiments/knapen_aot/videos/R_S_ILnEDG_aP1A_35.mp4	0.0	288.9899232387543	2.508354902267456
27	76.72423005104065	fix_post	2		12.0	25.0	2.5	/experiments/knapen_aot/videos/R_S_ILnEDG_aP1A_35.mp4	0.0	291.49827814102173	0.10001897811889648
28	76.82424902915955	fix_pre	0		29.0	26.0	2.5	blank	1.0	291.5982971191406	0.24165701866149902
28	77.05774116516113	response	0	2		26.0	2.5	blank	1.0	291.8317892551422	
28	77.06590604782104	movie	1		301.0	26.0	2.5	blank	1.0	291.8399541378021	2.50832200050354
28	79.57422804832458	fix_post	2		12.0	26.0	2.5	blank	1.0	294.34827613830566	0.09997105598449707
29	79.67419910430908	fix_pre	0		57.0	27.0	2.5	/experiments/knapen_aot/videos/S_ILSVRC2015_train_00565000.mp4	0.0	294.44824719429016	0.4750039577484131
29	80.1410219669342	response	0	2		27.0	2.5	/experiments/knapen_aot/videos/S_ILSVRC2015_train_00565000.mp4	0.0	294.9150700569153	
29	80.1492030620575	movie	1		301.0	27.0	2.5	/experiments/knapen_aot/videos/S_ILSVRC2015_train_00565000.mp4	0.0	294.9232511520386	2.5083439350128174
29	82.65754699707031	fix_post	2		12.0	27.0	2.5	/experiments/knapen_aot/videos/S_ILSVRC2015_train_00565000.mp4	0.0	297.4315950870514	0.09995508193969727
30	82.75750207901001	fix_pre	0		30.0	28.0	2.5	/experiments/knapen_aot/videos/R_S_ILSVRC2015_train_00479003.mp4	0.0	297.5315501689911	0.2500340938568115
30	82.99929809570312	response	0	2		28.0	2.5	/experiments/knapen_aot/videos/R_S_ILSVRC2015_train_00479003.mp4	0.0	297.7733461856842	
30	83.00753617286682	movie	1		300.0	28.0	2.5	/experiments/knapen_aot/videos/R_S_ILSVRC2015_train_00479003.mp4	0.0	297.7815842628479	2.5083229541778564
30	85.51585912704468	fix_post	2		12.0	28.0	2.5	/experiments/knapen_aot/videos/R_S_ILSVRC2015_train_00479003.mp4	0.0	300.28990721702576	0.10082292556762695
31	85.6166820526123	fix_pre	0		34.0	29.0	2.5	/experiments/knapen_aot/videos/R_S_bing-www_yahoo_com_entertainment_anastasia-karanikolaou-chantel-jeffries-discuss-182400502_html_9.mp4	0.0	300.3907301425934	0.28247690200805664
31	85.89100909233093	response	0	2		29.0	2.5	/experiments/knapen_aot/videos/R_S_bing-www_yahoo_com_entertainment_anastasia-karanikolaou-chantel-jeffries-discuss-182400502_html_9.mp4	0.0	300.665057182312	
31	85.89915895462036	movie	1		164.0	29.0	2.5	/experiments/knapen_aot/videos/R_S_bing-www_yahoo_com_entertainment_anastasia-karanikolaou-chantel-jeffries-discuss-182400502_html_9.mp4	0.0	300.67320704460144	2.5083281993865967
31	88.40748715400696	fix_post	2		12.0	29.0	2.5	/experiments/knapen_aot/videos/R_S_bing-www_yahoo_com_entertainment_anastasia-karanikolaou-chantel-jeffries-discuss-182400502_html_9.mp4	0.0	303.18153524398804	0.1000058650970459
32	88.507493019104	fix_pre	0		27.0	30.0	2.5	/experiments/knapen_aot/videos/S_yt-fymgyhmYnMI_76.mp4	0.0	303.2815411090851	0.2250051498413086
32	88.72430610656738	response	0	2		30.0	2.5	/experiments/knapen_aot/videos/S_yt-fymgyhmYnMI_76.mp4	0.0	303.49835419654846	
32	88.73249816894531	movie	1		301.0	30.0	2.5	/experiments/knapen_aot/videos/S_yt-fymgyhmYnMI_76.mp4	0.0	303.5065462589264	2.5083680152893066
32	91.24086618423462	fix_post	2		12.0	30.0	2.5	/experiments/knapen_aot/videos/S_yt-fymgyhmYnMI_76.mp4	0.0	306.0149142742157	0.09993386268615723
33	91.34080004692078	fix_pre	0		28.0	31.0	2.5	/experiments/knapen_aot/videos/R_S_bing-www_msn_com_en-us_video_news_tommy-lasorda-salutes-national-league-champs_vp-AAtLThQ_4.mp4	0.0	306.11484813690186	0.23407912254333496
33	91.56599116325378	response	0	2		31.0	2.5	/experiments/knapen_aot/videos/R_S_bing-www_msn_com_en-us_video_news_tommy-lasorda-salutes-national-league-champs_vp-AAtLThQ_4.mp4	0.0	306.34003925323486	
33	91.57487916946411	movie	1		164.0	31.0	2.5	/experiments/knapen_aot/videos/R_S_bing-www_msn_com_en-us_video_news_tommy-lasorda-salutes-national-league-champs_vp-AAtLThQ_4.mp4	0.0	306.3489272594452	2.507633924484253
33	94.08251309394836	fix_post	2		12.0	31.0	2.5	/experiments/knapen_aot/videos/R_S_bing-www_msn_com_en-us_video_news_tommy-lasorda-salutes-national-league-champs_vp-AAtLThQ_4.mp4	0.0	308.85656118392944	0.09994792938232422
34	94.18246102333069	fix_pre	0		21.0	32.0	2.5	/experiments/knapen_aot/videos/S_yt-GyMWMiWvuiA_237.mp4	0.0	308.95650911331177	0.17505192756652832
34	94.34918999671936	response	0	2		32.0	2.5	/experiments/knapen_aot/videos/S_yt-GyMWMiWvuiA_237.mp4	0.0	309.12323808670044	
34	94.35751295089722	movie	1		301.0	32.0	2.5	/experiments/knapen_aot/videos/S_yt-GyMWMiWvuiA_237.mp4	0.0	309.1315610408783	2.5083370208740234
34	96.86584997177124	fix_post	2		12.0	32.0	2.5	/experiments/knapen_aot/videos/S_yt-GyMWMiWvuiA_237.mp4	0.0	311.6398980617523	0.09990310668945312
35	96.9657530784607	fix_pre	0		24.0	33.0	2.5	/experiments/knapen_aot/videos/S_ILSVRC2015_train_00574000.mp4	0.0	311.7398011684418	0.20002293586730957
35	97.1575870513916	response	0	2		33.0	2.5	/experiments/knapen_aot/videos/S_ILSVRC2015_train_00574000.mp4	0.0	311.9316351413727	
35	97.165776014328	movie	1		301.0	33.0	2.5	/experiments/knapen_aot/videos/S_ILSVRC2015_train_00574000.mp4	0.0	311.9398241043091	2.508376121520996
35	99.674152135849	fix_post	2		12.0	33.0	2.5	/experiments/knapen_aot/videos/S_ILSVRC2015_train_00574000.mp4	0.0	314.4482002258301	0.10001492500305176
36	99.77416706085205	fix_pre	0		14.0	34.0	2.5	blank	1.0	314.54821515083313	0.1166679859161377
36	99.8825900554657	response	0	2		34.0	2.5	blank	1.0	314.6566381454468	
36	99.89083504676819	movie	1		301.0	34.0	2.5	blank	1.0	314.66488313674927	2.508352041244507
36	102.3991870880127	fix_post	2		12.0	34.0	2.5	blank	1.0	317.1732351779938	0.09991788864135742
37	102.49910497665405	fix_pre	0		25.0	35.0	2.5	/experiments/knapen_aot/videos/R_S_yt-Fm97IY0Z2LU_79.mp4	0.0	317.27315306663513	0.20837616920471191
37	102.69930601119995	response	0	2		35.0	2.5	/experiments/knapen_aot/videos/R_S_yt-Fm97IY0Z2LU_79.mp4	0.0	317.47335410118103	
37	102.70748114585876	movie	1		301.0	35.0	2.5	/experiments/knapen_aot/videos/R_S_yt-Fm97IY0Z2LU_79.mp4	0.0	317.48152923583984	2.5083470344543457
37	105.21582818031311	fix_post	2		12.0	35.0	2.5	/experiments/knapen_aot/videos/R_S_yt-Fm97IY0Z2LU_79.mp4	0.0	319.9898762702942	0.0999608039855957
38	105.3157889842987	fix_pre	0		18.0	36.0	2.5	/experiments/knapen_aot/videos/R_S_comp_A012_C014_1223PT_v53_SDR_PS_FINAL_20180709_F0F8700_SDR_2K_AVC.mp4	0.0	320.0898370742798	0.14990711212158203
38	105.4575891494751	response	0	2		36.0	2.5	/experiments/knapen_aot/videos/R_S_comp_A012_C014_1223PT_v53_SDR_PS_FINAL_20180709_F0F8700_SDR_2K_AVC.mp4	0.0	320.2316372394562	
38	105.46569609642029	movie	1		167.0	36.0	2.5	/experiments/knapen_aot/videos/R_S_comp_A012_C014_1223PT_v53_SDR_PS_FINAL_20180709_F0F8700_SDR_2K_AVC.mp4	0.0	320.23974418640137	2.508363962173462
38	107.97406005859375	fix_post	2		12.0	36.0	2.5	/experiments/knapen_aot/videos/R_S_comp_A012_C014_1223PT_v53_SDR_PS_FINAL_20180709_F0F8700_SDR_2K_AVC.mp4	0.0	322.74810814857483	0.10003209114074707
39	108.0740921497345	fix_pre	0		27.0	37.0	2.5	/experiments/knapen_aot/videos/S_ILSVRC2015_train_00324001.mp4	0.0	322.8481402397156	0.22507882118225098
39	108.29094314575195	response	0	2		37.0	2.5	/experiments/knapen_aot/videos/S_ILSVRC2015_train_00324001.mp4	0.0	323.06499123573303	
39	108.29917097091675	movie	1		301.0	37.0	2.5	/experiments/knapen_aot/videos/S_ILSVRC2015_train_00324001.mp4	0.0	323.0732190608978	2.508213996887207
39	110.80738496780396	fix_post	2		12.0	37.0	2.5	/experiments/knapen_aot/videos/S_ILSVRC2015_train_00324001.mp4	0.0	325.58143305778503	0.09995698928833008
40	110.90734195709229	fix_pre	0		23.0	38.0	2.5	/experiments/knapen_aot/videos/R_S_yt-hRAqAwRhmwE_58.mp4	0.0	325.68139004707336	0.19170618057250977
40	111.09091114997864	response	0	2		38.0	2.5	/experiments/knapen_aot/videos/R_S_yt-hRAqAwRhmwE_58.mp4	0.0	325.8649592399597	
40	111.0990481376648	movie	1		301.0	38.0	2.5	/experiments/knapen_aot/videos/R_S_yt-hRAqAwRhmwE_58.mp4	0.0	325.8730962276459	2.5083558559417725
40	113.60740399360657	fix_post	2		12.0	38.0	2.5	/experiments/knapen_aot/videos/R_S_yt-hRAqAwRhmwE_58.mp4	0.0	328.38145208358765	0.10000300407409668
41	113.70740699768066	fix_pre	0		24.0	39.0	2.5	/experiments/knapen_aot/videos/S_yt-zpoIiHGRm5k_296.mp4	0.0	328.48145508766174	0.20061302185058594
41	113.89918994903564	response	0	2		39.0	2.5	/experiments/knapen_aot/videos/S_yt-zpoIiHGRm5k_296.mp4	0.0	328.6732380390167	
41	113.90802001953125	movie	1		301.0	39.0	2.5	/experiments/knapen_aot/videos/S_yt-zpoIiHGRm5k_296.mp4	0.0	328.68206810951233	2.507750988006592
41	116.41577100753784	fix_post	2		12.0	39.0	2.5	/experiments/knapen_aot/videos/S_yt-zpoIiHGRm5k_296.mp4	0.0	331.1898190975189	0.10001301765441895
42	116.51578402519226	fix_pre	0		32.0	40.0	2.5	/experiments/knapen_aot/videos/R_S_yt-pbFpqAQJCJo_149.mp4	0.0	331.28983211517334	0.26724815368652344
42	116.7742121219635	response	0	2		40.0	2.5	/experiments/knapen_aot/videos/R_S_yt-pbFpqAQJCJo_149.mp4	0.0	331.5482602119446	
42	116.78303217887878	movie	1		301.0	40.0	2.5	/experiments/knapen_aot/videos/R_S_yt-pbFpqAQJCJo_149.mp4	0.0	331.55708026885986	2.5076959133148193
42	119.2907280921936	fix_post	2		12.0	40.0	2.5	/experiments/knapen_aot/videos/R_S_yt-pbFpqAQJCJo_149.mp4	0.0	334.0647761821747	0.10001993179321289
43	119.39074802398682	fix_pre	0		33.0	41.0	2.5	/experiments/knapen_aot/videos/S_ILSVRC2015_train_00479004.mp4	0.0	334.1647961139679	0.2749481201171875
43	119.65757918357849	response	0	2		41.0	2.5	/experiments/knapen_aot/videos/S_ILSVRC2015_train_00479004.mp4	0.0	334.43162727355957	
43	119.665696144104	movie	1		301.0	41.0	2.5	/experiments/knapen_aot/videos/S_ILSVRC2015_train_00479004.mp4	0.0	334.4397442340851	2.508352041244507
43	122.17404818534851	fix_post	2		12.0	41.0	2.5	/experiments/knapen_aot/videos/S_ILSVRC2015_train_00479004.mp4	0.0	336.9480962753296	0.09997296333312988
44	122.27402114868164	fix_pre	0		60.0	42.0	2.5	blank	1.0	337.0480692386627	0.4999659061431885
44	122.76587104797363	response	0	2		42.0	2.5	blank	1.0	337.5399191379547	
44	122.77398705482483	movie	1		301.0	42.0	2.5	blank	1.0	337.5480351448059	2.5083320140838623
44	125.28231906890869	fix_post	2		12.0	42.0	2.5	blank	1.0	340.05636715888977	0.0999898910522461
45	125.38230895996094	fix_pre	0		36.0	43.0	2.5	/experiments/knapen_aot/videos/R_S_ILSVRC2015_train_00682009.mp4	0.0	340.156357049942	0.30002808570861816
45	125.67414903640747	response	0	2		43.0	2.5	/experiments/knapen_aot/videos/R_S_ILSVRC2015_train_00682009.mp4	0.0	340.44819712638855	
45	125.68233704566956	movie	1		298.0	43.0	2.5	/experiments/knapen_aot/videos/R_S_ILSVRC2015_train_00682009.mp4	0.0	340.45638513565063	2.508371114730835
45	128.1907081604004	fix_post	2		12.0	43.0	2.5	/experiments/knapen_aot/videos/R_S_ILSVRC2015_train_00682009.mp4	0.0	342.96475625038147	0.0999898910522461
46	128.29069805145264	fix_pre	0		40.0	44.0	2.5	/experiments/knapen_aot/videos/R_S_pexels-mart-production-7698693.mp4	0.0	343.0647461414337	0.3333001136779785
46	128.61576509475708	response	0	2		44.0	2.5	/experiments/knapen_aot/videos/R_S_pexels-mart-production-7698693.mp4	0.0	343.38981318473816	
46	128.62399816513062	movie	1		207.0	44.0	2.5	/experiments/knapen_aot/videos/R_S_pexels-mart-production-7698693.mp4	0.0	343.3980462551117	2.5084149837493896
46	131.13241314888	fix_post	2		12.0	44.0	2.5	/experiments/knapen_aot/videos/R_S_pexels-mart-production-7698693.mp4	0.0	345.9064612388611	0.09999489784240723
47	131.2324080467224	fix_pre	0		27.0	45.0	2.5	/experiments/knapen_aot/videos/R_S_yt-mWlx1SIXl5M_850.mp4	0.0	346.0064561367035	0.2249000072479248
47	131.4491469860077	response	0	2		45.0	2.5	/experiments/knapen_aot/videos/R_S_yt-mWlx1SIXl5M_850.mp4	0.0	346.22319507598877	
47	131.45730805397034	movie	1		301.0	45.0	2.5	/experiments/knapen_aot/videos/R_S_yt-mWlx1SIXl5M_850.mp4	0.0	346.2313561439514	2.5083210468292236
47	133.96562910079956	fix_post	2		12.0	45.0	2.5	/experiments/knapen_aot/videos/R_S_yt-mWlx1SIXl5M_850.mp4	0.0	348.73967719078064	0.10005307197570801
48	134.06568217277527	fix_pre	0		32.0	46.0	2.5	/experiments/knapen_aot/videos/S_yt-utYnOeoj2Rw_3.mp4	0.0	348.83973026275635	0.2665979862213135
48	134.31660413742065	response	0	2		46.0	2.5	/experiments/knapen_aot/videos/S_yt-utYnOeoj2Rw_3.mp4	0.0	349.09065222740173	
48	134.33228015899658	movie	1		301.0	46.0	2.5	/experiments/knapen_aot/videos/S_yt-utYnOeoj2Rw_3.mp4	0.0	349.10632824897766	2.508354902267456
48	136.84063506126404	fix_post	2		12.0	46.0	2.5	/experiments/knapen_aot/videos/S_yt-utYnOeoj2Rw_3.mp4	0.0	351.6146831512451	0.10000491142272949
49	136.94063997268677	fix_pre	0		29.0	47.0	2.5	blank	1.0	351.71468806266785	0.24163508415222168
49	137.1741111278534	response	0	2		47.0	2.5	blank	1.0	351.9481592178345	
49	137.182275056839	movie	1		301.0	47.0	2.5	blank	1.0	351.95632314682007	2.50838303565979
49	139.69065809249878	fix_post	2		12.0	47.0	2.5	blank	1.0	354.46470618247986	0.09991598129272461
50	139.7905740737915	fix_pre	0		32.0	48.0	2.5	/experiments/knapen_aot/videos/S_yt-y2RUPYKfBZs_12.mp4	0.0	354.5646221637726	0.2666809558868408
50	140.0490870475769	response	0	2		48.0	2.5	/experiments/knapen_aot/videos/S_yt-y2RUPYKfBZs_12.mp4	0.0	354.823135137558	
50	140.05725502967834	movie	1		301.0	48.0	2.5	/experiments/knapen_aot/videos/S_yt-y2RUPYKfBZs_12.mp4	0.0	354.8313031196594	2.5083811283111572
50	142.5656361579895	fix_post	2		12.0	48.0	2.5	/experiments/knapen_aot/videos/S_yt-y2RUPYKfBZs_12.mp4	0.0	357.3396842479706	0.09996795654296875
51	142.66560411453247	fix_pre	0		35.0	49.0	2.5	/experiments/knapen_aot/videos/S_comp_LA_A009_C009_PSNK_v02_SDR_PS_FINAL_20180709_SDR_2K_AVC.mp4	0.0	357.43965220451355	0.2916550636291504
51	142.94908809661865	response	0	2		49.0	2.5	/experiments/knapen_aot/videos/S_comp_LA_A009_C009_PSNK_v02_SDR_PS_FINAL_20180709_SDR_2K_AVC.mp4	0.0	357.72313618659973	
51	142.95725917816162	movie	1		162.0	49.0	2.5	/experiments/knapen_aot/videos/S_comp_LA_A009_C009_PSNK_v02_SDR_PS_FINAL_20180709_SDR_2K_AVC.mp4	0.0	357.7313072681427	2.5083069801330566
51	145.46556615829468	fix_post	2		12.0	49.0	2.5	/experiments/knapen_aot/videos/S_comp_LA_A009_C009_PSNK_v02_SDR_PS_FINAL_20180709_SDR_2K_AVC.mp4	0.0	360.23961424827576	0.10002589225769043
52	145.56559205055237	fix_pre	0		24.0	50.0	2.5	/experiments/knapen_aot/videos/R_S_wc-lItGMdwvEd_l_7.mp4	0.0	360.33964014053345	0.19995713233947754
52	145.74976110458374	response	0	2		50.0	2.5	/experiments/knapen_aot/videos/R_S_wc-lItGMdwvEd_l_7.mp4	0.0	360.5238091945648	
52	145.76554918289185	movie	1		165.0	50.0	2.5	/experiments/knapen_aot/videos/R_S_wc-lItGMdwvEd_l_7.mp4	0.0	360.5395972728729	2.5084259510040283
52	148.27397513389587	fix_post	2		12.0	50.0	2.5	/experiments/knapen_aot/videos/R_S_wc-lItGMdwvEd_l_7.mp4	0.0	363.04802322387695	0.09995198249816895
53	148.37392711639404	fix_pre	0		28.0	51.0	2.5	/experiments/knapen_aot/videos/S_yt-ujTY1igjc3E_2.mp4	0.0	363.1479752063751	0.23331499099731445
53	148.5990641117096	response	0	2		51.0	2.5	/experiments/knapen_aot/videos/S_yt-ujTY1igjc3E_2.mp4	0.0	363.3731122016907	
53	148.60724210739136	movie	1		301.0	51.0	2.5	/experiments/knapen_aot/videos/S_yt-ujTY1igjc3E_2.mp4	0.0	363.38129019737244	2.5083019733428955
53	151.11554408073425	fix_post	2		12.0	51.0	2.5	/experiments/knapen_aot/videos/S_yt-ujTY1igjc3E_2.mp4	0.0	365.88959217071533	0.100006103515625
54	151.21555018424988	fix_pre	0		29.0	52.0	2.5	/experiments/knapen_aot/videos/S_ILSVRC2015_train_00479003.mp4	0.0	365.98959827423096	0.24170398712158203
54	151.44906497001648	response	0	2		52.0	2.5	/experiments/knapen_aot/videos/S_ILSVRC2015_train_00479003.mp4	0.0	366.22311305999756	
54	151.45725417137146	movie	1		301.0	52.0	2.5	/experiments/knapen_aot/videos/S_ILSVRC2015_train_00479003.mp4	0.0	366.23130226135254	2.5083398818969727
54	153.96559405326843	fix_post	2		12.0	52.0	2.5	/experiments/knapen_aot/videos/S_ILSVRC2015_train_00479003.mp4	0.0	368.7396421432495	0.09990811347961426
55	154.06550216674805	fix_pre	0		26.0	53.0	2.5	/experiments/knapen_aot/videos/S_comp_A351_C001_v06_SDR_PS_20180725_SDR_2K_AVC.mp4	0.0	368.8395502567291	0.21706891059875488
55	154.27401208877563	response	0	2		53.0	2.5	/experiments/knapen_aot/videos/S_comp_A351_C001_v06_SDR_PS_20180725_SDR_2K_AVC.mp4	0.0	369.0480601787567	
55	154.2825710773468	movie	1		165.0	53.0	2.5	/experiments/knapen_aot/videos/S_comp_A351_C001_v06_SDR_PS_20180725_SDR_2K_AVC.mp4	0.0	369.0566191673279	2.507948875427246
55	156.79051995277405	fix_post	2		12.0	53.0	2.5	/experiments/knapen_aot/videos/S_comp_A351_C001_v06_SDR_PS_20180725_SDR_2K_AVC.mp4	0.0	371.5645680427551	0.09997916221618652
56	156.89049911499023	fix_pre	0		32.0	54.0	2.5	/experiments/knapen_aot/videos/S_comp_C003_C003_PS_v01_SDR_PS_20180925_SDR_2K_AVC.mp4	0.0	371.6645472049713	0.26708197593688965
56	157.14905095100403	response	0	2		54.0	2.5	/experiments/knapen_aot/videos/S_comp_C003_C003_PS_v01_SDR_PS_20180925_SDR_2K_AVC.mp4	0.0	371.9230990409851	
56	157.15758109092712	movie	1		166.0	54.0	2.5	/experiments/knapen_aot/videos/S_comp_C003_C003_PS_v01_SDR_PS_20180925_SDR_2K_AVC.mp4	0.0	371.9316291809082	2.507920980453491
56	159.66550207138062	fix_post	2		12.0	54.0	2.5	/experiments/knapen_aot/videos/S_comp_C003_C003_PS_v01_SDR_PS_20180925_SDR_2K_AVC.mp4	0.0	374.4395501613617	0.10003304481506348
57	159.76553511619568	fix_pre	0		19.0	55.0	2.5	/experiments/knapen_aot/videos/R_S_yt-ujTY1igjc3E_2.mp4	0.0	374.53958320617676	0.15833187103271484
57	159.91573405265808	response	0	2		55.0	2.5	/experiments/knapen_aot/videos/R_S_yt-ujTY1igjc3E_2.mp4	0.0	374.68978214263916	
57	159.9238669872284	movie	1		301.0	55.0	2.5	/experiments/knapen_aot/videos/R_S_yt-ujTY1igjc3E_2.mp4	0.0	374.6979150772095	2.5083250999450684
57	162.43219208717346	fix_post	2		12.0	55.0	2.5	/experiments/knapen_aot/videos/R_S_yt-ujTY1igjc3E_2.mp4	0.0	377.20624017715454	0.10002589225769043
58	162.53221797943115	fix_pre	0		20.0	56.0	2.5	blank	1.0	377.30626606941223	0.16701412200927734
58	162.69061398506165	response	0	2		56.0	2.5	blank	1.0	377.4646620750427	
58	162.69923210144043	movie	1		301.0	56.0	2.5	blank	1.0	377.4732801914215	2.507978916168213
58	165.20721101760864	fix_post	2		12.0	56.0	2.5	blank	1.0	379.9812591075897	0.09995412826538086
59	165.30716514587402	fix_pre	0		38.0	57.0	2.5	/experiments/knapen_aot/videos/S_yt-i1h9ZiYZ86U_28.mp4	0.0	380.0812132358551	0.31673288345336914
59	165.61567616462708	response	0	2		57.0	2.5	/experiments/knapen_aot/videos/S_yt-i1h9ZiYZ86U_28.mp4	0.0	380.38972425460815	
59	165.6238980293274	movie	1		301.0	57.0	2.5	/experiments/knapen_aot/videos/S_yt-i1h9ZiYZ86U_28.mp4	0.0	380.3979461193085	2.5082621574401855
59	168.13216018676758	fix_post	2		12.0	57.0	2.5	/experiments/knapen_aot/videos/S_yt-i1h9ZiYZ86U_28.mp4	0.0	382.90620827674866	0.10002279281616211
60	168.23218297958374	fix_pre	0		24.0	58.0	2.5	/experiments/knapen_aot/videos/R_S_pexels-cottonbro-10640532.mp4	0.0	383.0062310695648	0.19999408721923828
60	168.42393898963928	response	0	2		58.0	2.5	/experiments/knapen_aot/videos/R_S_pexels-cottonbro-10640532.mp4	0.0	383.19798707962036	
60	168.43217706680298	movie	1		207.0	58.0	2.5	/experiments/knapen_aot/videos/R_S_pexels-cottonbro-10640532.mp4	0.0	383.20622515678406	2.5083799362182617
60	170.94055700302124	fix_post	2		12.0	58.0	2.5	/experiments/knapen_aot/videos/R_S_pexels-cottonbro-10640532.mp4	0.0	385.7146050930023	0.09999203681945801
61	171.0405490398407	fix_pre	0		35.0	59.0	2.5	/experiments/knapen_aot/videos/R_S_yt-8y7Xhp2_2e0_168.mp4	0.0	385.8145971298218	0.2915680408477783
61	171.32398009300232	response	0	2		59.0	2.5	/experiments/knapen_aot/videos/R_S_yt-8y7Xhp2_2e0_168.mp4	0.0	386.0980281829834	
61	171.33211708068848	movie	1		301.0	59.0	2.5	/experiments/knapen_aot/videos/R_S_yt-8y7Xhp2_2e0_168.mp4	0.0	386.10616517066956	2.5083789825439453
61	173.84049606323242	fix_post	2		12.0	59.0	2.5	/experiments/knapen_aot/videos/R_S_yt-8y7Xhp2_2e0_168.mp4	0.0	388.6145441532135	0.09998106956481934
62	173.94047713279724	fix_pre	0		27.0	60.0	2.5	/experiments/knapen_aot/videos/R_S_yt-7Ya-rGPO8cM_159.mp4	0.0	388.7145252227783	0.2249448299407959
62	174.157329082489	response	0	2		60.0	2.5	/experiments/knapen_aot/videos/R_S_yt-7Ya-rGPO8cM_159.mp4	0.0	388.9313771724701	
62	174.16542196273804	movie	1		301.0	60.0	2.5	/experiments/knapen_aot/videos/R_S_yt-7Ya-rGPO8cM_159.mp4	0.0	388.9394700527191	2.508355140686035
62	176.67377710342407	fix_post	2		12.0	60.0	2.5	/experiments/knapen_aot/videos/R_S_yt-7Ya-rGPO8cM_159.mp4	0.0	391.44782519340515	0.10002589225769043
63	176.77380299568176	fix_pre	0		33.0	61.0	2.5	/experiments/knapen_aot/videos/S_yt-XtzmBXKYEWk_60.mp4	0.0	391.54785108566284	0.2749819755554199
63	177.0405399799347	response	0	2		61.0	2.5	/experiments/knapen_aot/videos/S_yt-XtzmBXKYEWk_60.mp4	0.0	391.81458806991577	
63	177.04878497123718	movie	1		300.0	61.0	2.5	/experiments/knapen_aot/videos/S_yt-XtzmBXKYEWk_60.mp4	0.0	391.82283306121826	2.5083701610565186
63	179.5571551322937	fix_post	2		12.0	61.0	2.5	/experiments/knapen_aot/videos/S_yt-XtzmBXKYEWk_60.mp4	0.0	394.3312032222748	0.10020685195922852
64	179.65736198425293	fix_pre	0		31.0	62.0	2.5	/experiments/knapen_aot/videos/R_S_yt-YykKZWKmLnQ_386.mp4	0.0	394.431410074234	0.2580900192260742
64	179.9074351787567	response	0	2		62.0	2.5	/experiments/knapen_aot/videos/R_S_yt-YykKZWKmLnQ_386.mp4	0.0	394.6814832687378	
64	179.915452003479	movie	1		301.0	62.0	2.5	/experiments/knapen_aot/videos/R_S_yt-YykKZWKmLnQ_386.mp4	0.0	394.6895000934601	2.5082809925079346
64	182.42373299598694	fix_post	2		12.0	62.0	2.5	/experiments/knapen_aot/videos/R_S_yt-YykKZWKmLnQ_386.mp4	0.0	397.197781085968	0.10002803802490234
65	182.52376103401184	fix_pre	0		32.0	63.0	2.5	blank	1.0	397.2978091239929	0.26658105850219727
65	182.78230214118958	response	0	2		63.0	2.5	blank	1.0	397.55635023117065	
65	182.79034209251404	movie	1		301.0	63.0	2.5	blank	1.0	397.5643901824951	2.5084168910980225
65	185.29875898361206	fix_post	2		12.0	63.0	2.5	blank	1.0	400.07280707359314	0.10000419616699219
66	185.39876317977905	fix_pre	0		30.0	64.0	2.5	/experiments/knapen_aot/videos/S_yt-hQ5pge893b4_6.mp4	0.0	400.17281126976013	0.24997377395629883
66	185.64051604270935	response	0	2		64.0	2.5	/experiments/knapen_aot/videos/S_yt-hQ5pge893b4_6.mp4	0.0	400.41456413269043	
66	185.64873695373535	movie	1		301.0	64.0	2.5	/experiments/knapen_aot/videos/S_yt-hQ5pge893b4_6.mp4	0.0	400.42278504371643	2.508331060409546
66	188.1570680141449	fix_post	2		12.0	64.0	2.5	/experiments/knapen_aot/videos/S_yt-hQ5pge893b4_6.mp4	0.0	402.931116104126	0.09999895095825195
67	188.25706696510315	fix_pre	0		30.0	65.0	2.5	/experiments/knapen_aot/videos/S_yt-25xuzTBhwPk_109.mp4	0.0	403.03111505508423	0.2500300407409668
67	188.4913010597229	response	0	2		65.0	2.5	/experiments/knapen_aot/videos/S_yt-25xuzTBhwPk_109.mp4	0.0	403.265349149704	
67	188.50709700584412	movie	1		300.0	65.0	2.5	/experiments/knapen_aot/videos/S_yt-25xuzTBhwPk_109.mp4	0.0	403.2811450958252	2.5082690715789795
67	191.0153660774231	fix_post	2		12.0	65.0	2.5	/experiments/knapen_aot/videos/S_yt-25xuzTBhwPk_109.mp4	0.0	405.7894141674042	0.10022807121276855
68	191.11559414863586	fix_pre	0		21.0	66.0	2.5	/experiments/knapen_aot/videos/R_S_yt-KV8X9IBWuJk_48.mp4	0.0	405.88964223861694	0.17479181289672852
68	191.2745771408081	response	0	2		66.0	2.5	/experiments/knapen_aot/videos/R_S_yt-KV8X9IBWuJk_48.mp4	0.0	406.0486252307892	
68	191.2903859615326	movie	1		300.0	66.0	2.5	/experiments/knapen_aot/videos/R_S_yt-KV8X9IBWuJk_48.mp4	0.0	406.0644340515137	2.508362054824829
68	193.79874801635742	fix_post	2		12.0	66.0	2.5	/experiments/knapen_aot/videos/R_S_yt-KV8X9IBWuJk_48.mp4	0.0	408.5727961063385	0.10003209114074707
69	193.89878010749817	fix_pre	0		22.0	67.0	2.5	/experiments/knapen_aot/videos/R_S_yt-jy96-k8drRE_1.mp4	0.0	408.67282819747925	0.18326187133789062
69	194.07379508018494	response	0	2		67.0	2.5	/experiments/knapen_aot/videos/R_S_yt-jy96-k8drRE_1.mp4	0.0	408.847843170166	
69	194.08204197883606	movie	1		301.0	67.0	2.5	/experiments/knapen_aot/videos/R_S_yt-jy96-k8drRE_1.mp4	0.0	408.85609006881714	2.5084099769592285
69	196.5904519557953	fix_post	2		12.0	67.0	2.5	/experiments/knapen_aot/videos/R_S_yt-jy96-k8drRE_1.mp4	0.0	411.36450004577637	0.10007715225219727
70	196.69052910804749	fix_pre	0		32.0	68.0	2.5	/experiments/knapen_aot/videos/R_S_bing-www_yahoo_com_entertainment_anastasia-karanikolaou-chantel-jeffries-discuss-182400502_html_9.mp4	0.0	411.46457719802856	0.26653599739074707
70	196.94889307022095	response	0	2		68.0	2.5	/experiments/knapen_aot/videos/R_S_bing-www_yahoo_com_entertainment_anastasia-karanikolaou-chantel-jeffries-discuss-182400502_html_9.mp4	0.0	411.722941160202	
70	196.95706510543823	movie	1		164.0	68.0	2.5	/experiments/knapen_aot/videos/R_S_bing-www_yahoo_com_entertainment_anastasia-karanikolaou-chantel-jeffries-discuss-182400502_html_9.mp4	0.0	411.7311131954193	2.508352041244507
70	199.46541714668274	fix_post	2		12.0	68.0	2.5	/experiments/knapen_aot/videos/R_S_bing-www_yahoo_com_entertainment_anastasia-karanikolaou-chantel-jeffries-discuss-182400502_html_9.mp4	0.0	414.2394652366638	0.10001993179321289
71	199.56543707847595	fix_pre	0		14.0	69.0	2.5	/experiments/knapen_aot/videos/R_S_ILSVRC2015_train_00415005.mp4	0.0	414.33948516845703	0.11665201187133789
71	199.67389106750488	response	0	2		69.0	2.5	/experiments/knapen_aot/videos/R_S_ILSVRC2015_train_00415005.mp4	0.0	414.44793915748596	
71	199.6820890903473	movie	1		301.0	69.0	2.5	/experiments/knapen_aot/videos/R_S_ILSVRC2015_train_00415005.mp4	0.0	414.45613718032837	2.508310079574585
71	202.19039916992188	fix_post	2		12.0	69.0	2.5	/experiments/knapen_aot/videos/R_S_ILSVRC2015_train_00415005.mp4	0.0	416.96444725990295	0.10000085830688477
72	202.29040002822876	fix_pre	0		11.0	70.0	2.5	blank	1.0	417.06444811820984	0.09167695045471191
72	202.3739550113678	response	0	2		70.0	2.5	blank	1.0	417.1480031013489	
72	202.38207697868347	movie	1		301.0	70.0	2.5	blank	1.0	417.15612506866455	2.508319139480591
72	204.89039611816406	fix_post	2		12.0	70.0	2.5	blank	1.0	419.66444420814514	0.10013198852539062
73	204.99052810668945	fix_pre	0		30.0	71.0	2.5	/experiments/knapen_aot/videos/R_S_yt-_68FWLGgPYE_25.mp4	0.0	419.76457619667053	0.2499558925628662
73	205.2322061061859	response	0	2		71.0	2.5	/experiments/knapen_aot/videos/R_S_yt-_68FWLGgPYE_25.mp4	0.0	420.006254196167	
73	205.24048399925232	movie	1		301.0	71.0	2.5	/experiments/knapen_aot/videos/R_S_yt-_68FWLGgPYE_25.mp4	0.0	420.0145320892334	2.5082240104675293
73	207.74870800971985	fix_post	2		12.0	71.0	2.5	/experiments/knapen_aot/videos/R_S_yt-_68FWLGgPYE_25.mp4	0.0	422.5227560997009	0.0999600887298584
74	207.8486680984497	fix_pre	0		24.0	72.0	2.5	/experiments/knapen_aot/videos/S_pexels-cottonbro-10640532.mp4	0.0	422.6227161884308	0.19999003410339355
74	208.04048705101013	response	0	2		72.0	2.5	/experiments/knapen_aot/videos/S_pexels-cottonbro-10640532.mp4	0.0	422.8145351409912	
74	208.0486581325531	movie	1		205.0	72.0	2.5	/experiments/knapen_aot/videos/S_pexels-cottonbro-10640532.mp4	0.0	422.8227062225342	2.508410930633545
74	210.55706906318665	fix_post	2		12.0	72.0	2.5	/experiments/knapen_aot/videos/S_pexels-cottonbro-10640532.mp4	0.0	425.3311171531677	0.10004901885986328
75	210.6571180820465	fix_pre	0		26.0	73.0	2.5	/experiments/knapen_aot/videos/R_S_yt-r4st6Mt4EE8_85.mp4	0.0	425.4311661720276	0.21651506423950195
75	210.86556100845337	response	0	2		73.0	2.5	/experiments/knapen_aot/videos/R_S_yt-r4st6Mt4EE8_85.mp4	0.0	425.63960909843445	
75	210.873633146286	movie	1		301.0	73.0	2.5	/experiments/knapen_aot/videos/R_S_yt-r4st6Mt4EE8_85.mp4	0.0	425.6476812362671	2.50838303565979
75	213.3820161819458	fix_post	2		12.0	73.0	2.5	/experiments/knapen_aot/videos/R_S_yt-r4st6Mt4EE8_85.mp4	0.0	428.1560642719269	0.10000491142272949
76	213.48202109336853	fix_pre	0		23.0	74.0	2.5	/experiments/knapen_aot/videos/S_yt-1sn8u-rQRas_7.mp4	0.0	428.2560691833496	0.2082970142364502
76	213.682195186615	response	0	2		74.0	2.5	/experiments/knapen_aot/videos/S_yt-1sn8u-rQRas_7.mp4	0.0	428.45624327659607	
76	213.69031810760498	movie	1		301.0	74.0	2.5	/experiments/knapen_aot/videos/S_yt-1sn8u-rQRas_7.mp4	0.0	428.46436619758606	2.508413076400757
76	216.19873118400574	fix_post	2		12.0	74.0	2.5	/experiments/knapen_aot/videos/S_yt-1sn8u-rQRas_7.mp4	0.0	430.9727792739868	0.09993886947631836
77	216.29867005348206	fix_pre	0		18.0	75.0	2.5	blank	1.0	431.07271814346313	0.15008997917175293
77	216.44046306610107	response	0	2		75.0	2.5	blank	1.0	431.21451115608215	
77	216.4487600326538	movie	1		301.0	75.0	2.5	blank	1.0	431.2228081226349	2.5082409381866455
77	218.95700097084045	fix_post	2		12.0	75.0	2.5	blank	1.0	433.73104906082153	0.09998321533203125
78	219.05698418617249	fix_pre	0		51.0	76.0	2.5	/experiments/knapen_aot/videos/R_S_pexels-mart-production-7277934.mp4	0.0	433.83103227615356	0.4249589443206787
78	219.47380709648132	response	0	2		76.0	2.5	/experiments/knapen_aot/videos/R_S_pexels-mart-production-7277934.mp4	0.0	434.2478551864624	
78	219.48194313049316	movie	1		167.0	76.0	2.5	/experiments/knapen_aot/videos/R_S_pexels-mart-production-7277934.mp4	0.0	434.25599122047424	2.5084149837493896
78	221.99035811424255	fix_post	2		12.0	76.0	2.5	/experiments/knapen_aot/videos/R_S_pexels-mart-production-7277934.mp4	0.0	436.76440620422363	0.09995698928833008
79	222.09031510353088	fix_pre	0		34.0	77.0	2.5	/experiments/knapen_aot/videos/R_S_r4Npnob1vds_12.mp4	0.0	436.86436319351196	0.28336405754089355
79	222.36549615859985	response	0	2		77.0	2.5	/experiments/knapen_aot/videos/R_S_r4Npnob1vds_12.mp4	0.0	437.13954424858093	
79	222.37367916107178	movie	1		301.0	77.0	2.5	/experiments/knapen_aot/videos/R_S_r4Npnob1vds_12.mp4	0.0	437.14772725105286	2.508296012878418
79	224.8819751739502	fix_post	2		12.0	77.0	2.5	/experiments/knapen_aot/videos/R_S_r4Npnob1vds_12.mp4	0.0	439.6560232639313	0.09995579719543457
80	224.98193097114563	fix_pre	0		20.0	78.0	2.5	/experiments/knapen_aot/videos/R_S_yt-26009GpQuUg_3.mp4	0.0	439.7559790611267	0.16667509078979492
80	225.140527009964	response	0	2		78.0	2.5	/experiments/knapen_aot/videos/R_S_yt-26009GpQuUg_3.mp4	0.0	439.91457509994507	
80	225.14860606193542	movie	1		301.0	78.0	2.5	/experiments/knapen_aot/videos/R_S_yt-26009GpQuUg_3.mp4	0.0	439.9226541519165	2.508273124694824
80	227.65687918663025	fix_post	2		12.0	78.0	2.5	/experiments/knapen_aot/videos/R_S_yt-26009GpQuUg_3.mp4	0.0	442.4309272766113	0.1000208854675293
81	227.75690007209778	fix_pre	0		46.0	79.0	2.5	/experiments/knapen_aot/videos/R_S_yt-6vkiJedss6g_5.mp4	0.0	442.53094816207886	0.3833730220794678
81	228.1319990158081	response	0	2		79.0	2.5	/experiments/knapen_aot/videos/R_S_yt-6vkiJedss6g_5.mp4	0.0	442.9060471057892	
81	228.14027309417725	movie	1		301.0	79.0	2.5	/experiments/knapen_aot/videos/R_S_yt-6vkiJedss6g_5.mp4	0.0	442.9143211841583	2.5082950592041016
81	230.64856815338135	fix_post	2		12.0	79.0	2.5	/experiments/knapen_aot/videos/R_S_yt-6vkiJedss6g_5.mp4	0.0	445.4226162433624	0.10004997253417969
82	230.74861812591553	fix_pre	0		14.0	80.0	2.5	/experiments/knapen_aot/videos/R_S_yt-bZfmqTZ-d2k_112.mp4	0.0	445.5226662158966	0.11661791801452637
82	230.85704398155212	response	0	2		80.0	2.5	/experiments/knapen_aot/videos/R_S_yt-bZfmqTZ-d2k_112.mp4	0.0	445.6310920715332	
82	230.86523604393005	movie	1		301.0	80.0	2.5	/experiments/knapen_aot/videos/R_S_yt-bZfmqTZ-d2k_112.mp4	0.0	445.63928413391113	2.508352041244507
82	233.37358808517456	fix_post	2		12.0	80.0	2.5	/experiments/knapen_aot/videos/R_S_yt-bZfmqTZ-d2k_112.mp4	0.0	448.14763617515564	0.09998893737792969
83	233.4735770225525	fix_pre	0		24.0	81.0	2.5	/experiments/knapen_aot/videos/S_ILSVRC2015_train_00638000.mp4	0.0	448.24762511253357	0.19997000694274902
83	233.66531610488892	response	0	2		81.0	2.5	/experiments/knapen_aot/videos/S_ILSVRC2015_train_00638000.mp4	0.0	448.43936419487	
83	233.67354702949524	movie	1		301.0	81.0	2.5	/experiments/knapen_aot/videos/S_ILSVRC2015_train_00638000.mp4	0.0	448.4475951194763	2.5083200931549072
83	236.18186712265015	fix_post	2		12.0	81.0	2.5	/experiments/knapen_aot/videos/S_ILSVRC2015_train_00638000.mp4	0.0	450.9559152126312	0.10001397132873535
84	236.28188109397888	fix_pre	0		29.0	82.0	2.5	/experiments/knapen_aot/videos/S_pexels-mart-production-7698911.mp4	0.0	451.05592918395996	0.24159693717956543
84	236.50780296325684	response	0	2		82.0	2.5	/experiments/knapen_aot/videos/S_pexels-mart-production-7698911.mp4	0.0	451.2818510532379	
84	236.52347803115845	movie	1		197.0	82.0	2.5	/experiments/knapen_aot/videos/S_pexels-mart-production-7698911.mp4	0.0	451.2975261211395	2.508474111557007
84	239.03195214271545	fix_post	2		12.0	82.0	2.5	/experiments/knapen_aot/videos/S_pexels-mart-production-7698911.mp4	0.0	453.80600023269653	0.0999288558959961
85	239.13188099861145	fix_pre	0		20.0	83.0	2.5	blank	1.0	453.90592908859253	0.16669106483459473
85	239.29033708572388	response	0	2		83.0	2.5	blank	1.0	454.06438517570496	
85	239.29857206344604	movie	1		301.0	83.0	2.5	blank	1.0	454.0726201534271	2.508315086364746
85	241.8068871498108	fix_post	2		12.0	83.0	2.5	blank	1.0	456.58093523979187	0.10000395774841309
87	241.9068911075592	stim	0		106.0					456.6809391975403	0.8832740783691406
87	242.1986231803894	response	0	2						456.9726712703705	
87	242.78663897514343	response	0	space						457.5606870651245	
