trial_nr	onset	event_type	phase	response	nr_frames	movie_index	movie_duration	movie_file	blank	onset_abs	duration
0	0.12506580352783203	stim	0		61.0					117.39574599266052	0.5081281661987305
0	0.6253848075866699	response	0	space						117.89606499671936	
1	0.6331939697265625	stim	0		121.0					117.90387415885925	1.0080790519714355
1	1.641273021697998	stim	1		120.0					118.91195321083069	0.9999728202819824
1	1.8163998126983643	response	1	space						119.08708000183105	
2	2.6412458419799805	fix_pre	0		50.0	0.0	2.5	/experiments/knapen_aot/videos/R_S_production_ID_4101307.mp4	0.0	119.91192603111267	0.41661715507507324
2	3.0497138500213623	response	0	space		0.0	2.5	/experiments/knapen_aot/videos/R_S_production_ID_4101307.mp4	0.0	120.32039403915405	
2	3.0578629970550537	movie	1		195.0	0.0	2.5	/experiments/knapen_aot/videos/R_S_production_ID_4101307.mp4	0.0	120.32854318618774	2.508415937423706
2	5.56627893447876	fix_post	2		12.0	0.0	2.5	/experiments/knapen_aot/videos/R_S_production_ID_4101307.mp4	0.0	122.83695912361145	0.10000991821289062
3	5.66628885269165	fix_pre	0		42.0	1.0	2.5	/experiments/knapen_aot/videos/R_S_yt-c5KPuyzO-50_4.mp4	0.0	122.93696904182434	0.34998202323913574
3	6.000717878341675	response	0	2		1.0	2.5	/experiments/knapen_aot/videos/R_S_yt-c5KPuyzO-50_4.mp4	0.0	123.27139806747437	
3	6.016270875930786	movie	1		298.0	1.0	2.5	/experiments/knapen_aot/videos/R_S_yt-c5KPuyzO-50_4.mp4	0.0	123.28695106506348	2.508284091949463
3	8.524554967880249	fix_post	2		12.0	1.0	2.5	/experiments/knapen_aot/videos/R_S_yt-c5KPuyzO-50_4.mp4	0.0	125.79523515701294	0.09998202323913574
4	8.624536991119385	fix_pre	0		16.0	2.0	2.5	/experiments/knapen_aot/videos/S_b3TCugtX0h0_108.mp4	0.0	125.89521718025208	0.1333160400390625
4	8.749692916870117	response	0	2		2.0	2.5	/experiments/knapen_aot/videos/S_b3TCugtX0h0_108.mp4	0.0	126.02037310600281	
4	8.757853031158447	movie	1		301.0	2.0	2.5	/experiments/knapen_aot/videos/S_b3TCugtX0h0_108.mp4	0.0	126.02853322029114	2.5082998275756836
4	11.26615285873413	fix_post	2		12.0	2.0	2.5	/experiments/knapen_aot/videos/S_b3TCugtX0h0_108.mp4	0.0	128.53683304786682	0.1000361442565918
5	11.366189002990723	fix_pre	0		27.0	3.0	2.5	/experiments/knapen_aot/videos/S_yt-x7TqP8l4lCA_39.mp4	0.0	128.6368691921234	0.22507882118225098
5	11.583039999008179	response	0	2		3.0	2.5	/experiments/knapen_aot/videos/S_yt-x7TqP8l4lCA_39.mp4	0.0	128.85372018814087	
5	11.591267824172974	movie	1		300.0	3.0	2.5	/experiments/knapen_aot/videos/S_yt-x7TqP8l4lCA_39.mp4	0.0	128.86194801330566	2.508347988128662
5	14.099615812301636	fix_post	2		12.0	3.0	2.5	/experiments/knapen_aot/videos/S_yt-x7TqP8l4lCA_39.mp4	0.0	131.37029600143433	0.09989404678344727
6	14.199509859085083	fix_pre	0		39.0	4.0	2.5	/experiments/knapen_aot/videos/S_PA_A004_C003_SDR_20190719_SDR_2K_AVC.mp4	0.0	131.47019004821777	0.32506704330444336
6	14.516402959823608	response	0	2		4.0	2.5	/experiments/knapen_aot/videos/S_PA_A004_C003_SDR_20190719_SDR_2K_AVC.mp4	0.0	131.7870831489563	
6	14.524576902389526	movie	1		166.0	4.0	2.5	/experiments/knapen_aot/videos/S_PA_A004_C003_SDR_20190719_SDR_2K_AVC.mp4	0.0	131.79525709152222	2.50832200050354
6	17.032898902893066	fix_post	2		12.0	4.0	2.5	/experiments/knapen_aot/videos/S_PA_A004_C003_SDR_20190719_SDR_2K_AVC.mp4	0.0	134.30357909202576	0.09993600845336914
7	17.132834911346436	fix_pre	0		17.0	5.0	2.5	blank	1.0	134.40351510047913	0.14177393913269043
7	17.266295909881592	response	0	2		5.0	2.5	blank	1.0	134.53697609901428	
7	17.274608850479126	movie	1		301.0	5.0	2.5	blank	1.0	134.54528903961182	2.508303165435791
7	19.782912015914917	fix_post	2		12.0	5.0	2.5	blank	1.0	137.0535922050476	0.09991097450256348
8	19.88282299041748	fix_pre	0		27.0	6.0	2.5	/experiments/knapen_aot/videos/S_Y004_C015_SDR_2K_AVC.mp4	0.0	137.15350317955017	0.22505784034729004
8	20.09968590736389	response	0	2		6.0	2.5	/experiments/knapen_aot/videos/S_Y004_C015_SDR_2K_AVC.mp4	0.0	137.37036609649658	
8	20.10788083076477	movie	1		164.0	6.0	2.5	/experiments/knapen_aot/videos/S_Y004_C015_SDR_2K_AVC.mp4	0.0	137.37856101989746	2.508287191390991
8	22.61616802215576	fix_post	2		12.0	6.0	2.5	/experiments/knapen_aot/videos/S_Y004_C015_SDR_2K_AVC.mp4	0.0	139.88684821128845	0.09995579719543457
9	22.716123819351196	fix_pre	0		42.0	7.0	2.5	/experiments/knapen_aot/videos/S_yt-tQ-hgwTcMqU_43.mp4	0.0	139.9868040084839	0.35005998611450195
9	23.057947874069214	response	0	2		7.0	2.5	/experiments/knapen_aot/videos/S_yt-tQ-hgwTcMqU_43.mp4	0.0	140.3286280632019	
9	23.0661838054657	movie	1		301.0	7.0	2.5	/experiments/knapen_aot/videos/S_yt-tQ-hgwTcMqU_43.mp4	0.0	140.3368639945984	2.508336067199707
9	25.574519872665405	fix_post	2		12.0	7.0	2.5	/experiments/knapen_aot/videos/S_yt-tQ-hgwTcMqU_43.mp4	0.0	142.8452000617981	0.0999600887298584
10	25.674479961395264	fix_pre	0		22.0	8.0	2.5	/experiments/knapen_aot/videos/R_S_comp_GMT026_363A_103NC_E1027_KOREA_JAPAN_NIGHT_v18_SDR_PS_20180907_SDR_2K_AVC.mp4	0.0	142.94516015052795	0.18330001831054688
10	25.849634885787964	response	0	2		8.0	2.5	/experiments/knapen_aot/videos/R_S_comp_GMT026_363A_103NC_E1027_KOREA_JAPAN_NIGHT_v18_SDR_PS_20180907_SDR_2K_AVC.mp4	0.0	143.12031507492065	
10	25.85777997970581	movie	1		171.0	8.0	2.5	/experiments/knapen_aot/videos/R_S_comp_GMT026_363A_103NC_E1027_KOREA_JAPAN_NIGHT_v18_SDR_PS_20180907_SDR_2K_AVC.mp4	0.0	143.1284601688385	2.5083470344543457
10	28.366127014160156	fix_post	2		12.0	8.0	2.5	/experiments/knapen_aot/videos/R_S_comp_GMT026_363A_103NC_E1027_KOREA_JAPAN_NIGHT_v18_SDR_PS_20180907_SDR_2K_AVC.mp4	0.0	145.63680720329285	0.10001897811889648
11	28.466145992279053	fix_pre	0		12.0	9.0	2.5	/experiments/knapen_aot/videos/S_comp_HK_H004_C008_PSNK_v19_SDR_PS_20180914_SDR_2K_AVC.mp4	0.0	145.73682618141174	0.09999895095825195
11	28.557971954345703	response	0	2		9.0	2.5	/experiments/knapen_aot/videos/S_comp_HK_H004_C008_PSNK_v19_SDR_PS_20180914_SDR_2K_AVC.mp4	0.0	145.8286521434784	
11	28.566144943237305	movie	1		167.0	9.0	2.5	/experiments/knapen_aot/videos/S_comp_HK_H004_C008_PSNK_v19_SDR_PS_20180914_SDR_2K_AVC.mp4	0.0	145.83682513237	2.508312940597534
11	31.07445788383484	fix_post	2		12.0	9.0	2.5	/experiments/knapen_aot/videos/S_comp_HK_H004_C008_PSNK_v19_SDR_PS_20180914_SDR_2K_AVC.mp4	0.0	148.34513807296753	0.09997010231018066
12	31.17442798614502	fix_pre	0		10.0	10.0	2.5	/experiments/knapen_aot/videos/S_ILSVRC2015_train_00479002.mp4	0.0	148.4451081752777	0.08338499069213867
12	31.249840021133423	response	0	2		10.0	2.5	/experiments/knapen_aot/videos/S_ILSVRC2015_train_00479002.mp4	0.0	148.5205202102661	
12	31.257812976837158	movie	1		301.0	10.0	2.5	/experiments/knapen_aot/videos/S_ILSVRC2015_train_00479002.mp4	0.0	148.52849316596985	2.508358955383301
12	33.76617193222046	fix_post	2		12.0	10.0	2.5	/experiments/knapen_aot/videos/S_ILSVRC2015_train_00479002.mp4	0.0	151.03685212135315	0.09998488426208496
13	33.866156816482544	fix_pre	0		18.0	11.0	2.5	/experiments/knapen_aot/videos/R_S_yt-3E02UEHdoZ4_752.mp4	0.0	151.13683700561523	0.14992308616638184
13	34.0079448223114	response	0	2		11.0	2.5	/experiments/knapen_aot/videos/R_S_yt-3E02UEHdoZ4_752.mp4	0.0	151.2786250114441	
13	34.016079902648926	movie	1		301.0	11.0	2.5	/experiments/knapen_aot/videos/R_S_yt-3E02UEHdoZ4_752.mp4	0.0	151.28676009178162	2.508470058441162
13	36.52454996109009	fix_post	2		12.0	11.0	2.5	/experiments/knapen_aot/videos/R_S_yt-3E02UEHdoZ4_752.mp4	0.0	153.79523015022278	0.09985184669494629
14	36.624401807785034	fix_pre	0		85.0	12.0	2.5	/experiments/knapen_aot/videos/R_S_yt-khmJAQuCRRE_119.mp4	0.0	153.89508199691772	0.7082891464233398
14	37.32465600967407	response	0	2		12.0	2.5	/experiments/knapen_aot/videos/R_S_yt-khmJAQuCRRE_119.mp4	0.0	154.59533619880676	
14	37.332690954208374	movie	1		301.0	12.0	2.5	/experiments/knapen_aot/videos/R_S_yt-khmJAQuCRRE_119.mp4	0.0	154.60337114334106	2.508327007293701
14	39.841017961502075	fix_post	2		12.0	12.0	2.5	/experiments/knapen_aot/videos/R_S_yt-khmJAQuCRRE_119.mp4	0.0	157.11169815063477	0.10009193420410156
15	39.94110989570618	fix_pre	0		25.0	13.0	2.5	/experiments/knapen_aot/videos/S_video_inspire_texas_austin_oct2019_evening_00085.1080-h264.mp4	0.0	157.21179008483887	0.2083580493927002
15	40.14117383956909	response	0	2		13.0	2.5	/experiments/knapen_aot/videos/S_video_inspire_texas_austin_oct2019_evening_00085.1080-h264.mp4	0.0	157.41185402870178	
15	40.14946794509888	movie	1		166.0	13.0	2.5	/experiments/knapen_aot/videos/S_video_inspire_texas_austin_oct2019_evening_00085.1080-h264.mp4	0.0	157.42014813423157	2.508352041244507
15	42.657819986343384	fix_post	2		12.0	13.0	2.5	/experiments/knapen_aot/videos/S_video_inspire_texas_austin_oct2019_evening_00085.1080-h264.mp4	0.0	159.92850017547607	0.09999489784240723
15	42.749674797058105	response	2	2		13.0	2.5	/experiments/knapen_aot/videos/S_video_inspire_texas_austin_oct2019_evening_00085.1080-h264.mp4	0.0	160.0203549861908	
16	42.75781488418579	fix_pre	0		47.0	14.0	2.5	blank	1.0	160.02849507331848	0.39163804054260254
16	43.14126992225647	response	0	2		14.0	2.5	blank	1.0	160.41195011138916	
16	43.149452924728394	movie	1		301.0	14.0	2.5	blank	1.0	160.42013311386108	2.5083348751068115
16	45.657787799835205	fix_post	2		12.0	14.0	2.5	blank	1.0	162.9284679889679	0.1000051498413086
17	45.757792949676514	fix_pre	0		16.0	15.0	2.5	/experiments/knapen_aot/videos/S_comp_LA_A009_C009_PSNK_v02_SDR_PS_FINAL_20180709_SDR_2K_AVC.mp4	0.0	163.0284731388092	0.13334894180297852
17	45.88298797607422	response	0	2		15.0	2.5	/experiments/knapen_aot/videos/S_comp_LA_A009_C009_PSNK_v02_SDR_PS_FINAL_20180709_SDR_2K_AVC.mp4	0.0	163.1536681652069	
17	45.89114189147949	movie	1		161.0	15.0	2.5	/experiments/knapen_aot/videos/S_comp_LA_A009_C009_PSNK_v02_SDR_PS_FINAL_20180709_SDR_2K_AVC.mp4	0.0	163.16182208061218	2.508254051208496
17	48.39939594268799	fix_post	2		12.0	15.0	2.5	/experiments/knapen_aot/videos/S_comp_LA_A009_C009_PSNK_v02_SDR_PS_FINAL_20180709_SDR_2K_AVC.mp4	0.0	165.67007613182068	0.10005903244018555
18	48.499454975128174	fix_pre	0		13.0	16.0	2.5	/experiments/knapen_aot/videos/R_S_cST9H3zu3zQ_126.mp4	0.0	165.77013516426086	0.10830998420715332
18	48.599562883377075	response	0	2		16.0	2.5	/experiments/knapen_aot/videos/R_S_cST9H3zu3zQ_126.mp4	0.0	165.87024307250977	
18	48.60776495933533	movie	1		301.0	16.0	2.5	/experiments/knapen_aot/videos/R_S_cST9H3zu3zQ_126.mp4	0.0	165.87844514846802	2.5083730220794678
18	51.116137981414795	fix_post	2		12.0	16.0	2.5	/experiments/knapen_aot/videos/R_S_cST9H3zu3zQ_126.mp4	0.0	168.38681817054749	0.10001087188720703
19	51.216148853302	fix_pre	0		11.0	17.0	2.5	/experiments/knapen_aot/videos/R_S_ILSVRC2015_train_00479002.mp4	0.0	168.4868290424347	0.09159517288208008
19	51.29957389831543	response	0	2		17.0	2.5	/experiments/knapen_aot/videos/R_S_ILSVRC2015_train_00479002.mp4	0.0	168.57025408744812	
19	51.30774402618408	movie	1		299.0	17.0	2.5	/experiments/knapen_aot/videos/R_S_ILSVRC2015_train_00479002.mp4	0.0	168.57842421531677	2.5083019733428955
19	53.81604599952698	fix_post	2		12.0	17.0	2.5	/experiments/knapen_aot/videos/R_S_ILSVRC2015_train_00479002.mp4	0.0	171.08672618865967	0.10002589225769043
20	53.91607189178467	fix_pre	0		22.0	18.0	2.5	/experiments/knapen_aot/videos/S_yt-oVrkSsEpuvk_118.mp4	0.0	171.18675208091736	0.18326807022094727
20	54.0837140083313	response	0	2		18.0	2.5	/experiments/knapen_aot/videos/S_yt-oVrkSsEpuvk_118.mp4	0.0	171.354394197464	
20	54.099339962005615	movie	1		301.0	18.0	2.5	/experiments/knapen_aot/videos/S_yt-oVrkSsEpuvk_118.mp4	0.0	171.3700201511383	2.5083470344543457
20	56.60768699645996	fix_post	2		12.0	18.0	2.5	/experiments/knapen_aot/videos/S_yt-oVrkSsEpuvk_118.mp4	0.0	173.87836718559265	0.1000058650970459
21	56.70769286155701	fix_pre	0		11.0	19.0	2.5	blank	1.0	173.9783730506897	0.09175896644592285
21	56.79116702079773	response	0	2		19.0	2.5	blank	1.0	174.06184720993042	
21	56.79945182800293	movie	1		301.0	19.0	2.5	blank	1.0	174.07013201713562	2.50822114944458
21	59.30767297744751	fix_post	2		12.0	19.0	2.5	blank	1.0	176.5783531665802	0.0999460220336914
22	59.4076189994812	fix_pre	0		14.0	20.0	2.5	/experiments/knapen_aot/videos/S_yt-7Ya-rGPO8cM_159.mp4	0.0	176.6782991886139	0.11669492721557617
22	59.5160698890686	response	0	2		20.0	2.5	/experiments/knapen_aot/videos/S_yt-7Ya-rGPO8cM_159.mp4	0.0	176.7867500782013	
22	59.52431392669678	movie	1		298.0	20.0	2.5	/experiments/knapen_aot/videos/S_yt-7Ya-rGPO8cM_159.mp4	0.0	176.79499411582947	2.508370876312256
22	61.807822942733765	response	1	2		20.0	2.5	/experiments/knapen_aot/videos/S_yt-7Ya-rGPO8cM_159.mp4	0.0	179.07850313186646	
22	62.03268480300903	fix_post	2		12.0	20.0	2.5	/experiments/knapen_aot/videos/S_yt-7Ya-rGPO8cM_159.mp4	0.0	179.30336499214172	0.10002303123474121
23	62.132707834243774	fix_pre	0		24.0	21.0	2.5	/experiments/knapen_aot/videos/S_yt-Q5Mfl5NdT7g_3.mp4	0.0	179.40338802337646	0.19995903968811035
23	62.32443690299988	response	0	2		21.0	2.5	/experiments/knapen_aot/videos/S_yt-Q5Mfl5NdT7g_3.mp4	0.0	179.59511709213257	
23	62.332666873931885	movie	1		301.0	21.0	2.5	/experiments/knapen_aot/videos/S_yt-Q5Mfl5NdT7g_3.mp4	0.0	179.60334706306458	2.508357048034668
23	64.05782580375671	response	1	2		21.0	2.5	/experiments/knapen_aot/videos/S_yt-Q5Mfl5NdT7g_3.mp4	0.0	181.3285059928894	
23	64.84102392196655	fix_post	2		12.0	21.0	2.5	/experiments/knapen_aot/videos/S_yt-Q5Mfl5NdT7g_3.mp4	0.0	182.11170411109924	0.09996390342712402
24	64.94098782539368	fix_pre	0		12.0	22.0	2.5	/experiments/knapen_aot/videos/S_yt-P001x88adE4_427.mp4	0.0	182.21166801452637	0.10015702247619629
24	65.03279280662537	response	0	2		22.0	2.5	/experiments/knapen_aot/videos/S_yt-P001x88adE4_427.mp4	0.0	182.30347299575806	
24	65.04114484786987	movie	1		301.0	22.0	2.5	/experiments/knapen_aot/videos/S_yt-P001x88adE4_427.mp4	0.0	182.31182503700256	2.508242130279541
24	67.54938697814941	fix_post	2		12.0	22.0	2.5	/experiments/knapen_aot/videos/S_yt-P001x88adE4_427.mp4	0.0	184.8200671672821	0.09995102882385254
25	67.64933800697327	fix_pre	0		15.0	23.0	2.5	/experiments/knapen_aot/videos/S_Ds4EKTLx_RI_51.mp4	0.0	184.92001819610596	0.12491989135742188
25	67.76609992980957	response	0	2		23.0	2.5	/experiments/knapen_aot/videos/S_Ds4EKTLx_RI_51.mp4	0.0	185.03678011894226	
25	67.77425789833069	movie	1		300.0	23.0	2.5	/experiments/knapen_aot/videos/S_Ds4EKTLx_RI_51.mp4	0.0	185.04493808746338	2.508513927459717
25	70.2827718257904	fix_post	2		12.0	23.0	2.5	/experiments/knapen_aot/videos/S_Ds4EKTLx_RI_51.mp4	0.0	187.5534520149231	0.09992599487304688
26	70.38269782066345	fix_pre	0		25.0	24.0	2.5	/experiments/knapen_aot/videos/R_S_yt-khmJAQuCRRE_119.mp4	0.0	187.65337800979614	0.20832300186157227
26	70.58280086517334	response	0	2		24.0	2.5	/experiments/knapen_aot/videos/R_S_yt-khmJAQuCRRE_119.mp4	0.0	187.85348105430603	
26	70.59102082252502	movie	1		301.0	24.0	2.5	/experiments/knapen_aot/videos/R_S_yt-khmJAQuCRRE_119.mp4	0.0	187.86170101165771	2.5082881450653076
26	73.09930896759033	fix_post	2		12.0	24.0	2.5	/experiments/knapen_aot/videos/R_S_yt-khmJAQuCRRE_119.mp4	0.0	190.36998915672302	0.09996199607849121
27	73.19927096366882	fix_pre	0		18.0	25.0	2.5	/experiments/knapen_aot/videos/S_ILSVRC2015_train_00613000.mp4	0.0	190.4699511528015	0.1499788761138916
27	73.34105682373047	response	0	2		25.0	2.5	/experiments/knapen_aot/videos/S_ILSVRC2015_train_00613000.mp4	0.0	190.61173701286316	
27	73.34924983978271	movie	1		301.0	25.0	2.5	/experiments/knapen_aot/videos/S_ILSVRC2015_train_00613000.mp4	0.0	190.6199300289154	2.5084099769592285
27	75.85765981674194	fix_post	2		12.0	25.0	2.5	/experiments/knapen_aot/videos/S_ILSVRC2015_train_00613000.mp4	0.0	193.12834000587463	0.09995317459106445
28	75.95761299133301	fix_pre	0		20.0	26.0	2.5	/experiments/knapen_aot/videos/R_S_yt-oVrkSsEpuvk_118.mp4	0.0	193.2282931804657	0.1666278839111328
28	76.11612486839294	response	0	2		26.0	2.5	/experiments/knapen_aot/videos/R_S_yt-oVrkSsEpuvk_118.mp4	0.0	193.38680505752563	
28	76.12424087524414	movie	1		301.0	26.0	2.5	/experiments/knapen_aot/videos/R_S_yt-oVrkSsEpuvk_118.mp4	0.0	193.39492106437683	2.508331060409546
28	78.63257193565369	fix_post	2		12.0	26.0	2.5	/experiments/knapen_aot/videos/R_S_yt-oVrkSsEpuvk_118.mp4	0.0	195.90325212478638	0.10002398490905762
29	78.73259592056274	fix_pre	0		17.0	27.0	2.5	/experiments/knapen_aot/videos/S_yt-CNq5mTA8oXY_176.mp4	0.0	196.00327610969543	0.14163899421691895
29	78.86614179611206	response	0	2		27.0	2.5	/experiments/knapen_aot/videos/S_yt-CNq5mTA8oXY_176.mp4	0.0	196.13682198524475	
29	78.87423491477966	movie	1		301.0	27.0	2.5	/experiments/knapen_aot/videos/S_yt-CNq5mTA8oXY_176.mp4	0.0	196.14491510391235	2.5082879066467285
29	81.38252282142639	fix_post	2		12.0	27.0	2.5	/experiments/knapen_aot/videos/S_yt-CNq5mTA8oXY_176.mp4	0.0	198.65320301055908	0.1000680923461914
30	81.48259091377258	fix_pre	0		8.0	28.0	2.5	blank	1.0	198.75327110290527	0.06664204597473145
30	81.54108595848083	response	0	2		28.0	2.5	blank	1.0	198.81176614761353	
30	81.54923295974731	movie	1		301.0	28.0	2.5	blank	1.0	198.81991314888	2.5083420276641846
30	84.0575749874115	fix_post	2		12.0	28.0	2.5	blank	1.0	201.3282551765442	0.10002803802490234
31	84.1576030254364	fix_pre	0		76.0	29.0	2.5	/experiments/knapen_aot/videos/S_production_ID_5119260.mp4	0.0	201.4282832145691	0.63332200050354
31	84.78286981582642	response	0	2		29.0	2.5	/experiments/knapen_aot/videos/S_production_ID_5119260.mp4	0.0	202.0535500049591	
31	84.79092502593994	movie	1		165.0	29.0	2.5	/experiments/knapen_aot/videos/S_production_ID_5119260.mp4	0.0	202.06160521507263	2.508349895477295
31	87.29927492141724	fix_post	2		12.0	29.0	2.5	/experiments/knapen_aot/videos/S_production_ID_5119260.mp4	0.0	204.56995511054993	0.09998893737792969
32	87.39926385879517	fix_pre	0		12.0	30.0	2.5	/experiments/knapen_aot/videos/R_S_yt-npaE4fe6A6Y_26.mp4	0.0	204.66994404792786	0.10005402565002441
32	87.4910979270935	response	0	2		30.0	2.5	/experiments/knapen_aot/videos/R_S_yt-npaE4fe6A6Y_26.mp4	0.0	204.7617781162262	
32	87.49931788444519	movie	1		301.0	30.0	2.5	/experiments/knapen_aot/videos/R_S_yt-npaE4fe6A6Y_26.mp4	0.0	204.76999807357788	2.508181095123291
32	90.00749897956848	fix_post	2		12.0	30.0	2.5	/experiments/knapen_aot/videos/R_S_yt-npaE4fe6A6Y_26.mp4	0.0	207.27817916870117	0.10005903244018555
33	90.10755801200867	fix_pre	0		20.0	31.0	2.5	/experiments/knapen_aot/videos/R_S_59eT4XDXNno_25.mp4	0.0	207.37823820114136	0.16666579246520996
33	90.26588797569275	response	0	2		31.0	2.5	/experiments/knapen_aot/videos/R_S_59eT4XDXNno_25.mp4	0.0	207.53656816482544	
33	90.27422380447388	movie	1		301.0	31.0	2.5	/experiments/knapen_aot/videos/R_S_59eT4XDXNno_25.mp4	0.0	207.54490399360657	2.5083560943603516
33	92.78257989883423	fix_post	2		12.0	31.0	2.5	/experiments/knapen_aot/videos/R_S_59eT4XDXNno_25.mp4	0.0	210.05326008796692	0.10002803802490234
34	92.88260793685913	fix_pre	0		24.0	32.0	2.5	/experiments/knapen_aot/videos/S_production_ID_4101307.mp4	0.0	210.15328812599182	0.19991493225097656
34	93.07435297966003	response	0	2		32.0	2.5	/experiments/knapen_aot/videos/S_production_ID_4101307.mp4	0.0	210.34503316879272	
34	93.08252286911011	movie	1		190.0	32.0	2.5	/experiments/knapen_aot/videos/S_production_ID_4101307.mp4	0.0	210.3532030582428	2.5083329677581787
34	95.59085583686829	fix_post	2		12.0	32.0	2.5	/experiments/knapen_aot/videos/S_production_ID_4101307.mp4	0.0	212.86153602600098	0.09991908073425293
35	95.69077491760254	fix_pre	0		22.0	33.0	2.5	/experiments/knapen_aot/videos/S_comp_A351_C001_v06_SDR_PS_20180725_SDR_2K_AVC.mp4	0.0	212.96145510673523	0.1834399700164795
35	95.85836887359619	response	0	2		33.0	2.5	/experiments/knapen_aot/videos/S_comp_A351_C001_v06_SDR_PS_20180725_SDR_2K_AVC.mp4	0.0	213.12904906272888	
35	95.87421488761902	movie	1		164.0	33.0	2.5	/experiments/knapen_aot/videos/S_comp_A351_C001_v06_SDR_PS_20180725_SDR_2K_AVC.mp4	0.0	213.1448950767517	2.5082499980926514
35	98.38246488571167	fix_post	2		12.0	33.0	2.5	/experiments/knapen_aot/videos/S_comp_A351_C001_v06_SDR_PS_20180725_SDR_2K_AVC.mp4	0.0	215.65314507484436	0.09995293617248535
36	98.48241782188416	fix_pre	0		112.0	34.0	2.5	/experiments/knapen_aot/videos/S_yt-c5KPuyzO-50_4.mp4	0.0	215.75309801101685	0.9333901405334473
36	99.40768599510193	response	0	2		34.0	2.5	/experiments/knapen_aot/videos/S_yt-c5KPuyzO-50_4.mp4	0.0	216.67836618423462	
36	99.4158079624176	movie	1		301.0	34.0	2.5	/experiments/knapen_aot/videos/S_yt-c5KPuyzO-50_4.mp4	0.0	216.6864881515503	2.5083999633789062
36	101.92420792579651	fix_post	2		12.0	34.0	2.5	/experiments/knapen_aot/videos/S_yt-c5KPuyzO-50_4.mp4	0.0	219.1948881149292	0.09993600845336914
37	102.02414393424988	fix_pre	0		15.0	35.0	2.5	blank	1.0	219.29482412338257	0.1249239444732666
37	102.14096283912659	response	0	2		35.0	2.5	blank	1.0	219.41164302825928	
37	102.14906787872314	movie	1		301.0	35.0	2.5	blank	1.0	219.41974806785583	2.508363962173462
37	104.6574318408966	fix_post	2		12.0	35.0	2.5	blank	1.0	221.9281120300293	0.10007905960083008
38	104.75751090049744	fix_pre	0		29.0	36.0	2.5	/experiments/knapen_aot/videos/S_yt-ycfVJyrFgB4_15.mp4	0.0	222.02819108963013	0.2416069507598877
38	104.99093794822693	response	0	2		36.0	2.5	/experiments/knapen_aot/videos/S_yt-ycfVJyrFgB4_15.mp4	0.0	222.26161813735962	
38	104.99911785125732	movie	1		301.0	36.0	2.5	/experiments/knapen_aot/videos/S_yt-ycfVJyrFgB4_15.mp4	0.0	222.26979804039001	2.508366107940674
38	107.507483959198	fix_post	2		12.0	36.0	2.5	/experiments/knapen_aot/videos/S_yt-ycfVJyrFgB4_15.mp4	0.0	224.7781641483307	0.10005497932434082
38	107.58337998390198	response	2	2		36.0	2.5	/experiments/knapen_aot/videos/S_yt-ycfVJyrFgB4_15.mp4	0.0	224.85406017303467	
39	107.60753893852234	fix_pre	0		40.0	37.0	2.5	/experiments/knapen_aot/videos/S_yt-dkBlyE3igk0_44.mp4	0.0	224.87821912765503	0.3332400321960449
39	107.93256902694702	response	0	2		37.0	2.5	/experiments/knapen_aot/videos/S_yt-dkBlyE3igk0_44.mp4	0.0	225.2032492160797	
39	107.94077897071838	movie	1		301.0	37.0	2.5	/experiments/knapen_aot/videos/S_yt-dkBlyE3igk0_44.mp4	0.0	225.21145915985107	2.508241891860962
39	110.44902086257935	fix_post	2		12.0	37.0	2.5	/experiments/knapen_aot/videos/S_yt-dkBlyE3igk0_44.mp4	0.0	227.71970105171204	0.10007309913635254
40	110.5490939617157	fix_pre	0		91.0	38.0	2.5	/experiments/knapen_aot/videos/R_S_yt-gDZnJCR2uXI_18.mp4	0.0	227.8197741508484	0.758354902267456
40	111.29927182197571	response	0	2		38.0	2.5	/experiments/knapen_aot/videos/R_S_yt-gDZnJCR2uXI_18.mp4	0.0	228.5699520111084	
40	111.30744886398315	movie	1		301.0	38.0	2.5	/experiments/knapen_aot/videos/R_S_yt-gDZnJCR2uXI_18.mp4	0.0	228.57812905311584	2.5084080696105957
40	113.81585693359375	fix_post	2		12.0	38.0	2.5	/experiments/knapen_aot/videos/R_S_yt-gDZnJCR2uXI_18.mp4	0.0	231.08653712272644	0.09999203681945801
41	113.91584897041321	fix_pre	0		28.0	39.0	2.5	/experiments/knapen_aot/videos/R_S_yt-fnE8kgUHUMI_64.mp4	0.0	231.1865291595459	0.23328089714050293
41	114.14099502563477	response	0	2		39.0	2.5	/experiments/knapen_aot/videos/R_S_yt-fnE8kgUHUMI_64.mp4	0.0	231.41167521476746	
41	114.14912986755371	movie	1		301.0	39.0	2.5	/experiments/knapen_aot/videos/R_S_yt-fnE8kgUHUMI_64.mp4	0.0	231.4198100566864	2.508603096008301
41	116.65773296356201	fix_post	2		12.0	39.0	2.5	/experiments/knapen_aot/videos/R_S_yt-fnE8kgUHUMI_64.mp4	0.0	233.9284131526947	0.09974288940429688
42	116.75747585296631	fix_pre	0		20.0	40.0	2.5	blank	1.0	234.028156042099	0.16666698455810547
42	116.91589999198914	response	0	2		40.0	2.5	blank	1.0	234.18658018112183	
42	116.92414283752441	movie	1		301.0	40.0	2.5	blank	1.0	234.1948230266571	2.5083231925964355
42	119.43246603012085	fix_post	2		12.0	40.0	2.5	blank	1.0	236.70314621925354	0.10023283958435059
43	119.5326988697052	fix_pre	0		44.0	41.0	2.5	/experiments/knapen_aot/videos/R_S_CR_A009_C007_SDR_20191113_SDR_2K_AVC.mp4	0.0	236.8033790588379	0.36640310287475586
43	119.89091801643372	response	0	2		41.0	2.5	/experiments/knapen_aot/videos/R_S_CR_A009_C007_SDR_20191113_SDR_2K_AVC.mp4	0.0	237.1615982055664	
43	119.89910197257996	movie	1		166.0	41.0	2.5	/experiments/knapen_aot/videos/R_S_CR_A009_C007_SDR_20191113_SDR_2K_AVC.mp4	0.0	237.16978216171265	2.5083160400390625
43	122.40741801261902	fix_post	2		12.0	41.0	2.5	/experiments/knapen_aot/videos/R_S_CR_A009_C007_SDR_20191113_SDR_2K_AVC.mp4	0.0	239.6780982017517	0.09997701644897461
44	122.507395029068	fix_pre	0		14.0	42.0	2.5	/experiments/knapen_aot/videos/R_S_yt-be7r-ha8BpA_1045.mp4	0.0	239.77807521820068	0.11669397354125977
44	122.61585283279419	response	0	2		42.0	2.5	/experiments/knapen_aot/videos/R_S_yt-be7r-ha8BpA_1045.mp4	0.0	239.88653302192688	
44	122.62408900260925	movie	1		301.0	42.0	2.5	/experiments/knapen_aot/videos/R_S_yt-be7r-ha8BpA_1045.mp4	0.0	239.89476919174194	2.50833797454834
44	125.13242697715759	fix_post	2		12.0	42.0	2.5	/experiments/knapen_aot/videos/R_S_yt-be7r-ha8BpA_1045.mp4	0.0	242.40310716629028	0.0999758243560791
45	125.23240280151367	fix_pre	0		21.0	43.0	2.5	/experiments/knapen_aot/videos/S_yt-n1snPiGfg0A_45.mp4	0.0	242.50308299064636	0.17516613006591797
45	125.39920592308044	response	0	2		43.0	2.5	/experiments/knapen_aot/videos/S_yt-n1snPiGfg0A_45.mp4	0.0	242.66988611221313	
45	125.40756893157959	movie	1		300.0	43.0	2.5	/experiments/knapen_aot/videos/S_yt-n1snPiGfg0A_45.mp4	0.0	242.67824912071228	2.5081429481506348
45	127.91571187973022	fix_post	2		12.0	43.0	2.5	/experiments/knapen_aot/videos/S_yt-n1snPiGfg0A_45.mp4	0.0	245.18639206886292	0.10003113746643066
46	128.01574301719666	fix_pre	0		23.0	44.0	2.5	/experiments/knapen_aot/videos/R_S_ILSVRC2015_train_00613000.mp4	0.0	245.28642320632935	0.19156479835510254
46	128.19922280311584	response	0	2		44.0	2.5	/experiments/knapen_aot/videos/R_S_ILSVRC2015_train_00613000.mp4	0.0	245.46990299224854	
46	128.20730781555176	movie	1		301.0	44.0	2.5	/experiments/knapen_aot/videos/R_S_ILSVRC2015_train_00613000.mp4	0.0	245.47798800468445	2.508350133895874
46	130.71565794944763	fix_post	2		12.0	44.0	2.5	/experiments/knapen_aot/videos/R_S_ILSVRC2015_train_00613000.mp4	0.0	247.98633813858032	0.10002994537353516
47	130.81568789482117	fix_pre	0		73.0	45.0	2.5	/experiments/knapen_aot/videos/R_S_yt-mL3MuCfKtdY_79.mp4	0.0	248.08636808395386	0.6083269119262695
47	131.41583585739136	response	0	2		45.0	2.5	/experiments/knapen_aot/videos/R_S_yt-mL3MuCfKtdY_79.mp4	0.0	248.68651604652405	
47	131.42401480674744	movie	1		301.0	45.0	2.5	/experiments/knapen_aot/videos/R_S_yt-mL3MuCfKtdY_79.mp4	0.0	248.69469499588013	2.5084102153778076
47	133.93242502212524	fix_post	2		12.0	45.0	2.5	/experiments/knapen_aot/videos/R_S_yt-mL3MuCfKtdY_79.mp4	0.0	251.20310521125793	0.10010290145874023
48	134.03252792358398	fix_pre	0		52.0	46.0	2.5	/experiments/knapen_aot/videos/S_yt-oVS_k_9upmo_205.mp4	0.0	251.30320811271667	0.4332449436187744
48	134.45755791664124	response	0	2		46.0	2.5	/experiments/knapen_aot/videos/S_yt-oVS_k_9upmo_205.mp4	0.0	251.72823810577393	
48	134.46577286720276	movie	1		301.0	46.0	2.5	/experiments/knapen_aot/videos/S_yt-oVS_k_9upmo_205.mp4	0.0	251.73645305633545	2.508270025253296
48	136.97404289245605	fix_post	2		12.0	46.0	2.5	/experiments/knapen_aot/videos/S_yt-oVS_k_9upmo_205.mp4	0.0	254.24472308158875	0.10009503364562988
49	137.07413792610168	fix_pre	0		9.0	47.0	2.5	blank	1.0	254.34481811523438	0.07641887664794922
49	137.14143800735474	response	0	2		47.0	2.5	blank	1.0	254.41211819648743	
49	137.15055680274963	movie	1		301.0	47.0	2.5	blank	1.0	254.42123699188232	2.5068840980529785
49	139.6574409008026	fix_post	2		12.0	47.0	2.5	blank	1.0	256.9281210899353	0.09995698928833008
50	139.75739789009094	fix_pre	0		22.0	48.0	2.5	/experiments/knapen_aot/videos/S_yt-ObT9gF8E_tU_250.mp4	0.0	257.02807807922363	0.1833019256591797
50	139.9325020313263	response	0	2		48.0	2.5	/experiments/knapen_aot/videos/S_yt-ObT9gF8E_tU_250.mp4	0.0	257.203182220459	
50	139.94069981575012	movie	1		301.0	48.0	2.5	/experiments/knapen_aot/videos/S_yt-ObT9gF8E_tU_250.mp4	0.0	257.2113800048828	2.5084331035614014
50	142.44913291931152	fix_post	2		12.0	48.0	2.5	/experiments/knapen_aot/videos/S_yt-ObT9gF8E_tU_250.mp4	0.0	259.7198131084442	0.09985494613647461
51	142.548987865448	fix_pre	0		12.0	49.0	2.5	/experiments/knapen_aot/videos/S_flickr-53807584@N00-5566422012_16.mp4	0.0	259.8196680545807	0.10001397132873535
51	142.64075088500977	response	0	2		49.0	2.5	/experiments/knapen_aot/videos/S_flickr-53807584@N00-5566422012_16.mp4	0.0	259.91143107414246	
51	142.64900183677673	movie	1		301.0	49.0	2.5	/experiments/knapen_aot/videos/S_flickr-53807584@N00-5566422012_16.mp4	0.0	259.9196820259094	2.508455991744995
51	145.15745782852173	fix_post	2		12.0	49.0	2.5	/experiments/knapen_aot/videos/S_flickr-53807584@N00-5566422012_16.mp4	0.0	262.4281380176544	0.10000920295715332
52	145.25746703147888	fix_pre	0		23.0	50.0	2.5	/experiments/knapen_aot/videos/S_yt-PCSXJ5YB_AE_3.mp4	0.0	262.5281472206116	0.1916358470916748
52	145.4408299922943	response	0	2		50.0	2.5	/experiments/knapen_aot/videos/S_yt-PCSXJ5YB_AE_3.mp4	0.0	262.711510181427	
52	145.44910287857056	movie	1		301.0	50.0	2.5	/experiments/knapen_aot/videos/S_yt-PCSXJ5YB_AE_3.mp4	0.0	262.71978306770325	2.5082390308380127
52	147.95734190940857	fix_post	2		12.0	50.0	2.5	/experiments/knapen_aot/videos/S_yt-PCSXJ5YB_AE_3.mp4	0.0	265.22802209854126	0.09999895095825195
53	148.05734086036682	fix_pre	0		88.0	51.0	2.5	/experiments/knapen_aot/videos/R_S_yt-7Ya-rGPO8cM_159.mp4	0.0	265.3280210494995	0.7333259582519531
53	148.78249883651733	response	0	2		51.0	2.5	/experiments/knapen_aot/videos/R_S_yt-7Ya-rGPO8cM_159.mp4	0.0	266.05317902565	
53	148.79066681861877	movie	1		301.0	51.0	2.5	/experiments/knapen_aot/videos/R_S_yt-7Ya-rGPO8cM_159.mp4	0.0	266.06134700775146	2.5083320140838623
53	151.29899883270264	fix_post	2		12.0	51.0	2.5	/experiments/knapen_aot/videos/R_S_yt-7Ya-rGPO8cM_159.mp4	0.0	268.5696790218353	0.09995603561401367
54	151.39895486831665	fix_pre	0		10.0	52.0	2.5	/experiments/knapen_aot/videos/S_ahJft-G235A_122.mp4	0.0	268.66963505744934	0.08336901664733887
54	151.47414183616638	response	0	2		52.0	2.5	/experiments/knapen_aot/videos/S_ahJft-G235A_122.mp4	0.0	268.7448220252991	
54	151.482323884964	movie	1		301.0	52.0	2.5	/experiments/knapen_aot/videos/S_ahJft-G235A_122.mp4	0.0	268.7530040740967	2.508392095565796
54	153.99071598052979	fix_post	2		12.0	52.0	2.5	/experiments/knapen_aot/videos/S_ahJft-G235A_122.mp4	0.0	271.2613961696625	0.09995293617248535
55	154.09066891670227	fix_pre	0		23.0	53.0	2.5	/experiments/knapen_aot/videos/S_yt-4NjyKFnwHBo_13.mp4	0.0	271.36134910583496	0.19167590141296387
55	154.27409887313843	response	0	2		53.0	2.5	/experiments/knapen_aot/videos/S_yt-4NjyKFnwHBo_13.mp4	0.0	271.5447790622711	
55	154.28234481811523	movie	1		301.0	53.0	2.5	/experiments/knapen_aot/videos/S_yt-4NjyKFnwHBo_13.mp4	0.0	271.5530250072479	2.5083181858062744
55	156.7906630039215	fix_post	2		12.0	53.0	2.5	/experiments/knapen_aot/videos/S_yt-4NjyKFnwHBo_13.mp4	0.0	274.0613431930542	0.09994888305664062
56	156.89061188697815	fix_pre	0		11.0	54.0	2.5	blank	1.0	274.16129207611084	0.09165096282958984
56	156.9675328731537	response	0	2		54.0	2.5	blank	1.0	274.2382130622864	
56	156.98226284980774	movie	1		301.0	54.0	2.5	blank	1.0	274.25294303894043	2.508347988128662
56	159.4906108379364	fix_post	2		12.0	54.0	2.5	blank	1.0	276.7612910270691	0.10002899169921875
57	159.59063982963562	fix_pre	0		30.0	55.0	2.5	/experiments/knapen_aot/videos/R_S_ILSVRC2015_train_00418004.mp4	0.0	276.8613200187683	0.24998903274536133
57	159.83242201805115	response	0	2		55.0	2.5	/experiments/knapen_aot/videos/R_S_ILSVRC2015_train_00418004.mp4	0.0	277.10310220718384	
57	159.84062886238098	movie	1		301.0	55.0	2.5	/experiments/knapen_aot/videos/R_S_ILSVRC2015_train_00418004.mp4	0.0	277.1113090515137	2.508296012878418
57	162.3489248752594	fix_post	2		12.0	55.0	2.5	/experiments/knapen_aot/videos/R_S_ILSVRC2015_train_00418004.mp4	0.0	279.6196050643921	0.10003900527954102
58	162.44896388053894	fix_pre	0		27.0	56.0	2.5	/experiments/knapen_aot/videos/S_yt-3TF_RGo9cLs_541.mp4	0.0	279.71964406967163	0.22498106956481934
58	162.66578102111816	response	0	2		56.0	2.5	/experiments/knapen_aot/videos/S_yt-3TF_RGo9cLs_541.mp4	0.0	279.93646121025085	
58	162.67394495010376	movie	1		301.0	56.0	2.5	/experiments/knapen_aot/videos/S_yt-3TF_RGo9cLs_541.mp4	0.0	279.94462513923645	2.508328914642334
58	165.1822738647461	fix_post	2		12.0	56.0	2.5	/experiments/knapen_aot/videos/S_yt-3TF_RGo9cLs_541.mp4	0.0	282.4529540538788	0.1000220775604248
59	165.28229594230652	fix_pre	0		115.0	57.0	2.5	/experiments/knapen_aot/videos/S_yt-2IfvnrF3IV0_241.mp4	0.0	282.5529761314392	0.9582898616790771
59	166.23242282867432	response	0	2		57.0	2.5	/experiments/knapen_aot/videos/S_yt-2IfvnrF3IV0_241.mp4	0.0	283.503103017807	
59	166.2405858039856	movie	1		301.0	57.0	2.5	/experiments/knapen_aot/videos/S_yt-2IfvnrF3IV0_241.mp4	0.0	283.5112659931183	2.5082621574401855
59	168.74884796142578	fix_post	2		12.0	57.0	2.5	/experiments/knapen_aot/videos/S_yt-2IfvnrF3IV0_241.mp4	0.0	286.0195281505585	0.10006594657897949
60	168.84891390800476	fix_pre	0		41.0	58.0	2.5	/experiments/knapen_aot/videos/S_cST9H3zu3zQ_126.mp4	0.0	286.11959409713745	0.34160709381103516
60	169.1822988986969	response	0	2		58.0	2.5	/experiments/knapen_aot/videos/S_cST9H3zu3zQ_126.mp4	0.0	286.4529790878296	
60	169.1905210018158	movie	1		301.0	58.0	2.5	/experiments/knapen_aot/videos/S_cST9H3zu3zQ_126.mp4	0.0	286.4612011909485	2.5083749294281006
60	171.6988959312439	fix_post	2		12.0	58.0	2.5	/experiments/knapen_aot/videos/S_cST9H3zu3zQ_126.mp4	0.0	288.9695761203766	0.09986686706542969
61	171.79876279830933	fix_pre	0		15.0	59.0	2.5	/experiments/knapen_aot/videos/R_S_yt-tneuR3EtSZE_72.mp4	0.0	289.069442987442	0.12509608268737793
61	171.91570281982422	response	0	2		59.0	2.5	/experiments/knapen_aot/videos/R_S_yt-tneuR3EtSZE_72.mp4	0.0	289.1863830089569	
61	171.9238588809967	movie	1		299.0	59.0	2.5	/experiments/knapen_aot/videos/R_S_yt-tneuR3EtSZE_72.mp4	0.0	289.1945390701294	2.508284091949463
61	174.43214297294617	fix_post	2		12.0	59.0	2.5	/experiments/knapen_aot/videos/R_S_yt-tneuR3EtSZE_72.mp4	0.0	291.70282316207886	0.10004782676696777
62	174.53219079971313	fix_pre	0		116.0	60.0	2.5	/experiments/knapen_aot/videos/S_comp_A351_C001_v06_SDR_PS_20180725_SDR_2K_AVC.mp4	0.0	291.8028709888458	0.9666750431060791
62	175.4831190109253	response	0	2		60.0	2.5	/experiments/knapen_aot/videos/S_comp_A351_C001_v06_SDR_PS_20180725_SDR_2K_AVC.mp4	0.0	292.753799200058	
62	175.4988658428192	movie	1		164.0	60.0	2.5	/experiments/knapen_aot/videos/S_comp_A351_C001_v06_SDR_PS_20180725_SDR_2K_AVC.mp4	0.0	292.7695460319519	2.5083110332489014
62	178.00717687606812	fix_post	2		12.0	60.0	2.5	/experiments/knapen_aot/videos/S_comp_A351_C001_v06_SDR_PS_20180725_SDR_2K_AVC.mp4	0.0	295.2778570652008	0.09998893737792969
63	178.10716581344604	fix_pre	0		16.0	61.0	2.5	blank	1.0	295.37784600257874	0.13337421417236328
63	178.23220801353455	response	0	2		61.0	2.5	blank	1.0	295.50288820266724	
63	178.2405400276184	movie	1		301.0	61.0	2.5	blank	1.0	295.5112202167511	2.5083158016204834
63	180.7488558292389	fix_post	2		12.0	61.0	2.5	blank	1.0	298.0195360183716	0.09991598129272461
64	180.84877181053162	fix_pre	0		127.0	62.0	2.5	/experiments/knapen_aot/videos/S_pexels-tima-miroshnichenko-8724308.mp4	0.0	298.1194519996643	1.0583701133728027
64	181.89904189109802	response	0	2		62.0	2.5	/experiments/knapen_aot/videos/S_pexels-tima-miroshnichenko-8724308.mp4	0.0	299.1697220802307	
64	181.90714192390442	movie	1		195.0	62.0	2.5	/experiments/knapen_aot/videos/S_pexels-tima-miroshnichenko-8724308.mp4	0.0	299.1778221130371	2.508384943008423
64	184.41552686691284	fix_post	2		12.0	62.0	2.5	/experiments/knapen_aot/videos/S_pexels-tima-miroshnichenko-8724308.mp4	0.0	301.68620705604553	0.0999460220336914
65	184.51547288894653	fix_pre	0		55.0	63.0	2.5	/experiments/knapen_aot/videos/S_comp_HK_H004_C013_t9_6M_HB_tag0.mp4	0.0	301.7861530780792	0.4582560062408447
65	184.96559190750122	response	0	2		63.0	2.5	/experiments/knapen_aot/videos/S_comp_HK_H004_C013_t9_6M_HB_tag0.mp4	0.0	302.2362720966339	
65	184.97372889518738	movie	1		170.0	63.0	2.5	/experiments/knapen_aot/videos/S_comp_HK_H004_C013_t9_6M_HB_tag0.mp4	0.0	302.24440908432007	2.508491039276123
65	187.4822199344635	fix_post	2		12.0	63.0	2.5	/experiments/knapen_aot/videos/S_comp_HK_H004_C013_t9_6M_HB_tag0.mp4	0.0	304.7529001235962	0.0998990535736084
66	187.5821189880371	fix_pre	0		6.0	64.0	2.5	/experiments/knapen_aot/videos/S_yt-CNq5mTA8oXY_176.mp4	0.0	304.8527991771698	0.05016803741455078
66	187.62407684326172	response	0	2		64.0	2.5	/experiments/knapen_aot/videos/S_yt-CNq5mTA8oXY_176.mp4	0.0	304.8947570323944	
66	187.63228702545166	movie	1		300.0	64.0	2.5	/experiments/knapen_aot/videos/S_yt-CNq5mTA8oXY_176.mp4	0.0	304.90296721458435	2.5081679821014404
66	190.1404550075531	fix_post	2		12.0	64.0	2.5	/experiments/knapen_aot/videos/S_yt-CNq5mTA8oXY_176.mp4	0.0	307.4111351966858	0.10002398490905762
67	190.24047899246216	fix_pre	0		101.0	65.0	2.5	/experiments/knapen_aot/videos/R_S_yt-4Qz0m5IYh10_167.mp4	0.0	307.51115918159485	0.8415608406066895
67	191.0739529132843	response	0	2		65.0	2.5	/experiments/knapen_aot/videos/R_S_yt-4Qz0m5IYh10_167.mp4	0.0	308.344633102417	
67	191.08203983306885	movie	1		301.0	65.0	2.5	/experiments/knapen_aot/videos/R_S_yt-4Qz0m5IYh10_167.mp4	0.0	308.35272002220154	2.5083630084991455
67	193.590402841568	fix_post	2		12.0	65.0	2.5	/experiments/knapen_aot/videos/R_S_yt-4Qz0m5IYh10_167.mp4	0.0	310.8610830307007	0.10001397132873535
68	193.69041681289673	fix_pre	0		19.0	66.0	2.5	/experiments/knapen_aot/videos/S_yt-giRwl4yChlw_9.mp4	0.0	310.9610970020294	0.15829706192016602
68	193.84055399894714	response	0	2		66.0	2.5	/experiments/knapen_aot/videos/S_yt-giRwl4yChlw_9.mp4	0.0	311.11123418807983	
68	193.8487138748169	movie	1		301.0	66.0	2.5	/experiments/knapen_aot/videos/S_yt-giRwl4yChlw_9.mp4	0.0	311.1193940639496	2.508368968963623
68	196.35708284378052	fix_post	2		12.0	66.0	2.5	/experiments/knapen_aot/videos/S_yt-giRwl4yChlw_9.mp4	0.0	313.6277630329132	0.10001015663146973
69	196.457093000412	fix_pre	0		75.0	67.0	2.5	/experiments/knapen_aot/videos/S_pexels-cottonbro-6789231.mp4	0.0	313.7277731895447	0.6249568462371826
69	197.0738809108734	response	0	2		67.0	2.5	/experiments/knapen_aot/videos/S_pexels-cottonbro-6789231.mp4	0.0	314.3445611000061	
69	197.08204984664917	movie	1		208.0	67.0	2.5	/experiments/knapen_aot/videos/S_pexels-cottonbro-6789231.mp4	0.0	314.35273003578186	2.508416175842285
69	199.59046602249146	fix_post	2		12.0	67.0	2.5	/experiments/knapen_aot/videos/S_pexels-cottonbro-6789231.mp4	0.0	316.86114621162415	0.10002589225769043
70	199.69049191474915	fix_pre	0		18.0	68.0	2.5	blank	1.0	316.96117210388184	0.14985203742980957
70	199.83224892616272	response	0	2		68.0	2.5	blank	1.0	317.1029291152954	
70	199.84034395217896	movie	1		301.0	68.0	2.5	blank	1.0	317.11102414131165	2.5084080696105957
70	202.34875202178955	fix_post	2		12.0	68.0	2.5	blank	1.0	319.61943221092224	0.09999680519104004
71	202.4487488269806	fix_pre	0		50.0	69.0	2.5	/experiments/knapen_aot/videos/R_S_yt-osz-TXlRdXs_2.mp4	0.0	319.7194290161133	0.4165520668029785
71	202.8571858406067	response	0	2		69.0	2.5	/experiments/knapen_aot/videos/R_S_yt-osz-TXlRdXs_2.mp4	0.0	320.1278660297394	
71	202.86530089378357	movie	1		301.0	69.0	2.5	/experiments/knapen_aot/videos/R_S_yt-osz-TXlRdXs_2.mp4	0.0	320.13598108291626	2.508431911468506
71	205.37373280525208	fix_post	2		12.0	69.0	2.5	/experiments/knapen_aot/videos/R_S_yt-osz-TXlRdXs_2.mp4	0.0	322.64441299438477	0.09998703002929688
72	205.47371983528137	fix_pre	0		14.0	70.0	2.5	/experiments/knapen_aot/videos/R_S_ILSVRC2015_train_00479002.mp4	0.0	322.74440002441406	0.11671304702758789
72	205.5821888446808	response	0	2		70.0	2.5	/experiments/knapen_aot/videos/R_S_ILSVRC2015_train_00479002.mp4	0.0	322.8528690338135	
72	205.59043288230896	movie	1		301.0	70.0	2.5	/experiments/knapen_aot/videos/R_S_ILSVRC2015_train_00479002.mp4	0.0	322.86111307144165	2.5083260536193848
72	208.09875893592834	fix_post	2		12.0	70.0	2.5	/experiments/knapen_aot/videos/R_S_ILSVRC2015_train_00479002.mp4	0.0	325.36943912506104	0.09999299049377441
73	208.19875192642212	fix_pre	0		83.0	71.0	2.5	/experiments/knapen_aot/videos/S_yt-GWOOQZ19-oU_331.mp4	0.0	325.4694321155548	0.6916298866271973
73	208.87459897994995	response	0	2		71.0	2.5	/experiments/knapen_aot/videos/S_yt-GWOOQZ19-oU_331.mp4	0.0	326.14527916908264	
73	208.89038181304932	movie	1		301.0	71.0	2.5	/experiments/knapen_aot/videos/S_yt-GWOOQZ19-oU_331.mp4	0.0	326.161062002182	2.5082521438598633
73	211.39863395690918	fix_post	2		12.0	71.0	2.5	/experiments/knapen_aot/videos/S_yt-GWOOQZ19-oU_331.mp4	0.0	328.66931414604187	0.10007405281066895
74	211.49870800971985	fix_pre	0		28.0	72.0	2.5	/experiments/knapen_aot/videos/R_S_yt-ZtS7ZrJ_rtk_525.mp4	0.0	328.76938819885254	0.23443198204040527
74	211.72391390800476	response	0	2		72.0	2.5	/experiments/knapen_aot/videos/R_S_yt-ZtS7ZrJ_rtk_525.mp4	0.0	328.99459409713745	
74	211.73313999176025	movie	1		301.0	72.0	2.5	/experiments/knapen_aot/videos/R_S_yt-ZtS7ZrJ_rtk_525.mp4	0.0	329.00382018089294	2.5071628093719482
74	214.2403028011322	fix_post	2		12.0	72.0	2.5	/experiments/knapen_aot/videos/R_S_yt-ZtS7ZrJ_rtk_525.mp4	0.0	331.5109829902649	0.10004401206970215
75	214.3403468132019	fix_pre	0		12.0	73.0	2.5	/experiments/knapen_aot/videos/R_S_yt-NQSCGMpo-p8_118.mp4	0.0	331.6110270023346	0.10108113288879395
75	214.43213486671448	response	0	2		73.0	2.5	/experiments/knapen_aot/videos/R_S_yt-NQSCGMpo-p8_118.mp4	0.0	331.70281505584717	
75	214.4414279460907	movie	1		301.0	73.0	2.5	/experiments/knapen_aot/videos/R_S_yt-NQSCGMpo-p8_118.mp4	0.0	331.7121081352234	2.5072579383850098
75	216.9486858844757	fix_post	2		12.0	73.0	2.5	/experiments/knapen_aot/videos/R_S_yt-NQSCGMpo-p8_118.mp4	0.0	334.2193660736084	0.10008001327514648
76	217.04876589775085	fix_pre	0		88.0	74.0	2.5	/experiments/knapen_aot/videos/S_ILSVRC2015_train_00404004.mp4	0.0	334.31944608688354	0.7332170009613037
76	217.77382683753967	response	0	2		74.0	2.5	/experiments/knapen_aot/videos/S_ILSVRC2015_train_00404004.mp4	0.0	335.04450702667236	
76	217.78198289871216	movie	1		301.0	74.0	2.5	/experiments/knapen_aot/videos/S_ILSVRC2015_train_00404004.mp4	0.0	335.05266308784485	2.508363962173462
76	220.29034686088562	fix_post	2		12.0	74.0	2.5	/experiments/knapen_aot/videos/S_ILSVRC2015_train_00404004.mp4	0.0	337.5610270500183	0.10011410713195801
77	220.39046096801758	fix_pre	0		21.0	75.0	2.5	/experiments/knapen_aot/videos/S_wc-hmW1OnCPF_xn_37.mp4	0.0	337.66114115715027	0.17597603797912598
77	220.5571208000183	response	0	2		75.0	2.5	/experiments/knapen_aot/videos/S_wc-hmW1OnCPF_xn_37.mp4	0.0	337.827800989151	
77	220.5664370059967	movie	1		165.0	75.0	2.5	/experiments/knapen_aot/videos/S_wc-hmW1OnCPF_xn_37.mp4	0.0	337.8371171951294	2.507154941558838
77	223.07359194755554	fix_post	2		12.0	75.0	2.5	/experiments/knapen_aot/videos/S_wc-hmW1OnCPF_xn_37.mp4	0.0	340.34427213668823	0.10002303123474121
78	223.17361497879028	fix_pre	0		80.0	76.0	2.5	blank	1.0	340.444295167923	0.6666998863220215
78	223.83212184906006	response	0	2		76.0	2.5	blank	1.0	341.10280203819275	
78	223.8403148651123	movie	1		301.0	76.0	2.5	blank	1.0	341.110995054245	2.508357048034668
78	226.34867191314697	fix_post	2		12.0	76.0	2.5	blank	1.0	343.61935210227966	0.0999898910522461
79	226.44866180419922	fix_pre	0		28.0	77.0	2.5	/experiments/knapen_aot/videos/S_yt-dkBlyE3igk0_44.mp4	0.0	343.7193419933319	0.23330211639404297
79	226.67375493049622	response	0	2		77.0	2.5	/experiments/knapen_aot/videos/S_yt-dkBlyE3igk0_44.mp4	0.0	343.9444351196289	
79	226.68196392059326	movie	1		301.0	77.0	2.5	/experiments/knapen_aot/videos/S_yt-dkBlyE3igk0_44.mp4	0.0	343.95264410972595	2.508294105529785
79	229.19025802612305	fix_post	2		12.0	77.0	2.5	/experiments/knapen_aot/videos/S_yt-dkBlyE3igk0_44.mp4	0.0	346.46093821525574	0.10002398490905762
80	229.2902820110321	fix_pre	0		15.0	78.0	2.5	/experiments/knapen_aot/videos/R_S_yt-jbvXEFk2Gyw_12.mp4	0.0	346.5609622001648	0.12497997283935547
80	229.40708780288696	response	0	2		78.0	2.5	/experiments/knapen_aot/videos/R_S_yt-jbvXEFk2Gyw_12.mp4	0.0	346.67776799201965	
80	229.41526198387146	movie	1		301.0	78.0	2.5	/experiments/knapen_aot/videos/R_S_yt-jbvXEFk2Gyw_12.mp4	0.0	346.68594217300415	2.508344888687134
80	231.9236068725586	fix_post	2		12.0	78.0	2.5	/experiments/knapen_aot/videos/R_S_yt-jbvXEFk2Gyw_12.mp4	0.0	349.1942870616913	0.10000109672546387
81	232.02360796928406	fix_pre	0		28.0	79.0	2.5	/experiments/knapen_aot/videos/R_S_yt-BAQ3Xhm_PPE_23.mp4	0.0	349.29428815841675	0.23334097862243652
81	232.24129486083984	response	0	2		79.0	2.5	/experiments/knapen_aot/videos/R_S_yt-BAQ3Xhm_PPE_23.mp4	0.0	349.51197504997253	
81	232.2569489479065	movie	1		301.0	79.0	2.5	/experiments/knapen_aot/videos/R_S_yt-BAQ3Xhm_PPE_23.mp4	0.0	349.5276291370392	2.5082900524139404
81	234.76523900032043	fix_post	2		12.0	79.0	2.5	/experiments/knapen_aot/videos/R_S_yt-BAQ3Xhm_PPE_23.mp4	0.0	352.0359191894531	0.10000491142272949
82	234.86524391174316	fix_pre	0		11.0	80.0	2.5	/experiments/knapen_aot/videos/S_yt-B8Sy53C6Pxw_8.mp4	0.0	352.13592410087585	0.09169602394104004
82	234.94873785972595	response	0	2		80.0	2.5	/experiments/knapen_aot/videos/S_yt-B8Sy53C6Pxw_8.mp4	0.0	352.21941804885864	
82	234.9569399356842	movie	1		301.0	80.0	2.5	/experiments/knapen_aot/videos/S_yt-B8Sy53C6Pxw_8.mp4	0.0	352.2276201248169	2.508327007293701
82	237.4652669429779	fix_post	2		12.0	80.0	2.5	/experiments/knapen_aot/videos/S_yt-B8Sy53C6Pxw_8.mp4	0.0	354.7359471321106	0.10099005699157715
83	237.56625699996948	fix_pre	0		21.0	81.0	2.5	/experiments/knapen_aot/videos/S_FK_U009_C004_SDR_20191220_SDR_2K_AVC.mp4	0.0	354.8369371891022	0.17401790618896484
83	237.7245500087738	response	0	2		81.0	2.5	/experiments/knapen_aot/videos/S_FK_U009_C004_SDR_20191220_SDR_2K_AVC.mp4	0.0	354.9952301979065	
83	237.74027490615845	movie	1		167.0	81.0	2.5	/experiments/knapen_aot/videos/S_FK_U009_C004_SDR_20191220_SDR_2K_AVC.mp4	0.0	355.01095509529114	2.5083069801330566
83	240.2485818862915	fix_post	2		12.0	81.0	2.5	/experiments/knapen_aot/videos/S_FK_U009_C004_SDR_20191220_SDR_2K_AVC.mp4	0.0	357.5192620754242	0.09992599487304688
84	240.34850788116455	fix_pre	0		8.0	82.0	2.5	blank	1.0	357.61918807029724	0.06670498847961426
84	240.40705800056458	response	0	2		82.0	2.5	blank	1.0	357.67773818969727	
84	240.41521286964417	movie	1		301.0	82.0	2.5	blank	1.0	357.68589305877686	2.5083630084991455
84	242.9235758781433	fix_post	2		12.0	82.0	2.5	blank	1.0	360.194256067276	0.1000051498413086
85	243.02358102798462	fix_pre	0		24.0	83.0	2.5	/experiments/knapen_aot/videos/S_yt-TSSPDwAQLXs_158.mp4	0.0	360.2942612171173	0.19995999336242676
85	243.21529388427734	response	0	2		83.0	2.5	/experiments/knapen_aot/videos/S_yt-TSSPDwAQLXs_158.mp4	0.0	360.48597407341003	
85	243.22354102134705	movie	1		301.0	83.0	2.5	/experiments/knapen_aot/videos/S_yt-TSSPDwAQLXs_158.mp4	0.0	360.49422121047974	2.5083940029144287
85	245.73193502426147	fix_post	2		12.0	83.0	2.5	/experiments/knapen_aot/videos/S_yt-TSSPDwAQLXs_158.mp4	0.0	363.00261521339417	0.09992599487304688
87	245.83186101913452	stim	0		222.0					363.1025412082672	1.8523797988891602
87	245.95696783065796	response	0	2						363.22764801979065	
87	247.67736291885376	response	0	space						364.94804310798645	
