trial_nr	onset	event_type	phase	response	nr_frames	movie_index	movie_duration	movie_file	blank	onset_abs	duration
0	0.12509393692016602	stim	0		55.0					93.49002695083618	0.458219051361084
0	0.5750288963317871	response	0	space						93.9399619102478	
1	0.58331298828125	stim	0		121.0					93.94824600219727	1.0080180168151855
1	1.5913310050964355	stim	1		120.0					94.95626401901245	0.9999849796295166
1	1.6164109706878662	response	1	space						94.98134398460388	
1	1.8663759231567383	response	1	space						95.23130893707275	
1	2.186913013458252	response	1	2						95.55184602737427	
1	2.4707398414611816	response	1	space						95.8356728553772	
2	2.591315984725952	fix_pre	0		31.0	0.0	2.5	/experiments/knapen_aot/videos/R_S_yt-M8wvzt_BMXM_173.mp4	0.0	95.95624899864197	0.2583630084991455
2	2.8338558673858643	response	0	space		0.0	2.5	/experiments/knapen_aot/videos/R_S_yt-M8wvzt_BMXM_173.mp4	0.0	96.19878888130188	
2	2.8496789932250977	movie	1		301.0	0.0	2.5	/experiments/knapen_aot/videos/R_S_yt-M8wvzt_BMXM_173.mp4	0.0	96.21461200714111	2.5083508491516113
2	5.358029842376709	fix_post	2		12.0	0.0	2.5	/experiments/knapen_aot/videos/R_S_yt-M8wvzt_BMXM_173.mp4	0.0	98.72296285629272	0.09999704360961914
3	5.458026885986328	fix_pre	0		78.0	1.0	2.5	/experiments/knapen_aot/videos/S_yt-BiBS8EO5GPc_4.mp4	0.0	98.82295989990234	0.6499290466308594
3	6.103687047958374	response	0	2		1.0	2.5	/experiments/knapen_aot/videos/S_yt-BiBS8EO5GPc_4.mp4	0.0	99.46862006187439	
3	6.1079559326171875	movie	1		299.0	1.0	2.5	/experiments/knapen_aot/videos/S_yt-BiBS8EO5GPc_4.mp4	0.0	99.4728889465332	2.508301019668579
3	8.616256952285767	fix_post	2		12.0	1.0	2.5	/experiments/knapen_aot/videos/S_yt-BiBS8EO5GPc_4.mp4	0.0	101.98118996620178	0.10004901885986328
4	8.71630597114563	fix_pre	0		133.0	2.0	2.5	/experiments/knapen_aot/videos/R_S_yt-alGXD2Drh_g_19.mp4	0.0	102.08123898506165	1.1082780361175537
4	9.81641697883606	response	0	2		2.0	2.5	/experiments/knapen_aot/videos/R_S_yt-alGXD2Drh_g_19.mp4	0.0	103.18134999275208	
4	9.824584007263184	movie	1		301.0	2.0	2.5	/experiments/knapen_aot/videos/R_S_yt-alGXD2Drh_g_19.mp4	0.0	103.1895170211792	2.508465051651001
4	12.333049058914185	fix_post	2		12.0	2.0	2.5	/experiments/knapen_aot/videos/R_S_yt-alGXD2Drh_g_19.mp4	0.0	105.6979820728302	0.09991288185119629
5	12.43296194076538	fix_pre	0		43.0	3.0	2.5	/experiments/knapen_aot/videos/S_yt-9EnchawJ3pA_90.mp4	0.0	105.7978949546814	0.3583409786224365
5	12.783084869384766	response	0	2		3.0	2.5	/experiments/knapen_aot/videos/S_yt-9EnchawJ3pA_90.mp4	0.0	106.14801788330078	
5	12.791302919387817	movie	1		301.0	3.0	2.5	/experiments/knapen_aot/videos/S_yt-9EnchawJ3pA_90.mp4	0.0	106.15623593330383	2.508310079574585
5	15.044502019882202	response	1	2		3.0	2.5	/experiments/knapen_aot/videos/S_yt-9EnchawJ3pA_90.mp4	0.0	108.40943503379822	
5	15.299612998962402	fix_post	2		12.0	3.0	2.5	/experiments/knapen_aot/videos/S_yt-9EnchawJ3pA_90.mp4	0.0	108.66454601287842	0.09997892379760742
6	15.39959192276001	fix_pre	0		108.0	4.0	2.5	/experiments/knapen_aot/videos/S_yt-EvKV7iY1_HM_193.mp4	0.0	108.76452493667603	0.8999860286712646
6	16.291409969329834	response	0	2		4.0	2.5	/experiments/knapen_aot/videos/S_yt-EvKV7iY1_HM_193.mp4	0.0	109.65634298324585	
6	16.299577951431274	movie	1		301.0	4.0	2.5	/experiments/knapen_aot/videos/S_yt-EvKV7iY1_HM_193.mp4	0.0	109.66451096534729	2.5082950592041016
6	18.807873010635376	fix_post	2		12.0	4.0	2.5	/experiments/knapen_aot/videos/S_yt-EvKV7iY1_HM_193.mp4	0.0	112.17280602455139	0.10007286071777344
7	18.90794587135315	fix_pre	0		31.0	5.0	2.5	/experiments/knapen_aot/videos/R_S_yt-KQq7vTlXUiQ_173.mp4	0.0	112.27287888526917	0.2583191394805908
7	19.158041954040527	response	0	2		5.0	2.5	/experiments/knapen_aot/videos/R_S_yt-KQq7vTlXUiQ_173.mp4	0.0	112.52297496795654	
7	19.16626501083374	movie	1		301.0	5.0	2.5	/experiments/knapen_aot/videos/R_S_yt-KQq7vTlXUiQ_173.mp4	0.0	112.53119802474976	2.50839900970459
7	21.67466402053833	fix_post	2		12.0	5.0	2.5	/experiments/knapen_aot/videos/R_S_yt-KQq7vTlXUiQ_173.mp4	0.0	115.03959703445435	0.10012698173522949
8	21.77479100227356	fix_pre	0		82.0	6.0	2.5	blank	1.0	115.13972401618958	0.6831369400024414
8	22.449790000915527	response	0	2		6.0	2.5	blank	1.0	115.81472301483154	
8	22.457927942276	movie	1		301.0	6.0	2.5	blank	1.0	115.82286095619202	2.508305072784424
8	24.966233015060425	fix_post	2		12.0	6.0	2.5	blank	1.0	118.33116602897644	0.10020089149475098
9	25.066433906555176	fix_pre	0		39.0	7.0	2.5	/experiments/knapen_aot/videos/S_yt-qE70lj3-A78_228.mp4	0.0	118.43136692047119	0.3247990608215332
9	25.383014917373657	response	0	2		7.0	2.5	/experiments/knapen_aot/videos/S_yt-qE70lj3-A78_228.mp4	0.0	118.74794793128967	
9	25.39123296737671	movie	1		301.0	7.0	2.5	/experiments/knapen_aot/videos/S_yt-qE70lj3-A78_228.mp4	0.0	118.75616598129272	2.5084428787231445
9	27.899675846099854	fix_post	2		12.0	7.0	2.5	/experiments/knapen_aot/videos/S_yt-qE70lj3-A78_228.mp4	0.0	121.26460886001587	0.09988212585449219
10	27.999557971954346	fix_pre	0		128.0	8.0	2.5	/experiments/knapen_aot/videos/S_yt-kxWtOXNIsRA_329.mp4	0.0	121.36449098587036	1.0666449069976807
10	29.05800986289978	response	0	2		8.0	2.5	/experiments/knapen_aot/videos/S_yt-kxWtOXNIsRA_329.mp4	0.0	122.4229428768158	
10	29.066202878952026	movie	1		301.0	8.0	2.5	/experiments/knapen_aot/videos/S_yt-kxWtOXNIsRA_329.mp4	0.0	122.43113589286804	2.5083789825439453
10	31.57458186149597	fix_post	2		12.0	8.0	2.5	/experiments/knapen_aot/videos/S_yt-kxWtOXNIsRA_329.mp4	0.0	124.93951487541199	0.09997200965881348
11	31.674553871154785	fix_pre	0		75.0	9.0	2.5	/experiments/knapen_aot/videos/S_yt-2IfvnrF3IV0_241.mp4	0.0	125.0394868850708	0.6249589920043945
11	32.29131007194519	response	0	2		9.0	2.5	/experiments/knapen_aot/videos/S_yt-2IfvnrF3IV0_241.mp4	0.0	125.6562430858612	
11	32.29951286315918	movie	1		301.0	9.0	2.5	/experiments/knapen_aot/videos/S_yt-2IfvnrF3IV0_241.mp4	0.0	125.6644458770752	2.508376121520996
11	34.807888984680176	fix_post	2		12.0	9.0	2.5	/experiments/knapen_aot/videos/S_yt-2IfvnrF3IV0_241.mp4	0.0	128.1728219985962	0.09996986389160156
12	34.90785884857178	fix_pre	0		63.0	10.0	2.5	/experiments/knapen_aot/videos/S_ILSVRC2015_train_00479001.mp4	0.0	128.2727918624878	0.5261600017547607
12	35.42459487915039	response	0	2		10.0	2.5	/experiments/knapen_aot/videos/S_ILSVRC2015_train_00479001.mp4	0.0	128.7895278930664	
12	35.43401885032654	movie	1		301.0	10.0	2.5	/experiments/knapen_aot/videos/S_ILSVRC2015_train_00479001.mp4	0.0	128.79895186424255	2.5071752071380615
12	37.9411940574646	fix_post	2		12.0	10.0	2.5	/experiments/knapen_aot/videos/S_ILSVRC2015_train_00479001.mp4	0.0	131.30612707138062	0.10004782676696777
13	38.04124188423157	fix_pre	0		79.0	11.0	2.5	/experiments/knapen_aot/videos/S_yt-hekMMCluhnU_18.mp4	0.0	131.40617489814758	0.6582281589508057
13	38.69133806228638	response	0	2		11.0	2.5	/experiments/knapen_aot/videos/S_yt-hekMMCluhnU_18.mp4	0.0	132.0562710762024	
13	38.69947004318237	movie	1		301.0	11.0	2.5	/experiments/knapen_aot/videos/S_yt-hekMMCluhnU_18.mp4	0.0	132.0644030570984	2.5083398818969727
13	41.207809925079346	fix_post	2		12.0	11.0	2.5	/experiments/knapen_aot/videos/S_yt-hekMMCluhnU_18.mp4	0.0	134.57274293899536	0.10014200210571289
14	41.30795192718506	fix_pre	0		77.0	12.0	2.5	blank	1.0	134.67288494110107	0.6414809226989746
14	41.94125485420227	response	0	2		12.0	2.5	blank	1.0	135.3061878681183	
14	41.94943284988403	movie	1		301.0	12.0	2.5	blank	1.0	135.31436586380005	2.508437156677246
14	44.45787000656128	fix_post	2		12.0	12.0	2.5	blank	1.0	137.8228030204773	0.0999748706817627
15	44.55784487724304	fix_pre	0		187.0	13.0	2.5	/experiments/knapen_aot/videos/R_S_ILSVRC2015_train_00457000.mp4	0.0	137.92277789115906	1.5582540035247803
15	46.10795307159424	response	0	2		13.0	2.5	/experiments/knapen_aot/videos/R_S_ILSVRC2015_train_00457000.mp4	0.0	139.47288608551025	
15	46.11609888076782	movie	1		301.0	13.0	2.5	/experiments/knapen_aot/videos/R_S_ILSVRC2015_train_00457000.mp4	0.0	139.48103189468384	2.5083560943603516
15	48.624454975128174	fix_post	2		12.0	13.0	2.5	/experiments/knapen_aot/videos/R_S_ILSVRC2015_train_00457000.mp4	0.0	141.9893879890442	0.10004901885986328
16	48.72450399398804	fix_pre	0		54.0	14.0	2.5	/experiments/knapen_aot/videos/R_S_yt-4GDusA21cEA_170.mp4	0.0	142.08943700790405	0.44992589950561523
16	49.16623497009277	response	0	2		14.0	2.5	/experiments/knapen_aot/videos/R_S_yt-4GDusA21cEA_170.mp4	0.0	142.5311679840088	
16	49.17442989349365	movie	1		301.0	14.0	2.5	/experiments/knapen_aot/videos/R_S_yt-4GDusA21cEA_170.mp4	0.0	142.53936290740967	2.508366107940674
16	51.682796001434326	fix_post	2		12.0	14.0	2.5	/experiments/knapen_aot/videos/R_S_yt-4GDusA21cEA_170.mp4	0.0	145.04772901535034	0.10000395774841309
17	51.78279995918274	fix_pre	0		24.0	15.0	2.5	/experiments/knapen_aot/videos/R_S_yt-QOnORDmVMyU_10.mp4	0.0	145.14773297309875	0.1999809741973877
17	51.974501848220825	response	0	2		15.0	2.5	/experiments/knapen_aot/videos/R_S_yt-QOnORDmVMyU_10.mp4	0.0	145.33943486213684	
17	51.98278093338013	movie	1		301.0	15.0	2.5	/experiments/knapen_aot/videos/R_S_yt-QOnORDmVMyU_10.mp4	0.0	145.34771394729614	2.5083229541778564
17	54.49110388755798	fix_post	2		12.0	15.0	2.5	/experiments/knapen_aot/videos/R_S_yt-QOnORDmVMyU_10.mp4	0.0	147.856036901474	0.09999895095825195
18	54.591102838516235	fix_pre	0		36.0	16.0	2.5	/experiments/knapen_aot/videos/S_ILSVRC2015_train_00652001.mp4	0.0	147.95603585243225	0.3010890483856201
18	54.88290596008301	response	0	2		16.0	2.5	/experiments/knapen_aot/videos/S_ILSVRC2015_train_00652001.mp4	0.0	148.24783897399902	
18	54.892191886901855	movie	1		301.0	16.0	2.5	/experiments/knapen_aot/videos/S_ILSVRC2015_train_00652001.mp4	0.0	148.25712490081787	2.5072481632232666
18	57.39944005012512	fix_post	2		12.0	16.0	2.5	/experiments/knapen_aot/videos/S_ILSVRC2015_train_00652001.mp4	0.0	150.76437306404114	0.0999908447265625
19	57.499430894851685	fix_pre	0		38.0	17.0	2.5	/experiments/knapen_aot/videos/R_S_yt-14tjqjjjAEI_15.mp4	0.0	150.8643639087677	0.3167250156402588
19	57.80788803100586	response	0	2		17.0	2.5	/experiments/knapen_aot/videos/R_S_yt-14tjqjjjAEI_15.mp4	0.0	151.17282104492188	
19	57.81615591049194	movie	1		301.0	17.0	2.5	/experiments/knapen_aot/videos/R_S_yt-14tjqjjjAEI_15.mp4	0.0	151.18108892440796	2.5083060264587402
19	60.324461936950684	fix_post	2		12.0	17.0	2.5	/experiments/knapen_aot/videos/R_S_yt-14tjqjjjAEI_15.mp4	0.0	153.6893949508667	0.09995913505554199
20	60.424421072006226	fix_pre	0		96.0	18.0	2.5	/experiments/knapen_aot/videos/S_yt-pPIHiIYSjW8_653.mp4	0.0	153.78935408592224	0.8011319637298584
20	61.216224908828735	response	0	2		18.0	2.5	/experiments/knapen_aot/videos/S_yt-pPIHiIYSjW8_653.mp4	0.0	154.58115792274475	
20	61.225553035736084	movie	1		301.0	18.0	2.5	/experiments/knapen_aot/videos/S_yt-pPIHiIYSjW8_653.mp4	0.0	154.5904860496521	2.5073108673095703
20	63.732863903045654	fix_post	2		12.0	18.0	2.5	/experiments/knapen_aot/videos/S_yt-pPIHiIYSjW8_653.mp4	0.0	157.09779691696167	0.09983301162719727
21	63.83269691467285	fix_pre	0		46.0	19.0	2.5	/experiments/knapen_aot/videos/R_S_ILSVRC2015_train_00371006.mp4	0.0	157.19762992858887	0.38335204124450684
21	64.20785689353943	response	0	2		19.0	2.5	/experiments/knapen_aot/videos/R_S_ILSVRC2015_train_00371006.mp4	0.0	157.57278990745544	
21	64.21604895591736	movie	1		301.0	19.0	2.5	/experiments/knapen_aot/videos/R_S_ILSVRC2015_train_00371006.mp4	0.0	157.58098196983337	2.508457899093628
21	66.72450685501099	fix_post	2		12.0	19.0	2.5	/experiments/knapen_aot/videos/R_S_ILSVRC2015_train_00371006.mp4	0.0	160.089439868927	0.0999000072479248
22	66.82440686225891	fix_pre	0		46.0	20.0	2.5	blank	1.0	160.18933987617493	0.3832590579986572
22	67.19948291778564	response	0	2		20.0	2.5	blank	1.0	160.56441593170166	
22	67.20766592025757	movie	1		301.0	20.0	2.5	blank	1.0	160.57259893417358	2.5083141326904297
22	69.715980052948	fix_post	2		12.0	20.0	2.5	blank	1.0	163.080913066864	0.10008502006530762
23	69.8160650730133	fix_pre	0		7.0	21.0	2.5	/experiments/knapen_aot/videos/R_S_yt-5doJmCcFL7s_3.mp4	0.0	163.18099808692932	0.058293819427490234
23	69.86620688438416	response	0	2		21.0	2.5	/experiments/knapen_aot/videos/R_S_yt-5doJmCcFL7s_3.mp4	0.0	163.23113989830017	
23	69.8743588924408	movie	1		301.0	21.0	2.5	/experiments/knapen_aot/videos/R_S_yt-5doJmCcFL7s_3.mp4	0.0	163.2392919063568	2.5083491802215576
23	72.38270807266235	fix_post	2		12.0	21.0	2.5	/experiments/knapen_aot/videos/R_S_yt-5doJmCcFL7s_3.mp4	0.0	165.74764108657837	0.10005688667297363
24	72.48276495933533	fix_pre	0		81.0	22.0	2.5	/experiments/knapen_aot/videos/R_S_yt-xBwq6sHHF5M_21.mp4	0.0	165.84769797325134	0.6749420166015625
24	73.14947390556335	response	0	2		22.0	2.5	/experiments/knapen_aot/videos/R_S_yt-xBwq6sHHF5M_21.mp4	0.0	166.51440691947937	
24	73.15770697593689	movie	1		301.0	22.0	2.5	/experiments/knapen_aot/videos/R_S_yt-xBwq6sHHF5M_21.mp4	0.0	166.5226399898529	2.508557081222534
24	75.66626405715942	fix_post	2		12.0	22.0	2.5	/experiments/knapen_aot/videos/R_S_yt-xBwq6sHHF5M_21.mp4	0.0	169.03119707107544	0.09977984428405762
25	75.76604390144348	fix_pre	0		110.0	23.0	2.5	/experiments/knapen_aot/videos/R_S_yt--v_iMUMMX6g_39.mp4	0.0	169.1309769153595	0.9175889492034912
25	76.67448306083679	response	0	2		23.0	2.5	/experiments/knapen_aot/videos/R_S_yt--v_iMUMMX6g_39.mp4	0.0	170.0394160747528	
25	76.68363285064697	movie	1		301.0	23.0	2.5	/experiments/knapen_aot/videos/R_S_yt--v_iMUMMX6g_39.mp4	0.0	170.048565864563	2.5073931217193604
25	79.19102597236633	fix_post	2		12.0	23.0	2.5	/experiments/knapen_aot/videos/R_S_yt--v_iMUMMX6g_39.mp4	0.0	172.55595898628235	0.09998393058776855
26	79.2910099029541	fix_pre	0		57.0	24.0	2.5	/experiments/knapen_aot/videos/R_S_production_ID_4121250.mp4	0.0	172.65594291687012	0.47615814208984375
26	79.75775504112244	response	0	2		24.0	2.5	/experiments/knapen_aot/videos/R_S_production_ID_4121250.mp4	0.0	173.12268805503845	
26	79.76716804504395	movie	1		162.0	24.0	2.5	/experiments/knapen_aot/videos/R_S_production_ID_4121250.mp4	0.0	173.13210105895996	2.5071709156036377
26	82.27433896064758	fix_post	2		12.0	24.0	2.5	/experiments/knapen_aot/videos/R_S_production_ID_4121250.mp4	0.0	175.6392719745636	0.09995889663696289
27	82.37429785728455	fix_pre	0		244.0	25.0	2.5	/experiments/knapen_aot/videos/R_S_ILSVRC2015_train_00697001.mp4	0.0	175.73923087120056	2.0333001613616943
27	84.39939785003662	response	0	2		25.0	2.5	/experiments/knapen_aot/videos/R_S_ILSVRC2015_train_00697001.mp4	0.0	177.76433086395264	
27	84.40759801864624	movie	1		301.0	25.0	2.5	/experiments/knapen_aot/videos/R_S_ILSVRC2015_train_00697001.mp4	0.0	177.77253103256226	2.5083558559417725
27	86.91595387458801	fix_post	2		12.0	25.0	2.5	/experiments/knapen_aot/videos/R_S_ILSVRC2015_train_00697001.mp4	0.0	180.28088688850403	0.10002398490905762
28	87.01597785949707	fix_pre	0		32.0	26.0	2.5	/experiments/knapen_aot/videos/S_ILSVRC2015_train_00697001.mp4	0.0	180.3809108734131	0.2665700912475586
28	87.27439594268799	response	0	2		26.0	2.5	/experiments/knapen_aot/videos/S_ILSVRC2015_train_00697001.mp4	0.0	180.639328956604	
28	87.28254795074463	movie	1		301.0	26.0	2.5	/experiments/knapen_aot/videos/S_ILSVRC2015_train_00697001.mp4	0.0	180.64748096466064	2.5084431171417236
28	89.79099106788635	fix_post	2		12.0	26.0	2.5	/experiments/knapen_aot/videos/S_ILSVRC2015_train_00697001.mp4	0.0	183.15592408180237	0.09995388984680176
29	89.89094495773315	fix_pre	0		60.0	27.0	2.5	blank	1.0	183.25587797164917	0.5010600090026855
29	90.38275194168091	response	0	2		27.0	2.5	blank	1.0	183.74768495559692	
29	90.39200496673584	movie	1		301.0	27.0	2.5	blank	1.0	183.75693798065186	2.507391929626465
29	92.8993968963623	fix_post	2		12.0	27.0	2.5	blank	1.0	186.26432991027832	0.09988594055175781
30	92.99928283691406	fix_pre	0		30.0	28.0	2.5	/experiments/knapen_aot/videos/R_S_yt-GETRVzxihhM_74.mp4	0.0	186.36421585083008	0.2499711513519287
30	93.24108099937439	response	0	2		28.0	2.5	/experiments/knapen_aot/videos/R_S_yt-GETRVzxihhM_74.mp4	0.0	186.6060140132904	
30	93.24925398826599	movie	1		301.0	28.0	2.5	/experiments/knapen_aot/videos/R_S_yt-GETRVzxihhM_74.mp4	0.0	186.614187002182	2.5084190368652344
30	95.75767302513123	fix_post	2		12.0	28.0	2.5	/experiments/knapen_aot/videos/R_S_yt-GETRVzxihhM_74.mp4	0.0	189.12260603904724	0.09999394416809082
31	95.85766696929932	fix_pre	0		136.0	29.0	2.5	/experiments/knapen_aot/videos/R_S_yt-KK6fVRAMm-c_476.mp4	0.0	189.22259998321533	1.1331989765167236
31	96.98289489746094	response	0	2		29.0	2.5	/experiments/knapen_aot/videos/R_S_yt-KK6fVRAMm-c_476.mp4	0.0	190.34782791137695	
31	96.99086594581604	movie	1		301.0	29.0	2.5	/experiments/knapen_aot/videos/R_S_yt-KK6fVRAMm-c_476.mp4	0.0	190.35579895973206	2.5083510875701904
31	99.49921703338623	fix_post	2		12.0	29.0	2.5	/experiments/knapen_aot/videos/R_S_yt-KK6fVRAMm-c_476.mp4	0.0	192.86415004730225	0.10013794898986816
32	99.5993549823761	fix_pre	0		85.0	30.0	2.5	/experiments/knapen_aot/videos/S_yt-7Z6Kmp0n7L8_145.mp4	0.0	192.96428799629211	0.7090160846710205
32	100.29184699058533	response	0	2		30.0	2.5	/experiments/knapen_aot/videos/S_yt-7Z6Kmp0n7L8_145.mp4	0.0	193.65678000450134	
32	100.30837106704712	movie	1		301.0	30.0	2.5	/experiments/knapen_aot/videos/S_yt-7Z6Kmp0n7L8_145.mp4	0.0	193.67330408096313	2.507556915283203
32	102.81592798233032	fix_post	2		12.0	30.0	2.5	/experiments/knapen_aot/videos/S_yt-7Z6Kmp0n7L8_145.mp4	0.0	196.18086099624634	0.10000991821289062
33	102.91593790054321	fix_pre	0		69.0	31.0	2.5	/experiments/knapen_aot/videos/S_b1-3.mp4	0.0	196.28087091445923	0.5749039649963379
33	103.48267984390259	response	0	2		31.0	2.5	/experiments/knapen_aot/videos/S_b1-3.mp4	0.0	196.8476128578186	
33	103.49084186553955	movie	1		166.0	31.0	2.5	/experiments/knapen_aot/videos/S_b1-3.mp4	0.0	196.85577487945557	2.508418083190918
33	105.99925994873047	fix_post	2		12.0	31.0	2.5	/experiments/knapen_aot/videos/S_b1-3.mp4	0.0	199.36419296264648	0.09997892379760742
34	106.09923887252808	fix_pre	0		44.0	32.0	2.5	/experiments/knapen_aot/videos/S_pexels-rodnae-productions-5617905.mp4	0.0	199.4641718864441	0.3665740489959717
34	106.45785999298096	response	0	2		32.0	2.5	/experiments/knapen_aot/videos/S_pexels-rodnae-productions-5617905.mp4	0.0	199.82279300689697	
34	106.46581292152405	movie	1		164.0	32.0	2.5	/experiments/knapen_aot/videos/S_pexels-rodnae-productions-5617905.mp4	0.0	199.83074593544006	2.5084660053253174
34	108.97427892684937	fix_post	2		12.0	32.0	2.5	/experiments/knapen_aot/videos/S_pexels-rodnae-productions-5617905.mp4	0.0	202.33921194076538	0.09993195533752441
35	109.07421088218689	fix_pre	0		48.0	33.0	2.5	/experiments/knapen_aot/videos/S_yt-GETRVzxihhM_74.mp4	0.0	202.4391438961029	0.4008500576019287
35	109.46597504615784	response	0	2		33.0	2.5	/experiments/knapen_aot/videos/S_yt-GETRVzxihhM_74.mp4	0.0	202.83090806007385	
35	109.47506093978882	movie	1		301.0	33.0	2.5	/experiments/knapen_aot/videos/S_yt-GETRVzxihhM_74.mp4	0.0	202.83999395370483	2.5074269771575928
35	111.98248791694641	fix_post	2		12.0	33.0	2.5	/experiments/knapen_aot/videos/S_yt-GETRVzxihhM_74.mp4	0.0	205.34742093086243	0.10040593147277832
36	112.08289384841919	fix_pre	0		70.0	34.0	2.5	/experiments/knapen_aot/videos/S_yt-jeVeQBuzbEQ_120.mp4	0.0	205.4478268623352	0.5829541683197021
36	112.65756297111511	response	0	2		34.0	2.5	/experiments/knapen_aot/videos/S_yt-jeVeQBuzbEQ_120.mp4	0.0	206.02249598503113	
36	112.66584801673889	movie	1		301.0	34.0	2.5	/experiments/knapen_aot/videos/S_yt-jeVeQBuzbEQ_120.mp4	0.0	206.0307810306549	2.5083179473876953
36	115.17416596412659	fix_post	2		12.0	34.0	2.5	/experiments/knapen_aot/videos/S_yt-jeVeQBuzbEQ_120.mp4	0.0	208.5390989780426	0.1000978946685791
37	115.27426385879517	fix_pre	0		64.0	35.0	2.5	blank	1.0	208.63919687271118	0.5340042114257812
37	115.79931497573853	response	0	2		35.0	2.5	blank	1.0	209.16424798965454	
37	115.80826807022095	movie	1		301.0	35.0	2.5	blank	1.0	209.17320108413696	2.507589817047119
37	118.31585788726807	fix_post	2		12.0	35.0	2.5	blank	1.0	211.68079090118408	0.09998202323913574
38	118.4158399105072	fix_pre	0		33.0	36.0	2.5	/experiments/knapen_aot/videos/S_production_ID_3761571.mp4	0.0	211.78077292442322	0.2748990058898926
38	118.68262791633606	response	0	2		36.0	2.5	/experiments/knapen_aot/videos/S_production_ID_3761571.mp4	0.0	212.04756093025208	
38	118.6907389163971	movie	1		162.0	36.0	2.5	/experiments/knapen_aot/videos/S_production_ID_3761571.mp4	0.0	212.0556719303131	2.508455991744995
38	121.19919490814209	fix_post	2		12.0	36.0	2.5	/experiments/knapen_aot/videos/S_production_ID_3761571.mp4	0.0	214.5641279220581	0.10007095336914062
39	121.29926586151123	fix_pre	0		56.0	37.0	2.5	/experiments/knapen_aot/videos/S_comp_LA_A006_C004_v01_SDR_FINAL_PS_20180730_SDR_2K_AVC.mp4	0.0	214.66419887542725	0.4672811031341553
39	121.75765705108643	response	0	2		37.0	2.5	/experiments/knapen_aot/videos/S_comp_LA_A006_C004_v01_SDR_FINAL_PS_20180730_SDR_2K_AVC.mp4	0.0	215.12259006500244	
39	121.76654696464539	movie	1		165.0	37.0	2.5	/experiments/knapen_aot/videos/S_comp_LA_A006_C004_v01_SDR_FINAL_PS_20180730_SDR_2K_AVC.mp4	0.0	215.1314799785614	2.5077600479125977
39	124.27430701255798	fix_post	2		12.0	37.0	2.5	/experiments/knapen_aot/videos/S_comp_LA_A006_C004_v01_SDR_FINAL_PS_20180730_SDR_2K_AVC.mp4	0.0	217.639240026474	0.09984993934631348
40	124.3741569519043	fix_pre	0		60.0	38.0	2.5	/experiments/knapen_aot/videos/R_S_production_ID_3761571.mp4	0.0	217.7390899658203	0.4999880790710449
40	124.8658618927002	response	0	2		38.0	2.5	/experiments/knapen_aot/videos/R_S_production_ID_3761571.mp4	0.0	218.2307949066162	
40	124.87414503097534	movie	1		164.0	38.0	2.5	/experiments/knapen_aot/videos/R_S_production_ID_3761571.mp4	0.0	218.23907804489136	2.50836181640625
40	127.38250684738159	fix_post	2		12.0	38.0	2.5	/experiments/knapen_aot/videos/R_S_production_ID_3761571.mp4	0.0	220.7474398612976	0.09993815422058105
41	127.48244500160217	fix_pre	0		271.0	39.0	2.5	/experiments/knapen_aot/videos/S_yt-QqSceHxY3d0_356.mp4	0.0	220.8473780155182	2.258262872695923
41	129.73261094093323	response	0	2		39.0	2.5	/experiments/knapen_aot/videos/S_yt-QqSceHxY3d0_356.mp4	0.0	223.09754395484924	
41	129.7407078742981	movie	1		301.0	39.0	2.5	/experiments/knapen_aot/videos/S_yt-QqSceHxY3d0_356.mp4	0.0	223.1056408882141	2.5083651542663574
41	132.24907302856445	fix_post	2		12.0	39.0	2.5	/experiments/knapen_aot/videos/S_yt-QqSceHxY3d0_356.mp4	0.0	225.61400604248047	0.1000528335571289
42	132.34912586212158	fix_pre	0		77.0	40.0	2.5	blank	1.0	225.7140588760376	0.641646146774292
42	132.98259091377258	response	0	2		40.0	2.5	blank	1.0	226.3475239276886	
42	132.99077200889587	movie	1		301.0	40.0	2.5	blank	1.0	226.3557050228119	2.5084168910980225
42	135.4991888999939	fix_post	2		12.0	40.0	2.5	blank	1.0	228.8641219139099	0.09986710548400879
43	135.5990560054779	fix_pre	0		42.0	41.0	2.5	/experiments/knapen_aot/videos/R_S_comp_GMT060_117NC_363D_1034_AUSTRALIA_v35_SDR_PS_FINAL_20180731_SDR_2K_AVC.mp4	0.0	228.96398901939392	0.3499300479888916
43	135.9409110546112	response	0	2		41.0	2.5	/experiments/knapen_aot/videos/R_S_comp_GMT060_117NC_363D_1034_AUSTRALIA_v35_SDR_PS_FINAL_20180731_SDR_2K_AVC.mp4	0.0	229.30584406852722	
43	135.9489860534668	movie	1		164.0	41.0	2.5	/experiments/knapen_aot/videos/R_S_comp_GMT060_117NC_363D_1034_AUSTRALIA_v35_SDR_PS_FINAL_20180731_SDR_2K_AVC.mp4	0.0	229.3139190673828	2.5084428787231445
43	138.45742893218994	fix_post	2		12.0	41.0	2.5	/experiments/knapen_aot/videos/R_S_comp_GMT060_117NC_363D_1034_AUSTRALIA_v35_SDR_PS_FINAL_20180731_SDR_2K_AVC.mp4	0.0	231.82236194610596	0.09998607635498047
44	138.55741500854492	fix_pre	0		63.0	42.0	2.5	/experiments/knapen_aot/videos/S_wc-NzEeGIXLxvwp_19.mp4	0.0	231.92234802246094	0.5250208377838135
44	139.0742380619049	response	0	2		42.0	2.5	/experiments/knapen_aot/videos/S_wc-NzEeGIXLxvwp_19.mp4	0.0	232.43917107582092	
44	139.08243584632874	movie	1		162.0	42.0	2.5	/experiments/knapen_aot/videos/S_wc-NzEeGIXLxvwp_19.mp4	0.0	232.44736886024475	2.508341073989868
44	141.5907769203186	fix_post	2		12.0	42.0	2.5	/experiments/knapen_aot/videos/S_wc-NzEeGIXLxvwp_19.mp4	0.0	234.95570993423462	0.09992408752441406
45	141.69070100784302	fix_pre	0		55.0	43.0	2.5	/experiments/knapen_aot/videos/S_production_ID_3709168.mp4	0.0	235.05563402175903	0.45830392837524414
45	142.14106392860413	response	0	2		43.0	2.5	/experiments/knapen_aot/videos/S_production_ID_3709168.mp4	0.0	235.50599694252014	
45	142.14900493621826	movie	1		199.0	43.0	2.5	/experiments/knapen_aot/videos/S_production_ID_3709168.mp4	0.0	235.51393795013428	2.5083749294281006
45	144.65737986564636	fix_post	2		12.0	43.0	2.5	/experiments/knapen_aot/videos/S_production_ID_3709168.mp4	0.0	238.02231287956238	0.10004115104675293
46	144.75742101669312	fix_pre	0		54.0	44.0	2.5	/experiments/knapen_aot/videos/R_S_yt-N7ztk2fa3Ls_137.mp4	0.0	238.12235403060913	0.44994688034057617
46	145.19917106628418	response	0	2		44.0	2.5	/experiments/knapen_aot/videos/R_S_yt-N7ztk2fa3Ls_137.mp4	0.0	238.5641040802002	
46	145.2073678970337	movie	1		301.0	44.0	2.5	/experiments/knapen_aot/videos/R_S_yt-N7ztk2fa3Ls_137.mp4	0.0	238.5723009109497	2.5083680152893066
46	147.715735912323	fix_post	2		12.0	44.0	2.5	/experiments/knapen_aot/videos/R_S_yt-N7ztk2fa3Ls_137.mp4	0.0	241.080668926239	0.09998011589050293
47	147.8157160282135	fix_pre	0		55.0	45.0	2.5	/experiments/knapen_aot/videos/R_S_ILSVRC2015_train_00584001.mp4	0.0	241.18064904212952	0.45834898948669434
47	148.26582503318787	response	0	2		45.0	2.5	/experiments/knapen_aot/videos/R_S_ILSVRC2015_train_00584001.mp4	0.0	241.63075804710388	
47	148.2740650177002	movie	1		301.0	45.0	2.5	/experiments/knapen_aot/videos/R_S_ILSVRC2015_train_00584001.mp4	0.0	241.6389980316162	2.5084588527679443
47	150.78252387046814	fix_post	2		12.0	45.0	2.5	/experiments/knapen_aot/videos/R_S_ILSVRC2015_train_00584001.mp4	0.0	244.14745688438416	0.0999441146850586
48	150.8824679851532	fix_pre	0		86.0	46.0	2.5	/experiments/knapen_aot/videos/R_S_yt-gDZnJCR2uXI_18.mp4	0.0	244.2474009990692	0.7172079086303711
48	151.5908019542694	response	0	2		46.0	2.5	/experiments/knapen_aot/videos/R_S_yt-gDZnJCR2uXI_18.mp4	0.0	244.95573496818542	
48	151.59967589378357	movie	1		301.0	46.0	2.5	/experiments/knapen_aot/videos/R_S_yt-gDZnJCR2uXI_18.mp4	0.0	244.96460890769958	2.5077099800109863
48	154.10738587379456	fix_post	2		12.0	46.0	2.5	/experiments/knapen_aot/videos/R_S_yt-gDZnJCR2uXI_18.mp4	0.0	247.47231888771057	0.09996509552001953
49	154.20735096931458	fix_pre	0		108.0	47.0	2.5	/experiments/knapen_aot/videos/R_S_yt-NZIhxK5NvWE_152.mp4	0.0	247.5722839832306	0.9000768661499023
49	155.09914994239807	response	0	2		47.0	2.5	/experiments/knapen_aot/videos/R_S_yt-NZIhxK5NvWE_152.mp4	0.0	248.4640829563141	
49	155.10742783546448	movie	1		301.0	47.0	2.5	/experiments/knapen_aot/videos/R_S_yt-NZIhxK5NvWE_152.mp4	0.0	248.4723608493805	2.508446216583252
49	157.61587405204773	fix_post	2		12.0	47.0	2.5	/experiments/knapen_aot/videos/R_S_yt-NZIhxK5NvWE_152.mp4	0.0	250.98080706596375	0.09978389739990234
50	157.71565794944763	fix_pre	0		79.0	48.0	2.5	blank	1.0	251.08059096336365	0.6583240032196045
50	158.3657410144806	response	0	2		48.0	2.5	blank	1.0	251.7306740283966	
50	158.37398195266724	movie	1		301.0	48.0	2.5	blank	1.0	251.73891496658325	2.5085411071777344
50	160.88252305984497	fix_post	2		12.0	48.0	2.5	blank	1.0	254.247456073761	0.09982490539550781
51	160.98234796524048	fix_pre	0		36.0	49.0	2.5	/experiments/knapen_aot/videos/S_yt-mQRzWCcKOR8_28.mp4	0.0	254.3472809791565	0.29993605613708496
51	161.26671195030212	response	0	2		49.0	2.5	/experiments/knapen_aot/videos/S_yt-mQRzWCcKOR8_28.mp4	0.0	254.63164496421814	
51	161.28228402137756	movie	1		301.0	49.0	2.5	/experiments/knapen_aot/videos/S_yt-mQRzWCcKOR8_28.mp4	0.0	254.64721703529358	2.508415937423706
51	163.79069995880127	fix_post	2		12.0	49.0	2.5	/experiments/knapen_aot/videos/S_yt-mQRzWCcKOR8_28.mp4	0.0	257.1556329727173	0.10002803802490234
52	163.89072799682617	fix_pre	0		38.0	50.0	2.5	/experiments/knapen_aot/videos/S_yt-2l6VKd94eAI_151.mp4	0.0	257.2556610107422	0.3165700435638428
52	164.199147939682	response	0	2		50.0	2.5	/experiments/knapen_aot/videos/S_yt-2l6VKd94eAI_151.mp4	0.0	257.564080953598	
52	164.20729804039001	movie	1		301.0	50.0	2.5	/experiments/knapen_aot/videos/S_yt-2l6VKd94eAI_151.mp4	0.0	257.57223105430603	2.5085439682006836
52	166.7158420085907	fix_post	2		12.0	50.0	2.5	/experiments/knapen_aot/videos/S_yt-2l6VKd94eAI_151.mp4	0.0	260.0807750225067	0.09984397888183594
53	166.81568598747253	fix_pre	0		158.0	51.0	2.5	/experiments/knapen_aot/videos/S_comp_GMT110_112NC_364D_1054_AURORA_ANTARTICA__COMP_FINAL_v34_PS_SDR_20181107_SDR_2K_AVC.mp4	0.0	260.18061900138855	1.316598892211914
53	168.12409806251526	response	0	2		51.0	2.5	/experiments/knapen_aot/videos/S_comp_GMT110_112NC_364D_1054_AURORA_ANTARTICA__COMP_FINAL_v34_PS_SDR_20181107_SDR_2K_AVC.mp4	0.0	261.4890310764313	
53	168.13228487968445	movie	1		162.0	51.0	2.5	/experiments/knapen_aot/videos/S_comp_GMT110_112NC_364D_1054_AURORA_ANTARTICA__COMP_FINAL_v34_PS_SDR_20181107_SDR_2K_AVC.mp4	0.0	261.49721789360046	2.5083320140838623
53	170.6406168937683	fix_post	2		12.0	51.0	2.5	/experiments/knapen_aot/videos/S_comp_GMT110_112NC_364D_1054_AURORA_ANTARTICA__COMP_FINAL_v34_PS_SDR_20181107_SDR_2K_AVC.mp4	0.0	264.0055499076843	0.10002899169921875
54	170.74064588546753	fix_pre	0		78.0	52.0	2.5	/experiments/knapen_aot/videos/S_comp_GMT060_117NC_363D_1034_AUSTRALIA_v35_SDR_PS_FINAL_20180731_SDR_2K_AVC.mp4	0.0	264.10557889938354	0.6504130363464355
54	171.38245487213135	response	0	2		52.0	2.5	/experiments/knapen_aot/videos/S_comp_GMT060_117NC_363D_1034_AUSTRALIA_v35_SDR_PS_FINAL_20180731_SDR_2K_AVC.mp4	0.0	264.74738788604736	
54	171.39105892181396	movie	1		165.0	52.0	2.5	/experiments/knapen_aot/videos/S_comp_GMT060_117NC_363D_1034_AUSTRALIA_v35_SDR_PS_FINAL_20180731_SDR_2K_AVC.mp4	0.0	264.75599193573	2.507923126220703
54	173.89898204803467	fix_post	2		12.0	52.0	2.5	/experiments/knapen_aot/videos/S_comp_GMT060_117NC_363D_1034_AUSTRALIA_v35_SDR_PS_FINAL_20180731_SDR_2K_AVC.mp4	0.0	267.2639150619507	0.10001301765441895
55	173.9989950656891	fix_pre	0		121.0	53.0	2.5	/experiments/knapen_aot/videos/R_S_wc-1MzpHfRq1MUK_32.mp4	0.0	267.3639280796051	1.008288860321045
55	174.99906396865845	response	0	2		53.0	2.5	/experiments/knapen_aot/videos/R_S_wc-1MzpHfRq1MUK_32.mp4	0.0	268.36399698257446	
55	175.00728392601013	movie	1		301.0	53.0	2.5	/experiments/knapen_aot/videos/R_S_wc-1MzpHfRq1MUK_32.mp4	0.0	268.37221693992615	2.508626937866211
55	177.51591086387634	fix_post	2		12.0	53.0	2.5	/experiments/knapen_aot/videos/R_S_wc-1MzpHfRq1MUK_32.mp4	0.0	270.88084387779236	0.09970712661743164
56	177.61561799049377	fix_pre	0		93.0	54.0	2.5	blank	1.0	270.9805510044098	0.775378942489624
56	178.3824429512024	response	0	2		54.0	2.5	blank	1.0	271.7473759651184	
56	178.3909969329834	movie	1		301.0	54.0	2.5	blank	1.0	271.7559299468994	2.5079689025878906
56	180.8989658355713	fix_post	2		12.0	54.0	2.5	blank	1.0	274.2638988494873	0.10001802444458008
57	180.99898386001587	fix_pre	0		35.0	55.0	2.5	/experiments/knapen_aot/videos/S_pexels-rodnae-productions-5617905.mp4	0.0	274.3639168739319	0.2915980815887451
57	181.28237295150757	response	0	2		55.0	2.5	/experiments/knapen_aot/videos/S_pexels-rodnae-productions-5617905.mp4	0.0	274.6473059654236	
57	181.29058194160461	movie	1		164.0	55.0	2.5	/experiments/knapen_aot/videos/S_pexels-rodnae-productions-5617905.mp4	0.0	274.65551495552063	2.508415937423706
57	183.79899787902832	fix_post	2		12.0	55.0	2.5	/experiments/knapen_aot/videos/S_pexels-rodnae-productions-5617905.mp4	0.0	277.16393089294434	0.09993696212768555
58	183.898934841156	fix_pre	0		154.0	56.0	2.5	/experiments/knapen_aot/videos/R_S_bing-www_break_com_video_like-a-cat-catching-a-fly-3131008_12.mp4	0.0	277.263867855072	1.2837982177734375
58	185.17401003837585	response	0	2		56.0	2.5	/experiments/knapen_aot/videos/R_S_bing-www_break_com_video_like-a-cat-catching-a-fly-3131008_12.mp4	0.0	278.53894305229187	
58	185.18273305892944	movie	1		301.0	56.0	2.5	/experiments/knapen_aot/videos/R_S_bing-www_break_com_video_like-a-cat-catching-a-fly-3131008_12.mp4	0.0	278.54766607284546	2.5078787803649902
58	187.69061183929443	fix_post	2		12.0	56.0	2.5	/experiments/knapen_aot/videos/R_S_bing-www_break_com_video_like-a-cat-catching-a-fly-3131008_12.mp4	0.0	281.05554485321045	0.0999751091003418
59	187.79058694839478	fix_pre	0		197.0	57.0	2.5	/experiments/knapen_aot/videos/R_S_wc-NzEeGIXLxvwp_19.mp4	0.0	281.1555199623108	1.6419260501861572
59	189.4239718914032	response	0	2		57.0	2.5	/experiments/knapen_aot/videos/R_S_wc-NzEeGIXLxvwp_19.mp4	0.0	282.7889049053192	
59	189.43251299858093	movie	1		163.0	57.0	2.5	/experiments/knapen_aot/videos/R_S_wc-NzEeGIXLxvwp_19.mp4	0.0	282.79744601249695	2.508002996444702
59	191.94051599502563	fix_post	2		12.0	57.0	2.5	/experiments/knapen_aot/videos/R_S_wc-NzEeGIXLxvwp_19.mp4	0.0	285.30544900894165	0.10005903244018555
60	192.04057502746582	fix_pre	0		78.0	58.0	2.5	/experiments/knapen_aot/videos/S_ILSVRC2015_train_00165008.mp4	0.0	285.40550804138184	0.6499309539794922
60	192.68248295783997	response	0	2		58.0	2.5	/experiments/knapen_aot/videos/S_ILSVRC2015_train_00165008.mp4	0.0	286.047415971756	
60	192.6905059814453	movie	1		301.0	58.0	2.5	/experiments/knapen_aot/videos/S_ILSVRC2015_train_00165008.mp4	0.0	286.0554389953613	2.5084068775177
60	195.198912858963	fix_post	2		12.0	58.0	2.5	/experiments/knapen_aot/videos/S_ILSVRC2015_train_00165008.mp4	0.0	288.563845872879	0.1001901626586914
61	195.2991030216217	fix_pre	0		27.0	59.0	2.5	/experiments/knapen_aot/videos/R_S_S005_C015_SDR_2K_AVC.mp4	0.0	288.6640360355377	0.22484087944030762
61	195.5156819820404	response	0	2		59.0	2.5	/experiments/knapen_aot/videos/R_S_S005_C015_SDR_2K_AVC.mp4	0.0	288.8806149959564	
61	195.523943901062	movie	1		172.0	59.0	2.5	/experiments/knapen_aot/videos/R_S_S005_C015_SDR_2K_AVC.mp4	0.0	288.888876914978	2.5082781314849854
61	198.032222032547	fix_post	2		12.0	59.0	2.5	/experiments/knapen_aot/videos/R_S_S005_C015_SDR_2K_AVC.mp4	0.0	291.397155046463	0.09995603561401367
62	198.132178068161	fix_pre	0		36.0	60.0	2.5	/experiments/knapen_aot/videos/S_yt-MXLxcvKZDHw_22.mp4	0.0	291.497111082077	0.3003098964691162
62	198.42400002479553	response	0	2		60.0	2.5	/experiments/knapen_aot/videos/S_yt-MXLxcvKZDHw_22.mp4	0.0	291.78893303871155	
62	198.43248796463013	movie	1		301.0	60.0	2.5	/experiments/knapen_aot/videos/S_yt-MXLxcvKZDHw_22.mp4	0.0	291.79742097854614	2.508168935775757
62	200.94065690040588	fix_post	2		12.0	60.0	2.5	/experiments/knapen_aot/videos/S_yt-MXLxcvKZDHw_22.mp4	0.0	294.3055899143219	0.09999299049377441
63	201.04064989089966	fix_pre	0		182.0	61.0	2.5	/experiments/knapen_aot/videos/S_yt-tOOaOzYvtKE_79.mp4	0.0	294.4055829048157	1.5167889595031738
63	202.54893398284912	response	0	2		61.0	2.5	/experiments/knapen_aot/videos/S_yt-tOOaOzYvtKE_79.mp4	0.0	295.91386699676514	
63	202.55743885040283	movie	1		301.0	61.0	2.5	/experiments/knapen_aot/videos/S_yt-tOOaOzYvtKE_79.mp4	0.0	295.92237186431885	2.508190155029297
63	205.06562900543213	fix_post	2		12.0	61.0	2.5	/experiments/knapen_aot/videos/S_yt-tOOaOzYvtKE_79.mp4	0.0	298.43056201934814	0.0998849868774414
64	205.16551399230957	fix_pre	0		41.0	62.0	2.5	/experiments/knapen_aot/videos/S_yt-GyMWMiWvuiA_237.mp4	0.0	298.5304470062256	0.34165406227111816
64	205.49888396263123	response	0	2		62.0	2.5	/experiments/knapen_aot/videos/S_yt-GyMWMiWvuiA_237.mp4	0.0	298.86381697654724	
64	205.5071680545807	movie	1		301.0	62.0	2.5	/experiments/knapen_aot/videos/S_yt-GyMWMiWvuiA_237.mp4	0.0	298.8721010684967	2.5083348751068115
64	208.0155029296875	fix_post	2		12.0	62.0	2.5	/experiments/knapen_aot/videos/S_yt-GyMWMiWvuiA_237.mp4	0.0	301.3804359436035	0.10015201568603516
65	208.11565494537354	fix_pre	0		77.0	63.0	2.5	blank	1.0	301.48058795928955	0.6416099071502686
65	208.74890089035034	response	0	2		63.0	2.5	blank	1.0	302.11383390426636	
65	208.7572648525238	movie	1		301.0	63.0	2.5	blank	1.0	302.1221978664398	2.508122205734253
65	211.26538705825806	fix_post	2		12.0	63.0	2.5	blank	1.0	304.6303200721741	0.10002398490905762
66	211.36541104316711	fix_pre	0		60.0	64.0	2.5	/experiments/knapen_aot/videos/R_S_comp_GMT060_117NC_363D_1034_AUSTRALIA_v35_SDR_PS_FINAL_20180731_SDR_2K_AVC.mp4	0.0	304.73034405708313	0.49999094009399414
66	211.85718488693237	response	0	2		64.0	2.5	/experiments/knapen_aot/videos/R_S_comp_GMT060_117NC_363D_1034_AUSTRALIA_v35_SDR_PS_FINAL_20180731_SDR_2K_AVC.mp4	0.0	305.2221179008484	
66	211.8654019832611	movie	1		164.0	64.0	2.5	/experiments/knapen_aot/videos/R_S_comp_GMT060_117NC_363D_1034_AUSTRALIA_v35_SDR_PS_FINAL_20180731_SDR_2K_AVC.mp4	0.0	305.2303349971771	2.5083460807800293
66	214.37374806404114	fix_post	2		12.0	64.0	2.5	/experiments/knapen_aot/videos/R_S_comp_GMT060_117NC_363D_1034_AUSTRALIA_v35_SDR_PS_FINAL_20180731_SDR_2K_AVC.mp4	0.0	307.73868107795715	0.10002398490905762
67	214.4737720489502	fix_pre	0		57.0	65.0	2.5	/experiments/knapen_aot/videos/R_S_production_ID_3761571.mp4	0.0	307.8387050628662	0.47498297691345215
67	214.94054985046387	response	0	2		65.0	2.5	/experiments/knapen_aot/videos/R_S_production_ID_3761571.mp4	0.0	308.3054828643799	
67	214.94875502586365	movie	1		164.0	65.0	2.5	/experiments/knapen_aot/videos/R_S_production_ID_3761571.mp4	0.0	308.31368803977966	2.508309841156006
67	217.45706486701965	fix_post	2		12.0	65.0	2.5	/experiments/knapen_aot/videos/R_S_production_ID_3761571.mp4	0.0	310.82199788093567	0.10003018379211426
68	217.55709505081177	fix_pre	0		99.0	66.0	2.5	/experiments/knapen_aot/videos/S_yt-Xs-YKSogfak_24.mp4	0.0	310.9220280647278	0.8249289989471436
68	218.37386798858643	response	0	2		66.0	2.5	/experiments/knapen_aot/videos/S_yt-Xs-YKSogfak_24.mp4	0.0	311.73880100250244	
68	218.3820240497589	movie	1		301.0	66.0	2.5	/experiments/knapen_aot/videos/S_yt-Xs-YKSogfak_24.mp4	0.0	311.7469570636749	2.508424997329712
68	220.89044904708862	fix_post	2		12.0	66.0	2.5	/experiments/knapen_aot/videos/S_yt-Xs-YKSogfak_24.mp4	0.0	314.25538206100464	0.09998679161071777
69	220.99043583869934	fix_pre	0		248.0	67.0	2.5	/experiments/knapen_aot/videos/R_S_yt-o0Hbe7kcPps_70.mp4	0.0	314.35536885261536	2.066801071166992
69	223.04886984825134	response	0	2		67.0	2.5	/experiments/knapen_aot/videos/R_S_yt-o0Hbe7kcPps_70.mp4	0.0	316.41380286216736	
69	223.05723690986633	movie	1		301.0	67.0	2.5	/experiments/knapen_aot/videos/R_S_yt-o0Hbe7kcPps_70.mp4	0.0	316.42216992378235	2.5081980228424072
69	225.56543493270874	fix_post	2		12.0	67.0	2.5	/experiments/knapen_aot/videos/R_S_yt-o0Hbe7kcPps_70.mp4	0.0	318.93036794662476	0.0999150276184082
70	225.66534996032715	fix_pre	0		34.0	68.0	2.5	/experiments/knapen_aot/videos/S_yt--UhwpukdyBg_51.mp4	0.0	319.03028297424316	0.2833290100097656
70	225.9405698776245	response	0	2		68.0	2.5	/experiments/knapen_aot/videos/S_yt--UhwpukdyBg_51.mp4	0.0	319.3055028915405	
70	225.9486789703369	movie	1		300.0	68.0	2.5	/experiments/knapen_aot/videos/S_yt--UhwpukdyBg_51.mp4	0.0	319.31361198425293	2.5114588737487793
70	228.4601378440857	fix_post	2		12.0	68.0	2.5	/experiments/knapen_aot/videos/S_yt--UhwpukdyBg_51.mp4	0.0	321.8250708580017	0.09719014167785645
71	228.55732798576355	fix_pre	0		86.0	69.0	2.5	blank	1.0	321.92226099967957	0.716346025466919
71	229.2655599117279	response	0	2		69.0	2.5	blank	1.0	322.6304929256439	
71	229.27367401123047	movie	1		301.0	69.0	2.5	blank	1.0	322.6386070251465	2.508507013320923
71	231.7821810245514	fix_post	2		12.0	69.0	2.5	blank	1.0	325.1471140384674	0.09987401962280273
72	231.8820550441742	fix_pre	0		41.0	70.0	2.5	/experiments/knapen_aot/videos/S_yt-1UFhynm5g6Y_266.mp4	0.0	325.2469880580902	0.34177589416503906
72	232.21542286872864	response	0	2		70.0	2.5	/experiments/knapen_aot/videos/S_yt-1UFhynm5g6Y_266.mp4	0.0	325.58035588264465	
72	232.22383093833923	movie	1		298.0	70.0	2.5	/experiments/knapen_aot/videos/S_yt-1UFhynm5g6Y_266.mp4	0.0	325.58876395225525	2.508246898651123
72	234.73207783699036	fix_post	2		12.0	70.0	2.5	/experiments/knapen_aot/videos/S_yt-1UFhynm5g6Y_266.mp4	0.0	328.0970108509064	0.09993815422058105
73	234.83201599121094	fix_pre	0		262.0	71.0	2.5	/experiments/knapen_aot/videos/R_S_yt-9EnchawJ3pA_90.mp4	0.0	328.19694900512695	2.1834089756011963
73	237.00709295272827	response	0	2		71.0	2.5	/experiments/knapen_aot/videos/R_S_yt-9EnchawJ3pA_90.mp4	0.0	330.3720259666443	
73	237.01542496681213	movie	1		301.0	71.0	2.5	/experiments/knapen_aot/videos/R_S_yt-9EnchawJ3pA_90.mp4	0.0	330.38035798072815	2.5082669258117676
73	239.5236918926239	fix_post	2		12.0	71.0	2.5	/experiments/knapen_aot/videos/R_S_yt-9EnchawJ3pA_90.mp4	0.0	332.8886249065399	0.0999290943145752
74	239.62362098693848	fix_pre	0		42.0	72.0	2.5	/experiments/knapen_aot/videos/S_yt-YykKZWKmLnQ_386.mp4	0.0	332.9885540008545	0.35007786750793457
74	239.96541595458984	response	0	2		72.0	2.5	/experiments/knapen_aot/videos/S_yt-YykKZWKmLnQ_386.mp4	0.0	333.33034896850586	
74	239.9736988544464	movie	1		301.0	72.0	2.5	/experiments/knapen_aot/videos/S_yt-YykKZWKmLnQ_386.mp4	0.0	333.3386318683624	2.508347988128662
74	242.48204684257507	fix_post	2		12.0	72.0	2.5	/experiments/knapen_aot/videos/S_yt-YykKZWKmLnQ_386.mp4	0.0	335.8469798564911	0.0999460220336914
75	242.58199286460876	fix_pre	0		35.0	73.0	2.5	/experiments/knapen_aot/videos/S_yt-EuyfT0PuOoQ_91.mp4	0.0	335.9469258785248	0.2916390895843506
75	242.86539101600647	response	0	2		73.0	2.5	/experiments/knapen_aot/videos/S_yt-EuyfT0PuOoQ_91.mp4	0.0	336.2303240299225	
75	242.87363195419312	movie	1		301.0	73.0	2.5	/experiments/knapen_aot/videos/S_yt-EuyfT0PuOoQ_91.mp4	0.0	336.23856496810913	2.508352041244507
75	245.38198399543762	fix_post	2		12.0	73.0	2.5	/experiments/knapen_aot/videos/S_yt-EuyfT0PuOoQ_91.mp4	0.0	338.74691700935364	0.09997391700744629
76	245.48195791244507	fix_pre	0		44.0	74.0	2.5	/experiments/knapen_aot/videos/S_ILSVRC2015_train_00479001.mp4	0.0	338.8468909263611	0.36685895919799805
76	245.84038591384888	response	0	2		74.0	2.5	/experiments/knapen_aot/videos/S_ILSVRC2015_train_00479001.mp4	0.0	339.2053189277649	
76	245.84881687164307	movie	1		301.0	74.0	2.5	/experiments/knapen_aot/videos/S_ILSVRC2015_train_00479001.mp4	0.0	339.2137498855591	2.5082240104675293
76	248.3570408821106	fix_post	2		12.0	74.0	2.5	/experiments/knapen_aot/videos/S_ILSVRC2015_train_00479001.mp4	0.0	341.7219738960266	0.09985518455505371
77	248.45689606666565	fix_pre	0		29.0	75.0	2.5	/experiments/knapen_aot/videos/R_S_yt-oVrkSsEpuvk_118.mp4	0.0	341.82182908058167	0.2416830062866211
77	248.6905300617218	response	0	2		75.0	2.5	/experiments/knapen_aot/videos/R_S_yt-oVrkSsEpuvk_118.mp4	0.0	342.0554630756378	
77	248.69857907295227	movie	1		301.0	75.0	2.5	/experiments/knapen_aot/videos/R_S_yt-oVrkSsEpuvk_118.mp4	0.0	342.0635120868683	2.508387804031372
77	251.20696687698364	fix_post	2		12.0	75.0	2.5	/experiments/knapen_aot/videos/R_S_yt-oVrkSsEpuvk_118.mp4	0.0	344.57189989089966	0.10008001327514648
78	251.3070468902588	fix_pre	0		38.0	76.0	2.5	blank	1.0	344.6719799041748	0.3165249824523926
78	251.61541986465454	response	0	2		76.0	2.5	blank	1.0	344.98035287857056	
78	251.62357187271118	movie	1		301.0	76.0	2.5	blank	1.0	344.9885048866272	2.508486032485962
78	254.13205790519714	fix_post	2		12.0	76.0	2.5	blank	1.0	347.49699091911316	0.09987616539001465
79	254.23193407058716	fix_pre	0		55.0	77.0	2.5	/experiments/knapen_aot/videos/R_S_yt-Ozx_f0a0ZDI_32.mp4	0.0	347.5968670845032	0.4584059715270996
79	254.68204593658447	response	0	2		77.0	2.5	/experiments/knapen_aot/videos/R_S_yt-Ozx_f0a0ZDI_32.mp4	0.0	348.0469789505005	
79	254.69034004211426	movie	1		301.0	77.0	2.5	/experiments/knapen_aot/videos/R_S_yt-Ozx_f0a0ZDI_32.mp4	0.0	348.0552730560303	2.5081839561462402
79	257.1985239982605	fix_post	2		12.0	77.0	2.5	/experiments/knapen_aot/videos/R_S_yt-Ozx_f0a0ZDI_32.mp4	0.0	350.5634570121765	0.10007405281066895
80	257.29859805107117	fix_pre	0		60.0	78.0	2.5	/experiments/knapen_aot/videos/S_comp_GMT060_117NC_363D_1034_AUSTRALIA_v35_SDR_PS_FINAL_20180731_SDR_2K_AVC.mp4	0.0	350.6635310649872	0.49999189376831055
80	257.7904598712921	response	0	2		78.0	2.5	/experiments/knapen_aot/videos/S_comp_GMT060_117NC_363D_1034_AUSTRALIA_v35_SDR_PS_FINAL_20180731_SDR_2K_AVC.mp4	0.0	351.15539288520813	
80	257.7985899448395	movie	1		166.0	78.0	2.5	/experiments/knapen_aot/videos/S_comp_GMT060_117NC_363D_1034_AUSTRALIA_v35_SDR_PS_FINAL_20180731_SDR_2K_AVC.mp4	0.0	351.1635229587555	2.5084218978881836
80	260.30701184272766	fix_post	2		12.0	78.0	2.5	/experiments/knapen_aot/videos/S_comp_GMT060_117NC_363D_1034_AUSTRALIA_v35_SDR_PS_FINAL_20180731_SDR_2K_AVC.mp4	0.0	353.6719448566437	0.09998512268066406
81	260.4069969654083	fix_pre	0		98.0	79.0	2.5	/experiments/knapen_aot/videos/S_ILSVRC2015_train_00465000.mp4	0.0	353.77192997932434	0.8165740966796875
81	261.21531796455383	response	0	2		79.0	2.5	/experiments/knapen_aot/videos/S_ILSVRC2015_train_00465000.mp4	0.0	354.58025097846985	
81	261.223571062088	movie	1		301.0	79.0	2.5	/experiments/knapen_aot/videos/S_ILSVRC2015_train_00465000.mp4	0.0	354.588504076004	2.50833797454834
81	263.2070188522339	response	1	2		79.0	2.5	/experiments/knapen_aot/videos/S_ILSVRC2015_train_00465000.mp4	0.0	356.5719518661499	
81	263.73190903663635	fix_post	2		12.0	79.0	2.5	/experiments/knapen_aot/videos/S_ILSVRC2015_train_00465000.mp4	0.0	357.09684205055237	0.10000491142272949
82	263.8319139480591	fix_pre	0		116.0	80.0	2.5	/experiments/knapen_aot/videos/S_yt-7W50lcw5FCo_37.mp4	0.0	357.1968469619751	0.9665861129760742
82	264.7902920246124	response	0	2		80.0	2.5	/experiments/knapen_aot/videos/S_yt-7W50lcw5FCo_37.mp4	0.0	358.15522503852844	
82	264.79850006103516	movie	1		301.0	80.0	2.5	/experiments/knapen_aot/videos/S_yt-7W50lcw5FCo_37.mp4	0.0	358.1634330749512	2.508417844772339
82	267.3069179058075	fix_post	2		12.0	80.0	2.5	/experiments/knapen_aot/videos/S_yt-7W50lcw5FCo_37.mp4	0.0	360.6718509197235	0.09996199607849121
83	267.406879901886	fix_pre	0		45.0	81.0	2.5	/experiments/knapen_aot/videos/S_ILSVRC2015_train_00697001.mp4	0.0	360.771812915802	0.375
83	267.77360701560974	response	0	2		81.0	2.5	/experiments/knapen_aot/videos/S_ILSVRC2015_train_00697001.mp4	0.0	361.13854002952576	
83	267.781879901886	movie	1		301.0	81.0	2.5	/experiments/knapen_aot/videos/S_ILSVRC2015_train_00697001.mp4	0.0	361.146812915802	2.5083370208740234
83	270.29021692276	fix_post	2		12.0	81.0	2.5	/experiments/knapen_aot/videos/S_ILSVRC2015_train_00697001.mp4	0.0	363.655149936676	0.10010910034179688
84	270.3903260231018	fix_pre	0		37.0	82.0	2.5	blank	1.0	363.7552590370178	0.308215856552124
84	270.69028997421265	response	0	2		82.0	2.5	blank	1.0	364.05522298812866	
84	270.69854187965393	movie	1		301.0	82.0	2.5	blank	1.0	364.06347489356995	2.508329153060913
84	273.20687103271484	fix_post	2		12.0	82.0	2.5	blank	1.0	366.57180404663086	0.1000368595123291
85	273.3069078922272	fix_pre	0		263.0	83.0	2.5	/experiments/knapen_aot/videos/S_bing-www_dailymotion_com_video_x64hzm7_8.mp4	0.0	366.6718409061432	2.1915700435638428
85	275.49025797843933	response	0	2		83.0	2.5	/experiments/knapen_aot/videos/S_bing-www_dailymotion_com_video_x64hzm7_8.mp4	0.0	368.85519099235535	
85	275.498477935791	movie	1		164.0	83.0	2.5	/experiments/knapen_aot/videos/S_bing-www_dailymotion_com_video_x64hzm7_8.mp4	0.0	368.86341094970703	2.5083460807800293
85	278.00682401657104	fix_post	2		12.0	83.0	2.5	/experiments/knapen_aot/videos/S_bing-www_dailymotion_com_video_x64hzm7_8.mp4	0.0	371.37175703048706	0.10003399848937988
87	278.1068580150604	stim	0		139.0					371.47179102897644	1.158296823501587
87	278.4985649585724	response	0	2						371.8634979724884	
87	279.25812292099	response	0	space						372.623055934906	
