trial_nr	onset	event_type	phase	response	nr_frames	movie_index	movie_duration	movie_file	blank	onset_abs	duration
0	0.1378040313720703	stim	0		37.0					99.19862294197083	0.3081629276275635
0	0.43788790702819824	response	0	space						99.49870681762695	
0	0.43798303604125977	response	0	n						99.49880194664001	
1	0.4459669589996338	stim	0		120.0					99.50678586959839	1.0085539817810059
1	1.1045520305633545	response	0	space						100.16537094116211	
1	1.35117506980896	response	0	4						100.41199398040771	
1	1.4545209407806396	stim	1		120.0					100.5153398513794	0.9995419979095459
1	1.5079541206359863	response	1	space						100.56877303123474	
1	1.7795510292053223	response	1	space						100.84036993980408	
1	2.063429117202759	response	1	space						101.12424802780151	
1	2.370718002319336	response	1	space						101.43153691291809	
2	2.4540629386901855	fix_pre	0		38.0	0.0	2.5	/experiments/knapen_aot/videos/R_S_video_inspire_oregon_portland_00064.1080-h264.mp4	0.0	101.51488184928894	0.31658196449279785
2	2.7624781131744385	response	0	space		0.0	2.5	/experiments/knapen_aot/videos/R_S_video_inspire_oregon_portland_00064.1080-h264.mp4	0.0	101.8232970237732	
2	2.7706449031829834	movie	1		167.0	0.0	2.5	/experiments/knapen_aot/videos/R_S_video_inspire_oregon_portland_00064.1080-h264.mp4	0.0	101.83146381378174	2.5084102153778076
2	3.214169979095459	response	1	4		0.0	2.5	/experiments/knapen_aot/videos/R_S_video_inspire_oregon_portland_00064.1080-h264.mp4	0.0	102.27498888969421	
2	5.279055118560791	fix_post	2		12.0	0.0	2.5	/experiments/knapen_aot/videos/R_S_video_inspire_oregon_portland_00064.1080-h264.mp4	0.0	104.33987402915955	0.09995794296264648
2	5.305642127990723	response	2	4		0.0	2.5	/experiments/knapen_aot/videos/R_S_video_inspire_oregon_portland_00064.1080-h264.mp4	0.0	104.36646103858948	
3	5.3790130615234375	fix_pre	0		43.0	1.0	2.5	/experiments/knapen_aot/videos/R_S_yt-kA0ybjmoiMc_284.mp4	0.0	104.43983197212219	0.35834693908691406
3	5.729049921035767	response	0	4		1.0	2.5	/experiments/knapen_aot/videos/R_S_yt-kA0ybjmoiMc_284.mp4	0.0	104.78986883163452	
3	5.737360000610352	movie	1		301.0	1.0	2.5	/experiments/knapen_aot/videos/R_S_yt-kA0ybjmoiMc_284.mp4	0.0	104.7981789112091	2.508316993713379
3	8.24567699432373	fix_post	2		12.0	1.0	2.5	/experiments/knapen_aot/videos/R_S_yt-kA0ybjmoiMc_284.mp4	0.0	107.30649590492249	0.10010099411010742
4	8.345777988433838	fix_pre	0		20.0	2.0	2.5	/experiments/knapen_aot/videos/S_yt-o_Hakzj8PRg_2864.mp4	0.0	107.40659689903259	0.16750502586364746
4	8.504218101501465	response	0	4		2.0	2.5	/experiments/knapen_aot/videos/S_yt-o_Hakzj8PRg_2864.mp4	0.0	107.56503701210022	
4	8.513283014297485	movie	1		301.0	2.0	2.5	/experiments/knapen_aot/videos/S_yt-o_Hakzj8PRg_2864.mp4	0.0	107.57410192489624	2.5075089931488037
4	11.020792007446289	fix_post	2		12.0	2.0	2.5	/experiments/knapen_aot/videos/S_yt-o_Hakzj8PRg_2864.mp4	0.0	110.08161091804504	0.09995007514953613
5	11.120742082595825	fix_pre	0		13.0	3.0	2.5	/experiments/knapen_aot/videos/S_yt-JtR6WZXT2kU_8.mp4	0.0	110.18156099319458	0.10824894905090332
5	11.220820903778076	response	0	4		3.0	2.5	/experiments/knapen_aot/videos/S_yt-JtR6WZXT2kU_8.mp4	0.0	110.28163981437683	
5	11.228991031646729	movie	1		301.0	3.0	2.5	/experiments/knapen_aot/videos/S_yt-JtR6WZXT2kU_8.mp4	0.0	110.28980994224548	2.5083489418029785
5	13.737339973449707	fix_post	2		12.0	3.0	2.5	/experiments/knapen_aot/videos/S_yt-JtR6WZXT2kU_8.mp4	0.0	112.79815888404846	0.10004115104675293
6	13.83738112449646	fix_pre	0		37.0	4.0	2.5	/experiments/knapen_aot/videos/R_S_production_ID_5144824.mp4	0.0	112.89820003509521	0.30831193923950195
6	14.137485980987549	response	0	4		4.0	2.5	/experiments/knapen_aot/videos/R_S_production_ID_5144824.mp4	0.0	113.1983048915863	
6	14.145693063735962	movie	1		163.0	4.0	2.5	/experiments/knapen_aot/videos/R_S_production_ID_5144824.mp4	0.0	113.20651197433472	2.508354902267456
6	16.654047966003418	fix_post	2		12.0	4.0	2.5	/experiments/knapen_aot/videos/R_S_production_ID_5144824.mp4	0.0	115.71486687660217	0.10001897811889648
7	16.754066944122314	fix_pre	0		19.0	5.0	2.5	blank	1.0	115.81488585472107	0.15828299522399902
7	16.90412998199463	response	0	4		5.0	2.5	blank	1.0	115.96494889259338	
7	16.912349939346313	movie	1		301.0	5.0	2.5	blank	1.0	115.97316884994507	2.5083301067352295
7	19.420680046081543	fix_post	2		12.0	5.0	2.5	blank	1.0	118.4814989566803	0.09999990463256836
8	19.52067995071411	fix_pre	0		19.0	6.0	2.5	/experiments/knapen_aot/videos/R_S_ILSVRC2015_train_00418001.mp4	0.0	118.58149886131287	0.15926218032836914
8	19.670753002166748	response	0	4		6.0	2.5	/experiments/knapen_aot/videos/R_S_ILSVRC2015_train_00418001.mp4	0.0	118.7315719127655	
8	19.67994213104248	movie	1		301.0	6.0	2.5	/experiments/knapen_aot/videos/R_S_ILSVRC2015_train_00418001.mp4	0.0	118.74076104164124	2.507354974746704
8	22.187297105789185	fix_post	2		12.0	6.0	2.5	/experiments/knapen_aot/videos/R_S_ILSVRC2015_train_00418001.mp4	0.0	121.24811601638794	0.10011601448059082
9	22.287413120269775	fix_pre	0		13.0	7.0	2.5	/experiments/knapen_aot/videos/R_S_G009_C014_UHD_SDR_2K_AVC.mp4	0.0	121.34823203086853	0.10817289352416992
9	22.387507915496826	response	0	4		7.0	2.5	/experiments/knapen_aot/videos/R_S_G009_C014_UHD_SDR_2K_AVC.mp4	0.0	121.44832682609558	
9	22.395586013793945	movie	1		170.0	7.0	2.5	/experiments/knapen_aot/videos/R_S_G009_C014_UHD_SDR_2K_AVC.mp4	0.0	121.4564049243927	2.5083730220794678
9	24.903959035873413	fix_post	2		12.0	7.0	2.5	/experiments/knapen_aot/videos/R_S_G009_C014_UHD_SDR_2K_AVC.mp4	0.0	123.96477794647217	0.10003209114074707
10	25.00399112701416	fix_pre	0		28.0	8.0	2.5	/experiments/knapen_aot/videos/R_S_bing-www_break_com_video_like-a-cat-catching-a-fly-3131008_12.mp4	0.0	124.06481003761292	0.23328089714050293
10	25.229001998901367	response	0	4		8.0	2.5	/experiments/knapen_aot/videos/R_S_bing-www_break_com_video_like-a-cat-catching-a-fly-3131008_12.mp4	0.0	124.28982090950012	
10	25.237272024154663	movie	1		301.0	8.0	2.5	/experiments/knapen_aot/videos/R_S_bing-www_break_com_video_like-a-cat-catching-a-fly-3131008_12.mp4	0.0	124.29809093475342	2.508357048034668
10	27.74562907218933	fix_post	2		12.0	8.0	2.5	/experiments/knapen_aot/videos/R_S_bing-www_break_com_video_like-a-cat-catching-a-fly-3131008_12.mp4	0.0	126.80644798278809	0.10001683235168457
11	27.845645904541016	fix_pre	0		64.0	9.0	2.5	/experiments/knapen_aot/videos/S_yt-JPsTqfqfPIY_319.mp4	0.0	126.90646481513977	0.5332531929016113
11	28.37071394920349	response	0	4		9.0	2.5	/experiments/knapen_aot/videos/S_yt-JPsTqfqfPIY_319.mp4	0.0	127.43153285980225	
11	28.378899097442627	movie	1		301.0	9.0	2.5	/experiments/knapen_aot/videos/S_yt-JPsTqfqfPIY_319.mp4	0.0	127.43971800804138	2.508384943008423
11	30.88728404045105	fix_post	2		12.0	9.0	2.5	/experiments/knapen_aot/videos/S_yt-JPsTqfqfPIY_319.mp4	0.0	129.9481029510498	0.09997797012329102
12	30.98726201057434	fix_pre	0		28.0	10.0	2.5	/experiments/knapen_aot/videos/R_S_yt-e9AZJKNv9ow_359.mp4	0.0	130.0480809211731	0.2340989112854004
12	31.212373971939087	response	0	4		10.0	2.5	/experiments/knapen_aot/videos/R_S_yt-e9AZJKNv9ow_359.mp4	0.0	130.27319288253784	
12	31.22136092185974	movie	1		301.0	10.0	2.5	/experiments/knapen_aot/videos/R_S_yt-e9AZJKNv9ow_359.mp4	0.0	130.2821798324585	2.5077500343322754
12	33.72911095619202	fix_post	2		12.0	10.0	2.5	/experiments/knapen_aot/videos/R_S_yt-e9AZJKNv9ow_359.mp4	0.0	132.78992986679077	0.09980201721191406
13	33.82891297340393	fix_pre	0		20.0	11.0	2.5	/experiments/knapen_aot/videos/R_S_yt-bWXohhodbjg_98.mp4	0.0	132.88973188400269	0.16663599014282227
13	33.98739290237427	response	0	4		11.0	2.5	/experiments/knapen_aot/videos/R_S_yt-bWXohhodbjg_98.mp4	0.0	133.04821181297302	
13	33.99554896354675	movie	1		301.0	11.0	2.5	/experiments/knapen_aot/videos/R_S_yt-bWXohhodbjg_98.mp4	0.0	133.0563678741455	2.5083651542663574
13	35.29564595222473	response	1	4		11.0	2.5	/experiments/knapen_aot/videos/R_S_yt-bWXohhodbjg_98.mp4	0.0	134.3564648628235	
13	36.50391411781311	fix_post	2		12.0	11.0	2.5	/experiments/knapen_aot/videos/R_S_yt-bWXohhodbjg_98.mp4	0.0	135.56473302841187	0.09999394416809082
14	36.6039080619812	fix_pre	0		39.0	12.0	2.5	/experiments/knapen_aot/videos/S_yt-4RKOPaRF42o_124.mp4	0.0	135.66472697257996	0.32587385177612305
14	36.92066812515259	response	0	4		12.0	2.5	/experiments/knapen_aot/videos/S_yt-4RKOPaRF42o_124.mp4	0.0	135.98148703575134	
14	36.929781913757324	movie	1		301.0	12.0	2.5	/experiments/knapen_aot/videos/S_yt-4RKOPaRF42o_124.mp4	0.0	135.99060082435608	2.5076260566711426
14	39.43740797042847	fix_post	2		12.0	12.0	2.5	/experiments/knapen_aot/videos/S_yt-4RKOPaRF42o_124.mp4	0.0	138.49822688102722	0.099822998046875
15	39.53723096847534	fix_pre	0		12.0	13.0	2.5	/experiments/knapen_aot/videos/S_ILSVRC2015_train_00087003.mp4	0.0	138.5980498790741	0.10079813003540039
15	39.62896203994751	response	0	4		13.0	2.5	/experiments/knapen_aot/videos/S_ILSVRC2015_train_00087003.mp4	0.0	138.68978095054626	
15	39.63802909851074	movie	1		301.0	13.0	2.5	/experiments/knapen_aot/videos/S_ILSVRC2015_train_00087003.mp4	0.0	138.6988480091095	2.5075888633728027
15	42.145617961883545	fix_post	2		12.0	13.0	2.5	/experiments/knapen_aot/videos/S_ILSVRC2015_train_00087003.mp4	0.0	141.2064368724823	0.0999140739440918
16	42.24553203582764	fix_pre	0		16.0	14.0	2.5	blank	1.0	141.3063509464264	0.13338208198547363
16	42.37065291404724	response	0	4		14.0	2.5	blank	1.0	141.431471824646	
16	42.37891411781311	movie	1		301.0	14.0	2.5	blank	1.0	141.43973302841187	2.508297920227051
16	44.88721203804016	fix_post	2		12.0	14.0	2.5	blank	1.0	143.94803094863892	0.10007596015930176
17	44.98728799819946	fix_pre	0		4.0	15.0	2.5	/experiments/knapen_aot/videos/S_yt-JtR6WZXT2kU_8.mp4	0.0	144.04810690879822	0.03322196006774902
17	45.0124249458313	response	0	4		15.0	2.5	/experiments/knapen_aot/videos/S_yt-JtR6WZXT2kU_8.mp4	0.0	144.07324385643005	
17	45.02050995826721	movie	1		301.0	15.0	2.5	/experiments/knapen_aot/videos/S_yt-JtR6WZXT2kU_8.mp4	0.0	144.08132886886597	2.5082809925079346
17	47.52879095077515	fix_post	2		12.0	15.0	2.5	/experiments/knapen_aot/videos/S_yt-JtR6WZXT2kU_8.mp4	0.0	146.5896098613739	0.10025596618652344
18	47.62904691696167	fix_pre	0		22.0	16.0	2.5	/experiments/knapen_aot/videos/R_S_production_ID_4325509.mp4	0.0	146.68986582756042	0.1831531524658203
18	47.803980112075806	response	0	4		16.0	2.5	/experiments/knapen_aot/videos/R_S_production_ID_4325509.mp4	0.0	146.86479902267456	
18	47.81220006942749	movie	1		210.0	16.0	2.5	/experiments/knapen_aot/videos/R_S_production_ID_4325509.mp4	0.0	146.87301898002625	2.5085158348083496
18	50.32071590423584	fix_post	2		12.0	16.0	2.5	/experiments/knapen_aot/videos/R_S_production_ID_4325509.mp4	0.0	149.3815348148346	0.09980106353759766
18	50.39560294151306	response	2	4		16.0	2.5	/experiments/knapen_aot/videos/R_S_production_ID_4325509.mp4	0.0	149.45642185211182	
19	50.42051696777344	fix_pre	0		49.0	17.0	2.5	/experiments/knapen_aot/videos/S_yt-PRqnM7xDsus_24.mp4	0.0	149.4813358783722	0.4082779884338379
19	50.82058310508728	response	0	4		17.0	2.5	/experiments/knapen_aot/videos/S_yt-PRqnM7xDsus_24.mp4	0.0	149.88140201568604	
19	50.828794956207275	movie	1		301.0	17.0	2.5	/experiments/knapen_aot/videos/S_yt-PRqnM7xDsus_24.mp4	0.0	149.88961386680603	2.5083160400390625
19	53.19562101364136	response	1	4		17.0	2.5	/experiments/knapen_aot/videos/S_yt-PRqnM7xDsus_24.mp4	0.0	152.2564399242401	
19	53.33711099624634	fix_post	2		12.0	17.0	2.5	/experiments/knapen_aot/videos/S_yt-PRqnM7xDsus_24.mp4	0.0	152.3979299068451	0.10003805160522461
20	53.43714904785156	fix_pre	0		30.0	18.0	2.5	/experiments/knapen_aot/videos/R_S_FZ0hLmjCR0s_26.mp4	0.0	152.49796795845032	0.249953031539917
20	53.67892599105835	response	0	4		18.0	2.5	/experiments/knapen_aot/videos/R_S_FZ0hLmjCR0s_26.mp4	0.0	152.7397449016571	
20	53.68710207939148	movie	1		301.0	18.0	2.5	/experiments/knapen_aot/videos/R_S_FZ0hLmjCR0s_26.mp4	0.0	152.74792098999023	2.5083189010620117
20	55.54768109321594	response	1	4		18.0	2.5	/experiments/knapen_aot/videos/R_S_FZ0hLmjCR0s_26.mp4	0.0	154.6085000038147	
20	56.19542098045349	fix_post	2		12.0	18.0	2.5	/experiments/knapen_aot/videos/R_S_FZ0hLmjCR0s_26.mp4	0.0	155.25623989105225	0.1000680923461914
20	56.22074794769287	response	2	4		18.0	2.5	/experiments/knapen_aot/videos/R_S_FZ0hLmjCR0s_26.mp4	0.0	155.28156685829163	
21	56.29548907279968	fix_pre	0		48.0	19.0	2.5	blank	1.0	155.35630798339844	0.4000849723815918
21	56.68715810775757	response	0	4		19.0	2.5	blank	1.0	155.74797701835632	
21	56.695574045181274	movie	1		301.0	19.0	2.5	blank	1.0	155.75639295578003	2.5082478523254395
21	59.203821897506714	fix_post	2		12.0	19.0	2.5	blank	1.0	158.26464080810547	0.09999322891235352
22	59.30381512641907	fix_pre	0		193.0	20.0	2.5	/experiments/knapen_aot/videos/R_S_pexels-koolshooters-7689098.mp4	0.0	158.36463403701782	1.608346939086914
22	60.90391707420349	response	0	4		20.0	2.5	/experiments/knapen_aot/videos/R_S_pexels-koolshooters-7689098.mp4	0.0	159.96473598480225	
22	60.91216206550598	movie	1		167.0	20.0	2.5	/experiments/knapen_aot/videos/R_S_pexels-koolshooters-7689098.mp4	0.0	159.97298097610474	2.508244037628174
22	62.36963891983032	response	1	4		20.0	2.5	/experiments/knapen_aot/videos/R_S_pexels-koolshooters-7689098.mp4	0.0	161.43045783042908	
22	63.420406103134155	fix_post	2		12.0	20.0	2.5	/experiments/knapen_aot/videos/R_S_pexels-koolshooters-7689098.mp4	0.0	162.4812250137329	0.10005998611450195
23	63.52046608924866	fix_pre	0		186.0	21.0	2.5	/experiments/knapen_aot/videos/R_S_yt-z16pdVTZK1o_3.mp4	0.0	162.5812849998474	1.5499229431152344
23	65.06222796440125	response	0	4		21.0	2.5	/experiments/knapen_aot/videos/R_S_yt-z16pdVTZK1o_3.mp4	0.0	164.123046875	
23	65.07038903236389	movie	1		300.0	21.0	2.5	/experiments/knapen_aot/videos/R_S_yt-z16pdVTZK1o_3.mp4	0.0	164.13120794296265	2.5083189010620117
23	67.5787079334259	fix_post	2		12.0	21.0	2.5	/experiments/knapen_aot/videos/R_S_yt-z16pdVTZK1o_3.mp4	0.0	166.63952684402466	0.10005998611450195
24	67.6787679195404	fix_pre	0		57.0	22.0	2.5	/experiments/knapen_aot/videos/S_ILSVRC2015_train_00572000.mp4	0.0	166.73958683013916	0.47495102882385254
24	68.14556503295898	response	0	4		22.0	2.5	/experiments/knapen_aot/videos/S_ILSVRC2015_train_00572000.mp4	0.0	167.20638394355774	
24	68.15371894836426	movie	1		301.0	22.0	2.5	/experiments/knapen_aot/videos/S_ILSVRC2015_train_00572000.mp4	0.0	167.214537858963	2.5083701610565186
24	70.259202003479	response	1	4		22.0	2.5	/experiments/knapen_aot/videos/S_ILSVRC2015_train_00572000.mp4	0.0	169.32002091407776	
24	70.66208910942078	fix_post	2		12.0	22.0	2.5	/experiments/knapen_aot/videos/S_ILSVRC2015_train_00572000.mp4	0.0	169.72290802001953	0.10002398490905762
25	70.76211309432983	fix_pre	0		31.0	23.0	2.5	/experiments/knapen_aot/videos/R_S_comp_DB_D002_C003_PSNK_v04_SDR_PS_20180914_SDR_2K_AVC.mp4	0.0	169.8229320049286	0.2583959102630615
25	71.00455212593079	response	0	4		23.0	2.5	/experiments/knapen_aot/videos/R_S_comp_DB_D002_C003_PSNK_v04_SDR_PS_20180914_SDR_2K_AVC.mp4	0.0	170.06537103652954	
25	71.0205090045929	movie	1		168.0	23.0	2.5	/experiments/knapen_aot/videos/R_S_comp_DB_D002_C003_PSNK_v04_SDR_PS_20180914_SDR_2K_AVC.mp4	0.0	170.08132791519165	2.5082170963287354
25	73.52872610092163	fix_post	2		12.0	23.0	2.5	/experiments/knapen_aot/videos/R_S_comp_DB_D002_C003_PSNK_v04_SDR_PS_20180914_SDR_2K_AVC.mp4	0.0	172.58954501152039	0.09993982315063477
26	73.62866592407227	fix_pre	0		4.0	24.0	2.5	/experiments/knapen_aot/videos/R_S_ILSVRC2015_train_00723001.mp4	0.0	172.68948483467102	0.033445119857788086
26	73.65387797355652	response	0	4		24.0	2.5	/experiments/knapen_aot/videos/R_S_ILSVRC2015_train_00723001.mp4	0.0	172.71469688415527	
26	73.66211104393005	movie	1		301.0	24.0	2.5	/experiments/knapen_aot/videos/R_S_ILSVRC2015_train_00723001.mp4	0.0	172.7229299545288	2.508336067199707
26	76.17044711112976	fix_post	2		12.0	24.0	2.5	/experiments/knapen_aot/videos/R_S_ILSVRC2015_train_00723001.mp4	0.0	175.23126602172852	0.10005879402160645
27	76.27050590515137	fix_pre	0		33.0	25.0	2.5	/experiments/knapen_aot/videos/S_yt-lazG9z4VQAw_99.mp4	0.0	175.33132481575012	0.27488207817077637
27	76.53719806671143	response	0	4		25.0	2.5	/experiments/knapen_aot/videos/S_yt-lazG9z4VQAw_99.mp4	0.0	175.59801697731018	
27	76.54538798332214	movie	1		301.0	25.0	2.5	/experiments/knapen_aot/videos/S_yt-lazG9z4VQAw_99.mp4	0.0	175.6062068939209	2.5084140300750732
27	79.05380201339722	fix_post	2		12.0	25.0	2.5	/experiments/knapen_aot/videos/S_yt-lazG9z4VQAw_99.mp4	0.0	178.11462092399597	0.09995889663696289
28	79.15376091003418	fix_pre	0		26.0	26.0	2.5	/experiments/knapen_aot/videos/R_S_yt-lfDIg8kaXhA_169.mp4	0.0	178.21457982063293	0.21663403511047363
28	79.36212706565857	response	0	4		26.0	2.5	/experiments/knapen_aot/videos/R_S_yt-lfDIg8kaXhA_169.mp4	0.0	178.42294597625732	
28	79.37039494514465	movie	1		301.0	26.0	2.5	/experiments/knapen_aot/videos/R_S_yt-lfDIg8kaXhA_169.mp4	0.0	178.4312138557434	2.508373975753784
28	81.87876892089844	fix_post	2		12.0	26.0	2.5	/experiments/knapen_aot/videos/R_S_yt-lfDIg8kaXhA_169.mp4	0.0	180.9395878314972	0.10008907318115234
29	81.97885799407959	fix_pre	0		113.0	27.0	2.5	/experiments/knapen_aot/videos/S_yt-PyO8-WsbaLU_43.mp4	0.0	181.03967690467834	0.9415121078491211
29	82.91222310066223	response	0	4		27.0	2.5	/experiments/knapen_aot/videos/S_yt-PyO8-WsbaLU_43.mp4	0.0	181.973042011261	
29	82.92037010192871	movie	1		301.0	27.0	2.5	/experiments/knapen_aot/videos/S_yt-PyO8-WsbaLU_43.mp4	0.0	181.98118901252747	2.508356809616089
29	85.4287269115448	fix_post	2		12.0	27.0	2.5	/experiments/knapen_aot/videos/S_yt-PyO8-WsbaLU_43.mp4	0.0	184.48954582214355	0.1000051498413086
30	85.52873206138611	fix_pre	0		143.0	28.0	2.5	blank	1.0	184.58955097198486	1.192215919494629
30	86.71220898628235	response	0	4		28.0	2.5	blank	1.0	185.7730278968811	
30	86.72094798088074	movie	1		301.0	28.0	2.5	blank	1.0	185.7817668914795	2.50777006149292
30	88.47879099845886	response	1	4		28.0	2.5	blank	1.0	187.53960990905762	
30	89.22871804237366	fix_post	2		12.0	28.0	2.5	blank	1.0	188.2895369529724	0.09999704360961914
31	89.32871508598328	fix_pre	0		14.0	29.0	2.5	/experiments/knapen_aot/videos/R_S_yt-aiDGx4AN8J0_9.mp4	0.0	188.38953399658203	0.11657595634460449
31	89.43704009056091	response	0	4		29.0	2.5	/experiments/knapen_aot/videos/R_S_yt-aiDGx4AN8J0_9.mp4	0.0	188.49785900115967	
31	89.44529104232788	movie	1		301.0	29.0	2.5	/experiments/knapen_aot/videos/R_S_yt-aiDGx4AN8J0_9.mp4	0.0	188.50610995292664	2.5086019039154053
31	91.95389294624329	fix_post	2		12.0	29.0	2.5	/experiments/knapen_aot/videos/R_S_yt-aiDGx4AN8J0_9.mp4	0.0	191.01471185684204	0.09985613822937012
32	92.05374908447266	fix_pre	0		22.0	30.0	2.5	/experiments/knapen_aot/videos/S_yt-nS2QqSQbjOQ_39.mp4	0.0	191.1145679950714	0.18323802947998047
32	92.22878694534302	response	0	4		30.0	2.5	/experiments/knapen_aot/videos/S_yt-nS2QqSQbjOQ_39.mp4	0.0	191.28960585594177	
32	92.23698711395264	movie	1		301.0	30.0	2.5	/experiments/knapen_aot/videos/S_yt-nS2QqSQbjOQ_39.mp4	0.0	191.2978060245514	2.5083367824554443
32	94.74532389640808	fix_post	2		12.0	30.0	2.5	/experiments/knapen_aot/videos/S_yt-nS2QqSQbjOQ_39.mp4	0.0	193.80614280700684	0.09995317459106445
33	94.84527707099915	fix_pre	0		18.0	31.0	2.5	/experiments/knapen_aot/videos/S_yt-tX5U0Lyo6Gs_376.mp4	0.0	193.9060959815979	0.15004682540893555
33	94.98712301254272	response	0	4		31.0	2.5	/experiments/knapen_aot/videos/S_yt-tX5U0Lyo6Gs_376.mp4	0.0	194.04794192314148	
33	94.99532389640808	movie	1		301.0	31.0	2.5	/experiments/knapen_aot/videos/S_yt-tX5U0Lyo6Gs_376.mp4	0.0	194.05614280700684	2.5084891319274902
33	97.50381302833557	fix_post	2		12.0	31.0	2.5	/experiments/knapen_aot/videos/S_yt-tX5U0Lyo6Gs_376.mp4	0.0	196.56463193893433	0.09985494613647461
34	97.60366797447205	fix_pre	0		23.0	32.0	2.5	/experiments/knapen_aot/videos/R_S_yt-EKPrSw5xF7k_112.mp4	0.0	196.6644868850708	0.19158196449279785
34	97.7870500087738	response	0	4		32.0	2.5	/experiments/knapen_aot/videos/R_S_yt-EKPrSw5xF7k_112.mp4	0.0	196.84786891937256	
34	97.79524993896484	movie	1		301.0	32.0	2.5	/experiments/knapen_aot/videos/R_S_yt-EKPrSw5xF7k_112.mp4	0.0	196.8560688495636	2.5083811283111572
34	100.303631067276	fix_post	2		12.0	32.0	2.5	/experiments/knapen_aot/videos/R_S_yt-EKPrSw5xF7k_112.mp4	0.0	199.36444997787476	0.10003304481506348
35	100.40366411209106	fix_pre	0		42.0	33.0	2.5	/experiments/knapen_aot/videos/S_pexels-koolshooters-7689098.mp4	0.0	199.46448302268982	0.3499619960784912
35	100.7454400062561	response	0	4		33.0	2.5	/experiments/knapen_aot/videos/S_pexels-koolshooters-7689098.mp4	0.0	199.80625891685486	
35	100.75362610816956	movie	1		163.0	33.0	2.5	/experiments/knapen_aot/videos/S_pexels-koolshooters-7689098.mp4	0.0	199.8144450187683	2.508267879486084
35	103.26189398765564	fix_post	2		12.0	33.0	2.5	/experiments/knapen_aot/videos/S_pexels-koolshooters-7689098.mp4	0.0	202.3227128982544	0.10005998611450195
36	103.36195397377014	fix_pre	0		116.0	34.0	2.5	/experiments/knapen_aot/videos/S_yt-BLmwmX-mni8_1030.mp4	0.0	202.4227728843689	0.9666500091552734
36	104.32046103477478	response	0	4		34.0	2.5	/experiments/knapen_aot/videos/S_yt-BLmwmX-mni8_1030.mp4	0.0	203.38127994537354	
36	104.32860398292542	movie	1		301.0	34.0	2.5	/experiments/knapen_aot/videos/S_yt-BLmwmX-mni8_1030.mp4	0.0	203.38942289352417	2.5083401203155518
36	106.02867197990417	response	1	4		34.0	2.5	/experiments/knapen_aot/videos/S_yt-BLmwmX-mni8_1030.mp4	0.0	205.08949089050293	
36	106.83694410324097	fix_post	2		12.0	34.0	2.5	/experiments/knapen_aot/videos/S_yt-BLmwmX-mni8_1030.mp4	0.0	205.89776301383972	0.09998488426208496
37	106.93692898750305	fix_pre	0		10.0	35.0	2.5	blank	1.0	205.9977478981018	0.08334207534790039
37	107.01200795173645	response	0	4		35.0	2.5	blank	1.0	206.0728268623352	
37	107.02027106285095	movie	1		301.0	35.0	2.5	blank	1.0	206.0810899734497	2.5082650184631348
37	109.52853608131409	fix_post	2		12.0	35.0	2.5	blank	1.0	208.58935499191284	0.10011482238769531
38	109.62865090370178	fix_pre	0		42.0	36.0	2.5	/experiments/knapen_aot/videos/S_ILSVRC2015_train_00165008.mp4	0.0	208.68946981430054	0.34989213943481445
38	109.9704339504242	response	0	4		36.0	2.5	/experiments/knapen_aot/videos/S_ILSVRC2015_train_00165008.mp4	0.0	209.03125286102295	
38	109.9785430431366	movie	1		301.0	36.0	2.5	/experiments/knapen_aot/videos/S_ILSVRC2015_train_00165008.mp4	0.0	209.03936195373535	2.5083820819854736
38	112.16201496124268	response	1	4		36.0	2.5	/experiments/knapen_aot/videos/S_ILSVRC2015_train_00165008.mp4	0.0	211.22283387184143	
38	112.48692512512207	fix_post	2		12.0	36.0	2.5	/experiments/knapen_aot/videos/S_ILSVRC2015_train_00165008.mp4	0.0	211.54774403572083	0.0999608039855957
39	112.58688592910767	fix_pre	0		27.0	37.0	2.5	/experiments/knapen_aot/videos/R_S_production_ID_4428752.mp4	0.0	211.64770483970642	0.22498202323913574
39	112.80361199378967	response	0	4		37.0	2.5	/experiments/knapen_aot/videos/R_S_production_ID_4428752.mp4	0.0	211.86443090438843	
39	112.8118679523468	movie	1		163.0	37.0	2.5	/experiments/knapen_aot/videos/R_S_production_ID_4428752.mp4	0.0	211.87268686294556	2.5083820819854736
39	115.32025003433228	fix_post	2		12.0	37.0	2.5	/experiments/knapen_aot/videos/R_S_production_ID_4428752.mp4	0.0	214.38106894493103	0.10000896453857422
40	115.42025899887085	fix_pre	0		22.0	38.0	2.5	/experiments/knapen_aot/videos/S_ILSVRC2015_train_00324001.mp4	0.0	214.4810779094696	0.1833209991455078
40	115.59530711174011	response	0	4		38.0	2.5	/experiments/knapen_aot/videos/S_ILSVRC2015_train_00324001.mp4	0.0	214.65612602233887	
40	115.60357999801636	movie	1		301.0	38.0	2.5	/experiments/knapen_aot/videos/S_ILSVRC2015_train_00324001.mp4	0.0	214.6643989086151	2.5083539485931396
40	118.07864809036255	response	1	4		38.0	2.5	/experiments/knapen_aot/videos/S_ILSVRC2015_train_00324001.mp4	0.0	217.1394670009613	
40	118.1119339466095	fix_post	2		12.0	38.0	2.5	/experiments/knapen_aot/videos/S_ILSVRC2015_train_00324001.mp4	0.0	217.17275285720825	0.09995508193969727
41	118.2118890285492	fix_pre	0		40.0	39.0	2.5	/experiments/knapen_aot/videos/S_ahUa35lQM6E_44.mp4	0.0	217.27270793914795	0.3333399295806885
41	118.53705906867981	response	0	4		39.0	2.5	/experiments/knapen_aot/videos/S_ahUa35lQM6E_44.mp4	0.0	217.59787797927856	
41	118.54522895812988	movie	1		301.0	39.0	2.5	/experiments/knapen_aot/videos/S_ahUa35lQM6E_44.mp4	0.0	217.60604786872864	2.508280038833618
41	118.86530995368958	response	1	4		39.0	2.5	/experiments/knapen_aot/videos/S_ahUa35lQM6E_44.mp4	0.0	217.92612886428833	
41	121.0535089969635	fix_post	2		12.0	39.0	2.5	/experiments/knapen_aot/videos/S_ahUa35lQM6E_44.mp4	0.0	220.11432790756226	0.1000509262084961
42	121.153559923172	fix_pre	0		44.0	40.0	2.5	blank	1.0	220.21437883377075	0.36660003662109375
42	121.51196908950806	response	0	4		40.0	2.5	blank	1.0	220.5727880001068	
42	121.52015995979309	movie	1		301.0	40.0	2.5	blank	1.0	220.58097887039185	2.508358955383301
42	124.02851891517639	fix_post	2		12.0	40.0	2.5	blank	1.0	223.08933782577515	0.09990715980529785
43	124.12842607498169	fix_pre	0		41.0	41.0	2.5	/experiments/knapen_aot/videos/S_yt-LsCCAQ8BRO8_7.mp4	0.0	223.18924498558044	0.34215688705444336
43	124.46193599700928	response	0	4		41.0	2.5	/experiments/knapen_aot/videos/S_yt-LsCCAQ8BRO8_7.mp4	0.0	223.52275490760803	
43	124.47058296203613	movie	1		301.0	41.0	2.5	/experiments/knapen_aot/videos/S_yt-LsCCAQ8BRO8_7.mp4	0.0	223.5314018726349	2.5079381465911865
43	126.97852110862732	fix_post	2		12.0	41.0	2.5	/experiments/knapen_aot/videos/S_yt-LsCCAQ8BRO8_7.mp4	0.0	226.03934001922607	0.1001899242401123
44	127.07871103286743	fix_pre	0		37.0	42.0	2.5	/experiments/knapen_aot/videos/S_yt-BW6jWEVbxxk_4.mp4	0.0	226.1395299434662	0.308413028717041
44	127.37864303588867	response	0	4		42.0	2.5	/experiments/knapen_aot/videos/S_yt-BW6jWEVbxxk_4.mp4	0.0	226.43946194648743	
44	127.38712406158447	movie	1		301.0	42.0	2.5	/experiments/knapen_aot/videos/S_yt-BW6jWEVbxxk_4.mp4	0.0	226.44794297218323	2.50805401802063
44	129.8951780796051	fix_post	2		12.0	42.0	2.5	/experiments/knapen_aot/videos/S_yt-BW6jWEVbxxk_4.mp4	0.0	228.95599699020386	0.0999460220336914
45	129.9951241016388	fix_pre	0		27.0	43.0	2.5	/experiments/knapen_aot/videos/S_yt-Ek1jcvett9E_33.mp4	0.0	229.05594301223755	0.22532391548156738
45	130.21197509765625	response	0	4		43.0	2.5	/experiments/knapen_aot/videos/S_yt-Ek1jcvett9E_33.mp4	0.0	229.272794008255	
45	130.22044801712036	movie	1		301.0	43.0	2.5	/experiments/knapen_aot/videos/S_yt-Ek1jcvett9E_33.mp4	0.0	229.28126692771912	2.508078098297119
45	132.72852611541748	fix_post	2		12.0	43.0	2.5	/experiments/knapen_aot/videos/S_yt-Ek1jcvett9E_33.mp4	0.0	231.78934502601624	0.09990596771240234
46	132.82843208312988	fix_pre	0		31.0	44.0	2.5	/experiments/knapen_aot/videos/R_S_BsNCrwV7d8Q_9.mp4	0.0	231.88925099372864	0.25844788551330566
46	133.07856392860413	response	0	4		44.0	2.5	/experiments/knapen_aot/videos/R_S_BsNCrwV7d8Q_9.mp4	0.0	232.13938283920288	
46	133.0868799686432	movie	1		301.0	44.0	2.5	/experiments/knapen_aot/videos/R_S_BsNCrwV7d8Q_9.mp4	0.0	232.14769887924194	2.508268117904663
46	135.59514808654785	fix_post	2		12.0	44.0	2.5	/experiments/knapen_aot/videos/R_S_BsNCrwV7d8Q_9.mp4	0.0	234.6559669971466	0.09996294975280762
47	135.69511103630066	fix_pre	0		182.0	45.0	2.5	/experiments/knapen_aot/videos/S_G010_C026_UHD_SDR_v02_2K_AVC.mp4	0.0	234.7559299468994	1.5166380405426025
47	137.20356702804565	response	0	4		45.0	2.5	/experiments/knapen_aot/videos/S_G010_C026_UHD_SDR_v02_2K_AVC.mp4	0.0	236.2643859386444	
47	137.21174907684326	movie	1		172.0	45.0	2.5	/experiments/knapen_aot/videos/S_G010_C026_UHD_SDR_v02_2K_AVC.mp4	0.0	236.27256798744202	2.5083818435668945
47	139.72013092041016	fix_post	2		12.0	45.0	2.5	/experiments/knapen_aot/videos/S_G010_C026_UHD_SDR_v02_2K_AVC.mp4	0.0	238.7809498310089	0.09993600845336914
48	139.82006692886353	fix_pre	0		16.0	46.0	2.5	/experiments/knapen_aot/videos/R_S_yt-nS2QqSQbjOQ_39.mp4	0.0	238.88088583946228	0.13339710235595703
48	139.94526195526123	response	0	4		46.0	2.5	/experiments/knapen_aot/videos/R_S_yt-nS2QqSQbjOQ_39.mp4	0.0	239.00608086585999	
48	139.95346403121948	movie	1		301.0	46.0	2.5	/experiments/knapen_aot/videos/R_S_yt-nS2QqSQbjOQ_39.mp4	0.0	239.01428294181824	2.5084450244903564
48	142.46190905570984	fix_post	2		12.0	46.0	2.5	/experiments/knapen_aot/videos/R_S_yt-nS2QqSQbjOQ_39.mp4	0.0	241.5227279663086	0.09988284111022949
49	142.56179189682007	fix_pre	0		42.0	47.0	2.5	blank	1.0	241.62261080741882	0.34986400604248047
49	142.9035999774933	response	0	4		47.0	2.5	blank	1.0	241.96441888809204	
49	142.91165590286255	movie	1		301.0	47.0	2.5	blank	1.0	241.9724748134613	2.508437156677246
49	145.4200930595398	fix_post	2		12.0	47.0	2.5	blank	1.0	244.48091197013855	0.10009503364562988
50	145.52018809318542	fix_pre	0		32.0	48.0	2.5	/experiments/knapen_aot/videos/R_S_production_ID_4428752.mp4	0.0	244.58100700378418	0.2665858268737793
50	145.7785029411316	response	0	4		48.0	2.5	/experiments/knapen_aot/videos/R_S_production_ID_4428752.mp4	0.0	244.83932185173035	
50	145.7867739200592	movie	1		171.0	48.0	2.5	/experiments/knapen_aot/videos/R_S_production_ID_4428752.mp4	0.0	244.84759283065796	2.508342981338501
50	148.2951169013977	fix_post	2		12.0	48.0	2.5	/experiments/knapen_aot/videos/R_S_production_ID_4428752.mp4	0.0	247.35593581199646	0.0999300479888916
51	148.3950469493866	fix_pre	0		75.0	49.0	2.5	/experiments/knapen_aot/videos/R_S_yt-SGTgMItFkxY_172.mp4	0.0	247.45586585998535	0.6250109672546387
51	149.01188802719116	response	0	4		49.0	2.5	/experiments/knapen_aot/videos/R_S_yt-SGTgMItFkxY_172.mp4	0.0	248.07270693778992	
51	149.02005791664124	movie	1		301.0	49.0	2.5	/experiments/knapen_aot/videos/R_S_yt-SGTgMItFkxY_172.mp4	0.0	248.08087682724	2.508371114730835
51	151.52842903137207	fix_post	2		12.0	49.0	2.5	/experiments/knapen_aot/videos/R_S_yt-SGTgMItFkxY_172.mp4	0.0	250.58924794197083	0.10001492500305176
52	151.62844395637512	fix_pre	0		18.0	50.0	2.5	/experiments/knapen_aot/videos/R_S_ILSVRC2015_train_00495000.mp4	0.0	250.68926286697388	0.14998912811279297
52	151.77016496658325	response	0	4		50.0	2.5	/experiments/knapen_aot/videos/R_S_ILSVRC2015_train_00495000.mp4	0.0	250.830983877182	
52	151.77843308448792	movie	1		301.0	50.0	2.5	/experiments/knapen_aot/videos/R_S_ILSVRC2015_train_00495000.mp4	0.0	250.83925199508667	2.5084009170532227
52	154.28683400154114	fix_post	2		12.0	50.0	2.5	/experiments/knapen_aot/videos/R_S_ILSVRC2015_train_00495000.mp4	0.0	253.3476529121399	0.10015511512756348
53	154.3869891166687	fix_pre	0		20.0	51.0	2.5	/experiments/knapen_aot/videos/S_comp_HK_H004_C008_PSNK_v19_SDR_PS_20180914_SDR_2K_AVC.mp4	0.0	253.44780802726746	0.16651296615600586
53	154.5375199317932	response	0	4		51.0	2.5	/experiments/knapen_aot/videos/S_comp_HK_H004_C008_PSNK_v19_SDR_PS_20180914_SDR_2K_AVC.mp4	0.0	253.59833884239197	
53	154.5535020828247	movie	1		166.0	51.0	2.5	/experiments/knapen_aot/videos/S_comp_HK_H004_C008_PSNK_v19_SDR_PS_20180914_SDR_2K_AVC.mp4	0.0	253.61432099342346	2.508391857147217
53	157.06189393997192	fix_post	2		12.0	51.0	2.5	/experiments/knapen_aot/videos/S_comp_HK_H004_C008_PSNK_v19_SDR_PS_20180914_SDR_2K_AVC.mp4	0.0	256.1227128505707	0.09983611106872559
54	157.16173005104065	fix_pre	0		23.0	52.0	2.5	/experiments/knapen_aot/videos/S_pexels-anthony-shkraba-7569650.mp4	0.0	256.2225489616394	0.19168305397033691
54	157.34518098831177	response	0	4		52.0	2.5	/experiments/knapen_aot/videos/S_pexels-anthony-shkraba-7569650.mp4	0.0	256.4059998989105	
54	157.353413105011	movie	1		195.0	52.0	2.5	/experiments/knapen_aot/videos/S_pexels-anthony-shkraba-7569650.mp4	0.0	256.41423201560974	2.5083370208740234
54	158.9869270324707	response	1	4		52.0	2.5	/experiments/knapen_aot/videos/S_pexels-anthony-shkraba-7569650.mp4	0.0	258.04774594306946	
54	159.861750125885	fix_post	2		12.0	52.0	2.5	/experiments/knapen_aot/videos/S_pexels-anthony-shkraba-7569650.mp4	0.0	258.92256903648376	0.10031485557556152
55	159.96206498146057	fix_pre	0		11.0	53.0	2.5	/experiments/knapen_aot/videos/S_ILSVRC2015_train_00418001.mp4	0.0	259.0228838920593	0.0914449691772461
55	160.0452220439911	response	0	4		53.0	2.5	/experiments/knapen_aot/videos/S_ILSVRC2015_train_00418001.mp4	0.0	259.10604095458984	
55	160.05350995063782	movie	1		301.0	53.0	2.5	/experiments/knapen_aot/videos/S_ILSVRC2015_train_00418001.mp4	0.0	259.1143288612366	2.508329153060913
55	162.56183910369873	fix_post	2		12.0	53.0	2.5	/experiments/knapen_aot/videos/S_ILSVRC2015_train_00418001.mp4	0.0	261.6226580142975	0.09989285469055176
56	162.66173195838928	fix_pre	0		31.0	54.0	2.5	/experiments/knapen_aot/videos/R_S_nTA7B2uHaCQ_1.mp4	0.0	261.72255086898804	0.2583150863647461
56	162.91193199157715	response	0	4		54.0	2.5	/experiments/knapen_aot/videos/R_S_nTA7B2uHaCQ_1.mp4	0.0	261.9727509021759	
56	162.92004704475403	movie	1		301.0	54.0	2.5	/experiments/knapen_aot/videos/R_S_nTA7B2uHaCQ_1.mp4	0.0	261.9808659553528	2.508457899093628
56	165.42850494384766	fix_post	2		12.0	54.0	2.5	/experiments/knapen_aot/videos/R_S_nTA7B2uHaCQ_1.mp4	0.0	264.4893238544464	0.09988903999328613
57	165.52839398384094	fix_pre	0		8.0	55.0	2.5	blank	1.0	264.5892128944397	0.06675100326538086
57	165.58685612678528	response	0	4		55.0	2.5	blank	1.0	264.64767503738403	
57	165.59514498710632	movie	1		301.0	55.0	2.5	blank	1.0	264.6559638977051	2.508216142654419
57	168.10336112976074	fix_post	2		12.0	55.0	2.5	blank	1.0	267.1641800403595	0.10020995140075684
58	168.2035710811615	fix_pre	0		28.0	56.0	2.5	/experiments/knapen_aot/videos/R_S_bing-www_dailymotion_com_video_x64hzm7_8.mp4	0.0	267.26438999176025	0.233137845993042
58	168.4285340309143	response	0	4		56.0	2.5	/experiments/knapen_aot/videos/R_S_bing-www_dailymotion_com_video_x64hzm7_8.mp4	0.0	267.48935294151306	
58	168.43670892715454	movie	1		166.0	56.0	2.5	/experiments/knapen_aot/videos/R_S_bing-www_dailymotion_com_video_x64hzm7_8.mp4	0.0	267.4975278377533	2.5082759857177734
58	170.94498491287231	fix_post	2		12.0	56.0	2.5	/experiments/knapen_aot/videos/R_S_bing-www_dailymotion_com_video_x64hzm7_8.mp4	0.0	270.00580382347107	0.10015320777893066
59	171.04513812065125	fix_pre	0		53.0	57.0	2.5	/experiments/knapen_aot/videos/S_yt-26obL-Z5obg_131.mp4	0.0	270.10595703125	0.44152188301086426
59	171.4784860610962	response	0	4		57.0	2.5	/experiments/knapen_aot/videos/S_yt-26obL-Z5obg_131.mp4	0.0	270.53930497169495	
59	171.4866600036621	movie	1		301.0	57.0	2.5	/experiments/knapen_aot/videos/S_yt-26obL-Z5obg_131.mp4	0.0	270.54747891426086	2.5083789825439453
59	173.99503898620605	fix_post	2		12.0	57.0	2.5	/experiments/knapen_aot/videos/S_yt-26obL-Z5obg_131.mp4	0.0	273.0558578968048	0.10013413429260254
60	174.09517312049866	fix_pre	0		24.0	58.0	2.5	/experiments/knapen_aot/videos/S_yt-35i8UeYXjGw_47.mp4	0.0	273.1559920310974	0.1998147964477539
60	174.28679299354553	response	0	4		58.0	2.5	/experiments/knapen_aot/videos/S_yt-35i8UeYXjGw_47.mp4	0.0	273.3476119041443	
60	174.2949879169464	movie	1		301.0	58.0	2.5	/experiments/knapen_aot/videos/S_yt-35i8UeYXjGw_47.mp4	0.0	273.35580682754517	2.50846004486084
60	176.80344796180725	fix_post	2		12.0	58.0	2.5	/experiments/knapen_aot/videos/S_yt-35i8UeYXjGw_47.mp4	0.0	275.864266872406	0.09996414184570312
61	176.90341210365295	fix_pre	0		46.0	59.0	2.5	/experiments/knapen_aot/videos/R_S_yt-O6FS0xnF0CU_106.mp4	0.0	275.9642310142517	0.3831980228424072
61	177.27847599983215	response	0	4		59.0	2.5	/experiments/knapen_aot/videos/R_S_yt-O6FS0xnF0CU_106.mp4	0.0	276.3392949104309	
61	177.28661012649536	movie	1		301.0	59.0	2.5	/experiments/knapen_aot/videos/R_S_yt-O6FS0xnF0CU_106.mp4	0.0	276.3474290370941	2.508490800857544
61	179.7951009273529	fix_post	2		12.0	59.0	2.5	/experiments/knapen_aot/videos/R_S_yt-O6FS0xnF0CU_106.mp4	0.0	278.85591983795166	0.09989619255065918
62	179.89499711990356	fix_pre	0		18.0	60.0	2.5	/experiments/knapen_aot/videos/R_S_yt-w_e3sxIzepA_115.mp4	0.0	278.9558160305023	0.1499948501586914
62	180.03673601150513	response	0	4		60.0	2.5	/experiments/knapen_aot/videos/R_S_yt-w_e3sxIzepA_115.mp4	0.0	279.0975549221039	
62	180.04499197006226	movie	1		301.0	60.0	2.5	/experiments/knapen_aot/videos/R_S_yt-w_e3sxIzepA_115.mp4	0.0	279.105810880661	2.508342981338501
62	182.55333495140076	fix_post	2		12.0	60.0	2.5	/experiments/knapen_aot/videos/R_S_yt-w_e3sxIzepA_115.mp4	0.0	281.6141538619995	0.1000361442565918
63	182.65337109565735	fix_pre	0		24.0	61.0	2.5	/experiments/knapen_aot/videos/S_yt-26obL-Z5obg_131.mp4	0.0	281.7141900062561	0.19990897178649902
63	182.84513902664185	response	0	4		61.0	2.5	/experiments/knapen_aot/videos/S_yt-26obL-Z5obg_131.mp4	0.0	281.9059579372406	
63	182.85328006744385	movie	1		301.0	61.0	2.5	/experiments/knapen_aot/videos/S_yt-26obL-Z5obg_131.mp4	0.0	281.9140989780426	2.5083539485931396
63	185.361634016037	fix_post	2		12.0	61.0	2.5	/experiments/knapen_aot/videos/S_yt-26obL-Z5obg_131.mp4	0.0	284.42245292663574	0.0999898910522461
64	185.46162390708923	fix_pre	0		125.0	62.0	2.5	blank	1.0	284.522442817688	1.0415370464324951
64	186.495099067688	response	0	4		62.0	2.5	blank	1.0	285.55591797828674	
64	186.50316095352173	movie	1		301.0	62.0	2.5	blank	1.0	285.5639798641205	2.508430004119873
64	189.0115909576416	fix_post	2		12.0	62.0	2.5	blank	1.0	288.07240986824036	0.09998202323913574
65	189.11157298088074	fix_pre	0		51.0	63.0	2.5	/experiments/knapen_aot/videos/R_S_Pz_NXxhQCJc_70.mp4	0.0	288.1723918914795	0.4250681400299072
65	189.5283980369568	response	0	4		63.0	2.5	/experiments/knapen_aot/videos/R_S_Pz_NXxhQCJc_70.mp4	0.0	288.58921694755554	
65	189.53664112091064	movie	1		301.0	63.0	2.5	/experiments/knapen_aot/videos/R_S_Pz_NXxhQCJc_70.mp4	0.0	288.5974600315094	2.508328914642334
65	192.04497003555298	fix_post	2		12.0	63.0	2.5	/experiments/knapen_aot/videos/R_S_Pz_NXxhQCJc_70.mp4	0.0	291.10578894615173	0.09994196891784668
66	192.14491200447083	fix_pre	0		191.0	64.0	2.5	/experiments/knapen_aot/videos/S_yt-DmlSN7mzczI_62.mp4	0.0	291.2057309150696	1.5916979312896729
66	193.72837805747986	response	0	4		64.0	2.5	/experiments/knapen_aot/videos/S_yt-DmlSN7mzczI_62.mp4	0.0	292.7891969680786	
66	193.7366099357605	movie	1		301.0	64.0	2.5	/experiments/knapen_aot/videos/S_yt-DmlSN7mzczI_62.mp4	0.0	292.79742884635925	2.508291006088257
66	196.24490094184875	fix_post	2		12.0	64.0	2.5	/experiments/knapen_aot/videos/S_yt-DmlSN7mzczI_62.mp4	0.0	295.3057198524475	0.10017108917236328
67	196.34507203102112	fix_pre	0		18.0	65.0	2.5	/experiments/knapen_aot/videos/S_yt-gzjV6YoK6X0_3.mp4	0.0	295.4058909416199	0.14975500106811523
67	196.47914004325867	response	0	4		65.0	2.5	/experiments/knapen_aot/videos/S_yt-gzjV6YoK6X0_3.mp4	0.0	295.5399589538574	
67	196.49482703208923	movie	1		301.0	65.0	2.5	/experiments/knapen_aot/videos/S_yt-gzjV6YoK6X0_3.mp4	0.0	295.555645942688	2.5084688663482666
67	199.0032958984375	fix_post	2		12.0	65.0	2.5	/experiments/knapen_aot/videos/S_yt-gzjV6YoK6X0_3.mp4	0.0	298.06411480903625	0.09989309310913086
68	199.10318899154663	fix_pre	0		10.0	66.0	2.5	/experiments/knapen_aot/videos/S_yt-DmlSN7mzczI_62.mp4	0.0	298.1640079021454	0.08332705497741699
68	199.17832708358765	response	0	4		66.0	2.5	/experiments/knapen_aot/videos/S_yt-DmlSN7mzczI_62.mp4	0.0	298.2391459941864	
68	199.18651604652405	movie	1		301.0	66.0	2.5	/experiments/knapen_aot/videos/S_yt-DmlSN7mzczI_62.mp4	0.0	298.2473349571228	2.5084450244903564
68	200.9866280555725	response	1	4		66.0	2.5	/experiments/knapen_aot/videos/S_yt-DmlSN7mzczI_62.mp4	0.0	300.04744696617126	
68	201.6949610710144	fix_post	2		12.0	66.0	2.5	/experiments/knapen_aot/videos/S_yt-DmlSN7mzczI_62.mp4	0.0	300.75577998161316	0.0998990535736084
69	201.794860124588	fix_pre	0		224.0	67.0	2.5	/experiments/knapen_aot/videos/R_S_ILSVRC2015_train_00373000.mp4	0.0	300.85567903518677	1.8666448593139648
69	203.65334391593933	response	0	4		67.0	2.5	/experiments/knapen_aot/videos/R_S_ILSVRC2015_train_00373000.mp4	0.0	302.7141628265381	
69	203.66150498390198	movie	1		301.0	67.0	2.5	/experiments/knapen_aot/videos/R_S_ILSVRC2015_train_00373000.mp4	0.0	302.72232389450073	2.508366107940674
69	206.16987109184265	fix_post	2		12.0	67.0	2.5	/experiments/knapen_aot/videos/R_S_ILSVRC2015_train_00373000.mp4	0.0	305.2306900024414	0.09995293617248535
70	206.26982402801514	fix_pre	0		13.0	68.0	2.5	blank	1.0	305.3306429386139	0.10824108123779297
70	206.37000513076782	response	0	4		68.0	2.5	blank	1.0	305.4308240413666	
70	206.37806510925293	movie	1		301.0	68.0	2.5	blank	1.0	305.4388840198517	2.5084028244018555
70	208.88646793365479	fix_post	2		12.0	68.0	2.5	blank	1.0	307.94728684425354	0.10009098052978516
71	208.98655891418457	fix_pre	0		29.0	69.0	2.5	/experiments/knapen_aot/videos/R_S_yt-bWXohhodbjg_98.mp4	0.0	308.0473778247833	0.24155306816101074
71	209.21993207931519	response	0	4		69.0	2.5	/experiments/knapen_aot/videos/R_S_yt-bWXohhodbjg_98.mp4	0.0	308.28075098991394	
71	209.22811198234558	movie	1		301.0	69.0	2.5	/experiments/knapen_aot/videos/R_S_yt-bWXohhodbjg_98.mp4	0.0	308.28893089294434	2.508409023284912
71	211.7365210056305	fix_post	2		12.0	69.0	2.5	/experiments/knapen_aot/videos/R_S_yt-bWXohhodbjg_98.mp4	0.0	310.79733991622925	0.09998202323913574
72	211.83650302886963	fix_pre	0		24.0	70.0	2.5	/experiments/knapen_aot/videos/S_yt-H611SOb1T78_189.mp4	0.0	310.8973219394684	0.19997501373291016
72	212.02832102775574	response	0	4		70.0	2.5	/experiments/knapen_aot/videos/S_yt-H611SOb1T78_189.mp4	0.0	311.0891399383545	
72	212.03647804260254	movie	1		301.0	70.0	2.5	/experiments/knapen_aot/videos/S_yt-H611SOb1T78_189.mp4	0.0	311.0972969532013	2.509890079498291
72	214.54636812210083	fix_post	2		12.0	70.0	2.5	/experiments/knapen_aot/videos/S_yt-H611SOb1T78_189.mp4	0.0	313.6071870326996	0.09838294982910156
73	214.64475107192993	fix_pre	0		37.0	71.0	2.5	/experiments/knapen_aot/videos/S_yt-waWM9vAfsIw_116.mp4	0.0	313.7055699825287	0.3083789348602295
73	214.94493198394775	response	0	4		71.0	2.5	/experiments/knapen_aot/videos/S_yt-waWM9vAfsIw_116.mp4	0.0	314.0057508945465	
73	214.95313000679016	movie	1		301.0	71.0	2.5	/experiments/knapen_aot/videos/S_yt-waWM9vAfsIw_116.mp4	0.0	314.0139489173889	2.508328914642334
73	217.4614589214325	fix_post	2		12.0	71.0	2.5	/experiments/knapen_aot/videos/S_yt-waWM9vAfsIw_116.mp4	0.0	316.52227783203125	0.10005497932434082
74	217.56151390075684	fix_pre	0		46.0	72.0	2.5	/experiments/knapen_aot/videos/R_S_yt-wVMhACNFF-M_154.mp4	0.0	316.6223328113556	0.38327503204345703
74	217.93658900260925	response	0	4		72.0	2.5	/experiments/knapen_aot/videos/R_S_yt-wVMhACNFF-M_154.mp4	0.0	316.997407913208	
74	217.9447889328003	movie	1		300.0	72.0	2.5	/experiments/knapen_aot/videos/R_S_yt-wVMhACNFF-M_154.mp4	0.0	317.00560784339905	2.508341073989868
74	220.45313000679016	fix_post	2		12.0	72.0	2.5	/experiments/knapen_aot/videos/R_S_yt-wVMhACNFF-M_154.mp4	0.0	319.5139489173889	0.09999203681945801
75	220.55312204360962	fix_pre	0		36.0	73.0	2.5	/experiments/knapen_aot/videos/S_S006_C007_SDR_2K_AVC.mp4	0.0	319.6139409542084	0.3000168800354004
75	220.8448851108551	response	0	4		73.0	2.5	/experiments/knapen_aot/videos/S_S006_C007_SDR_2K_AVC.mp4	0.0	319.90570402145386	
75	220.85313892364502	movie	1		169.0	73.0	2.5	/experiments/knapen_aot/videos/S_S006_C007_SDR_2K_AVC.mp4	0.0	319.9139578342438	2.5084002017974854
75	222.1438090801239	response	1	4		73.0	2.5	/experiments/knapen_aot/videos/S_S006_C007_SDR_2K_AVC.mp4	0.0	321.20462799072266	
75	223.3615391254425	fix_post	2		12.0	73.0	2.5	/experiments/knapen_aot/videos/S_S006_C007_SDR_2K_AVC.mp4	0.0	322.42235803604126	0.09994196891784668
76	223.46148109436035	fix_pre	0		22.0	74.0	2.5	/experiments/knapen_aot/videos/S_BO_A018_C029_SDR_20190812_SDR_2K_AVC.mp4	0.0	322.5223000049591	0.18330001831054688
76	223.63653898239136	response	0	4		74.0	2.5	/experiments/knapen_aot/videos/S_BO_A018_C029_SDR_20190812_SDR_2K_AVC.mp4	0.0	322.6973578929901	
76	223.6447811126709	movie	1		167.0	74.0	2.5	/experiments/knapen_aot/videos/S_BO_A018_C029_SDR_20190812_SDR_2K_AVC.mp4	0.0	322.70560002326965	2.508384943008423
76	226.15316605567932	fix_post	2		12.0	74.0	2.5	/experiments/knapen_aot/videos/S_BO_A018_C029_SDR_20190812_SDR_2K_AVC.mp4	0.0	325.2139849662781	0.10004091262817383
77	226.2532069683075	fix_pre	0		36.0	75.0	2.5	/experiments/knapen_aot/videos/S_yt-2IxVZeiSv3g_28.mp4	0.0	325.31402587890625	0.29987096786499023
77	226.54489707946777	response	0	4		75.0	2.5	/experiments/knapen_aot/videos/S_yt-2IxVZeiSv3g_28.mp4	0.0	325.6057159900665	
77	226.55307793617249	movie	1		301.0	75.0	2.5	/experiments/knapen_aot/videos/S_yt-2IxVZeiSv3g_28.mp4	0.0	325.61389684677124	2.5084891319274902
77	229.06156706809998	fix_post	2		12.0	75.0	2.5	/experiments/knapen_aot/videos/S_yt-2IxVZeiSv3g_28.mp4	0.0	328.12238597869873	0.0998530387878418
78	229.16142010688782	fix_pre	0		119.0	76.0	2.5	blank	1.0	328.2222390174866	0.9916369915008545
78	230.14483904838562	response	0	4		76.0	2.5	blank	1.0	329.2056579589844	
78	230.15305709838867	movie	1		301.0	76.0	2.5	blank	1.0	329.2138760089874	2.508370876312256
78	232.61150693893433	response	1	4		76.0	2.5	blank	1.0	331.6723258495331	
78	232.66142797470093	fix_post	2		12.0	76.0	2.5	blank	1.0	331.7222468852997	0.09997415542602539
79	232.76140213012695	fix_pre	0		168.0	77.0	2.5	/experiments/knapen_aot/videos/S_yt-7Ya-rGPO8cM_159.mp4	0.0	331.8222210407257	1.3999719619750977
79	234.14556002616882	response	0	4		77.0	2.5	/experiments/knapen_aot/videos/S_yt-7Ya-rGPO8cM_159.mp4	0.0	333.2063789367676	
79	234.16137409210205	movie	1		301.0	77.0	2.5	/experiments/knapen_aot/videos/S_yt-7Ya-rGPO8cM_159.mp4	0.0	333.2221930027008	2.5083420276641846
79	236.66971611976624	fix_post	2		12.0	77.0	2.5	/experiments/knapen_aot/videos/S_yt-7Ya-rGPO8cM_159.mp4	0.0	335.730535030365	0.10005879402160645
80	236.76977491378784	fix_pre	0		41.0	78.0	2.5	/experiments/knapen_aot/videos/S_yt-s5YONFy3vb4_46.mp4	0.0	335.8305938243866	0.3415980339050293
80	237.10317206382751	response	0	4		78.0	2.5	/experiments/knapen_aot/videos/S_yt-s5YONFy3vb4_46.mp4	0.0	336.16399097442627	
80	237.11137294769287	movie	1		301.0	78.0	2.5	/experiments/knapen_aot/videos/S_yt-s5YONFy3vb4_46.mp4	0.0	336.1721918582916	2.508319139480591
80	239.61969208717346	fix_post	2		12.0	78.0	2.5	/experiments/knapen_aot/videos/S_yt-s5YONFy3vb4_46.mp4	0.0	338.6805109977722	0.10005903244018555
81	239.71975111961365	fix_pre	0		12.0	79.0	2.5	/experiments/knapen_aot/videos/S_yt-SGTgMItFkxY_172.mp4	0.0	338.7805700302124	0.09993696212768555
81	239.81142210960388	response	0	4		79.0	2.5	/experiments/knapen_aot/videos/S_yt-SGTgMItFkxY_172.mp4	0.0	338.87224102020264	
81	239.81968808174133	movie	1		301.0	79.0	2.5	/experiments/knapen_aot/videos/S_yt-SGTgMItFkxY_172.mp4	0.0	338.8805069923401	2.508568048477173
81	242.3282561302185	fix_post	2		12.0	79.0	2.5	/experiments/knapen_aot/videos/S_yt-SGTgMItFkxY_172.mp4	0.0	341.38907504081726	0.0997629165649414
82	242.42801904678345	fix_pre	0		6.0	80.0	2.5	/experiments/knapen_aot/videos/R_S_yt-y3tyx6cZjmA_412.mp4	0.0	341.4888379573822	0.04997897148132324
82	242.46983098983765	response	0	4		80.0	2.5	/experiments/knapen_aot/videos/R_S_yt-y3tyx6cZjmA_412.mp4	0.0	341.5306499004364	
82	242.47799801826477	movie	1		301.0	80.0	2.5	/experiments/knapen_aot/videos/R_S_yt-y3tyx6cZjmA_412.mp4	0.0	341.5388169288635	2.5083649158477783
82	244.98636293411255	fix_post	2		12.0	80.0	2.5	/experiments/knapen_aot/videos/R_S_yt-y3tyx6cZjmA_412.mp4	0.0	344.0471818447113	0.09994196891784668
83	245.0863049030304	fix_pre	0		21.0	81.0	2.5	/experiments/knapen_aot/videos/S_yt-hHdxZ26SImA_17.mp4	0.0	344.14712381362915	0.17504119873046875
83	245.25309801101685	response	0	4		81.0	2.5	/experiments/knapen_aot/videos/S_yt-hHdxZ26SImA_17.mp4	0.0	344.3139169216156	
83	245.26134610176086	movie	1		301.0	81.0	2.5	/experiments/knapen_aot/videos/S_yt-hHdxZ26SImA_17.mp4	0.0	344.3221650123596	2.508366823196411
83	247.76971292495728	fix_post	2		12.0	81.0	2.5	/experiments/knapen_aot/videos/S_yt-hHdxZ26SImA_17.mp4	0.0	346.83053183555603	0.09999299049377441
84	247.86970591545105	fix_pre	0		12.0	82.0	2.5	/experiments/knapen_aot/videos/S_yt-NQSCGMpo-p8_118.mp4	0.0	346.9305248260498	0.09995102882385254
84	247.96153593063354	response	0	4		82.0	2.5	/experiments/knapen_aot/videos/S_yt-NQSCGMpo-p8_118.mp4	0.0	347.0223548412323	
84	247.9696569442749	movie	1		301.0	82.0	2.5	/experiments/knapen_aot/videos/S_yt-NQSCGMpo-p8_118.mp4	0.0	347.03047585487366	2.5083751678466797
84	250.47803211212158	fix_post	2		12.0	82.0	2.5	/experiments/knapen_aot/videos/S_yt-NQSCGMpo-p8_118.mp4	0.0	349.53885102272034	0.10001778602600098
85	250.57804989814758	fix_pre	0		13.0	83.0	2.5	blank	1.0	349.63886880874634	0.10831403732299805
85	250.67812204360962	response	0	4		83.0	2.5	blank	1.0	349.7389409542084	
85	250.68636393547058	movie	1		301.0	83.0	2.5	blank	1.0	349.74718284606934	2.5083260536193848
85	253.19468998908997	fix_post	2		12.0	83.0	2.5	blank	1.0	352.2555088996887	0.1000370979309082
87	253.29472708702087	stim	0		104.0					352.35554599761963	0.8666319847106934
87	253.49477791786194	response	0	4						352.5555968284607	
87	254.15399599075317	response	0	space						353.21481490135193	
