trial_nr	onset	event_type	phase	response	nr_frames	movie_index	movie_duration	movie_file	blank	onset_abs	duration
0	0.16666722297668457	stim	0		67.0					60.62385940551758	0.6548078060150146
0	0.8086090087890625	response	0	space						61.265801191329956	
1	0.8214750289916992	stim	0		121.0					61.27866721153259	1.003655195236206
1	1.8251302242279053	stim	1		120.0					62.2823224067688	0.9995908737182617
1	2.599828004837036	response	1	space						63.05702018737793	
2	2.824721097946167	fix_pre	0		54.0	0.0	2.5	/experiments/knapen_aot/videos/S_yt-McqS-QObQbk_122.mp4	0.0	63.28191328048706	0.4499030113220215
2	3.266517162322998	response	0	space		0.0	2.5	/experiments/knapen_aot/videos/S_yt-McqS-QObQbk_122.mp4	0.0	63.72370934486389	
2	3.2746241092681885	movie	1		299.0	0.0	2.5	/experiments/knapen_aot/videos/S_yt-McqS-QObQbk_122.mp4	0.0	63.73181629180908	2.508305072784424
2	5.782929182052612	fix_post	2		12.0	0.0	2.5	/experiments/knapen_aot/videos/S_yt-McqS-QObQbk_122.mp4	0.0	66.2401213645935	0.10074186325073242
3	5.883671045303345	fix_pre	0		153.0	1.0	2.5	/experiments/knapen_aot/videos/S_yt-2l6VKd94eAI_151.mp4	0.0	66.34086322784424	1.2742760181427002
3	7.142512083053589	response	0	2		1.0	2.5	/experiments/knapen_aot/videos/S_yt-2l6VKd94eAI_151.mp4	0.0	67.59970426559448	
3	7.157947063446045	movie	1		301.0	1.0	2.5	/experiments/knapen_aot/videos/S_yt-2l6VKd94eAI_151.mp4	0.0	67.61513924598694	2.5084991455078125
3	9.666446208953857	fix_post	2		12.0	1.0	2.5	/experiments/knapen_aot/videos/S_yt-2l6VKd94eAI_151.mp4	0.0	70.12363839149475	0.09990692138671875
4	9.766353130340576	fix_pre	0		184.0	2.0	2.5	/experiments/knapen_aot/videos/R_S_ILSVRC2015_train_00219004.mp4	0.0	70.22354531288147	1.5338470935821533
4	11.291530132293701	response	0	2		2.0	2.5	/experiments/knapen_aot/videos/R_S_ILSVRC2015_train_00219004.mp4	0.0	71.7487223148346	
4	11.30020022392273	movie	1		301.0	2.0	2.5	/experiments/knapen_aot/videos/R_S_ILSVRC2015_train_00219004.mp4	0.0	71.75739240646362	2.5077338218688965
4	13.807934045791626	fix_post	2		12.0	2.0	2.5	/experiments/knapen_aot/videos/R_S_ILSVRC2015_train_00219004.mp4	0.0	74.26512622833252	0.10006117820739746
5	13.907995223999023	fix_pre	0		128.0	3.0	2.5	/experiments/knapen_aot/videos/R_S_ILSVRC2015_train_00425000.mp4	0.0	74.36518740653992	1.0666718482971191
5	14.96644401550293	response	0	2		3.0	2.5	/experiments/knapen_aot/videos/R_S_ILSVRC2015_train_00425000.mp4	0.0	75.42363619804382	
5	14.974667072296143	movie	1		299.0	3.0	2.5	/experiments/knapen_aot/videos/R_S_ILSVRC2015_train_00425000.mp4	0.0	75.43185925483704	2.5083110332489014
5	17.482978105545044	fix_post	2		12.0	3.0	2.5	/experiments/knapen_aot/videos/R_S_ILSVRC2015_train_00425000.mp4	0.0	77.94017028808594	0.09998607635498047
6	17.582964181900024	fix_pre	0		33.0	4.0	2.5	/experiments/knapen_aot/videos/S_ILSVRC2015_train_00415007.mp4	0.0	78.04015636444092	0.2749459743499756
6	17.849743127822876	response	0	2		4.0	2.5	/experiments/knapen_aot/videos/S_ILSVRC2015_train_00415007.mp4	0.0	78.30693531036377	
6	17.85791015625	movie	1		301.0	4.0	2.5	/experiments/knapen_aot/videos/S_ILSVRC2015_train_00415007.mp4	0.0	78.3151023387909	2.508333921432495
6	20.366244077682495	fix_post	2		12.0	4.0	2.5	/experiments/knapen_aot/videos/S_ILSVRC2015_train_00415007.mp4	0.0	80.82343626022339	0.10089802742004395
7	20.46714210510254	fix_pre	0		32.0	5.0	2.5	/experiments/knapen_aot/videos/R_S_yt-W00vtWnXgIk_73.mp4	0.0	80.92433428764343	0.2657918930053711
7	20.724778175354004	response	0	2		5.0	2.5	/experiments/knapen_aot/videos/R_S_yt-W00vtWnXgIk_73.mp4	0.0	81.1819703578949	
7	20.73293399810791	movie	1		301.0	5.0	2.5	/experiments/knapen_aot/videos/R_S_yt-W00vtWnXgIk_73.mp4	0.0	81.1901261806488	2.508327007293701
7	23.24126100540161	fix_post	2		12.0	5.0	2.5	/experiments/knapen_aot/videos/R_S_yt-W00vtWnXgIk_73.mp4	0.0	83.6984531879425	0.10055303573608398
8	23.341814041137695	fix_pre	0		197.0	6.0	2.5	/experiments/knapen_aot/videos/R_S_ILSVRC2015_train_00441000.mp4	0.0	83.79900622367859	1.641057014465332
8	24.97460913658142	response	0	2		6.0	2.5	/experiments/knapen_aot/videos/R_S_ILSVRC2015_train_00441000.mp4	0.0	85.43180131912231	
8	24.982871055603027	movie	1		301.0	6.0	2.5	/experiments/knapen_aot/videos/R_S_ILSVRC2015_train_00441000.mp4	0.0	85.44006323814392	2.5084049701690674
8	27.491276025772095	fix_post	2		12.0	6.0	2.5	/experiments/knapen_aot/videos/R_S_ILSVRC2015_train_00441000.mp4	0.0	87.94846820831299	0.09996414184570312
9	27.591240167617798	fix_pre	0		28.0	7.0	2.5	blank	1.0	88.04843235015869	0.23328590393066406
9	27.816352128982544	response	0	2		7.0	2.5	blank	1.0	88.27354431152344	
9	27.824526071548462	movie	1		301.0	7.0	2.5	blank	1.0	88.28171825408936	2.508373975753784
9	30.332900047302246	fix_post	2		12.0	7.0	2.5	blank	1.0	90.79009222984314	0.09997797012329102
10	30.432878017425537	fix_pre	0		396.0	8.0	2.5	/experiments/knapen_aot/videos/R_S_yt-cokedWwwYYs_136.mp4	0.0	90.89007019996643	3.2999579906463623
10	33.72463822364807	response	0	2		8.0	2.5	/experiments/knapen_aot/videos/R_S_yt-cokedWwwYYs_136.mp4	0.0	94.18183040618896	
10	33.7328360080719	movie	1		301.0	8.0	2.5	/experiments/knapen_aot/videos/R_S_yt-cokedWwwYYs_136.mp4	0.0	94.1900281906128	2.5083351135253906
10	36.24117112159729	fix_post	2		12.0	8.0	2.5	/experiments/knapen_aot/videos/R_S_yt-cokedWwwYYs_136.mp4	0.0	96.69836330413818	0.1005098819732666
11	36.34168100357056	fix_pre	0		105.0	9.0	2.5	/experiments/knapen_aot/videos/R_S_yt-B8Sy53C6Pxw_8.mp4	0.0	96.79887318611145	0.8749101161956787
11	37.20793104171753	response	0	2		9.0	2.5	/experiments/knapen_aot/videos/R_S_yt-B8Sy53C6Pxw_8.mp4	0.0	97.66512322425842	
11	37.216591119766235	movie	1		300.0	9.0	2.5	/experiments/knapen_aot/videos/R_S_yt-B8Sy53C6Pxw_8.mp4	0.0	97.67378330230713	2.5079400539398193
11	39.724531173706055	fix_post	2		12.0	9.0	2.5	/experiments/knapen_aot/videos/R_S_yt-B8Sy53C6Pxw_8.mp4	0.0	100.18172335624695	0.10002803802490234
12	39.82455921173096	fix_pre	0		45.0	10.0	2.5	/experiments/knapen_aot/videos/R_S_yt-452RKqKIeRU_16.mp4	0.0	100.28175139427185	0.37496495246887207
12	40.19129920005798	response	0	2		10.0	2.5	/experiments/knapen_aot/videos/R_S_yt-452RKqKIeRU_16.mp4	0.0	100.64849138259888	
12	40.19952416419983	movie	1		300.0	10.0	2.5	/experiments/knapen_aot/videos/R_S_yt-452RKqKIeRU_16.mp4	0.0	100.65671634674072	2.5082390308380127
12	42.70776319503784	fix_post	2		12.0	10.0	2.5	/experiments/knapen_aot/videos/R_S_yt-452RKqKIeRU_16.mp4	0.0	103.16495537757874	0.10012197494506836
13	42.80788516998291	fix_pre	0		97.0	11.0	2.5	/experiments/knapen_aot/videos/R_S_ILSVRC2015_train_00743000.mp4	0.0	103.2650773525238	0.8082308769226074
13	43.607914209365845	response	0	2		11.0	2.5	/experiments/knapen_aot/videos/R_S_ILSVRC2015_train_00743000.mp4	0.0	104.06510639190674	
13	43.61611604690552	movie	1		301.0	11.0	2.5	/experiments/knapen_aot/videos/R_S_ILSVRC2015_train_00743000.mp4	0.0	104.07330822944641	2.5083611011505127
13	46.12447714805603	fix_post	2		12.0	11.0	2.5	/experiments/knapen_aot/videos/R_S_ILSVRC2015_train_00743000.mp4	0.0	106.58166933059692	0.11673092842102051
14	46.24120807647705	fix_pre	0		30.0	12.0	2.5	/experiments/knapen_aot/videos/S_yt-MsSEF0krKE4_149.mp4	0.0	106.69840025901794	0.24988603591918945
14	46.48290300369263	response	0	2		12.0	2.5	/experiments/knapen_aot/videos/S_yt-MsSEF0krKE4_149.mp4	0.0	106.94009518623352	
14	46.49109411239624	movie	1		301.0	12.0	2.5	/experiments/knapen_aot/videos/S_yt-MsSEF0krKE4_149.mp4	0.0	106.94828629493713	2.5083580017089844
14	48.999452114105225	fix_post	2		12.0	12.0	2.5	/experiments/knapen_aot/videos/S_yt-MsSEF0krKE4_149.mp4	0.0	109.45664429664612	0.09998011589050293
15	49.09943222999573	fix_pre	0		54.0	13.0	2.5	/experiments/knapen_aot/videos/R_S_yt-wE0cEswyaaM_53.mp4	0.0	109.55662441253662	0.450361967086792
15	49.54120421409607	response	0	2		13.0	2.5	/experiments/knapen_aot/videos/R_S_yt-wE0cEswyaaM_53.mp4	0.0	109.99839639663696	
15	49.54979419708252	movie	1		301.0	13.0	2.5	/experiments/knapen_aot/videos/R_S_yt-wE0cEswyaaM_53.mp4	0.0	110.00698637962341	2.5080089569091797
15	52.0578031539917	fix_post	2		12.0	13.0	2.5	/experiments/knapen_aot/videos/R_S_yt-wE0cEswyaaM_53.mp4	0.0	112.51499533653259	0.09995484352111816
16	52.15775799751282	fix_pre	0		126.0	14.0	2.5	blank	1.0	112.61495018005371	1.0499281883239746
16	53.192095041275024	response	0	2		14.0	2.5	blank	1.0	113.64928722381592	
16	53.20768618583679	movie	1		301.0	14.0	2.5	blank	1.0	113.66487836837769	2.508380889892578
16	55.71606707572937	fix_post	2		12.0	14.0	2.5	blank	1.0	116.17325925827026	0.0999901294708252
17	55.816057205200195	fix_pre	0		122.0	15.0	2.5	/experiments/knapen_aot/videos/R_S_pexels-roman-odintsov-8232443_1.mp4	0.0	116.27324938774109	1.016676902770996
17	56.81702423095703	response	0	2		15.0	2.5	/experiments/knapen_aot/videos/R_S_pexels-roman-odintsov-8232443_1.mp4	0.0	117.27421641349792	
17	56.83273410797119	movie	1		201.0	15.0	2.5	/experiments/knapen_aot/videos/R_S_pexels-roman-odintsov-8232443_1.mp4	0.0	117.28992629051208	2.508229970932007
17	59.3409640789032	fix_post	2		12.0	15.0	2.5	/experiments/knapen_aot/videos/R_S_pexels-roman-odintsov-8232443_1.mp4	0.0	119.79815626144409	0.10007715225219727
18	59.441041231155396	fix_pre	0		29.0	16.0	2.5	/experiments/knapen_aot/videos/R_S_comp_LA_A006_C008_PSNK_ALL_LOGOS_v10_SDR_PS_FINAL_20180801_SDR_2K_AVC.mp4	0.0	119.89823341369629	0.24161481857299805
18	59.6745491027832	response	0	2		16.0	2.5	/experiments/knapen_aot/videos/R_S_comp_LA_A006_C008_PSNK_ALL_LOGOS_v10_SDR_PS_FINAL_20180801_SDR_2K_AVC.mp4	0.0	120.1317412853241	
18	59.682656049728394	movie	1		174.0	16.0	2.5	/experiments/knapen_aot/videos/R_S_comp_LA_A006_C008_PSNK_ALL_LOGOS_v10_SDR_PS_FINAL_20180801_SDR_2K_AVC.mp4	0.0	120.13984823226929	2.508336067199707
18	62.1909921169281	fix_post	2		12.0	16.0	2.5	/experiments/knapen_aot/videos/R_S_comp_LA_A006_C008_PSNK_ALL_LOGOS_v10_SDR_PS_FINAL_20180801_SDR_2K_AVC.mp4	0.0	122.648184299469	0.1000208854675293
19	62.29101300239563	fix_pre	0		6.0	17.0	2.5	/experiments/knapen_aot/videos/S_yt-2LCHVTVwJ5E_235.mp4	0.0	122.74820518493652	0.05075502395629883
19	62.33299422264099	response	0	2		17.0	2.5	/experiments/knapen_aot/videos/S_yt-2LCHVTVwJ5E_235.mp4	0.0	122.79018640518188	
19	62.34176802635193	movie	1		299.0	17.0	2.5	/experiments/knapen_aot/videos/S_yt-2LCHVTVwJ5E_235.mp4	0.0	122.79896020889282	2.5075700283050537
19	64.84933805465698	fix_post	2		12.0	17.0	2.5	/experiments/knapen_aot/videos/S_yt-2LCHVTVwJ5E_235.mp4	0.0	125.30653023719788	0.09998106956481934
20	64.9493191242218	fix_pre	0		36.0	18.0	2.5	/experiments/knapen_aot/videos/S_yt-1UFhynm5g6Y_266.mp4	0.0	125.4065113067627	0.29999709129333496
20	65.24108505249023	response	0	2		18.0	2.5	/experiments/knapen_aot/videos/S_yt-1UFhynm5g6Y_266.mp4	0.0	125.69827723503113	
20	65.24931621551514	movie	1		301.0	18.0	2.5	/experiments/knapen_aot/videos/S_yt-1UFhynm5g6Y_266.mp4	0.0	125.70650839805603	2.5086429119110107
20	67.75795912742615	fix_post	2		12.0	18.0	2.5	/experiments/knapen_aot/videos/S_yt-1UFhynm5g6Y_266.mp4	0.0	128.21515130996704	0.09961891174316406
21	67.85757803916931	fix_pre	0		107.0	19.0	2.5	/experiments/knapen_aot/videos/R_S_bing-www_dailymotion_com_video_x64hzm7_8.mp4	0.0	128.3147702217102	0.8918349742889404
21	68.74112915992737	response	0	2		19.0	2.5	/experiments/knapen_aot/videos/R_S_bing-www_dailymotion_com_video_x64hzm7_8.mp4	0.0	129.19832134246826	
21	68.74941301345825	movie	1		174.0	19.0	2.5	/experiments/knapen_aot/videos/R_S_bing-www_dailymotion_com_video_x64hzm7_8.mp4	0.0	129.20660519599915	2.5081779956817627
21	71.25759100914001	fix_post	2		12.0	19.0	2.5	/experiments/knapen_aot/videos/R_S_bing-www_dailymotion_com_video_x64hzm7_8.mp4	0.0	131.7147831916809	0.10000801086425781
22	71.35759902000427	fix_pre	0		35.0	20.0	2.5	/experiments/knapen_aot/videos/R_S_pexels-c-technical-6754008.mp4	0.0	131.81479120254517	0.29163503646850586
22	71.64103603363037	response	0	2		20.0	2.5	/experiments/knapen_aot/videos/R_S_pexels-c-technical-6754008.mp4	0.0	132.09822821617126	
22	71.64923405647278	movie	1		197.0	20.0	2.5	/experiments/knapen_aot/videos/R_S_pexels-c-technical-6754008.mp4	0.0	132.10642623901367	2.508404016494751
22	74.15763807296753	fix_post	2		12.0	20.0	2.5	/experiments/knapen_aot/videos/R_S_pexels-c-technical-6754008.mp4	0.0	134.61483025550842	0.10024499893188477
23	74.25788307189941	fix_pre	0		222.0	21.0	2.5	blank	1.0	134.7150752544403	1.849722146987915
23	76.09951901435852	response	0	2		21.0	2.5	blank	1.0	136.5567111968994	
23	76.10760521888733	movie	1		301.0	21.0	2.5	blank	1.0	136.56479740142822	2.508262872695923
23	78.61586809158325	fix_post	2		12.0	21.0	2.5	blank	1.0	139.07306027412415	0.10033106803894043
24	78.71619915962219	fix_pre	0		32.0	22.0	2.5	/experiments/knapen_aot/videos/R_S_ILSVRC2015_train_00185002.mp4	0.0	139.1733913421631	0.2663300037384033
24	78.97433018684387	response	0	2		22.0	2.5	/experiments/knapen_aot/videos/R_S_ILSVRC2015_train_00185002.mp4	0.0	139.43152236938477	
24	78.9825291633606	movie	1		301.0	22.0	2.5	/experiments/knapen_aot/videos/R_S_ILSVRC2015_train_00185002.mp4	0.0	139.4397213459015	2.5084118843078613
24	79.37644219398499	response	1	lctrl		22.0	2.5	/experiments/knapen_aot/videos/R_S_ILSVRC2015_train_00185002.mp4	0.0	139.83363437652588	
24	81.49094104766846	fix_post	2		12.0	22.0	2.5	/experiments/knapen_aot/videos/R_S_ILSVRC2015_train_00185002.mp4	0.0	141.94813323020935	0.10849499702453613
25	81.599436044693	fix_pre	0		29.0	23.0	2.5	/experiments/knapen_aot/videos/R_S_ILSVRC2015_train_00725000.mp4	0.0	142.0566282272339	0.24164295196533203
25	81.83557510375977	response	0	2		23.0	2.5	/experiments/knapen_aot/videos/R_S_ILSVRC2015_train_00725000.mp4	0.0	142.29276728630066	
25	81.84107899665833	movie	1		293.0	23.0	2.5	/experiments/knapen_aot/videos/R_S_ILSVRC2015_train_00725000.mp4	0.0	142.29827117919922	2.5081992149353027
25	84.34927821159363	fix_post	2		12.0	23.0	2.5	/experiments/knapen_aot/videos/R_S_ILSVRC2015_train_00725000.mp4	0.0	144.80647039413452	0.0999000072479248
26	84.44917821884155	fix_pre	0		22.0	24.0	2.5	/experiments/knapen_aot/videos/R_S_yt-cvwUZbYSd4Q_35.mp4	0.0	144.90637040138245	0.18355989456176758
26	84.62428021430969	response	0	2		24.0	2.5	/experiments/knapen_aot/videos/R_S_yt-cvwUZbYSd4Q_35.mp4	0.0	145.0814723968506	
26	84.63273811340332	movie	1		300.0	24.0	2.5	/experiments/knapen_aot/videos/R_S_yt-cvwUZbYSd4Q_35.mp4	0.0	145.0899302959442	2.5081939697265625
26	87.14093208312988	fix_post	2		12.0	24.0	2.5	/experiments/knapen_aot/videos/R_S_yt-cvwUZbYSd4Q_35.mp4	0.0	147.59812426567078	0.09999513626098633
27	87.24092721939087	fix_pre	0		21.0	25.0	2.5	/experiments/knapen_aot/videos/R_S_yt-N4tt7ZhANDg_21.mp4	0.0	147.69811940193176	0.17499685287475586
27	87.40770602226257	response	0	2		25.0	2.5	/experiments/knapen_aot/videos/R_S_yt-N4tt7ZhANDg_21.mp4	0.0	147.86489820480347	
27	87.41592407226562	movie	1		301.0	25.0	2.5	/experiments/knapen_aot/videos/R_S_yt-N4tt7ZhANDg_21.mp4	0.0	147.87311625480652	2.508413076400757
27	89.92433714866638	fix_post	2		12.0	25.0	2.5	/experiments/knapen_aot/videos/R_S_yt-N4tt7ZhANDg_21.mp4	0.0	150.38152933120728	0.09986305236816406
28	90.02420020103455	fix_pre	0		178.0	26.0	2.5	/experiments/knapen_aot/videos/S_yt-eF5J5Kjt6oY_23.mp4	0.0	150.48139238357544	1.4834578037261963
28	91.49931311607361	response	0	2		26.0	2.5	/experiments/knapen_aot/videos/S_yt-eF5J5Kjt6oY_23.mp4	0.0	151.9565052986145	
28	91.50765800476074	movie	1		301.0	26.0	2.5	/experiments/knapen_aot/videos/S_yt-eF5J5Kjt6oY_23.mp4	0.0	151.96485018730164	2.508223056793213
28	94.01588106155396	fix_post	2		12.0	26.0	2.5	/experiments/knapen_aot/videos/S_yt-eF5J5Kjt6oY_23.mp4	0.0	154.47307324409485	0.10007596015930176
29	94.11595702171326	fix_pre	0		27.0	27.0	2.5	/experiments/knapen_aot/videos/R_S_yt-YTQXM5ZjRgg_116.mp4	0.0	154.57314920425415	0.22501301765441895
29	94.33265614509583	response	0	2		27.0	2.5	/experiments/knapen_aot/videos/R_S_yt-YTQXM5ZjRgg_116.mp4	0.0	154.78984832763672	
29	94.34097003936768	movie	1		301.0	27.0	2.5	/experiments/knapen_aot/videos/R_S_yt-YTQXM5ZjRgg_116.mp4	0.0	154.79816222190857	2.5081629753112793
29	96.84913301467896	fix_post	2		12.0	27.0	2.5	/experiments/knapen_aot/videos/R_S_yt-YTQXM5ZjRgg_116.mp4	0.0	157.30632519721985	0.10844707489013672
30	96.95758008956909	fix_pre	0		153.0	28.0	2.5	blank	1.0	157.41477227210999	1.2748799324035645
30	98.22423100471497	response	0	2		28.0	2.5	blank	1.0	158.68142318725586	
30	98.23246002197266	movie	1		301.0	28.0	2.5	blank	1.0	158.68965220451355	2.5083210468292236
30	100.74078106880188	fix_post	2		12.0	28.0	2.5	blank	1.0	161.19797325134277	0.1001291275024414
31	100.84091019630432	fix_pre	0		148.0	29.0	2.5	/experiments/knapen_aot/videos/S_yt-W00vtWnXgIk_73.mp4	0.0	161.29810237884521	1.2331569194793701
31	102.06589818000793	response	0	2		29.0	2.5	/experiments/knapen_aot/videos/S_yt-W00vtWnXgIk_73.mp4	0.0	162.52309036254883	
31	102.07406711578369	movie	1		301.0	29.0	2.5	/experiments/knapen_aot/videos/S_yt-W00vtWnXgIk_73.mp4	0.0	162.53125929832458	2.5083649158477783
31	104.58243203163147	fix_post	2		12.0	29.0	2.5	/experiments/knapen_aot/videos/S_yt-W00vtWnXgIk_73.mp4	0.0	165.03962421417236	0.10004401206970215
32	104.68247604370117	fix_pre	0		234.0	30.0	2.5	/experiments/knapen_aot/videos/R_S_yt-MsSEF0krKE4_149.mp4	0.0	165.13966822624207	1.9500041007995605
32	106.62421321868896	response	0	2		30.0	2.5	/experiments/knapen_aot/videos/R_S_yt-MsSEF0krKE4_149.mp4	0.0	167.08140540122986	
32	106.63248014450073	movie	1		300.0	30.0	2.5	/experiments/knapen_aot/videos/R_S_yt-MsSEF0krKE4_149.mp4	0.0	167.08967232704163	2.5082318782806396
32	109.14071202278137	fix_post	2		12.0	30.0	2.5	/experiments/knapen_aot/videos/R_S_yt-MsSEF0krKE4_149.mp4	0.0	169.59790420532227	0.10003399848937988
33	109.24074602127075	fix_pre	0		38.0	31.0	2.5	/experiments/knapen_aot/videos/R_S_yt-2i53vKte7SA_117.mp4	0.0	169.69793820381165	0.31664204597473145
33	109.54924011230469	response	0	2		31.0	2.5	/experiments/knapen_aot/videos/R_S_yt-2i53vKte7SA_117.mp4	0.0	170.00643229484558	
33	109.55738806724548	movie	1		301.0	31.0	2.5	/experiments/knapen_aot/videos/R_S_yt-2i53vKte7SA_117.mp4	0.0	170.01458024978638	2.5083250999450684
33	112.06571316719055	fix_post	2		12.0	31.0	2.5	/experiments/knapen_aot/videos/R_S_yt-2i53vKte7SA_117.mp4	0.0	172.52290534973145	0.10014605522155762
34	112.16585922241211	fix_pre	0		17.0	32.0	2.5	/experiments/knapen_aot/videos/S_yt-ET5YTz1laWo_108.mp4	0.0	172.623051404953	0.14158296585083008
34	112.29914021492004	response	0	2		32.0	2.5	/experiments/knapen_aot/videos/S_yt-ET5YTz1laWo_108.mp4	0.0	172.75633239746094	
34	112.30744218826294	movie	1		301.0	32.0	2.5	/experiments/knapen_aot/videos/S_yt-ET5YTz1laWo_108.mp4	0.0	172.76463437080383	2.5082809925079346
34	114.81572318077087	fix_post	2		12.0	32.0	2.5	/experiments/knapen_aot/videos/S_yt-ET5YTz1laWo_108.mp4	0.0	175.27291536331177	0.10003900527954102
35	114.91576218605042	fix_pre	0		127.0	33.0	2.5	blank	1.0	175.3729543685913	1.0581789016723633
35	115.96588110923767	response	0	2		33.0	2.5	blank	1.0	176.42307329177856	
35	115.97394108772278	movie	1		301.0	33.0	2.5	blank	1.0	176.43113327026367	2.5084290504455566
35	118.48237013816833	fix_post	2		12.0	33.0	2.5	blank	1.0	178.93956232070923	0.10002303123474121
36	118.58239316940308	fix_pre	0		48.0	34.0	2.5	/experiments/knapen_aot/videos/R_S_yt-7e6Z9QQieAk_183.mp4	0.0	179.03958535194397	0.39997005462646484
36	118.97416710853577	response	0	2		34.0	2.5	/experiments/knapen_aot/videos/R_S_yt-7e6Z9QQieAk_183.mp4	0.0	179.43135929107666	
36	118.98236322402954	movie	1		301.0	34.0	2.5	/experiments/knapen_aot/videos/R_S_yt-7e6Z9QQieAk_183.mp4	0.0	179.43955540657043	2.508288860321045
36	121.49065208435059	fix_post	2		12.0	34.0	2.5	/experiments/knapen_aot/videos/R_S_yt-7e6Z9QQieAk_183.mp4	0.0	181.94784426689148	0.10006999969482422
37	121.59072208404541	fix_pre	0		27.0	35.0	2.5	/experiments/knapen_aot/videos/R_S_yt--UhwpukdyBg_51.mp4	0.0	182.0479142665863	0.22490906715393066
37	121.80753421783447	response	0	2		35.0	2.5	/experiments/knapen_aot/videos/R_S_yt--UhwpukdyBg_51.mp4	0.0	182.26472640037537	
37	121.81563115119934	movie	1		301.0	35.0	2.5	/experiments/knapen_aot/videos/R_S_yt--UhwpukdyBg_51.mp4	0.0	182.27282333374023	2.5083789825439453
37	124.32401013374329	fix_post	2		12.0	35.0	2.5	/experiments/knapen_aot/videos/R_S_yt--UhwpukdyBg_51.mp4	0.0	184.78120231628418	0.10001707077026367
38	124.42402720451355	fix_pre	0		18.0	36.0	2.5	/experiments/knapen_aot/videos/S_yt-KLInd-KrK_w_19.mp4	0.0	184.88121938705444	0.14996600151062012
38	124.56582903862	response	0	2		36.0	2.5	/experiments/knapen_aot/videos/S_yt-KLInd-KrK_w_19.mp4	0.0	185.0230212211609	
38	124.57399320602417	movie	1		301.0	36.0	2.5	/experiments/knapen_aot/videos/S_yt-KLInd-KrK_w_19.mp4	0.0	185.03118538856506	2.5084450244903564
38	127.08243823051453	fix_post	2		12.0	36.0	2.5	/experiments/knapen_aot/videos/S_yt-KLInd-KrK_w_19.mp4	0.0	187.53963041305542	0.09997296333312988
39	127.18241119384766	fix_pre	0		102.0	37.0	2.5	/experiments/knapen_aot/videos/R_S_bing-www_yahoo_com_entertainment_anastasia-karanikolaou-chantel-jeffries-discuss-182400502_html_9.mp4	0.0	187.63960337638855	0.8499088287353516
39	128.02417421340942	response	0	2		37.0	2.5	/experiments/knapen_aot/videos/R_S_bing-www_yahoo_com_entertainment_anastasia-karanikolaou-chantel-jeffries-discuss-182400502_html_9.mp4	0.0	188.48136639595032	
39	128.032320022583	movie	1		163.0	37.0	2.5	/experiments/knapen_aot/videos/R_S_bing-www_yahoo_com_entertainment_anastasia-karanikolaou-chantel-jeffries-discuss-182400502_html_9.mp4	0.0	188.4895122051239	2.5083320140838623
39	130.54065203666687	fix_post	2		12.0	37.0	2.5	/experiments/knapen_aot/videos/R_S_bing-www_yahoo_com_entertainment_anastasia-karanikolaou-chantel-jeffries-discuss-182400502_html_9.mp4	0.0	190.99784421920776	0.10005402565002441
40	130.6407060623169	fix_pre	0		42.0	38.0	2.5	/experiments/knapen_aot/videos/S_yt-xNITUMXoU0g_9.mp4	0.0	191.0978982448578	0.3499150276184082
40	130.9825119972229	response	0	2		38.0	2.5	/experiments/knapen_aot/videos/S_yt-xNITUMXoU0g_9.mp4	0.0	191.4397041797638	
40	130.9906210899353	movie	1		301.0	38.0	2.5	/experiments/knapen_aot/videos/S_yt-xNITUMXoU0g_9.mp4	0.0	191.4478132724762	2.508341073989868
40	133.49896216392517	fix_post	2		12.0	38.0	2.5	/experiments/knapen_aot/videos/S_yt-xNITUMXoU0g_9.mp4	0.0	193.95615434646606	0.1000518798828125
41	133.59901404380798	fix_pre	0		38.0	39.0	2.5	/experiments/knapen_aot/videos/S_yt--cAfxH1WnPo_3.mp4	0.0	194.05620622634888	0.31650805473327637
41	133.90743207931519	response	0	2		39.0	2.5	/experiments/knapen_aot/videos/S_yt--cAfxH1WnPo_3.mp4	0.0	194.36462426185608	
41	133.91552209854126	movie	1		301.0	39.0	2.5	/experiments/knapen_aot/videos/S_yt--cAfxH1WnPo_3.mp4	0.0	194.37271428108215	2.508389949798584
41	136.42391204833984	fix_post	2		12.0	39.0	2.5	/experiments/knapen_aot/videos/S_yt--cAfxH1WnPo_3.mp4	0.0	196.88110423088074	0.10004615783691406
42	136.52395820617676	fix_pre	0		108.0	40.0	2.5	blank	1.0	196.98115038871765	0.8999919891357422
42	137.41571807861328	response	0	2		40.0	2.5	blank	1.0	197.87291026115417	
42	137.4239501953125	movie	1		301.0	40.0	2.5	blank	1.0	197.8811423778534	2.5083179473876953
42	139.9322681427002	fix_post	2		12.0	40.0	2.5	blank	1.0	200.3894603252411	0.10002303123474121
43	140.03229117393494	fix_pre	0		47.0	41.0	2.5	/experiments/knapen_aot/videos/S_yt-UzWRbs9Syf4_7.mp4	0.0	200.48948335647583	0.3915989398956299
43	140.41562819480896	response	0	2		41.0	2.5	/experiments/knapen_aot/videos/S_yt-UzWRbs9Syf4_7.mp4	0.0	200.87282037734985	
43	140.42389011383057	movie	1		301.0	41.0	2.5	/experiments/knapen_aot/videos/S_yt-UzWRbs9Syf4_7.mp4	0.0	200.88108229637146	2.5083329677581787
43	142.93222308158875	fix_post	2		12.0	41.0	2.5	/experiments/knapen_aot/videos/S_yt-UzWRbs9Syf4_7.mp4	0.0	203.38941526412964	0.10004496574401855
44	143.03226804733276	fix_pre	0		38.0	42.0	2.5	/experiments/knapen_aot/videos/S_pexels-koolshooters-7327412.mp4	0.0	203.48946022987366	0.3166201114654541
44	143.34074521064758	response	0	2		42.0	2.5	/experiments/knapen_aot/videos/S_pexels-koolshooters-7327412.mp4	0.0	203.79793739318848	
44	143.34888815879822	movie	1		163.0	42.0	2.5	/experiments/knapen_aot/videos/S_pexels-koolshooters-7327412.mp4	0.0	203.8060803413391	2.5083229541778564
44	145.85721111297607	fix_post	2		12.0	42.0	2.5	/experiments/knapen_aot/videos/S_pexels-koolshooters-7327412.mp4	0.0	206.31440329551697	0.10008502006530762
45	145.95729613304138	fix_pre	0		33.0	43.0	2.5	/experiments/knapen_aot/videos/S_comp_C004_C003_PS_v01_SDR_PS_20180925_SDR_2K_AVC.mp4	0.0	206.41448831558228	0.2749660015106201
45	146.22401404380798	response	0	2		43.0	2.5	/experiments/knapen_aot/videos/S_comp_C004_C003_PS_v01_SDR_PS_20180925_SDR_2K_AVC.mp4	0.0	206.68120622634888	
45	146.232262134552	movie	1		166.0	43.0	2.5	/experiments/knapen_aot/videos/S_comp_C004_C003_PS_v01_SDR_PS_20180925_SDR_2K_AVC.mp4	0.0	206.6894543170929	2.5082690715789795
45	148.74053120613098	fix_post	2		12.0	43.0	2.5	/experiments/knapen_aot/videos/S_comp_C004_C003_PS_v01_SDR_PS_20180925_SDR_2K_AVC.mp4	0.0	209.19772338867188	0.10002779960632324
46	148.8405590057373	fix_pre	0		48.0	44.0	2.5	/experiments/knapen_aot/videos/S_ILSVRC2015_train_00599000.mp4	0.0	209.2977511882782	0.39995718002319336
46	149.23230409622192	response	0	2		44.0	2.5	/experiments/knapen_aot/videos/S_ILSVRC2015_train_00599000.mp4	0.0	209.68949627876282	
46	149.2405161857605	movie	1		300.0	44.0	2.5	/experiments/knapen_aot/videos/S_ILSVRC2015_train_00599000.mp4	0.0	209.6977083683014	2.5083580017089844
46	151.74887418746948	fix_post	2		12.0	44.0	2.5	/experiments/knapen_aot/videos/S_ILSVRC2015_train_00599000.mp4	0.0	212.20606637001038	0.09993886947631836
47	151.8488130569458	fix_pre	0		30.0	45.0	2.5	/experiments/knapen_aot/videos/S_yt-iAQ98zgVlds_97.mp4	0.0	212.3060052394867	0.25000905990600586
47	152.0906481742859	response	0	2		45.0	2.5	/experiments/knapen_aot/videos/S_yt-iAQ98zgVlds_97.mp4	0.0	212.54784035682678	
47	152.0988221168518	movie	1		301.0	45.0	2.5	/experiments/knapen_aot/videos/S_yt-iAQ98zgVlds_97.mp4	0.0	212.5560142993927	2.508392095565796
47	154.6072142124176	fix_post	2		12.0	45.0	2.5	/experiments/knapen_aot/videos/S_yt-iAQ98zgVlds_97.mp4	0.0	215.0644063949585	0.09993290901184082
48	154.70714712142944	fix_pre	0		149.0	46.0	2.5	/experiments/knapen_aot/videos/R_S_yt-JG2OY_7B-gI_537.mp4	0.0	215.16433930397034	1.241736888885498
48	155.94066715240479	response	0	2		46.0	2.5	/experiments/knapen_aot/videos/R_S_yt-JG2OY_7B-gI_537.mp4	0.0	216.39785933494568	
48	155.94888401031494	movie	1		301.0	46.0	2.5	/experiments/knapen_aot/videos/R_S_yt-JG2OY_7B-gI_537.mp4	0.0	216.40607619285583	2.5082859992980957
48	158.45717000961304	fix_post	2		12.0	46.0	2.5	/experiments/knapen_aot/videos/R_S_yt-JG2OY_7B-gI_537.mp4	0.0	218.91436219215393	0.09996914863586426
49	158.5571391582489	fix_pre	0		26.0	47.0	2.5	/experiments/knapen_aot/videos/R_S_yt-iO0efV_PV-k_102.mp4	0.0	219.0143313407898	0.21668100357055664
49	158.76565408706665	response	0	2		47.0	2.5	/experiments/knapen_aot/videos/R_S_yt-iO0efV_PV-k_102.mp4	0.0	219.22284626960754	
49	158.77382016181946	movie	1		301.0	47.0	2.5	/experiments/knapen_aot/videos/R_S_yt-iO0efV_PV-k_102.mp4	0.0	219.23101234436035	2.5082879066467285
49	161.2821080684662	fix_post	2		12.0	47.0	2.5	/experiments/knapen_aot/videos/R_S_yt-iO0efV_PV-k_102.mp4	0.0	221.73930025100708	0.10005903244018555
50	161.38216710090637	fix_pre	0		143.0	48.0	2.5	/experiments/knapen_aot/videos/R_S_yt-JG2OY_7B-gI_537.mp4	0.0	221.83935928344727	1.1916539669036865
50	162.5657410621643	response	0	2		48.0	2.5	/experiments/knapen_aot/videos/R_S_yt-JG2OY_7B-gI_537.mp4	0.0	223.0229332447052	
50	162.57382106781006	movie	1		301.0	48.0	2.5	/experiments/knapen_aot/videos/R_S_yt-JG2OY_7B-gI_537.mp4	0.0	223.03101325035095	2.5082359313964844
50	165.08205699920654	fix_post	2		12.0	48.0	2.5	/experiments/knapen_aot/videos/R_S_yt-JG2OY_7B-gI_537.mp4	0.0	225.53924918174744	0.10013723373413086
51	165.18219423294067	fix_pre	0		31.0	49.0	2.5	blank	1.0	225.63938641548157	0.2583019733428955
51	165.4322590827942	response	0	2		49.0	2.5	blank	1.0	225.88945126533508	
51	165.44049620628357	movie	1		301.0	49.0	2.5	blank	1.0	225.89768838882446	2.5083398818969727
51	167.94883608818054	fix_post	2		12.0	49.0	2.5	blank	1.0	228.40602827072144	0.10007095336914062
52	168.04890704154968	fix_pre	0		67.0	50.0	2.5	/experiments/knapen_aot/videos/R_S_yt-W00vtWnXgIk_73.mp4	0.0	228.50609922409058	0.5582070350646973
52	168.59890604019165	response	0	2		50.0	2.5	/experiments/knapen_aot/videos/R_S_yt-W00vtWnXgIk_73.mp4	0.0	229.05609822273254	
52	168.60711407661438	movie	1		300.0	50.0	2.5	/experiments/knapen_aot/videos/R_S_yt-W00vtWnXgIk_73.mp4	0.0	229.06430625915527	2.5083210468292236
52	171.1154351234436	fix_post	2		12.0	50.0	2.5	/experiments/knapen_aot/videos/R_S_yt-W00vtWnXgIk_73.mp4	0.0	231.5726273059845	0.10000896453857422
53	171.21544408798218	fix_pre	0		18.0	51.0	2.5	/experiments/knapen_aot/videos/R_S_pexels-c-technical-6753390.mp4	0.0	231.67263627052307	0.14994406700134277
53	171.357173204422	response	0	2		51.0	2.5	/experiments/knapen_aot/videos/R_S_pexels-c-technical-6753390.mp4	0.0	231.8143653869629	
53	171.36538815498352	movie	1		208.0	51.0	2.5	/experiments/knapen_aot/videos/R_S_pexels-c-technical-6753390.mp4	0.0	231.8225803375244	2.5083470344543457
53	173.87373518943787	fix_post	2		12.0	51.0	2.5	/experiments/knapen_aot/videos/R_S_pexels-c-technical-6753390.mp4	0.0	234.33092737197876	0.10000896453857422
54	173.97374415397644	fix_pre	0		37.0	52.0	2.5	/experiments/knapen_aot/videos/S_yt--jzScB82vKI_212.mp4	0.0	234.43093633651733	0.30827903747558594
54	174.2738971710205	response	0	2		52.0	2.5	/experiments/knapen_aot/videos/S_yt--jzScB82vKI_212.mp4	0.0	234.7310893535614	
54	174.28202319145203	movie	1		301.0	52.0	2.5	/experiments/knapen_aot/videos/S_yt--jzScB82vKI_212.mp4	0.0	234.73921537399292	2.508396863937378
54	176.7904200553894	fix_post	2		12.0	52.0	2.5	/experiments/knapen_aot/videos/S_yt--jzScB82vKI_212.mp4	0.0	237.2476122379303	0.10005307197570801
55	176.8904731273651	fix_pre	0		45.0	53.0	2.5	/experiments/knapen_aot/videos/S_yt-IC62JSYpq9w_71.mp4	0.0	237.347665309906	0.37490296363830566
55	177.25719618797302	response	0	2		53.0	2.5	/experiments/knapen_aot/videos/S_yt-IC62JSYpq9w_71.mp4	0.0	237.71438837051392	
55	177.26537609100342	movie	1		301.0	53.0	2.5	/experiments/knapen_aot/videos/S_yt-IC62JSYpq9w_71.mp4	0.0	237.7225682735443	2.5083510875701904
55	179.7737271785736	fix_post	2		12.0	53.0	2.5	/experiments/knapen_aot/videos/S_yt-IC62JSYpq9w_71.mp4	0.0	240.2309193611145	0.10001397132873535
56	179.87374114990234	fix_pre	0		99.0	54.0	2.5	/experiments/knapen_aot/videos/R_S_ILSVRC2015_train_00274003.mp4	0.0	240.33093333244324	0.8249249458312988
56	180.69047212600708	response	0	2		54.0	2.5	/experiments/knapen_aot/videos/R_S_ILSVRC2015_train_00274003.mp4	0.0	241.14766430854797	
56	180.69866609573364	movie	1		301.0	54.0	2.5	/experiments/knapen_aot/videos/R_S_ILSVRC2015_train_00274003.mp4	0.0	241.15585827827454	2.508310079574585
56	183.20697617530823	fix_post	2		12.0	54.0	2.5	/experiments/knapen_aot/videos/R_S_ILSVRC2015_train_00274003.mp4	0.0	243.66416835784912	0.10006999969482422
57	183.30704617500305	fix_pre	0		28.0	55.0	2.5	blank	1.0	243.76423835754395	0.23334097862243652
57	183.53205609321594	response	0	2		55.0	2.5	blank	1.0	243.98924827575684	
57	183.5403871536255	movie	1		301.0	55.0	2.5	blank	1.0	243.99757933616638	2.508272886276245
57	186.04866003990173	fix_post	2		12.0	55.0	2.5	blank	1.0	246.50585222244263	0.10003209114074707
58	186.14869213104248	fix_pre	0		40.0	56.0	2.5	/experiments/knapen_aot/videos/R_S_xq822dX6DDM_1.mp4	0.0	246.60588431358337	0.33325886726379395
58	186.47396802902222	response	0	2		56.0	2.5	/experiments/knapen_aot/videos/R_S_xq822dX6DDM_1.mp4	0.0	246.9311602115631	
58	186.48195099830627	movie	1		301.0	56.0	2.5	/experiments/knapen_aot/videos/R_S_xq822dX6DDM_1.mp4	0.0	246.93914318084717	2.5083210468292236
58	188.9902720451355	fix_post	2		12.0	56.0	2.5	/experiments/knapen_aot/videos/R_S_xq822dX6DDM_1.mp4	0.0	249.4474642276764	0.10004496574401855
59	189.09031701087952	fix_pre	0		28.0	57.0	2.5	/experiments/knapen_aot/videos/S_flickr-slruok-8006772217_6.mp4	0.0	249.5475091934204	0.2333221435546875
59	189.31543707847595	response	0	2		57.0	2.5	/experiments/knapen_aot/videos/S_flickr-slruok-8006772217_6.mp4	0.0	249.77262926101685	
59	189.3236391544342	movie	1		301.0	57.0	2.5	/experiments/knapen_aot/videos/S_flickr-slruok-8006772217_6.mp4	0.0	249.7808313369751	2.5083320140838623
59	191.83197116851807	fix_post	2		12.0	57.0	2.5	/experiments/knapen_aot/videos/S_flickr-slruok-8006772217_6.mp4	0.0	252.28916335105896	0.10000395774841309
60	191.93197512626648	fix_pre	0		188.0	58.0	2.5	/experiments/knapen_aot/videos/S_bing-www_break_com_video_like-a-cat-catching-a-fly-3131008_12.mp4	0.0	252.38916730880737	1.567694902420044
60	193.4904341697693	response	0	2		58.0	2.5	/experiments/knapen_aot/videos/S_bing-www_break_com_video_like-a-cat-catching-a-fly-3131008_12.mp4	0.0	253.94762635231018	
60	193.49967002868652	movie	1		301.0	58.0	2.5	/experiments/knapen_aot/videos/S_bing-www_break_com_video_like-a-cat-catching-a-fly-3131008_12.mp4	0.0	253.95686221122742	2.5072829723358154
60	196.00695300102234	fix_post	2		12.0	58.0	2.5	/experiments/knapen_aot/videos/S_bing-www_break_com_video_like-a-cat-catching-a-fly-3131008_12.mp4	0.0	256.46414518356323	0.09998822212219238
61	196.10694122314453	fix_pre	0		17.0	59.0	2.5	/experiments/knapen_aot/videos/S_yt-p0buJEEKeuI_61.mp4	0.0	256.5641334056854	0.14272284507751465
61	196.2404351234436	response	0	2		59.0	2.5	/experiments/knapen_aot/videos/S_yt-p0buJEEKeuI_61.mp4	0.0	256.6976273059845	
61	196.24966406822205	movie	1		301.0	59.0	2.5	/experiments/knapen_aot/videos/S_yt-p0buJEEKeuI_61.mp4	0.0	256.70685625076294	2.507308006286621
61	198.75697207450867	fix_post	2		12.0	59.0	2.5	/experiments/knapen_aot/videos/S_yt-p0buJEEKeuI_61.mp4	0.0	259.21416425704956	0.09992408752441406
62	198.85689616203308	fix_pre	0		30.0	60.0	2.5	/experiments/knapen_aot/videos/R_S_8amznWxLS04_212.mp4	0.0	259.314088344574	0.2500319480895996
62	199.0987331867218	response	0	2		60.0	2.5	/experiments/knapen_aot/videos/R_S_8amznWxLS04_212.mp4	0.0	259.5559253692627	
62	199.10692811012268	movie	1		301.0	60.0	2.5	/experiments/knapen_aot/videos/R_S_8amznWxLS04_212.mp4	0.0	259.5641202926636	2.508349895477295
62	201.61527800559998	fix_post	2		12.0	60.0	2.5	/experiments/knapen_aot/videos/R_S_8amznWxLS04_212.mp4	0.0	262.07247018814087	0.09997320175170898
63	201.71525120735168	fix_pre	0		31.0	61.0	2.5	blank	1.0	262.1724433898926	0.25830984115600586
63	201.96536922454834	response	0	2		61.0	2.5	blank	1.0	262.42256140708923	
63	201.9735610485077	movie	1		301.0	61.0	2.5	blank	1.0	262.4307532310486	2.508389949798584
63	204.48195099830627	fix_post	2		12.0	61.0	2.5	blank	1.0	264.93914318084717	0.0999460220336914
64	204.58189702033997	fix_pre	0		34.0	62.0	2.5	/experiments/knapen_aot/videos/S_yt-MsSEF0krKE4_149.mp4	0.0	265.03908920288086	0.2833540439605713
64	204.85703802108765	response	0	2		62.0	2.5	/experiments/knapen_aot/videos/S_yt-MsSEF0krKE4_149.mp4	0.0	265.31423020362854	
64	204.86525106430054	movie	1		301.0	62.0	2.5	/experiments/knapen_aot/videos/S_yt-MsSEF0krKE4_149.mp4	0.0	265.32244324684143	2.5083889961242676
64	207.3736400604248	fix_post	2		12.0	62.0	2.5	/experiments/knapen_aot/videos/S_yt-MsSEF0krKE4_149.mp4	0.0	267.8308322429657	0.09996414184570312
65	207.4736042022705	fix_pre	0		49.0	63.0	2.5	/experiments/knapen_aot/videos/S_yt-XPRNMelf5Fs_235.mp4	0.0	267.9307963848114	0.4083058834075928
65	207.87393021583557	response	0	2		63.0	2.5	/experiments/knapen_aot/videos/S_yt-XPRNMelf5Fs_235.mp4	0.0	268.33112239837646	
65	207.8819100856781	movie	1		301.0	63.0	2.5	/experiments/knapen_aot/videos/S_yt-XPRNMelf5Fs_235.mp4	0.0	268.339102268219	2.5083401203155518
65	210.39025020599365	fix_post	2		12.0	63.0	2.5	/experiments/knapen_aot/videos/S_yt-XPRNMelf5Fs_235.mp4	0.0	270.84744238853455	0.09992194175720215
66	210.49017214775085	fix_pre	0		128.0	64.0	2.5	/experiments/knapen_aot/videos/R_S_yt--cAfxH1WnPo_3.mp4	0.0	270.94736433029175	1.0667269229888916
66	211.5411880016327	response	0	2		64.0	2.5	/experiments/knapen_aot/videos/R_S_yt--cAfxH1WnPo_3.mp4	0.0	271.9983801841736	
66	211.55689907073975	movie	1		301.0	64.0	2.5	/experiments/knapen_aot/videos/R_S_yt--cAfxH1WnPo_3.mp4	0.0	272.01409125328064	2.508347988128662
66	214.0652470588684	fix_post	2		12.0	64.0	2.5	/experiments/knapen_aot/videos/R_S_yt--cAfxH1WnPo_3.mp4	0.0	274.5224392414093	0.10000801086425781
67	214.16525506973267	fix_pre	0		77.0	65.0	2.5	/experiments/knapen_aot/videos/R_S_yt-2OoHcgS8sss_7.mp4	0.0	274.62244725227356	0.6416549682617188
67	214.79873514175415	response	0	2		65.0	2.5	/experiments/knapen_aot/videos/R_S_yt-2OoHcgS8sss_7.mp4	0.0	275.25592732429504	
67	214.80691003799438	movie	1		301.0	65.0	2.5	/experiments/knapen_aot/videos/R_S_yt-2OoHcgS8sss_7.mp4	0.0	275.2641022205353	2.508239984512329
67	217.3151500225067	fix_post	2		12.0	65.0	2.5	/experiments/knapen_aot/videos/R_S_yt-2OoHcgS8sss_7.mp4	0.0	277.7723422050476	0.10003304481506348
68	217.41518306732178	fix_pre	0		129.0	66.0	2.5	/experiments/knapen_aot/videos/R_S_xq822dX6DDM_1.mp4	0.0	277.87237524986267	1.07505202293396
68	218.482036113739	response	0	2		66.0	2.5	/experiments/knapen_aot/videos/R_S_xq822dX6DDM_1.mp4	0.0	278.9392282962799	
68	218.49023509025574	movie	1		301.0	66.0	2.5	/experiments/knapen_aot/videos/R_S_xq822dX6DDM_1.mp4	0.0	278.94742727279663	2.5082669258117676
68	220.9985020160675	fix_post	2		12.0	66.0	2.5	/experiments/knapen_aot/videos/R_S_xq822dX6DDM_1.mp4	0.0	281.4556941986084	0.09996414184570312
69	221.0984661579132	fix_pre	0		21.0	67.0	2.5	/experiments/knapen_aot/videos/R_S_yt-Tt_LkR4iAt4_11.mp4	0.0	281.5556583404541	0.1750478744506836
69	221.26525807380676	response	0	2		67.0	2.5	/experiments/knapen_aot/videos/R_S_yt-Tt_LkR4iAt4_11.mp4	0.0	281.72245025634766	
69	221.2735140323639	movie	1		301.0	67.0	2.5	/experiments/knapen_aot/videos/R_S_yt-Tt_LkR4iAt4_11.mp4	0.0	281.7307062149048	2.508380174636841
69	223.78189420700073	fix_post	2		12.0	67.0	2.5	/experiments/knapen_aot/videos/R_S_yt-Tt_LkR4iAt4_11.mp4	0.0	284.2390863895416	0.09990501403808594
70	223.88179922103882	fix_pre	0		90.0	68.0	2.5	/experiments/knapen_aot/videos/S_comp_A007_C017_01156B_v02_SDR_PS_20180925_SDR_2K_AVC.mp4	0.0	284.3389914035797	0.7500038146972656
70	224.6236321926117	response	0	2		68.0	2.5	/experiments/knapen_aot/videos/S_comp_A007_C017_01156B_v02_SDR_PS_20180925_SDR_2K_AVC.mp4	0.0	285.0808243751526	
70	224.63180303573608	movie	1		161.0	68.0	2.5	/experiments/knapen_aot/videos/S_comp_A007_C017_01156B_v02_SDR_PS_20180925_SDR_2K_AVC.mp4	0.0	285.088995218277	2.50833797454834
70	227.14014101028442	fix_post	2		12.0	68.0	2.5	/experiments/knapen_aot/videos/S_comp_A007_C017_01156B_v02_SDR_PS_20180925_SDR_2K_AVC.mp4	0.0	287.5973331928253	0.09998202323913574
71	227.24012303352356	fix_pre	0		165.0	69.0	2.5	blank	1.0	287.69731521606445	1.3749730587005615
71	228.5993630886078	response	0	2		69.0	2.5	blank	1.0	289.0565552711487	
71	228.61509609222412	movie	1		301.0	69.0	2.5	blank	1.0	289.072288274765	2.5083839893341064
71	231.12348008155823	fix_post	2		12.0	69.0	2.5	blank	1.0	291.5806722640991	0.0999760627746582
72	231.22345614433289	fix_pre	0		150.0	70.0	2.5	/experiments/knapen_aot/videos/R_S_yt-4W224-RSCnM_15.mp4	0.0	291.6806483268738	1.2499749660491943
72	232.46525406837463	response	0	2		70.0	2.5	/experiments/knapen_aot/videos/R_S_yt-4W224-RSCnM_15.mp4	0.0	292.9224462509155	
72	232.47343111038208	movie	1		301.0	70.0	2.5	/experiments/knapen_aot/videos/R_S_yt-4W224-RSCnM_15.mp4	0.0	292.930623292923	2.508349895477295
72	234.98178100585938	fix_post	2		12.0	70.0	2.5	/experiments/knapen_aot/videos/R_S_yt-4W224-RSCnM_15.mp4	0.0	295.43897318840027	0.10000205039978027
73	235.08178305625916	fix_pre	0		46.0	71.0	2.5	/experiments/knapen_aot/videos/S_bing-www_yahoo_com_entertainment_anastasia-karanikolaou-chantel-jeffries-discuss-182400502_html_9.mp4	0.0	295.53897523880005	0.3833179473876953
73	235.4493670463562	response	0	2		71.0	2.5	/experiments/knapen_aot/videos/S_bing-www_yahoo_com_entertainment_anastasia-karanikolaou-chantel-jeffries-discuss-182400502_html_9.mp4	0.0	295.9065592288971	
73	235.46510100364685	movie	1		160.0	71.0	2.5	/experiments/knapen_aot/videos/S_bing-www_yahoo_com_entertainment_anastasia-karanikolaou-chantel-jeffries-discuss-182400502_html_9.mp4	0.0	295.92229318618774	2.5083320140838623
73	237.9734330177307	fix_post	2		12.0	71.0	2.5	/experiments/knapen_aot/videos/S_bing-www_yahoo_com_entertainment_anastasia-karanikolaou-chantel-jeffries-discuss-182400502_html_9.mp4	0.0	298.4306252002716	0.09998798370361328
74	238.07342100143433	fix_pre	0		28.0	72.0	2.5	/experiments/knapen_aot/videos/R_S_yt-w_e3sxIzepA_27.mp4	0.0	298.5306131839752	0.23330211639404297
74	238.29858708381653	response	0	2		72.0	2.5	/experiments/knapen_aot/videos/R_S_yt-w_e3sxIzepA_27.mp4	0.0	298.7557792663574	
74	238.30672311782837	movie	1		301.0	72.0	2.5	/experiments/knapen_aot/videos/R_S_yt-w_e3sxIzepA_27.mp4	0.0	298.76391530036926	2.508328914642334
74	240.8150520324707	fix_post	2		12.0	72.0	2.5	/experiments/knapen_aot/videos/R_S_yt-w_e3sxIzepA_27.mp4	0.0	301.2722442150116	0.10001802444458008
75	240.91507005691528	fix_pre	0		18.0	73.0	2.5	/experiments/knapen_aot/videos/R_S_yt-zgimmOcW5Mc_127.mp4	0.0	301.3722622394562	0.15001201629638672
75	241.05691003799438	response	0	2		73.0	2.5	/experiments/knapen_aot/videos/R_S_yt-zgimmOcW5Mc_127.mp4	0.0	301.5141022205353	
75	241.06508207321167	movie	1		301.0	73.0	2.5	/experiments/knapen_aot/videos/R_S_yt-zgimmOcW5Mc_127.mp4	0.0	301.52227425575256	2.508362054824829
75	243.5734441280365	fix_post	2		12.0	73.0	2.5	/experiments/knapen_aot/videos/R_S_yt-zgimmOcW5Mc_127.mp4	0.0	304.0306363105774	0.09996509552001953
76	243.67340922355652	fix_pre	0		98.0	74.0	2.5	/experiments/knapen_aot/videos/R_S_bing-www_break_com_video_like-a-cat-catching-a-fly-3131008_12.mp4	0.0	304.1306014060974	0.8166868686676025
76	244.48187112808228	response	0	2		74.0	2.5	/experiments/knapen_aot/videos/R_S_bing-www_break_com_video_like-a-cat-catching-a-fly-3131008_12.mp4	0.0	304.93906331062317	
76	244.49009609222412	movie	1		301.0	74.0	2.5	/experiments/knapen_aot/videos/R_S_bing-www_break_com_video_like-a-cat-catching-a-fly-3131008_12.mp4	0.0	304.947288274765	2.5083439350128174
76	246.99844002723694	fix_post	2		12.0	74.0	2.5	/experiments/knapen_aot/videos/R_S_bing-www_break_com_video_like-a-cat-catching-a-fly-3131008_12.mp4	0.0	307.45563220977783	0.09995603561401367
77	247.09839606285095	fix_pre	0		63.0	75.0	2.5	blank	1.0	307.55558824539185	0.5257370471954346
77	247.61522603034973	response	0	2		75.0	2.5	blank	1.0	308.0724182128906	
77	247.6241331100464	movie	1		301.0	75.0	2.5	blank	1.0	308.0813252925873	2.5075418949127197
77	250.1316750049591	fix_post	2		12.0	75.0	2.5	blank	1.0	310.5888671875	0.10003519058227539
78	250.23171019554138	fix_pre	0		63.0	76.0	2.5	/experiments/knapen_aot/videos/S_yt-BLmwmX-mni8_56.mp4	0.0	310.6889023780823	0.5249519348144531
78	250.7485589981079	response	0	2		76.0	2.5	/experiments/knapen_aot/videos/S_yt-BLmwmX-mni8_56.mp4	0.0	311.2057511806488	
78	250.75666213035583	movie	1		301.0	76.0	2.5	/experiments/knapen_aot/videos/S_yt-BLmwmX-mni8_56.mp4	0.0	311.21385431289673	2.5083789825439453
78	253.26504111289978	fix_post	2		12.0	76.0	2.5	/experiments/knapen_aot/videos/S_yt-BLmwmX-mni8_56.mp4	0.0	313.7222332954407	0.09995388984680176
79	253.36499500274658	fix_pre	0		67.0	77.0	2.5	/experiments/knapen_aot/videos/R_S_yt-KLInd-KrK_w_19.mp4	0.0	313.8221871852875	0.5583431720733643
79	253.9151690006256	response	0	2		77.0	2.5	/experiments/knapen_aot/videos/R_S_yt-KLInd-KrK_w_19.mp4	0.0	314.3723611831665	
79	253.92333817481995	movie	1		300.0	77.0	2.5	/experiments/knapen_aot/videos/R_S_yt-KLInd-KrK_w_19.mp4	0.0	314.38053035736084	2.508417844772339
79	256.4317560195923	fix_post	2		12.0	77.0	2.5	/experiments/knapen_aot/videos/R_S_yt-KLInd-KrK_w_19.mp4	0.0	316.8889482021332	0.09995508193969727
80	256.531711101532	fix_pre	0		41.0	78.0	2.5	/experiments/knapen_aot/videos/S_production_ID_5020960.mp4	0.0	316.9889032840729	0.34237003326416016
80	256.86509799957275	response	0	2		78.0	2.5	/experiments/knapen_aot/videos/S_production_ID_5020960.mp4	0.0	317.32229018211365	
80	256.87408113479614	movie	1		197.0	78.0	2.5	/experiments/knapen_aot/videos/S_production_ID_5020960.mp4	0.0	317.33127331733704	2.507596015930176
80	259.3816771507263	fix_post	2		12.0	78.0	2.5	/experiments/knapen_aot/videos/S_production_ID_5020960.mp4	0.0	319.8388693332672	0.1000359058380127
81	259.48171305656433	fix_pre	0		18.0	79.0	2.5	/experiments/knapen_aot/videos/S_yt-4x2eUikn9rw_212.mp4	0.0	319.9389052391052	0.14992904663085938
81	259.62355303764343	response	0	2		79.0	2.5	/experiments/knapen_aot/videos/S_yt-4x2eUikn9rw_212.mp4	0.0	320.0807452201843	
81	259.6316421031952	movie	1		301.0	79.0	2.5	/experiments/knapen_aot/videos/S_yt-4x2eUikn9rw_212.mp4	0.0	320.0888342857361	2.5084009170532227
81	262.1400430202484	fix_post	2		12.0	79.0	2.5	/experiments/knapen_aot/videos/S_yt-4x2eUikn9rw_212.mp4	0.0	322.5972352027893	0.10001516342163086
82	262.24005818367004	fix_pre	0		29.0	80.0	2.5	/experiments/knapen_aot/videos/S_yt-QOnORDmVMyU_10.mp4	0.0	322.69725036621094	0.24163389205932617
82	262.47351717948914	response	0	2		80.0	2.5	/experiments/knapen_aot/videos/S_yt-QOnORDmVMyU_10.mp4	0.0	322.93070936203003	
82	262.48169207572937	movie	1		300.0	80.0	2.5	/experiments/knapen_aot/videos/S_yt-QOnORDmVMyU_10.mp4	0.0	322.93888425827026	2.5083250999450684
82	264.99001717567444	fix_post	2		12.0	80.0	2.5	/experiments/knapen_aot/videos/S_yt-QOnORDmVMyU_10.mp4	0.0	325.44720935821533	0.09997701644897461
83	265.0899941921234	fix_pre	0		36.0	81.0	2.5	/experiments/knapen_aot/videos/R_S_MEX_A006_C008_SDR_20190923_SDR_2K_AVC.mp4	0.0	325.5471863746643	0.3000199794769287
83	265.38178515434265	response	0	2		81.0	2.5	/experiments/knapen_aot/videos/R_S_MEX_A006_C008_SDR_20190923_SDR_2K_AVC.mp4	0.0	325.83897733688354	
83	265.39001417160034	movie	1		166.0	81.0	2.5	/experiments/knapen_aot/videos/R_S_MEX_A006_C008_SDR_20190923_SDR_2K_AVC.mp4	0.0	325.84720635414124	2.508239984512329
83	267.89825415611267	fix_post	2		12.0	81.0	2.5	/experiments/knapen_aot/videos/R_S_MEX_A006_C008_SDR_20190923_SDR_2K_AVC.mp4	0.0	328.35544633865356	0.10000395774841309
84	267.9982581138611	fix_pre	0		123.0	82.0	2.5	blank	1.0	328.455450296402	1.0250320434570312
84	269.00757122039795	response	0	2		82.0	2.5	blank	1.0	329.46476340293884	
84	269.0232901573181	movie	1		301.0	82.0	2.5	blank	1.0	329.480482339859	2.5083398818969727
84	271.5316300392151	fix_post	2		12.0	82.0	2.5	blank	1.0	331.988822221756	0.100006103515625
85	271.6316361427307	fix_pre	0		27.0	83.0	2.5	/experiments/knapen_aot/videos/S_production_ID_4360158.mp4	0.0	332.0888283252716	0.22500991821289062
85	271.8483991622925	response	0	2		83.0	2.5	/experiments/knapen_aot/videos/S_production_ID_4360158.mp4	0.0	332.3055913448334	
85	271.8566460609436	movie	1		167.0	83.0	2.5	/experiments/knapen_aot/videos/S_production_ID_4360158.mp4	0.0	332.3138382434845	2.5082991123199463
85	274.36494517326355	fix_post	2		12.0	83.0	2.5	/experiments/knapen_aot/videos/S_production_ID_4360158.mp4	0.0	334.82213735580444	0.10000991821289062
87	274.46495509147644	stim	0		151.0					334.92214727401733	1.263113021850586
87	274.73167419433594	response	0	2						335.18886637687683	
87	275.7196400165558	response	0	space						336.1768321990967	
