trial_nr	onset	event_type	phase	response	nr_frames	movie_index	movie_duration	movie_file	blank	onset_abs	duration
0	0.13041210174560547	stim	0		181.0					110.87031126022339	1.5080490112304688
0	1.6305701732635498	response	0	space						112.37046933174133	
1	1.6384611129760742	stim	0		121.0					112.37836027145386	1.0082800388336182
1	2.606199026107788	response	0	space						113.34609818458557	
1	2.6467411518096924	stim	1		120.0					113.38664031028748	0.9999527931213379
1	3.2301759719848633	response	1	space						113.97007513046265	
2	3.6466939449310303	fix_pre	0		43.0	0.0	2.5	/experiments/knapen_aot/videos/S_SE_A016_C009_SDR_20190717_SDR_2K_AVC.mp4	0.0	114.38659310340881	0.3598151206970215
2	3.996798038482666	response	0	space		0.0	2.5	/experiments/knapen_aot/videos/S_SE_A016_C009_SDR_20190717_SDR_2K_AVC.mp4	0.0	114.73669719696045	
2	4.006509065628052	movie	1		166.0	0.0	2.5	/experiments/knapen_aot/videos/S_SE_A016_C009_SDR_20190717_SDR_2K_AVC.mp4	0.0	114.74640822410583	2.506908893585205
2	6.513417959213257	fix_post	2		12.0	0.0	2.5	/experiments/knapen_aot/videos/S_SE_A016_C009_SDR_20190717_SDR_2K_AVC.mp4	0.0	117.25331711769104	0.09996509552001953
3	6.613383054733276	fix_pre	0		6.0	1.0	2.5	/experiments/knapen_aot/videos/R_S_yt-Ev39pXXfr1Y_152.mp4	0.0	117.35328221321106	0.05279803276062012
3	6.659985065460205	response	0	2		1.0	2.5	/experiments/knapen_aot/videos/R_S_yt-Ev39pXXfr1Y_152.mp4	0.0	117.39988422393799	
3	6.6661810874938965	movie	1		300.0	1.0	2.5	/experiments/knapen_aot/videos/R_S_yt-Ev39pXXfr1Y_152.mp4	0.0	117.40608024597168	2.5055339336395264
3	9.171715021133423	fix_post	2		12.0	1.0	2.5	/experiments/knapen_aot/videos/R_S_yt-Ev39pXXfr1Y_152.mp4	0.0	119.9116141796112	0.10000205039978027
4	9.271717071533203	fix_pre	0		100.0	2.0	2.5	/experiments/knapen_aot/videos/S_production_ID_4428752.mp4	0.0	120.01161623001099	0.833319902420044
4	10.096830129623413	response	0	2		2.0	2.5	/experiments/knapen_aot/videos/S_production_ID_4428752.mp4	0.0	120.8367292881012	
4	10.105036973953247	movie	1		170.0	2.0	2.5	/experiments/knapen_aot/videos/S_production_ID_4428752.mp4	0.0	120.84493613243103	2.508301019668579
4	12.613337993621826	fix_post	2		12.0	2.0	2.5	/experiments/knapen_aot/videos/S_production_ID_4428752.mp4	0.0	123.35323715209961	0.10000801086425781
5	12.713346004486084	fix_pre	0		33.0	3.0	2.5	/experiments/knapen_aot/videos/R_S_production_ID_4802710.mp4	0.0	123.45324516296387	0.27500295639038086
5	12.980127096176147	response	0	2		3.0	2.5	/experiments/knapen_aot/videos/R_S_production_ID_4802710.mp4	0.0	123.72002625465393	
5	12.988348960876465	movie	1		165.0	3.0	2.5	/experiments/knapen_aot/videos/R_S_production_ID_4802710.mp4	0.0	123.72824811935425	2.508342981338501
5	15.496691942214966	fix_post	2		12.0	3.0	2.5	/experiments/knapen_aot/videos/R_S_production_ID_4802710.mp4	0.0	126.23659110069275	0.10000109672546387
6	15.59669303894043	fix_pre	0		7.0	4.0	2.5	/experiments/knapen_aot/videos/R_S_yt-UBqUhu-GEVg_6.mp4	0.0	126.33659219741821	0.05843496322631836
6	15.647070169448853	response	0	2		4.0	2.5	/experiments/knapen_aot/videos/R_S_yt-UBqUhu-GEVg_6.mp4	0.0	126.38696932792664	
6	15.655128002166748	movie	1		301.0	4.0	2.5	/experiments/knapen_aot/videos/R_S_yt-UBqUhu-GEVg_6.mp4	0.0	126.39502716064453	2.508146047592163
6	18.16327404975891	fix_post	2		12.0	4.0	2.5	/experiments/knapen_aot/videos/R_S_yt-UBqUhu-GEVg_6.mp4	0.0	128.9031732082367	0.10006189346313477
6	18.2550311088562	response	2	2		4.0	2.5	/experiments/knapen_aot/videos/R_S_yt-UBqUhu-GEVg_6.mp4	0.0	128.99493026733398	
7	18.263335943222046	fix_pre	0		44.0	5.0	2.5	/experiments/knapen_aot/videos/R_S_yt-AOP7QYQntPI_28.mp4	0.0	129.00323510169983	0.3666419982910156
7	18.614338159561157	response	0	2		5.0	2.5	/experiments/knapen_aot/videos/R_S_yt-AOP7QYQntPI_28.mp4	0.0	129.35423731803894	
7	18.62997794151306	movie	1		301.0	5.0	2.5	/experiments/knapen_aot/videos/R_S_yt-AOP7QYQntPI_28.mp4	0.0	129.36987709999084	2.5083770751953125
7	21.138355016708374	fix_post	2		12.0	5.0	2.5	/experiments/knapen_aot/videos/R_S_yt-AOP7QYQntPI_28.mp4	0.0	131.87825417518616	0.09994196891784668
8	21.23829698562622	fix_pre	0		23.0	6.0	2.5	/experiments/knapen_aot/videos/S_yt-hvuC_2YXsTQ_159.mp4	0.0	131.978196144104	0.1916961669921875
8	21.421715021133423	response	0	4		6.0	2.5	/experiments/knapen_aot/videos/S_yt-hvuC_2YXsTQ_159.mp4	0.0	132.1616141796112	
8	21.429993152618408	movie	1		301.0	6.0	2.5	/experiments/knapen_aot/videos/S_yt-hvuC_2YXsTQ_159.mp4	0.0	132.1698923110962	2.5083580017089844
8	23.938351154327393	fix_post	2		12.0	6.0	2.5	/experiments/knapen_aot/videos/S_yt-hvuC_2YXsTQ_159.mp4	0.0	134.67825031280518	0.0999147891998291
9	24.03826594352722	fix_pre	0		27.0	7.0	2.5	blank	1.0	134.778165102005	0.22498321533203125
9	24.255109071731567	response	0	4		7.0	2.5	blank	1.0	134.99500823020935	
9	24.263249158859253	movie	1		301.0	7.0	2.5	blank	1.0	135.00314831733704	2.5084288120269775
9	26.77167797088623	fix_post	2		12.0	7.0	2.5	blank	1.0	137.511577129364	0.10001206398010254
10	26.871690034866333	fix_pre	0		31.0	8.0	2.5	/experiments/knapen_aot/videos/R_S_yt-OLDm2slgfA4_3.mp4	0.0	137.61158919334412	0.25958704948425293
10	27.12183713912964	response	0	2		8.0	2.5	/experiments/knapen_aot/videos/R_S_yt-OLDm2slgfA4_3.mp4	0.0	137.86173629760742	
10	27.131277084350586	movie	1		301.0	8.0	2.5	/experiments/knapen_aot/videos/R_S_yt-OLDm2slgfA4_3.mp4	0.0	137.87117624282837	2.507067918777466
10	29.63834500312805	fix_post	2		12.0	8.0	2.5	/experiments/knapen_aot/videos/R_S_yt-OLDm2slgfA4_3.mp4	0.0	140.37824416160583	0.10004901885986328
11	29.738394021987915	fix_pre	0		23.0	9.0	2.5	/experiments/knapen_aot/videos/S_yt-VJ65ukWmdxQ_193.mp4	0.0	140.4782931804657	0.1915450096130371
11	29.921921968460083	response	0	2		9.0	2.5	/experiments/knapen_aot/videos/S_yt-VJ65ukWmdxQ_193.mp4	0.0	140.66182112693787	
11	29.929939031600952	movie	1		301.0	9.0	2.5	/experiments/knapen_aot/videos/S_yt-VJ65ukWmdxQ_193.mp4	0.0	140.66983819007874	2.5082900524139404
11	32.43822908401489	fix_post	2		12.0	9.0	2.5	/experiments/knapen_aot/videos/S_yt-VJ65ukWmdxQ_193.mp4	0.0	143.17812824249268	0.10006308555603027
12	32.53829216957092	fix_pre	0		158.0	10.0	2.5	/experiments/knapen_aot/videos/S_ILSVRC2015_train_00689000.mp4	0.0	143.2781913280487	1.3166818618774414
12	33.8467321395874	response	0	2		10.0	2.5	/experiments/knapen_aot/videos/S_ILSVRC2015_train_00689000.mp4	0.0	144.58663129806519	
12	33.854974031448364	movie	1		301.0	10.0	2.5	/experiments/knapen_aot/videos/S_ILSVRC2015_train_00689000.mp4	0.0	144.59487318992615	2.5083000659942627
12	36.36327409744263	fix_post	2		12.0	10.0	2.5	/experiments/knapen_aot/videos/S_ILSVRC2015_train_00689000.mp4	0.0	147.1031732559204	0.10001301765441895
13	36.463287115097046	fix_pre	0		23.0	11.0	2.5	/experiments/knapen_aot/videos/R_S_b1-3.mp4	0.0	147.20318627357483	0.19160699844360352
13	36.646718978881836	response	0	2		11.0	2.5	/experiments/knapen_aot/videos/R_S_b1-3.mp4	0.0	147.38661813735962	
13	36.65489411354065	movie	1		167.0	11.0	2.5	/experiments/knapen_aot/videos/R_S_b1-3.mp4	0.0	147.39479327201843	2.5083940029144287
13	39.16328811645508	fix_post	2		12.0	11.0	2.5	/experiments/knapen_aot/videos/R_S_b1-3.mp4	0.0	149.90318727493286	0.09997200965881348
14	39.26326012611389	fix_pre	0		11.0	12.0	2.5	blank	1.0	150.00315928459167	0.09163284301757812
14	39.346713066101074	response	0	2		12.0	2.5	blank	1.0	150.08661222457886	
14	39.35489296913147	movie	1		301.0	12.0	2.5	blank	1.0	150.09479212760925	2.5083580017089844
14	41.863250970840454	fix_post	2		12.0	12.0	2.5	blank	1.0	152.60315012931824	0.100006103515625
15	41.96325707435608	fix_pre	0		19.0	13.0	2.5	/experiments/knapen_aot/videos/S_yt-WRBmpC-RxIc_678.mp4	0.0	152.70315623283386	0.15826797485351562
15	42.113332986831665	response	0	2		13.0	2.5	/experiments/knapen_aot/videos/S_yt-WRBmpC-RxIc_678.mp4	0.0	152.85323214530945	
15	42.121525049209595	movie	1		301.0	13.0	2.5	/experiments/knapen_aot/videos/S_yt-WRBmpC-RxIc_678.mp4	0.0	152.86142420768738	2.5084121227264404
15	44.629937171936035	fix_post	2		12.0	13.0	2.5	/experiments/knapen_aot/videos/S_yt-WRBmpC-RxIc_678.mp4	0.0	155.36983633041382	0.09999299049377441
16	44.72993016242981	fix_pre	0		25.0	14.0	2.5	/experiments/knapen_aot/videos/R_S_yt-STL3ejY9u_Q_73.mp4	0.0	155.4698293209076	0.20832395553588867
16	44.93017816543579	response	0	2		14.0	2.5	/experiments/knapen_aot/videos/R_S_yt-STL3ejY9u_Q_73.mp4	0.0	155.67007732391357	
16	44.9382541179657	movie	1		301.0	14.0	2.5	/experiments/knapen_aot/videos/R_S_yt-STL3ejY9u_Q_73.mp4	0.0	155.67815327644348	2.508352041244507
16	47.446606159210205	fix_post	2		12.0	14.0	2.5	/experiments/knapen_aot/videos/R_S_yt-STL3ejY9u_Q_73.mp4	0.0	158.186505317688	0.10001277923583984
17	47.546618938446045	fix_pre	0		18.0	15.0	2.5	/experiments/knapen_aot/videos/R_S_pexels-koolshooters-7327412_1.mp4	0.0	158.28651809692383	0.14996910095214844
17	47.68842601776123	response	0	2		15.0	2.5	/experiments/knapen_aot/videos/R_S_pexels-koolshooters-7327412_1.mp4	0.0	158.428325176239	
17	47.69658803939819	movie	1		163.0	15.0	2.5	/experiments/knapen_aot/videos/R_S_pexels-koolshooters-7327412_1.mp4	0.0	158.43648719787598	2.50833797454834
17	50.20492601394653	fix_post	2		12.0	15.0	2.5	/experiments/knapen_aot/videos/R_S_pexels-koolshooters-7327412_1.mp4	0.0	160.94482517242432	0.09996294975280762
18	50.30488896369934	fix_pre	0		66.0	16.0	2.5	/experiments/knapen_aot/videos/R_S_yt-QJHe-CoK4iI_170.mp4	0.0	161.04478812217712	0.5499651432037354
18	50.846779108047485	response	0	2		16.0	2.5	/experiments/knapen_aot/videos/R_S_yt-QJHe-CoK4iI_170.mp4	0.0	161.58667826652527	
18	50.854854106903076	movie	1		301.0	16.0	2.5	/experiments/knapen_aot/videos/R_S_yt-QJHe-CoK4iI_170.mp4	0.0	161.59475326538086	2.5082850456237793
18	53.363139152526855	fix_post	2		12.0	16.0	2.5	/experiments/knapen_aot/videos/R_S_yt-QJHe-CoK4iI_170.mp4	0.0	164.10303831100464	0.10004591941833496
19	53.46318507194519	fix_pre	0		131.0	17.0	2.5	/experiments/knapen_aot/videos/R_S_yt--vHa85DHvLU_31.mp4	0.0	164.20308423042297	1.0916450023651123
19	54.54668116569519	response	0	2		17.0	2.5	/experiments/knapen_aot/videos/R_S_yt--vHa85DHvLU_31.mp4	0.0	165.28658032417297	
19	54.5548300743103	movie	1		301.0	17.0	2.5	/experiments/knapen_aot/videos/R_S_yt--vHa85DHvLU_31.mp4	0.0	165.2947292327881	2.5082828998565674
19	57.06311297416687	fix_post	2		12.0	17.0	2.5	/experiments/knapen_aot/videos/R_S_yt--vHa85DHvLU_31.mp4	0.0	167.80301213264465	0.10009503364562988
20	57.1632080078125	fix_pre	0		119.0	18.0	2.5	/experiments/knapen_aot/videos/R_S_yt-x6tYi0lRGqU_114.mp4	0.0	167.90310716629028	0.9916000366210938
20	58.1466851234436	response	0	2		18.0	2.5	/experiments/knapen_aot/videos/R_S_yt-x6tYi0lRGqU_114.mp4	0.0	168.8865842819214	
20	58.154808044433594	movie	1		301.0	18.0	2.5	/experiments/knapen_aot/videos/R_S_yt-x6tYi0lRGqU_114.mp4	0.0	168.89470720291138	2.5083858966827393
20	60.66319394111633	fix_post	2		12.0	18.0	2.5	/experiments/knapen_aot/videos/R_S_yt-x6tYi0lRGqU_114.mp4	0.0	171.40309309959412	0.09994006156921387
21	60.76313400268555	fix_pre	0		48.0	19.0	2.5	blank	1.0	171.50303316116333	0.3999631404876709
21	61.15496110916138	response	0	2		19.0	2.5	blank	1.0	171.89486026763916	
21	61.16309714317322	movie	1		301.0	19.0	2.5	blank	1.0	171.902996301651	2.5084009170532227
21	63.67149806022644	fix_post	2		12.0	19.0	2.5	blank	1.0	174.41139721870422	0.10002589225769043
22	63.77152395248413	fix_pre	0		43.0	20.0	2.5	/experiments/knapen_aot/videos/S_ga8dBJH_qK8_765.mp4	0.0	174.5114231109619	0.35940098762512207
22	64.12168407440186	response	0	2		20.0	2.5	/experiments/knapen_aot/videos/S_ga8dBJH_qK8_765.mp4	0.0	174.86158323287964	
22	64.13092494010925	movie	1		301.0	20.0	2.5	/experiments/knapen_aot/videos/S_ga8dBJH_qK8_765.mp4	0.0	174.87082409858704	2.5071940422058105
22	66.63811898231506	fix_post	2		12.0	20.0	2.5	/experiments/knapen_aot/videos/S_ga8dBJH_qK8_765.mp4	0.0	177.37801814079285	0.10002899169921875
23	66.73814797401428	fix_pre	0		61.0	21.0	2.5	/experiments/knapen_aot/videos/S_production_ID_4707837.mp4	0.0	177.47804713249207	0.5082709789276123
23	67.23830699920654	response	0	2		21.0	2.5	/experiments/knapen_aot/videos/S_production_ID_4707837.mp4	0.0	177.97820615768433	
23	67.2464189529419	movie	1		168.0	21.0	2.5	/experiments/knapen_aot/videos/S_production_ID_4707837.mp4	0.0	177.98631811141968	2.508378028869629
23	69.75479698181152	fix_post	2		12.0	21.0	2.5	/experiments/knapen_aot/videos/S_production_ID_4707837.mp4	0.0	180.4946961402893	0.1000051498413086
24	69.85480213165283	fix_pre	0		90.0	22.0	2.5	/experiments/knapen_aot/videos/S_ILSVRC2015_train_00568000.mp4	0.0	180.59470129013062	0.7552249431610107
24	70.59660911560059	response	0	2		22.0	2.5	/experiments/knapen_aot/videos/S_ILSVRC2015_train_00568000.mp4	0.0	181.33650827407837	
24	70.61002707481384	movie	1		301.0	22.0	2.5	/experiments/knapen_aot/videos/S_ILSVRC2015_train_00568000.mp4	0.0	181.34992623329163	2.503077983856201
24	73.11310505867004	fix_post	2		12.0	22.0	2.5	/experiments/knapen_aot/videos/S_ILSVRC2015_train_00568000.mp4	0.0	183.85300421714783	0.10001206398010254
25	73.21311712265015	fix_pre	0		25.0	23.0	2.5	/experiments/knapen_aot/videos/S_yt-BIDHmbneB10_998.mp4	0.0	183.95301628112793	0.2093808650970459
25	73.4057559967041	response	0	2		23.0	2.5	/experiments/knapen_aot/videos/S_yt-BIDHmbneB10_998.mp4	0.0	184.14565515518188	
25	73.42249798774719	movie	1		301.0	23.0	2.5	/experiments/knapen_aot/videos/S_yt-BIDHmbneB10_998.mp4	0.0	184.16239714622498	2.5073630809783936
25	75.92986106872559	fix_post	2		12.0	23.0	2.5	/experiments/knapen_aot/videos/S_yt-BIDHmbneB10_998.mp4	0.0	186.66976022720337	0.09991002082824707
26	76.02977108955383	fix_pre	0		79.0	24.0	2.5	/experiments/knapen_aot/videos/R_S_yt-GWgG8PVM1iw_34.mp4	0.0	186.76967024803162	0.6583349704742432
26	76.68000817298889	response	0	2		24.0	2.5	/experiments/knapen_aot/videos/R_S_yt-GWgG8PVM1iw_34.mp4	0.0	187.41990733146667	
26	76.68810606002808	movie	1		301.0	24.0	2.5	/experiments/knapen_aot/videos/R_S_yt-GWgG8PVM1iw_34.mp4	0.0	187.42800521850586	2.5082859992980957
26	79.19639205932617	fix_post	2		12.0	24.0	2.5	/experiments/knapen_aot/videos/R_S_yt-GWgG8PVM1iw_34.mp4	0.0	189.93629121780396	0.10003805160522461
27	79.2964301109314	fix_pre	0		91.0	25.0	2.5	/experiments/knapen_aot/videos/S_yt-7XDVHp75fu4_93.mp4	0.0	190.03632926940918	0.7582709789276123
27	80.03907799720764	response	0	2		25.0	2.5	/experiments/knapen_aot/videos/S_yt-7XDVHp75fu4_93.mp4	0.0	190.77897715568542	
27	80.05470108985901	movie	1		301.0	25.0	2.5	/experiments/knapen_aot/videos/S_yt-7XDVHp75fu4_93.mp4	0.0	190.7946002483368	2.508436918258667
27	82.56313800811768	fix_post	2		12.0	25.0	2.5	/experiments/knapen_aot/videos/S_yt-7XDVHp75fu4_93.mp4	0.0	193.30303716659546	0.0999600887298584
28	82.66309809684753	fix_pre	0		12.0	26.0	2.5	/experiments/knapen_aot/videos/S_yt-y6zr69M0yHI_76.mp4	0.0	193.40299725532532	0.09990501403808594
28	82.75490498542786	response	0	2		26.0	2.5	/experiments/knapen_aot/videos/S_yt-y6zr69M0yHI_76.mp4	0.0	193.49480414390564	
28	82.76300311088562	movie	1		301.0	26.0	2.5	/experiments/knapen_aot/videos/S_yt-y6zr69M0yHI_76.mp4	0.0	193.5029022693634	2.5083348751068115
28	85.27133798599243	fix_post	2		12.0	26.0	2.5	/experiments/knapen_aot/videos/S_yt-y6zr69M0yHI_76.mp4	0.0	196.01123714447021	0.10005307197570801
29	85.37139105796814	fix_pre	0		33.0	27.0	2.5	/experiments/knapen_aot/videos/S_yt-D9uD7yM6bxQ_269.mp4	0.0	196.11129021644592	0.2749779224395752
29	85.63812494277954	response	0	2		27.0	2.5	/experiments/knapen_aot/videos/S_yt-D9uD7yM6bxQ_269.mp4	0.0	196.37802410125732	
29	85.64636898040771	movie	1		299.0	27.0	2.5	/experiments/knapen_aot/videos/S_yt-D9uD7yM6bxQ_269.mp4	0.0	196.3862681388855	2.5083839893341064
29	88.15475296974182	fix_post	2		12.0	27.0	2.5	/experiments/knapen_aot/videos/S_yt-D9uD7yM6bxQ_269.mp4	0.0	198.8946521282196	0.10003209114074707
30	88.25478506088257	fix_pre	0		88.0	28.0	2.5	blank	1.0	198.99468421936035	0.7332730293273926
30	88.97985005378723	response	0	2		28.0	2.5	blank	1.0	199.71974921226501	
30	88.98805809020996	movie	1		301.0	28.0	2.5	blank	1.0	199.72795724868774	2.5082919597625732
30	91.49635004997253	fix_post	2		12.0	28.0	2.5	blank	1.0	202.23624920845032	0.10004401206970215
31	91.59639406204224	fix_pre	0		40.0	29.0	2.5	/experiments/knapen_aot/videos/S_yt-dO0OuozAgt0_225.mp4	0.0	202.33629322052002	0.3333470821380615
31	91.92147994041443	response	0	2		29.0	2.5	/experiments/knapen_aot/videos/S_yt-dO0OuozAgt0_225.mp4	0.0	202.6613790988922	
31	91.9297411441803	movie	1		301.0	29.0	2.5	/experiments/knapen_aot/videos/S_yt-dO0OuozAgt0_225.mp4	0.0	202.66964030265808	2.5083320140838623
31	94.43807315826416	fix_post	2		12.0	29.0	2.5	/experiments/knapen_aot/videos/S_yt-dO0OuozAgt0_225.mp4	0.0	205.17797231674194	0.10001087188720703
32	94.53808403015137	fix_pre	0		25.0	30.0	2.5	/experiments/knapen_aot/videos/S_yt--cAfxH1WnPo_3.mp4	0.0	205.27798318862915	0.20830202102661133
32	94.73071908950806	response	0	2		30.0	2.5	/experiments/knapen_aot/videos/S_yt--cAfxH1WnPo_3.mp4	0.0	205.47061824798584	
32	94.74638605117798	movie	1		301.0	30.0	2.5	/experiments/knapen_aot/videos/S_yt--cAfxH1WnPo_3.mp4	0.0	205.48628520965576	2.5083200931549072
32	97.25470614433289	fix_post	2		12.0	30.0	2.5	/experiments/knapen_aot/videos/S_yt--cAfxH1WnPo_3.mp4	0.0	207.99460530281067	0.09998583793640137
33	97.35469198226929	fix_pre	0		69.0	31.0	2.5	/experiments/knapen_aot/videos/S_pexels-c-technical-6491262.mp4	0.0	208.09459114074707	0.5749390125274658
33	97.92142796516418	response	0	2		31.0	2.5	/experiments/knapen_aot/videos/S_pexels-c-technical-6491262.mp4	0.0	208.66132712364197	
33	97.92963099479675	movie	1		181.0	31.0	2.5	/experiments/knapen_aot/videos/S_pexels-c-technical-6491262.mp4	0.0	208.66953015327454	2.5084800720214844
33	100.43811106681824	fix_post	2		12.0	31.0	2.5	/experiments/knapen_aot/videos/S_pexels-c-technical-6491262.mp4	0.0	211.17801022529602	0.09983706474304199
34	100.53794813156128	fix_pre	0		95.0	32.0	2.5	/experiments/knapen_aot/videos/S_3dzza09VbXY_235.mp4	0.0	211.27784729003906	0.7916648387908936
34	101.3214659690857	response	0	2		32.0	2.5	/experiments/knapen_aot/videos/S_3dzza09VbXY_235.mp4	0.0	212.06136512756348	
34	101.32961297035217	movie	1		301.0	32.0	2.5	/experiments/knapen_aot/videos/S_3dzza09VbXY_235.mp4	0.0	212.06951212882996	2.508327007293701
34	103.83793997764587	fix_post	2		12.0	32.0	2.5	/experiments/knapen_aot/videos/S_3dzza09VbXY_235.mp4	0.0	214.57783913612366	0.100067138671875
35	103.93800711631775	fix_pre	0		41.0	33.0	2.5	/experiments/knapen_aot/videos/R_S_yt-GWgG8PVM1iw_34.mp4	0.0	214.67790627479553	0.3416569232940674
35	104.27145910263062	response	0	2		33.0	2.5	/experiments/knapen_aot/videos/R_S_yt-GWgG8PVM1iw_34.mp4	0.0	215.0113582611084	
35	104.27966403961182	movie	1		301.0	33.0	2.5	/experiments/knapen_aot/videos/R_S_yt-GWgG8PVM1iw_34.mp4	0.0	215.0195631980896	2.5082600116729736
35	106.78792405128479	fix_post	2		12.0	33.0	2.5	/experiments/knapen_aot/videos/R_S_yt-GWgG8PVM1iw_34.mp4	0.0	217.52782320976257	0.10005307197570801
36	106.8879771232605	fix_pre	0		36.0	34.0	2.5	blank	1.0	217.62787628173828	0.299907922744751
36	107.17973399162292	response	0	2		34.0	2.5	blank	1.0	217.9196331501007	
36	107.18788504600525	movie	1		301.0	34.0	2.5	blank	1.0	217.92778420448303	2.508358955383301
36	109.69624400138855	fix_post	2		12.0	34.0	2.5	blank	1.0	220.43614315986633	0.10003113746643066
37	109.79627513885498	fix_pre	0		47.0	35.0	2.5	/experiments/knapen_aot/videos/S_Y003_C009_SDR_2K_AVC.mp4	0.0	220.53617429733276	0.3916919231414795
37	110.17217707633972	response	0	2		35.0	2.5	/experiments/knapen_aot/videos/S_Y003_C009_SDR_2K_AVC.mp4	0.0	220.9120762348175	
37	110.18796706199646	movie	1		175.0	35.0	2.5	/experiments/knapen_aot/videos/S_Y003_C009_SDR_2K_AVC.mp4	0.0	220.92786622047424	2.508294105529785
37	112.69626116752625	fix_post	2		12.0	35.0	2.5	/experiments/knapen_aot/videos/S_Y003_C009_SDR_2K_AVC.mp4	0.0	223.43616032600403	0.09995079040527344
38	112.79621195793152	fix_pre	0		14.0	36.0	2.5	/experiments/knapen_aot/videos/S_Pz_NXxhQCJc_70.mp4	0.0	223.5361111164093	0.11672019958496094
38	112.9046790599823	response	0	2		36.0	2.5	/experiments/knapen_aot/videos/S_Pz_NXxhQCJc_70.mp4	0.0	223.64457821846008	
38	112.91293215751648	movie	1		301.0	36.0	2.5	/experiments/knapen_aot/videos/S_Pz_NXxhQCJc_70.mp4	0.0	223.65283131599426	2.508359909057617
38	115.4212920665741	fix_post	2		12.0	36.0	2.5	/experiments/knapen_aot/videos/S_Pz_NXxhQCJc_70.mp4	0.0	226.16119122505188	0.10010790824890137
39	115.521399974823	fix_pre	0		183.0	37.0	2.5	/experiments/knapen_aot/videos/S_comp_A050_C004_1027V8_v16_SDR_FINAL_20180706_SDR_2K_AVC.mp4	0.0	226.26129913330078	1.5256471633911133
39	117.03069615364075	response	0	2		37.0	2.5	/experiments/knapen_aot/videos/S_comp_A050_C004_1027V8_v16_SDR_FINAL_20180706_SDR_2K_AVC.mp4	0.0	227.77059531211853	
39	117.04704713821411	movie	1		170.0	37.0	2.5	/experiments/knapen_aot/videos/S_comp_A050_C004_1027V8_v16_SDR_FINAL_20180706_SDR_2K_AVC.mp4	0.0	227.7869462966919	2.5075700283050537
39	119.55461716651917	fix_post	2		12.0	37.0	2.5	/experiments/knapen_aot/videos/S_comp_A050_C004_1027V8_v16_SDR_FINAL_20180706_SDR_2K_AVC.mp4	0.0	230.29451632499695	0.09999394416809082
40	119.65461111068726	fix_pre	0		17.0	38.0	2.5	/experiments/knapen_aot/videos/S_yt-2kPrGwVmRfE_169.mp4	0.0	230.39451026916504	0.14243197441101074
40	119.78812098503113	response	0	2		38.0	2.5	/experiments/knapen_aot/videos/S_yt-2kPrGwVmRfE_169.mp4	0.0	230.5280201435089	
40	119.79704308509827	movie	1		301.0	38.0	2.5	/experiments/knapen_aot/videos/S_yt-2kPrGwVmRfE_169.mp4	0.0	230.53694224357605	2.507580041885376
40	122.30462312698364	fix_post	2		12.0	38.0	2.5	/experiments/knapen_aot/videos/S_yt-2kPrGwVmRfE_169.mp4	0.0	233.04452228546143	0.10000801086425781
41	122.4046311378479	fix_pre	0		94.0	39.0	2.5	/experiments/knapen_aot/videos/S_yt-wqdTPz0bLrM_561.mp4	0.0	233.14453029632568	0.783301830291748
41	123.17975902557373	response	0	2		39.0	2.5	/experiments/knapen_aot/videos/S_yt-wqdTPz0bLrM_561.mp4	0.0	233.9196581840515	
41	123.18793296813965	movie	1		301.0	39.0	2.5	/experiments/knapen_aot/videos/S_yt-wqdTPz0bLrM_561.mp4	0.0	233.92783212661743	2.5082950592041016
41	125.69622802734375	fix_post	2		12.0	39.0	2.5	/experiments/knapen_aot/videos/S_yt-wqdTPz0bLrM_561.mp4	0.0	236.43612718582153	0.10006594657897949
42	125.79629397392273	fix_pre	0		57.0	40.0	2.5	/experiments/knapen_aot/videos/S_yt-7W50lcw5FCo_37.mp4	0.0	236.5361931324005	0.4749600887298584
42	126.25552701950073	response	0	2		40.0	2.5	/experiments/knapen_aot/videos/S_yt-7W50lcw5FCo_37.mp4	0.0	236.99542617797852	
42	126.27125406265259	movie	1		301.0	40.0	2.5	/experiments/knapen_aot/videos/S_yt-7W50lcw5FCo_37.mp4	0.0	237.01115322113037	2.508344888687134
42	128.77959895133972	fix_post	2		12.0	40.0	2.5	/experiments/knapen_aot/videos/S_yt-7W50lcw5FCo_37.mp4	0.0	239.5194981098175	0.09998703002929688
43	128.87958598136902	fix_pre	0		36.0	41.0	2.5	blank	1.0	239.6194851398468	0.30000805854797363
43	129.17150211334229	response	0	2		41.0	2.5	blank	1.0	239.91140127182007	
43	129.179594039917	movie	1		301.0	41.0	2.5	blank	1.0	239.91949319839478	2.508341073989868
43	131.68793511390686	fix_post	2		12.0	41.0	2.5	blank	1.0	242.42783427238464	0.0999748706817627
44	131.78790998458862	fix_pre	0		32.0	42.0	2.5	/experiments/knapen_aot/videos/R_S_yt-ayx4rU9bJrU_179.mp4	0.0	242.5278091430664	0.2666740417480469
44	132.04637098312378	response	0	2		42.0	2.5	/experiments/knapen_aot/videos/R_S_yt-ayx4rU9bJrU_179.mp4	0.0	242.78627014160156	
44	132.05458402633667	movie	1		301.0	42.0	2.5	/experiments/knapen_aot/videos/R_S_yt-ayx4rU9bJrU_179.mp4	0.0	242.79448318481445	2.508328914642334
44	134.562912940979	fix_post	2		12.0	42.0	2.5	/experiments/knapen_aot/videos/R_S_yt-ayx4rU9bJrU_179.mp4	0.0	245.3028120994568	0.10000920295715332
45	134.66292214393616	fix_pre	0		98.0	43.0	2.5	/experiments/knapen_aot/videos/S_yt-D_f3_HIXG2g_87.mp4	0.0	245.40282130241394	0.8166317939758301
45	135.4713749885559	response	0	2		43.0	2.5	/experiments/knapen_aot/videos/S_yt-D_f3_HIXG2g_87.mp4	0.0	246.2112741470337	
45	135.479553937912	movie	1		301.0	43.0	2.5	/experiments/knapen_aot/videos/S_yt-D_f3_HIXG2g_87.mp4	0.0	246.21945309638977	2.508331060409546
45	137.98788499832153	fix_post	2		12.0	43.0	2.5	/experiments/knapen_aot/videos/S_yt-D_f3_HIXG2g_87.mp4	0.0	248.72778415679932	0.09999799728393555
46	138.08788299560547	fix_pre	0		45.0	44.0	2.5	/experiments/knapen_aot/videos/S_yt-zhQ32_OayBQ_39.mp4	0.0	248.82778215408325	0.37566709518432617
46	138.45461797714233	response	0	2		44.0	2.5	/experiments/knapen_aot/videos/S_yt-zhQ32_OayBQ_39.mp4	0.0	249.19451713562012	
46	138.4635500907898	movie	1		301.0	44.0	2.5	/experiments/knapen_aot/videos/S_yt-zhQ32_OayBQ_39.mp4	0.0	249.20344924926758	2.5076119899749756
46	140.97116208076477	fix_post	2		12.0	44.0	2.5	/experiments/knapen_aot/videos/S_yt-zhQ32_OayBQ_39.mp4	0.0	251.71106123924255	0.0999898910522461
47	141.07115197181702	fix_pre	0		139.0	45.0	2.5	/experiments/knapen_aot/videos/S_pexels-c-technical-6491262.mp4	0.0	251.8110511302948	1.158346176147461
47	142.22129702568054	response	0	2		45.0	2.5	/experiments/knapen_aot/videos/S_pexels-c-technical-6491262.mp4	0.0	252.96119618415833	
47	142.22949814796448	movie	1		196.0	45.0	2.5	/experiments/knapen_aot/videos/S_pexels-c-technical-6491262.mp4	0.0	252.96939730644226	2.508330821990967
47	144.73782896995544	fix_post	2		12.0	45.0	2.5	/experiments/knapen_aot/videos/S_pexels-c-technical-6491262.mp4	0.0	255.47772812843323	0.10000205039978027
48	144.83783102035522	fix_pre	0		47.0	46.0	2.5	/experiments/knapen_aot/videos/S_pexels-laker-5793000.mp4	0.0	255.577730178833	0.3916800022125244
48	145.22130012512207	response	0	2		46.0	2.5	/experiments/knapen_aot/videos/S_pexels-laker-5793000.mp4	0.0	255.96119928359985	
48	145.22951102256775	movie	1		167.0	46.0	2.5	/experiments/knapen_aot/videos/S_pexels-laker-5793000.mp4	0.0	255.96941018104553	2.5082480907440186
48	147.73775911331177	fix_post	2		12.0	46.0	2.5	/experiments/knapen_aot/videos/S_pexels-laker-5793000.mp4	0.0	258.47765827178955	0.10003495216369629
49	147.83779406547546	fix_pre	0		102.0	47.0	2.5	blank	1.0	258.57769322395325	0.8499031066894531
49	148.67962908744812	response	0	2		47.0	2.5	blank	1.0	259.4195282459259	
49	148.68769717216492	movie	1		301.0	47.0	2.5	blank	1.0	259.4275963306427	2.5084388256073
49	151.19613599777222	fix_post	2		12.0	47.0	2.5	blank	1.0	261.93603515625	0.09996914863586426
50	151.29610514640808	fix_pre	0		31.0	48.0	2.5	/experiments/knapen_aot/videos/R_S_yt-QOnORDmVMyU_10.mp4	0.0	262.03600430488586	0.2583467960357666
50	151.53865909576416	response	0	2		48.0	2.5	/experiments/knapen_aot/videos/R_S_yt-QOnORDmVMyU_10.mp4	0.0	262.27855825424194	
50	151.55445194244385	movie	1		301.0	48.0	2.5	/experiments/knapen_aot/videos/R_S_yt-QOnORDmVMyU_10.mp4	0.0	262.29435110092163	2.5083460807800293
50	154.06279802322388	fix_post	2		12.0	48.0	2.5	/experiments/knapen_aot/videos/R_S_yt-QOnORDmVMyU_10.mp4	0.0	264.80269718170166	0.09992814064025879
51	154.16272616386414	fix_pre	0		86.0	49.0	2.5	/experiments/knapen_aot/videos/R_S_yt-t-wpKypNysg_27.mp4	0.0	264.9026253223419	0.7173359394073486
51	154.87110805511475	response	0	2		49.0	2.5	/experiments/knapen_aot/videos/R_S_yt-t-wpKypNysg_27.mp4	0.0	265.61100721359253	
51	154.88006210327148	movie	1		299.0	49.0	2.5	/experiments/knapen_aot/videos/R_S_yt-t-wpKypNysg_27.mp4	0.0	265.61996126174927	2.507628917694092
51	157.38769102096558	fix_post	2		12.0	49.0	2.5	/experiments/knapen_aot/videos/R_S_yt-t-wpKypNysg_27.mp4	0.0	268.12759017944336	0.10005712509155273
52	157.48774814605713	fix_pre	0		97.0	50.0	2.5	/experiments/knapen_aot/videos/S_yt-rPYBHkUEwwc_10.mp4	0.0	268.2276473045349	0.8089590072631836
52	158.28790807724	response	0	2		50.0	2.5	/experiments/knapen_aot/videos/S_yt-rPYBHkUEwwc_10.mp4	0.0	269.0278072357178	
52	158.2967071533203	movie	1		301.0	50.0	2.5	/experiments/knapen_aot/videos/S_yt-rPYBHkUEwwc_10.mp4	0.0	269.0366063117981	2.50773286819458
52	160.8044400215149	fix_post	2		12.0	50.0	2.5	/experiments/knapen_aot/videos/S_yt-rPYBHkUEwwc_10.mp4	0.0	271.5443391799927	0.09990811347961426
53	160.9043481349945	fix_pre	0		40.0	51.0	2.5	/experiments/knapen_aot/videos/R_S_yt-TZ107yBhXoA_1.mp4	0.0	271.6442472934723	0.3333740234375
53	161.229553937912	response	0	2		51.0	2.5	/experiments/knapen_aot/videos/R_S_yt-TZ107yBhXoA_1.mp4	0.0	271.96945309638977	
53	161.237722158432	movie	1		301.0	51.0	2.5	/experiments/knapen_aot/videos/R_S_yt-TZ107yBhXoA_1.mp4	0.0	271.9776213169098	2.5083417892456055
53	163.7460639476776	fix_post	2		12.0	51.0	2.5	/experiments/knapen_aot/videos/R_S_yt-TZ107yBhXoA_1.mp4	0.0	274.4859631061554	0.10000014305114746
54	163.84606409072876	fix_pre	0		32.0	52.0	2.5	/experiments/knapen_aot/videos/R_S_pexels-c-technical-6491262.mp4	0.0	274.58596324920654	0.26662302017211914
54	164.10451817512512	response	0	2		52.0	2.5	/experiments/knapen_aot/videos/R_S_pexels-c-technical-6491262.mp4	0.0	274.8444173336029	
54	164.11268711090088	movie	1		206.0	52.0	2.5	/experiments/knapen_aot/videos/R_S_pexels-c-technical-6491262.mp4	0.0	274.85258626937866	2.5083818435668945
54	166.62106895446777	fix_post	2		12.0	52.0	2.5	/experiments/knapen_aot/videos/R_S_pexels-c-technical-6491262.mp4	0.0	277.36096811294556	0.09997105598449707
55	166.72104001045227	fix_pre	0		110.0	53.0	2.5	/experiments/knapen_aot/videos/S_yt-bshHX6vWLtA_84.mp4	0.0	277.46093916893005	0.9166269302368164
55	167.62949013710022	response	0	2		53.0	2.5	/experiments/knapen_aot/videos/S_yt-bshHX6vWLtA_84.mp4	0.0	278.369389295578	
55	167.6376669406891	movie	1		301.0	53.0	2.5	/experiments/knapen_aot/videos/S_yt-bshHX6vWLtA_84.mp4	0.0	278.37756609916687	2.5083250999450684
55	170.14599204063416	fix_post	2		12.0	53.0	2.5	/experiments/knapen_aot/videos/S_yt-bshHX6vWLtA_84.mp4	0.0	280.88589119911194	0.10007095336914062
56	170.2460629940033	fix_pre	0		53.0	54.0	2.5	/experiments/knapen_aot/videos/S_video-9.mp4	0.0	280.9859621524811	0.44156408309936523
56	170.6795060634613	response	0	2		54.0	2.5	/experiments/knapen_aot/videos/S_video-9.mp4	0.0	281.4194052219391	
56	170.68762707710266	movie	1		199.0	54.0	2.5	/experiments/knapen_aot/videos/S_video-9.mp4	0.0	281.42752623558044	2.508450984954834
56	173.1960780620575	fix_post	2		12.0	54.0	2.5	/experiments/knapen_aot/videos/S_video-9.mp4	0.0	283.9359772205353	0.09999203681945801
57	173.29607009887695	fix_pre	0		170.0	55.0	2.5	blank	1.0	284.03596925735474	1.4172039031982422
57	174.70451402664185	response	0	2		55.0	2.5	blank	1.0	285.44441318511963	
57	174.7132740020752	movie	1		301.0	55.0	2.5	blank	1.0	285.453173160553	2.507733106613159
57	177.22100710868835	fix_post	2		12.0	55.0	2.5	blank	1.0	287.96090626716614	0.09997391700744629
58	177.3209810256958	fix_pre	0		29.0	56.0	2.5	/experiments/knapen_aot/videos/S_yt-zhQ32_OayBQ_39.mp4	0.0	288.0608801841736	0.24164509773254395
58	177.55445098876953	response	0	2		56.0	2.5	/experiments/knapen_aot/videos/S_yt-zhQ32_OayBQ_39.mp4	0.0	288.2943501472473	
58	177.56262612342834	movie	1		301.0	56.0	2.5	/experiments/knapen_aot/videos/S_yt-zhQ32_OayBQ_39.mp4	0.0	288.3025252819061	2.5083839893341064
58	180.07101011276245	fix_post	2		12.0	56.0	2.5	/experiments/knapen_aot/videos/S_yt-zhQ32_OayBQ_39.mp4	0.0	290.81090927124023	0.10018587112426758
59	180.17119598388672	fix_pre	0		22.0	57.0	2.5	/experiments/knapen_aot/videos/R_S_pexels-koolshooters-7327405.mp4	0.0	290.9110951423645	0.18318700790405273
59	180.3461630344391	response	0	2		57.0	2.5	/experiments/knapen_aot/videos/R_S_pexels-koolshooters-7327405.mp4	0.0	291.08606219291687	
59	180.35438299179077	movie	1		164.0	57.0	2.5	/experiments/knapen_aot/videos/R_S_pexels-koolshooters-7327405.mp4	0.0	291.09428215026855	2.5083320140838623
59	182.86271500587463	fix_post	2		12.0	57.0	2.5	/experiments/knapen_aot/videos/R_S_pexels-koolshooters-7327405.mp4	0.0	293.6026141643524	0.10000014305114746
60	182.96271514892578	fix_pre	0		63.0	58.0	2.5	/experiments/knapen_aot/videos/R_S_yt-1uk2k3PnTNw_37.0.mp4	0.0	293.70261430740356	0.5249459743499756
60	183.4794270992279	response	0	2		58.0	2.5	/experiments/knapen_aot/videos/R_S_yt-1uk2k3PnTNw_37.0.mp4	0.0	294.2193262577057	
60	183.48766112327576	movie	1		301.0	58.0	2.5	/experiments/knapen_aot/videos/R_S_yt-1uk2k3PnTNw_37.0.mp4	0.0	294.22756028175354	2.508363962173462
60	185.99602508544922	fix_post	2		12.0	58.0	2.5	/experiments/knapen_aot/videos/R_S_yt-1uk2k3PnTNw_37.0.mp4	0.0	296.735924243927	0.09996390342712402
61	186.09598898887634	fix_pre	0		6.0	59.0	2.5	/experiments/knapen_aot/videos/R_S_yt-ZE8Af60eNsI_15.mp4	0.0	296.8358881473541	0.04995012283325195
61	186.13030409812927	response	0	2		59.0	2.5	/experiments/knapen_aot/videos/R_S_yt-ZE8Af60eNsI_15.mp4	0.0	296.87020325660706	
61	186.1459391117096	movie	1		301.0	59.0	2.5	/experiments/knapen_aot/videos/R_S_yt-ZE8Af60eNsI_15.mp4	0.0	296.8858382701874	2.5083670616149902
61	188.65430617332458	fix_post	2		12.0	59.0	2.5	/experiments/knapen_aot/videos/R_S_yt-ZE8Af60eNsI_15.mp4	0.0	299.39420533180237	0.09994983673095703
62	188.75425601005554	fix_pre	0		89.0	60.0	2.5	/experiments/knapen_aot/videos/S_pexels-anthony-shkraba-production-8135459.mp4	0.0	299.4941551685333	0.7417380809783936
62	189.48770809173584	response	0	2		60.0	2.5	/experiments/knapen_aot/videos/S_pexels-anthony-shkraba-production-8135459.mp4	0.0	300.2276072502136	
62	189.49599409103394	movie	1		167.0	60.0	2.5	/experiments/knapen_aot/videos/S_pexels-anthony-shkraba-production-8135459.mp4	0.0	300.2358932495117	2.5082719326019287
62	192.00426602363586	fix_post	2		12.0	60.0	2.5	/experiments/knapen_aot/videos/S_pexels-anthony-shkraba-production-8135459.mp4	0.0	302.74416518211365	0.10004496574401855
63	192.10431098937988	fix_pre	0		33.0	61.0	2.5	blank	1.0	302.84421014785767	0.2754330635070801
63	192.37110209465027	response	0	2		61.0	2.5	blank	1.0	303.11100125312805	
63	192.37974405288696	movie	1		301.0	61.0	2.5	blank	1.0	303.11964321136475	2.50787091255188
63	194.88761496543884	fix_post	2		12.0	61.0	2.5	blank	1.0	305.6275141239166	0.09995412826538086
64	194.98756909370422	fix_pre	0		43.0	62.0	2.5	/experiments/knapen_aot/videos/S_ILSVRC2015_train_00369002.mp4	0.0	305.727468252182	0.3583700656890869
64	195.3301820755005	response	0	2		62.0	2.5	/experiments/knapen_aot/videos/S_ILSVRC2015_train_00369002.mp4	0.0	306.07008123397827	
64	195.3459391593933	movie	1		301.0	62.0	2.5	/experiments/knapen_aot/videos/S_ILSVRC2015_train_00369002.mp4	0.0	306.0858383178711	2.5083439350128174
64	197.85428309440613	fix_post	2		12.0	62.0	2.5	/experiments/knapen_aot/videos/S_ILSVRC2015_train_00369002.mp4	0.0	308.5941822528839	0.09995198249816895
65	197.9542350769043	fix_pre	0		34.0	63.0	2.5	/experiments/knapen_aot/videos/S_yt-78k6vUHDWAI_206.mp4	0.0	308.6941342353821	0.28330397605895996
65	198.22936010360718	response	0	2		63.0	2.5	/experiments/knapen_aot/videos/S_yt-78k6vUHDWAI_206.mp4	0.0	308.96925926208496	
65	198.23753905296326	movie	1		301.0	63.0	2.5	/experiments/knapen_aot/videos/S_yt-78k6vUHDWAI_206.mp4	0.0	308.97743821144104	2.5084121227264404
65	200.7459511756897	fix_post	2		12.0	63.0	2.5	/experiments/knapen_aot/videos/S_yt-78k6vUHDWAI_206.mp4	0.0	311.4858503341675	0.09998893737792969
66	200.84594011306763	fix_pre	0		49.0	64.0	2.5	/experiments/knapen_aot/videos/S_zAKvYNtmhuc_772.mp4	0.0	311.5858392715454	0.4086899757385254
66	201.24601197242737	response	0	2		64.0	2.5	/experiments/knapen_aot/videos/S_zAKvYNtmhuc_772.mp4	0.0	311.98591113090515	
66	201.25463008880615	movie	1		299.0	64.0	2.5	/experiments/knapen_aot/videos/S_zAKvYNtmhuc_772.mp4	0.0	311.99452924728394	2.507889986038208
66	203.76252007484436	fix_post	2		12.0	64.0	2.5	/experiments/knapen_aot/videos/S_zAKvYNtmhuc_772.mp4	0.0	314.50241923332214	0.10006904602050781
67	203.86258912086487	fix_pre	0		22.0	65.0	2.5	/experiments/knapen_aot/videos/S_ILSVRC2015_train_00613000.mp4	0.0	314.60248827934265	0.18367290496826172
67	204.0303111076355	response	0	4		65.0	2.5	/experiments/knapen_aot/videos/S_ILSVRC2015_train_00613000.mp4	0.0	314.7702102661133	
67	204.04626202583313	movie	1		301.0	65.0	2.5	/experiments/knapen_aot/videos/S_ILSVRC2015_train_00613000.mp4	0.0	314.7861611843109	2.508000135421753
67	206.55426216125488	fix_post	2		12.0	65.0	2.5	/experiments/knapen_aot/videos/S_ILSVRC2015_train_00613000.mp4	0.0	317.29416131973267	0.09994077682495117
68	206.65420293807983	fix_pre	0		31.0	66.0	2.5	/experiments/knapen_aot/videos/R_S_production_ID_4325516.mp4	0.0	317.3941020965576	0.25838303565979004
68	206.90451002120972	response	0	2		66.0	2.5	/experiments/knapen_aot/videos/R_S_production_ID_4325516.mp4	0.0	317.6444091796875	
68	206.91258597373962	movie	1		187.0	66.0	2.5	/experiments/knapen_aot/videos/R_S_production_ID_4325516.mp4	0.0	317.6524851322174	2.5082671642303467
68	209.42085313796997	fix_post	2		12.0	66.0	2.5	/experiments/knapen_aot/videos/R_S_production_ID_4325516.mp4	0.0	320.16075229644775	0.1000218391418457
69	209.52087497711182	fix_pre	0		121.0	67.0	2.5	/experiments/knapen_aot/videos/S_yt-MyL1VlXiZa4_25.mp4	0.0	320.2607741355896	1.0082921981811523
69	210.52094507217407	response	0	2		67.0	2.5	/experiments/knapen_aot/videos/S_yt-MyL1VlXiZa4_25.mp4	0.0	321.26084423065186	
69	210.52916717529297	movie	1		301.0	67.0	2.5	/experiments/knapen_aot/videos/S_yt-MyL1VlXiZa4_25.mp4	0.0	321.26906633377075	2.5083107948303223
69	213.0374779701233	fix_post	2		12.0	67.0	2.5	/experiments/knapen_aot/videos/S_yt-MyL1VlXiZa4_25.mp4	0.0	323.7773771286011	0.1000521183013916
70	213.13753008842468	fix_pre	0		34.0	68.0	2.5	/experiments/knapen_aot/videos/R_S_yt-ZE8Af60eNsI_15.mp4	0.0	323.87742924690247	0.283674955368042
70	213.41265106201172	response	0	2		68.0	2.5	/experiments/knapen_aot/videos/R_S_yt-ZE8Af60eNsI_15.mp4	0.0	324.1525502204895	
70	213.42120504379272	movie	1		301.0	68.0	2.5	/experiments/knapen_aot/videos/R_S_yt-ZE8Af60eNsI_15.mp4	0.0	324.1611042022705	2.507939100265503
70	215.92914414405823	fix_post	2		12.0	68.0	2.5	/experiments/knapen_aot/videos/R_S_yt-ZE8Af60eNsI_15.mp4	0.0	326.669043302536	0.1000208854675293
71	216.02916502952576	fix_pre	0		81.0	69.0	2.5	blank	1.0	326.76906418800354	0.6750059127807617
71	216.6960151195526	response	0	2		69.0	2.5	blank	1.0	327.4359142780304	
71	216.70417094230652	movie	1		301.0	69.0	2.5	blank	1.0	327.4440701007843	2.508352041244507
71	219.21252298355103	fix_post	2		12.0	69.0	2.5	blank	1.0	329.9524221420288	0.09997010231018066
72	219.3124930858612	fix_pre	0		24.0	70.0	2.5	/experiments/knapen_aot/videos/S_yt-Z0nfPTEEOLo_85.mp4	0.0	330.052392244339	0.2001800537109375
72	219.4967279434204	response	0	2		70.0	2.5	/experiments/knapen_aot/videos/S_yt-Z0nfPTEEOLo_85.mp4	0.0	330.2366271018982	
72	219.51267313957214	movie	1		300.0	70.0	2.5	/experiments/knapen_aot/videos/S_yt-Z0nfPTEEOLo_85.mp4	0.0	330.2525722980499	2.5082428455352783
72	222.02091598510742	fix_post	2		12.0	70.0	2.5	/experiments/knapen_aot/videos/S_yt-Z0nfPTEEOLo_85.mp4	0.0	332.7608151435852	0.09991097450256348
73	222.12082695960999	fix_pre	0		29.0	71.0	2.5	/experiments/knapen_aot/videos/R_S_yt-hyZEDFkh49w_196.mp4	0.0	332.86072611808777	0.2416071891784668
73	222.35423707962036	response	0	2		71.0	2.5	/experiments/knapen_aot/videos/R_S_yt-hyZEDFkh49w_196.mp4	0.0	333.09413623809814	
73	222.36243414878845	movie	1		298.0	71.0	2.5	/experiments/knapen_aot/videos/R_S_yt-hyZEDFkh49w_196.mp4	0.0	333.10233330726624	2.508452892303467
73	224.87088704109192	fix_post	2		12.0	71.0	2.5	/experiments/knapen_aot/videos/R_S_yt-hyZEDFkh49w_196.mp4	0.0	335.6107861995697	0.09992790222167969
74	224.9708149433136	fix_pre	0		73.0	72.0	2.5	/experiments/knapen_aot/videos/S_FZ0hLmjCR0s_26.mp4	0.0	335.7107141017914	0.608361005783081
74	225.5710289478302	response	0	2		72.0	2.5	/experiments/knapen_aot/videos/S_FZ0hLmjCR0s_26.mp4	0.0	336.310928106308	
74	225.57917594909668	movie	1		301.0	72.0	2.5	/experiments/knapen_aot/videos/S_FZ0hLmjCR0s_26.mp4	0.0	336.31907510757446	2.5085902214050293
74	228.0877661705017	fix_post	2		12.0	72.0	2.5	/experiments/knapen_aot/videos/S_FZ0hLmjCR0s_26.mp4	0.0	338.8276653289795	0.09972977638244629
75	228.18749594688416	fix_pre	0		40.0	73.0	2.5	/experiments/knapen_aot/videos/R_S_yt--cAfxH1WnPo_3.mp4	0.0	338.92739510536194	0.33330416679382324
75	228.50513195991516	response	0	2		73.0	2.5	/experiments/knapen_aot/videos/R_S_yt--cAfxH1WnPo_3.mp4	0.0	339.24503111839294	
75	228.52080011367798	movie	1		301.0	73.0	2.5	/experiments/knapen_aot/videos/R_S_yt--cAfxH1WnPo_3.mp4	0.0	339.26069927215576	2.508380889892578
75	231.02918100357056	fix_post	2		12.0	73.0	2.5	/experiments/knapen_aot/videos/R_S_yt--cAfxH1WnPo_3.mp4	0.0	341.76908016204834	0.1002359390258789
76	231.12941694259644	fix_pre	0		122.0	74.0	2.5	/experiments/knapen_aot/videos/S_ILSVRC2015_train_00568000.mp4	0.0	341.8693161010742	1.0163850784301758
76	232.137629032135	response	0	2		74.0	2.5	/experiments/knapen_aot/videos/S_ILSVRC2015_train_00568000.mp4	0.0	342.8775281906128	
76	232.1458020210266	movie	1		301.0	74.0	2.5	/experiments/knapen_aot/videos/S_ILSVRC2015_train_00568000.mp4	0.0	342.8857011795044	2.5082831382751465
76	234.65408515930176	fix_post	2		12.0	74.0	2.5	/experiments/knapen_aot/videos/S_ILSVRC2015_train_00568000.mp4	0.0	345.39398431777954	0.1002957820892334
77	234.754380941391	fix_pre	0		59.0	75.0	2.5	/experiments/knapen_aot/videos/S_yt-cokedWwwYYs_136.mp4	0.0	345.4942800998688	0.4913971424102783
77	235.2376389503479	response	0	2		75.0	2.5	/experiments/knapen_aot/videos/S_yt-cokedWwwYYs_136.mp4	0.0	345.9775381088257	
77	235.24577808380127	movie	1		301.0	75.0	2.5	/experiments/knapen_aot/videos/S_yt-cokedWwwYYs_136.mp4	0.0	345.98567724227905	2.5085270404815674
77	237.75430512428284	fix_post	2		12.0	75.0	2.5	/experiments/knapen_aot/videos/S_yt-cokedWwwYYs_136.mp4	0.0	348.4942042827606	0.09982085227966309
78	237.8541259765625	fix_pre	0		102.0	76.0	2.5	/experiments/knapen_aot/videos/R_S_yt-zhQ32_OayBQ_39.mp4	0.0	348.5940251350403	0.8499281406402588
78	238.69590210914612	response	0	2		76.0	2.5	/experiments/knapen_aot/videos/R_S_yt-zhQ32_OayBQ_39.mp4	0.0	349.4358012676239	
78	238.70405411720276	movie	1		298.0	76.0	2.5	/experiments/knapen_aot/videos/R_S_yt-zhQ32_OayBQ_39.mp4	0.0	349.44395327568054	2.5087339878082275
78	241.212788105011	fix_post	2		12.0	76.0	2.5	/experiments/knapen_aot/videos/R_S_yt-zhQ32_OayBQ_39.mp4	0.0	351.95268726348877	0.09961104393005371
79	241.31239914894104	fix_pre	0		10.0	77.0	2.5	blank	1.0	352.0522983074188	0.0833439826965332
79	241.387619972229	response	0	2		77.0	2.5	blank	1.0	352.1275191307068	
79	241.39574313163757	movie	1		301.0	77.0	2.5	blank	1.0	352.13564229011536	2.508347988128662
79	243.90409111976624	fix_post	2		12.0	77.0	2.5	blank	1.0	354.643990278244	0.10018086433410645
80	244.00427198410034	fix_pre	0		31.0	78.0	2.5	/experiments/knapen_aot/videos/R_S_cST9H3zu3zQ_126.mp4	0.0	354.7441711425781	0.2581319808959961
80	244.25423216819763	response	0	2		78.0	2.5	/experiments/knapen_aot/videos/R_S_cST9H3zu3zQ_126.mp4	0.0	354.9941313266754	
80	244.26240396499634	movie	1		301.0	78.0	2.5	/experiments/knapen_aot/videos/R_S_cST9H3zu3zQ_126.mp4	0.0	355.0023031234741	2.5083541870117188
80	246.77075815200806	fix_post	2		12.0	78.0	2.5	/experiments/knapen_aot/videos/R_S_cST9H3zu3zQ_126.mp4	0.0	357.51065731048584	0.09993100166320801
81	246.87068915367126	fix_pre	0		96.0	79.0	2.5	/experiments/knapen_aot/videos/S_ILSVRC2015_train_00303005.mp4	0.0	357.61058831214905	0.8002088069915771
81	247.66253304481506	response	0	2		79.0	2.5	/experiments/knapen_aot/videos/S_ILSVRC2015_train_00303005.mp4	0.0	358.40243220329285	
81	247.67089796066284	movie	1		301.0	79.0	2.5	/experiments/knapen_aot/videos/S_ILSVRC2015_train_00303005.mp4	0.0	358.4107971191406	2.508113145828247
81	250.1790111064911	fix_post	2		12.0	79.0	2.5	/experiments/knapen_aot/videos/S_ILSVRC2015_train_00303005.mp4	0.0	360.9189102649689	0.09998488426208496
82	250.27899599075317	fix_pre	0		69.0	80.0	2.5	/experiments/knapen_aot/videos/R_S_yt-_BvMLZo0MG0_1226.mp4	0.0	361.01889514923096	0.5749411582946777
82	250.84586715698242	response	0	2		80.0	2.5	/experiments/knapen_aot/videos/R_S_yt-_BvMLZo0MG0_1226.mp4	0.0	361.5857663154602	
82	250.85393714904785	movie	1		299.0	80.0	2.5	/experiments/knapen_aot/videos/R_S_yt-_BvMLZo0MG0_1226.mp4	0.0	361.59383630752563	2.5083658695220947
82	253.36230301856995	fix_post	2		12.0	80.0	2.5	/experiments/knapen_aot/videos/R_S_yt-_BvMLZo0MG0_1226.mp4	0.0	364.10220217704773	0.10018396377563477
83	253.46248698234558	fix_pre	0		120.0	81.0	2.5	/experiments/knapen_aot/videos/R_S_yt-BJsMGxfjrZk_59.mp4	0.0	364.20238614082336	0.9999091625213623
83	254.45416116714478	response	0	2		81.0	2.5	/experiments/knapen_aot/videos/R_S_yt-BJsMGxfjrZk_59.mp4	0.0	365.19406032562256	
83	254.46239614486694	movie	1		301.0	81.0	2.5	/experiments/knapen_aot/videos/R_S_yt-BJsMGxfjrZk_59.mp4	0.0	365.2022953033447	2.5082650184631348
83	256.9706611633301	fix_post	2		12.0	81.0	2.5	/experiments/knapen_aot/videos/R_S_yt-BJsMGxfjrZk_59.mp4	0.0	367.71056032180786	0.10000085830688477
84	257.07066202163696	fix_pre	0		23.0	82.0	2.5	/experiments/knapen_aot/videos/R_S_yt-Id-f63kUHsE_20.mp4	0.0	367.81056118011475	0.1916811466217041
84	257.25411105155945	response	0	2		82.0	2.5	/experiments/knapen_aot/videos/R_S_yt-Id-f63kUHsE_20.mp4	0.0	367.99401021003723	
84	257.26234316825867	movie	1		301.0	82.0	2.5	/experiments/knapen_aot/videos/R_S_yt-Id-f63kUHsE_20.mp4	0.0	368.00224232673645	2.5083818435668945
84	259.77072501182556	fix_post	2		12.0	82.0	2.5	/experiments/knapen_aot/videos/R_S_yt-Id-f63kUHsE_20.mp4	0.0	370.51062417030334	0.0999600887298584
85	259.8706851005554	fix_pre	0		101.0	83.0	2.5	blank	1.0	370.6105842590332	0.8417119979858398
85	260.70414113998413	response	0	2		83.0	2.5	blank	1.0	371.4440402984619	
85	260.71239709854126	movie	1		301.0	83.0	2.5	blank	1.0	371.45229625701904	2.5082600116729736
85	263.22065711021423	fix_post	2		12.0	83.0	2.5	blank	1.0	373.960556268692	0.1000359058380127
87	263.32069301605225	stim	0		206.0					374.06059217453003	1.7180941104888916
87	265.030305147171	response	0	space						375.7702043056488	
