trial_nr	onset	event_type	phase	response	nr_frames	movie_index	movie_duration	movie_file	blank	onset_abs	duration
0	0.15527009963989258	stim	0		45.0					60.14974117279053	0.374316930770874
0	0.5149319171905518	response	0	space						60.50940299034119	
1	0.5295870304107666	stim	0		121.0					60.5240581035614	1.0082218647003174
1	1.3627400398254395	response	0	space						61.357211112976074	
1	1.537808895111084	stim	1		120.0					61.53227996826172	0.9995441436767578
1	2.304163932800293	response	1	space						62.29863500595093	
2	2.537353038787842	fix_pre	0		26.0	0.0	2.5	/experiments/knapen_aot/videos/S_pexels-c-technical-6491262.mp4	0.0	62.53182411193848	0.21669888496398926
2	2.7458319664001465	response	0	space		0.0	2.5	/experiments/knapen_aot/videos/S_pexels-c-technical-6491262.mp4	0.0	62.74030303955078	
2	2.754051923751831	movie	1		196.0	0.0	2.5	/experiments/knapen_aot/videos/S_pexels-c-technical-6491262.mp4	0.0	62.748522996902466	2.508310079574585
2	5.262362003326416	fix_post	2		12.0	0.0	2.5	/experiments/knapen_aot/videos/S_pexels-c-technical-6491262.mp4	0.0	65.25683307647705	0.09998297691345215
3	5.362344980239868	fix_pre	0		52.0	1.0	2.5	/experiments/knapen_aot/videos/S_yt-VjTiMtjdjTw_103.mp4	0.0	65.3568160533905	0.4355320930480957
3	5.79039192199707	response	0	2		1.0	2.5	/experiments/knapen_aot/videos/S_yt-VjTiMtjdjTw_103.mp4	0.0	65.7848629951477	
3	5.797877073287964	movie	1		293.0	1.0	2.5	/experiments/knapen_aot/videos/S_yt-VjTiMtjdjTw_103.mp4	0.0	65.7923481464386	2.5062029361724854
3	8.30408000946045	fix_post	2		12.0	1.0	2.5	/experiments/knapen_aot/videos/S_yt-VjTiMtjdjTw_103.mp4	0.0	68.29855108261108	0.09996604919433594
4	8.404046058654785	fix_pre	0		61.0	2.0	2.5	/experiments/knapen_aot/videos/R_S_gHYomsO1dSU_5.mp4	0.0	68.39851713180542	0.508293867111206
4	8.89676308631897	response	0	2		2.0	2.5	/experiments/knapen_aot/videos/R_S_gHYomsO1dSU_5.mp4	0.0	68.8912341594696	
4	8.912339925765991	movie	1		301.0	2.0	2.5	/experiments/knapen_aot/videos/R_S_gHYomsO1dSU_5.mp4	0.0	68.90681099891663	2.508350133895874
4	11.420690059661865	fix_post	2		12.0	2.0	2.5	/experiments/knapen_aot/videos/R_S_gHYomsO1dSU_5.mp4	0.0	71.4151611328125	0.09995698928833008
5	11.520647048950195	fix_pre	0		47.0	3.0	2.5	/experiments/knapen_aot/videos/S_yt--JnTDuElzXQ_121.mp4	0.0	71.51511812210083	0.3917050361633301
5	11.904109001159668	response	0	2		3.0	2.5	/experiments/knapen_aot/videos/S_yt--JnTDuElzXQ_121.mp4	0.0	71.8985800743103	
5	11.912352085113525	movie	1		301.0	3.0	2.5	/experiments/knapen_aot/videos/S_yt--JnTDuElzXQ_121.mp4	0.0	71.90682315826416	2.5083518028259277
5	14.420703887939453	fix_post	2		12.0	3.0	2.5	/experiments/knapen_aot/videos/S_yt--JnTDuElzXQ_121.mp4	0.0	74.41517496109009	0.09993505477905273
6	14.520638942718506	fix_pre	0		46.0	4.0	2.5	/experiments/knapen_aot/videos/R_S_yt-2dRSJcaJIXw_32.mp4	0.0	74.51511001586914	0.38343310356140137
6	14.888273000717163	response	0	2		4.0	2.5	/experiments/knapen_aot/videos/R_S_yt-2dRSJcaJIXw_32.mp4	0.0	74.8827440738678	
6	14.904072046279907	movie	1		301.0	4.0	2.5	/experiments/knapen_aot/videos/R_S_yt-2dRSJcaJIXw_32.mp4	0.0	74.89854311943054	2.5082719326019287
6	17.412343978881836	fix_post	2		12.0	4.0	2.5	/experiments/knapen_aot/videos/R_S_yt-2dRSJcaJIXw_32.mp4	0.0	77.40681505203247	0.10002994537353516
7	17.51237392425537	fix_pre	0		35.0	5.0	2.5	/experiments/knapen_aot/videos/R_S_ILSVRC2015_test_00001002.mp4	0.0	77.506844997406	0.29230713844299316
7	17.79580593109131	response	0	2		5.0	2.5	/experiments/knapen_aot/videos/R_S_ILSVRC2015_test_00001002.mp4	0.0	77.79027700424194	
7	17.804681062698364	movie	1		301.0	5.0	2.5	/experiments/knapen_aot/videos/R_S_ILSVRC2015_test_00001002.mp4	0.0	77.799152135849	2.5075409412384033
7	20.312222003936768	fix_post	2		12.0	5.0	2.5	/experiments/knapen_aot/videos/R_S_ILSVRC2015_test_00001002.mp4	0.0	80.3066930770874	0.10005807876586914
8	20.412280082702637	fix_pre	0		62.0	6.0	2.5	blank	1.0	80.40675115585327	0.5174598693847656
8	20.920834064483643	response	0	2		6.0	2.5	blank	1.0	80.91530513763428	
8	20.929739952087402	movie	1		301.0	6.0	2.5	blank	1.0	80.92421102523804	2.5075910091400146
8	23.437330961227417	fix_post	2		12.0	6.0	2.5	blank	1.0	83.43180203437805	0.09993696212768555
9	23.537267923355103	fix_pre	0		90.0	7.0	2.5	/experiments/knapen_aot/videos/R_S_video_inspire_california_big-sur_2020_00001.1080-h264.mp4	0.0	83.53173899650574	0.7500121593475342
9	24.27912998199463	response	0	2		7.0	2.5	/experiments/knapen_aot/videos/R_S_video_inspire_california_big-sur_2020_00001.1080-h264.mp4	0.0	84.27360105514526	
9	24.287280082702637	movie	1		170.0	7.0	2.5	/experiments/knapen_aot/videos/R_S_video_inspire_california_big-sur_2020_00001.1080-h264.mp4	0.0	84.28175115585327	2.5083959102630615
9	26.7956759929657	fix_post	2		12.0	7.0	2.5	/experiments/knapen_aot/videos/R_S_video_inspire_california_big-sur_2020_00001.1080-h264.mp4	0.0	86.79014706611633	0.09998703002929688
10	26.895663022994995	fix_pre	0		48.0	8.0	2.5	/experiments/knapen_aot/videos/R_S_yt-GOgS--rzmKQ_51.mp4	0.0	86.89013409614563	0.3999359607696533
10	27.287431955337524	response	0	2		8.0	2.5	/experiments/knapen_aot/videos/R_S_yt-GOgS--rzmKQ_51.mp4	0.0	87.28190302848816	
10	27.29559898376465	movie	1		301.0	8.0	2.5	/experiments/knapen_aot/videos/R_S_yt-GOgS--rzmKQ_51.mp4	0.0	87.29007005691528	2.5083189010620117
10	29.80391788482666	fix_post	2		12.0	8.0	2.5	/experiments/knapen_aot/videos/R_S_yt-GOgS--rzmKQ_51.mp4	0.0	89.7983889579773	0.10006117820739746
11	29.903979063034058	fix_pre	0		38.0	9.0	2.5	/experiments/knapen_aot/videos/S_ILSVRC2015_train_00743005.mp4	0.0	89.89845013618469	0.31726694107055664
11	30.212476015090942	response	0	2		9.0	2.5	/experiments/knapen_aot/videos/S_ILSVRC2015_train_00743005.mp4	0.0	90.20694708824158	
11	30.221246004104614	movie	1		301.0	9.0	2.5	/experiments/knapen_aot/videos/S_ILSVRC2015_train_00743005.mp4	0.0	90.21571707725525	2.5077059268951416
11	32.728951930999756	fix_post	2		12.0	9.0	2.5	/experiments/knapen_aot/videos/S_ILSVRC2015_train_00743005.mp4	0.0	92.72342300415039	0.0999460220336914
12	32.82889795303345	fix_pre	0		146.0	10.0	2.5	/experiments/knapen_aot/videos/R_S_pexels-artem-podrez-5457692.mp4	0.0	92.82336902618408	1.2166659832000732
12	34.03728199005127	response	0	2		10.0	2.5	/experiments/knapen_aot/videos/R_S_pexels-artem-podrez-5457692.mp4	0.0	94.0317530632019	
12	34.04556393623352	movie	1		166.0	10.0	2.5	/experiments/knapen_aot/videos/R_S_pexels-artem-podrez-5457692.mp4	0.0	94.04003500938416	2.5083329677581787
12	36.5538969039917	fix_post	2		12.0	10.0	2.5	/experiments/knapen_aot/videos/R_S_pexels-artem-podrez-5457692.mp4	0.0	96.54836797714233	0.10007810592651367
13	36.65397500991821	fix_pre	0		354.0	11.0	2.5	/experiments/knapen_aot/videos/R_S_yt--v_iMUMMX6g_39.mp4	0.0	96.64844608306885	2.9499449729919434
13	39.59572696685791	response	0	2		11.0	2.5	/experiments/knapen_aot/videos/R_S_yt--v_iMUMMX6g_39.mp4	0.0	99.59019804000854	
13	39.603919982910156	movie	1		298.0	11.0	2.5	/experiments/knapen_aot/videos/R_S_yt--v_iMUMMX6g_39.mp4	0.0	99.59839105606079	2.508297920227051
13	42.11221790313721	fix_post	2		12.0	11.0	2.5	/experiments/knapen_aot/videos/R_S_yt--v_iMUMMX6g_39.mp4	0.0	102.10668897628784	0.09998011589050293
14	42.21219801902771	fix_pre	0		23.0	12.0	2.5	blank	1.0	102.20666909217834	0.1916649341583252
14	42.388209104537964	response	0	2		12.0	2.5	blank	1.0	102.3826801776886	
14	42.403862953186035	movie	1		301.0	12.0	2.5	blank	1.0	102.39833402633667	2.508362054824829
14	44.912225008010864	fix_post	2		12.0	12.0	2.5	blank	1.0	104.9066960811615	0.10064506530761719
15	45.01287007331848	fix_pre	0		38.0	13.0	2.5	/experiments/knapen_aot/videos/R_S_wc-sd8_iKx0t7s7_9.mp4	0.0	105.00734114646912	0.31597089767456055
15	45.320810079574585	response	0	2		13.0	2.5	/experiments/knapen_aot/videos/R_S_wc-sd8_iKx0t7s7_9.mp4	0.0	105.31528115272522	
15	45.32884097099304	movie	1		166.0	13.0	2.5	/experiments/knapen_aot/videos/R_S_wc-sd8_iKx0t7s7_9.mp4	0.0	105.32331204414368	2.5083069801330566
15	47.8371479511261	fix_post	2		12.0	13.0	2.5	/experiments/knapen_aot/videos/R_S_wc-sd8_iKx0t7s7_9.mp4	0.0	107.83161902427673	0.10008096694946289
16	47.93722891807556	fix_pre	0		43.0	14.0	2.5	/experiments/knapen_aot/videos/S_ILSVRC2015_train_00479001.mp4	0.0	107.9316999912262	0.3582181930541992
16	48.28731894493103	response	0	2		14.0	2.5	/experiments/knapen_aot/videos/S_ILSVRC2015_train_00479001.mp4	0.0	108.28179001808167	
16	48.29544711112976	movie	1		300.0	14.0	2.5	/experiments/knapen_aot/videos/S_ILSVRC2015_train_00479001.mp4	0.0	108.2899181842804	2.5084078311920166
16	50.80385494232178	fix_post	2		12.0	14.0	2.5	/experiments/knapen_aot/videos/S_ILSVRC2015_train_00479001.mp4	0.0	110.79832601547241	0.1000070571899414
17	50.90386199951172	fix_pre	0		47.0	15.0	2.5	/experiments/knapen_aot/videos/S_yt-O_4DgW-XKvA_35.mp4	0.0	110.89833307266235	0.39166808128356934
17	51.287331104278564	response	0	2		15.0	2.5	/experiments/knapen_aot/videos/S_yt-O_4DgW-XKvA_35.mp4	0.0	111.2818021774292	
17	51.29553008079529	movie	1		301.0	15.0	2.5	/experiments/knapen_aot/videos/S_yt-O_4DgW-XKvA_35.mp4	0.0	111.29000115394592	2.508330821990967
17	53.803860902786255	fix_post	2		12.0	15.0	2.5	/experiments/knapen_aot/videos/S_yt-O_4DgW-XKvA_35.mp4	0.0	113.79833197593689	0.09997010231018066
18	53.903831005096436	fix_pre	0		20.0	16.0	2.5	/experiments/knapen_aot/videos/R_S_yt-ujdFTAUE8rc_34.mp4	0.0	113.89830207824707	0.16666007041931152
18	54.06235194206238	response	0	2		16.0	2.5	/experiments/knapen_aot/videos/R_S_yt-ujdFTAUE8rc_34.mp4	0.0	114.05682301521301	
18	54.07049107551575	movie	1		301.0	16.0	2.5	/experiments/knapen_aot/videos/R_S_yt-ujdFTAUE8rc_34.mp4	0.0	114.06496214866638	2.5083608627319336
18	56.57885193824768	fix_post	2		11.0	16.0	2.5	/experiments/knapen_aot/videos/R_S_yt-ujdFTAUE8rc_34.mp4	0.0	116.57332301139832	0.10000300407409668
19	56.67885494232178	fix_pre	0		45.0	17.0	2.5	/experiments/knapen_aot/videos/R_S_yt-IC62JSYpq9w_71.mp4	0.0	116.67332601547241	0.37543702125549316
19	57.04563307762146	response	0	2		17.0	2.5	/experiments/knapen_aot/videos/R_S_yt-IC62JSYpq9w_71.mp4	0.0	117.0401041507721	
19	57.05429196357727	movie	1		301.0	17.0	2.5	/experiments/knapen_aot/videos/R_S_yt-IC62JSYpq9w_71.mp4	0.0	117.0487630367279	2.507841110229492
19	59.56213307380676	fix_post	2		12.0	17.0	2.5	/experiments/knapen_aot/videos/R_S_yt-IC62JSYpq9w_71.mp4	0.0	119.5566041469574	0.10004782676696777
20	59.66218090057373	fix_pre	0		28.0	18.0	2.5	/experiments/knapen_aot/videos/R_S_ILSVRC2015_train_00568000.mp4	0.0	119.65665197372437	0.2332611083984375
20	59.88730502128601	response	0	2		18.0	2.5	/experiments/knapen_aot/videos/R_S_ILSVRC2015_train_00568000.mp4	0.0	119.88177609443665	
20	59.89544200897217	movie	1		301.0	18.0	2.5	/experiments/knapen_aot/videos/R_S_ILSVRC2015_train_00568000.mp4	0.0	119.8899130821228	2.5083529949188232
20	62.40379500389099	fix_post	2		12.0	18.0	2.5	/experiments/knapen_aot/videos/R_S_ILSVRC2015_train_00568000.mp4	0.0	122.39826607704163	0.10007596015930176
21	62.50387096405029	fix_pre	0		47.0	19.0	2.5	/experiments/knapen_aot/videos/R_S_P006_C002_UHD_SDR_2K_AVC.mp4	0.0	122.49834203720093	0.391542911529541
21	62.879656076431274	response	0	2		19.0	2.5	/experiments/knapen_aot/videos/R_S_P006_C002_UHD_SDR_2K_AVC.mp4	0.0	122.87412714958191	
21	62.895413875579834	movie	1		165.0	19.0	2.5	/experiments/knapen_aot/videos/R_S_P006_C002_UHD_SDR_2K_AVC.mp4	0.0	122.88988494873047	2.5083940029144287
21	65.40380787849426	fix_post	2		12.0	19.0	2.5	/experiments/knapen_aot/videos/R_S_P006_C002_UHD_SDR_2K_AVC.mp4	0.0	125.3982789516449	0.09998703002929688
22	65.50379490852356	fix_pre	0		57.0	20.0	2.5	blank	1.0	125.4982659816742	0.4750041961669922
22	65.97057294845581	response	0	2		20.0	2.5	blank	1.0	125.96504402160645	
22	65.97879910469055	movie	1		301.0	20.0	2.5	blank	1.0	125.97327017784119	2.5083258152008057
22	68.48712491989136	fix_post	2		12.0	20.0	2.5	blank	1.0	128.481595993042	0.09998798370361328
23	68.58711290359497	fix_pre	0		34.0	21.0	2.5	/experiments/knapen_aot/videos/R_S_yt-sIXdPhfS67U_203.mp4	0.0	128.5815839767456	0.2832481861114502
23	68.86227989196777	response	0	2		21.0	2.5	/experiments/knapen_aot/videos/R_S_yt-sIXdPhfS67U_203.mp4	0.0	128.8567509651184	
23	68.87036108970642	movie	1		301.0	21.0	2.5	/experiments/knapen_aot/videos/R_S_yt-sIXdPhfS67U_203.mp4	0.0	128.86483216285706	2.508316993713379
23	71.3786780834198	fix_post	2		12.0	21.0	2.5	/experiments/knapen_aot/videos/R_S_yt-sIXdPhfS67U_203.mp4	0.0	131.37314915657043	0.10013389587402344
24	71.47881197929382	fix_pre	0		57.0	22.0	2.5	/experiments/knapen_aot/videos/R_S_yt-kP7VNn9QIo4_53.mp4	0.0	131.47328305244446	0.47501611709594727
24	71.94560694694519	response	0	2		22.0	2.5	/experiments/knapen_aot/videos/R_S_yt-kP7VNn9QIo4_53.mp4	0.0	131.94007802009583	
24	71.95382809638977	movie	1		301.0	22.0	2.5	/experiments/knapen_aot/videos/R_S_yt-kP7VNn9QIo4_53.mp4	0.0	131.9482991695404	2.5083107948303223
24	74.46213889122009	fix_post	2		12.0	22.0	2.5	/experiments/knapen_aot/videos/R_S_yt-kP7VNn9QIo4_53.mp4	0.0	134.45660996437073	0.10001516342163086
25	74.56215405464172	fix_pre	0		54.0	23.0	2.5	/experiments/knapen_aot/videos/S_yt-MSdNCUWOp4o_4.mp4	0.0	134.55662512779236	0.45036983489990234
25	75.00390911102295	response	0	2		23.0	2.5	/experiments/knapen_aot/videos/S_yt-MSdNCUWOp4o_4.mp4	0.0	134.99838018417358	
25	75.01252388954163	movie	1		301.0	23.0	2.5	/experiments/knapen_aot/videos/S_yt-MSdNCUWOp4o_4.mp4	0.0	135.00699496269226	2.5079212188720703
25	77.5204451084137	fix_post	2		12.0	23.0	2.5	/experiments/knapen_aot/videos/S_yt-MSdNCUWOp4o_4.mp4	0.0	137.51491618156433	0.10000395774841309
26	77.62044906616211	fix_pre	0		76.0	24.0	2.5	/experiments/knapen_aot/videos/S_ILSVRC2015_train_00568000.mp4	0.0	137.61492013931274	0.6333119869232178
26	78.24557089805603	response	0	2		24.0	2.5	/experiments/knapen_aot/videos/S_ILSVRC2015_train_00568000.mp4	0.0	138.24004197120667	
26	78.25376105308533	movie	1		301.0	24.0	2.5	/experiments/knapen_aot/videos/S_ILSVRC2015_train_00568000.mp4	0.0	138.24823212623596	2.5083298683166504
26	80.76209092140198	fix_post	2		12.0	24.0	2.5	/experiments/knapen_aot/videos/S_ILSVRC2015_train_00568000.mp4	0.0	140.7565619945526	0.0999760627746582
27	80.86206698417664	fix_pre	0		33.0	25.0	2.5	/experiments/knapen_aot/videos/S_ILSVRC2015_train_00572000.mp4	0.0	140.85653805732727	0.2753870487213135
27	81.12885403633118	response	0	2		25.0	2.5	/experiments/knapen_aot/videos/S_ILSVRC2015_train_00572000.mp4	0.0	141.1233251094818	
27	81.13745403289795	movie	1		301.0	25.0	2.5	/experiments/knapen_aot/videos/S_ILSVRC2015_train_00572000.mp4	0.0	141.13192510604858	2.507936954498291
27	83.64539098739624	fix_post	2		12.0	25.0	2.5	/experiments/knapen_aot/videos/S_ILSVRC2015_train_00572000.mp4	0.0	143.63986206054688	0.10004806518554688
28	83.74543905258179	fix_pre	0		33.0	26.0	2.5	blank	1.0	143.73991012573242	0.274899959564209
28	84.00461602210999	response	0	2		26.0	2.5	blank	1.0	143.99908709526062	
28	84.020339012146	movie	1		301.0	26.0	2.5	blank	1.0	144.01481008529663	2.5083179473876953
28	86.52865695953369	fix_post	2		12.0	26.0	2.5	blank	1.0	146.52312803268433	0.10017895698547363
29	86.62883591651917	fix_pre	0		55.0	27.0	2.5	/experiments/knapen_aot/videos/R_S_comp_CH_C007_C011_PSNK_v02_SDR_PS_FINAL_20180709_SDR_2K_AVC.mp4	0.0	146.6233069896698	0.4582200050354004
29	87.07887291908264	response	0	2		27.0	2.5	/experiments/knapen_aot/videos/R_S_comp_CH_C007_C011_PSNK_v02_SDR_PS_FINAL_20180709_SDR_2K_AVC.mp4	0.0	147.07334399223328	
29	87.08705592155457	movie	1		174.0	27.0	2.5	/experiments/knapen_aot/videos/R_S_comp_CH_C007_C011_PSNK_v02_SDR_PS_FINAL_20180709_SDR_2K_AVC.mp4	0.0	147.0815269947052	2.50832200050354
29	89.5953779220581	fix_post	2		12.0	27.0	2.5	/experiments/knapen_aot/videos/R_S_comp_CH_C007_C011_PSNK_v02_SDR_PS_FINAL_20180709_SDR_2K_AVC.mp4	0.0	149.58984899520874	0.09993410110473633
30	89.69531202316284	fix_pre	0		24.0	28.0	2.5	/experiments/knapen_aot/videos/R_S_production_ID_3923518.mp4	0.0	149.68978309631348	0.20003604888916016
30	89.8871419429779	response	0	2		28.0	2.5	/experiments/knapen_aot/videos/R_S_production_ID_3923518.mp4	0.0	149.88161301612854	
30	89.895348072052	movie	1		165.0	28.0	2.5	/experiments/knapen_aot/videos/R_S_production_ID_3923518.mp4	0.0	149.88981914520264	2.50836181640625
30	92.40370988845825	fix_post	2		12.0	28.0	2.5	/experiments/knapen_aot/videos/R_S_production_ID_3923518.mp4	0.0	152.3981809616089	0.09998011589050293
31	92.50369000434875	fix_pre	0		25.0	29.0	2.5	/experiments/knapen_aot/videos/S_yt-yPl8LcgSMjo_32.mp4	0.0	152.4981610774994	0.20833897590637207
31	92.70388698577881	response	0	2		29.0	2.5	/experiments/knapen_aot/videos/S_yt-yPl8LcgSMjo_32.mp4	0.0	152.69835805892944	
31	92.71202898025513	movie	1		301.0	29.0	2.5	/experiments/knapen_aot/videos/S_yt-yPl8LcgSMjo_32.mp4	0.0	152.70650005340576	2.508297920227051
31	95.22032690048218	fix_post	2		12.0	29.0	2.5	/experiments/knapen_aot/videos/S_yt-yPl8LcgSMjo_32.mp4	0.0	155.2147979736328	0.10002613067626953
32	95.32035303115845	fix_pre	0		25.0	30.0	2.5	/experiments/knapen_aot/videos/S_yt-JQOHHL30Y54_101.mp4	0.0	155.31482410430908	0.208298921585083
32	95.52043604850769	response	0	2		30.0	2.5	/experiments/knapen_aot/videos/S_yt-JQOHHL30Y54_101.mp4	0.0	155.51490712165833	
32	95.52865195274353	movie	1		301.0	30.0	2.5	/experiments/knapen_aot/videos/S_yt-JQOHHL30Y54_101.mp4	0.0	155.52312302589417	2.5082790851593018
32	98.03693103790283	fix_post	2		12.0	30.0	2.5	/experiments/knapen_aot/videos/S_yt-JQOHHL30Y54_101.mp4	0.0	158.03140211105347	0.10005903244018555
33	98.13699007034302	fix_pre	0		35.0	31.0	2.5	/experiments/knapen_aot/videos/R_S_PA_A010_C007_SDR_20190717_SDR_2K_AVC.mp4	0.0	158.13146114349365	0.2919588088989258
33	98.42036604881287	response	0	2		31.0	2.5	/experiments/knapen_aot/videos/R_S_PA_A010_C007_SDR_20190717_SDR_2K_AVC.mp4	0.0	158.4148371219635	
33	98.42894887924194	movie	1		168.0	31.0	2.5	/experiments/knapen_aot/videos/R_S_PA_A010_C007_SDR_20190717_SDR_2K_AVC.mp4	0.0	158.42341995239258	2.5080721378326416
33	100.93702101707458	fix_post	2		12.0	31.0	2.5	/experiments/knapen_aot/videos/R_S_PA_A010_C007_SDR_20190717_SDR_2K_AVC.mp4	0.0	160.93149209022522	0.10002303123474121
34	101.03704404830933	fix_pre	0		8.0	32.0	2.5	/experiments/knapen_aot/videos/S_ILSVRC2015_test_00001002.mp4	0.0	161.03151512145996	0.06663799285888672
34	101.09537506103516	response	0	2		32.0	2.5	/experiments/knapen_aot/videos/S_ILSVRC2015_test_00001002.mp4	0.0	161.0898461341858	
34	101.10368204116821	movie	1		301.0	32.0	2.5	/experiments/knapen_aot/videos/S_ILSVRC2015_test_00001002.mp4	0.0	161.09815311431885	2.5083119869232178
34	103.61199402809143	fix_post	2		12.0	32.0	2.5	/experiments/knapen_aot/videos/S_ILSVRC2015_test_00001002.mp4	0.0	163.60646510124207	0.09999394416809082
35	103.71198797225952	fix_pre	0		15.0	33.0	2.5	blank	1.0	163.70645904541016	0.12500596046447754
35	103.82872700691223	response	0	2		33.0	2.5	blank	1.0	163.82319808006287	
35	103.836993932724	movie	1		301.0	33.0	2.5	blank	1.0	163.83146500587463	2.508268117904663
35	106.34526205062866	fix_post	2		12.0	33.0	2.5	blank	1.0	166.3397331237793	0.1000819206237793
36	106.44534397125244	fix_pre	0		31.0	34.0	2.5	/experiments/knapen_aot/videos/R_S_G008_C015_UHD_SDR_2K_AVC.mp4	0.0	166.43981504440308	0.2581820487976074
36	106.69544100761414	response	0	2		34.0	2.5	/experiments/knapen_aot/videos/R_S_G008_C015_UHD_SDR_2K_AVC.mp4	0.0	166.68991208076477	
36	106.70352602005005	movie	1		178.0	34.0	2.5	/experiments/knapen_aot/videos/R_S_G008_C015_UHD_SDR_2K_AVC.mp4	0.0	166.69799709320068	2.508466958999634
36	109.21199297904968	fix_post	2		12.0	34.0	2.5	/experiments/knapen_aot/videos/R_S_G008_C015_UHD_SDR_2K_AVC.mp4	0.0	169.20646405220032	0.09997296333312988
37	109.31196594238281	fix_pre	0		41.0	35.0	2.5	/experiments/knapen_aot/videos/R_S_S003_C020_SDR_2K_AVC.mp4	0.0	169.30643701553345	0.34165000915527344
37	109.64541101455688	response	0	2		35.0	2.5	/experiments/knapen_aot/videos/R_S_S003_C020_SDR_2K_AVC.mp4	0.0	169.63988208770752	
37	109.65361595153809	movie	1		176.0	35.0	2.5	/experiments/knapen_aot/videos/R_S_S003_C020_SDR_2K_AVC.mp4	0.0	169.64808702468872	2.508315086364746
37	112.16193103790283	fix_post	2		12.0	35.0	2.5	/experiments/knapen_aot/videos/R_S_S003_C020_SDR_2K_AVC.mp4	0.0	172.15640211105347	0.10024690628051758
38	112.26217794418335	fix_pre	0		27.0	36.0	2.5	/experiments/knapen_aot/videos/R_S_yt-gC3my54_ChQ_58.mp4	0.0	172.25664901733398	0.22475099563598633
38	112.47866296768188	response	0	2		36.0	2.5	/experiments/knapen_aot/videos/R_S_yt-gC3my54_ChQ_58.mp4	0.0	172.47313404083252	
38	112.48692893981934	movie	1		301.0	36.0	2.5	/experiments/knapen_aot/videos/R_S_yt-gC3my54_ChQ_58.mp4	0.0	172.48140001296997	2.5082740783691406
38	114.99520301818848	fix_post	2		12.0	36.0	2.5	/experiments/knapen_aot/videos/R_S_yt-gC3my54_ChQ_58.mp4	0.0	174.9896740913391	0.1002950668334961
39	115.09549808502197	fix_pre	0		41.0	37.0	2.5	/experiments/knapen_aot/videos/R_S_yt-s2tZ2NIQrxg_175.mp4	0.0	175.0899691581726	0.3414328098297119
39	115.42879009246826	response	0	2		37.0	2.5	/experiments/knapen_aot/videos/R_S_yt-s2tZ2NIQrxg_175.mp4	0.0	175.4232611656189	
39	115.43693089485168	movie	1		301.0	37.0	2.5	/experiments/knapen_aot/videos/R_S_yt-s2tZ2NIQrxg_175.mp4	0.0	175.43140196800232	2.5082991123199463
39	117.94523000717163	fix_post	2		12.0	37.0	2.5	/experiments/knapen_aot/videos/R_S_yt-s2tZ2NIQrxg_175.mp4	0.0	177.93970108032227	0.10001993179321289
40	118.04524993896484	fix_pre	0		55.0	38.0	2.5	/experiments/knapen_aot/videos/S_zAKvYNtmhuc_772.mp4	0.0	178.03972101211548	0.4583401679992676
40	118.49535298347473	response	0	2		38.0	2.5	/experiments/knapen_aot/videos/S_zAKvYNtmhuc_772.mp4	0.0	178.48982405662537	
40	118.50359010696411	movie	1		301.0	38.0	2.5	/experiments/knapen_aot/videos/S_zAKvYNtmhuc_772.mp4	0.0	178.49806118011475	2.5085339546203613
40	121.01212406158447	fix_post	2		12.0	38.0	2.5	/experiments/knapen_aot/videos/S_zAKvYNtmhuc_772.mp4	0.0	181.0065951347351	0.09979104995727539
41	121.11191511154175	fix_pre	0		99.0	39.0	2.5	/experiments/knapen_aot/videos/S_yt-EKPrSw5xF7k_112.mp4	0.0	181.10638618469238	0.824955940246582
41	121.9287600517273	response	0	2		39.0	2.5	/experiments/knapen_aot/videos/S_yt-EKPrSw5xF7k_112.mp4	0.0	181.92323112487793	
41	121.93687105178833	movie	1		301.0	39.0	2.5	/experiments/knapen_aot/videos/S_yt-EKPrSw5xF7k_112.mp4	0.0	181.93134212493896	2.50838303565979
41	124.44525408744812	fix_post	2		12.0	39.0	2.5	/experiments/knapen_aot/videos/S_yt-EKPrSw5xF7k_112.mp4	0.0	184.43972516059875	0.10003399848937988
42	124.5452880859375	fix_pre	0		68.0	40.0	2.5	/experiments/knapen_aot/videos/R_S_yt-eLQydFSMGCU_75.mp4	0.0	184.53975915908813	0.566605806350708
42	125.10373306274414	response	0	2		40.0	2.5	/experiments/knapen_aot/videos/R_S_yt-eLQydFSMGCU_75.mp4	0.0	185.09820413589478	
42	125.11189389228821	movie	1		301.0	40.0	2.5	/experiments/knapen_aot/videos/R_S_yt-eLQydFSMGCU_75.mp4	0.0	185.10636496543884	2.5082530975341797
42	127.62014698982239	fix_post	2		12.0	40.0	2.5	/experiments/knapen_aot/videos/R_S_yt-eLQydFSMGCU_75.mp4	0.0	187.61461806297302	0.10016298294067383
43	127.72030997276306	fix_pre	0		45.0	41.0	2.5	blank	1.0	187.7147810459137	0.37505102157592773
43	128.08696508407593	response	0	2		41.0	2.5	blank	1.0	188.08143615722656	
43	128.095360994339	movie	1		301.0	41.0	2.5	blank	1.0	188.08983206748962	2.508167028427124
43	130.6035280227661	fix_post	2		12.0	41.0	2.5	blank	1.0	190.59799909591675	0.0999000072479248
44	130.70342803001404	fix_pre	0		90.0	42.0	2.5	/experiments/knapen_aot/videos/R_S_yt-XRQ_LSGGr3Y_712.mp4	0.0	190.69789910316467	0.7500560283660889
44	131.44532895088196	response	0	2		42.0	2.5	/experiments/knapen_aot/videos/R_S_yt-XRQ_LSGGr3Y_712.mp4	0.0	191.4398000240326	
44	131.45348405838013	movie	1		301.0	42.0	2.5	/experiments/knapen_aot/videos/R_S_yt-XRQ_LSGGr3Y_712.mp4	0.0	191.44795513153076	2.50838303565979
44	133.96186709403992	fix_post	2		12.0	42.0	2.5	/experiments/knapen_aot/videos/R_S_yt-XRQ_LSGGr3Y_712.mp4	0.0	193.95633816719055	0.09998679161071777
45	134.06185388565063	fix_pre	0		42.0	43.0	2.5	/experiments/knapen_aot/videos/S_yt-7VVzNnp36DM_62.mp4	0.0	194.05632495880127	0.3499410152435303
45	134.39614605903625	response	0	2		43.0	2.5	/experiments/knapen_aot/videos/S_yt-7VVzNnp36DM_62.mp4	0.0	194.3906171321869	
45	134.41179490089417	movie	1		298.0	43.0	2.5	/experiments/knapen_aot/videos/S_yt-7VVzNnp36DM_62.mp4	0.0	194.4062659740448	2.508310079574585
45	136.92010498046875	fix_post	2		12.0	43.0	2.5	/experiments/knapen_aot/videos/S_yt-7VVzNnp36DM_62.mp4	0.0	196.91457605361938	0.10000300407409668
46	137.02010798454285	fix_pre	0		31.0	44.0	2.5	/experiments/knapen_aot/videos/S_pexels-anastasia-shuraeva-601407_2.mp4	0.0	197.01457905769348	0.25836610794067383
46	137.27024507522583	response	0	2		44.0	2.5	/experiments/knapen_aot/videos/S_pexels-anastasia-shuraeva-601407_2.mp4	0.0	197.26471614837646	
46	137.27847409248352	movie	1		212.0	44.0	2.5	/experiments/knapen_aot/videos/S_pexels-anastasia-shuraeva-601407_2.mp4	0.0	197.27294516563416	2.5083649158477783
46	139.7868390083313	fix_post	2		12.0	44.0	2.5	/experiments/knapen_aot/videos/S_pexels-anastasia-shuraeva-601407_2.mp4	0.0	199.78131008148193	0.10010504722595215
47	139.88694405555725	fix_pre	0		28.0	45.0	2.5	/experiments/knapen_aot/videos/R_S_yt-_BvMLZo0MG0_1226.mp4	0.0	199.88141512870789	0.2331829071044922
47	140.11187410354614	response	0	2		45.0	2.5	/experiments/knapen_aot/videos/R_S_yt-_BvMLZo0MG0_1226.mp4	0.0	200.10634517669678	
47	140.12012696266174	movie	1		301.0	45.0	2.5	/experiments/knapen_aot/videos/R_S_yt-_BvMLZo0MG0_1226.mp4	0.0	200.11459803581238	2.5083229541778564
47	142.6284499168396	fix_post	2		12.0	45.0	2.5	/experiments/knapen_aot/videos/R_S_yt-_BvMLZo0MG0_1226.mp4	0.0	202.62292098999023	0.1000361442565918
48	142.7284860610962	fix_pre	0		35.0	46.0	2.5	/experiments/knapen_aot/videos/R_S_yt-mdLT282PVbE_6.mp4	0.0	202.72295713424683	0.2916388511657715
48	143.0119309425354	response	0	2		46.0	2.5	/experiments/knapen_aot/videos/R_S_yt-mdLT282PVbE_6.mp4	0.0	203.00640201568604	
48	143.02012491226196	movie	1		301.0	46.0	2.5	/experiments/knapen_aot/videos/R_S_yt-mdLT282PVbE_6.mp4	0.0	203.0145959854126	2.508392095565796
48	145.52851700782776	fix_post	2		12.0	46.0	2.5	/experiments/knapen_aot/videos/R_S_yt-mdLT282PVbE_6.mp4	0.0	205.5229880809784	0.09989809989929199
49	145.62841510772705	fix_pre	0		72.0	47.0	2.5	/experiments/knapen_aot/videos/R_S_yt-1iB2ofPY1U8_16.mp4	0.0	205.62288618087769	0.6000227928161621
49	146.2202548980713	response	0	2		47.0	2.5	/experiments/knapen_aot/videos/R_S_yt-1iB2ofPY1U8_16.mp4	0.0	206.21472597122192	
49	146.2284379005432	movie	1		300.0	47.0	2.5	/experiments/knapen_aot/videos/R_S_yt-1iB2ofPY1U8_16.mp4	0.0	206.22290897369385	2.5083560943603516
49	148.73679399490356	fix_post	2		12.0	47.0	2.5	/experiments/knapen_aot/videos/R_S_yt-1iB2ofPY1U8_16.mp4	0.0	208.7312650680542	0.09996294975280762
50	148.83675694465637	fix_pre	0		37.0	48.0	2.5	blank	1.0	208.831228017807	0.30830812454223633
50	149.13698506355286	response	0	2		48.0	2.5	blank	1.0	209.1314561367035	
50	149.1450650691986	movie	1		301.0	48.0	2.5	blank	1.0	209.13953614234924	2.5082600116729736
50	151.65332508087158	fix_post	2		12.0	48.0	2.5	blank	1.0	211.64779615402222	0.10012984275817871
51	151.75345492362976	fix_pre	0		42.0	49.0	2.5	/experiments/knapen_aot/videos/R_S_yt-4W224-RSCnM_15.mp4	0.0	211.7479259967804	0.3500051498413086
51	152.0952479839325	response	0	2		49.0	2.5	/experiments/knapen_aot/videos/R_S_yt-4W224-RSCnM_15.mp4	0.0	212.08971905708313	
51	152.10346007347107	movie	1		300.0	49.0	2.5	/experiments/knapen_aot/videos/R_S_yt-4W224-RSCnM_15.mp4	0.0	212.0979311466217	2.508297920227051
51	154.61175799369812	fix_post	2		12.0	49.0	2.5	/experiments/knapen_aot/videos/R_S_yt-4W224-RSCnM_15.mp4	0.0	214.60622906684875	0.10002803802490234
52	154.71178603172302	fix_pre	0		59.0	50.0	2.5	/experiments/knapen_aot/videos/S_yt-2ftSsLqRQnA_84.mp4	0.0	214.70625710487366	0.49167585372924805
52	155.1952359676361	response	0	2		50.0	2.5	/experiments/knapen_aot/videos/S_yt-2ftSsLqRQnA_84.mp4	0.0	215.18970704078674	
52	155.20346188545227	movie	1		301.0	50.0	2.5	/experiments/knapen_aot/videos/S_yt-2ftSsLqRQnA_84.mp4	0.0	215.1979329586029	2.508277177810669
52	157.71173906326294	fix_post	2		12.0	50.0	2.5	/experiments/knapen_aot/videos/S_yt-2ftSsLqRQnA_84.mp4	0.0	217.70621013641357	0.10002589225769043
53	157.81176495552063	fix_pre	0		58.0	51.0	2.5	/experiments/knapen_aot/videos/R_S_pexels-anastasia-shuraeva-601407_2.mp4	0.0	217.80623602867126	0.48328709602355957
53	158.28682398796082	response	0	2		51.0	2.5	/experiments/knapen_aot/videos/R_S_pexels-anastasia-shuraeva-601407_2.mp4	0.0	218.28129506111145	
53	158.2950520515442	movie	1		189.0	51.0	2.5	/experiments/knapen_aot/videos/R_S_pexels-anastasia-shuraeva-601407_2.mp4	0.0	218.28952312469482	2.5084149837493896
53	160.80346703529358	fix_post	2		12.0	51.0	2.5	/experiments/knapen_aot/videos/R_S_pexels-anastasia-shuraeva-601407_2.mp4	0.0	220.7979381084442	0.09992790222167969
54	160.90339493751526	fix_pre	0		50.0	52.0	2.5	/experiments/knapen_aot/videos/S_yt-FMIevUic_XY_50.mp4	0.0	220.8978660106659	0.41666603088378906
54	161.31182503700256	response	0	2		52.0	2.5	/experiments/knapen_aot/videos/S_yt-FMIevUic_XY_50.mp4	0.0	221.3062961101532	
54	161.32006096839905	movie	1		301.0	52.0	2.5	/experiments/knapen_aot/videos/S_yt-FMIevUic_XY_50.mp4	0.0	221.31453204154968	2.5083370208740234
54	163.82839798927307	fix_post	2		12.0	52.0	2.5	/experiments/knapen_aot/videos/S_yt-FMIevUic_XY_50.mp4	0.0	223.8228690624237	0.10002994537353516
55	163.9284279346466	fix_pre	0		45.0	53.0	2.5	/experiments/knapen_aot/videos/R_S_yt-FMIevUic_XY_50.mp4	0.0	223.92289900779724	0.3749411106109619
55	164.29515409469604	response	0	2		53.0	2.5	/experiments/knapen_aot/videos/R_S_yt-FMIevUic_XY_50.mp4	0.0	224.28962516784668	
55	164.30336904525757	movie	1		301.0	53.0	2.5	/experiments/knapen_aot/videos/R_S_yt-FMIevUic_XY_50.mp4	0.0	224.2978401184082	2.508362054824829
55	166.8117311000824	fix_post	2		12.0	53.0	2.5	/experiments/knapen_aot/videos/R_S_yt-FMIevUic_XY_50.mp4	0.0	226.80620217323303	0.09995293617248535
56	166.91168403625488	fix_pre	0		59.0	54.0	2.5	/experiments/knapen_aot/videos/S_yt-Ryb0K9lGPrg_5.mp4	0.0	226.90615510940552	0.49172496795654297
56	167.39522290229797	response	0	2		54.0	2.5	/experiments/knapen_aot/videos/S_yt-Ryb0K9lGPrg_5.mp4	0.0	227.3896939754486	
56	167.40340900421143	movie	1		300.0	54.0	2.5	/experiments/knapen_aot/videos/S_yt-Ryb0K9lGPrg_5.mp4	0.0	227.39788007736206	2.508307933807373
56	169.9117169380188	fix_post	2		12.0	54.0	2.5	/experiments/knapen_aot/videos/S_yt-Ryb0K9lGPrg_5.mp4	0.0	229.90618801116943	0.10002994537353516
57	170.01174688339233	fix_pre	0		36.0	55.0	2.5	/experiments/knapen_aot/videos/R_S_pexels-rodnae-productions-5617905.mp4	0.0	230.00621795654297	0.29998016357421875
57	170.30354499816895	response	0	2		55.0	2.5	/experiments/knapen_aot/videos/R_S_pexels-rodnae-productions-5617905.mp4	0.0	230.29801607131958	
57	170.31172704696655	movie	1		168.0	55.0	2.5	/experiments/knapen_aot/videos/R_S_pexels-rodnae-productions-5617905.mp4	0.0	230.3061981201172	2.5083229541778564
57	172.8200500011444	fix_post	2		12.0	55.0	2.5	/experiments/knapen_aot/videos/R_S_pexels-rodnae-productions-5617905.mp4	0.0	232.81452107429504	0.09999299049377441
58	172.92004299163818	fix_pre	0		46.0	56.0	2.5	blank	1.0	232.91451406478882	0.3833620548248291
58	173.29519391059875	response	0	2		56.0	2.5	blank	1.0	233.2896649837494	
58	173.303405046463	movie	1		301.0	56.0	2.5	blank	1.0	233.29787611961365	2.5083069801330566
58	175.81171202659607	fix_post	2		12.0	56.0	2.5	blank	1.0	235.8061830997467	0.09996485710144043
59	175.9116768836975	fix_pre	0		92.0	57.0	2.5	/experiments/knapen_aot/videos/R_S_yt-Ub5Xx5BqIOk_74.mp4	0.0	235.90614795684814	0.7666630744934082
59	176.67021107673645	response	0	2		57.0	2.5	/experiments/knapen_aot/videos/R_S_yt-Ub5Xx5BqIOk_74.mp4	0.0	236.66468214988708	
59	176.67833995819092	movie	1		301.0	57.0	2.5	/experiments/knapen_aot/videos/R_S_yt-Ub5Xx5BqIOk_74.mp4	0.0	236.67281103134155	2.508347988128662
59	179.18668794631958	fix_post	2		12.0	57.0	2.5	/experiments/knapen_aot/videos/R_S_yt-Ub5Xx5BqIOk_74.mp4	0.0	239.18115901947021	0.09999608993530273
60	179.28668403625488	fix_pre	0		54.0	58.0	2.5	/experiments/knapen_aot/videos/S_ioSkDvwpEaU_35.mp4	0.0	239.28115510940552	0.44998788833618164
60	179.72849988937378	response	0	2		58.0	2.5	/experiments/knapen_aot/videos/S_ioSkDvwpEaU_35.mp4	0.0	239.7229709625244	
60	179.73667192459106	movie	1		301.0	58.0	2.5	/experiments/knapen_aot/videos/S_ioSkDvwpEaU_35.mp4	0.0	239.7311429977417	2.508324146270752
60	182.24499607086182	fix_post	2		12.0	58.0	2.5	/experiments/knapen_aot/videos/S_ioSkDvwpEaU_35.mp4	0.0	242.23946714401245	0.10001802444458008
61	182.3450140953064	fix_pre	0		33.0	59.0	2.5	/experiments/knapen_aot/videos/R_S_yt-ZtS7ZrJ_rtk_525.mp4	0.0	242.33948516845703	0.2749969959259033
61	182.61178708076477	response	0	2		59.0	2.5	/experiments/knapen_aot/videos/R_S_yt-ZtS7ZrJ_rtk_525.mp4	0.0	242.6062581539154	
61	182.6200110912323	movie	1		301.0	59.0	2.5	/experiments/knapen_aot/videos/R_S_yt-ZtS7ZrJ_rtk_525.mp4	0.0	242.61448216438293	2.5083189010620117
61	185.1283299922943	fix_post	2		12.0	59.0	2.5	/experiments/knapen_aot/videos/R_S_yt-ZtS7ZrJ_rtk_525.mp4	0.0	245.12280106544495	0.09998703002929688
62	185.2283170223236	fix_pre	0		35.0	60.0	2.5	/experiments/knapen_aot/videos/S_ILSVRC2015_train_00485001.mp4	0.0	245.22278809547424	0.29165005683898926
62	185.51175594329834	response	0	2		60.0	2.5	/experiments/knapen_aot/videos/S_ILSVRC2015_train_00485001.mp4	0.0	245.50622701644897	
62	185.5199670791626	movie	1		301.0	60.0	2.5	/experiments/knapen_aot/videos/S_ILSVRC2015_train_00485001.mp4	0.0	245.51443815231323	2.508340835571289
62	188.0283079147339	fix_post	2		12.0	60.0	2.5	/experiments/knapen_aot/videos/S_ILSVRC2015_train_00485001.mp4	0.0	248.02277898788452	0.10001707077026367
63	188.12832498550415	fix_pre	0		34.0	61.0	2.5	/experiments/knapen_aot/videos/S_b8-3.mp4	0.0	248.12279605865479	0.28330206871032715
63	188.4034640789032	response	0	2		61.0	2.5	/experiments/knapen_aot/videos/S_b8-3.mp4	0.0	248.39793515205383	
63	188.41162705421448	movie	1		168.0	61.0	2.5	/experiments/knapen_aot/videos/S_b8-3.mp4	0.0	248.4060981273651	2.5082859992980957
63	190.91991305351257	fix_post	2		12.0	61.0	2.5	/experiments/knapen_aot/videos/S_b8-3.mp4	0.0	250.9143841266632	0.1000528335571289
64	191.0199658870697	fix_pre	0		35.0	62.0	2.5	blank	1.0	251.01443696022034	0.29168009757995605
64	191.30343890190125	response	0	2		62.0	2.5	blank	1.0	251.29790997505188	
64	191.31164598464966	movie	1		301.0	62.0	2.5	blank	1.0	251.3061170578003	2.5083351135253906
64	193.81998109817505	fix_post	2		12.0	62.0	2.5	blank	1.0	253.81445217132568	0.10007786750793457
65	193.92005896568298	fix_pre	0		78.0	63.0	2.5	/experiments/knapen_aot/videos/R_S_FZ0hLmjCR0s_26.mp4	0.0	253.91453003883362	0.6498889923095703
65	194.56171894073486	response	0	2		63.0	2.5	/experiments/knapen_aot/videos/R_S_FZ0hLmjCR0s_26.mp4	0.0	254.5561900138855	
65	194.56994795799255	movie	1		301.0	63.0	2.5	/experiments/knapen_aot/videos/R_S_FZ0hLmjCR0s_26.mp4	0.0	254.5644190311432	2.5082809925079346
65	197.0782289505005	fix_post	2		12.0	63.0	2.5	/experiments/knapen_aot/videos/R_S_FZ0hLmjCR0s_26.mp4	0.0	257.0727000236511	0.10001492500305176
66	197.17824387550354	fix_pre	0		59.0	64.0	2.5	/experiments/knapen_aot/videos/S_video-5.mp4	0.0	257.1727149486542	0.4928431510925293
66	197.66175889968872	response	0	2		64.0	2.5	/experiments/knapen_aot/videos/S_video-5.mp4	0.0	257.65622997283936	
66	197.67108702659607	movie	1		172.0	64.0	2.5	/experiments/knapen_aot/videos/S_video-5.mp4	0.0	257.6655580997467	2.5071358680725098
66	200.17822289466858	fix_post	2		12.0	64.0	2.5	/experiments/knapen_aot/videos/S_video-5.mp4	0.0	260.1726939678192	0.10005497932434082
67	200.27827787399292	fix_pre	0		71.0	65.0	2.5	/experiments/knapen_aot/videos/R_S_comp_DB_D011_D009_SIGNCMP_v15_6Mbps.mp4	0.0	260.27274894714355	0.5916121006011963
67	200.8616759777069	response	0	2		65.0	2.5	/experiments/knapen_aot/videos/R_S_comp_DB_D011_D009_SIGNCMP_v15_6Mbps.mp4	0.0	260.85614705085754	
67	200.86988997459412	movie	1		170.0	65.0	2.5	/experiments/knapen_aot/videos/R_S_comp_DB_D011_D009_SIGNCMP_v15_6Mbps.mp4	0.0	260.86436104774475	2.508392095565796
67	203.3782820701599	fix_post	2		12.0	65.0	2.5	/experiments/knapen_aot/videos/R_S_comp_DB_D011_D009_SIGNCMP_v15_6Mbps.mp4	0.0	263.37275314331055	0.09997701644897461
68	203.4782590866089	fix_pre	0		45.0	66.0	2.5	/experiments/knapen_aot/videos/R_S_yt-MsSEF0krKE4_149.mp4	0.0	263.4727301597595	0.3750119209289551
68	203.8450300693512	response	0	2		66.0	2.5	/experiments/knapen_aot/videos/R_S_yt-MsSEF0krKE4_149.mp4	0.0	263.83950114250183	
68	203.85327100753784	movie	1		301.0	66.0	2.5	/experiments/knapen_aot/videos/R_S_yt-MsSEF0krKE4_149.mp4	0.0	263.8477420806885	2.5083110332489014
68	206.36158204078674	fix_post	2		12.0	66.0	2.5	/experiments/knapen_aot/videos/R_S_yt-MsSEF0krKE4_149.mp4	0.0	266.3560531139374	0.09993600845336914
69	206.4615180492401	fix_pre	0		56.0	67.0	2.5	/experiments/knapen_aot/videos/S_production_ID_3923518.mp4	0.0	266.45598912239075	0.4667069911956787
69	206.92000699043274	response	0	2		67.0	2.5	/experiments/knapen_aot/videos/S_production_ID_3923518.mp4	0.0	266.9144780635834	
69	206.9282250404358	movie	1		166.0	67.0	2.5	/experiments/knapen_aot/videos/S_production_ID_3923518.mp4	0.0	266.9226961135864	2.508293867111206
69	209.436518907547	fix_post	2		12.0	67.0	2.5	/experiments/knapen_aot/videos/S_production_ID_3923518.mp4	0.0	269.43098998069763	0.10002303123474121
70	209.53654193878174	fix_pre	0		71.0	68.0	2.5	/experiments/knapen_aot/videos/S_yt-1iB2ofPY1U8_16.mp4	0.0	269.5310130119324	0.592811107635498
70	210.11994290351868	response	0	2		68.0	2.5	/experiments/knapen_aot/videos/S_yt-1iB2ofPY1U8_16.mp4	0.0	270.1144139766693	
70	210.12935304641724	movie	1		301.0	68.0	2.5	/experiments/knapen_aot/videos/S_yt-1iB2ofPY1U8_16.mp4	0.0	270.12382411956787	2.5071418285369873
70	212.63649487495422	fix_post	2		12.0	68.0	2.5	/experiments/knapen_aot/videos/S_yt-1iB2ofPY1U8_16.mp4	0.0	272.63096594810486	0.0999910831451416
71	212.73648595809937	fix_pre	0		56.0	69.0	2.5	blank	1.0	272.73095703125	0.46660614013671875
71	213.19497799873352	response	0	2		69.0	2.5	blank	1.0	273.18944907188416	
71	213.20309209823608	movie	1		301.0	69.0	2.5	blank	1.0	273.1975631713867	2.508389949798584
71	215.71148204803467	fix_post	2		12.0	69.0	2.5	blank	1.0	275.7059531211853	0.09998798370361328
72	215.81147003173828	fix_pre	0		47.0	70.0	2.5	/experiments/knapen_aot/videos/R_S_yt-I9uf7kAccFA_229.mp4	0.0	275.8059411048889	0.3916459083557129
72	216.19494605064392	response	0	2		70.0	2.5	/experiments/knapen_aot/videos/R_S_yt-I9uf7kAccFA_229.mp4	0.0	276.18941712379456	
72	216.203115940094	movie	1		301.0	70.0	2.5	/experiments/knapen_aot/videos/R_S_yt-I9uf7kAccFA_229.mp4	0.0	276.19758701324463	2.5083420276641846
72	218.71145796775818	fix_post	2		12.0	70.0	2.5	/experiments/knapen_aot/videos/R_S_yt-I9uf7kAccFA_229.mp4	0.0	278.7059290409088	0.09997892379760742
73	218.8114368915558	fix_pre	0		43.0	71.0	2.5	/experiments/knapen_aot/videos/S_P006_C002_UHD_SDR_2K_AVC.mp4	0.0	278.8059079647064	0.3594341278076172
73	219.16156888008118	response	0	2		71.0	2.5	/experiments/knapen_aot/videos/S_P006_C002_UHD_SDR_2K_AVC.mp4	0.0	279.1560399532318	
73	219.1708710193634	movie	1		165.0	71.0	2.5	/experiments/knapen_aot/videos/S_P006_C002_UHD_SDR_2K_AVC.mp4	0.0	279.16534209251404	2.507219076156616
73	221.67809009552002	fix_post	2		12.0	71.0	2.5	/experiments/knapen_aot/videos/S_P006_C002_UHD_SDR_2K_AVC.mp4	0.0	281.67256116867065	0.10000181198120117
74	221.77809190750122	fix_pre	0		29.0	72.0	2.5	/experiments/knapen_aot/videos/S_ILSVRC2015_train_00485001.mp4	0.0	281.77256298065186	0.24162912368774414
74	222.01163506507874	response	0	2		72.0	2.5	/experiments/knapen_aot/videos/S_ILSVRC2015_train_00485001.mp4	0.0	282.00610613822937	
74	222.01972103118896	movie	1		301.0	72.0	2.5	/experiments/knapen_aot/videos/S_ILSVRC2015_train_00485001.mp4	0.0	282.0141921043396	2.50839900970459
74	224.52812004089355	fix_post	2		12.0	72.0	2.5	/experiments/knapen_aot/videos/S_ILSVRC2015_train_00485001.mp4	0.0	284.5225911140442	0.10002493858337402
75	224.62814497947693	fix_pre	0		33.0	73.0	2.5	/experiments/knapen_aot/videos/S_ILSVRC2015_train_00415003.mp4	0.0	284.62261605262756	0.27494311332702637
75	224.89487195014954	response	0	2		73.0	2.5	/experiments/knapen_aot/videos/S_ILSVRC2015_train_00415003.mp4	0.0	284.88934302330017	
75	224.90308809280396	movie	1		301.0	73.0	2.5	/experiments/knapen_aot/videos/S_ILSVRC2015_train_00415003.mp4	0.0	284.8975591659546	2.5083529949188232
75	227.41144108772278	fix_post	2		12.0	73.0	2.5	/experiments/knapen_aot/videos/S_ILSVRC2015_train_00415003.mp4	0.0	287.4059121608734	0.09993386268615723
76	227.51137495040894	fix_pre	0		42.0	74.0	2.5	/experiments/knapen_aot/videos/R_S_yt-b7bIulV49DQ_81.mp4	0.0	287.50584602355957	0.350039005279541
76	227.85326099395752	response	0	2		74.0	2.5	/experiments/knapen_aot/videos/R_S_yt-b7bIulV49DQ_81.mp4	0.0	287.84773206710815	
76	227.86141395568848	movie	1		300.0	74.0	2.5	/experiments/knapen_aot/videos/R_S_yt-b7bIulV49DQ_81.mp4	0.0	287.8558850288391	2.5083060264587402
76	230.36971998214722	fix_post	2		12.0	74.0	2.5	/experiments/knapen_aot/videos/R_S_yt-b7bIulV49DQ_81.mp4	0.0	290.36419105529785	0.10005402565002441
77	230.46977400779724	fix_pre	0		19.0	75.0	2.5	blank	1.0	290.4642450809479	0.15828490257263184
77	230.61987900733948	response	0	2		75.0	2.5	blank	1.0	290.6143500804901	
77	230.62805891036987	movie	1		301.0	75.0	2.5	blank	1.0	290.6225299835205	2.5083210468292236
77	233.1363799571991	fix_post	2		12.0	75.0	2.5	blank	1.0	293.13085103034973	0.100006103515625
78	233.23638606071472	fix_pre	0		61.0	76.0	2.5	/experiments/knapen_aot/videos/R_S_yt-mWlx1SIXl5M_850.mp4	0.0	293.23085713386536	0.5083990097045898
78	233.7365689277649	response	0	2		76.0	2.5	/experiments/knapen_aot/videos/R_S_yt-mWlx1SIXl5M_850.mp4	0.0	293.7310400009155	
78	233.7447850704193	movie	1		301.0	76.0	2.5	/experiments/knapen_aot/videos/R_S_yt-mWlx1SIXl5M_850.mp4	0.0	293.73925614356995	2.5083069801330566
78	236.25309205055237	fix_post	2		12.0	76.0	2.5	/experiments/knapen_aot/videos/R_S_yt-mWlx1SIXl5M_850.mp4	0.0	296.247563123703	0.10000085830688477
79	236.35309290885925	fix_pre	0		38.0	77.0	2.5	/experiments/knapen_aot/videos/R_S_yt-w5lh_rKyKtE_21.mp4	0.0	296.3475639820099	0.31758618354797363
79	236.6615390777588	response	0	2		77.0	2.5	/experiments/knapen_aot/videos/R_S_yt-w5lh_rKyKtE_21.mp4	0.0	296.6560101509094	
79	236.67067909240723	movie	1		301.0	77.0	2.5	/experiments/knapen_aot/videos/R_S_yt-w5lh_rKyKtE_21.mp4	0.0	296.66515016555786	2.507349967956543
79	239.17802906036377	fix_post	2		12.0	77.0	2.5	/experiments/knapen_aot/videos/R_S_yt-w5lh_rKyKtE_21.mp4	0.0	299.1725001335144	0.10005402565002441
80	239.2780830860138	fix_pre	0		45.0	78.0	2.5	/experiments/knapen_aot/videos/R_S_yt-kxWtOXNIsRA_329.mp4	0.0	299.27255415916443	0.374957799911499
80	239.64482998847961	response	0	2		78.0	2.5	/experiments/knapen_aot/videos/R_S_yt-kxWtOXNIsRA_329.mp4	0.0	299.63930106163025	
80	239.6530408859253	movie	1		301.0	78.0	2.5	/experiments/knapen_aot/videos/R_S_yt-kxWtOXNIsRA_329.mp4	0.0	299.6475119590759	2.508413076400757
80	242.16145396232605	fix_post	2		12.0	78.0	2.5	/experiments/knapen_aot/videos/R_S_yt-kxWtOXNIsRA_329.mp4	0.0	302.1559250354767	0.09993410110473633
81	242.2613880634308	fix_pre	0		18.0	79.0	2.5	/experiments/knapen_aot/videos/S_yt-5fZZrdwkFx0_28.mp4	0.0	302.2558591365814	0.14995884895324707
81	242.39565205574036	response	0	2		79.0	2.5	/experiments/knapen_aot/videos/S_yt-5fZZrdwkFx0_28.mp4	0.0	302.390123128891	
81	242.41134691238403	movie	1		301.0	79.0	2.5	/experiments/knapen_aot/videos/S_yt-5fZZrdwkFx0_28.mp4	0.0	302.40581798553467	2.508378028869629
81	244.91972494125366	fix_post	2		12.0	79.0	2.5	/experiments/knapen_aot/videos/S_yt-5fZZrdwkFx0_28.mp4	0.0	304.9141960144043	0.09998106956481934
82	245.01970601081848	fix_pre	0		38.0	80.0	2.5	/experiments/knapen_aot/videos/R_S_yt-Kwfwhd07dVo_2.mp4	0.0	305.0141770839691	0.31755900382995605
82	245.32828497886658	response	0	2		80.0	2.5	/experiments/knapen_aot/videos/R_S_yt-Kwfwhd07dVo_2.mp4	0.0	305.3227560520172	
82	245.33726501464844	movie	1		301.0	80.0	2.5	/experiments/knapen_aot/videos/R_S_yt-Kwfwhd07dVo_2.mp4	0.0	305.3317360877991	2.507456064224243
82	247.84472107887268	fix_post	2		12.0	80.0	2.5	/experiments/knapen_aot/videos/R_S_yt-Kwfwhd07dVo_2.mp4	0.0	307.8391921520233	0.09998583793640137
83	247.94470691680908	fix_pre	0		42.0	81.0	2.5	/experiments/knapen_aot/videos/S_PA_A010_C007_SDR_20190717_SDR_2K_AVC.mp4	0.0	307.9391779899597	0.35091519355773926
83	248.2789568901062	response	0	2		81.0	2.5	/experiments/knapen_aot/videos/S_PA_A010_C007_SDR_20190717_SDR_2K_AVC.mp4	0.0	308.27342796325684	
83	248.29562211036682	movie	1		168.0	81.0	2.5	/experiments/knapen_aot/videos/S_PA_A010_C007_SDR_20190717_SDR_2K_AVC.mp4	0.0	308.29009318351746	2.5073719024658203
83	250.80299401283264	fix_post	2		12.0	81.0	2.5	/experiments/knapen_aot/videos/S_PA_A010_C007_SDR_20190717_SDR_2K_AVC.mp4	0.0	310.7974650859833	0.09997701644897461
84	250.90297102928162	fix_pre	0		30.0	82.0	2.5	/experiments/knapen_aot/videos/S_yt-mI9voWol7cE_104.mp4	0.0	310.89744210243225	0.25002098083496094
84	251.1448109149933	response	0	2		82.0	2.5	/experiments/knapen_aot/videos/S_yt-mI9voWol7cE_104.mp4	0.0	311.1392819881439	
84	251.15299201011658	movie	1		301.0	82.0	2.5	/experiments/knapen_aot/videos/S_yt-mI9voWol7cE_104.mp4	0.0	311.1474630832672	2.5083279609680176
84	253.6613199710846	fix_post	2		12.0	82.0	2.5	/experiments/knapen_aot/videos/S_yt-mI9voWol7cE_104.mp4	0.0	313.65579104423523	0.09995102882385254
85	253.76127099990845	fix_pre	0		44.0	83.0	2.5	blank	1.0	313.7557420730591	0.36760807037353516
85	254.11991500854492	response	0	2		83.0	2.5	blank	1.0	314.11438608169556	
85	254.12887907028198	movie	1		301.0	83.0	2.5	blank	1.0	314.1233501434326	2.507436990737915
85	256.6363160610199	fix_post	2		12.0	83.0	2.5	blank	1.0	316.63078713417053	0.09994888305664062
87	256.73626494407654	stim	0		194.0					316.7307360172272	1.6167211532592773
87	258.346960067749	response	0	space						318.34143114089966	
