trial_nr	onset	event_type	phase	response	nr_frames	movie_index	movie_duration	movie_file	blank	onset_abs	duration
0	0.12418007850646973	stim	0		116.0					64.31162309646606	0.9652178287506104
0	1.0811469554901123	response	0	space						65.2685899734497	
1	1.08939790725708	stim	0		121.0					65.27684092521667	1.007897138595581
1	2.097295045852661	stim	1		120.0					66.28473806381226	0.9999399185180664
1	2.6557669639587402	response	1	space						66.84320998191833	
2	3.0972349643707275	fix_pre	0		110.0	0.0	2.5	/experiments/knapen_aot/videos/R_S_yt-cgwHIb9LAFc_336.mp4	0.0	67.28467798233032	0.9166829586029053
2	4.005785942077637	response	0	space		0.0	2.5	/experiments/knapen_aot/videos/R_S_yt-cgwHIb9LAFc_336.mp4	0.0	68.19322896003723	
2	4.013917922973633	movie	1		301.0	0.0	2.5	/experiments/knapen_aot/videos/R_S_yt-cgwHIb9LAFc_336.mp4	0.0	68.20136094093323	2.508301019668579
2	6.522218942642212	fix_post	2		12.0	0.0	2.5	/experiments/knapen_aot/videos/R_S_yt-cgwHIb9LAFc_336.mp4	0.0	70.7096619606018	0.10002613067626953
3	6.6222450733184814	fix_pre	0		32.0	1.0	2.5	/experiments/knapen_aot/videos/S_yt-TSSPDwAQLXs_158.mp4	0.0	70.80968809127808	0.26665687561035156
3	6.878010034561157	response	0	2		1.0	2.5	/experiments/knapen_aot/videos/S_yt-TSSPDwAQLXs_158.mp4	0.0	71.06545305252075	
3	6.888901948928833	movie	1		301.0	1.0	2.5	/experiments/knapen_aot/videos/S_yt-TSSPDwAQLXs_158.mp4	0.0	71.07634496688843	2.508284091949463
3	9.397186040878296	fix_post	2		12.0	1.0	2.5	/experiments/knapen_aot/videos/S_yt-TSSPDwAQLXs_158.mp4	0.0	73.58462905883789	0.10004091262817383
4	9.49722695350647	fix_pre	0		56.0	2.0	2.5	/experiments/knapen_aot/videos/R_S_yt-tMP5WhHMtWE_55.mp4	0.0	73.68466997146606	0.4667220115661621
4	9.955763101577759	response	0	2		2.0	2.5	/experiments/knapen_aot/videos/R_S_yt-tMP5WhHMtWE_55.mp4	0.0	74.14320611953735	
4	9.963948965072632	movie	1		298.0	2.0	2.5	/experiments/knapen_aot/videos/R_S_yt-tMP5WhHMtWE_55.mp4	0.0	74.15139198303223	2.5083460807800293
4	12.472295045852661	fix_post	2		12.0	2.0	2.5	/experiments/knapen_aot/videos/R_S_yt-tMP5WhHMtWE_55.mp4	0.0	76.65973806381226	0.0999460220336914
5	12.572241067886353	fix_pre	0		15.0	3.0	2.5	/experiments/knapen_aot/videos/R_S_yt-eoASPwIAiHY_244.mp4	0.0	76.75968408584595	0.12493491172790527
5	12.689044952392578	response	0	2		3.0	2.5	/experiments/knapen_aot/videos/R_S_yt-eoASPwIAiHY_244.mp4	0.0	76.87648797035217	
5	12.697175979614258	movie	1		301.0	3.0	2.5	/experiments/knapen_aot/videos/R_S_yt-eoASPwIAiHY_244.mp4	0.0	76.88461899757385	2.5084121227264404
5	15.205588102340698	fix_post	2		12.0	3.0	2.5	/experiments/knapen_aot/videos/R_S_yt-eoASPwIAiHY_244.mp4	0.0	79.3930311203003	0.10001683235168457
6	15.305604934692383	fix_pre	0		2.0	4.0	2.5	/experiments/knapen_aot/videos/S_yt-NQSCGMpo-p8_118.mp4	0.0	79.49304795265198	0.01667618751525879
6	15.314095973968506	response	0	2		4.0	2.5	/experiments/knapen_aot/videos/S_yt-NQSCGMpo-p8_118.mp4	0.0	79.5015389919281	
6	15.322281122207642	movie	1		300.0	4.0	2.5	/experiments/knapen_aot/videos/S_yt-NQSCGMpo-p8_118.mp4	0.0	79.50972414016724	2.5082387924194336
6	17.830519914627075	fix_post	2		12.0	4.0	2.5	/experiments/knapen_aot/videos/S_yt-NQSCGMpo-p8_118.mp4	0.0	82.01796293258667	0.10000801086425781
7	17.930527925491333	fix_pre	0		24.0	5.0	2.5	/experiments/knapen_aot/videos/S_yt-gDZnJCR2uXI_18.mp4	0.0	82.11797094345093	0.20002508163452148
7	18.122283935546875	response	0	2		5.0	2.5	/experiments/knapen_aot/videos/S_yt-gDZnJCR2uXI_18.mp4	0.0	82.30972695350647	
7	18.130553007125854	movie	1		301.0	5.0	2.5	/experiments/knapen_aot/videos/S_yt-gDZnJCR2uXI_18.mp4	0.0	82.31799602508545	2.5083351135253906
7	20.638888120651245	fix_post	2		12.0	5.0	2.5	/experiments/knapen_aot/videos/S_yt-gDZnJCR2uXI_18.mp4	0.0	84.82633113861084	0.09999990463256836
8	20.738888025283813	fix_pre	0		35.0	6.0	2.5	/experiments/knapen_aot/videos/R_S_ILSVRC2015_train_00404004.mp4	0.0	84.92633104324341	0.29163408279418945
8	21.014804124832153	response	0	2		6.0	2.5	/experiments/knapen_aot/videos/R_S_ILSVRC2015_train_00404004.mp4	0.0	85.20224714279175	
8	21.030522108078003	movie	1		301.0	6.0	2.5	/experiments/knapen_aot/videos/R_S_ILSVRC2015_train_00404004.mp4	0.0	85.2179651260376	2.5084009170532227
8	23.538923025131226	fix_post	2		12.0	6.0	2.5	/experiments/knapen_aot/videos/R_S_ILSVRC2015_train_00404004.mp4	0.0	87.72636604309082	0.0999140739440918
9	23.638837099075317	fix_pre	0		22.0	7.0	2.5	blank	1.0	87.82628011703491	0.18332481384277344
9	23.80648112297058	response	0	2		7.0	2.5	blank	1.0	87.99392414093018	
9	23.82216191291809	movie	1		301.0	7.0	2.5	blank	1.0	88.00960493087769	2.5083611011505127
9	26.330523014068604	fix_post	2		12.0	7.0	2.5	blank	1.0	90.5179660320282	0.1000208854675293
10	26.430543899536133	fix_pre	0		39.0	8.0	2.5	/experiments/knapen_aot/videos/S_yt-2WPmM2vIuBE_41.mp4	0.0	90.61798691749573	0.32497620582580566
10	26.74730396270752	response	0	2		8.0	2.5	/experiments/knapen_aot/videos/S_yt-2WPmM2vIuBE_41.mp4	0.0	90.93474698066711	
10	26.75552010536194	movie	1		299.0	8.0	2.5	/experiments/knapen_aot/videos/S_yt-2WPmM2vIuBE_41.mp4	0.0	90.94296312332153	2.508333921432495
10	29.263854026794434	fix_post	2		12.0	8.0	2.5	/experiments/knapen_aot/videos/S_yt-2WPmM2vIuBE_41.mp4	0.0	93.45129704475403	0.10000491142272949
11	29.363858938217163	fix_pre	0		34.0	9.0	2.5	/experiments/knapen_aot/videos/S_ILSVRC2015_train_00515001.mp4	0.0	93.55130195617676	0.2832331657409668
11	29.63897395133972	response	0	2		9.0	2.5	/experiments/knapen_aot/videos/S_ILSVRC2015_train_00515001.mp4	0.0	93.82641696929932	
11	29.64709210395813	movie	1		301.0	9.0	2.5	/experiments/knapen_aot/videos/S_ILSVRC2015_train_00515001.mp4	0.0	93.83453512191772	2.5084288120269775
11	32.15552091598511	fix_post	2		12.0	9.0	2.5	/experiments/knapen_aot/videos/S_ILSVRC2015_train_00515001.mp4	0.0	96.3429639339447	0.1000070571899414
12	32.25552797317505	fix_pre	0		61.0	10.0	2.5	/experiments/knapen_aot/videos/R_S_pexels-mikhail-nilov-8410063.mp4	0.0	96.44297099113464	0.5083029270172119
12	32.75573205947876	response	0	2		10.0	2.5	/experiments/knapen_aot/videos/R_S_pexels-mikhail-nilov-8410063.mp4	0.0	96.94317507743835	
12	32.76383090019226	movie	1		164.0	10.0	2.5	/experiments/knapen_aot/videos/R_S_pexels-mikhail-nilov-8410063.mp4	0.0	96.95127391815186	2.508301019668579
12	35.27213191986084	fix_post	2		12.0	10.0	2.5	/experiments/knapen_aot/videos/R_S_pexels-mikhail-nilov-8410063.mp4	0.0	99.45957493782043	0.1000680923461914
13	35.37220001220703	fix_pre	0		16.0	11.0	2.5	/experiments/knapen_aot/videos/S_yt-eLQydFSMGCU_75.mp4	0.0	99.55964303016663	0.13332509994506836
13	35.49728512763977	response	0	2		11.0	2.5	/experiments/knapen_aot/videos/S_yt-eLQydFSMGCU_75.mp4	0.0	99.68472814559937	
13	35.5055251121521	movie	1		301.0	11.0	2.5	/experiments/knapen_aot/videos/S_yt-eLQydFSMGCU_75.mp4	0.0	99.6929681301117	2.508335828781128
13	38.01386094093323	fix_post	2		12.0	11.0	2.5	/experiments/knapen_aot/videos/S_yt-eLQydFSMGCU_75.mp4	0.0	102.20130395889282	0.1000051498413086
14	38.113866090774536	fix_pre	0		16.0	12.0	2.5	/experiments/knapen_aot/videos/R_S_yt-nMWqezngycw_10.mp4	0.0	102.30130910873413	0.134552001953125
14	38.23897695541382	response	0	2		12.0	2.5	/experiments/knapen_aot/videos/R_S_yt-nMWqezngycw_10.mp4	0.0	102.42641997337341	
14	38.24841809272766	movie	1		301.0	12.0	2.5	/experiments/knapen_aot/videos/R_S_yt-nMWqezngycw_10.mp4	0.0	102.43586111068726	2.5070769786834717
14	40.75549507141113	fix_post	2		12.0	12.0	2.5	/experiments/knapen_aot/videos/R_S_yt-nMWqezngycw_10.mp4	0.0	104.94293808937073	0.09996294975280762
15	40.85545802116394	fix_pre	0		52.0	13.0	2.5	blank	1.0	105.04290103912354	0.4332540035247803
15	41.28061890602112	response	0	2		13.0	2.5	blank	1.0	105.46806192398071	
15	41.28871202468872	movie	1		301.0	13.0	2.5	blank	1.0	105.47615504264832	2.508404016494751
15	43.79711604118347	fix_post	2		12.0	13.0	2.5	blank	1.0	107.98455905914307	0.09996604919433594
16	43.89708209037781	fix_pre	0		22.0	14.0	2.5	/experiments/knapen_aot/videos/R_S_yt-q9-_bG9ry3E_5.mp4	0.0	108.0845251083374	0.1833820343017578
16	44.07217502593994	response	0	2		14.0	2.5	/experiments/knapen_aot/videos/R_S_yt-q9-_bG9ry3E_5.mp4	0.0	108.25961804389954	
16	44.080464124679565	movie	1		301.0	14.0	2.5	/experiments/knapen_aot/videos/R_S_yt-q9-_bG9ry3E_5.mp4	0.0	108.26790714263916	2.508368968963623
16	46.58883309364319	fix_post	2		12.0	14.0	2.5	/experiments/knapen_aot/videos/R_S_yt-q9-_bG9ry3E_5.mp4	0.0	110.77627611160278	0.10008382797241211
17	46.6889169216156	fix_pre	0		19.0	15.0	2.5	/experiments/knapen_aot/videos/S_yt-5ws2gxbcjs4_381.mp4	0.0	110.8763599395752	0.1582632064819336
17	46.838943004608154	response	0	2		15.0	2.5	/experiments/knapen_aot/videos/S_yt-5ws2gxbcjs4_381.mp4	0.0	111.02638602256775	
17	46.847180128097534	movie	1		301.0	15.0	2.5	/experiments/knapen_aot/videos/S_yt-5ws2gxbcjs4_381.mp4	0.0	111.03462314605713	2.508293867111206
17	49.35547399520874	fix_post	2		12.0	15.0	2.5	/experiments/knapen_aot/videos/S_yt-5ws2gxbcjs4_381.mp4	0.0	113.54291701316833	0.09999895095825195
18	49.45547294616699	fix_pre	0		37.0	16.0	2.5	/experiments/knapen_aot/videos/S_production_ID_4101244.mp4	0.0	113.64291596412659	0.3083181381225586
18	49.75552797317505	response	0	4		16.0	2.5	/experiments/knapen_aot/videos/S_production_ID_4101244.mp4	0.0	113.94297099113464	
18	49.76379108428955	movie	1		191.0	16.0	2.5	/experiments/knapen_aot/videos/S_production_ID_4101244.mp4	0.0	113.95123410224915	2.5083208084106445
18	52.272111892700195	fix_post	2		12.0	16.0	2.5	/experiments/knapen_aot/videos/S_production_ID_4101244.mp4	0.0	116.45955491065979	0.0999460220336914
19	52.37205791473389	fix_pre	0		14.0	17.0	2.5	/experiments/knapen_aot/videos/S_ILSVRC2015_train_00517000.mp4	0.0	116.55950093269348	0.1167290210723877
19	52.480595111846924	response	0	2		17.0	2.5	/experiments/knapen_aot/videos/S_ILSVRC2015_train_00517000.mp4	0.0	116.66803812980652	
19	52.488786935806274	movie	1		301.0	17.0	2.5	/experiments/knapen_aot/videos/S_ILSVRC2015_train_00517000.mp4	0.0	116.67622995376587	2.5082430839538574
19	54.99703001976013	fix_post	2		12.0	17.0	2.5	/experiments/knapen_aot/videos/S_ILSVRC2015_train_00517000.mp4	0.0	119.18447303771973	0.10007309913635254
20	55.097103118896484	fix_pre	0		29.0	18.0	2.5	/experiments/knapen_aot/videos/S_yt-q9kT_c9QjbQ_34.mp4	0.0	119.28454613685608	0.24167180061340332
20	55.33056712150574	response	0	2		18.0	2.5	/experiments/knapen_aot/videos/S_yt-q9kT_c9QjbQ_34.mp4	0.0	119.51801013946533	
20	55.33877491950989	movie	1		299.0	18.0	2.5	/experiments/knapen_aot/videos/S_yt-q9kT_c9QjbQ_34.mp4	0.0	119.52621793746948	2.508310079574585
20	57.84708499908447	fix_post	2		12.0	18.0	2.5	/experiments/knapen_aot/videos/S_yt-q9kT_c9QjbQ_34.mp4	0.0	122.03452801704407	0.09992790222167969
21	57.94701290130615	fix_pre	0		41.0	19.0	2.5	/experiments/knapen_aot/videos/S_yt-FR_Y1Mm8BwQ_53.mp4	0.0	122.13445591926575	0.3417031764984131
21	58.272953033447266	response	0	4		19.0	2.5	/experiments/knapen_aot/videos/S_yt-FR_Y1Mm8BwQ_53.mp4	0.0	122.46039605140686	
21	58.288716077804565	movie	1		301.0	19.0	2.5	/experiments/knapen_aot/videos/S_yt-FR_Y1Mm8BwQ_53.mp4	0.0	122.47615909576416	2.50834584236145
21	60.797061920166016	fix_post	2		12.0	19.0	2.5	/experiments/knapen_aot/videos/S_yt-FR_Y1Mm8BwQ_53.mp4	0.0	124.98450493812561	0.09995818138122559
22	60.89702010154724	fix_pre	0		71.0	20.0	2.5	blank	1.0	125.08446311950684	0.5916969776153564
22	61.48051404953003	response	0	2		20.0	2.5	blank	1.0	125.66795706748962	
22	61.4887170791626	movie	1		301.0	20.0	2.5	blank	1.0	125.67616009712219	2.508354902267456
22	63.997071981430054	fix_post	2		12.0	20.0	2.5	blank	1.0	128.18451499938965	0.09996199607849121
23	64.09703397750854	fix_pre	0		31.0	21.0	2.5	/experiments/knapen_aot/videos/S_yt-VJ65ukWmdxQ_193.mp4	0.0	128.28447699546814	0.25832414627075195
23	64.34718704223633	response	0	2		21.0	2.5	/experiments/knapen_aot/videos/S_yt-VJ65ukWmdxQ_193.mp4	0.0	128.53463006019592	
23	64.3553581237793	movie	1		301.0	21.0	2.5	/experiments/knapen_aot/videos/S_yt-VJ65ukWmdxQ_193.mp4	0.0	128.5428011417389	2.510948896408081
23	66.86630702018738	fix_post	2		12.0	21.0	2.5	/experiments/knapen_aot/videos/S_yt-VJ65ukWmdxQ_193.mp4	0.0	131.05375003814697	0.09736990928649902
24	66.96367692947388	fix_pre	0		10.0	22.0	2.5	/experiments/knapen_aot/videos/S_pexels-koolshooters-7689098.mp4	0.0	131.15111994743347	0.08334612846374512
24	67.03878498077393	response	0	4		22.0	2.5	/experiments/knapen_aot/videos/S_pexels-koolshooters-7689098.mp4	0.0	131.22622799873352	
24	67.04702305793762	movie	1		165.0	22.0	2.5	/experiments/knapen_aot/videos/S_pexels-koolshooters-7689098.mp4	0.0	131.23446607589722	2.5083060264587402
24	69.55532908439636	fix_post	2		12.0	22.0	2.5	/experiments/knapen_aot/videos/S_pexels-koolshooters-7689098.mp4	0.0	133.74277210235596	0.10002994537353516
25	69.6553590297699	fix_pre	0		29.0	23.0	2.5	/experiments/knapen_aot/videos/R_S_yt-4RKOPaRF42o_124.mp4	0.0	133.8428020477295	0.2416400909423828
25	69.88882112503052	response	0	2		23.0	2.5	/experiments/knapen_aot/videos/R_S_yt-4RKOPaRF42o_124.mp4	0.0	134.0762641429901	
25	69.89699912071228	movie	1		301.0	23.0	2.5	/experiments/knapen_aot/videos/R_S_yt-4RKOPaRF42o_124.mp4	0.0	134.08444213867188	2.508302927017212
25	72.40530204772949	fix_post	2		12.0	23.0	2.5	/experiments/knapen_aot/videos/R_S_yt-4RKOPaRF42o_124.mp4	0.0	136.5927450656891	0.10005307197570801
26	72.5053551197052	fix_pre	0		47.0	24.0	2.5	/experiments/knapen_aot/videos/S_yt-PCSXJ5YB_AE_3.mp4	0.0	136.6927981376648	0.39167189598083496
26	72.8887939453125	response	0	2		24.0	2.5	/experiments/knapen_aot/videos/S_yt-PCSXJ5YB_AE_3.mp4	0.0	137.0762369632721	
26	72.89702701568604	movie	1		300.0	24.0	2.5	/experiments/knapen_aot/videos/S_yt-PCSXJ5YB_AE_3.mp4	0.0	137.08447003364563	2.5083088874816895
26	75.40533590316772	fix_post	2		12.0	24.0	2.5	/experiments/knapen_aot/videos/S_yt-PCSXJ5YB_AE_3.mp4	0.0	139.59277892112732	0.10000014305114746
27	75.50533604621887	fix_pre	0		28.0	25.0	2.5	/experiments/knapen_aot/videos/S_yt-dO0OuozAgt0_225.mp4	0.0	139.69277906417847	0.23335599899291992
27	75.73047590255737	response	0	2		25.0	2.5	/experiments/knapen_aot/videos/S_yt-dO0OuozAgt0_225.mp4	0.0	139.91791892051697	
27	75.73869204521179	movie	1		301.0	25.0	2.5	/experiments/knapen_aot/videos/S_yt-dO0OuozAgt0_225.mp4	0.0	139.9261350631714	2.508281946182251
27	78.24697399139404	fix_post	2		12.0	25.0	2.5	/experiments/knapen_aot/videos/S_yt-dO0OuozAgt0_225.mp4	0.0	142.43441700935364	0.09994196891784668
28	78.34691596031189	fix_pre	0		55.0	26.0	2.5	blank	1.0	142.53435897827148	0.4584231376647949
28	78.79711699485779	response	0	2		26.0	2.5	blank	1.0	142.98456001281738	
28	78.80533909797668	movie	1		301.0	26.0	2.5	blank	1.0	142.99278211593628	2.508272886276245
28	81.31361198425293	fix_post	2		12.0	26.0	2.5	blank	1.0	145.50105500221252	0.10004210472106934
29	81.413654088974	fix_pre	0		32.0	27.0	2.5	/experiments/knapen_aot/videos/S_yt-4rwBpRuHg-c_1308.mp4	0.0	145.6010971069336	0.266556978225708
29	81.67206597328186	response	0	2		27.0	2.5	/experiments/knapen_aot/videos/S_yt-4rwBpRuHg-c_1308.mp4	0.0	145.85950899124146	
29	81.6802110671997	movie	1		301.0	27.0	2.5	/experiments/knapen_aot/videos/S_yt-4rwBpRuHg-c_1308.mp4	0.0	145.8676540851593	2.5083348751068115
29	84.18854594230652	fix_post	2		12.0	27.0	2.5	/experiments/knapen_aot/videos/S_yt-4rwBpRuHg-c_1308.mp4	0.0	148.3759889602661	0.10004806518554688
30	84.28859400749207	fix_pre	0		57.0	28.0	2.5	/experiments/knapen_aot/videos/S_yt-Q5Mfl5NdT7g_3.mp4	0.0	148.47603702545166	0.4749889373779297
30	84.75537705421448	response	0	2		28.0	2.5	/experiments/knapen_aot/videos/S_yt-Q5Mfl5NdT7g_3.mp4	0.0	148.94282007217407	
30	84.76358294487	movie	1		300.0	28.0	2.5	/experiments/knapen_aot/videos/S_yt-Q5Mfl5NdT7g_3.mp4	0.0	148.9510259628296	2.508385181427002
30	87.271968126297	fix_post	2		12.0	28.0	2.5	/experiments/knapen_aot/videos/S_yt-Q5Mfl5NdT7g_3.mp4	0.0	151.4594111442566	0.09999799728393555
31	87.37196612358093	fix_pre	0		70.0	29.0	2.5	/experiments/knapen_aot/videos/S_yt-JGKdBO2Ldzo_93.mp4	0.0	151.55940914154053	0.5843448638916016
31	87.94703102111816	response	0	2		29.0	2.5	/experiments/knapen_aot/videos/S_yt-JGKdBO2Ldzo_93.mp4	0.0	152.13447403907776	
31	87.95631098747253	movie	1		301.0	29.0	2.5	/experiments/knapen_aot/videos/S_yt-JGKdBO2Ldzo_93.mp4	0.0	152.14375400543213	2.507236957550049
31	90.46354794502258	fix_post	2		12.0	29.0	2.5	/experiments/knapen_aot/videos/S_yt-JGKdBO2Ldzo_93.mp4	0.0	154.65099096298218	0.09999895095825195
32	90.56354689598083	fix_pre	0		25.0	30.0	2.5	/experiments/knapen_aot/videos/S_pexels-marcus-aurelius-6785014.mp4	0.0	154.75098991394043	0.2084500789642334
32	90.76375007629395	response	0	2		30.0	2.5	/experiments/knapen_aot/videos/S_pexels-marcus-aurelius-6785014.mp4	0.0	154.95119309425354	
32	90.77199697494507	movie	1		168.0	30.0	2.5	/experiments/knapen_aot/videos/S_pexels-marcus-aurelius-6785014.mp4	0.0	154.95943999290466	2.5081801414489746
32	93.28017711639404	fix_post	2		12.0	30.0	2.5	/experiments/knapen_aot/videos/S_pexels-marcus-aurelius-6785014.mp4	0.0	157.46762013435364	0.1000218391418457
33	93.38019895553589	fix_pre	0		25.0	31.0	2.5	/experiments/knapen_aot/videos/R_S_wc-hmW1OnCPF_xn_37.mp4	0.0	157.56764197349548	0.2083439826965332
33	93.58039402961731	response	0	2		31.0	2.5	/experiments/knapen_aot/videos/R_S_wc-hmW1OnCPF_xn_37.mp4	0.0	157.7678370475769	
33	93.58854293823242	movie	1		167.0	31.0	2.5	/experiments/knapen_aot/videos/R_S_wc-hmW1OnCPF_xn_37.mp4	0.0	157.77598595619202	2.5083611011505127
33	96.09690403938293	fix_post	2		12.0	31.0	2.5	/experiments/knapen_aot/videos/R_S_wc-hmW1OnCPF_xn_37.mp4	0.0	160.28434705734253	0.09996199607849121
34	96.19686603546143	fix_pre	0		18.0	32.0	2.5	/experiments/knapen_aot/videos/S_yt-7Ya-rGPO8cM_159.mp4	0.0	160.38430905342102	0.15004897117614746
34	96.33867406845093	response	0	2		32.0	2.5	/experiments/knapen_aot/videos/S_yt-7Ya-rGPO8cM_159.mp4	0.0	160.52611708641052	
34	96.34691500663757	movie	1		301.0	32.0	2.5	/experiments/knapen_aot/videos/S_yt-7Ya-rGPO8cM_159.mp4	0.0	160.53435802459717	2.508241891860962
34	98.85515689849854	fix_post	2		12.0	32.0	2.5	/experiments/knapen_aot/videos/S_yt-7Ya-rGPO8cM_159.mp4	0.0	163.04259991645813	0.10004806518554688
35	98.95520496368408	fix_pre	0		85.0	33.0	2.5	/experiments/knapen_aot/videos/R_S_yt-3ohvpS42xug_184.mp4	0.0	163.14264798164368	0.7093119621276855
35	99.65536093711853	response	0	2		33.0	2.5	/experiments/knapen_aot/videos/R_S_yt-3ohvpS42xug_184.mp4	0.0	163.84280395507812	
35	99.66451692581177	movie	1		301.0	33.0	2.5	/experiments/knapen_aot/videos/R_S_yt-3ohvpS42xug_184.mp4	0.0	163.85195994377136	2.5072760581970215
35	102.17179298400879	fix_post	2		12.0	33.0	2.5	/experiments/knapen_aot/videos/R_S_yt-3ohvpS42xug_184.mp4	0.0	166.35923600196838	0.10008907318115234
36	102.27188205718994	fix_pre	0		25.0	34.0	2.5	/experiments/knapen_aot/videos/R_S_yt-giRwl4yChlw_9.mp4	0.0	166.45932507514954	0.20830297470092773
36	102.47199892997742	response	0	2		34.0	2.5	/experiments/knapen_aot/videos/R_S_yt-giRwl4yChlw_9.mp4	0.0	166.659441947937	
36	102.48018503189087	movie	1		301.0	34.0	2.5	/experiments/knapen_aot/videos/R_S_yt-giRwl4yChlw_9.mp4	0.0	166.66762804985046	2.508378028869629
36	104.76700592041016	response	1	2		34.0	2.5	/experiments/knapen_aot/videos/R_S_yt-giRwl4yChlw_9.mp4	0.0	168.95444893836975	
36	104.9885630607605	fix_post	2		12.0	34.0	2.5	/experiments/knapen_aot/videos/R_S_yt-giRwl4yChlw_9.mp4	0.0	169.1760060787201	0.10000085830688477
37	105.08856391906738	fix_pre	0		23.0	35.0	2.5	blank	1.0	169.27600693702698	0.19162321090698242
37	105.27198195457458	response	0	2		35.0	2.5	blank	1.0	169.45942497253418	
37	105.28018712997437	movie	1		301.0	35.0	2.5	blank	1.0	169.46763014793396	2.508331775665283
37	107.78851890563965	fix_post	2		12.0	35.0	2.5	blank	1.0	171.97596192359924	0.09993410110473633
38	107.88845300674438	fix_pre	0		27.0	36.0	2.5	/experiments/knapen_aot/videos/R_S_production_ID_3709168.mp4	0.0	172.07589602470398	0.22506093978881836
38	108.10532212257385	response	0	2		36.0	2.5	/experiments/knapen_aot/videos/R_S_production_ID_3709168.mp4	0.0	172.29276514053345	
38	108.1135139465332	movie	1		190.0	36.0	2.5	/experiments/knapen_aot/videos/R_S_production_ID_3709168.mp4	0.0	172.3009569644928	2.5083260536193848
38	110.62184000015259	fix_post	2		12.0	36.0	2.5	/experiments/knapen_aot/videos/R_S_production_ID_3709168.mp4	0.0	174.80928301811218	0.10000801086425781
39	110.72184801101685	fix_pre	0		25.0	37.0	2.5	/experiments/knapen_aot/videos/R_S_g201_AK_A003_C014_SDR_20191113_SDR_2K_AVC.mp4	0.0	174.90929102897644	0.20829296112060547
39	110.92198705673218	response	0	2		37.0	2.5	/experiments/knapen_aot/videos/R_S_g201_AK_A003_C014_SDR_20191113_SDR_2K_AVC.mp4	0.0	175.10943007469177	
39	110.93014097213745	movie	1		167.0	37.0	2.5	/experiments/knapen_aot/videos/R_S_g201_AK_A003_C014_SDR_20191113_SDR_2K_AVC.mp4	0.0	175.11758399009705	2.508394956588745
39	113.4385359287262	fix_post	2		12.0	37.0	2.5	/experiments/knapen_aot/videos/R_S_g201_AK_A003_C014_SDR_20191113_SDR_2K_AVC.mp4	0.0	177.6259789466858	0.09998106956481934
40	113.53851699829102	fix_pre	0		11.0	38.0	2.5	/experiments/knapen_aot/videos/R_S_yt-4NjyKFnwHBo_13.mp4	0.0	177.7259600162506	0.0916740894317627
40	113.61444306373596	response	0	2		38.0	2.5	/experiments/knapen_aot/videos/R_S_yt-4NjyKFnwHBo_13.mp4	0.0	177.80188608169556	
40	113.63019108772278	movie	1		300.0	38.0	2.5	/experiments/knapen_aot/videos/R_S_yt-4NjyKFnwHBo_13.mp4	0.0	177.81763410568237	2.5083539485931396
40	116.13854503631592	fix_post	2		12.0	38.0	2.5	/experiments/knapen_aot/videos/R_S_yt-4NjyKFnwHBo_13.mp4	0.0	180.3259880542755	0.09998607635498047
41	116.2385311126709	fix_pre	0		42.0	39.0	2.5	/experiments/knapen_aot/videos/R_S_yt-3ohvpS42xug_184.mp4	0.0	180.4259741306305	0.34996700286865234
41	116.58029198646545	response	0	2		39.0	2.5	/experiments/knapen_aot/videos/R_S_yt-3ohvpS42xug_184.mp4	0.0	180.76773500442505	
41	116.58849811553955	movie	1		301.0	39.0	2.5	/experiments/knapen_aot/videos/R_S_yt-3ohvpS42xug_184.mp4	0.0	180.77594113349915	2.50837779045105
41	119.0968759059906	fix_post	2		12.0	39.0	2.5	/experiments/knapen_aot/videos/R_S_yt-3ohvpS42xug_184.mp4	0.0	183.2843189239502	0.09993505477905273
42	119.19681096076965	fix_pre	0		57.0	40.0	2.5	/experiments/knapen_aot/videos/R_S_yt-SRozDkhwx28_1463.mp4	0.0	183.38425397872925	0.4749469757080078
42	119.66360998153687	response	0	2		40.0	2.5	/experiments/knapen_aot/videos/R_S_yt-SRozDkhwx28_1463.mp4	0.0	183.85105299949646	
42	119.67175793647766	movie	1		301.0	40.0	2.5	/experiments/knapen_aot/videos/R_S_yt-SRozDkhwx28_1463.mp4	0.0	183.85920095443726	2.5082919597625732
42	122.18004989624023	fix_post	2		12.0	40.0	2.5	/experiments/knapen_aot/videos/R_S_yt-SRozDkhwx28_1463.mp4	0.0	186.36749291419983	0.10008716583251953
43	122.28013706207275	fix_pre	0		66.0	41.0	2.5	/experiments/knapen_aot/videos/S_yt-ZtS7ZrJ_rtk_525.mp4	0.0	186.46758008003235	0.5508379936218262
43	122.82188892364502	response	0	2		41.0	2.5	/experiments/knapen_aot/videos/S_yt-ZtS7ZrJ_rtk_525.mp4	0.0	187.00933194160461	
43	122.83097505569458	movie	1		301.0	41.0	2.5	/experiments/knapen_aot/videos/S_yt-ZtS7ZrJ_rtk_525.mp4	0.0	187.01841807365417	2.5075080394744873
43	125.33848309516907	fix_post	2		12.0	41.0	2.5	/experiments/knapen_aot/videos/S_yt-ZtS7ZrJ_rtk_525.mp4	0.0	189.52592611312866	0.0999608039855957
44	125.43844389915466	fix_pre	0		31.0	42.0	2.5	blank	1.0	189.62588691711426	0.2583131790161133
44	125.68861413002014	response	0	2		42.0	2.5	blank	1.0	189.87605714797974	
44	125.69675707817078	movie	1		301.0	42.0	2.5	blank	1.0	189.88420009613037	2.508358955383301
44	128.20511603355408	fix_post	2		12.0	42.0	2.5	blank	1.0	192.39255905151367	0.10000109672546387
45	128.30511713027954	fix_pre	0		45.0	43.0	2.5	/experiments/knapen_aot/videos/S_yt-0d5TkclKWVA_146.mp4	0.0	192.49256014823914	0.37500882148742676
45	128.67185306549072	response	0	2		43.0	2.5	/experiments/knapen_aot/videos/S_yt-0d5TkclKWVA_146.mp4	0.0	192.85929608345032	
45	128.68012595176697	movie	1		301.0	43.0	2.5	/experiments/knapen_aot/videos/S_yt-0d5TkclKWVA_146.mp4	0.0	192.86756896972656	2.5083601474761963
45	131.18848609924316	fix_post	2		12.0	43.0	2.5	/experiments/knapen_aot/videos/S_yt-0d5TkclKWVA_146.mp4	0.0	195.37592911720276	0.09993195533752441
46	131.2884180545807	fix_pre	0		122.0	44.0	2.5	/experiments/knapen_aot/videos/R_S_pexels-koolshooters-7327412_1.mp4	0.0	195.47586107254028	1.0166919231414795
46	132.29691290855408	response	0	4		44.0	2.5	/experiments/knapen_aot/videos/R_S_pexels-koolshooters-7327412_1.mp4	0.0	196.48435592651367	
46	132.30510997772217	movie	1		162.0	44.0	2.5	/experiments/knapen_aot/videos/R_S_pexels-koolshooters-7327412_1.mp4	0.0	196.49255299568176	2.5082759857177734
46	134.81338596343994	fix_post	2		12.0	44.0	2.5	/experiments/knapen_aot/videos/R_S_pexels-koolshooters-7327412_1.mp4	0.0	199.00082898139954	0.10008502006530762
47	134.91347098350525	fix_pre	0		6.0	45.0	2.5	/experiments/knapen_aot/videos/S_yt-RKo978aBdzw_173.mp4	0.0	199.10091400146484	0.04996514320373535
47	134.95525598526	response	0	2		45.0	2.5	/experiments/knapen_aot/videos/S_yt-RKo978aBdzw_173.mp4	0.0	199.1426990032196	
47	134.96343612670898	movie	1		301.0	45.0	2.5	/experiments/knapen_aot/videos/S_yt-RKo978aBdzw_173.mp4	0.0	199.15087914466858	2.5083189010620117
47	137.471755027771	fix_post	2		12.0	45.0	2.5	/experiments/knapen_aot/videos/S_yt-RKo978aBdzw_173.mp4	0.0	201.6591980457306	0.09999203681945801
48	137.57174706459045	fix_pre	0		141.0	46.0	2.5	/experiments/knapen_aot/videos/R_S_yt-7e6Z9QQieAk_183.mp4	0.0	201.75919008255005	1.1757240295410156
48	138.73855090141296	response	0	4		46.0	2.5	/experiments/knapen_aot/videos/R_S_yt-7e6Z9QQieAk_183.mp4	0.0	202.92599391937256	
48	138.74747109413147	movie	1		301.0	46.0	2.5	/experiments/knapen_aot/videos/R_S_yt-7e6Z9QQieAk_183.mp4	0.0	202.93491411209106	2.507579803466797
48	141.25505089759827	fix_post	2		12.0	46.0	2.5	/experiments/knapen_aot/videos/R_S_yt-7e6Z9QQieAk_183.mp4	0.0	205.44249391555786	0.1000211238861084
49	141.35507202148438	fix_pre	0		31.0	47.0	2.5	/experiments/knapen_aot/videos/S_wc-lItGMdwvEd_l_7.mp4	0.0	205.54251503944397	0.2583179473876953
49	141.605220079422	response	0	2		47.0	2.5	/experiments/knapen_aot/videos/S_wc-lItGMdwvEd_l_7.mp4	0.0	205.7926630973816	
49	141.61338996887207	movie	1		162.0	47.0	2.5	/experiments/knapen_aot/videos/S_wc-lItGMdwvEd_l_7.mp4	0.0	205.80083298683167	2.5083529949188232
49	144.1217429637909	fix_post	2		12.0	47.0	2.5	/experiments/knapen_aot/videos/S_wc-lItGMdwvEd_l_7.mp4	0.0	208.3091859817505	0.1000680923461914
50	144.22181105613708	fix_pre	0		40.0	48.0	2.5	blank	1.0	208.40925407409668	0.33319807052612305
50	144.54683899879456	response	0	4		48.0	2.5	blank	1.0	208.73428201675415	
50	144.5550091266632	movie	1		301.0	48.0	2.5	blank	1.0	208.7424521446228	2.5082907676696777
50	147.06329989433289	fix_post	2		12.0	48.0	2.5	blank	1.0	211.25074291229248	0.10008120536804199
51	147.16338109970093	fix_pre	0		23.0	49.0	2.5	/experiments/knapen_aot/videos/R_S_yt-25xuzTBhwPk_109.mp4	0.0	211.35082411766052	0.19164085388183594
51	147.34675097465515	response	0	2		49.0	2.5	/experiments/knapen_aot/videos/R_S_yt-25xuzTBhwPk_109.mp4	0.0	211.53419399261475	
51	147.35502195358276	movie	1		301.0	49.0	2.5	/experiments/knapen_aot/videos/R_S_yt-25xuzTBhwPk_109.mp4	0.0	211.54246497154236	2.508272171020508
51	149.86329412460327	fix_post	2		12.0	49.0	2.5	/experiments/knapen_aot/videos/R_S_yt-25xuzTBhwPk_109.mp4	0.0	214.05073714256287	0.10004186630249023
52	149.96333599090576	fix_pre	0		74.0	50.0	2.5	/experiments/knapen_aot/videos/R_S_yt-7NjoFHBdP7c_102.mp4	0.0	214.15077900886536	0.6173651218414307
52	150.57183599472046	response	0	2		50.0	2.5	/experiments/knapen_aot/videos/R_S_yt-7NjoFHBdP7c_102.mp4	0.0	214.75927901268005	
52	150.5807011127472	movie	1		301.0	50.0	2.5	/experiments/knapen_aot/videos/R_S_yt-7NjoFHBdP7c_102.mp4	0.0	214.7681441307068	2.507579803466797
52	153.088280916214	fix_post	2		12.0	50.0	2.5	/experiments/knapen_aot/videos/R_S_yt-7NjoFHBdP7c_102.mp4	0.0	217.27572393417358	0.09994912147521973
53	153.1882300376892	fix_pre	0		29.0	51.0	2.5	/experiments/knapen_aot/videos/R_S_video_inspire_oregon_portland_00064.1080-h264.mp4	0.0	217.3756730556488	0.2417309284210205
53	153.4218020439148	response	0	4		51.0	2.5	/experiments/knapen_aot/videos/R_S_video_inspire_oregon_portland_00064.1080-h264.mp4	0.0	217.6092450618744	
53	153.42996096611023	movie	1		168.0	51.0	2.5	/experiments/knapen_aot/videos/R_S_video_inspire_oregon_portland_00064.1080-h264.mp4	0.0	217.61740398406982	2.50826096534729
53	155.93822193145752	fix_post	2		12.0	51.0	2.5	/experiments/knapen_aot/videos/R_S_video_inspire_oregon_portland_00064.1080-h264.mp4	0.0	220.12566494941711	0.10004401206970215
54	156.03826594352722	fix_pre	0		2.0	52.0	2.5	/experiments/knapen_aot/videos/S_yt-tneuR3EtSZE_72.mp4	0.0	220.22570896148682	0.017515182495117188
54	156.04672598838806	response	0	2		52.0	2.5	/experiments/knapen_aot/videos/S_yt-tneuR3EtSZE_72.mp4	0.0	220.23416900634766	
54	156.05578112602234	movie	1		300.0	52.0	2.5	/experiments/knapen_aot/videos/S_yt-tneuR3EtSZE_72.mp4	0.0	220.24322414398193	2.5074779987335205
54	158.56325912475586	fix_post	2		12.0	52.0	2.5	/experiments/knapen_aot/videos/S_yt-tneuR3EtSZE_72.mp4	0.0	222.75070214271545	0.10001182556152344
55	158.66327095031738	fix_pre	0		29.0	53.0	2.5	/experiments/knapen_aot/videos/S_ILSVRC2015_train_00723001.mp4	0.0	222.85071396827698	0.24167513847351074
55	158.89679789543152	response	0	4		53.0	2.5	/experiments/knapen_aot/videos/S_ILSVRC2015_train_00723001.mp4	0.0	223.0842409133911	
55	158.9049460887909	movie	1		301.0	53.0	2.5	/experiments/knapen_aot/videos/S_ILSVRC2015_train_00723001.mp4	0.0	223.0923891067505	2.5083069801330566
55	161.41325306892395	fix_post	2		12.0	53.0	2.5	/experiments/knapen_aot/videos/S_ILSVRC2015_train_00723001.mp4	0.0	225.60069608688354	0.1000359058380127
56	161.51328897476196	fix_pre	0		30.0	54.0	2.5	blank	1.0	225.70073199272156	0.24991297721862793
56	161.75510001182556	response	0	2		54.0	2.5	blank	1.0	225.94254302978516	
56	161.7632019519806	movie	1		301.0	54.0	2.5	blank	1.0	225.95064496994019	2.508350133895874
56	164.27155208587646	fix_post	2		12.0	54.0	2.5	blank	1.0	228.45899510383606	0.1000528335571289
57	164.3716049194336	fix_pre	0		91.0	55.0	2.5	/experiments/knapen_aot/videos/S_yt-f9iXELY0EJ0_344.mp4	0.0	228.5590479373932	0.7583041191101074
57	165.1217589378357	response	0	4		55.0	2.5	/experiments/knapen_aot/videos/S_yt-f9iXELY0EJ0_344.mp4	0.0	229.3092019557953	
57	165.1299090385437	movie	1		301.0	55.0	2.5	/experiments/knapen_aot/videos/S_yt-f9iXELY0EJ0_344.mp4	0.0	229.3173520565033	2.5083889961242676
57	167.63829803466797	fix_post	2		12.0	55.0	2.5	/experiments/knapen_aot/videos/S_yt-f9iXELY0EJ0_344.mp4	0.0	231.82574105262756	0.09993386268615723
58	167.73823189735413	fix_pre	0		62.0	56.0	2.5	/experiments/knapen_aot/videos/R_S_video_inspire_california_catalina_avalon_00053.1080-h264.mp4	0.0	231.92567491531372	0.516700029373169
58	168.2467439174652	response	0	2		56.0	2.5	/experiments/knapen_aot/videos/R_S_video_inspire_california_catalina_avalon_00053.1080-h264.mp4	0.0	232.4341869354248	
58	168.2549319267273	movie	1		173.0	56.0	2.5	/experiments/knapen_aot/videos/R_S_video_inspire_california_catalina_avalon_00053.1080-h264.mp4	0.0	232.4423749446869	2.508350133895874
58	170.76328206062317	fix_post	2		12.0	56.0	2.5	/experiments/knapen_aot/videos/R_S_video_inspire_california_catalina_avalon_00053.1080-h264.mp4	0.0	234.95072507858276	0.09997296333312988
58	170.8317289352417	response	2	4		56.0	2.5	/experiments/knapen_aot/videos/R_S_video_inspire_california_catalina_avalon_00053.1080-h264.mp4	0.0	235.0191719532013	
59	170.8632550239563	fix_pre	0		46.0	57.0	2.5	/experiments/knapen_aot/videos/S_yt-c5KPuyzO-50_4.mp4	0.0	235.0506980419159	0.3839240074157715
59	171.23826694488525	response	0	4		57.0	2.5	/experiments/knapen_aot/videos/S_yt-c5KPuyzO-50_4.mp4	0.0	235.42570996284485	
59	171.24717903137207	movie	1		301.0	57.0	2.5	/experiments/knapen_aot/videos/S_yt-c5KPuyzO-50_4.mp4	0.0	235.43462204933167	2.507694959640503
59	173.75487399101257	fix_post	2		12.0	57.0	2.5	/experiments/knapen_aot/videos/S_yt-c5KPuyzO-50_4.mp4	0.0	237.94231700897217	0.10006594657897949
60	173.85493993759155	fix_pre	0		24.0	58.0	2.5	/experiments/knapen_aot/videos/R_S_Y004_C015_SDR_2K_AVC.mp4	0.0	238.04238295555115	0.19983196258544922
60	174.04670691490173	response	0	2		58.0	2.5	/experiments/knapen_aot/videos/R_S_Y004_C015_SDR_2K_AVC.mp4	0.0	238.23414993286133	
60	174.054771900177	movie	1		169.0	58.0	2.5	/experiments/knapen_aot/videos/R_S_Y004_C015_SDR_2K_AVC.mp4	0.0	238.2422149181366	2.5084331035614014
60	176.5632050037384	fix_post	2		12.0	58.0	2.5	/experiments/knapen_aot/videos/R_S_Y004_C015_SDR_2K_AVC.mp4	0.0	240.750648021698	0.10007691383361816
61	176.66328191757202	fix_pre	0		10.0	59.0	2.5	/experiments/knapen_aot/videos/R_S_comp_HK_H004_C013_t9_6M_HB_tag0.mp4	0.0	240.85072493553162	0.08383917808532715
61	176.73831605911255	response	0	4		59.0	2.5	/experiments/knapen_aot/videos/R_S_comp_HK_H004_C013_t9_6M_HB_tag0.mp4	0.0	240.92575907707214	
61	176.74712109565735	movie	1		172.0	59.0	2.5	/experiments/knapen_aot/videos/R_S_comp_HK_H004_C013_t9_6M_HB_tag0.mp4	0.0	240.93456411361694	2.5077309608459473
61	179.2548520565033	fix_post	2		12.0	59.0	2.5	/experiments/knapen_aot/videos/R_S_comp_HK_H004_C013_t9_6M_HB_tag0.mp4	0.0	243.4422950744629	0.10000991821289062
62	179.3548619747162	fix_pre	0		22.0	60.0	2.5	/experiments/knapen_aot/videos/S_comp_A012_C014_1223PT_v53_SDR_PS_FINAL_20180709_F0F8700_SDR_2K_AVC.mp4	0.0	243.54230499267578	0.183912992477417
62	179.52990102767944	response	0	2		60.0	2.5	/experiments/knapen_aot/videos/S_comp_A012_C014_1223PT_v53_SDR_PS_FINAL_20180709_F0F8700_SDR_2K_AVC.mp4	0.0	243.71734404563904	
62	179.5387749671936	movie	1		165.0	60.0	2.5	/experiments/knapen_aot/videos/S_comp_A012_C014_1223PT_v53_SDR_PS_FINAL_20180709_F0F8700_SDR_2K_AVC.mp4	0.0	243.7262179851532	2.5078139305114746
62	182.04658889770508	fix_post	2		12.0	60.0	2.5	/experiments/knapen_aot/videos/S_comp_A012_C014_1223PT_v53_SDR_PS_FINAL_20180709_F0F8700_SDR_2K_AVC.mp4	0.0	246.23403191566467	0.09999203681945801
63	182.14658093452454	fix_pre	0		21.0	61.0	2.5	blank	1.0	246.33402395248413	0.17494606971740723
63	182.30582308769226	response	0	4		61.0	2.5	blank	1.0	246.49326610565186	
63	182.32152700424194	movie	1		301.0	61.0	2.5	blank	1.0	246.50897002220154	2.5083749294281006
63	184.82990193367004	fix_post	2		12.0	61.0	2.5	blank	1.0	249.01734495162964	0.0999910831451416
64	184.92989301681519	fix_pre	0		25.0	62.0	2.5	/experiments/knapen_aot/videos/R_S_yt-f9iXELY0EJ0_344.mp4	0.0	249.11733603477478	0.2082350254058838
64	185.12997889518738	response	0	2		62.0	2.5	/experiments/knapen_aot/videos/R_S_yt-f9iXELY0EJ0_344.mp4	0.0	249.31742191314697	
64	185.13812804222107	movie	1		301.0	62.0	2.5	/experiments/knapen_aot/videos/R_S_yt-f9iXELY0EJ0_344.mp4	0.0	249.32557106018066	2.5083670616149902
64	187.64649510383606	fix_post	2		12.0	62.0	2.5	/experiments/knapen_aot/videos/R_S_yt-f9iXELY0EJ0_344.mp4	0.0	251.83393812179565	0.10004091262817383
65	187.74653601646423	fix_pre	0		54.0	63.0	2.5	/experiments/knapen_aot/videos/R_S_yt-B8Sy53C6Pxw_8.mp4	0.0	251.93397903442383	0.44994401931762695
65	188.1883261203766	response	0	2		63.0	2.5	/experiments/knapen_aot/videos/R_S_yt-B8Sy53C6Pxw_8.mp4	0.0	252.37576913833618	
65	188.19648003578186	movie	1		301.0	63.0	2.5	/experiments/knapen_aot/videos/R_S_yt-B8Sy53C6Pxw_8.mp4	0.0	252.38392305374146	2.5083160400390625
65	190.70479607582092	fix_post	2		12.0	63.0	2.5	/experiments/knapen_aot/videos/R_S_yt-B8Sy53C6Pxw_8.mp4	0.0	254.89223909378052	0.10003185272216797
66	190.8048279285431	fix_pre	0		36.0	64.0	2.5	/experiments/knapen_aot/videos/R_S_yt-x7TqP8l4lCA_39.mp4	0.0	254.99227094650269	0.299976110458374
66	191.0966820716858	response	0	2		64.0	2.5	/experiments/knapen_aot/videos/R_S_yt-x7TqP8l4lCA_39.mp4	0.0	255.28412508964539	
66	191.10480403900146	movie	1		301.0	64.0	2.5	/experiments/knapen_aot/videos/R_S_yt-x7TqP8l4lCA_39.mp4	0.0	255.29224705696106	2.508445978164673
66	193.61325001716614	fix_post	2		12.0	64.0	2.5	/experiments/knapen_aot/videos/R_S_yt-x7TqP8l4lCA_39.mp4	0.0	257.80069303512573	0.09988093376159668
67	193.71313095092773	fix_pre	0		75.0	65.0	2.5	/experiments/knapen_aot/videos/R_S_ILSVRC2015_train_00450001.mp4	0.0	257.90057396888733	0.6249771118164062
67	194.32995009422302	response	0	4		65.0	2.5	/experiments/knapen_aot/videos/R_S_ILSVRC2015_train_00450001.mp4	0.0	258.5173931121826	
67	194.33810806274414	movie	1		301.0	65.0	2.5	/experiments/knapen_aot/videos/R_S_ILSVRC2015_train_00450001.mp4	0.0	258.52555108070374	2.508417844772339
67	196.84652590751648	fix_post	2		12.0	65.0	2.5	/experiments/knapen_aot/videos/R_S_ILSVRC2015_train_00450001.mp4	0.0	261.0339689254761	0.09996414184570312
68	196.94649004936218	fix_pre	0		37.0	66.0	2.5	/experiments/knapen_aot/videos/R_S_yt-2WPmM2vIuBE_41.mp4	0.0	261.1339330673218	0.3083009719848633
68	197.2465579509735	response	0	2		66.0	2.5	/experiments/knapen_aot/videos/R_S_yt-2WPmM2vIuBE_41.mp4	0.0	261.4340009689331	
68	197.25479102134705	movie	1		301.0	66.0	2.5	/experiments/knapen_aot/videos/R_S_yt-2WPmM2vIuBE_41.mp4	0.0	261.44223403930664	2.508333921432495
68	199.76312494277954	fix_post	2		11.0	66.0	2.5	/experiments/knapen_aot/videos/R_S_yt-2WPmM2vIuBE_41.mp4	0.0	263.95056796073914	0.10008597373962402
69	199.86321091651917	fix_pre	0		31.0	67.0	2.5	/experiments/knapen_aot/videos/R_S_yt-tEzCpMrjOHs_24.mp4	0.0	264.05065393447876	0.2586710453033447
69	200.11329412460327	response	0	2		67.0	2.5	/experiments/knapen_aot/videos/R_S_yt-tEzCpMrjOHs_24.mp4	0.0	264.30073714256287	
69	200.1218819618225	movie	1		301.0	67.0	2.5	/experiments/knapen_aot/videos/R_S_yt-tEzCpMrjOHs_24.mp4	0.0	264.3093249797821	2.507925033569336
69	202.62980699539185	fix_post	2		12.0	67.0	2.5	/experiments/knapen_aot/videos/R_S_yt-tEzCpMrjOHs_24.mp4	0.0	266.81725001335144	0.09998703002929688
70	202.72979402542114	fix_pre	0		30.0	68.0	2.5	/experiments/knapen_aot/videos/S_yt-F2x6e7e7cAE_70.mp4	0.0	266.91723704338074	0.24990606307983398
70	202.97157192230225	response	0	4		68.0	2.5	/experiments/knapen_aot/videos/S_yt-F2x6e7e7cAE_70.mp4	0.0	267.15901494026184	
70	202.97970008850098	movie	1		301.0	68.0	2.5	/experiments/knapen_aot/videos/S_yt-F2x6e7e7cAE_70.mp4	0.0	267.16714310646057	2.508375883102417
70	205.4880759716034	fix_post	2		12.0	68.0	2.5	/experiments/knapen_aot/videos/S_yt-F2x6e7e7cAE_70.mp4	0.0	269.675518989563	0.10003209114074707
71	205.58810806274414	fix_pre	0		24.0	69.0	2.5	blank	1.0	269.77555108070374	0.20052695274353027
71	205.77987790107727	response	0	2		69.0	2.5	blank	1.0	269.96732091903687	
71	205.78863501548767	movie	1		301.0	69.0	2.5	blank	1.0	269.97607803344727	2.5077590942382812
71	208.29639410972595	fix_post	2		12.0	69.0	2.5	blank	1.0	272.48383712768555	0.10003995895385742
72	208.3964340686798	fix_pre	0		25.0	70.0	2.5	/experiments/knapen_aot/videos/S_yt-Q6BFO3Yz0zY_363.mp4	0.0	272.5838770866394	0.20832300186157227
72	208.59653997421265	response	0	2		70.0	2.5	/experiments/knapen_aot/videos/S_yt-Q6BFO3Yz0zY_363.mp4	0.0	272.78398299217224	
72	208.60475707054138	movie	1		299.0	70.0	2.5	/experiments/knapen_aot/videos/S_yt-Q6BFO3Yz0zY_363.mp4	0.0	272.792200088501	2.508352041244507
72	211.1131091117859	fix_post	2		12.0	70.0	2.5	/experiments/knapen_aot/videos/S_yt-Q6BFO3Yz0zY_363.mp4	0.0	275.3005521297455	0.09998393058776855
73	211.21309304237366	fix_pre	0		13.0	71.0	2.5	/experiments/knapen_aot/videos/R_S_wc-hmW1OnCPF_xn_37.mp4	0.0	275.40053606033325	0.10828804969787598
73	211.3131821155548	response	0	2		71.0	2.5	/experiments/knapen_aot/videos/R_S_wc-hmW1OnCPF_xn_37.mp4	0.0	275.5006251335144	
73	211.32138109207153	movie	1		169.0	71.0	2.5	/experiments/knapen_aot/videos/R_S_wc-hmW1OnCPF_xn_37.mp4	0.0	275.5088241100311	2.5083558559417725
73	213.8297369480133	fix_post	2		12.0	71.0	2.5	/experiments/knapen_aot/videos/R_S_wc-hmW1OnCPF_xn_37.mp4	0.0	278.0171799659729	0.10003304481506348
74	213.92976999282837	fix_pre	0		15.0	72.0	2.5	/experiments/knapen_aot/videos/R_S_b3TCugtX0h0_108.mp4	0.0	278.11721301078796	0.12495803833007812
74	214.04645800590515	response	0	2		72.0	2.5	/experiments/knapen_aot/videos/R_S_b3TCugtX0h0_108.mp4	0.0	278.23390102386475	
74	214.05472803115845	movie	1		301.0	72.0	2.5	/experiments/knapen_aot/videos/R_S_b3TCugtX0h0_108.mp4	0.0	278.24217104911804	2.508347988128662
74	216.5630760192871	fix_post	2		12.0	72.0	2.5	/experiments/knapen_aot/videos/R_S_b3TCugtX0h0_108.mp4	0.0	280.7505190372467	0.10037899017333984
75	216.66345500946045	fix_pre	0		20.0	73.0	2.5	/experiments/knapen_aot/videos/R_S_comp_HK_H004_C008_PSNK_v19_SDR_PS_20180914_SDR_2K_AVC.mp4	0.0	280.85089802742004	0.1666259765625
75	216.82152605056763	response	0	2		73.0	2.5	/experiments/knapen_aot/videos/R_S_comp_HK_H004_C008_PSNK_v19_SDR_PS_20180914_SDR_2K_AVC.mp4	0.0	281.0089690685272	
75	216.83008098602295	movie	1		169.0	73.0	2.5	/experiments/knapen_aot/videos/R_S_comp_HK_H004_C008_PSNK_v19_SDR_PS_20180914_SDR_2K_AVC.mp4	0.0	281.01752400398254	2.5079610347747803
75	219.33804202079773	fix_post	2		12.0	73.0	2.5	/experiments/knapen_aot/videos/R_S_comp_HK_H004_C008_PSNK_v19_SDR_PS_20180914_SDR_2K_AVC.mp4	0.0	283.5254850387573	0.10005688667297363
76	219.4380989074707	fix_pre	0		12.0	74.0	2.5	/experiments/knapen_aot/videos/S_yt-bwSRV1Vr21s_435.mp4	0.0	283.6255419254303	0.10031914710998535
76	219.52982091903687	response	0	2		74.0	2.5	/experiments/knapen_aot/videos/S_yt-bwSRV1Vr21s_435.mp4	0.0	283.71726393699646	
76	219.5384180545807	movie	1		301.0	74.0	2.5	/experiments/knapen_aot/videos/S_yt-bwSRV1Vr21s_435.mp4	0.0	283.7258610725403	2.5080089569091797
76	222.04642701148987	fix_post	2		12.0	74.0	2.5	/experiments/knapen_aot/videos/S_yt-bwSRV1Vr21s_435.mp4	0.0	286.23387002944946	0.09991288185119629
77	222.14633989334106	fix_pre	0		22.0	75.0	2.5	/experiments/knapen_aot/videos/S_yt-q9-_bG9ry3E_5.mp4	0.0	286.33378291130066	0.18367314338684082
77	222.3214681148529	response	0	2		75.0	2.5	/experiments/knapen_aot/videos/S_yt-q9-_bG9ry3E_5.mp4	0.0	286.5089111328125	
77	222.3300130367279	movie	1		301.0	75.0	2.5	/experiments/knapen_aot/videos/S_yt-q9-_bG9ry3E_5.mp4	0.0	286.5174560546875	2.5080480575561523
77	224.83806109428406	fix_post	2		12.0	75.0	2.5	/experiments/knapen_aot/videos/S_yt-q9-_bG9ry3E_5.mp4	0.0	289.02550411224365	0.09999990463256836
78	224.93806099891663	fix_pre	0		54.0	76.0	2.5	blank	1.0	289.1255040168762	0.45000290870666504
78	225.37981700897217	response	0	2		76.0	2.5	blank	1.0	289.56726002693176	
78	225.3880639076233	movie	1		301.0	76.0	2.5	blank	1.0	289.5755069255829	2.5082850456237793
78	227.89634895324707	fix_post	2		12.0	76.0	2.5	blank	1.0	292.08379197120667	0.10041594505310059
79	227.99676489830017	fix_pre	0		22.0	77.0	2.5	/experiments/knapen_aot/videos/S_yt-cgwHIb9LAFc_336.mp4	0.0	292.18420791625977	0.18291902542114258
79	228.17139410972595	response	0	2		77.0	2.5	/experiments/knapen_aot/videos/S_yt-cgwHIb9LAFc_336.mp4	0.0	292.35883712768555	
79	228.1796839237213	movie	1		300.0	77.0	2.5	/experiments/knapen_aot/videos/S_yt-cgwHIb9LAFc_336.mp4	0.0	292.3671269416809	2.5083401203155518
79	230.68802404403687	fix_post	2		11.0	77.0	2.5	/experiments/knapen_aot/videos/S_yt-cgwHIb9LAFc_336.mp4	0.0	294.87546706199646	0.09993290901184082
80	230.7879569530487	fix_pre	0		13.0	78.0	2.5	/experiments/knapen_aot/videos/S_yt-rB3YVZvA78w_20.mp4	0.0	294.9753999710083	0.10835814476013184
80	230.88809299468994	response	0	2		78.0	2.5	/experiments/knapen_aot/videos/S_yt-rB3YVZvA78w_20.mp4	0.0	295.07553601264954	
80	230.89631509780884	movie	1		301.0	78.0	2.5	/experiments/knapen_aot/videos/S_yt-rB3YVZvA78w_20.mp4	0.0	295.08375811576843	2.5083060264587402
80	233.40462112426758	fix_post	2		12.0	78.0	2.5	/experiments/knapen_aot/videos/S_yt-rB3YVZvA78w_20.mp4	0.0	297.5920641422272	0.09993886947631836
81	233.5045599937439	fix_pre	0		20.0	79.0	2.5	/experiments/knapen_aot/videos/S_yt-Xegmd8whqBs_230.mp4	0.0	297.6920030117035	0.16675305366516113
81	233.66312313079834	response	0	2		79.0	2.5	/experiments/knapen_aot/videos/S_yt-Xegmd8whqBs_230.mp4	0.0	297.85056614875793	
81	233.67131304740906	movie	1		301.0	79.0	2.5	/experiments/knapen_aot/videos/S_yt-Xegmd8whqBs_230.mp4	0.0	297.85875606536865	2.508297920227051
81	236.1796109676361	fix_post	2		12.0	79.0	2.5	/experiments/knapen_aot/videos/S_yt-Xegmd8whqBs_230.mp4	0.0	300.3670539855957	0.10009503364562988
82	236.27970600128174	fix_pre	0		29.0	80.0	2.5	/experiments/knapen_aot/videos/R_S_yt-7XDVHp75fu4_93.mp4	0.0	300.46714901924133	0.24156498908996582
82	236.5130569934845	response	0	2		80.0	2.5	/experiments/knapen_aot/videos/R_S_yt-7XDVHp75fu4_93.mp4	0.0	300.7005000114441	
82	236.5212709903717	movie	1		301.0	80.0	2.5	/experiments/knapen_aot/videos/R_S_yt-7XDVHp75fu4_93.mp4	0.0	300.7087140083313	2.5084269046783447
82	239.02969789505005	fix_post	2		12.0	80.0	2.5	/experiments/knapen_aot/videos/R_S_yt-7XDVHp75fu4_93.mp4	0.0	303.21714091300964	0.09998917579650879
83	239.12968707084656	fix_pre	0		54.0	81.0	2.5	/experiments/knapen_aot/videos/R_S_CR_A009_C007_SDR_20191113_SDR_2K_AVC.mp4	0.0	303.31713008880615	0.4501838684082031
83	239.57140398025513	response	0	2		81.0	2.5	/experiments/knapen_aot/videos/R_S_CR_A009_C007_SDR_20191113_SDR_2K_AVC.mp4	0.0	303.7588469982147	
83	239.57987093925476	movie	1		163.0	81.0	2.5	/experiments/knapen_aot/videos/R_S_CR_A009_C007_SDR_20191113_SDR_2K_AVC.mp4	0.0	303.76731395721436	2.5080831050872803
83	242.08795404434204	fix_post	2		12.0	81.0	2.5	/experiments/knapen_aot/videos/R_S_CR_A009_C007_SDR_20191113_SDR_2K_AVC.mp4	0.0	306.27539706230164	0.09997987747192383
84	242.18793392181396	fix_pre	0		61.0	82.0	2.5	/experiments/knapen_aot/videos/S_yt-11VGDAOVEag_8.mp4	0.0	306.37537693977356	0.5083701610565186
84	242.68810606002808	response	0	2		82.0	2.5	/experiments/knapen_aot/videos/S_yt-11VGDAOVEag_8.mp4	0.0	306.87554907798767	
84	242.69630408287048	movie	1		301.0	82.0	2.5	/experiments/knapen_aot/videos/S_yt-11VGDAOVEag_8.mp4	0.0	306.8837471008301	2.5083069801330566
84	245.20461106300354	fix_post	2		12.0	82.0	2.5	/experiments/knapen_aot/videos/S_yt-11VGDAOVEag_8.mp4	0.0	309.39205408096313	0.10002589225769043
85	245.30463695526123	fix_pre	0		34.0	83.0	2.5	blank	1.0	309.4920799732208	0.28333401679992676
85	245.57973909378052	response	0	2		83.0	2.5	blank	1.0	309.7671821117401	
85	245.58797097206116	movie	1		301.0	83.0	2.5	blank	1.0	309.77541399002075	2.508329153060913
85	248.09630012512207	fix_post	2		12.0	83.0	2.5	blank	1.0	312.28374314308167	0.09999489784240723
87	248.19629502296448	stim	0		109.0					312.3837380409241	0.91131591796875
87	248.47969698905945	response	0	2						312.66714000701904	
87	249.10028195381165	response	0	space						313.28772497177124	
