trial_nr	onset	event_type	phase	response	nr_frames	movie_index	movie_duration	movie_file	blank	onset_abs	duration
0	0.13364005088806152	stim	0		653.0					80.5986020565033	5.440891981124878
0	5.5662620067596436	response	0	space						86.03122401237488	
1	5.5745320320129395	stim	0		121.0					86.03949403762817	1.008354902267456
1	6.5828869342803955	stim	1		120.0					87.04784893989563	0.9999620914459229
2	7.582849025726318	fix_pre	0		248.0	0.0	2.5	/experiments/knapen_aot/videos/R_S_yt-AbJBxqEYoMg_27.mp4	0.0	88.04781103134155	2.066642999649048
2	9.64132285118103	response	0	space		0.0	2.5	/experiments/knapen_aot/videos/R_S_yt-AbJBxqEYoMg_27.mp4	0.0	90.10628485679626	
2	9.649492025375366	movie	1		300.0	0.0	2.5	/experiments/knapen_aot/videos/R_S_yt-AbJBxqEYoMg_27.mp4	0.0	90.1144540309906	2.5084969997406006
2	12.157989025115967	fix_post	2		12.0	0.0	2.5	/experiments/knapen_aot/videos/R_S_yt-AbJBxqEYoMg_27.mp4	0.0	92.6229510307312	0.09991288185119629
3	12.257901906967163	fix_pre	0		183.0	1.0	2.5	/experiments/knapen_aot/videos/R_S_yt-GjFQxAklviE_25.mp4	0.0	92.7228639125824	1.524928092956543
3	13.774707078933716	response	0	space		1.0	2.5	/experiments/knapen_aot/videos/R_S_yt-GjFQxAklviE_25.mp4	0.0	94.23966908454895	
3	13.782829999923706	movie	1		301.0	1.0	2.5	/experiments/knapen_aot/videos/R_S_yt-GjFQxAklviE_25.mp4	0.0	94.24779200553894	2.50848388671875
3	16.291313886642456	fix_post	2		12.0	1.0	2.5	/experiments/knapen_aot/videos/R_S_yt-GjFQxAklviE_25.mp4	0.0	96.75627589225769	0.0999000072479248
4	16.39121389389038	fix_pre	0		249.0	2.0	2.5	/experiments/knapen_aot/videos/S_pexels-kindel-media-8165572.mp4	0.0	96.85617589950562	2.0749599933624268
4	18.458001852035522	response	0	space		2.0	2.5	/experiments/knapen_aot/videos/S_pexels-kindel-media-8165572.mp4	0.0	98.92296385765076	
4	18.466173887252808	movie	1		165.0	2.0	2.5	/experiments/knapen_aot/videos/S_pexels-kindel-media-8165572.mp4	0.0	98.93113589286804	2.508500099182129
4	20.974673986434937	fix_post	2		12.0	2.0	2.5	/experiments/knapen_aot/videos/S_pexels-kindel-media-8165572.mp4	0.0	101.43963599205017	0.09991598129272461
5	21.07458996772766	fix_pre	0		197.0	3.0	2.5	/experiments/knapen_aot/videos/S_IrGYVLkWeQs_9.mp4	0.0	101.5395519733429	1.6415889263153076
5	22.70801591873169	response	0	space		3.0	2.5	/experiments/knapen_aot/videos/S_IrGYVLkWeQs_9.mp4	0.0	103.17297792434692	
5	22.71617889404297	movie	1		301.0	3.0	2.5	/experiments/knapen_aot/videos/S_IrGYVLkWeQs_9.mp4	0.0	103.1811408996582	2.5084080696105957
5	25.224586963653564	fix_post	2		12.0	3.0	2.5	/experiments/knapen_aot/videos/S_IrGYVLkWeQs_9.mp4	0.0	105.6895489692688	0.09995007514953613
6	25.3245370388031	fix_pre	0		148.0	4.0	2.5	/experiments/knapen_aot/videos/R_S_yt-uSHBdUi8_V0_24.mp4	0.0	105.78949904441833	1.2333879470825195
6	26.549726009368896	response	0	space		4.0	2.5	/experiments/knapen_aot/videos/R_S_yt-uSHBdUi8_V0_24.mp4	0.0	107.01468801498413	
6	26.55792498588562	movie	1		301.0	4.0	2.5	/experiments/knapen_aot/videos/R_S_yt-uSHBdUi8_V0_24.mp4	0.0	107.02288699150085	2.5082740783691406
6	29.06619906425476	fix_post	2		12.0	4.0	2.5	/experiments/knapen_aot/videos/R_S_yt-uSHBdUi8_V0_24.mp4	0.0	109.53116106987	0.09989190101623535
7	29.166090965270996	fix_pre	0		181.0	5.0	2.5	/experiments/knapen_aot/videos/S_yt-dO0OuozAgt0_225.mp4	0.0	109.63105297088623	1.5084059238433838
7	30.666259050369263	response	0	space		5.0	2.5	/experiments/knapen_aot/videos/S_yt-dO0OuozAgt0_225.mp4	0.0	111.1312210559845	
7	30.67449688911438	movie	1		301.0	5.0	2.5	/experiments/knapen_aot/videos/S_yt-dO0OuozAgt0_225.mp4	0.0	111.13945889472961	2.5084950923919678
7	33.18299198150635	fix_post	2		12.0	5.0	2.5	/experiments/knapen_aot/videos/S_yt-dO0OuozAgt0_225.mp4	0.0	113.64795398712158	0.09988689422607422
8	33.28287887573242	fix_pre	0		176.0	6.0	2.5	blank	1.0	113.74784088134766	1.4674961566925049
8	34.741244077682495	response	0	space		6.0	2.5	blank	1.0	115.20620608329773	
8	34.75037503242493	movie	1		301.0	6.0	2.5	blank	1.0	115.21533703804016	2.5074679851531982
8	37.257843017578125	fix_post	2		12.0	6.0	2.5	blank	1.0	117.72280502319336	0.09990406036376953
9	37.357747077941895	fix_pre	0		135.0	7.0	2.5	/experiments/knapen_aot/videos/R_S_pexels-laker-5793000.mp4	0.0	117.82270908355713	1.124983787536621
9	38.47451591491699	response	0	space		7.0	2.5	/experiments/knapen_aot/videos/R_S_pexels-laker-5793000.mp4	0.0	118.93947792053223	
9	38.482730865478516	movie	1		164.0	7.0	2.5	/experiments/knapen_aot/videos/R_S_pexels-laker-5793000.mp4	0.0	118.94769287109375	2.5083820819854736
9	40.99111294746399	fix_post	2		12.0	7.0	2.5	/experiments/knapen_aot/videos/R_S_pexels-laker-5793000.mp4	0.0	121.45607495307922	0.10041213035583496
10	41.091525077819824	fix_pre	0		146.0	8.0	2.5	/experiments/knapen_aot/videos/R_S_pexels-tima-miroshnichenko-8724308.mp4	0.0	121.55648708343506	1.2161848545074463
10	42.29955005645752	response	0	space		8.0	2.5	/experiments/knapen_aot/videos/R_S_pexels-tima-miroshnichenko-8724308.mp4	0.0	122.76451206207275	
10	42.30770993232727	movie	1		194.0	8.0	2.5	/experiments/knapen_aot/videos/R_S_pexels-tima-miroshnichenko-8724308.mp4	0.0	122.7726719379425	2.508553981781006
10	44.816263914108276	fix_post	2		12.0	8.0	2.5	/experiments/knapen_aot/videos/R_S_pexels-tima-miroshnichenko-8724308.mp4	0.0	125.28122591972351	0.09981298446655273
11	44.91607689857483	fix_pre	0		188.0	9.0	2.5	/experiments/knapen_aot/videos/S_yt-K_gHa2x2OQA_319.mp4	0.0	125.38103890419006	1.5666170120239258
11	46.474485874176025	response	0	space		9.0	2.5	/experiments/knapen_aot/videos/S_yt-K_gHa2x2OQA_319.mp4	0.0	126.93944787979126	
11	46.482693910598755	movie	1		301.0	9.0	2.5	/experiments/knapen_aot/videos/S_yt-K_gHa2x2OQA_319.mp4	0.0	126.94765591621399	2.5083730220794678
11	48.99106693267822	fix_post	2		12.0	9.0	2.5	/experiments/knapen_aot/videos/S_yt-K_gHa2x2OQA_319.mp4	0.0	129.45602893829346	0.10005903244018555
12	49.09112596511841	fix_pre	0		160.0	10.0	2.5	/experiments/knapen_aot/videos/S_pexels-mikhail-nilov-8410084.mp4	0.0	129.55608797073364	1.3332269191741943
12	50.41614007949829	response	0	space		10.0	2.5	/experiments/knapen_aot/videos/S_pexels-mikhail-nilov-8410084.mp4	0.0	130.88110208511353	
12	50.4243528842926	movie	1		168.0	10.0	2.5	/experiments/knapen_aot/videos/S_pexels-mikhail-nilov-8410084.mp4	0.0	130.88931488990784	2.5084691047668457
12	52.93282198905945	fix_post	2		12.0	10.0	2.5	/experiments/knapen_aot/videos/S_pexels-mikhail-nilov-8410084.mp4	0.0	133.39778399467468	0.09995198249816895
13	53.03277397155762	fix_pre	0		101.0	11.0	2.5	/experiments/knapen_aot/videos/S_yt-Jo6PxivsTOg_247.mp4	0.0	133.49773597717285	0.8424129486083984
13	53.866127014160156	response	0	space		11.0	2.5	/experiments/knapen_aot/videos/S_yt-Jo6PxivsTOg_247.mp4	0.0	134.3310890197754	
13	53.875186920166016	movie	1		301.0	11.0	2.5	/experiments/knapen_aot/videos/S_yt-Jo6PxivsTOg_247.mp4	0.0	134.34014892578125	2.5077121257781982
13	56.382899045944214	fix_post	2		12.0	11.0	2.5	/experiments/knapen_aot/videos/S_yt-Jo6PxivsTOg_247.mp4	0.0	136.84786105155945	0.09985089302062988
14	56.482749938964844	fix_pre	0		113.0	12.0	2.5	/experiments/knapen_aot/videos/S_yt-F3hhts3bwWg_25.mp4	0.0	136.94771194458008	0.9416239261627197
14	57.41609287261963	response	0	space		12.0	2.5	/experiments/knapen_aot/videos/S_yt-F3hhts3bwWg_25.mp4	0.0	137.88105487823486	
14	57.42437386512756	movie	1		301.0	12.0	2.5	/experiments/knapen_aot/videos/S_yt-F3hhts3bwWg_25.mp4	0.0	137.8893358707428	2.508371114730835
14	59.9327449798584	fix_post	2		12.0	12.0	2.5	/experiments/knapen_aot/videos/S_yt-F3hhts3bwWg_25.mp4	0.0	140.39770698547363	0.09989809989929199
15	60.03264307975769	fix_pre	0		148.0	13.0	2.5	/experiments/knapen_aot/videos/R_S_yt-6aqg1P9YqR8_38.mp4	0.0	140.49760508537292	1.233332872390747
15	61.25780987739563	response	0	space		13.0	2.5	/experiments/knapen_aot/videos/R_S_yt-6aqg1P9YqR8_38.mp4	0.0	141.72277188301086	
15	61.26597595214844	movie	1		301.0	13.0	2.5	/experiments/knapen_aot/videos/R_S_yt-6aqg1P9YqR8_38.mp4	0.0	141.73093795776367	2.5083940029144287
15	63.774369955062866	fix_post	2		12.0	13.0	2.5	/experiments/knapen_aot/videos/R_S_yt-6aqg1P9YqR8_38.mp4	0.0	144.2393319606781	0.10009598731994629
16	63.87446594238281	fix_pre	0		152.0	14.0	2.5	blank	1.0	144.33942794799805	1.2664051055908203
16	65.13279390335083	response	0	space		14.0	2.5	blank	1.0	145.59775590896606	
16	65.14087104797363	movie	1		301.0	14.0	2.5	blank	1.0	145.60583305358887	2.5085339546203613
16	67.649405002594	fix_post	2		12.0	14.0	2.5	blank	1.0	148.11436700820923	0.09994006156921387
17	67.74934506416321	fix_pre	0		139.0	15.0	2.5	/experiments/knapen_aot/videos/R_S_yt-BAQ3Xhm_PPE_23.mp4	0.0	148.21430706977844	1.1582558155059814
17	68.89932584762573	response	0	space		15.0	2.5	/experiments/knapen_aot/videos/R_S_yt-BAQ3Xhm_PPE_23.mp4	0.0	149.36428785324097	
17	68.90760087966919	movie	1		301.0	15.0	2.5	/experiments/knapen_aot/videos/R_S_yt-BAQ3Xhm_PPE_23.mp4	0.0	149.37256288528442	2.5084710121154785
17	71.41607189178467	fix_post	2		12.0	15.0	2.5	/experiments/knapen_aot/videos/R_S_yt-BAQ3Xhm_PPE_23.mp4	0.0	151.8810338973999	0.09994196891784668
18	71.51601386070251	fix_pre	0		138.0	16.0	2.5	/experiments/knapen_aot/videos/R_S_yt-sPhtPyQM00c_106.mp4	0.0	151.98097586631775	1.1507511138916016
18	72.65776801109314	response	0	space		16.0	2.5	/experiments/knapen_aot/videos/R_S_yt-sPhtPyQM00c_106.mp4	0.0	153.12273001670837	
18	72.66676497459412	movie	1		301.0	16.0	2.5	/experiments/knapen_aot/videos/R_S_yt-sPhtPyQM00c_106.mp4	0.0	153.13172698020935	2.507517099380493
18	75.17428207397461	fix_post	2		12.0	16.0	2.5	/experiments/knapen_aot/videos/R_S_yt-sPhtPyQM00c_106.mp4	0.0	155.63924407958984	0.10000991821289062
19	75.2742919921875	fix_pre	0		151.0	17.0	2.5	/experiments/knapen_aot/videos/S_yt-mL3MuCfKtdY_79.mp4	0.0	155.73925399780273	1.258331060409546
19	76.5243489742279	response	0	space		17.0	2.5	/experiments/knapen_aot/videos/S_yt-mL3MuCfKtdY_79.mp4	0.0	156.98931097984314	
19	76.53262305259705	movie	1		301.0	17.0	2.5	/experiments/knapen_aot/videos/S_yt-mL3MuCfKtdY_79.mp4	0.0	156.99758505821228	2.508291006088257
19	79.0409140586853	fix_post	2		12.0	17.0	2.5	/experiments/knapen_aot/videos/S_yt-mL3MuCfKtdY_79.mp4	0.0	159.50587606430054	0.10004901885986328
20	79.14096307754517	fix_pre	0		102.0	18.0	2.5	/experiments/knapen_aot/videos/S_yt-qurTr1BJMec_244.mp4	0.0	159.6059250831604	0.8499329090118408
20	79.98284196853638	response	0	space		18.0	2.5	/experiments/knapen_aot/videos/S_yt-qurTr1BJMec_244.mp4	0.0	160.4478039741516	
20	79.990895986557	movie	1		301.0	18.0	2.5	/experiments/knapen_aot/videos/S_yt-qurTr1BJMec_244.mp4	0.0	160.45585799217224	2.5083699226379395
20	82.49926590919495	fix_post	2		12.0	18.0	2.5	/experiments/knapen_aot/videos/S_yt-qurTr1BJMec_244.mp4	0.0	162.96422791481018	0.10031414031982422
21	82.59958004951477	fix_pre	0		123.0	19.0	2.5	blank	1.0	163.06454205513	1.0253098011016846
21	83.60847306251526	response	0	space		19.0	2.5	blank	1.0	164.0734350681305	
21	83.62488985061646	movie	1		301.0	19.0	2.5	blank	1.0	164.0898518562317	2.5077102184295654
21	86.13260006904602	fix_post	2		12.0	19.0	2.5	blank	1.0	166.59756207466125	0.09987497329711914
22	86.23247504234314	fix_pre	0		75.0	20.0	2.5	/experiments/knapen_aot/videos/R_S_ILSVRC2015_train_00165009.mp4	0.0	166.69743704795837	0.6250848770141602
22	86.84934592247009	response	0	space		20.0	2.5	/experiments/knapen_aot/videos/R_S_ILSVRC2015_train_00165009.mp4	0.0	167.31430792808533	
22	86.8575599193573	movie	1		301.0	20.0	2.5	/experiments/knapen_aot/videos/R_S_ILSVRC2015_train_00165009.mp4	0.0	167.32252192497253	2.5083460807800293
22	89.36590600013733	fix_post	2		12.0	20.0	2.5	/experiments/knapen_aot/videos/R_S_ILSVRC2015_train_00165009.mp4	0.0	169.83086800575256	0.10001301765441895
23	89.46591901779175	fix_pre	0		141.0	21.0	2.5	/experiments/knapen_aot/videos/S_yt-kINZMjys3O4_112.mp4	0.0	169.93088102340698	1.1749000549316406
23	90.63267993927002	response	0	space		21.0	2.5	/experiments/knapen_aot/videos/S_yt-kINZMjys3O4_112.mp4	0.0	171.09764194488525	
23	90.64081907272339	movie	1		301.0	21.0	2.5	/experiments/knapen_aot/videos/S_yt-kINZMjys3O4_112.mp4	0.0	171.10578107833862	2.508380889892578
23	93.14919996261597	fix_post	2		12.0	21.0	2.5	/experiments/knapen_aot/videos/S_yt-kINZMjys3O4_112.mp4	0.0	173.6141619682312	0.09998202323913574
24	93.2491819858551	fix_pre	0		131.0	22.0	2.5	/experiments/knapen_aot/videos/R_S_yt-0xzYSBvVfYM_197.mp4	0.0	173.71414399147034	1.0916249752044678
24	94.33258390426636	response	0	space		22.0	2.5	/experiments/knapen_aot/videos/R_S_yt-0xzYSBvVfYM_197.mp4	0.0	174.7975459098816	
24	94.34080696105957	movie	1		301.0	22.0	2.5	/experiments/knapen_aot/videos/R_S_yt-0xzYSBvVfYM_197.mp4	0.0	174.8057689666748	2.508376121520996
24	96.84918308258057	fix_post	2		12.0	22.0	2.5	/experiments/knapen_aot/videos/R_S_yt-0xzYSBvVfYM_197.mp4	0.0	177.3141450881958	0.10003781318664551
25	96.94922089576721	fix_pre	0		147.0	23.0	2.5	/experiments/knapen_aot/videos/S_yt-EAMpitsjbbA_153.mp4	0.0	177.41418290138245	1.2249171733856201
25	98.16592907905579	response	0	space		23.0	2.5	/experiments/knapen_aot/videos/S_yt-EAMpitsjbbA_153.mp4	0.0	178.63089108467102	
25	98.17413806915283	movie	1		301.0	23.0	2.5	/experiments/knapen_aot/videos/S_yt-EAMpitsjbbA_153.mp4	0.0	178.63910007476807	2.508435010910034
25	100.68257308006287	fix_post	2		12.0	23.0	2.5	/experiments/knapen_aot/videos/S_yt-EAMpitsjbbA_153.mp4	0.0	181.1475350856781	0.09995484352111816
26	100.78252792358398	fix_pre	0		138.0	24.0	2.5	/experiments/knapen_aot/videos/S_yt-eF5J5Kjt6oY_23.mp4	0.0	181.24748992919922	1.1499409675598145
26	101.92431902885437	response	0	space		24.0	2.5	/experiments/knapen_aot/videos/S_yt-eF5J5Kjt6oY_23.mp4	0.0	182.3892810344696	
26	101.9324688911438	movie	1		301.0	24.0	2.5	/experiments/knapen_aot/videos/S_yt-eF5J5Kjt6oY_23.mp4	0.0	182.39743089675903	2.508531093597412
26	104.44099998474121	fix_post	2		12.0	24.0	2.5	/experiments/knapen_aot/videos/S_yt-eF5J5Kjt6oY_23.mp4	0.0	184.90596199035645	0.09983992576599121
27	104.5408399105072	fix_pre	0		156.0	25.0	2.5	/experiments/knapen_aot/videos/R_S_ILSVRC2015_train_00559000.mp4	0.0	185.00580191612244	1.2999279499053955
27	105.82512497901917	response	0	space		25.0	2.5	/experiments/knapen_aot/videos/R_S_ILSVRC2015_train_00559000.mp4	0.0	186.2900869846344	
27	105.8407678604126	movie	1		301.0	25.0	2.5	/experiments/knapen_aot/videos/R_S_ILSVRC2015_train_00559000.mp4	0.0	186.30572986602783	2.5083260536193848
27	108.34909391403198	fix_post	2		12.0	25.0	2.5	/experiments/knapen_aot/videos/R_S_ILSVRC2015_train_00559000.mp4	0.0	188.81405591964722	0.09993505477905273
28	108.44902896881104	fix_pre	0		444.0	26.0	2.5	/experiments/knapen_aot/videos/R_S_Pexels_Videos_2791797.mp4	0.0	188.91399097442627	3.699954032897949
28	112.14087104797363	response	0	space		26.0	2.5	/experiments/knapen_aot/videos/R_S_Pexels_Videos_2791797.mp4	0.0	192.60583305358887	
28	112.14898300170898	movie	1		165.0	26.0	2.5	/experiments/knapen_aot/videos/R_S_Pexels_Videos_2791797.mp4	0.0	192.61394500732422	2.508579969406128
28	114.65756297111511	fix_post	2		12.0	26.0	2.5	/experiments/knapen_aot/videos/R_S_Pexels_Videos_2791797.mp4	0.0	195.12252497673035	0.09989190101623535
29	114.75745487213135	fix_pre	0		134.0	27.0	2.5	blank	1.0	195.22241687774658	1.117124080657959
29	115.86593198776245	response	0	space		27.0	2.5	blank	1.0	196.33089399337769	
29	115.8745789527893	movie	1		301.0	27.0	2.5	blank	1.0	196.33954095840454	2.507776975631714
29	118.38235592842102	fix_post	2		12.0	27.0	2.5	blank	1.0	198.84731793403625	0.10007309913635254
30	118.48242902755737	fix_pre	0		63.0	28.0	2.5	/experiments/knapen_aot/videos/S_ILSVRC2015_train_00369000.mp4	0.0	198.9473910331726	0.5249369144439697
30	118.9991819858551	response	0	space		28.0	2.5	/experiments/knapen_aot/videos/S_ILSVRC2015_train_00369000.mp4	0.0	199.46414399147034	
30	119.00736594200134	movie	1		301.0	28.0	2.5	/experiments/knapen_aot/videos/S_ILSVRC2015_train_00369000.mp4	0.0	199.47232794761658	2.5084640979766846
30	121.51583003997803	fix_post	2		12.0	28.0	2.5	/experiments/knapen_aot/videos/S_ILSVRC2015_train_00369000.mp4	0.0	201.98079204559326	0.10001993179321289
31	121.61584997177124	fix_pre	0		112.0	29.0	2.5	/experiments/knapen_aot/videos/S_yt-2lnxIdOTxog_157.mp4	0.0	202.08081197738647	0.9331929683685303
31	122.54088306427002	response	0	space		29.0	2.5	/experiments/knapen_aot/videos/S_yt-2lnxIdOTxog_157.mp4	0.0	203.00584506988525	
31	122.54904294013977	movie	1		301.0	29.0	2.5	/experiments/knapen_aot/videos/S_yt-2lnxIdOTxog_157.mp4	0.0	203.014004945755	2.508368968963623
31	125.0574119091034	fix_post	2		12.0	29.0	2.5	/experiments/knapen_aot/videos/S_yt-2lnxIdOTxog_157.mp4	0.0	205.52237391471863	0.09993910789489746
32	125.15735101699829	fix_pre	0		150.0	30.0	2.5	/experiments/knapen_aot/videos/R_S_ILSVRC2015_train_00417000.mp4	0.0	205.62231302261353	1.2499818801879883
32	126.3991379737854	response	0	space		30.0	2.5	/experiments/knapen_aot/videos/R_S_ILSVRC2015_train_00417000.mp4	0.0	206.86409997940063	
32	126.40733289718628	movie	1		301.0	30.0	2.5	/experiments/knapen_aot/videos/R_S_ILSVRC2015_train_00417000.mp4	0.0	206.8722949028015	2.508315086364746
32	128.91564798355103	fix_post	2		12.0	30.0	2.5	/experiments/knapen_aot/videos/R_S_ILSVRC2015_train_00417000.mp4	0.0	209.38060998916626	0.10005807876586914
33	129.0157060623169	fix_pre	0		76.0	31.0	2.5	/experiments/knapen_aot/videos/S_yt--5ls65Ue1RA_52.mp4	0.0	209.48066806793213	0.6333057880401611
33	129.63328886032104	response	0	space		31.0	2.5	/experiments/knapen_aot/videos/S_yt--5ls65Ue1RA_52.mp4	0.0	210.09825086593628	
33	129.64901185035706	movie	1		301.0	31.0	2.5	/experiments/knapen_aot/videos/S_yt--5ls65Ue1RA_52.mp4	0.0	210.1139738559723	2.5083420276641846
33	132.15735387802124	fix_post	2		12.0	31.0	2.5	/experiments/knapen_aot/videos/S_yt--5ls65Ue1RA_52.mp4	0.0	212.62231588363647	0.10000920295715332
34	132.2573630809784	fix_pre	0		136.0	32.0	2.5	/experiments/knapen_aot/videos/R_S_yt-RlHmMGUjT9E_130.mp4	0.0	212.72232508659363	1.133307933807373
34	133.3823618888855	response	0	space		32.0	2.5	/experiments/knapen_aot/videos/R_S_yt-RlHmMGUjT9E_130.mp4	0.0	213.84732389450073	
34	133.39067101478577	movie	1		301.0	32.0	2.5	/experiments/knapen_aot/videos/R_S_yt-RlHmMGUjT9E_130.mp4	0.0	213.855633020401	2.508527994155884
34	135.89919900894165	fix_post	2		12.0	32.0	2.5	/experiments/knapen_aot/videos/R_S_yt-RlHmMGUjT9E_130.mp4	0.0	216.36416101455688	0.09990286827087402
35	135.99910187721252	fix_pre	0		109.0	33.0	2.5	/experiments/knapen_aot/videos/R_S_ILSVRC2015_train_00165012.mp4	0.0	216.46406388282776	0.9081699848175049
35	136.8991460800171	response	0	space		33.0	2.5	/experiments/knapen_aot/videos/R_S_ILSVRC2015_train_00165012.mp4	0.0	217.36410808563232	
35	136.90727186203003	movie	1		301.0	33.0	2.5	/experiments/knapen_aot/videos/R_S_ILSVRC2015_train_00165012.mp4	0.0	217.37223386764526	2.508419990539551
35	139.41569185256958	fix_post	2		12.0	33.0	2.5	/experiments/knapen_aot/videos/R_S_ILSVRC2015_train_00165012.mp4	0.0	219.88065385818481	0.1001901626586914
36	139.51588201522827	fix_pre	0		147.0	34.0	2.5	blank	1.0	219.9808440208435	1.2247810363769531
36	140.73238492012024	response	0	space		34.0	2.5	blank	1.0	221.19734692573547	
36	140.74066305160522	movie	1		301.0	34.0	2.5	blank	1.0	221.20562505722046	2.5082919597625732
36	143.2489550113678	fix_post	2		12.0	34.0	2.5	blank	1.0	223.71391701698303	0.1000528335571289
37	143.34900784492493	fix_pre	0		278.0	35.0	2.5	/experiments/knapen_aot/videos/R_S_comp_DB_D002_C003_PSNK_v04_SDR_PS_20180914_SDR_2K_AVC.mp4	0.0	223.81396985054016	2.3168890476226807
37	145.65740394592285	response	0	space		35.0	2.5	/experiments/knapen_aot/videos/R_S_comp_DB_D002_C003_PSNK_v04_SDR_PS_20180914_SDR_2K_AVC.mp4	0.0	226.1223659515381	
37	145.6658968925476	movie	1		166.0	35.0	2.5	/experiments/knapen_aot/videos/R_S_comp_DB_D002_C003_PSNK_v04_SDR_PS_20180914_SDR_2K_AVC.mp4	0.0	226.13085889816284	2.5081400871276855
37	148.1740369796753	fix_post	2		12.0	35.0	2.5	/experiments/knapen_aot/videos/R_S_comp_DB_D002_C003_PSNK_v04_SDR_PS_20180914_SDR_2K_AVC.mp4	0.0	228.63899898529053	0.09991002082824707
38	148.27394700050354	fix_pre	0		213.0	36.0	2.5	/experiments/knapen_aot/videos/R_S_yt-kINZMjys3O4_112.mp4	0.0	228.73890900611877	1.7749600410461426
38	150.03319001197815	response	0	space		36.0	2.5	/experiments/knapen_aot/videos/R_S_yt-kINZMjys3O4_112.mp4	0.0	230.49815201759338	
38	150.04890704154968	movie	1		301.0	36.0	2.5	/experiments/knapen_aot/videos/R_S_yt-kINZMjys3O4_112.mp4	0.0	230.51386904716492	2.5083608627319336
38	152.55726790428162	fix_post	2		12.0	36.0	2.5	/experiments/knapen_aot/videos/R_S_yt-kINZMjys3O4_112.mp4	0.0	233.02222990989685	0.09999895095825195
39	152.65726685523987	fix_pre	0		127.0	37.0	2.5	/experiments/knapen_aot/videos/R_S_yt-EuyfT0PuOoQ_91.mp4	0.0	233.1222288608551	1.0582661628723145
39	153.7073929309845	response	0	space		37.0	2.5	/experiments/knapen_aot/videos/R_S_yt-EuyfT0PuOoQ_91.mp4	0.0	234.17235493659973	
39	153.71553301811218	movie	1		301.0	37.0	2.5	/experiments/knapen_aot/videos/R_S_yt-EuyfT0PuOoQ_91.mp4	0.0	234.18049502372742	2.5084149837493896
39	156.22394800186157	fix_post	2		12.0	37.0	2.5	/experiments/knapen_aot/videos/R_S_yt-EuyfT0PuOoQ_91.mp4	0.0	236.6889100074768	0.09999585151672363
40	156.3239438533783	fix_pre	0		271.0	38.0	2.5	/experiments/knapen_aot/videos/S_yt-4rwBpRuHg-c_1308.mp4	0.0	236.78890585899353	2.258535146713257
40	158.5740840435028	response	0	space		38.0	2.5	/experiments/knapen_aot/videos/S_yt-4rwBpRuHg-c_1308.mp4	0.0	239.03904604911804	
40	158.58247900009155	movie	1		301.0	38.0	2.5	/experiments/knapen_aot/videos/S_yt-4rwBpRuHg-c_1308.mp4	0.0	239.0474410057068	2.5080790519714355
40	161.090558052063	fix_post	2		12.0	38.0	2.5	/experiments/knapen_aot/videos/S_yt-4rwBpRuHg-c_1308.mp4	0.0	241.55552005767822	0.10001802444458008
41	161.19057607650757	fix_pre	0		130.0	39.0	2.5	/experiments/knapen_aot/videos/R_S_yt-cjndulbUtRc_51.mp4	0.0	241.6555380821228	1.0832719802856445
41	162.26565790176392	response	0	space		39.0	2.5	/experiments/knapen_aot/videos/R_S_yt-cjndulbUtRc_51.mp4	0.0	242.73061990737915	
41	162.2738480567932	movie	1		301.0	39.0	2.5	/experiments/knapen_aot/videos/R_S_yt-cjndulbUtRc_51.mp4	0.0	242.73881006240845	2.508435010910034
41	164.78228306770325	fix_post	2		12.0	39.0	2.5	/experiments/knapen_aot/videos/R_S_yt-cjndulbUtRc_51.mp4	0.0	245.24724507331848	0.09998178482055664
42	164.8822648525238	fix_pre	0		222.0	40.0	2.5	/experiments/knapen_aot/videos/R_S_yt-wnQFgNEnHUI_109.mp4	0.0	245.34722685813904	1.8499212265014648
42	166.72399592399597	response	0	space		40.0	2.5	/experiments/knapen_aot/videos/R_S_yt-wnQFgNEnHUI_109.mp4	0.0	247.1889579296112	
42	166.73218607902527	movie	1		301.0	40.0	2.5	/experiments/knapen_aot/videos/R_S_yt-wnQFgNEnHUI_109.mp4	0.0	247.1971480846405	2.5083987712860107
42	169.24058485031128	fix_post	2		12.0	40.0	2.5	/experiments/knapen_aot/videos/R_S_yt-wnQFgNEnHUI_109.mp4	0.0	249.7055468559265	0.09993100166320801
43	169.3405158519745	fix_pre	0		173.0	41.0	2.5	/experiments/knapen_aot/videos/R_S_yt-j3Sk8ZnAiEA_32.mp4	0.0	249.80547785758972	1.4415831565856934
43	170.77394199371338	response	0	space		41.0	2.5	/experiments/knapen_aot/videos/R_S_yt-j3Sk8ZnAiEA_32.mp4	0.0	251.2389039993286	
43	170.78209900856018	movie	1		301.0	41.0	2.5	/experiments/knapen_aot/videos/R_S_yt-j3Sk8ZnAiEA_32.mp4	0.0	251.24706101417542	2.5083670616149902
43	173.29046607017517	fix_post	2		12.0	41.0	2.5	/experiments/knapen_aot/videos/R_S_yt-j3Sk8ZnAiEA_32.mp4	0.0	253.7554280757904	0.10006380081176758
44	173.39052987098694	fix_pre	0		102.0	42.0	2.5	blank	1.0	253.85549187660217	0.8500480651855469
44	174.23234105110168	response	0	space		42.0	2.5	blank	1.0	254.69730305671692	
44	174.24057793617249	movie	1		301.0	42.0	2.5	blank	1.0	254.70553994178772	2.508458137512207
44	176.7490360736847	fix_post	2		12.0	42.0	2.5	blank	1.0	257.2139980792999	0.09984087944030762
45	176.848876953125	fix_pre	0		109.0	43.0	2.5	/experiments/knapen_aot/videos/S_yt-7W50lcw5FCo_37.mp4	0.0	257.31383895874023	0.9082980155944824
45	177.74899196624756	response	0	space		43.0	2.5	/experiments/knapen_aot/videos/S_yt-7W50lcw5FCo_37.mp4	0.0	258.2139539718628	
45	177.75717496871948	movie	1		301.0	43.0	2.5	/experiments/knapen_aot/videos/S_yt-7W50lcw5FCo_37.mp4	0.0	258.2221369743347	2.5083460807800293
45	180.2655210494995	fix_post	2		12.0	43.0	2.5	/experiments/knapen_aot/videos/S_yt-7W50lcw5FCo_37.mp4	0.0	260.73048305511475	0.09999489784240723
46	180.36551594734192	fix_pre	0		172.0	44.0	2.5	/experiments/knapen_aot/videos/S_yt-Bx2kLEUuN0E_456.mp4	0.0	260.83047795295715	1.4332449436187744
46	181.79056406021118	response	0	space		44.0	2.5	/experiments/knapen_aot/videos/S_yt-Bx2kLEUuN0E_456.mp4	0.0	262.2555260658264	
46	181.7987608909607	movie	1		301.0	44.0	2.5	/experiments/knapen_aot/videos/S_yt-Bx2kLEUuN0E_456.mp4	0.0	262.2637228965759	2.508305072784424
46	184.30706596374512	fix_post	2		12.0	44.0	2.5	/experiments/knapen_aot/videos/S_yt-Bx2kLEUuN0E_456.mp4	0.0	264.77202796936035	0.10015106201171875
47	184.40721702575684	fix_pre	0		145.0	45.0	2.5	/experiments/knapen_aot/videos/S_yt-22c5eZ1UNME_76.mp4	0.0	264.87217903137207	1.2082428932189941
47	185.60720086097717	response	0	space		45.0	2.5	/experiments/knapen_aot/videos/S_yt-22c5eZ1UNME_76.mp4	0.0	266.0721628665924	
47	185.61545991897583	movie	1		301.0	45.0	2.5	/experiments/knapen_aot/videos/S_yt-22c5eZ1UNME_76.mp4	0.0	266.08042192459106	2.5083229541778564
47	188.1237828731537	fix_post	2		12.0	45.0	2.5	/experiments/knapen_aot/videos/S_yt-22c5eZ1UNME_76.mp4	0.0	268.5887448787689	0.09999203681945801
48	188.22377490997314	fix_pre	0		167.0	46.0	2.5	/experiments/knapen_aot/videos/R_S_yt-06XMUn9DTKc_35.mp4	0.0	268.6887369155884	1.3915750980377197
48	189.6072268486023	response	0	space		46.0	2.5	/experiments/knapen_aot/videos/R_S_yt-06XMUn9DTKc_35.mp4	0.0	270.07218885421753	
48	189.61535000801086	movie	1		301.0	46.0	2.5	/experiments/knapen_aot/videos/R_S_yt-06XMUn9DTKc_35.mp4	0.0	270.0803120136261	2.5084948539733887
48	192.12384486198425	fix_post	2		12.0	46.0	2.5	/experiments/knapen_aot/videos/R_S_yt-06XMUn9DTKc_35.mp4	0.0	272.5888068675995	0.09991621971130371
49	192.22376108169556	fix_pre	0		177.0	47.0	2.5	blank	1.0	272.6887230873108	1.4748718738555908
49	193.69055700302124	response	0	space		47.0	2.5	blank	1.0	274.1555190086365	
49	193.69863295555115	movie	1		301.0	47.0	2.5	blank	1.0	274.1635949611664	2.508625030517578
49	196.20725798606873	fix_post	2		12.0	47.0	2.5	blank	1.0	276.67221999168396	0.09983491897583008
50	196.30709290504456	fix_pre	0		117.0	48.0	2.5	/experiments/knapen_aot/videos/R_S_yt-ejSzwn8tY8g_49.mp4	0.0	276.7720549106598	0.9765341281890869
50	197.27390503883362	response	0	space		48.0	2.5	/experiments/knapen_aot/videos/R_S_yt-ejSzwn8tY8g_49.mp4	0.0	277.73886704444885	
50	197.28362703323364	movie	1		301.0	48.0	2.5	/experiments/knapen_aot/videos/R_S_yt-ejSzwn8tY8g_49.mp4	0.0	277.7485890388489	2.507028818130493
50	199.79065585136414	fix_post	2		12.0	48.0	2.5	/experiments/knapen_aot/videos/R_S_yt-ejSzwn8tY8g_49.mp4	0.0	280.25561785697937	0.09975504875183105
51	199.89041090011597	fix_pre	0		76.0	49.0	2.5	/experiments/knapen_aot/videos/R_S_ILSVRC2015_train_00473000.mp4	0.0	280.3553729057312	0.6332840919494629
51	200.51538395881653	response	0	space		49.0	2.5	/experiments/knapen_aot/videos/R_S_ILSVRC2015_train_00473000.mp4	0.0	280.98034596443176	
51	200.52369499206543	movie	1		301.0	49.0	2.5	/experiments/knapen_aot/videos/R_S_ILSVRC2015_train_00473000.mp4	0.0	280.98865699768066	2.508336067199707
51	203.03203105926514	fix_post	2		12.0	49.0	2.5	/experiments/knapen_aot/videos/R_S_ILSVRC2015_train_00473000.mp4	0.0	283.49699306488037	0.10040092468261719
52	203.13243198394775	fix_pre	0		76.0	50.0	2.5	/experiments/knapen_aot/videos/S_yt-HMAa2QbfFPI_216.mp4	0.0	283.597393989563	0.6328999996185303
52	203.75709199905396	response	0	space		50.0	2.5	/experiments/knapen_aot/videos/S_yt-HMAa2QbfFPI_216.mp4	0.0	284.2220540046692	
52	203.76533198356628	movie	1		301.0	50.0	2.5	/experiments/knapen_aot/videos/S_yt-HMAa2QbfFPI_216.mp4	0.0	284.2302939891815	2.5083980560302734
52	206.27373003959656	fix_post	2		12.0	50.0	2.5	/experiments/knapen_aot/videos/S_yt-HMAa2QbfFPI_216.mp4	0.0	286.7386920452118	0.10002684593200684
53	206.37375688552856	fix_pre	0		93.0	51.0	2.5	/experiments/knapen_aot/videos/R_S_comp_GL_G002_C002_PSNK_v03_SDR_PS_20180925_SDR_2K_AVC.mp4	0.0	286.8387188911438	0.7749021053314209
53	207.14048790931702	response	0	space		51.0	2.5	/experiments/knapen_aot/videos/R_S_comp_GL_G002_C002_PSNK_v03_SDR_PS_20180925_SDR_2K_AVC.mp4	0.0	287.60544991493225	
53	207.14865899085999	movie	1		166.0	51.0	2.5	/experiments/knapen_aot/videos/R_S_comp_GL_G002_C002_PSNK_v03_SDR_PS_20180925_SDR_2K_AVC.mp4	0.0	287.6136209964752	2.5083539485931396
53	209.65701293945312	fix_post	2		12.0	51.0	2.5	/experiments/knapen_aot/videos/R_S_comp_GL_G002_C002_PSNK_v03_SDR_PS_20180925_SDR_2K_AVC.mp4	0.0	290.12197494506836	0.10000205039978027
54	209.7570149898529	fix_pre	0		118.0	52.0	2.5	/experiments/knapen_aot/videos/R_S_yt-rB3YVZvA78w_20.mp4	0.0	290.22197699546814	0.9832069873809814
54	210.73212599754333	response	0	space		52.0	2.5	/experiments/knapen_aot/videos/R_S_yt-rB3YVZvA78w_20.mp4	0.0	291.19708800315857	
54	210.7402219772339	movie	1		301.0	52.0	2.5	/experiments/knapen_aot/videos/R_S_yt-rB3YVZvA78w_20.mp4	0.0	291.2051839828491	2.5084149837493896
54	213.24863696098328	fix_post	2		12.0	52.0	2.5	/experiments/knapen_aot/videos/R_S_yt-rB3YVZvA78w_20.mp4	0.0	293.7135989665985	0.10002303123474121
55	213.34865999221802	fix_pre	0		84.0	53.0	2.5	/experiments/knapen_aot/videos/R_S_yt-mL3MuCfKtdY_79.mp4	0.0	293.81362199783325	0.699944019317627
55	214.04044890403748	response	0	space		53.0	2.5	/experiments/knapen_aot/videos/R_S_yt-mL3MuCfKtdY_79.mp4	0.0	294.5054109096527	
55	214.04860401153564	movie	1		301.0	53.0	2.5	/experiments/knapen_aot/videos/R_S_yt-mL3MuCfKtdY_79.mp4	0.0	294.5135660171509	2.508388042449951
55	216.5569920539856	fix_post	2		12.0	53.0	2.5	/experiments/knapen_aot/videos/R_S_yt-mL3MuCfKtdY_79.mp4	0.0	297.02195405960083	0.10009002685546875
56	216.65708208084106	fix_pre	0		179.0	54.0	2.5	/experiments/knapen_aot/videos/R_S_yt-etQaTgGOhR4_69.mp4	0.0	297.1220440864563	1.4915030002593994
56	218.14045405387878	response	0	space		54.0	2.5	/experiments/knapen_aot/videos/R_S_yt-etQaTgGOhR4_69.mp4	0.0	298.605416059494	
56	218.14858508110046	movie	1		301.0	54.0	2.5	/experiments/knapen_aot/videos/R_S_yt-etQaTgGOhR4_69.mp4	0.0	298.6135470867157	2.508373975753784
56	220.65695905685425	fix_post	2		12.0	54.0	2.5	/experiments/knapen_aot/videos/R_S_yt-etQaTgGOhR4_69.mp4	0.0	301.1219210624695	0.1000368595123291
57	220.75699591636658	fix_pre	0		81.0	55.0	2.5	blank	1.0	301.2219579219818	0.6749801635742188
57	221.4236559867859	response	0	space		55.0	2.5	blank	1.0	301.8886179924011	
57	221.4319760799408	movie	1		301.0	55.0	2.5	blank	1.0	301.89693808555603	2.508295774459839
57	223.94027185440063	fix_post	2		12.0	55.0	2.5	blank	1.0	304.40523386001587	0.09999799728393555
58	224.04026985168457	fix_pre	0		168.0	56.0	2.5	/experiments/knapen_aot/videos/R_S_yt-zgimmOcW5Mc_127.mp4	0.0	304.5052318572998	1.3999872207641602
58	225.43208694458008	response	0	space		56.0	2.5	/experiments/knapen_aot/videos/R_S_yt-zgimmOcW5Mc_127.mp4	0.0	305.8970489501953	
58	225.44025707244873	movie	1		301.0	56.0	2.5	/experiments/knapen_aot/videos/R_S_yt-zgimmOcW5Mc_127.mp4	0.0	305.90521907806396	2.5083699226379395
58	227.94862699508667	fix_post	2		12.0	56.0	2.5	/experiments/knapen_aot/videos/R_S_yt-zgimmOcW5Mc_127.mp4	0.0	308.4135890007019	0.09996199607849121
59	228.04858899116516	fix_pre	0		109.0	57.0	2.5	/experiments/knapen_aot/videos/R_S_yt-22c5eZ1UNME_76.mp4	0.0	308.5135509967804	0.9083240032196045
59	228.94870901107788	response	0	space		57.0	2.5	/experiments/knapen_aot/videos/R_S_yt-22c5eZ1UNME_76.mp4	0.0	309.4136710166931	
59	228.95691299438477	movie	1		301.0	57.0	2.5	/experiments/knapen_aot/videos/R_S_yt-22c5eZ1UNME_76.mp4	0.0	309.421875	2.508357048034668
59	231.46527004241943	fix_post	2		12.0	57.0	2.5	/experiments/knapen_aot/videos/R_S_yt-22c5eZ1UNME_76.mp4	0.0	311.93023204803467	0.10002994537353516
60	231.56529998779297	fix_pre	0		227.0	58.0	2.5	/experiments/knapen_aot/videos/R_S_yt-n6aLw10f2Yw_317.mp4	0.0	312.0302619934082	1.8915510177612305
60	233.44872307777405	response	0	space		58.0	2.5	/experiments/knapen_aot/videos/R_S_yt-n6aLw10f2Yw_317.mp4	0.0	313.9136850833893	
60	233.4568510055542	movie	1		301.0	58.0	2.5	/experiments/knapen_aot/videos/R_S_yt-n6aLw10f2Yw_317.mp4	0.0	313.92181301116943	2.5083930492401123
60	235.9652440547943	fix_post	2		12.0	58.0	2.5	/experiments/knapen_aot/videos/R_S_yt-n6aLw10f2Yw_317.mp4	0.0	316.43020606040955	0.10000085830688477
61	236.0652449131012	fix_pre	0		78.0	59.0	2.5	/experiments/knapen_aot/videos/R_S_yt-6xXEMHBQ08A_28.mp4	0.0	316.53020691871643	0.6499249935150146
61	236.70700597763062	response	0	space		59.0	2.5	/experiments/knapen_aot/videos/R_S_yt-6xXEMHBQ08A_28.mp4	0.0	317.17196798324585	
61	236.7151699066162	movie	1		301.0	59.0	2.5	/experiments/knapen_aot/videos/R_S_yt-6xXEMHBQ08A_28.mp4	0.0	317.18013191223145	2.5084030628204346
61	239.22357296943665	fix_post	2		12.0	59.0	2.5	/experiments/knapen_aot/videos/R_S_yt-6xXEMHBQ08A_28.mp4	0.0	319.6885349750519	0.09994292259216309
62	239.3235158920288	fix_pre	0		134.0	60.0	2.5	/experiments/knapen_aot/videos/S_yt-Ub5Xx5BqIOk_74.mp4	0.0	319.78847789764404	1.1167080402374268
62	240.43197298049927	response	0	space		60.0	2.5	/experiments/knapen_aot/videos/S_yt-Ub5Xx5BqIOk_74.mp4	0.0	320.8969349861145	
62	240.44022393226624	movie	1		301.0	60.0	2.5	/experiments/knapen_aot/videos/S_yt-Ub5Xx5BqIOk_74.mp4	0.0	320.90518593788147	2.508297920227051
62	242.9485218524933	fix_post	2		12.0	60.0	2.5	/experiments/knapen_aot/videos/S_yt-Ub5Xx5BqIOk_74.mp4	0.0	323.4134838581085	0.09999418258666992
63	243.04851603507996	fix_pre	0		72.0	61.0	2.5	/experiments/knapen_aot/videos/S_yt-Ev39pXXfr1Y_152.mp4	0.0	323.5134780406952	0.5999588966369629
63	243.64025807380676	response	0	space		61.0	2.5	/experiments/knapen_aot/videos/S_yt-Ev39pXXfr1Y_152.mp4	0.0	324.105220079422	
63	243.64847493171692	movie	1		301.0	61.0	2.5	/experiments/knapen_aot/videos/S_yt-Ev39pXXfr1Y_152.mp4	0.0	324.11343693733215	2.508435010910034
63	246.15690994262695	fix_post	2		12.0	61.0	2.5	/experiments/knapen_aot/videos/S_yt-Ev39pXXfr1Y_152.mp4	0.0	326.6218719482422	0.0999901294708252
64	246.25690007209778	fix_pre	0		126.0	62.0	2.5	blank	1.0	326.721862077713	1.0499908924102783
64	247.29856705665588	response	0	space		62.0	2.5	blank	1.0	327.7635290622711	
64	247.30689096450806	movie	1		301.0	62.0	2.5	blank	1.0	327.7718529701233	2.508281946182251
64	249.8151729106903	fix_post	2		12.0	62.0	2.5	blank	1.0	330.28013491630554	0.0999751091003418
65	249.91514801979065	fix_pre	0		96.0	63.0	2.5	/experiments/knapen_aot/videos/R_S_yt-0xzYSBvVfYM_197.mp4	0.0	330.3801100254059	0.7999880313873291
65	250.69945287704468	response	0	space		63.0	2.5	/experiments/knapen_aot/videos/R_S_yt-0xzYSBvVfYM_197.mp4	0.0	331.1644148826599	
65	250.71513605117798	movie	1		301.0	63.0	2.5	/experiments/knapen_aot/videos/R_S_yt-0xzYSBvVfYM_197.mp4	0.0	331.1800980567932	2.5084848403930664
65	253.22362089157104	fix_post	2		12.0	63.0	2.5	/experiments/knapen_aot/videos/R_S_yt-0xzYSBvVfYM_197.mp4	0.0	333.6885828971863	0.09987902641296387
66	253.323499917984	fix_pre	0		106.0	64.0	2.5	/experiments/knapen_aot/videos/R_S_yt-O_4DgW-XKvA_35.mp4	0.0	333.78846192359924	0.883307933807373
66	254.1986038684845	response	0	space		64.0	2.5	/experiments/knapen_aot/videos/R_S_yt-O_4DgW-XKvA_35.mp4	0.0	334.66356587409973	
66	254.20680785179138	movie	1		301.0	64.0	2.5	/experiments/knapen_aot/videos/R_S_yt-O_4DgW-XKvA_35.mp4	0.0	334.6717698574066	2.5083441734313965
66	256.7151520252228	fix_post	2		12.0	64.0	2.5	/experiments/knapen_aot/videos/R_S_yt-O_4DgW-XKvA_35.mp4	0.0	337.180114030838	0.10000085830688477
67	256.81515288352966	fix_pre	0		108.0	65.0	2.5	/experiments/knapen_aot/videos/S_bing-www_dailymotion_com_video_x4kcklg_53.mp4	0.0	337.2801148891449	0.899960994720459
67	257.6993260383606	response	0	space		65.0	2.5	/experiments/knapen_aot/videos/S_bing-www_dailymotion_com_video_x4kcklg_53.mp4	0.0	338.16428804397583	
67	257.7151138782501	movie	1		164.0	65.0	2.5	/experiments/knapen_aot/videos/S_bing-www_dailymotion_com_video_x4kcklg_53.mp4	0.0	338.18007588386536	2.508392095565796
67	260.2235059738159	fix_post	2		12.0	65.0	2.5	/experiments/knapen_aot/videos/S_bing-www_dailymotion_com_video_x4kcklg_53.mp4	0.0	340.68846797943115	0.09990406036376953
68	260.3234100341797	fix_pre	0		101.0	66.0	2.5	/experiments/knapen_aot/videos/R_S_yt-4sSV4iIs8gQ_55.mp4	0.0	340.7883720397949	0.8416769504547119
68	261.1570019721985	response	0	space		66.0	2.5	/experiments/knapen_aot/videos/R_S_yt-4sSV4iIs8gQ_55.mp4	0.0	341.6219639778137	
68	261.1650869846344	movie	1		301.0	66.0	2.5	/experiments/knapen_aot/videos/R_S_yt-4sSV4iIs8gQ_55.mp4	0.0	341.63004899024963	2.508344888687134
68	263.67343187332153	fix_post	2		12.0	66.0	2.5	/experiments/knapen_aot/videos/R_S_yt-4sSV4iIs8gQ_55.mp4	0.0	344.13839387893677	0.10000300407409668
69	263.77343487739563	fix_pre	0		74.0	67.0	2.5	/experiments/knapen_aot/videos/S_production_ID_4707837.mp4	0.0	344.23839688301086	0.6165740489959717
69	264.3818778991699	response	0	space		67.0	2.5	/experiments/knapen_aot/videos/S_production_ID_4707837.mp4	0.0	344.84683990478516	
69	264.3900089263916	movie	1		164.0	67.0	2.5	/experiments/knapen_aot/videos/S_production_ID_4707837.mp4	0.0	344.85497093200684	2.5084991455078125
69	266.8985080718994	fix_post	2		12.0	67.0	2.5	/experiments/knapen_aot/videos/S_production_ID_4707837.mp4	0.0	347.36347007751465	0.09990191459655762
70	266.998409986496	fix_pre	0		68.0	68.0	2.5	blank	1.0	347.4633719921112	0.5666089057922363
70	267.55818605422974	response	0	space		68.0	2.5	blank	1.0	348.02314805984497	
70	267.5650188922882	movie	1		301.0	68.0	2.5	blank	1.0	348.02998089790344	2.508540153503418
70	270.0735590457916	fix_post	2		12.0	68.0	2.5	blank	1.0	350.53852105140686	0.0998389720916748
71	270.1733980178833	fix_pre	0		90.0	69.0	2.5	/experiments/knapen_aot/videos/S_yt-wEbfIR14zZ8_7.mp4	0.0	350.63836002349854	0.7499468326568604
71	270.91511392593384	response	0	space		69.0	2.5	/experiments/knapen_aot/videos/S_yt-wEbfIR14zZ8_7.mp4	0.0	351.3800759315491	
71	270.92334485054016	movie	1		301.0	69.0	2.5	/experiments/knapen_aot/videos/S_yt-wEbfIR14zZ8_7.mp4	0.0	351.3883068561554	2.5083730220794678
71	273.43171787261963	fix_post	2		12.0	69.0	2.5	/experiments/knapen_aot/videos/S_yt-wEbfIR14zZ8_7.mp4	0.0	353.89667987823486	0.10000300407409668
72	273.5317208766937	fix_pre	0		89.0	70.0	2.5	/experiments/knapen_aot/videos/R_S_yt-n_eO-7KedAE_21.mp4	0.0	353.99668288230896	0.7416751384735107
72	274.26518988609314	response	0	space		70.0	2.5	/experiments/knapen_aot/videos/R_S_yt-n_eO-7KedAE_21.mp4	0.0	354.7301518917084	
72	274.27339601516724	movie	1		301.0	70.0	2.5	/experiments/knapen_aot/videos/R_S_yt-n_eO-7KedAE_21.mp4	0.0	354.73835802078247	2.5085220336914062
72	276.78191804885864	fix_post	2		12.0	70.0	2.5	/experiments/knapen_aot/videos/R_S_yt-n_eO-7KedAE_21.mp4	0.0	357.2468800544739	0.09979987144470215
73	276.88171792030334	fix_pre	0		89.0	71.0	2.5	/experiments/knapen_aot/videos/R_S_yt-rB3YVZvA78w_20.mp4	0.0	357.3466799259186	0.7416000366210938
73	277.6151158809662	response	0	space		71.0	2.5	/experiments/knapen_aot/videos/R_S_yt-rB3YVZvA78w_20.mp4	0.0	358.0800778865814	
73	277.62331795692444	movie	1		301.0	71.0	2.5	/experiments/knapen_aot/videos/R_S_yt-rB3YVZvA78w_20.mp4	0.0	358.0882799625397	2.5084259510040283
73	280.13174390792847	fix_post	2		12.0	71.0	2.5	/experiments/knapen_aot/videos/R_S_yt-rB3YVZvA78w_20.mp4	0.0	360.5967059135437	0.10011816024780273
74	280.23186206817627	fix_pre	0		86.0	72.0	2.5	/experiments/knapen_aot/videos/R_S_ILSVRC2015_train_00689000.mp4	0.0	360.6968240737915	0.7175049781799316
74	280.94011306762695	response	0	space		72.0	2.5	/experiments/knapen_aot/videos/R_S_ILSVRC2015_train_00689000.mp4	0.0	361.4050750732422	
74	280.9493670463562	movie	1		301.0	72.0	2.5	/experiments/knapen_aot/videos/R_S_ILSVRC2015_train_00689000.mp4	0.0	361.41432905197144	2.507351875305176
74	283.4567189216614	fix_post	2		12.0	72.0	2.5	/experiments/knapen_aot/videos/R_S_ILSVRC2015_train_00689000.mp4	0.0	363.9216809272766	0.09996199607849121
75	283.55668091773987	fix_pre	0		130.0	73.0	2.5	/experiments/knapen_aot/videos/R_S_yt-kINZMjys3O4_112.mp4	0.0	364.0216429233551	1.0832691192626953
75	284.63169598579407	response	0	space		73.0	2.5	/experiments/knapen_aot/videos/R_S_yt-kINZMjys3O4_112.mp4	0.0	365.0966579914093	
75	284.63995003700256	movie	1		301.0	73.0	2.5	/experiments/knapen_aot/videos/R_S_yt-kINZMjys3O4_112.mp4	0.0	365.1049120426178	2.508392810821533
75	287.1483428478241	fix_post	2		12.0	73.0	2.5	/experiments/knapen_aot/videos/R_S_yt-kINZMjys3O4_112.mp4	0.0	367.61330485343933	0.10004115104675293
76	287.24838399887085	fix_pre	0		78.0	74.0	2.5	/experiments/knapen_aot/videos/R_S__6qAy77ODUI_175.mp4	0.0	367.7133460044861	0.6499159336090088
76	287.8900680541992	response	0	space		74.0	2.5	/experiments/knapen_aot/videos/R_S__6qAy77ODUI_175.mp4	0.0	368.35503005981445	
76	287.89829993247986	movie	1		301.0	74.0	2.5	/experiments/knapen_aot/videos/R_S__6qAy77ODUI_175.mp4	0.0	368.3632619380951	2.5083601474761963
76	290.40666007995605	fix_post	2		12.0	74.0	2.5	/experiments/knapen_aot/videos/R_S__6qAy77ODUI_175.mp4	0.0	370.8716220855713	0.1000208854675293
77	290.5066809654236	fix_pre	0		78.0	75.0	2.5	/experiments/knapen_aot/videos/S_yt-_7HJhRPVmHw_255.mp4	0.0	370.9716429710388	0.650871992111206
77	291.1484959125519	response	0	space		75.0	2.5	/experiments/knapen_aot/videos/S_yt-_7HJhRPVmHw_255.mp4	0.0	371.6134579181671	
77	291.1575529575348	movie	1		301.0	75.0	2.5	/experiments/knapen_aot/videos/S_yt-_7HJhRPVmHw_255.mp4	0.0	371.62251496315	2.507430076599121
77	293.6649830341339	fix_post	2		12.0	75.0	2.5	/experiments/knapen_aot/videos/S_yt-_7HJhRPVmHw_255.mp4	0.0	374.12994503974915	0.09996891021728516
78	293.7649519443512	fix_pre	0		114.0	76.0	2.5	/experiments/knapen_aot/videos/S_yt-cokedWwwYYs_136.mp4	0.0	374.22991394996643	0.9501159191131592
78	294.69919204711914	response	0	space		76.0	2.5	/experiments/knapen_aot/videos/S_yt-cokedWwwYYs_136.mp4	0.0	375.1641540527344	
78	294.71506786346436	movie	1		301.0	76.0	2.5	/experiments/knapen_aot/videos/S_yt-cokedWwwYYs_136.mp4	0.0	375.1800298690796	2.508150100708008
78	297.22321796417236	fix_post	2		12.0	76.0	2.5	/experiments/knapen_aot/videos/S_yt-cokedWwwYYs_136.mp4	0.0	377.6881799697876	0.10048389434814453
79	297.3237018585205	fix_pre	0		105.0	77.0	2.5	blank	1.0	377.78866386413574	0.8745150566101074
79	298.1900210380554	response	0	space		77.0	2.5	blank	1.0	378.65498304367065	
79	298.1982169151306	movie	1		301.0	77.0	2.5	blank	1.0	378.66317892074585	2.5083870887756348
79	300.70660400390625	fix_post	2		12.0	77.0	2.5	blank	1.0	381.1715660095215	0.10010385513305664
80	300.8067078590393	fix_pre	0		78.0	78.0	2.5	/experiments/knapen_aot/videos/R_S_ILSVRC2015_train_00584001.mp4	0.0	381.27166986465454	0.6498470306396484
80	301.4485619068146	response	0	space		78.0	2.5	/experiments/knapen_aot/videos/R_S_ILSVRC2015_train_00584001.mp4	0.0	381.9135239124298	
80	301.45655488967896	movie	1		301.0	78.0	2.5	/experiments/knapen_aot/videos/R_S_ILSVRC2015_train_00584001.mp4	0.0	381.9215168952942	2.5083250999450684
80	303.964879989624	fix_post	2		12.0	78.0	2.5	/experiments/knapen_aot/videos/R_S_ILSVRC2015_train_00584001.mp4	0.0	384.42984199523926	0.10009598731994629
81	304.06497597694397	fix_pre	0		50.0	79.0	2.5	/experiments/knapen_aot/videos/R_S_yt-UzWRbs9Syf4_7.mp4	0.0	384.5299379825592	0.41658687591552734
81	304.4734230041504	response	0	space		79.0	2.5	/experiments/knapen_aot/videos/R_S_yt-UzWRbs9Syf4_7.mp4	0.0	384.9383850097656	
81	304.4815628528595	movie	1		301.0	79.0	2.5	/experiments/knapen_aot/videos/R_S_yt-UzWRbs9Syf4_7.mp4	0.0	384.94652485847473	2.508366107940674
81	306.98992896080017	fix_post	2		12.0	79.0	2.5	/experiments/knapen_aot/videos/R_S_yt-UzWRbs9Syf4_7.mp4	0.0	387.4548909664154	0.0999760627746582
82	307.08990502357483	fix_pre	0		72.0	80.0	2.5	/experiments/knapen_aot/videos/R_S_b5-3.mp4	0.0	387.55486702919006	0.5999889373779297
82	307.6816358566284	response	0	space		80.0	2.5	/experiments/knapen_aot/videos/R_S_b5-3.mp4	0.0	388.14659786224365	
82	307.68989396095276	movie	1		168.0	80.0	2.5	/experiments/knapen_aot/videos/R_S_b5-3.mp4	0.0	388.154855966568	2.5083820819854736
82	310.19827604293823	fix_post	2		12.0	80.0	2.5	/experiments/knapen_aot/videos/R_S_b5-3.mp4	0.0	390.66323804855347	0.10000300407409668
83	310.29827904701233	fix_pre	0		140.0	81.0	2.5	/experiments/knapen_aot/videos/S_pexels-cottonbro-5310858.mp4	0.0	390.76324105262756	1.1666169166564941
83	311.45666790008545	response	0	space		81.0	2.5	/experiments/knapen_aot/videos/S_pexels-cottonbro-5310858.mp4	0.0	391.9216299057007	
83	311.4648959636688	movie	1		163.0	81.0	2.5	/experiments/knapen_aot/videos/S_pexels-cottonbro-5310858.mp4	0.0	391.92985796928406	2.5083529949188232
83	313.97324895858765	fix_post	2		12.0	81.0	2.5	/experiments/knapen_aot/videos/S_pexels-cottonbro-5310858.mp4	0.0	394.4382109642029	0.1001889705657959
84	314.07343792915344	fix_pre	0		106.0	82.0	2.5	/experiments/knapen_aot/videos/S_3WAnGcPubBY_143.mp4	0.0	394.5383999347687	0.8831300735473633
84	314.9483609199524	response	0	space		82.0	2.5	/experiments/knapen_aot/videos/S_3WAnGcPubBY_143.mp4	0.0	395.4133229255676	
84	314.9565680027008	movie	1		301.0	82.0	2.5	/experiments/knapen_aot/videos/S_3WAnGcPubBY_143.mp4	0.0	395.42153000831604	2.5083529949188232
84	317.46492099761963	fix_post	2		12.0	82.0	2.5	/experiments/knapen_aot/videos/S_3WAnGcPubBY_143.mp4	0.0	397.92988300323486	0.09998703002929688
85	317.5649080276489	fix_pre	0		90.0	83.0	2.5	blank	1.0	398.02987003326416	0.7498838901519775
85	318.3066420555115	response	0	space		83.0	2.5	blank	1.0	398.7716040611267	
85	318.3147919178009	movie	1		301.0	83.0	2.5	blank	1.0	398.77975392341614	2.5084171295166016
85	320.8232090473175	fix_post	2		12.0	83.0	2.5	blank	1.0	401.28817105293274	0.09997987747192383
87	320.92318892478943	stim	0		73.0					401.38815093040466	0.6082770824432373
87	321.51604986190796	response	0	space						401.9810118675232	
