trial_nr	onset	event_type	phase	response	nr_frames	movie_index	movie_duration	movie_file	blank	onset_abs	duration
0	0.12824106216430664	stim	0		112.0					67.69018197059631	0.9305770397186279
0	1.0500819683074951	response	0	space						68.6120228767395	
1	1.0588181018829346	stim	0		121.0					68.62075901031494	1.0074639320373535
1	1.708111047744751	response	0	space						69.27005195617676	
1	2.066282033920288	stim	1		120.0					69.6282229423523	0.9998719692230225
1	2.0747721195220947	response	1	space						69.6367130279541	
1	2.3413140773773193	response	1	space						69.90325498580933	
1	2.6255359649658203	response	1	space						70.18747687339783	
1	2.9663219451904297	response	1	space						70.52826285362244	
2	3.0661540031433105	fix_pre	0		36.0	0.0	2.5	/experiments/knapen_aot/videos/S_ILSVRC2015_train_00324001.mp4	0.0	70.62809491157532	0.30005407333374023
2	3.3580310344696045	response	0	space		0.0	2.5	/experiments/knapen_aot/videos/S_ILSVRC2015_train_00324001.mp4	0.0	70.91997194290161	
2	3.366208076477051	movie	1		300.0	0.0	2.5	/experiments/knapen_aot/videos/S_ILSVRC2015_train_00324001.mp4	0.0	70.92814898490906	2.5083298683166504
2	3.6046979427337646	response	1	4		0.0	2.5	/experiments/knapen_aot/videos/S_ILSVRC2015_train_00324001.mp4	0.0	71.16663885116577	
2	5.874537944793701	fix_post	2		12.0	0.0	2.5	/experiments/knapen_aot/videos/S_ILSVRC2015_train_00324001.mp4	0.0	73.43647885322571	0.09997916221618652
3	5.974517107009888	fix_pre	0		20.0	1.0	2.5	/experiments/knapen_aot/videos/S_ILSVRC2015_train_00473001.mp4	0.0	73.5364580154419	0.16724181175231934
3	6.133060932159424	response	0	2		1.0	2.5	/experiments/knapen_aot/videos/S_ILSVRC2015_train_00473001.mp4	0.0	73.69500184059143	
3	6.141758918762207	movie	1		301.0	1.0	2.5	/experiments/knapen_aot/videos/S_ILSVRC2015_train_00473001.mp4	0.0	73.70369982719421	2.5078911781311035
3	8.64965009689331	fix_post	2		12.0	1.0	2.5	/experiments/knapen_aot/videos/S_ILSVRC2015_train_00473001.mp4	0.0	76.21159100532532	0.09989786148071289
4	8.749547958374023	fix_pre	0		11.0	2.0	2.5	/experiments/knapen_aot/videos/S_yt-eF5J5Kjt6oY_23.mp4	0.0	76.31148886680603	0.09166097640991211
4	8.833230018615723	response	0	2		2.0	2.5	/experiments/knapen_aot/videos/S_yt-eF5J5Kjt6oY_23.mp4	0.0	76.39517092704773	
4	8.841208934783936	movie	1		301.0	2.0	2.5	/experiments/knapen_aot/videos/S_yt-eF5J5Kjt6oY_23.mp4	0.0	76.40314984321594	2.508249044418335
4	11.34945797920227	fix_post	2		12.0	2.0	2.5	/experiments/knapen_aot/videos/S_yt-eF5J5Kjt6oY_23.mp4	0.0	78.91139888763428	0.10004591941833496
5	11.449503898620605	fix_pre	0		9.0	3.0	2.5	/experiments/knapen_aot/videos/S_ILSVRC2015_train_00569007.mp4	0.0	79.01144480705261	0.07503223419189453
5	11.516333103179932	response	0	2		3.0	2.5	/experiments/knapen_aot/videos/S_ILSVRC2015_train_00569007.mp4	0.0	79.07827401161194	
5	11.5245361328125	movie	1		301.0	3.0	2.5	/experiments/knapen_aot/videos/S_ILSVRC2015_train_00569007.mp4	0.0	79.0864770412445	2.5083489418029785
5	14.032885074615479	fix_post	2		12.0	3.0	2.5	/experiments/knapen_aot/videos/S_ILSVRC2015_train_00569007.mp4	0.0	81.59482598304749	0.0999150276184082
6	14.132800102233887	fix_pre	0		21.0	4.0	2.5	/experiments/knapen_aot/videos/R_S_ILSVRC2015_train_00067003.mp4	0.0	81.6947410106659	0.17555785179138184
6	14.29967212677002	response	0	2		4.0	2.5	/experiments/knapen_aot/videos/R_S_ILSVRC2015_train_00067003.mp4	0.0	81.86161303520203	
6	14.308357954025269	movie	1		300.0	4.0	2.5	/experiments/knapen_aot/videos/R_S_ILSVRC2015_train_00067003.mp4	0.0	81.87029886245728	2.5078539848327637
6	16.816211938858032	fix_post	2		12.0	4.0	2.5	/experiments/knapen_aot/videos/R_S_ILSVRC2015_train_00067003.mp4	0.0	84.37815284729004	0.09981012344360352
7	16.916022062301636	fix_pre	0		15.0	5.0	2.5	/experiments/knapen_aot/videos/S_yt-2pRKCSgdXXU_30.mp4	0.0	84.47796297073364	0.12522506713867188
7	17.032948970794678	response	0	2		5.0	2.5	/experiments/knapen_aot/videos/S_yt-2pRKCSgdXXU_30.mp4	0.0	84.59488987922668	
7	17.041247129440308	movie	1		301.0	5.0	2.5	/experiments/knapen_aot/videos/S_yt-2pRKCSgdXXU_30.mp4	0.0	84.60318803787231	2.5082738399505615
7	19.54952096939087	fix_post	2		12.0	5.0	2.5	/experiments/knapen_aot/videos/S_yt-2pRKCSgdXXU_30.mp4	0.0	87.11146187782288	0.10001611709594727
8	19.649537086486816	fix_pre	0		27.0	6.0	2.5	blank	1.0	87.21147799491882	0.22501683235168457
8	19.86629295349121	response	0	2		6.0	2.5	blank	1.0	87.42823386192322	
8	19.8745539188385	movie	1		301.0	6.0	2.5	blank	1.0	87.43649482727051	2.508280038833618
8	21.79115605354309	response	1	2		6.0	2.5	blank	1.0	89.3530969619751	
8	22.38283395767212	fix_post	2		12.0	6.0	2.5	blank	1.0	89.94477486610413	0.09994101524353027
9	22.48277497291565	fix_pre	0		15.0	7.0	2.5	/experiments/knapen_aot/videos/R_S_yt-yXJr3FR2xrM_27.mp4	0.0	90.04471588134766	0.12504100799560547
9	22.599602937698364	response	0	2		7.0	2.5	/experiments/knapen_aot/videos/R_S_yt-yXJr3FR2xrM_27.mp4	0.0	90.16154384613037	
9	22.607815980911255	movie	1		301.0	7.0	2.5	/experiments/knapen_aot/videos/R_S_yt-yXJr3FR2xrM_27.mp4	0.0	90.16975688934326	2.5083229541778564
9	25.11613893508911	fix_post	2		12.0	7.0	2.5	/experiments/knapen_aot/videos/R_S_yt-yXJr3FR2xrM_27.mp4	0.0	92.67807984352112	0.1000821590423584
10	25.21622109413147	fix_pre	0		27.0	8.0	2.5	/experiments/knapen_aot/videos/R_S_production_ID_4269182.mp4	0.0	92.77816200256348	0.22493600845336914
10	25.432918071746826	response	0	2		8.0	2.5	/experiments/knapen_aot/videos/R_S_production_ID_4269182.mp4	0.0	92.99485898017883	
10	25.44115710258484	movie	1		187.0	8.0	2.5	/experiments/knapen_aot/videos/R_S_production_ID_4269182.mp4	0.0	93.00309801101685	2.508262872695923
10	27.94941997528076	fix_post	2		12.0	8.0	2.5	/experiments/knapen_aot/videos/R_S_production_ID_4269182.mp4	0.0	95.51136088371277	0.10001301765441895
11	28.04943299293518	fix_pre	0		21.0	9.0	2.5	/experiments/knapen_aot/videos/R_S_yt-LB9LoYfH_EA_15.mp4	0.0	95.61137390136719	0.17547202110290527
11	28.216349124908447	response	0	2		9.0	2.5	/experiments/knapen_aot/videos/R_S_yt-LB9LoYfH_EA_15.mp4	0.0	95.77829003334045	
11	28.224905014038086	movie	1		301.0	9.0	2.5	/experiments/knapen_aot/videos/R_S_yt-LB9LoYfH_EA_15.mp4	0.0	95.78684592247009	2.5079169273376465
11	30.732821941375732	fix_post	2		12.0	9.0	2.5	/experiments/knapen_aot/videos/R_S_yt-LB9LoYfH_EA_15.mp4	0.0	98.29476284980774	0.09995818138122559
12	30.832780122756958	fix_pre	0		104.0	10.0	2.5	/experiments/knapen_aot/videos/S_yt-nYi_FfCjepk_74.mp4	0.0	98.39472103118896	0.8666257858276367
12	31.691268920898438	response	0	2		10.0	2.5	/experiments/knapen_aot/videos/S_yt-nYi_FfCjepk_74.mp4	0.0	99.25320982933044	
12	31.699405908584595	movie	1		301.0	10.0	2.5	/experiments/knapen_aot/videos/S_yt-nYi_FfCjepk_74.mp4	0.0	99.2613468170166	2.5083250999450684
12	34.20773100852966	fix_post	2		12.0	10.0	2.5	/experiments/knapen_aot/videos/S_yt-nYi_FfCjepk_74.mp4	0.0	101.76967191696167	0.10006093978881836
13	34.30779194831848	fix_pre	0		8.0	11.0	2.5	/experiments/knapen_aot/videos/R_S_ILSVRC2015_train_00761000.mp4	0.0	101.86973285675049	0.0667111873626709
13	34.366568088531494	response	0	2		11.0	2.5	/experiments/knapen_aot/videos/R_S_ILSVRC2015_train_00761000.mp4	0.0	101.9285089969635	
13	34.37450313568115	movie	1		301.0	11.0	2.5	/experiments/knapen_aot/videos/R_S_ILSVRC2015_train_00761000.mp4	0.0	101.93644404411316	2.5082919597625732
13	36.882795095443726	fix_post	2		12.0	11.0	2.5	/experiments/knapen_aot/videos/R_S_ILSVRC2015_train_00761000.mp4	0.0	104.44473600387573	0.09999299049377441
14	36.9827880859375	fix_pre	0		17.0	12.0	2.5	/experiments/knapen_aot/videos/S_yt-rqYMMAU_GJs_91.mp4	0.0	104.5447289943695	0.14162302017211914
14	37.11616396903992	response	0	2		12.0	2.5	/experiments/knapen_aot/videos/S_yt-rqYMMAU_GJs_91.mp4	0.0	104.67810487747192	
14	37.12441110610962	movie	1		301.0	12.0	2.5	/experiments/knapen_aot/videos/S_yt-rqYMMAU_GJs_91.mp4	0.0	104.68635201454163	2.50836181640625
14	39.63277292251587	fix_post	2		12.0	12.0	2.5	/experiments/knapen_aot/videos/S_yt-rqYMMAU_GJs_91.mp4	0.0	107.19471383094788	0.0999290943145752
15	39.732702016830444	fix_pre	0		15.0	13.0	2.5	/experiments/knapen_aot/videos/R_S_yt-4Qz0m5IYh10_167.mp4	0.0	107.29464292526245	0.12503695487976074
15	39.84958600997925	response	0	2		13.0	2.5	/experiments/knapen_aot/videos/R_S_yt-4Qz0m5IYh10_167.mp4	0.0	107.41152691841125	
15	39.857738971710205	movie	1		301.0	13.0	2.5	/experiments/knapen_aot/videos/R_S_yt-4Qz0m5IYh10_167.mp4	0.0	107.41967988014221	2.5083179473876953
15	42.3660569190979	fix_post	2		12.0	13.0	2.5	/experiments/knapen_aot/videos/R_S_yt-4Qz0m5IYh10_167.mp4	0.0	109.92799782752991	0.09992218017578125
16	42.46597909927368	fix_pre	0		41.0	14.0	2.5	blank	1.0	110.02792000770569	0.34215784072875977
16	42.799530029296875	response	0	2		14.0	2.5	blank	1.0	110.36147093772888	
16	42.80813694000244	movie	1		301.0	14.0	2.5	blank	1.0	110.37007784843445	2.5079619884490967
16	45.31609892845154	fix_post	2		12.0	14.0	2.5	blank	1.0	112.87803983688354	0.09996199607849121
17	45.41606092453003	fix_pre	0		13.0	15.0	2.5	/experiments/knapen_aot/videos/R_S_yt-LGwEki4ghNw_69.mp4	0.0	112.97800183296204	0.10828709602355957
17	45.51619601249695	response	0	2		15.0	2.5	/experiments/knapen_aot/videos/R_S_yt-LGwEki4ghNw_69.mp4	0.0	113.07813692092896	
17	45.52434802055359	movie	1		301.0	15.0	2.5	/experiments/knapen_aot/videos/R_S_yt-LGwEki4ghNw_69.mp4	0.0	113.0862889289856	2.5083870887756348
17	48.032735109329224	fix_post	2		12.0	15.0	2.5	/experiments/knapen_aot/videos/R_S_yt-LGwEki4ghNw_69.mp4	0.0	115.59467601776123	0.10001587867736816
18	48.13275098800659	fix_pre	0		50.0	16.0	2.5	/experiments/knapen_aot/videos/R_S_yt-jcuaf9iSEkI_169.mp4	0.0	115.6946918964386	0.4165370464324951
18	48.54119801521301	response	0	2		16.0	2.5	/experiments/knapen_aot/videos/R_S_yt-jcuaf9iSEkI_169.mp4	0.0	116.10313892364502	
18	48.54928803443909	movie	1		298.0	16.0	2.5	/experiments/knapen_aot/videos/R_S_yt-jcuaf9iSEkI_169.mp4	0.0	116.1112289428711	2.5083200931549072
18	51.057608127593994	fix_post	2		12.0	16.0	2.5	/experiments/knapen_aot/videos/R_S_yt-jcuaf9iSEkI_169.mp4	0.0	118.619549036026	0.10004591941833496
19	51.15765404701233	fix_pre	0		38.0	17.0	2.5	/experiments/knapen_aot/videos/R_S_yt-2V2tq9-O_Nc_1669.mp4	0.0	118.71959495544434	0.3169980049133301
19	51.46608805656433	response	0	2		17.0	2.5	/experiments/knapen_aot/videos/R_S_yt-2V2tq9-O_Nc_1669.mp4	0.0	119.02802896499634	
19	51.47465205192566	movie	1		301.0	17.0	2.5	/experiments/knapen_aot/videos/R_S_yt-2V2tq9-O_Nc_1669.mp4	0.0	119.03659296035767	2.5081698894500732
19	53.98282194137573	fix_post	2		12.0	17.0	2.5	/experiments/knapen_aot/videos/R_S_yt-2V2tq9-O_Nc_1669.mp4	0.0	121.54476284980774	0.09987616539001465
20	54.08269810676575	fix_pre	0		19.0	18.0	2.5	/experiments/knapen_aot/videos/R_S_yt-2pRKCSgdXXU_30.mp4	0.0	121.64463901519775	0.15833187103271484
20	54.23283004760742	response	0	2		18.0	2.5	/experiments/knapen_aot/videos/R_S_yt-2pRKCSgdXXU_30.mp4	0.0	121.79477095603943	
20	54.24102997779846	movie	1		299.0	18.0	2.5	/experiments/knapen_aot/videos/R_S_yt-2pRKCSgdXXU_30.mp4	0.0	121.80297088623047	2.508315086364746
20	56.74934506416321	fix_post	2		12.0	18.0	2.5	/experiments/knapen_aot/videos/R_S_yt-2pRKCSgdXXU_30.mp4	0.0	124.31128597259521	0.10030293464660645
21	56.849647998809814	fix_pre	0		33.0	19.0	2.5	blank	1.0	124.41158890724182	0.27472710609436035
21	57.108601093292236	response	0	2		19.0	2.5	blank	1.0	124.67054200172424	
21	57.124375104904175	movie	1		301.0	19.0	2.5	blank	1.0	124.68631601333618	2.5082449913024902
21	59.38279104232788	response	1	2		19.0	2.5	blank	1.0	126.94473195075989	
21	59.632620096206665	fix_post	2		12.0	19.0	2.5	blank	1.0	127.19456100463867	0.10001492500305176
22	59.73263502120972	fix_pre	0		18.0	20.0	2.5	/experiments/knapen_aot/videos/S_Person_Going_Through_A_Bible.mp4	0.0	127.29457592964172	0.14998698234558105
22	59.8745059967041	response	0	2		20.0	2.5	/experiments/knapen_aot/videos/S_Person_Going_Through_A_Bible.mp4	0.0	127.43644690513611	
22	59.8826220035553	movie	1		163.0	20.0	2.5	/experiments/knapen_aot/videos/S_Person_Going_Through_A_Bible.mp4	0.0	127.4445629119873	2.5083940029144287
22	62.39101600646973	fix_post	2		12.0	20.0	2.5	/experiments/knapen_aot/videos/S_Person_Going_Through_A_Bible.mp4	0.0	129.95295691490173	0.09994006156921387
23	62.49095606803894	fix_pre	0		75.0	21.0	2.5	/experiments/knapen_aot/videos/S_PA_A001_C007_SDR_20190717_SDR_2K_AVC.mp4	0.0	130.05289697647095	0.6250078678131104
23	63.10791897773743	response	0	2		21.0	2.5	/experiments/knapen_aot/videos/S_PA_A001_C007_SDR_20190717_SDR_2K_AVC.mp4	0.0	130.66985988616943	
23	63.11596393585205	movie	1		164.0	21.0	2.5	/experiments/knapen_aot/videos/S_PA_A001_C007_SDR_20190717_SDR_2K_AVC.mp4	0.0	130.67790484428406	2.508305072784424
23	65.62426900863647	fix_post	2		12.0	21.0	2.5	/experiments/knapen_aot/videos/S_PA_A001_C007_SDR_20190717_SDR_2K_AVC.mp4	0.0	133.18620991706848	0.10028505325317383
23	65.67447900772095	response	2	2		21.0	2.5	/experiments/knapen_aot/videos/S_PA_A001_C007_SDR_20190717_SDR_2K_AVC.mp4	0.0	133.23641991615295	
24	65.72455406188965	fix_pre	0		68.0	22.0	2.5	/experiments/knapen_aot/videos/S_yt-SCzpSxzt0TA_46.mp4	0.0	133.28649497032166	0.5677840709686279
24	66.28264713287354	response	0	2		22.0	2.5	/experiments/knapen_aot/videos/S_yt-SCzpSxzt0TA_46.mp4	0.0	133.84458804130554	
24	66.29233813285828	movie	1		301.0	22.0	2.5	/experiments/knapen_aot/videos/S_yt-SCzpSxzt0TA_46.mp4	0.0	133.85427904129028	2.5069479942321777
24	68.79928612709045	fix_post	2		12.0	22.0	2.5	/experiments/knapen_aot/videos/S_yt-SCzpSxzt0TA_46.mp4	0.0	136.36122703552246	0.10004687309265137
25	68.8993330001831	fix_pre	0		15.0	23.0	2.5	/experiments/knapen_aot/videos/R_S_comp_LA_A008_C004_ALTB_ED_FROM_FLAME_RETIME_v46_SDR_PS_20180917_SDR_2K_AVC.mp4	0.0	136.4612739086151	0.12492108345031738
25	69.01602411270142	response	0	4		23.0	2.5	/experiments/knapen_aot/videos/R_S_comp_LA_A008_C004_ALTB_ED_FROM_FLAME_RETIME_v46_SDR_PS_20180917_SDR_2K_AVC.mp4	0.0	136.57796502113342	
25	69.02425408363342	movie	1		173.0	23.0	2.5	/experiments/knapen_aot/videos/R_S_comp_LA_A008_C004_ALTB_ED_FROM_FLAME_RETIME_v46_SDR_PS_20180917_SDR_2K_AVC.mp4	0.0	136.58619499206543	2.5083658695220947
25	71.53261995315552	fix_post	2		12.0	23.0	2.5	/experiments/knapen_aot/videos/R_S_comp_LA_A008_C004_ALTB_ED_FROM_FLAME_RETIME_v46_SDR_PS_20180917_SDR_2K_AVC.mp4	0.0	139.09456086158752	0.10001707077026367
26	71.63263702392578	fix_pre	0		22.0	24.0	2.5	/experiments/knapen_aot/videos/R_S_ILSVRC2015_train_00569007.mp4	0.0	139.1945779323578	0.1833341121673584
26	71.80774092674255	response	0	4		24.0	2.5	/experiments/knapen_aot/videos/R_S_ILSVRC2015_train_00569007.mp4	0.0	139.36968183517456	
26	71.81597113609314	movie	1		301.0	24.0	2.5	/experiments/knapen_aot/videos/R_S_ILSVRC2015_train_00569007.mp4	0.0	139.37791204452515	2.508344888687134
26	74.32431602478027	fix_post	2		12.0	24.0	2.5	/experiments/knapen_aot/videos/R_S_ILSVRC2015_train_00569007.mp4	0.0	141.88625693321228	0.09994697570800781
27	74.42426300048828	fix_pre	0		16.0	25.0	2.5	/experiments/knapen_aot/videos/S_ILSVRC2015_train_00067003.mp4	0.0	141.9862039089203	0.13347101211547852
27	74.54939293861389	response	0	4		25.0	2.5	/experiments/knapen_aot/videos/S_ILSVRC2015_train_00067003.mp4	0.0	142.1113338470459	
27	74.55773401260376	movie	1		301.0	25.0	2.5	/experiments/knapen_aot/videos/S_ILSVRC2015_train_00067003.mp4	0.0	142.11967492103577	2.508168935775757
27	77.06590294837952	fix_post	2		12.0	25.0	2.5	/experiments/knapen_aot/videos/S_ILSVRC2015_train_00067003.mp4	0.0	144.62784385681152	0.10000896453857422
28	77.16591191291809	fix_pre	0		3.0	26.0	2.5	/experiments/knapen_aot/videos/R_S_flickr-csgzs-8144064966_10.mp4	0.0	144.7278528213501	0.02498316764831543
28	77.18329501152039	response	0	4		26.0	2.5	/experiments/knapen_aot/videos/R_S_flickr-csgzs-8144064966_10.mp4	0.0	144.7452359199524	
28	77.1908950805664	movie	1		300.0	26.0	2.5	/experiments/knapen_aot/videos/R_S_flickr-csgzs-8144064966_10.mp4	0.0	144.7528359889984	2.508309841156006
28	79.69920492172241	fix_post	2		12.0	26.0	2.5	/experiments/knapen_aot/videos/R_S_flickr-csgzs-8144064966_10.mp4	0.0	147.26114583015442	0.10005402565002441
29	79.79925894737244	fix_pre	0		13.0	27.0	2.5	/experiments/knapen_aot/videos/S_yt-VQtbKGzI9SE_431.mp4	0.0	147.36119985580444	0.10830497741699219
29	79.899423122406	response	0	4		27.0	2.5	/experiments/knapen_aot/videos/S_yt-VQtbKGzI9SE_431.mp4	0.0	147.461364030838	
29	79.90756392478943	movie	1		301.0	27.0	2.5	/experiments/knapen_aot/videos/S_yt-VQtbKGzI9SE_431.mp4	0.0	147.46950483322144	2.5082361698150635
29	82.20768594741821	response	1	4		27.0	2.5	/experiments/knapen_aot/videos/S_yt-VQtbKGzI9SE_431.mp4	0.0	149.76962685585022	
29	82.41580009460449	fix_post	2		12.0	27.0	2.5	/experiments/knapen_aot/videos/S_yt-VQtbKGzI9SE_431.mp4	0.0	149.9777410030365	0.1002509593963623
30	82.51605105400085	fix_pre	0		55.0	28.0	2.5	blank	1.0	150.07799196243286	0.4583120346069336
30	82.96601796150208	response	0	4		28.0	2.5	blank	1.0	150.52795886993408	
30	82.97436308860779	movie	1		301.0	28.0	2.5	blank	1.0	150.5363039970398	2.508143901824951
30	85.48250699043274	fix_post	2		12.0	28.0	2.5	blank	1.0	153.04444789886475	0.09994006156921387
31	85.58244705200195	fix_pre	0		26.0	29.0	2.5	/experiments/knapen_aot/videos/S_production_ID_4269182.mp4	0.0	153.14438796043396	0.2167370319366455
31	85.79099798202515	response	0	4		29.0	2.5	/experiments/knapen_aot/videos/S_production_ID_4269182.mp4	0.0	153.35293889045715	
31	85.7991840839386	movie	1		191.0	29.0	2.5	/experiments/knapen_aot/videos/S_production_ID_4269182.mp4	0.0	153.3611249923706	2.50846791267395
31	88.30765199661255	fix_post	2		12.0	29.0	2.5	/experiments/knapen_aot/videos/S_production_ID_4269182.mp4	0.0	155.86959290504456	0.09984898567199707
32	88.40750098228455	fix_pre	0		45.0	30.0	2.5	/experiments/knapen_aot/videos/S_yt-nQu-PAXBv2g_5.mp4	0.0	155.96944189071655	0.3749980926513672
32	88.77432799339294	response	0	4		30.0	2.5	/experiments/knapen_aot/videos/S_yt-nQu-PAXBv2g_5.mp4	0.0	156.33626890182495	
32	88.78249907493591	movie	1		301.0	30.0	2.5	/experiments/knapen_aot/videos/S_yt-nQu-PAXBv2g_5.mp4	0.0	156.34443998336792	2.5083658695220947
32	91.29086494445801	fix_post	2		12.0	30.0	2.5	/experiments/knapen_aot/videos/S_yt-nQu-PAXBv2g_5.mp4	0.0	158.85280585289001	0.10005617141723633
33	91.39092111587524	fix_pre	0		63.0	31.0	2.5	/experiments/knapen_aot/videos/R_S_yt-n6aLw10f2Yw_317.mp4	0.0	158.95286202430725	0.5248849391937256
33	91.90767002105713	response	0	4		31.0	2.5	/experiments/knapen_aot/videos/R_S_yt-n6aLw10f2Yw_317.mp4	0.0	159.46961092948914	
33	91.91580605506897	movie	1		300.0	31.0	2.5	/experiments/knapen_aot/videos/R_S_yt-n6aLw10f2Yw_317.mp4	0.0	159.47774696350098	2.508370876312256
33	94.42417693138123	fix_post	2		12.0	31.0	2.5	/experiments/knapen_aot/videos/R_S_yt-n6aLw10f2Yw_317.mp4	0.0	161.98611783981323	0.09997105598449707
34	94.52414798736572	fix_pre	0		22.0	32.0	2.5	/experiments/knapen_aot/videos/S_yt-c5KPuyzO-50_4.mp4	0.0	162.08608889579773	0.18326592445373535
34	94.69933700561523	response	0	4		32.0	2.5	/experiments/knapen_aot/videos/S_yt-c5KPuyzO-50_4.mp4	0.0	162.26127791404724	
34	94.70741391181946	movie	1		301.0	32.0	2.5	/experiments/knapen_aot/videos/S_yt-c5KPuyzO-50_4.mp4	0.0	162.26935482025146	2.5083491802215576
34	97.21576309204102	fix_post	2		12.0	32.0	2.5	/experiments/knapen_aot/videos/S_yt-c5KPuyzO-50_4.mp4	0.0	164.77770400047302	0.10009098052978516
35	97.3158540725708	fix_pre	0		34.0	33.0	2.5	/experiments/knapen_aot/videos/R_S_production_ID_4057155.mp4	0.0	164.8777949810028	0.283336877822876
35	97.59095311164856	response	0	4		33.0	2.5	/experiments/knapen_aot/videos/R_S_production_ID_4057155.mp4	0.0	165.15289402008057	
35	97.59919095039368	movie	1		207.0	33.0	2.5	/experiments/knapen_aot/videos/R_S_production_ID_4057155.mp4	0.0	165.16113185882568	2.5082919597625732
35	100.10748291015625	fix_post	2		12.0	33.0	2.5	/experiments/knapen_aot/videos/R_S_production_ID_4057155.mp4	0.0	167.66942381858826	0.0999910831451416
36	100.20747399330139	fix_pre	0		29.0	34.0	2.5	blank	1.0	167.7694149017334	0.2416980266571045
36	100.44088101387024	response	0	4		34.0	2.5	blank	1.0	168.00282192230225	
36	100.4491720199585	movie	1		301.0	34.0	2.5	blank	1.0	168.0111129283905	2.508302927017212
36	102.95747494697571	fix_post	2		12.0	34.0	2.5	blank	1.0	170.51941585540771	0.10007500648498535
37	103.0575499534607	fix_pre	0		16.0	35.0	2.5	/experiments/knapen_aot/videos/R_S_yt-lADkWM79teI_18.mp4	0.0	170.6194908618927	0.1331920623779297
37	103.18257308006287	response	0	4		35.0	2.5	/experiments/knapen_aot/videos/R_S_yt-lADkWM79teI_18.mp4	0.0	170.74451398849487	
37	103.19074201583862	movie	1		301.0	35.0	2.5	/experiments/knapen_aot/videos/R_S_yt-lADkWM79teI_18.mp4	0.0	170.75268292427063	2.5082828998565674
37	105.69902491569519	fix_post	2		12.0	35.0	2.5	/experiments/knapen_aot/videos/R_S_yt-lADkWM79teI_18.mp4	0.0	173.2609658241272	0.10009407997131348
38	105.7991189956665	fix_pre	0		29.0	36.0	2.5	/experiments/knapen_aot/videos/S_yt-eLQydFSMGCU_75.mp4	0.0	173.3610599040985	0.24170207977294922
38	106.0325939655304	response	0	4		36.0	2.5	/experiments/knapen_aot/videos/S_yt-eLQydFSMGCU_75.mp4	0.0	173.5945348739624	
38	106.04082107543945	movie	1		301.0	36.0	2.5	/experiments/knapen_aot/videos/S_yt-eLQydFSMGCU_75.mp4	0.0	173.60276198387146	2.5083260536193848
38	108.54914712905884	fix_post	2		12.0	36.0	2.5	/experiments/knapen_aot/videos/S_yt-eLQydFSMGCU_75.mp4	0.0	176.11108803749084	0.0999758243560791
39	108.64912295341492	fix_pre	0		35.0	37.0	2.5	/experiments/knapen_aot/videos/S_yt-ZBk_XFb5PGo_25.mp4	0.0	176.21106386184692	0.2916290760040283
39	108.92493796348572	response	0	4		37.0	2.5	/experiments/knapen_aot/videos/S_yt-ZBk_XFb5PGo_25.mp4	0.0	176.48687887191772	
39	108.94075202941895	movie	1		301.0	37.0	2.5	/experiments/knapen_aot/videos/S_yt-ZBk_XFb5PGo_25.mp4	0.0	176.50269293785095	2.5083789825439453
39	111.44913101196289	fix_post	2		12.0	37.0	2.5	/experiments/knapen_aot/videos/S_yt-ZBk_XFb5PGo_25.mp4	0.0	179.0110719203949	0.09999704360961914
40	111.54912805557251	fix_pre	0		25.0	38.0	2.5	/experiments/knapen_aot/videos/S_yt-n6aLw10f2Yw_317.mp4	0.0	179.11106896400452	0.20825600624084473
40	111.74924612045288	response	0	4		38.0	2.5	/experiments/knapen_aot/videos/S_yt-n6aLw10f2Yw_317.mp4	0.0	179.3111870288849	
40	111.75738406181335	movie	1		301.0	38.0	2.5	/experiments/knapen_aot/videos/S_yt-n6aLw10f2Yw_317.mp4	0.0	179.31932497024536	2.508375883102417
40	114.26575994491577	fix_post	2		12.0	38.0	2.5	/experiments/knapen_aot/videos/S_yt-n6aLw10f2Yw_317.mp4	0.0	181.82770085334778	0.100006103515625
41	114.3657660484314	fix_pre	0		31.0	39.0	2.5	/experiments/knapen_aot/videos/S_TYs22gin-EU_57.mp4	0.0	181.9277069568634	0.25827908515930176
41	114.61594104766846	response	0	4		39.0	2.5	/experiments/knapen_aot/videos/S_TYs22gin-EU_57.mp4	0.0	182.17788195610046	
41	114.6240451335907	movie	1		301.0	39.0	2.5	/experiments/knapen_aot/videos/S_TYs22gin-EU_57.mp4	0.0	182.1859860420227	2.5082759857177734
41	117.13232111930847	fix_post	2		12.0	39.0	2.5	/experiments/knapen_aot/videos/S_TYs22gin-EU_57.mp4	0.0	184.69426202774048	0.10009193420410156
42	117.23241305351257	fix_pre	0		34.0	40.0	2.5	blank	1.0	184.79435396194458	0.28328800201416016
42	117.50765109062195	response	0	4		40.0	2.5	blank	1.0	185.06959199905396	
42	117.51570105552673	movie	1		301.0	40.0	2.5	blank	1.0	185.07764196395874	2.508344888687134
42	120.02404594421387	fix_post	2		12.0	40.0	2.5	blank	1.0	187.58598685264587	0.100006103515625
43	120.12405204772949	fix_pre	0		13.0	41.0	2.5	/experiments/knapen_aot/videos/R_S_yt-LGwEki4ghNw_69.mp4	0.0	187.6859929561615	0.10832405090332031
43	120.22417092323303	response	0	4		41.0	2.5	/experiments/knapen_aot/videos/R_S_yt-LGwEki4ghNw_69.mp4	0.0	187.78611183166504	
43	120.23237609863281	movie	1		299.0	41.0	2.5	/experiments/knapen_aot/videos/R_S_yt-LGwEki4ghNw_69.mp4	0.0	187.79431700706482	2.5082898139953613
43	122.74066591262817	fix_post	2		12.0	41.0	2.5	/experiments/knapen_aot/videos/R_S_yt-LGwEki4ghNw_69.mp4	0.0	190.30260682106018	0.10001111030578613
44	122.84067702293396	fix_pre	0		43.0	42.0	2.5	/experiments/knapen_aot/videos/S_yt-V5iQ3MbihnI_103.mp4	0.0	190.40261793136597	0.35832905769348145
44	123.19082498550415	response	0	4		42.0	2.5	/experiments/knapen_aot/videos/S_yt-V5iQ3MbihnI_103.mp4	0.0	190.75276589393616	
44	123.19900608062744	movie	1		301.0	42.0	2.5	/experiments/knapen_aot/videos/S_yt-V5iQ3MbihnI_103.mp4	0.0	190.76094698905945	2.5083580017089844
44	125.70736408233643	fix_post	2		12.0	42.0	2.5	/experiments/knapen_aot/videos/S_yt-V5iQ3MbihnI_103.mp4	0.0	193.26930499076843	0.10002899169921875
45	125.80739307403564	fix_pre	0		42.0	43.0	2.5	/experiments/knapen_aot/videos/S_yt-3aTDYxyF6bc_35.mp4	0.0	193.36933398246765	0.34998083114624023
45	126.1491870880127	response	0	4		43.0	2.5	/experiments/knapen_aot/videos/S_yt-3aTDYxyF6bc_35.mp4	0.0	193.7111279964447	
45	126.15737390518188	movie	1		301.0	43.0	2.5	/experiments/knapen_aot/videos/S_yt-3aTDYxyF6bc_35.mp4	0.0	193.7193148136139	2.508348226547241
45	128.66572213172913	fix_post	2		12.0	43.0	2.5	/experiments/knapen_aot/videos/S_yt-3aTDYxyF6bc_35.mp4	0.0	196.22766304016113	0.09998297691345215
46	128.76570510864258	fix_pre	0		31.0	44.0	2.5	/experiments/knapen_aot/videos/R_S_yt-VTNBCfQxnsk_59.mp4	0.0	196.32764601707458	0.25830698013305664
46	129.01586604118347	response	0	4		44.0	2.5	/experiments/knapen_aot/videos/R_S_yt-VTNBCfQxnsk_59.mp4	0.0	196.57780694961548	
46	129.02401208877563	movie	1		301.0	44.0	2.5	/experiments/knapen_aot/videos/R_S_yt-VTNBCfQxnsk_59.mp4	0.0	196.58595299720764	2.5083048343658447
46	131.53231692314148	fix_post	2		12.0	44.0	2.5	/experiments/knapen_aot/videos/R_S_yt-VTNBCfQxnsk_59.mp4	0.0	199.0942578315735	0.10001516342163086
47	131.6323320865631	fix_pre	0		51.0	45.0	2.5	/experiments/knapen_aot/videos/S_Pz_NXxhQCJc_70.mp4	0.0	199.19427299499512	0.424968957901001
47	132.049152135849	response	0	4		45.0	2.5	/experiments/knapen_aot/videos/S_Pz_NXxhQCJc_70.mp4	0.0	199.611093044281	
47	132.0573010444641	movie	1		301.0	45.0	2.5	/experiments/knapen_aot/videos/S_Pz_NXxhQCJc_70.mp4	0.0	199.61924195289612	2.5084009170532227
47	134.56570196151733	fix_post	2		12.0	45.0	2.5	/experiments/knapen_aot/videos/S_Pz_NXxhQCJc_70.mp4	0.0	202.12764286994934	0.0999751091003418
48	134.66567707061768	fix_pre	0		47.0	46.0	2.5	/experiments/knapen_aot/videos/R_S_ILSVRC2015_train_00569006.mp4	0.0	202.22761797904968	0.3916468620300293
48	135.04918599128723	response	0	4		46.0	2.5	/experiments/knapen_aot/videos/R_S_ILSVRC2015_train_00569006.mp4	0.0	202.61112689971924	
48	135.0573239326477	movie	1		301.0	46.0	2.5	/experiments/knapen_aot/videos/R_S_ILSVRC2015_train_00569006.mp4	0.0	202.6192648410797	2.508334159851074
48	137.56565809249878	fix_post	2		12.0	46.0	2.5	/experiments/knapen_aot/videos/R_S_ILSVRC2015_train_00569006.mp4	0.0	205.1275990009308	0.09993982315063477
48	137.59910607337952	response	2	4		46.0	2.5	/experiments/knapen_aot/videos/R_S_ILSVRC2015_train_00569006.mp4	0.0	205.16104698181152	
49	137.6655979156494	fix_pre	0		37.0	47.0	2.5	/experiments/knapen_aot/videos/R_S_production_ID_4707837.mp4	0.0	205.22753882408142	0.308305025100708
49	137.96577191352844	response	0	4		47.0	2.5	/experiments/knapen_aot/videos/R_S_production_ID_4707837.mp4	0.0	205.52771282196045	
49	137.97390294075012	movie	1		165.0	47.0	2.5	/experiments/knapen_aot/videos/R_S_production_ID_4707837.mp4	0.0	205.53584384918213	2.508402109146118
49	140.48230504989624	fix_post	2		12.0	47.0	2.5	/experiments/knapen_aot/videos/R_S_production_ID_4707837.mp4	0.0	208.04424595832825	0.09998488426208496
50	140.58228993415833	fix_pre	0		52.0	48.0	2.5	/experiments/knapen_aot/videos/R_S_yt-QxNuo4ojvz4_420.mp4	0.0	208.14423084259033	0.433333158493042
50	141.00744891166687	response	0	4		48.0	2.5	/experiments/knapen_aot/videos/R_S_yt-QxNuo4ojvz4_420.mp4	0.0	208.56938982009888	
50	141.01562309265137	movie	1		301.0	48.0	2.5	/experiments/knapen_aot/videos/R_S_yt-QxNuo4ojvz4_420.mp4	0.0	208.57756400108337	2.5083229541778564
50	143.52394604682922	fix_post	2		12.0	48.0	2.5	/experiments/knapen_aot/videos/R_S_yt-QxNuo4ojvz4_420.mp4	0.0	211.08588695526123	0.0999288558959961
51	143.62387490272522	fix_pre	0		18.0	49.0	2.5	blank	1.0	211.18581581115723	0.1501011848449707
51	143.76573991775513	response	0	4		49.0	2.5	blank	1.0	211.32768082618713	
51	143.7739760875702	movie	1		301.0	49.0	2.5	blank	1.0	211.3359169960022	2.50833797454834
51	146.28231406211853	fix_post	2		12.0	49.0	2.5	blank	1.0	213.84425497055054	0.09999299049377441
52	146.3823070526123	fix_pre	0		11.0	50.0	2.5	/experiments/knapen_aot/videos/R_S_yt-QXsedpZh800_275.mp4	0.0	213.9442479610443	0.09158587455749512
52	146.46578812599182	response	0	4		50.0	2.5	/experiments/knapen_aot/videos/R_S_yt-QXsedpZh800_275.mp4	0.0	214.02772903442383	
52	146.4738929271698	movie	1		301.0	50.0	2.5	/experiments/knapen_aot/videos/R_S_yt-QXsedpZh800_275.mp4	0.0	214.0358338356018	2.508388042449951
52	148.98228096961975	fix_post	2		12.0	50.0	2.5	/experiments/knapen_aot/videos/R_S_yt-QXsedpZh800_275.mp4	0.0	216.54422187805176	0.09996914863586426
53	149.08225011825562	fix_pre	0		36.0	51.0	2.5	/experiments/knapen_aot/videos/R_S_yt-1V0KJEc4cJ4_203.mp4	0.0	216.64419102668762	0.3011658191680908
53	149.37405490875244	response	0	4		51.0	2.5	/experiments/knapen_aot/videos/R_S_yt-1V0KJEc4cJ4_203.mp4	0.0	216.93599581718445	
53	149.3834159374237	movie	1		301.0	51.0	2.5	/experiments/knapen_aot/videos/R_S_yt-1V0KJEc4cJ4_203.mp4	0.0	216.9453568458557	2.507172107696533
53	151.89058804512024	fix_post	2		12.0	51.0	2.5	/experiments/knapen_aot/videos/R_S_yt-1V0KJEc4cJ4_203.mp4	0.0	219.45252895355225	0.10005807876586914
54	151.9906461238861	fix_pre	0		24.0	52.0	2.5	/experiments/knapen_aot/videos/R_S_yt-2V2tq9-O_Nc_1669.mp4	0.0	219.55258703231812	0.19994091987609863
54	152.17484211921692	response	0	4		52.0	2.5	/experiments/knapen_aot/videos/R_S_yt-2V2tq9-O_Nc_1669.mp4	0.0	219.73678302764893	
54	152.1905870437622	movie	1		301.0	52.0	2.5	/experiments/knapen_aot/videos/R_S_yt-2V2tq9-O_Nc_1669.mp4	0.0	219.7525279521942	2.5082740783691406
54	154.69886112213135	fix_post	2		12.0	52.0	2.5	/experiments/knapen_aot/videos/R_S_yt-2V2tq9-O_Nc_1669.mp4	0.0	222.26080203056335	0.10003995895385742
55	154.7989010810852	fix_pre	0		18.0	53.0	2.5	/experiments/knapen_aot/videos/S_yt-QxNuo4ojvz4_420.mp4	0.0	222.3608419895172	0.1499919891357422
55	154.94064712524414	response	0	4		53.0	2.5	/experiments/knapen_aot/videos/S_yt-QxNuo4ojvz4_420.mp4	0.0	222.50258803367615	
55	154.94889307022095	movie	1		301.0	53.0	2.5	/experiments/knapen_aot/videos/S_yt-QxNuo4ojvz4_420.mp4	0.0	222.51083397865295	2.5083298683166504
55	157.4572229385376	fix_post	2		12.0	53.0	2.5	/experiments/knapen_aot/videos/S_yt-QxNuo4ojvz4_420.mp4	0.0	225.0191638469696	0.09999513626098633
56	157.55721807479858	fix_pre	0		37.0	54.0	2.5	/experiments/knapen_aot/videos/S_yt-eoASPwIAiHY_244.mp4	0.0	225.1191589832306	0.3083150386810303
56	157.85739707946777	response	0	4		54.0	2.5	/experiments/knapen_aot/videos/S_yt-eoASPwIAiHY_244.mp4	0.0	225.41933798789978	
56	157.86553311347961	movie	1		301.0	54.0	2.5	/experiments/knapen_aot/videos/S_yt-eoASPwIAiHY_244.mp4	0.0	225.42747402191162	2.5083909034729004
56	160.37392401695251	fix_post	2		12.0	54.0	2.5	/experiments/knapen_aot/videos/S_yt-eoASPwIAiHY_244.mp4	0.0	227.93586492538452	0.09996390342712402
57	160.47388792037964	fix_pre	0		21.0	55.0	2.5	blank	1.0	228.03582882881165	0.1750030517578125
57	160.64061093330383	response	0	4		55.0	2.5	blank	1.0	228.20255184173584	
57	160.64889097213745	movie	1		301.0	55.0	2.5	blank	1.0	228.21083188056946	2.508329153060913
57	163.15722012519836	fix_post	2		12.0	55.0	2.5	blank	1.0	230.71916103363037	0.10001492500305176
58	163.25723505020142	fix_pre	0		20.0	56.0	2.5	/experiments/knapen_aot/videos/S_Y003_C009_SDR_2K_AVC.mp4	0.0	230.81917595863342	0.16777801513671875
58	163.4156470298767	response	0	4		56.0	2.5	/experiments/knapen_aot/videos/S_Y003_C009_SDR_2K_AVC.mp4	0.0	230.97758793830872	
58	163.42501306533813	movie	1		171.0	56.0	2.5	/experiments/knapen_aot/videos/S_Y003_C009_SDR_2K_AVC.mp4	0.0	230.98695397377014	2.507185935974121
58	165.90735411643982	response	1	4		56.0	2.5	/experiments/knapen_aot/videos/S_Y003_C009_SDR_2K_AVC.mp4	0.0	233.46929502487183	
58	165.93219900131226	fix_post	2		12.0	56.0	2.5	/experiments/knapen_aot/videos/S_Y003_C009_SDR_2K_AVC.mp4	0.0	233.49413990974426	0.09998106956481934
59	166.03218007087708	fix_pre	0		48.0	57.0	2.5	/experiments/knapen_aot/videos/S_comp_GL_G010_C006_PSNK_NOSUN_v12_SDR_PS_FINAL_20180709_SDR_2K_AVC.mp4	0.0	233.59412097930908	0.39992403984069824
59	166.41645193099976	response	0	4		57.0	2.5	/experiments/knapen_aot/videos/S_comp_GL_G010_C006_PSNK_NOSUN_v12_SDR_PS_FINAL_20180709_SDR_2K_AVC.mp4	0.0	233.97839283943176	
59	166.43210411071777	movie	1		165.0	57.0	2.5	/experiments/knapen_aot/videos/S_comp_GL_G010_C006_PSNK_NOSUN_v12_SDR_PS_FINAL_20180709_SDR_2K_AVC.mp4	0.0	233.99404501914978	2.508420944213867
59	168.94052505493164	fix_post	2		12.0	57.0	2.5	/experiments/knapen_aot/videos/S_comp_GL_G010_C006_PSNK_NOSUN_v12_SDR_PS_FINAL_20180709_SDR_2K_AVC.mp4	0.0	236.50246596336365	0.09998393058776855
60	169.0405089855194	fix_pre	0		2.0	58.0	2.5	/experiments/knapen_aot/videos/S_4_D1iUb87uE_15.mp4	0.0	236.60244989395142	0.01665806770324707
60	169.05017399787903	response	0	4		58.0	2.5	/experiments/knapen_aot/videos/S_4_D1iUb87uE_15.mp4	0.0	236.61211490631104	
60	169.05716705322266	movie	1		301.0	58.0	2.5	/experiments/knapen_aot/videos/S_4_D1iUb87uE_15.mp4	0.0	236.61910796165466	2.5083260536193848
60	171.56549310684204	fix_post	2		12.0	58.0	2.5	/experiments/knapen_aot/videos/S_4_D1iUb87uE_15.mp4	0.0	239.12743401527405	0.09997200965881348
61	171.66546511650085	fix_pre	0		21.0	59.0	2.5	/experiments/knapen_aot/videos/S_ILSVRC2015_train_00572001.mp4	0.0	239.22740602493286	0.17608284950256348
61	171.83229804039001	response	0	4		59.0	2.5	/experiments/knapen_aot/videos/S_ILSVRC2015_train_00572001.mp4	0.0	239.39423894882202	
61	171.84154796600342	movie	1		301.0	59.0	2.5	/experiments/knapen_aot/videos/S_ILSVRC2015_train_00572001.mp4	0.0	239.40348887443542	2.507267951965332
61	174.34881591796875	fix_post	2		12.0	59.0	2.5	/experiments/knapen_aot/videos/S_ILSVRC2015_train_00572001.mp4	0.0	241.91075682640076	0.10001802444458008
62	174.44883394241333	fix_pre	0		19.0	60.0	2.5	/experiments/knapen_aot/videos/S_Pexels_Videos_2786546.mp4	0.0	242.01077485084534	0.15822601318359375
62	174.5989809036255	response	0	4		60.0	2.5	/experiments/knapen_aot/videos/S_Pexels_Videos_2786546.mp4	0.0	242.1609218120575	
62	174.60705995559692	movie	1		167.0	60.0	2.5	/experiments/knapen_aot/videos/S_Pexels_Videos_2786546.mp4	0.0	242.16900086402893	2.5083751678466797
62	177.1154351234436	fix_post	2		12.0	60.0	2.5	/experiments/knapen_aot/videos/S_Pexels_Videos_2786546.mp4	0.0	244.6773760318756	0.1000208854675293
63	177.21545600891113	fix_pre	0		6.0	61.0	2.5	/experiments/knapen_aot/videos/S_TYs22gin-EU_57.mp4	0.0	244.77739691734314	0.050015926361083984
63	177.2572729587555	response	0	4		61.0	2.5	/experiments/knapen_aot/videos/S_TYs22gin-EU_57.mp4	0.0	244.8192138671875	
63	177.26547193527222	movie	1		301.0	61.0	2.5	/experiments/knapen_aot/videos/S_TYs22gin-EU_57.mp4	0.0	244.82741284370422	2.5082600116729736
63	179.7737319469452	fix_post	2		12.0	61.0	2.5	/experiments/knapen_aot/videos/S_TYs22gin-EU_57.mp4	0.0	247.3356728553772	0.10003209114074707
64	179.87376403808594	fix_pre	0		24.0	62.0	2.5	/experiments/knapen_aot/videos/S_yt-GOgS--rzmKQ_51.mp4	0.0	247.43570494651794	0.2000110149383545
64	180.0655801296234	response	0	4		62.0	2.5	/experiments/knapen_aot/videos/S_yt-GOgS--rzmKQ_51.mp4	0.0	247.62752103805542	
64	180.0737750530243	movie	1		300.0	62.0	2.5	/experiments/knapen_aot/videos/S_yt-GOgS--rzmKQ_51.mp4	0.0	247.6357159614563	2.5083670616149902
64	182.58214211463928	fix_post	2		12.0	62.0	2.5	/experiments/knapen_aot/videos/S_yt-GOgS--rzmKQ_51.mp4	0.0	250.1440830230713	0.09997391700744629
65	182.68211603164673	fix_pre	0		13.0	63.0	2.5	blank	1.0	250.24405694007874	0.10835409164428711
65	182.77470898628235	response	0	4		63.0	2.5	blank	1.0	250.33664989471436	
65	182.79047012329102	movie	1		301.0	63.0	2.5	blank	1.0	250.35241103172302	2.5083158016204834
65	185.2987859249115	fix_post	2		12.0	63.0	2.5	blank	1.0	252.8607268333435	0.10000109672546387
66	185.39878702163696	fix_pre	0		22.0	64.0	2.5	/experiments/knapen_aot/videos/S_yt-4sSV4iIs8gQ_55.mp4	0.0	252.96072793006897	0.18329191207885742
66	185.56628608703613	response	0	4		64.0	2.5	/experiments/knapen_aot/videos/S_yt-4sSV4iIs8gQ_55.mp4	0.0	253.12822699546814	
66	185.58207893371582	movie	1		301.0	64.0	2.5	/experiments/knapen_aot/videos/S_yt-4sSV4iIs8gQ_55.mp4	0.0	253.14401984214783	2.508366107940674
66	188.0904450416565	fix_post	2		12.0	64.0	2.5	/experiments/knapen_aot/videos/S_yt-4sSV4iIs8gQ_55.mp4	0.0	255.6523859500885	0.10001087188720703
67	188.1904559135437	fix_pre	0		4.0	65.0	2.5	/experiments/knapen_aot/videos/R_S_pexels-cottonbro-6844209.mp4	0.0	255.7523968219757	0.03332400321960449
67	188.21557712554932	response	0	4		65.0	2.5	/experiments/knapen_aot/videos/R_S_pexels-cottonbro-6844209.mp4	0.0	255.77751803398132	
67	188.2237799167633	movie	1		182.0	65.0	2.5	/experiments/knapen_aot/videos/R_S_pexels-cottonbro-6844209.mp4	0.0	255.7857208251953	2.5082790851593018
67	190.7320590019226	fix_post	2		12.0	65.0	2.5	/experiments/knapen_aot/videos/R_S_pexels-cottonbro-6844209.mp4	0.0	258.2939999103546	0.10005307197570801
67	190.8071870803833	response	2	4		65.0	2.5	/experiments/knapen_aot/videos/R_S_pexels-cottonbro-6844209.mp4	0.0	258.3691279888153	
68	190.83211207389832	fix_pre	0		48.0	66.0	2.5	/experiments/knapen_aot/videos/R_S_yt-ZzC953ahaxs_195.mp4	0.0	258.3940529823303	0.3999369144439697
68	191.2162721157074	response	0	4		66.0	2.5	/experiments/knapen_aot/videos/R_S_yt-ZzC953ahaxs_195.mp4	0.0	258.7782130241394	
68	191.23204898834229	movie	1		301.0	66.0	2.5	/experiments/knapen_aot/videos/R_S_yt-ZzC953ahaxs_195.mp4	0.0	258.7939898967743	2.508371114730835
68	193.74042010307312	fix_post	2		12.0	66.0	2.5	/experiments/knapen_aot/videos/R_S_yt-ZzC953ahaxs_195.mp4	0.0	261.3023610115051	0.10002493858337402
69	193.8404450416565	fix_pre	0		32.0	67.0	2.5	/experiments/knapen_aot/videos/S_comp_LA_A008_C004_ALTB_ED_FROM_FLAME_RETIME_v46_SDR_PS_20180917_SDR_2K_AVC.mp4	0.0	261.4023859500885	0.2666459083557129
69	194.0989739894867	response	0	4		67.0	2.5	/experiments/knapen_aot/videos/S_comp_LA_A008_C004_ALTB_ED_FROM_FLAME_RETIME_v46_SDR_PS_20180917_SDR_2K_AVC.mp4	0.0	261.6609148979187	
69	194.1070909500122	movie	1		170.0	67.0	2.5	/experiments/knapen_aot/videos/S_comp_LA_A008_C004_ALTB_ED_FROM_FLAME_RETIME_v46_SDR_PS_20180917_SDR_2K_AVC.mp4	0.0	261.6690318584442	2.508200168609619
69	196.44885301589966	response	1	4		67.0	2.5	/experiments/knapen_aot/videos/S_comp_LA_A008_C004_ALTB_ED_FROM_FLAME_RETIME_v46_SDR_PS_20180917_SDR_2K_AVC.mp4	0.0	264.01079392433167	
69	196.61529111862183	fix_post	2		12.0	67.0	2.5	/experiments/knapen_aot/videos/S_comp_LA_A008_C004_ALTB_ED_FROM_FLAME_RETIME_v46_SDR_PS_20180917_SDR_2K_AVC.mp4	0.0	264.17723202705383	0.10016083717346191
70	196.7154519557953	fix_pre	0		41.0	68.0	2.5	blank	1.0	264.2773928642273	0.3416011333465576
70	197.04900407791138	response	0	4		68.0	2.5	blank	1.0	264.6109449863434	
70	197.05705308914185	movie	1		301.0	68.0	2.5	blank	1.0	264.61899399757385	2.5083730220794678
70	199.5654261112213	fix_post	2		12.0	68.0	2.5	blank	1.0	267.1273670196533	0.0999598503112793
71	199.6653859615326	fix_pre	0		30.0	69.0	2.5	/experiments/knapen_aot/videos/S_production_ID_4360158.mp4	0.0	267.2273268699646	0.2499840259552002
71	199.90714597702026	response	0	4		69.0	2.5	/experiments/knapen_aot/videos/S_production_ID_4360158.mp4	0.0	267.46908688545227	
71	199.9153699874878	movie	1		169.0	69.0	2.5	/experiments/knapen_aot/videos/S_production_ID_4360158.mp4	0.0	267.4773108959198	2.508280038833618
71	202.4236500263214	fix_post	2		12.0	69.0	2.5	/experiments/knapen_aot/videos/S_production_ID_4360158.mp4	0.0	269.9855909347534	0.10011005401611328
72	202.52376008033752	fix_pre	0		14.0	70.0	2.5	/experiments/knapen_aot/videos/S_yt-cG2qDR5ka5w_119.mp4	0.0	270.08570098876953	0.11663103103637695
72	202.63217091560364	response	0	4		70.0	2.5	/experiments/knapen_aot/videos/S_yt-cG2qDR5ka5w_119.mp4	0.0	270.19411182403564	
72	202.6403911113739	movie	1		301.0	70.0	2.5	/experiments/knapen_aot/videos/S_yt-cG2qDR5ka5w_119.mp4	0.0	270.2023320198059	2.508305788040161
72	205.14869689941406	fix_post	2		12.0	70.0	2.5	/experiments/knapen_aot/videos/S_yt-cG2qDR5ka5w_119.mp4	0.0	272.71063780784607	0.09999704360961914
73	205.24869394302368	fix_pre	0		40.0	71.0	2.5	/experiments/knapen_aot/videos/S_yt-tneuR3EtSZE_72.mp4	0.0	272.8106348514557	0.33330297470092773
73	205.57377099990845	response	0	4		71.0	2.5	/experiments/knapen_aot/videos/S_yt-tneuR3EtSZE_72.mp4	0.0	273.13571190834045	
73	205.5819969177246	movie	1		301.0	71.0	2.5	/experiments/knapen_aot/videos/S_yt-tneuR3EtSZE_72.mp4	0.0	273.1439378261566	2.508347988128662
73	208.09034490585327	fix_post	2		12.0	71.0	2.5	/experiments/knapen_aot/videos/S_yt-tneuR3EtSZE_72.mp4	0.0	275.6522858142853	0.09993815422058105
74	208.19028306007385	fix_pre	0		122.0	72.0	2.5	/experiments/knapen_aot/videos/R_S_yt-lADkWM79teI_18.mp4	0.0	275.75222396850586	1.016700029373169
74	209.19878911972046	response	0	4		72.0	2.5	/experiments/knapen_aot/videos/R_S_yt-lADkWM79teI_18.mp4	0.0	276.76073002815247	
74	209.20698308944702	movie	1		301.0	72.0	2.5	/experiments/knapen_aot/videos/R_S_yt-lADkWM79teI_18.mp4	0.0	276.768923997879	2.5084078311920166
74	211.71539092063904	fix_post	2		12.0	72.0	2.5	/experiments/knapen_aot/videos/R_S_yt-lADkWM79teI_18.mp4	0.0	279.27733182907104	0.09995102882385254
75	211.8153419494629	fix_pre	0		164.0	73.0	2.5	/experiments/knapen_aot/videos/S_pexels-pavel-danilyuk-8057714.mp4	0.0	279.3772828578949	1.3666479587554932
75	213.1738109588623	response	0	4		73.0	2.5	/experiments/knapen_aot/videos/S_pexels-pavel-danilyuk-8057714.mp4	0.0	280.7357518672943	
75	213.18198990821838	movie	1		168.0	73.0	2.5	/experiments/knapen_aot/videos/S_pexels-pavel-danilyuk-8057714.mp4	0.0	280.7439308166504	2.508275032043457
75	213.59882712364197	response	1	4		73.0	2.5	/experiments/knapen_aot/videos/S_pexels-pavel-danilyuk-8057714.mp4	0.0	281.160768032074	
75	215.69026494026184	fix_post	2		12.0	73.0	2.5	/experiments/knapen_aot/videos/S_pexels-pavel-danilyuk-8057714.mp4	0.0	283.25220584869385	0.10008811950683594
76	215.79035305976868	fix_pre	0		20.0	74.0	2.5	/experiments/knapen_aot/videos/S_yt--jzScB82vKI_90.mp4	0.0	283.3522939682007	0.16661596298217773
76	215.94874691963196	response	0	4		74.0	2.5	/experiments/knapen_aot/videos/S_yt--jzScB82vKI_90.mp4	0.0	283.51068782806396	
76	215.95696902275085	movie	1		301.0	74.0	2.5	/experiments/knapen_aot/videos/S_yt--jzScB82vKI_90.mp4	0.0	283.51890993118286	2.5083789825439453
76	218.4653480052948	fix_post	2		12.0	74.0	2.5	/experiments/knapen_aot/videos/S_yt--jzScB82vKI_90.mp4	0.0	286.0272889137268	0.09990692138671875
77	218.56525492668152	fix_pre	0		61.0	75.0	2.5	blank	1.0	286.1271958351135	0.5083630084991455
77	219.06547212600708	response	0	4		75.0	2.5	blank	1.0	286.6274130344391	
77	219.07361793518066	movie	1		301.0	75.0	2.5	blank	1.0	286.63555884361267	2.5083680152893066
77	221.58198595046997	fix_post	2		12.0	75.0	2.5	blank	1.0	289.143926858902	0.09995007514953613
78	221.6819360256195	fix_pre	0		177.0	76.0	2.5	/experiments/knapen_aot/videos/S_production_ID_5199636.mp4	0.0	289.2438769340515	1.4750010967254639
78	223.14873909950256	response	0	4		76.0	2.5	/experiments/knapen_aot/videos/S_production_ID_5199636.mp4	0.0	290.71068000793457	
78	223.15693712234497	movie	1		164.0	76.0	2.5	/experiments/knapen_aot/videos/S_production_ID_5199636.mp4	0.0	290.718878030777	2.5083718299865723
78	225.48704290390015	response	1	4		76.0	2.5	/experiments/knapen_aot/videos/S_production_ID_5199636.mp4	0.0	293.04898381233215	
78	225.66530895233154	fix_post	2		12.0	76.0	2.5	/experiments/knapen_aot/videos/S_production_ID_5199636.mp4	0.0	293.22724986076355	0.0999150276184082
79	225.76522397994995	fix_pre	0		62.0	77.0	2.5	/experiments/knapen_aot/videos/S_yt-LGwEki4ghNw_69.mp4	0.0	293.32716488838196	0.5167109966278076
79	226.2738881111145	response	0	4		77.0	2.5	/experiments/knapen_aot/videos/S_yt-LGwEki4ghNw_69.mp4	0.0	293.8358290195465	
79	226.28193497657776	movie	1		301.0	77.0	2.5	/experiments/knapen_aot/videos/S_yt-LGwEki4ghNw_69.mp4	0.0	293.84387588500977	2.508284091949463
79	228.79021906852722	fix_post	2		12.0	77.0	2.5	/experiments/knapen_aot/videos/S_yt-LGwEki4ghNw_69.mp4	0.0	296.35215997695923	0.10000801086425781
80	228.89022707939148	fix_pre	0		43.0	78.0	2.5	/experiments/knapen_aot/videos/S_yt-JDHApyT5ngs_128.mp4	0.0	296.4521679878235	0.35834503173828125
80	229.2404351234436	response	0	4		78.0	2.5	/experiments/knapen_aot/videos/S_yt-JDHApyT5ngs_128.mp4	0.0	296.8023760318756	
80	229.24857211112976	movie	1		301.0	78.0	2.5	/experiments/knapen_aot/videos/S_yt-JDHApyT5ngs_128.mp4	0.0	296.81051301956177	2.508298873901367
80	231.75687098503113	fix_post	2		12.0	78.0	2.5	/experiments/knapen_aot/videos/S_yt-JDHApyT5ngs_128.mp4	0.0	299.31881189346313	0.10005593299865723
81	231.85692691802979	fix_pre	0		33.0	79.0	2.5	/experiments/knapen_aot/videos/R_S_yt-O6FS0xnF0CU_106.mp4	0.0	299.4188678264618	0.27572202682495117
81	232.1160991191864	response	0	4		79.0	2.5	/experiments/knapen_aot/videos/R_S_yt-O6FS0xnF0CU_106.mp4	0.0	299.6780400276184	
81	232.13264894485474	movie	1		301.0	79.0	2.5	/experiments/knapen_aot/videos/R_S_yt-O6FS0xnF0CU_106.mp4	0.0	299.69458985328674	2.5075600147247314
81	234.64020895957947	fix_post	2		12.0	79.0	2.5	/experiments/knapen_aot/videos/R_S_yt-O6FS0xnF0CU_106.mp4	0.0	302.2021498680115	0.09995412826538086
81	234.73203897476196	response	2	4		79.0	2.5	/experiments/knapen_aot/videos/R_S_yt-O6FS0xnF0CU_106.mp4	0.0	302.29397988319397	
82	234.74016308784485	fix_pre	0		50.0	80.0	2.5	/experiments/knapen_aot/videos/R_S_production_ID_4707837.mp4	0.0	302.30210399627686	0.4167649745941162
82	235.14862704277039	response	0	4		80.0	2.5	/experiments/knapen_aot/videos/R_S_production_ID_4707837.mp4	0.0	302.7105679512024	
82	235.15692806243896	movie	1		174.0	80.0	2.5	/experiments/knapen_aot/videos/R_S_production_ID_4707837.mp4	0.0	302.718868970871	2.5082788467407227
82	237.6652069091797	fix_post	2		12.0	80.0	2.5	/experiments/knapen_aot/videos/R_S_production_ID_4707837.mp4	0.0	305.2271478176117	0.1000680923461914
83	237.76527500152588	fix_pre	0		26.0	81.0	2.5	/experiments/knapen_aot/videos/S_yt-LdHRVIb4nIE_6.mp4	0.0	305.3272159099579	0.21661591529846191
83	237.96629190444946	response	0	4		81.0	2.5	/experiments/knapen_aot/videos/S_yt-LdHRVIb4nIE_6.mp4	0.0	305.52823281288147	
83	237.98189091682434	movie	1		301.0	81.0	2.5	/experiments/knapen_aot/videos/S_yt-LdHRVIb4nIE_6.mp4	0.0	305.54383182525635	2.5083541870117188
83	240.49024510383606	fix_post	2		12.0	81.0	2.5	/experiments/knapen_aot/videos/S_yt-LdHRVIb4nIE_6.mp4	0.0	308.05218601226807	0.09992289543151855
84	240.59016799926758	fix_pre	0		96.0	82.0	2.5	/experiments/knapen_aot/videos/R_S_yt-WrwPgZYBXlA_34.mp4	0.0	308.1521089076996	0.8002190589904785
84	241.37462210655212	response	0	4		82.0	2.5	/experiments/knapen_aot/videos/R_S_yt-WrwPgZYBXlA_34.mp4	0.0	308.93656301498413	
84	241.39038705825806	movie	1		299.0	82.0	2.5	/experiments/knapen_aot/videos/R_S_yt-WrwPgZYBXlA_34.mp4	0.0	308.95232796669006	2.508180856704712
84	243.89856791496277	fix_post	2		12.0	82.0	2.5	/experiments/knapen_aot/videos/R_S_yt-WrwPgZYBXlA_34.mp4	0.0	311.4605088233948	0.09997415542602539
85	243.9985420703888	fix_pre	0		154.0	83.0	2.5	blank	1.0	311.5604829788208	1.283341884613037
85	245.2738220691681	response	0	4		83.0	2.5	blank	1.0	312.8357629776001	
85	245.28188395500183	movie	1		301.0	83.0	2.5	blank	1.0	312.84382486343384	2.5082969665527344
85	247.79018092155457	fix_post	2		12.0	83.0	2.5	blank	1.0	315.3521218299866	0.10004210472106934
87	247.89022302627563	stim	0		176.0					315.45216393470764	1.4667139053344727
87	248.11533498764038	response	0	4						315.6772758960724	
87	249.34610104560852	response	0	space						316.9080419540405	
