trial_nr	onset	event_type	phase	response	nr_frames	movie_index	movie_duration	movie_file	blank	onset_abs	duration
0	0.14161992073059082	stim	0		29.0					324.9174659252167	0.24177312850952148
0	0.3752250671386719	response	0	space						325.15107107162476	
1	0.3833930492401123	stim	0		121.0					325.1592390537262	1.0079970359802246
1	1.391390085220337	stim	1		120.0					326.1672360897064	0.9998350143432617
1	1.8581221103668213	response	1	space						326.6339681148529	
2	2.3912250995635986	fix_pre	0		29.0	0.0	2.5	/experiments/knapen_aot/videos/R_S_yt-Z0nfPTEEOLo_85.mp4	0.0	327.1670711040497	0.24175596237182617
2	2.6248579025268555	response	0	space		0.0	2.5	/experiments/knapen_aot/videos/R_S_yt-Z0nfPTEEOLo_85.mp4	0.0	327.40070390701294	
2	2.632981061935425	movie	1		301.0	0.0	2.5	/experiments/knapen_aot/videos/R_S_yt-Z0nfPTEEOLo_85.mp4	0.0	327.4088270664215	2.508307933807373
2	5.141288995742798	fix_post	2		12.0	0.0	2.5	/experiments/knapen_aot/videos/R_S_yt-Z0nfPTEEOLo_85.mp4	0.0	329.9171350002289	0.09994196891784668
3	5.2412309646606445	fix_pre	0		83.0	1.0	2.5	/experiments/knapen_aot/videos/R_S_yt-BG-G7m5wLZ4_94.mp4	0.0	330.01707696914673	0.6958460807800293
3	5.928375005722046	response	0	2		1.0	2.5	/experiments/knapen_aot/videos/R_S_yt-BG-G7m5wLZ4_94.mp4	0.0	330.70422101020813	
3	5.937077045440674	movie	1		300.0	1.0	2.5	/experiments/knapen_aot/videos/R_S_yt-BG-G7m5wLZ4_94.mp4	0.0	330.71292304992676	2.5041868686676025
3	8.441263914108276	fix_post	2		12.0	1.0	2.5	/experiments/knapen_aot/videos/R_S_yt-BG-G7m5wLZ4_94.mp4	0.0	333.21710991859436	0.09998607635498047
4	8.541249990463257	fix_pre	0		54.0	2.0	2.5	/experiments/knapen_aot/videos/S_ILSVRC2015_train_00318000.mp4	0.0	333.31709599494934	0.45000696182250977
4	8.983114957809448	response	0	2		2.0	2.5	/experiments/knapen_aot/videos/S_ILSVRC2015_train_00318000.mp4	0.0	333.75896096229553	
4	8.991256952285767	movie	1		301.0	2.0	2.5	/experiments/knapen_aot/videos/S_ILSVRC2015_train_00318000.mp4	0.0	333.76710295677185	2.5082991123199463
4	11.499556064605713	fix_post	2		12.0	2.0	2.5	/experiments/knapen_aot/videos/S_ILSVRC2015_train_00318000.mp4	0.0	336.2754020690918	0.10003495216369629
5	11.59959101676941	fix_pre	0		86.0	3.0	2.5	/experiments/knapen_aot/videos/R_S_Oo8otu7cQ20_112.mp4	0.0	336.3754370212555	0.7166788578033447
5	12.308051109313965	response	0	2		3.0	2.5	/experiments/knapen_aot/videos/R_S_Oo8otu7cQ20_112.mp4	0.0	337.08389711380005	
5	12.316269874572754	movie	1		301.0	3.0	2.5	/experiments/knapen_aot/videos/R_S_Oo8otu7cQ20_112.mp4	0.0	337.09211587905884	2.5083060264587402
5	14.824575901031494	fix_post	2		12.0	3.0	2.5	/experiments/knapen_aot/videos/R_S_Oo8otu7cQ20_112.mp4	0.0	339.6004219055176	0.09998917579650879
6	14.924565076828003	fix_pre	0		98.0	4.0	2.5	/experiments/knapen_aot/videos/R_S_SPNvf6JCjGw_123.mp4	0.0	339.7004110813141	0.816619873046875
6	15.732992887496948	response	0	2		4.0	2.5	/experiments/knapen_aot/videos/R_S_SPNvf6JCjGw_123.mp4	0.0	340.50883889198303	
6	15.741184949874878	movie	1		301.0	4.0	2.5	/experiments/knapen_aot/videos/R_S_SPNvf6JCjGw_123.mp4	0.0	340.51703095436096	2.508420944213867
6	18.249605894088745	fix_post	2		12.0	4.0	2.5	/experiments/knapen_aot/videos/R_S_SPNvf6JCjGw_123.mp4	0.0	343.02545189857483	0.1000070571899414
7	18.349612951278687	fix_pre	0		71.0	5.0	2.5	/experiments/knapen_aot/videos/R_S_comp_LA_A006_C004_v01_SDR_FINAL_PS_20180730_SDR_2K_AVC.mp4	0.0	343.12545895576477	0.5915560722351074
7	18.933083057403564	response	0	2		5.0	2.5	/experiments/knapen_aot/videos/R_S_comp_LA_A006_C004_v01_SDR_FINAL_PS_20180730_SDR_2K_AVC.mp4	0.0	343.70892906188965	
7	18.941169023513794	movie	1		168.0	5.0	2.5	/experiments/knapen_aot/videos/R_S_comp_LA_A006_C004_v01_SDR_FINAL_PS_20180730_SDR_2K_AVC.mp4	0.0	343.7170150279999	2.508462905883789
7	21.449631929397583	fix_post	2		12.0	5.0	2.5	/experiments/knapen_aot/videos/R_S_comp_LA_A006_C004_v01_SDR_FINAL_PS_20180730_SDR_2K_AVC.mp4	0.0	346.22547793388367	0.09994316101074219
8	21.549575090408325	fix_pre	0		160.0	6.0	2.5	/experiments/knapen_aot/videos/R_S_yt-2cwARrUMj40_67.mp4	0.0	346.3254210948944	1.3332819938659668
8	22.874759912490845	response	0	2		6.0	2.5	/experiments/knapen_aot/videos/R_S_yt-2cwARrUMj40_67.mp4	0.0	347.65060591697693	
8	22.882857084274292	movie	1		301.0	6.0	2.5	/experiments/knapen_aot/videos/R_S_yt-2cwARrUMj40_67.mp4	0.0	347.6587030887604	2.5083279609680176
8	25.39118504524231	fix_post	2		12.0	6.0	2.5	/experiments/knapen_aot/videos/R_S_yt-2cwARrUMj40_67.mp4	0.0	350.1670310497284	0.10007905960083008
9	25.49126410484314	fix_pre	0		107.0	7.0	2.5	blank	1.0	350.2671101093292	0.8916058540344238
9	26.374743938446045	response	0	2		7.0	2.5	blank	1.0	351.15058994293213	
9	26.382869958877563	movie	1		301.0	7.0	2.5	blank	1.0	351.15871596336365	2.508307933807373
9	28.891177892684937	fix_post	2		12.0	7.0	2.5	blank	1.0	353.667023897171	0.10004615783691406
10	28.99122405052185	fix_pre	0		69.0	8.0	2.5	/experiments/knapen_aot/videos/R_S_I003_C015_SDR_2K_AVC.mp4	0.0	353.76707005500793	0.5749578475952148
10	29.55047607421875	response	0	2		8.0	2.5	/experiments/knapen_aot/videos/R_S_I003_C015_SDR_2K_AVC.mp4	0.0	354.32632207870483	
10	29.566181898117065	movie	1		170.0	8.0	2.5	/experiments/knapen_aot/videos/R_S_I003_C015_SDR_2K_AVC.mp4	0.0	354.34202790260315	2.5083200931549072
10	32.07450199127197	fix_post	2		12.0	8.0	2.5	/experiments/knapen_aot/videos/R_S_I003_C015_SDR_2K_AVC.mp4	0.0	356.85034799575806	0.09999704360961914
11	32.17449903488159	fix_pre	0		65.0	9.0	2.5	/experiments/knapen_aot/videos/R_S_yt-fP2JRJAFGZ4_25.mp4	0.0	356.9503450393677	0.541658878326416
11	32.70796799659729	response	0	2		9.0	2.5	/experiments/knapen_aot/videos/R_S_yt-fP2JRJAFGZ4_25.mp4	0.0	357.4838140010834	
11	32.71615791320801	movie	1		298.0	9.0	2.5	/experiments/knapen_aot/videos/R_S_yt-fP2JRJAFGZ4_25.mp4	0.0	357.4920039176941	2.5083301067352295
11	35.22448801994324	fix_post	2		12.0	9.0	2.5	/experiments/knapen_aot/videos/R_S_yt-fP2JRJAFGZ4_25.mp4	0.0	360.0003340244293	0.10001897811889648
12	35.324506998062134	fix_pre	0		91.0	10.0	2.5	/experiments/knapen_aot/videos/R_S_yt-8vm83GUgYxI_1.mp4	0.0	360.1003530025482	0.7582979202270508
12	36.074613094329834	response	0	2		10.0	2.5	/experiments/knapen_aot/videos/R_S_yt-8vm83GUgYxI_1.mp4	0.0	360.8504590988159	
12	36.082804918289185	movie	1		301.0	10.0	2.5	/experiments/knapen_aot/videos/R_S_yt-8vm83GUgYxI_1.mp4	0.0	360.85865092277527	2.5082919597625732
12	38.59109687805176	fix_post	2		12.0	10.0	2.5	/experiments/knapen_aot/videos/R_S_yt-8vm83GUgYxI_1.mp4	0.0	363.36694288253784	0.09997105598449707
13	38.691067934036255	fix_pre	0		93.0	11.0	2.5	/experiments/knapen_aot/videos/R_S_video_inspire_oregon_lone-ranch-beach_00001.1080-h264.mp4	0.0	363.46691393852234	0.7750270366668701
13	39.45799994468689	response	0	2		11.0	2.5	/experiments/knapen_aot/videos/R_S_video_inspire_oregon_lone-ranch-beach_00001.1080-h264.mp4	0.0	364.233845949173	
13	39.466094970703125	movie	1		166.0	11.0	2.5	/experiments/knapen_aot/videos/R_S_video_inspire_oregon_lone-ranch-beach_00001.1080-h264.mp4	0.0	364.2419409751892	2.5083539485931396
13	41.974448919296265	fix_post	2		12.0	11.0	2.5	/experiments/knapen_aot/videos/R_S_video_inspire_oregon_lone-ranch-beach_00001.1080-h264.mp4	0.0	366.75029492378235	0.10000109672546387
14	42.07445001602173	fix_pre	0		73.0	12.0	2.5	/experiments/knapen_aot/videos/S_ILSVRC2015_train_00087003.mp4	0.0	366.8502960205078	0.6083579063415527
14	42.67459201812744	response	0	2		12.0	2.5	/experiments/knapen_aot/videos/S_ILSVRC2015_train_00087003.mp4	0.0	367.4504380226135	
14	42.68280792236328	movie	1		301.0	12.0	2.5	/experiments/knapen_aot/videos/S_ILSVRC2015_train_00087003.mp4	0.0	367.45865392684937	2.508258104324341
14	45.19106602668762	fix_post	2		12.0	12.0	2.5	/experiments/knapen_aot/videos/S_ILSVRC2015_train_00087003.mp4	0.0	369.9669120311737	0.09997987747192383
15	45.291045904159546	fix_pre	0		58.0	13.0	2.5	/experiments/knapen_aot/videos/R_S_yt-JQOHHL30Y54_101.mp4	0.0	370.06689190864563	0.4833559989929199
15	45.766156911849976	response	0	2		13.0	2.5	/experiments/knapen_aot/videos/R_S_yt-JQOHHL30Y54_101.mp4	0.0	370.54200291633606	
15	45.774401903152466	movie	1		301.0	13.0	2.5	/experiments/knapen_aot/videos/R_S_yt-JQOHHL30Y54_101.mp4	0.0	370.55024790763855	2.5083789825439453
15	48.28278088569641	fix_post	2		12.0	13.0	2.5	/experiments/knapen_aot/videos/R_S_yt-JQOHHL30Y54_101.mp4	0.0	373.0586268901825	0.09999299049377441
16	48.382773876190186	fix_pre	0		74.0	14.0	2.5	blank	1.0	373.15861988067627	0.6166481971740723
16	48.99120593070984	response	0	2		14.0	2.5	blank	1.0	373.7670519351959	
16	48.99942207336426	movie	1		301.0	14.0	2.5	blank	1.0	373.77526807785034	2.5083248615264893
16	51.50774693489075	fix_post	2		12.0	14.0	2.5	blank	1.0	376.28359293937683	0.10001206398010254
17	51.60775899887085	fix_pre	0		92.0	15.0	2.5	/experiments/knapen_aot/videos/R_S_yt-Fm97IY0Z2LU_79.mp4	0.0	376.38360500335693	0.7666060924530029
17	52.36616897583008	response	0	2		15.0	2.5	/experiments/knapen_aot/videos/R_S_yt-Fm97IY0Z2LU_79.mp4	0.0	377.14201498031616	
17	52.37436509132385	movie	1		301.0	15.0	2.5	/experiments/knapen_aot/videos/R_S_yt-Fm97IY0Z2LU_79.mp4	0.0	377.15021109580994	2.5083839893341064
17	54.88274908065796	fix_post	2		12.0	15.0	2.5	/experiments/knapen_aot/videos/R_S_yt-Fm97IY0Z2LU_79.mp4	0.0	379.65859508514404	0.09994101524353027
18	54.98269009590149	fix_pre	0		123.0	16.0	2.5	/experiments/knapen_aot/videos/S_ILSVRC2015_train_00484001.mp4	0.0	379.7585361003876	1.0250577926635742
18	55.999536991119385	response	0	2		16.0	2.5	/experiments/knapen_aot/videos/S_ILSVRC2015_train_00484001.mp4	0.0	380.77538299560547	
18	56.00774788856506	movie	1		301.0	16.0	2.5	/experiments/knapen_aot/videos/S_ILSVRC2015_train_00484001.mp4	0.0	380.78359389305115	2.5082662105560303
18	58.516014099121094	fix_post	2		12.0	16.0	2.5	/experiments/knapen_aot/videos/S_ILSVRC2015_train_00484001.mp4	0.0	383.2918601036072	0.10001587867736816
19	58.61602997779846	fix_pre	0		85.0	17.0	2.5	/experiments/knapen_aot/videos/R_S_yt-deiWoIfK6vg_44.mp4	0.0	383.39187598228455	0.7094171047210693
19	59.31619906425476	response	0	2		17.0	2.5	/experiments/knapen_aot/videos/R_S_yt-deiWoIfK6vg_44.mp4	0.0	384.09204506874084	
19	59.32544708251953	movie	1		301.0	17.0	2.5	/experiments/knapen_aot/videos/R_S_yt-deiWoIfK6vg_44.mp4	0.0	384.1012930870056	2.507215976715088
19	61.83266305923462	fix_post	2		12.0	17.0	2.5	/experiments/knapen_aot/videos/R_S_yt-deiWoIfK6vg_44.mp4	0.0	386.6085090637207	0.10006189346313477
20	61.932724952697754	fix_pre	0		74.0	18.0	2.5	/experiments/knapen_aot/videos/S_bing-www_dailymotion_com_video_x64c56w_164.mp4	0.0	386.70857095718384	0.616563081741333
20	62.54122710227966	response	0	2		18.0	2.5	/experiments/knapen_aot/videos/S_bing-www_dailymotion_com_video_x64c56w_164.mp4	0.0	387.31707310676575	
20	62.54928803443909	movie	1		168.0	18.0	2.5	/experiments/knapen_aot/videos/S_bing-www_dailymotion_com_video_x64c56w_164.mp4	0.0	387.32513403892517	2.508396863937378
20	65.05768489837646	fix_post	2		12.0	18.0	2.5	/experiments/knapen_aot/videos/S_bing-www_dailymotion_com_video_x64c56w_164.mp4	0.0	389.83353090286255	0.09998703002929688
21	65.15767192840576	fix_pre	0		50.0	19.0	2.5	blank	1.0	389.93351793289185	0.4178130626678467
21	65.5662899017334	response	0	2		19.0	2.5	blank	1.0	390.3421359062195	
21	65.57548499107361	movie	1		301.0	19.0	2.5	blank	1.0	390.3513309955597	2.507153034210205
21	68.08263802528381	fix_post	2		12.0	19.0	2.5	blank	1.0	392.8584840297699	0.10004186630249023
22	68.1826798915863	fix_pre	0		64.0	20.0	2.5	/experiments/knapen_aot/videos/S_yt-yJmHtBFyhH4_15.mp4	0.0	392.9585258960724	0.533332109451294
22	68.70032906532288	response	0	2		20.0	2.5	/experiments/knapen_aot/videos/S_yt-yJmHtBFyhH4_15.mp4	0.0	393.47617506980896	
22	68.7160120010376	movie	1		301.0	20.0	2.5	/experiments/knapen_aot/videos/S_yt-yJmHtBFyhH4_15.mp4	0.0	393.4918580055237	2.5082809925079346
22	71.22429299354553	fix_post	2		12.0	20.0	2.5	/experiments/knapen_aot/videos/S_yt-yJmHtBFyhH4_15.mp4	0.0	396.0001389980316	0.09995198249816895
23	71.3242449760437	fix_pre	0		82.0	21.0	2.5	/experiments/knapen_aot/videos/R_S_ILSVRC2015_train_00569007.mp4	0.0	396.1000909805298	0.6834390163421631
23	71.99946188926697	response	0	2		21.0	2.5	/experiments/knapen_aot/videos/R_S_ILSVRC2015_train_00569007.mp4	0.0	396.77530789375305	
23	72.00768399238586	movie	1		301.0	21.0	2.5	/experiments/knapen_aot/videos/R_S_ILSVRC2015_train_00569007.mp4	0.0	396.78352999687195	2.5083189010620117
23	74.51600289344788	fix_post	2		12.0	21.0	2.5	/experiments/knapen_aot/videos/R_S_ILSVRC2015_train_00569007.mp4	0.0	399.29184889793396	0.09999918937683105
24	74.6160020828247	fix_pre	0		72.0	22.0	2.5	/experiments/knapen_aot/videos/S_yt-1RVw8p6Dw2Q_20.mp4	0.0	399.3918480873108	0.5999469757080078
24	75.20773100852966	response	0	2		22.0	2.5	/experiments/knapen_aot/videos/S_yt-1RVw8p6Dw2Q_20.mp4	0.0	399.98357701301575	
24	75.21594905853271	movie	1		301.0	22.0	2.5	/experiments/knapen_aot/videos/S_yt-1RVw8p6Dw2Q_20.mp4	0.0	399.9917950630188	2.508328914642334
24	77.72427797317505	fix_post	2		12.0	22.0	2.5	/experiments/knapen_aot/videos/S_yt-1RVw8p6Dw2Q_20.mp4	0.0	402.50012397766113	0.10002708435058594
25	77.82430505752563	fix_pre	0		56.0	23.0	2.5	/experiments/knapen_aot/videos/R_S_yt-1UFhynm5g6Y_266.mp4	0.0	402.6001510620117	0.4666609764099121
25	78.28279900550842	response	0	2		23.0	2.5	/experiments/knapen_aot/videos/R_S_yt-1UFhynm5g6Y_266.mp4	0.0	403.0586450099945	
25	78.29096603393555	movie	1		301.0	23.0	2.5	/experiments/knapen_aot/videos/R_S_yt-1UFhynm5g6Y_266.mp4	0.0	403.06681203842163	2.5082828998565674
25	80.79924893379211	fix_post	2		12.0	23.0	2.5	/experiments/knapen_aot/videos/R_S_yt-1UFhynm5g6Y_266.mp4	0.0	405.5750949382782	0.10000300407409668
26	80.89925193786621	fix_pre	0		82.0	24.0	2.5	/experiments/knapen_aot/videos/S_pexels-rodnae-productions-5993654.mp4	0.0	405.6750979423523	0.6833400726318359
26	81.57442998886108	response	0	2		24.0	2.5	/experiments/knapen_aot/videos/S_pexels-rodnae-productions-5993654.mp4	0.0	406.35027599334717	
26	81.58259201049805	movie	1		160.0	24.0	2.5	/experiments/knapen_aot/videos/S_pexels-rodnae-productions-5993654.mp4	0.0	406.35843801498413	2.508378028869629
26	84.09097003936768	fix_post	2		12.0	24.0	2.5	/experiments/knapen_aot/videos/S_pexels-rodnae-productions-5993654.mp4	0.0	408.86681604385376	0.09995484352111816
27	84.1909248828888	fix_pre	0		61.0	25.0	2.5	/experiments/knapen_aot/videos/S_yt-xqHrTtvFFIs_3.mp4	0.0	408.9667708873749	0.5093851089477539
27	84.69112300872803	response	0	2		25.0	2.5	/experiments/knapen_aot/videos/S_yt-xqHrTtvFFIs_3.mp4	0.0	409.4669690132141	
27	84.70030999183655	movie	1		301.0	25.0	2.5	/experiments/knapen_aot/videos/S_yt-xqHrTtvFFIs_3.mp4	0.0	409.47615599632263	2.507349967956543
27	87.20765995979309	fix_post	2		12.0	25.0	2.5	/experiments/knapen_aot/videos/S_yt-xqHrTtvFFIs_3.mp4	0.0	411.9835059642792	0.09999513626098633
28	87.30765509605408	fix_pre	0		57.0	26.0	2.5	/experiments/knapen_aot/videos/R_S_ILSVRC2015_train_00434000.mp4	0.0	412.08350110054016	0.47592997550964355
28	87.7744619846344	response	0	2		26.0	2.5	/experiments/knapen_aot/videos/R_S_ILSVRC2015_train_00434000.mp4	0.0	412.5503079891205	
28	87.78358507156372	movie	1		301.0	26.0	2.5	/experiments/knapen_aot/videos/R_S_ILSVRC2015_train_00434000.mp4	0.0	412.5594310760498	2.5073018074035645
28	90.29088687896729	fix_post	2		12.0	26.0	2.5	/experiments/knapen_aot/videos/R_S_ILSVRC2015_train_00434000.mp4	0.0	415.06673288345337	0.10004305839538574
29	90.39092993736267	fix_pre	0		54.0	27.0	2.5	/experiments/knapen_aot/videos/S_video-4.mp4	0.0	415.16677594184875	0.44999003410339355
29	90.83276391029358	response	0	2		27.0	2.5	/experiments/knapen_aot/videos/S_video-4.mp4	0.0	415.60860991477966	
29	90.84091997146606	movie	1		165.0	27.0	2.5	/experiments/knapen_aot/videos/S_video-4.mp4	0.0	415.61676597595215	2.5084850788116455
29	93.34940505027771	fix_post	2		12.0	27.0	2.5	/experiments/knapen_aot/videos/S_video-4.mp4	0.0	418.1252510547638	0.09988188743591309
30	93.44928693771362	fix_pre	0		63.0	28.0	2.5	blank	1.0	418.2251329421997	0.524986982345581
30	93.96611094474792	response	0	2		28.0	2.5	blank	1.0	418.741956949234	
30	93.9742739200592	movie	1		301.0	28.0	2.5	blank	1.0	418.7501199245453	2.5083160400390625
30	96.48258996009827	fix_post	2		12.0	28.0	2.5	blank	1.0	421.25843596458435	0.09996199607849121
31	96.58255195617676	fix_pre	0		82.0	29.0	2.5	/experiments/knapen_aot/videos/R_S_yt-lzXao6Reec4_14.mp4	0.0	421.35839796066284	0.6833410263061523
31	97.25771498680115	response	0	2		29.0	2.5	/experiments/knapen_aot/videos/R_S_yt-lzXao6Reec4_14.mp4	0.0	422.03356099128723	
31	97.26589298248291	movie	1		298.0	29.0	2.5	/experiments/knapen_aot/videos/R_S_yt-lzXao6Reec4_14.mp4	0.0	422.041738986969	2.5083460807800293
31	99.77423906326294	fix_post	2		12.0	29.0	2.5	/experiments/knapen_aot/videos/R_S_yt-lzXao6Reec4_14.mp4	0.0	424.550085067749	0.09995889663696289
32	99.8741979598999	fix_pre	0		61.0	30.0	2.5	/experiments/knapen_aot/videos/S_yt-FoO02U39gy4_398.mp4	0.0	424.650043964386	0.5083489418029785
32	100.3743200302124	response	0	2		30.0	2.5	/experiments/knapen_aot/videos/S_yt-FoO02U39gy4_398.mp4	0.0	425.1501660346985	
32	100.38254690170288	movie	1		301.0	30.0	2.5	/experiments/knapen_aot/videos/S_yt-FoO02U39gy4_398.mp4	0.0	425.15839290618896	2.508305072784424
32	102.8908519744873	fix_post	2		12.0	30.0	2.5	/experiments/knapen_aot/videos/S_yt-FoO02U39gy4_398.mp4	0.0	427.6666979789734	0.10002493858337402
33	102.99087691307068	fix_pre	0		48.0	31.0	2.5	/experiments/knapen_aot/videos/S_yt-PP93D7b7Ni4_10.mp4	0.0	427.76672291755676	0.39996910095214844
33	103.3826630115509	response	0	2		31.0	2.5	/experiments/knapen_aot/videos/S_yt-PP93D7b7Ni4_10.mp4	0.0	428.158509016037	
33	103.39084601402283	movie	1		301.0	31.0	2.5	/experiments/knapen_aot/videos/S_yt-PP93D7b7Ni4_10.mp4	0.0	428.1666920185089	2.508359909057617
33	105.89920592308044	fix_post	2		12.0	31.0	2.5	/experiments/knapen_aot/videos/S_yt-PP93D7b7Ni4_10.mp4	0.0	430.6750519275665	0.09996199607849121
34	105.99916791915894	fix_pre	0		60.0	32.0	2.5	/experiments/knapen_aot/videos/R_S_yt-s2tZ2NIQrxg_175.mp4	0.0	430.775013923645	0.5000121593475342
34	106.49096298217773	response	0	2		32.0	2.5	/experiments/knapen_aot/videos/R_S_yt-s2tZ2NIQrxg_175.mp4	0.0	431.2668089866638	
34	106.49918007850647	movie	1		301.0	32.0	2.5	/experiments/knapen_aot/videos/R_S_yt-s2tZ2NIQrxg_175.mp4	0.0	431.27502608299255	2.508253812789917
34	109.00743389129639	fix_post	2		12.0	32.0	2.5	/experiments/knapen_aot/videos/R_S_yt-s2tZ2NIQrxg_175.mp4	0.0	433.78327989578247	0.10009908676147461
35	109.10753297805786	fix_pre	0		69.0	33.0	2.5	/experiments/knapen_aot/videos/S_yt-dWF89kq2JIA_13.mp4	0.0	433.88337898254395	0.5748600959777832
35	109.67424607276917	response	0	2		33.0	2.5	/experiments/knapen_aot/videos/S_yt-dWF89kq2JIA_13.mp4	0.0	434.45009207725525	
35	109.68239307403564	movie	1		300.0	33.0	2.5	/experiments/knapen_aot/videos/S_yt-dWF89kq2JIA_13.mp4	0.0	434.45823907852173	2.50838303565979
35	112.19077610969543	fix_post	2		12.0	33.0	2.5	/experiments/knapen_aot/videos/S_yt-dWF89kq2JIA_13.mp4	0.0	436.9666221141815	0.1000518798828125
36	112.29082798957825	fix_pre	0		107.0	34.0	2.5	/experiments/knapen_aot/videos/R_S_yt-dWF89kq2JIA_13.mp4	0.0	437.06667399406433	0.8915839195251465
36	113.17426705360413	response	0	2		34.0	2.5	/experiments/knapen_aot/videos/R_S_yt-dWF89kq2JIA_13.mp4	0.0	437.9501130580902	
36	113.1824119091034	movie	1		301.0	34.0	2.5	/experiments/knapen_aot/videos/R_S_yt-dWF89kq2JIA_13.mp4	0.0	437.9582579135895	2.508378028869629
36	115.69078993797302	fix_post	2		12.0	34.0	2.5	/experiments/knapen_aot/videos/R_S_yt-dWF89kq2JIA_13.mp4	0.0	440.4666359424591	0.10004496574401855
37	115.79083490371704	fix_pre	0		89.0	35.0	2.5	blank	1.0	440.5666809082031	0.7424700260162354
37	116.52427411079407	response	0	2		35.0	2.5	blank	1.0	441.30012011528015	
37	116.53330492973328	movie	1		301.0	35.0	2.5	blank	1.0	441.30915093421936	2.5074641704559326
37	119.04076910018921	fix_post	2		12.0	35.0	2.5	blank	1.0	443.8166151046753	0.10004281997680664
38	119.14081192016602	fix_pre	0		52.0	36.0	2.5	/experiments/knapen_aot/videos/S_yt-nqRBIR8dFYc_328.mp4	0.0	443.9166579246521	0.4340481758117676
38	119.56593990325928	response	0	2		36.0	2.5	/experiments/knapen_aot/videos/S_yt-nqRBIR8dFYc_328.mp4	0.0	444.34178590774536	
38	119.57486009597778	movie	1		301.0	36.0	2.5	/experiments/knapen_aot/videos/S_yt-nqRBIR8dFYc_328.mp4	0.0	444.35070610046387	2.507593870162964
38	122.08245396614075	fix_post	2		12.0	36.0	2.5	/experiments/knapen_aot/videos/S_yt-nqRBIR8dFYc_328.mp4	0.0	446.85829997062683	0.09999513626098633
39	122.18244910240173	fix_pre	0		141.0	37.0	2.5	/experiments/knapen_aot/videos/R_S_yt-EBuE7GbFw7U_180.mp4	0.0	446.9582951068878	1.174921989440918
39	123.34920907020569	response	0	2		37.0	2.5	/experiments/knapen_aot/videos/R_S_yt-EBuE7GbFw7U_180.mp4	0.0	448.1250550746918	
39	123.35737109184265	movie	1		301.0	37.0	2.5	/experiments/knapen_aot/videos/R_S_yt-EBuE7GbFw7U_180.mp4	0.0	448.13321709632874	2.508389949798584
39	125.86576104164124	fix_post	2		12.0	37.0	2.5	/experiments/knapen_aot/videos/R_S_yt-EBuE7GbFw7U_180.mp4	0.0	450.6416070461273	0.09994006156921387
40	125.96570110321045	fix_pre	0		77.0	38.0	2.5	/experiments/knapen_aot/videos/S_yt-5AI_SyK5sg8_112.mp4	0.0	450.74154710769653	0.6417229175567627
40	126.59926199913025	response	0	2		38.0	2.5	/experiments/knapen_aot/videos/S_yt-5AI_SyK5sg8_112.mp4	0.0	451.37510800361633	
40	126.60742402076721	movie	1		301.0	38.0	2.5	/experiments/knapen_aot/videos/S_yt-5AI_SyK5sg8_112.mp4	0.0	451.3832700252533	2.508251905441284
40	129.1156759262085	fix_post	2		12.0	38.0	2.5	/experiments/knapen_aot/videos/S_yt-5AI_SyK5sg8_112.mp4	0.0	453.8915219306946	0.10008716583251953
41	129.21576309204102	fix_pre	0		88.0	39.0	2.5	/experiments/knapen_aot/videos/S_ILSVRC2015_train_00569007.mp4	0.0	453.9916090965271	0.7340359687805176
41	129.9333460330963	response	0	2		39.0	2.5	/experiments/knapen_aot/videos/S_ILSVRC2015_train_00569007.mp4	0.0	454.7091920375824	
41	129.94979906082153	movie	1		301.0	39.0	2.5	/experiments/knapen_aot/videos/S_ILSVRC2015_train_00569007.mp4	0.0	454.7256450653076	2.507563829421997
41	132.45736289024353	fix_post	2		12.0	39.0	2.5	/experiments/knapen_aot/videos/S_ILSVRC2015_train_00569007.mp4	0.0	457.2332088947296	0.10000109672546387
42	132.557363986969	fix_pre	0		87.0	40.0	2.5	blank	1.0	457.3332099914551	0.725761890411377
42	133.2666220664978	response	0	2		40.0	2.5	blank	1.0	458.0424680709839	
42	133.28312587738037	movie	1		301.0	40.0	2.5	blank	1.0	458.05897188186646	2.507587194442749
42	135.79071307182312	fix_post	2		12.0	40.0	2.5	blank	1.0	460.5665590763092	0.0999898910522461
43	135.89070296287537	fix_pre	0		92.0	41.0	2.5	/experiments/knapen_aot/videos/S_yt-K7viJXt9vX8_143.mp4	0.0	460.66654896736145	0.7673461437225342
43	136.64920592308044	response	0	2		41.0	2.5	/experiments/knapen_aot/videos/S_yt-K7viJXt9vX8_143.mp4	0.0	461.4250519275665	
43	136.6580491065979	movie	1		301.0	41.0	2.5	/experiments/knapen_aot/videos/S_yt-K7viJXt9vX8_143.mp4	0.0	461.433895111084	2.507615804672241
43	139.16566491127014	fix_post	2		12.0	41.0	2.5	/experiments/knapen_aot/videos/S_yt-K7viJXt9vX8_143.mp4	0.0	463.9415109157562	0.1000051498413086
44	139.26567006111145	fix_pre	0		94.0	42.0	2.5	/experiments/knapen_aot/videos/R_S_yt-cgwHIb9LAFc_336.mp4	0.0	464.04151606559753	0.7832980155944824
44	140.040874004364	response	0	2		42.0	2.5	/experiments/knapen_aot/videos/R_S_yt-cgwHIb9LAFc_336.mp4	0.0	464.8167200088501	
44	140.04896807670593	movie	1		301.0	42.0	2.5	/experiments/knapen_aot/videos/R_S_yt-cgwHIb9LAFc_336.mp4	0.0	464.824814081192	2.508502960205078
44	142.557471036911	fix_post	2		12.0	42.0	2.5	/experiments/knapen_aot/videos/R_S_yt-cgwHIb9LAFc_336.mp4	0.0	467.3333170413971	0.09987688064575195
45	142.65734791755676	fix_pre	0		96.0	43.0	2.5	/experiments/knapen_aot/videos/S_ILSVRC2015_train_00434000.mp4	0.0	467.43319392204285	0.7999420166015625
45	143.449138879776	response	0	2		43.0	2.5	/experiments/knapen_aot/videos/S_ILSVRC2015_train_00434000.mp4	0.0	468.2249848842621	
45	143.45728993415833	movie	1		301.0	43.0	2.5	/experiments/knapen_aot/videos/S_ILSVRC2015_train_00434000.mp4	0.0	468.2331359386444	2.508380174636841
45	145.96567010879517	fix_post	2		12.0	43.0	2.5	/experiments/knapen_aot/videos/S_ILSVRC2015_train_00434000.mp4	0.0	470.74151611328125	0.09999299049377441
46	146.06566309928894	fix_pre	0		131.0	44.0	2.5	/experiments/knapen_aot/videos/S_yt-VxTTEZNJWjs_110.mp4	0.0	470.841509103775	1.0923759937286377
46	147.141676902771	response	0	2		44.0	2.5	/experiments/knapen_aot/videos/S_yt-VxTTEZNJWjs_110.mp4	0.0	471.9175229072571	
46	147.15803909301758	movie	1		301.0	44.0	2.5	/experiments/knapen_aot/videos/S_yt-VxTTEZNJWjs_110.mp4	0.0	471.93388509750366	2.507628917694092
46	149.66566801071167	fix_post	2		12.0	44.0	2.5	/experiments/knapen_aot/videos/S_yt-VxTTEZNJWjs_110.mp4	0.0	474.44151401519775	0.09992003440856934
47	149.76558804512024	fix_pre	0		97.0	45.0	2.5	/experiments/knapen_aot/videos/S_yt-SjPYdaUBi7A_37.mp4	0.0	474.5414340496063	0.8089828491210938
47	150.56585502624512	response	0	2		45.0	2.5	/experiments/knapen_aot/videos/S_yt-SjPYdaUBi7A_37.mp4	0.0	475.3417010307312	
47	150.57457089424133	movie	1		301.0	45.0	2.5	/experiments/knapen_aot/videos/S_yt-SjPYdaUBi7A_37.mp4	0.0	475.3504168987274	2.507695198059082
47	153.08226609230042	fix_post	2		12.0	45.0	2.5	/experiments/knapen_aot/videos/S_yt-SjPYdaUBi7A_37.mp4	0.0	477.8581120967865	0.10006594657897949
48	153.1823320388794	fix_pre	0		115.0	46.0	2.5	/experiments/knapen_aot/videos/R_S_yt-2i53vKte7SA_117.mp4	0.0	477.9581780433655	0.9582829475402832
48	154.13245511054993	response	0	2		46.0	2.5	/experiments/knapen_aot/videos/R_S_yt-2i53vKte7SA_117.mp4	0.0	478.908301115036	
48	154.14061498641968	movie	1		301.0	46.0	2.5	/experiments/knapen_aot/videos/R_S_yt-2i53vKte7SA_117.mp4	0.0	478.91646099090576	2.508342981338501
48	156.64895796775818	fix_post	2		12.0	46.0	2.5	/experiments/knapen_aot/videos/R_S_yt-2i53vKte7SA_117.mp4	0.0	481.42480397224426	0.10003995895385742
49	156.74899792671204	fix_pre	0		260.0	47.0	2.5	/experiments/knapen_aot/videos/R_S_yt--C2DDZ7LOQA_95.mp4	0.0	481.5248439311981	2.1665611267089844
49	158.90734195709229	response	0	2		47.0	2.5	/experiments/knapen_aot/videos/R_S_yt--C2DDZ7LOQA_95.mp4	0.0	483.68318796157837	
49	158.91555905342102	movie	1		301.0	47.0	2.5	/experiments/knapen_aot/videos/R_S_yt--C2DDZ7LOQA_95.mp4	0.0	483.6914050579071	2.508316993713379
49	161.4238760471344	fix_post	2		12.0	47.0	2.5	/experiments/knapen_aot/videos/R_S_yt--C2DDZ7LOQA_95.mp4	0.0	486.1997220516205	0.10006403923034668
50	161.52394008636475	fix_pre	0		136.0	48.0	2.5	/experiments/knapen_aot/videos/S_yt-y6zr69M0yHI_76.mp4	0.0	486.29978609085083	1.1338438987731934
50	162.64910006523132	response	0	2		48.0	2.5	/experiments/knapen_aot/videos/S_yt-y6zr69M0yHI_76.mp4	0.0	487.4249460697174	
50	162.65778398513794	movie	1		300.0	48.0	2.5	/experiments/knapen_aot/videos/S_yt-y6zr69M0yHI_76.mp4	0.0	487.433629989624	2.507802963256836
50	165.16558694839478	fix_post	2		12.0	48.0	2.5	/experiments/knapen_aot/videos/S_yt-y6zr69M0yHI_76.mp4	0.0	489.94143295288086	0.09995603561401367
51	165.2655429840088	fix_pre	0		99.0	49.0	2.5	blank	1.0	490.0413889884949	0.82499098777771
51	166.08238196372986	response	0	2		49.0	2.5	blank	1.0	490.85822796821594	
51	166.0905339717865	movie	1		301.0	49.0	2.5	blank	1.0	490.8663799762726	2.5083351135253906
51	168.5988690853119	fix_post	2		12.0	49.0	2.5	blank	1.0	493.374715089798	0.10063290596008301
52	168.69950199127197	fix_pre	0		112.0	50.0	2.5	/experiments/knapen_aot/videos/S_comp_LA_A006_C004_v01_SDR_FINAL_PS_20180730_SDR_2K_AVC.mp4	0.0	493.47534799575806	0.9327399730682373
52	169.62400698661804	response	0	2		50.0	2.5	/experiments/knapen_aot/videos/S_comp_LA_A006_C004_v01_SDR_FINAL_PS_20180730_SDR_2K_AVC.mp4	0.0	494.3998529911041	
52	169.6322419643402	movie	1		166.0	50.0	2.5	/experiments/knapen_aot/videos/S_comp_LA_A006_C004_v01_SDR_FINAL_PS_20180730_SDR_2K_AVC.mp4	0.0	494.4080879688263	2.5082809925079346
52	172.14052295684814	fix_post	2		12.0	50.0	2.5	/experiments/knapen_aot/videos/S_comp_LA_A006_C004_v01_SDR_FINAL_PS_20180730_SDR_2K_AVC.mp4	0.0	496.91636896133423	0.10004901885986328
53	172.240571975708	fix_pre	0		70.0	51.0	2.5	/experiments/knapen_aot/videos/S_yt-waWM9vAfsIw_116.mp4	0.0	497.0164179801941	0.5838100910186768
53	172.81568598747253	response	0	2		51.0	2.5	/experiments/knapen_aot/videos/S_yt-waWM9vAfsIw_116.mp4	0.0	497.5915319919586	
53	172.82438206672668	movie	1		297.0	51.0	2.5	/experiments/knapen_aot/videos/S_yt-waWM9vAfsIw_116.mp4	0.0	497.60022807121277	2.507849931716919
53	175.3322319984436	fix_post	2		12.0	51.0	2.5	/experiments/knapen_aot/videos/S_yt-waWM9vAfsIw_116.mp4	0.0	500.1080780029297	0.10001897811889648
54	175.4322509765625	fix_pre	0		73.0	52.0	2.5	/experiments/knapen_aot/videos/S_yt-Z0nfPTEEOLo_85.mp4	0.0	500.2080969810486	0.6082360744476318
54	176.02475094795227	response	0	2		52.0	2.5	/experiments/knapen_aot/videos/S_yt-Z0nfPTEEOLo_85.mp4	0.0	500.80059695243835	
54	176.04048705101013	movie	1		301.0	52.0	2.5	/experiments/knapen_aot/videos/S_yt-Z0nfPTEEOLo_85.mp4	0.0	500.8163330554962	2.508375883102417
54	178.54886293411255	fix_post	2		12.0	52.0	2.5	/experiments/knapen_aot/videos/S_yt-Z0nfPTEEOLo_85.mp4	0.0	503.32470893859863	0.09998202323913574
55	178.64884495735168	fix_pre	0		95.0	53.0	2.5	/experiments/knapen_aot/videos/S_yt-8vm83GUgYxI_1.mp4	0.0	503.42469096183777	0.7916460037231445
55	179.43223690986633	response	0	2		53.0	2.5	/experiments/knapen_aot/videos/S_yt-8vm83GUgYxI_1.mp4	0.0	504.2080829143524	
55	179.44049096107483	movie	1		301.0	53.0	2.5	/experiments/knapen_aot/videos/S_yt-8vm83GUgYxI_1.mp4	0.0	504.2163369655609	2.5083560943603516
55	181.94884705543518	fix_post	2		12.0	53.0	2.5	/experiments/knapen_aot/videos/S_yt-8vm83GUgYxI_1.mp4	0.0	506.72469305992126	0.10002398490905762
56	182.04887104034424	fix_pre	0		57.0	54.0	2.5	blank	1.0	506.8247170448303	0.47495102882385254
56	182.51564407348633	response	0	2		54.0	2.5	blank	1.0	507.2914900779724	
56	182.5238220691681	movie	1		301.0	54.0	2.5	blank	1.0	507.2996680736542	2.508333921432495
56	185.0321559906006	fix_post	2		12.0	54.0	2.5	blank	1.0	509.80800199508667	0.10000109672546387
57	185.13215708732605	fix_pre	0		66.0	55.0	2.5	/experiments/knapen_aot/videos/S_yt-he_RSdeVinA_68.mp4	0.0	509.90800309181213	0.549954891204834
57	185.6739320755005	response	0	2		55.0	2.5	/experiments/knapen_aot/videos/S_yt-he_RSdeVinA_68.mp4	0.0	510.4497780799866	
57	185.68211197853088	movie	1		300.0	55.0	2.5	/experiments/knapen_aot/videos/S_yt-he_RSdeVinA_68.mp4	0.0	510.45795798301697	2.5083141326904297
57	188.1904261112213	fix_post	2		12.0	55.0	2.5	/experiments/knapen_aot/videos/S_yt-he_RSdeVinA_68.mp4	0.0	512.9662721157074	0.1000669002532959
58	188.2904930114746	fix_pre	0		88.0	56.0	2.5	/experiments/knapen_aot/videos/S_yt-PCSXJ5YB_AE_3.mp4	0.0	513.0663390159607	0.7333259582519531
58	189.00815892219543	response	0	2		56.0	2.5	/experiments/knapen_aot/videos/S_yt-PCSXJ5YB_AE_3.mp4	0.0	513.7840049266815	
58	189.02381896972656	movie	1		301.0	56.0	2.5	/experiments/knapen_aot/videos/S_yt-PCSXJ5YB_AE_3.mp4	0.0	513.7996649742126	2.508301019668579
58	191.53211998939514	fix_post	2		12.0	56.0	2.5	/experiments/knapen_aot/videos/S_yt-PCSXJ5YB_AE_3.mp4	0.0	516.3079659938812	0.0999898910522461
59	191.6321098804474	fix_pre	0		65.0	57.0	2.5	/experiments/knapen_aot/videos/R_S_yt-PP93D7b7Ni4_10.mp4	0.0	516.4079558849335	0.5416281223297119
59	192.16562604904175	response	0	2		57.0	2.5	/experiments/knapen_aot/videos/R_S_yt-PP93D7b7Ni4_10.mp4	0.0	516.9414720535278	
59	192.1737380027771	movie	1		301.0	57.0	2.5	/experiments/knapen_aot/videos/R_S_yt-PP93D7b7Ni4_10.mp4	0.0	516.9495840072632	2.5083260536193848
59	194.68206405639648	fix_post	2		12.0	57.0	2.5	/experiments/knapen_aot/videos/R_S_yt-PP93D7b7Ni4_10.mp4	0.0	519.4579100608826	0.1005699634552002
60	194.78263401985168	fix_pre	0		64.0	58.0	2.5	/experiments/knapen_aot/videos/R_S_yt-ujTY1igjc3E_2.mp4	0.0	519.5584800243378	0.5328359603881836
60	195.3072190284729	response	0	2		58.0	2.5	/experiments/knapen_aot/videos/R_S_yt-ujTY1igjc3E_2.mp4	0.0	520.083065032959	
60	195.31546998023987	movie	1		301.0	58.0	2.5	/experiments/knapen_aot/videos/R_S_yt-ujTY1igjc3E_2.mp4	0.0	520.091315984726	2.508310079574585
60	197.82378005981445	fix_post	2		12.0	58.0	2.5	/experiments/knapen_aot/videos/R_S_yt-ujTY1igjc3E_2.mp4	0.0	522.5996260643005	0.09994983673095703
61	197.9237298965454	fix_pre	0		88.0	59.0	2.5	/experiments/knapen_aot/videos/R_S_production_ID_5139371.mp4	0.0	522.6995759010315	0.7337100505828857
61	198.64893102645874	response	0	2		59.0	2.5	/experiments/knapen_aot/videos/R_S_production_ID_5139371.mp4	0.0	523.4247770309448	
61	198.6574399471283	movie	1		163.0	59.0	2.5	/experiments/knapen_aot/videos/R_S_production_ID_5139371.mp4	0.0	523.4332859516144	2.507960081100464
61	201.16540002822876	fix_post	2		12.0	59.0	2.5	/experiments/knapen_aot/videos/R_S_production_ID_5139371.mp4	0.0	525.9412460327148	0.1000368595123291
62	201.2654368877411	fix_pre	0		101.0	60.0	2.5	/experiments/knapen_aot/videos/S_yt-Wr5vs_0Iypw_161.mp4	0.0	526.0412828922272	0.8415491580963135
62	202.09888005256653	response	0	2		60.0	2.5	/experiments/knapen_aot/videos/S_yt-Wr5vs_0Iypw_161.mp4	0.0	526.8747260570526	
62	202.1069860458374	movie	1		301.0	60.0	2.5	/experiments/knapen_aot/videos/S_yt-Wr5vs_0Iypw_161.mp4	0.0	526.8828320503235	2.5084660053253174
62	204.61545205116272	fix_post	2		12.0	60.0	2.5	/experiments/knapen_aot/videos/S_yt-Wr5vs_0Iypw_161.mp4	0.0	529.3912980556488	0.09995388984680176
63	204.71540594100952	fix_pre	0		96.0	61.0	2.5	/experiments/knapen_aot/videos/S_wc-DgBY_btLlgBC_19.mp4	0.0	529.4912519454956	0.7998919486999512
63	205.5072090625763	response	0	2		61.0	2.5	/experiments/knapen_aot/videos/S_wc-DgBY_btLlgBC_19.mp4	0.0	530.2830550670624	
63	205.51529788970947	movie	1		162.0	61.0	2.5	/experiments/knapen_aot/videos/S_wc-DgBY_btLlgBC_19.mp4	0.0	530.2911438941956	2.508406162261963
63	208.02370405197144	fix_post	2		12.0	61.0	2.5	/experiments/knapen_aot/videos/S_wc-DgBY_btLlgBC_19.mp4	0.0	532.7995500564575	0.10001182556152344
64	208.12371587753296	fix_pre	0		115.0	62.0	2.5	/experiments/knapen_aot/videos/R_S_cST9H3zu3zQ_126.mp4	0.0	532.899561882019	0.9582920074462891
64	209.07375192642212	response	0	2		62.0	2.5	/experiments/knapen_aot/videos/R_S_cST9H3zu3zQ_126.mp4	0.0	533.8495979309082	
64	209.08200788497925	movie	1		301.0	62.0	2.5	/experiments/knapen_aot/videos/R_S_cST9H3zu3zQ_126.mp4	0.0	533.8578538894653	2.5083720684051514
64	211.5903799533844	fix_post	2		12.0	62.0	2.5	/experiments/knapen_aot/videos/R_S_cST9H3zu3zQ_126.mp4	0.0	536.3662259578705	0.09995913505554199
65	211.69033908843994	fix_pre	0		81.0	63.0	2.5	blank	1.0	536.466185092926	0.6753659248352051
65	212.3572371006012	response	0	2		63.0	2.5	blank	1.0	537.1330831050873	
65	212.36570501327515	movie	1		301.0	63.0	2.5	blank	1.0	537.1415510177612	2.5079879760742188
65	214.87369298934937	fix_post	2		12.0	63.0	2.5	blank	1.0	539.6495389938354	0.0998990535736084
66	214.97359204292297	fix_pre	0		93.0	64.0	2.5	/experiments/knapen_aot/videos/R_S_yt-6vkiJedss6g_5.mp4	0.0	539.7494380474091	0.7750680446624756
66	215.7405300140381	response	0	2		64.0	2.5	/experiments/knapen_aot/videos/R_S_yt-6vkiJedss6g_5.mp4	0.0	540.5163760185242	
66	215.74866008758545	movie	1		301.0	64.0	2.5	/experiments/knapen_aot/videos/R_S_yt-6vkiJedss6g_5.mp4	0.0	540.5245060920715	2.5083909034729004
66	218.25705099105835	fix_post	2		12.0	64.0	2.5	/experiments/knapen_aot/videos/R_S_yt-6vkiJedss6g_5.mp4	0.0	543.0328969955444	0.10001492500305176
67	218.3570659160614	fix_pre	0		121.0	65.0	2.5	/experiments/knapen_aot/videos/R_S_yt-he_RSdeVinA_68.mp4	0.0	543.1329119205475	1.0086450576782227
67	219.35717701911926	response	0	2		65.0	2.5	/experiments/knapen_aot/videos/R_S_yt-he_RSdeVinA_68.mp4	0.0	544.1330230236053	
67	219.36571097373962	movie	1		299.0	65.0	2.5	/experiments/knapen_aot/videos/R_S_yt-he_RSdeVinA_68.mp4	0.0	544.1415569782257	2.50799298286438
67	221.873703956604	fix_post	2		12.0	65.0	2.5	/experiments/knapen_aot/videos/R_S_yt-he_RSdeVinA_68.mp4	0.0	546.6495499610901	0.10002303123474121
68	221.97372698783875	fix_pre	0		123.0	66.0	2.5	/experiments/knapen_aot/videos/S_yt-MyL1VlXiZa4_25.mp4	0.0	546.7495729923248	1.0249519348144531
68	222.99058508872986	response	0	2		66.0	2.5	/experiments/knapen_aot/videos/S_yt-MyL1VlXiZa4_25.mp4	0.0	547.7664310932159	
68	222.9986789226532	movie	1		301.0	66.0	2.5	/experiments/knapen_aot/videos/S_yt-MyL1VlXiZa4_25.mp4	0.0	547.7745249271393	2.5083670616149902
68	225.5070459842682	fix_post	2		12.0	66.0	2.5	/experiments/knapen_aot/videos/S_yt-MyL1VlXiZa4_25.mp4	0.0	550.2828919887543	0.09990096092224121
69	225.60694694519043	fix_pre	0		65.0	67.0	2.5	/experiments/knapen_aot/videos/R_S_yt-5AI_SyK5sg8_112.mp4	0.0	550.3827929496765	0.5416760444641113
69	226.1330029964447	response	0	2		67.0	2.5	/experiments/knapen_aot/videos/R_S_yt-5AI_SyK5sg8_112.mp4	0.0	550.9088490009308	
69	226.14862298965454	movie	1		301.0	67.0	2.5	/experiments/knapen_aot/videos/R_S_yt-5AI_SyK5sg8_112.mp4	0.0	550.9244689941406	2.50858211517334
69	228.65720510482788	fix_post	2		12.0	67.0	2.5	/experiments/knapen_aot/videos/R_S_yt-5AI_SyK5sg8_112.mp4	0.0	553.433051109314	0.09980392456054688
70	228.75700902938843	fix_pre	0		86.0	68.0	2.5	blank	1.0	553.5328550338745	0.7166550159454346
70	229.4654519557953	response	0	2		68.0	2.5	blank	1.0	554.2412979602814	
70	229.47366404533386	movie	1		301.0	68.0	2.5	blank	1.0	554.24951004982	2.5082509517669678
70	231.98191499710083	fix_post	2		12.0	68.0	2.5	blank	1.0	556.7577610015869	0.10005497932434082
71	232.08196997642517	fix_pre	0		68.0	69.0	2.5	/experiments/knapen_aot/videos/R_S_production_ID_4325513.mp4	0.0	556.8578159809113	0.5666019916534424
71	232.64038109779358	response	0	2		69.0	2.5	/experiments/knapen_aot/videos/R_S_production_ID_4325513.mp4	0.0	557.4162271022797	
71	232.6485719680786	movie	1		198.0	69.0	2.5	/experiments/knapen_aot/videos/R_S_production_ID_4325513.mp4	0.0	557.4244179725647	2.5085511207580566
71	235.15712308883667	fix_post	2		12.0	69.0	2.5	/experiments/knapen_aot/videos/R_S_production_ID_4325513.mp4	0.0	559.9329690933228	0.09971380233764648
72	235.25683689117432	fix_pre	0		97.0	70.0	2.5	/experiments/knapen_aot/videos/R_S_yt-MyL1VlXiZa4_25.mp4	0.0	560.0326828956604	0.8084042072296143
72	236.05705499649048	response	0	2		70.0	2.5	/experiments/knapen_aot/videos/R_S_yt-MyL1VlXiZa4_25.mp4	0.0	560.8329010009766	
72	236.06524109840393	movie	1		301.0	70.0	2.5	/experiments/knapen_aot/videos/R_S_yt-MyL1VlXiZa4_25.mp4	0.0	560.84108710289	2.508527994155884
72	238.57376909255981	fix_post	2		12.0	70.0	2.5	/experiments/knapen_aot/videos/R_S_yt-MyL1VlXiZa4_25.mp4	0.0	563.3496150970459	0.09980988502502441
73	238.67357897758484	fix_pre	0		120.0	71.0	2.5	/experiments/knapen_aot/videos/R_S_yt--a-d97T4Gak_75.mp4	0.0	563.4494249820709	0.9999759197235107
73	239.66558408737183	response	0	2		71.0	2.5	/experiments/knapen_aot/videos/R_S_yt--a-d97T4Gak_75.mp4	0.0	564.4414300918579	
73	239.67355489730835	movie	1		301.0	71.0	2.5	/experiments/knapen_aot/videos/R_S_yt--a-d97T4Gak_75.mp4	0.0	564.4494009017944	2.5082850456237793
73	242.18183994293213	fix_post	2		12.0	71.0	2.5	/experiments/knapen_aot/videos/R_S_yt--a-d97T4Gak_75.mp4	0.0	566.9576859474182	0.10025906562805176
74	242.28209900856018	fix_pre	0		90.0	72.0	2.5	/experiments/knapen_aot/videos/S_yt-mQESmS4uqRU_208.mp4	0.0	567.0579450130463	0.7499780654907227
74	243.02367496490479	response	0	2		72.0	2.5	/experiments/knapen_aot/videos/S_yt-mQESmS4uqRU_208.mp4	0.0	567.7995209693909	
74	243.0320770740509	movie	1		301.0	72.0	2.5	/experiments/knapen_aot/videos/S_yt-mQESmS4uqRU_208.mp4	0.0	567.807923078537	2.508167028427124
74	245.54024410247803	fix_post	2		12.0	72.0	2.5	/experiments/knapen_aot/videos/S_yt-mQESmS4uqRU_208.mp4	0.0	570.3160901069641	0.09992694854736328
75	245.6401710510254	fix_pre	0		67.0	73.0	2.5	/experiments/knapen_aot/videos/S_yt-gaCbT4RR9Tw_191.mp4	0.0	570.4160170555115	0.5584938526153564
75	246.19035506248474	response	0	2		73.0	2.5	/experiments/knapen_aot/videos/S_yt-gaCbT4RR9Tw_191.mp4	0.0	570.9662010669708	
75	246.19866490364075	movie	1		301.0	73.0	2.5	/experiments/knapen_aot/videos/S_yt-gaCbT4RR9Tw_191.mp4	0.0	570.9745109081268	2.5082051753997803
75	248.70687007904053	fix_post	2		12.0	73.0	2.5	/experiments/knapen_aot/videos/S_yt-gaCbT4RR9Tw_191.mp4	0.0	573.4827160835266	0.1000068187713623
76	248.8068768978119	fix_pre	0		93.0	74.0	2.5	/experiments/knapen_aot/videos/R_S_3WAnGcPubBY_143.mp4	0.0	573.582722902298	0.7750110626220703
76	249.57364988327026	response	0	2		74.0	2.5	/experiments/knapen_aot/videos/R_S_3WAnGcPubBY_143.mp4	0.0	574.3494958877563	
76	249.58188796043396	movie	1		301.0	74.0	2.5	/experiments/knapen_aot/videos/R_S_3WAnGcPubBY_143.mp4	0.0	574.35773396492	2.5082809925079346
76	252.0901689529419	fix_post	2		12.0	74.0	2.5	/experiments/knapen_aot/videos/R_S_3WAnGcPubBY_143.mp4	0.0	576.866014957428	0.09998202323913574
77	252.19015097618103	fix_pre	0		80.0	75.0	2.5	/experiments/knapen_aot/videos/R_S_yt-XtzmBXKYEWk_60.mp4	0.0	576.9659969806671	0.6666769981384277
77	252.84859800338745	response	0	2		75.0	2.5	/experiments/knapen_aot/videos/R_S_yt-XtzmBXKYEWk_60.mp4	0.0	577.6244440078735	
77	252.85682797431946	movie	1		301.0	75.0	2.5	/experiments/knapen_aot/videos/R_S_yt-XtzmBXKYEWk_60.mp4	0.0	577.6326739788055	2.508450984954834
77	255.3652789592743	fix_post	2		12.0	75.0	2.5	/experiments/knapen_aot/videos/R_S_yt-XtzmBXKYEWk_60.mp4	0.0	580.1411249637604	0.09984397888183594
78	255.46512293815613	fix_pre	0		99.0	76.0	2.5	/experiments/knapen_aot/videos/R_S_yt-QJHe-CoK4iI_170.mp4	0.0	580.2409689426422	0.8249659538269043
78	256.281986951828	response	0	2		76.0	2.5	/experiments/knapen_aot/videos/R_S_yt-QJHe-CoK4iI_170.mp4	0.0	581.0578329563141	
78	256.29008889198303	movie	1		301.0	76.0	2.5	/experiments/knapen_aot/videos/R_S_yt-QJHe-CoK4iI_170.mp4	0.0	581.0659348964691	2.5085160732269287
78	258.79860496520996	fix_post	2		12.0	76.0	2.5	/experiments/knapen_aot/videos/R_S_yt-QJHe-CoK4iI_170.mp4	0.0	583.574450969696	0.09989595413208008
79	258.89850091934204	fix_pre	0		87.0	77.0	2.5	blank	1.0	583.6743469238281	0.7250089645385742
79	259.6153109073639	response	0	2		77.0	2.5	blank	1.0	584.39115691185	
79	259.6235098838806	movie	1		301.0	77.0	2.5	blank	1.0	584.3993558883667	2.5084481239318848
79	262.1319580078125	fix_post	2		12.0	77.0	2.5	blank	1.0	586.9078040122986	0.09982895851135254
80	262.23178696632385	fix_pre	0		63.0	78.0	2.5	/experiments/knapen_aot/videos/S_yt--UhwpukdyBg_51.mp4	0.0	587.0076329708099	0.5251281261444092
80	262.74861907958984	response	0	2		78.0	2.5	/experiments/knapen_aot/videos/S_yt--UhwpukdyBg_51.mp4	0.0	587.5244650840759	
80	262.75691509246826	movie	1		301.0	78.0	2.5	/experiments/knapen_aot/videos/S_yt--UhwpukdyBg_51.mp4	0.0	587.5327610969543	2.5081748962402344
80	265.2650899887085	fix_post	2		12.0	78.0	2.5	/experiments/knapen_aot/videos/S_yt--UhwpukdyBg_51.mp4	0.0	590.0409359931946	0.10006904602050781
81	265.365159034729	fix_pre	0		58.0	79.0	2.5	/experiments/knapen_aot/videos/R_S_yt-9Q7SZR0mgMA_155.mp4	0.0	590.1410050392151	0.48327088356018066
81	265.83289408683777	response	0	2		79.0	2.5	/experiments/knapen_aot/videos/R_S_yt-9Q7SZR0mgMA_155.mp4	0.0	590.6087400913239	
81	265.8484299182892	movie	1		301.0	79.0	2.5	/experiments/knapen_aot/videos/R_S_yt-9Q7SZR0mgMA_155.mp4	0.0	590.6242759227753	2.508481025695801
81	268.356910943985	fix_post	2		12.0	79.0	2.5	/experiments/knapen_aot/videos/R_S_yt-9Q7SZR0mgMA_155.mp4	0.0	593.1327569484711	0.09991216659545898
82	268.45682311058044	fix_pre	0		97.0	80.0	2.5	/experiments/knapen_aot/videos/R_S_SPNvf6JCjGw_123.mp4	0.0	593.2326691150665	0.8082058429718018
82	269.256954908371	response	0	2		80.0	2.5	/experiments/knapen_aot/videos/R_S_SPNvf6JCjGw_123.mp4	0.0	594.032800912857	
82	269.26502895355225	movie	1		301.0	80.0	2.5	/experiments/knapen_aot/videos/R_S_SPNvf6JCjGw_123.mp4	0.0	594.0408749580383	2.5083980560302734
82	271.7734270095825	fix_post	2		12.0	80.0	2.5	/experiments/knapen_aot/videos/R_S_SPNvf6JCjGw_123.mp4	0.0	596.5492730140686	0.10002303123474121
83	271.87345004081726	fix_pre	0		79.0	81.0	2.5	/experiments/knapen_aot/videos/R_S_yt-rPYBHkUEwwc_10.mp4	0.0	596.6492960453033	0.6583209037780762
83	272.52359104156494	response	0	2		81.0	2.5	/experiments/knapen_aot/videos/R_S_yt-rPYBHkUEwwc_10.mp4	0.0	597.299437046051	
83	272.53177094459534	movie	1		301.0	81.0	2.5	/experiments/knapen_aot/videos/R_S_yt-rPYBHkUEwwc_10.mp4	0.0	597.3076169490814	2.5083119869232178
83	275.04008293151855	fix_post	2		12.0	81.0	2.5	/experiments/knapen_aot/videos/R_S_yt-rPYBHkUEwwc_10.mp4	0.0	599.8159289360046	0.10000205039978027
84	275.14008498191833	fix_pre	0		100.0	82.0	2.5	blank	1.0	599.9159309864044	0.8333771228790283
84	275.9577920436859	response	0	2		82.0	2.5	blank	1.0	600.733638048172	
84	275.97346210479736	movie	1		301.0	82.0	2.5	blank	1.0	600.7493081092834	2.5082058906555176
84	278.4816679954529	fix_post	2		12.0	82.0	2.5	blank	1.0	603.257513999939	0.10006999969482422
85	278.5817379951477	fix_pre	0		65.0	83.0	2.5	/experiments/knapen_aot/videos/R_S_wc-DgBY_btLlgBC_19.mp4	0.0	603.3575839996338	0.5501160621643066
85	279.11524391174316	response	0	2		83.0	2.5	/experiments/knapen_aot/videos/R_S_wc-DgBY_btLlgBC_19.mp4	0.0	603.8910899162292	
85	279.131854057312	movie	1		162.0	83.0	2.5	/experiments/knapen_aot/videos/R_S_wc-DgBY_btLlgBC_19.mp4	0.0	603.9077000617981	2.4998838901519775
85	281.631737947464	fix_post	2		12.0	83.0	2.5	/experiments/knapen_aot/videos/R_S_wc-DgBY_btLlgBC_19.mp4	0.0	606.4075839519501	0.10001397132873535
87	281.7317519187927	stim	0		150.0					606.5075979232788	1.2513079643249512
87	282.9770929813385	response	0	space						607.7529389858246	
