trial_nr	onset	event_type	phase	response	nr_frames	movie_index	movie_duration	movie_file	blank	onset_abs	duration
0	0.12743306159973145	stim	0		24.0					58.820960998535156	0.19752907752990723
0	0.31671595573425293	response	0	space						59.01024389266968	
1	0.32496213912963867	stim	0		121.0					59.01849007606506	1.008302927017212
1	0.9676530361175537	response	0	space						59.66118097305298	
1	1.3332650661468506	stim	1		120.0					60.026793003082275	0.9997429847717285
1	1.616379976272583	response	1	space						60.30990791320801	
1	2.0329630374908447	response	1	space						60.72649097442627	
2	2.333008050918579	fix_pre	0		1.0	0.0	2.5	/experiments/knapen_aot/videos/R_S_yt-Gc1p5CnDbDY_22.mp4	0.0	61.026535987854004	0.00934600830078125
2	2.3369860649108887	response	0	space		0.0	2.5	/experiments/knapen_aot/videos/R_S_yt-Gc1p5CnDbDY_22.mp4	0.0	61.03051400184631	
2	2.3423540592193604	movie	1		295.0	0.0	2.5	/experiments/knapen_aot/videos/R_S_yt-Gc1p5CnDbDY_22.mp4	0.0	61.035881996154785	2.50742506980896
2	4.84977912902832	fix_post	2		12.0	0.0	2.5	/experiments/knapen_aot/videos/R_S_yt-Gc1p5CnDbDY_22.mp4	0.0	63.543307065963745	0.09983491897583008
3	4.94961404800415	fix_pre	0		31.0	1.0	2.5	/experiments/knapen_aot/videos/S_yt-8LO59eN9om4_16.mp4	0.0	63.643141984939575	0.26084089279174805
3	5.196864128112793	response	0	2		1.0	2.5	/experiments/knapen_aot/videos/S_yt-8LO59eN9om4_16.mp4	0.0	63.89039206504822	
3	5.210454940795898	movie	1		298.0	1.0	2.5	/experiments/knapen_aot/videos/S_yt-8LO59eN9om4_16.mp4	0.0	63.90398287773132	2.5057971477508545
3	7.716252088546753	fix_post	2		12.0	1.0	2.5	/experiments/knapen_aot/videos/S_yt-8LO59eN9om4_16.mp4	0.0	66.40978002548218	0.10001897811889648
4	7.816271066665649	fix_pre	0		27.0	2.0	2.5	/experiments/knapen_aot/videos/R_S_yt-8LO59eN9om4_16.mp4	0.0	66.50979900360107	0.22491002082824707
4	8.033051013946533	response	0	2		2.0	2.5	/experiments/knapen_aot/videos/R_S_yt-8LO59eN9om4_16.mp4	0.0	66.72657895088196	
4	8.041181087493896	movie	1		301.0	2.0	2.5	/experiments/knapen_aot/videos/R_S_yt-8LO59eN9om4_16.mp4	0.0	66.73470902442932	2.5084240436553955
4	10.549605131149292	fix_post	2		12.0	2.0	2.5	/experiments/knapen_aot/videos/R_S_yt-8LO59eN9om4_16.mp4	0.0	69.24313306808472	0.0999598503112793
5	10.649564981460571	fix_pre	0		9.0	3.0	2.5	/experiments/knapen_aot/videos/S_yt-r7brAHgxZSU_248.mp4	0.0	69.343092918396	0.07491397857666016
5	10.716336011886597	response	0	2		3.0	2.5	/experiments/knapen_aot/videos/S_yt-r7brAHgxZSU_248.mp4	0.0	69.40986394882202	
5	10.724478960037231	movie	1		301.0	3.0	2.5	/experiments/knapen_aot/videos/S_yt-r7brAHgxZSU_248.mp4	0.0	69.41800689697266	2.5083470344543457
5	13.232825994491577	fix_post	2		12.0	3.0	2.5	/experiments/knapen_aot/videos/S_yt-r7brAHgxZSU_248.mp4	0.0	71.926353931427	0.100067138671875
6	13.332893133163452	fix_pre	0		17.0	4.0	2.5	/experiments/knapen_aot/videos/R_S_yt-kA0ybjmoiMc_284.mp4	0.0	72.02642107009888	0.14159393310546875
6	13.466299057006836	response	0	2		4.0	2.5	/experiments/knapen_aot/videos/R_S_yt-kA0ybjmoiMc_284.mp4	0.0	72.15982699394226	
6	13.474487066268921	movie	1		301.0	4.0	2.5	/experiments/knapen_aot/videos/R_S_yt-kA0ybjmoiMc_284.mp4	0.0	72.16801500320435	2.508410930633545
6	15.982897996902466	fix_post	2		12.0	4.0	2.5	/experiments/knapen_aot/videos/R_S_yt-kA0ybjmoiMc_284.mp4	0.0	74.67642593383789	0.09994816780090332
7	16.08284616470337	fix_pre	0		58.0	5.0	2.5	/experiments/knapen_aot/videos/R_S_yt-8LO59eN9om4_16.mp4	0.0	74.7763741016388	0.48330092430114746
7	16.557950973510742	response	0	2		5.0	2.5	/experiments/knapen_aot/videos/R_S_yt-8LO59eN9om4_16.mp4	0.0	75.25147891044617	
7	16.566147089004517	movie	1		301.0	5.0	2.5	/experiments/knapen_aot/videos/R_S_yt-8LO59eN9om4_16.mp4	0.0	75.25967502593994	2.5083649158477783
7	19.074512004852295	fix_post	2		12.0	5.0	2.5	/experiments/knapen_aot/videos/R_S_yt-8LO59eN9om4_16.mp4	0.0	77.76803994178772	0.1000220775604248
8	19.17453408241272	fix_pre	0		31.0	6.0	2.5	blank	1.0	77.86806201934814	0.2583339214324951
8	19.424628973007202	response	0	2		6.0	2.5	blank	1.0	78.11815690994263	
8	19.432868003845215	movie	1		301.0	6.0	2.5	blank	1.0	78.12639594078064	2.5082950592041016
8	21.941163063049316	fix_post	2		12.0	6.0	2.5	blank	1.0	80.63469099998474	0.1000208854675293
9	22.041183948516846	fix_pre	0		33.0	7.0	2.5	/experiments/knapen_aot/videos/S_yt-bH4nJibL4Jo_164.mp4	0.0	80.73471188545227	0.2749960422515869
9	22.30794596672058	response	0	2		7.0	2.5	/experiments/knapen_aot/videos/S_yt-bH4nJibL4Jo_164.mp4	0.0	81.001473903656	
9	22.316179990768433	movie	1		301.0	7.0	2.5	/experiments/knapen_aot/videos/S_yt-bH4nJibL4Jo_164.mp4	0.0	81.00970792770386	2.5083391666412354
9	24.824519157409668	fix_post	2		12.0	7.0	2.5	/experiments/knapen_aot/videos/S_yt-bH4nJibL4Jo_164.mp4	0.0	83.51804709434509	0.09997987747192383
10	24.924499034881592	fix_pre	0		26.0	8.0	2.5	/experiments/knapen_aot/videos/R_S_ILSVRC2015_train_00725000.mp4	0.0	83.61802697181702	0.21659398078918457
10	25.132966995239258	response	0	2		8.0	2.5	/experiments/knapen_aot/videos/R_S_ILSVRC2015_train_00725000.mp4	0.0	83.82649493217468	
10	25.141093015670776	movie	1		301.0	8.0	2.5	/experiments/knapen_aot/videos/R_S_ILSVRC2015_train_00725000.mp4	0.0	83.8346209526062	2.5083370208740234
10	27.6494300365448	fix_post	2		12.0	8.0	2.5	/experiments/knapen_aot/videos/R_S_ILSVRC2015_train_00725000.mp4	0.0	86.34295797348022	0.10004591941833496
11	27.749475955963135	fix_pre	0		36.0	9.0	2.5	/experiments/knapen_aot/videos/S_yt-ZTAaH5XbtfE_3.mp4	0.0	86.44300389289856	0.3010740280151367
11	28.041242122650146	response	0	2		9.0	2.5	/experiments/knapen_aot/videos/S_yt-ZTAaH5XbtfE_3.mp4	0.0	86.73477005958557	
11	28.05054998397827	movie	1		301.0	9.0	2.5	/experiments/knapen_aot/videos/S_yt-ZTAaH5XbtfE_3.mp4	0.0	86.7440779209137	2.5072271823883057
11	30.557777166366577	fix_post	2		12.0	9.0	2.5	/experiments/knapen_aot/videos/S_yt-ZTAaH5XbtfE_3.mp4	0.0	89.251305103302	0.10004496574401855
12	30.657822132110596	fix_pre	0		25.0	10.0	2.5	/experiments/knapen_aot/videos/R_S_yt-3R23XwTXpKs_238.mp4	0.0	89.35135006904602	0.20824599266052246
12	30.857900142669678	response	0	2		10.0	2.5	/experiments/knapen_aot/videos/R_S_yt-3R23XwTXpKs_238.mp4	0.0	89.5514280796051	
12	30.866068124771118	movie	1		301.0	10.0	2.5	/experiments/knapen_aot/videos/R_S_yt-3R23XwTXpKs_238.mp4	0.0	89.55959606170654	2.5084049701690674
12	33.374473094940186	fix_post	2		12.0	10.0	2.5	/experiments/knapen_aot/videos/R_S_yt-3R23XwTXpKs_238.mp4	0.0	92.06800103187561	0.0999288558959961
13	33.47440195083618	fix_pre	0		24.0	11.0	2.5	/experiments/knapen_aot/videos/S_Pexels_Videos_278654_1.mp4	0.0	92.1679298877716	0.2010509967803955
13	33.66624999046326	response	0	2		11.0	2.5	/experiments/knapen_aot/videos/S_Pexels_Videos_278654_1.mp4	0.0	92.35977792739868	
13	33.67545294761658	movie	1		166.0	11.0	2.5	/experiments/knapen_aot/videos/S_Pexels_Videos_278654_1.mp4	0.0	92.368980884552	2.5073940753936768
13	36.182847023010254	fix_post	2		12.0	11.0	2.5	/experiments/knapen_aot/videos/S_Pexels_Videos_278654_1.mp4	0.0	94.87637495994568	0.0999290943145752
14	36.28277611732483	fix_pre	0		27.0	12.0	2.5	/experiments/knapen_aot/videos/R_S_pexels-c-technical-6754008.mp4	0.0	94.97630405426025	0.2259809970855713
14	36.499480962753296	response	0	2		12.0	2.5	/experiments/knapen_aot/videos/R_S_pexels-c-technical-6754008.mp4	0.0	95.19300889968872	
14	36.5087571144104	movie	1		203.0	12.0	2.5	/experiments/knapen_aot/videos/R_S_pexels-c-technical-6754008.mp4	0.0	95.20228505134583	2.5073330402374268
14	39.01609015464783	fix_post	2		12.0	12.0	2.5	/experiments/knapen_aot/videos/R_S_pexels-c-technical-6754008.mp4	0.0	97.70961809158325	0.09998583793640137
15	39.11607599258423	fix_pre	0		33.0	13.0	2.5	/experiments/knapen_aot/videos/R_S_8amznWxLS04_212.mp4	0.0	97.80960392951965	0.2750580310821533
15	39.38290095329285	response	0	2		13.0	2.5	/experiments/knapen_aot/videos/R_S_8amznWxLS04_212.mp4	0.0	98.07642889022827	
15	39.39113402366638	movie	1		301.0	13.0	2.5	/experiments/knapen_aot/videos/R_S_8amznWxLS04_212.mp4	0.0	98.0846619606018	2.5085151195526123
15	41.899649143218994	fix_post	2		12.0	13.0	2.5	/experiments/knapen_aot/videos/R_S_8amznWxLS04_212.mp4	0.0	100.59317708015442	0.099700927734375
16	41.99935007095337	fix_pre	0		21.0	14.0	2.5	blank	1.0	100.6928780078888	0.17507004737854004
16	42.16617798805237	response	0	2		14.0	2.5	blank	1.0	100.8597059249878	
16	42.17442011833191	movie	1		301.0	14.0	2.5	blank	1.0	100.86794805526733	2.5083160400390625
16	44.68273615837097	fix_post	2		12.0	14.0	2.5	blank	1.0	103.3762640953064	0.09993791580200195
17	44.782674074172974	fix_pre	0		40.0	15.0	2.5	/experiments/knapen_aot/videos/S_yt-UKrWbJEs7pw_74.mp4	0.0	103.4762020111084	0.33338093757629395
17	45.10803008079529	response	0	2		15.0	2.5	/experiments/knapen_aot/videos/S_yt-UKrWbJEs7pw_74.mp4	0.0	103.80155801773071	
17	45.11605501174927	movie	1		301.0	15.0	2.5	/experiments/knapen_aot/videos/S_yt-UKrWbJEs7pw_74.mp4	0.0	103.80958294868469	2.5083370208740234
17	47.62439203262329	fix_post	2		12.0	15.0	2.5	/experiments/knapen_aot/videos/S_yt-UKrWbJEs7pw_74.mp4	0.0	106.31791996955872	0.1000211238861084
18	47.7244131565094	fix_pre	0		32.0	16.0	2.5	/experiments/knapen_aot/videos/R_S_yt-ycfVJyrFgB4_15.mp4	0.0	106.41794109344482	0.266542911529541
18	47.982869148254395	response	0	2		16.0	2.5	/experiments/knapen_aot/videos/R_S_yt-ycfVJyrFgB4_15.mp4	0.0	106.67639708518982	
18	47.99095606803894	movie	1		301.0	16.0	2.5	/experiments/knapen_aot/videos/R_S_yt-ycfVJyrFgB4_15.mp4	0.0	106.68448400497437	2.5084149837493896
18	50.49937105178833	fix_post	2		12.0	16.0	2.5	/experiments/knapen_aot/videos/R_S_yt-ycfVJyrFgB4_15.mp4	0.0	109.19289898872375	0.09998202323913574
19	50.599353075027466	fix_pre	0		32.0	17.0	2.5	/experiments/knapen_aot/videos/S_yt-BAwvfRmE1LU_79.mp4	0.0	109.29288101196289	0.2666909694671631
19	50.857852935791016	response	0	2		17.0	2.5	/experiments/knapen_aot/videos/S_yt-BAwvfRmE1LU_79.mp4	0.0	109.55138087272644	
19	50.86604404449463	movie	1		301.0	17.0	2.5	/experiments/knapen_aot/videos/S_yt-BAwvfRmE1LU_79.mp4	0.0	109.55957198143005	2.508481025695801
19	53.37452507019043	fix_post	2		12.0	17.0	2.5	/experiments/knapen_aot/videos/S_yt-BAwvfRmE1LU_79.mp4	0.0	112.06805300712585	0.09996891021728516
20	53.474493980407715	fix_pre	0		36.0	18.0	2.5	/experiments/knapen_aot/videos/R_S_yt-cBCeq1NQgj0_1129.mp4	0.0	112.16802191734314	0.29984211921691895
20	53.76612401008606	response	0	2		18.0	2.5	/experiments/knapen_aot/videos/R_S_yt-cBCeq1NQgj0_1129.mp4	0.0	112.45965194702148	
20	53.774336099624634	movie	1		301.0	18.0	2.5	/experiments/knapen_aot/videos/R_S_yt-cBCeq1NQgj0_1129.mp4	0.0	112.46786403656006	2.5083699226379395
20	56.28270602226257	fix_post	2		12.0	18.0	2.5	/experiments/knapen_aot/videos/R_S_yt-cBCeq1NQgj0_1129.mp4	0.0	114.976233959198	0.10000395774841309
21	56.382709980010986	fix_pre	0		33.0	19.0	2.5	/experiments/knapen_aot/videos/S_yt-r7brAHgxZSU_248.mp4	0.0	115.07623791694641	0.2749490737915039
21	56.64951205253601	response	0	2		19.0	2.5	/experiments/knapen_aot/videos/S_yt-r7brAHgxZSU_248.mp4	0.0	115.34303998947144	
21	56.65765905380249	movie	1		301.0	19.0	2.5	/experiments/knapen_aot/videos/S_yt-r7brAHgxZSU_248.mp4	0.0	115.35118699073792	2.508481025695801
21	59.16614007949829	fix_post	2		12.0	19.0	2.5	/experiments/knapen_aot/videos/S_yt-r7brAHgxZSU_248.mp4	0.0	117.85966801643372	0.0999910831451416
22	59.26613116264343	fix_pre	0		24.0	20.0	2.5	blank	1.0	117.95965909957886	0.20075488090515137
22	59.45783710479736	response	0	2		20.0	2.5	blank	1.0	118.15136504173279	
22	59.466886043548584	movie	1		301.0	20.0	2.5	blank	1.0	118.16041398048401	2.5073940753936768
22	61.97428011894226	fix_post	2		12.0	20.0	2.5	blank	1.0	120.66780805587769	0.10003399848937988
23	62.07431411743164	fix_pre	0		45.0	21.0	2.5	/experiments/knapen_aot/videos/S_Pexels_Videos_2795731_1.mp4	0.0	120.76784205436707	0.3749198913574219
23	62.44111514091492	response	0	2		21.0	2.5	/experiments/knapen_aot/videos/S_Pexels_Videos_2795731_1.mp4	0.0	121.13464307785034	
23	62.44923400878906	movie	1		167.0	21.0	2.5	/experiments/knapen_aot/videos/S_Pexels_Videos_2795731_1.mp4	0.0	121.14276194572449	2.5085151195526123
23	64.95774912834167	fix_post	2		12.0	21.0	2.5	/experiments/knapen_aot/videos/S_Pexels_Videos_2795731_1.mp4	0.0	123.6512770652771	0.09987688064575195
24	65.05762600898743	fix_pre	0		28.0	22.0	2.5	/experiments/knapen_aot/videos/R_S_yt-LYnwnfi1JJ4_120.mp4	0.0	123.75115394592285	0.23329710960388184
24	65.28271102905273	response	0	2		22.0	2.5	/experiments/knapen_aot/videos/R_S_yt-LYnwnfi1JJ4_120.mp4	0.0	123.97623896598816	
24	65.29092311859131	movie	1		301.0	22.0	2.5	/experiments/knapen_aot/videos/R_S_yt-LYnwnfi1JJ4_120.mp4	0.0	123.98445105552673	2.5084190368652344
24	67.79934215545654	fix_post	2		12.0	22.0	2.5	/experiments/knapen_aot/videos/R_S_yt-LYnwnfi1JJ4_120.mp4	0.0	126.49287009239197	0.09999489784240723
25	67.89933705329895	fix_pre	0		24.0	23.0	2.5	/experiments/knapen_aot/videos/R_S_pexels-c-technical-6753390_2.mp4	0.0	126.59286499023438	0.1999669075012207
25	68.09103798866272	response	0	2		23.0	2.5	/experiments/knapen_aot/videos/R_S_pexels-c-technical-6753390_2.mp4	0.0	126.78456592559814	
25	68.09930396080017	movie	1		205.0	23.0	2.5	/experiments/knapen_aot/videos/R_S_pexels-c-technical-6753390_2.mp4	0.0	126.7928318977356	2.508273124694824
25	70.607577085495	fix_post	2		12.0	23.0	2.5	/experiments/knapen_aot/videos/R_S_pexels-c-technical-6753390_2.mp4	0.0	129.30110502243042	0.10005903244018555
26	70.70763611793518	fix_pre	0		30.0	24.0	2.5	/experiments/knapen_aot/videos/S_yt-Ek1jcvett9E_33.mp4	0.0	129.4011640548706	0.24993395805358887
26	70.94190096855164	response	0	2		24.0	2.5	/experiments/knapen_aot/videos/S_yt-Ek1jcvett9E_33.mp4	0.0	129.63542890548706	
26	70.95757007598877	movie	1		301.0	24.0	2.5	/experiments/knapen_aot/videos/S_yt-Ek1jcvett9E_33.mp4	0.0	129.6510980129242	2.508312940597534
26	73.4658830165863	fix_post	2		12.0	24.0	2.5	/experiments/knapen_aot/videos/S_yt-Ek1jcvett9E_33.mp4	0.0	132.15941095352173	0.10007095336914062
27	73.56595396995544	fix_pre	0		24.0	25.0	2.5	/experiments/knapen_aot/videos/R_S_yt-3R23XwTXpKs_238.mp4	0.0	132.25948190689087	0.1999831199645996
27	73.75768709182739	response	0	2		25.0	2.5	/experiments/knapen_aot/videos/R_S_yt-3R23XwTXpKs_238.mp4	0.0	132.45121502876282	
27	73.76593708992004	movie	1		301.0	25.0	2.5	/experiments/knapen_aot/videos/R_S_yt-3R23XwTXpKs_238.mp4	0.0	132.45946502685547	2.5083210468292236
27	76.27425813674927	fix_post	2		12.0	25.0	2.5	/experiments/knapen_aot/videos/R_S_yt-3R23XwTXpKs_238.mp4	0.0	134.9677860736847	0.1000359058380127
28	76.37429404258728	fix_pre	0		20.0	26.0	2.5	blank	1.0	135.0678219795227	0.16659998893737793
28	76.53269600868225	response	0	2		26.0	2.5	blank	1.0	135.22622394561768	
28	76.54089403152466	movie	1		301.0	26.0	2.5	blank	1.0	135.23442196846008	2.508352041244507
28	79.04924607276917	fix_post	2		12.0	26.0	2.5	blank	1.0	137.7427740097046	0.10004997253417969
29	79.14929604530334	fix_pre	0		48.0	27.0	2.5	/experiments/knapen_aot/videos/R_S_-vPHq-7BJ70_15.mp4	0.0	137.84282398223877	0.4006960391998291
29	79.54108810424805	response	0	2		27.0	2.5	/experiments/knapen_aot/videos/R_S_-vPHq-7BJ70_15.mp4	0.0	138.23461604118347	
29	79.54999208450317	movie	1		301.0	27.0	2.5	/experiments/knapen_aot/videos/R_S_-vPHq-7BJ70_15.mp4	0.0	138.2435200214386	2.507528066635132
29	82.0575201511383	fix_post	2		12.0	27.0	2.5	/experiments/knapen_aot/videos/R_S_-vPHq-7BJ70_15.mp4	0.0	140.75104808807373	0.10006189346313477
30	82.15758204460144	fix_pre	0		29.0	28.0	2.5	/experiments/knapen_aot/videos/S_yt-Gc1p5CnDbDY_22.mp4	0.0	140.85110998153687	0.24166488647460938
30	82.39100098609924	response	0	2		28.0	2.5	/experiments/knapen_aot/videos/S_yt-Gc1p5CnDbDY_22.mp4	0.0	141.08452892303467	
30	82.39924693107605	movie	1		300.0	28.0	2.5	/experiments/knapen_aot/videos/S_yt-Gc1p5CnDbDY_22.mp4	0.0	141.09277486801147	2.508357048034668
30	84.90760397911072	fix_post	2		12.0	28.0	2.5	/experiments/knapen_aot/videos/S_yt-Gc1p5CnDbDY_22.mp4	0.0	143.60113191604614	0.09999608993530273
31	85.00760006904602	fix_pre	0		31.0	29.0	2.5	/experiments/knapen_aot/videos/S_yt-mI9voWol7cE_104.mp4	0.0	143.70112800598145	0.2583179473876953
31	85.25767612457275	response	0	2		29.0	2.5	/experiments/knapen_aot/videos/S_yt-mI9voWol7cE_104.mp4	0.0	143.95120406150818	
31	85.26591801643372	movie	1		301.0	29.0	2.5	/experiments/knapen_aot/videos/S_yt-mI9voWol7cE_104.mp4	0.0	143.95944595336914	2.5083820819854736
31	87.77430009841919	fix_post	2		12.0	29.0	2.5	/experiments/knapen_aot/videos/S_yt-mI9voWol7cE_104.mp4	0.0	146.46782803535461	0.09998703002929688
32	87.87428712844849	fix_pre	0		51.0	30.0	2.5	/experiments/knapen_aot/videos/R_S_yt-mI9voWol7cE_104.mp4	0.0	146.5678150653839	0.4256880283355713
32	88.28342413902283	response	0	2		30.0	2.5	/experiments/knapen_aot/videos/R_S_yt-mI9voWol7cE_104.mp4	0.0	146.97695207595825	
32	88.29997515678406	movie	1		301.0	30.0	2.5	/experiments/knapen_aot/videos/R_S_yt-mI9voWol7cE_104.mp4	0.0	146.99350309371948	2.5076208114624023
32	90.80759596824646	fix_post	2		12.0	30.0	2.5	/experiments/knapen_aot/videos/R_S_yt-mI9voWol7cE_104.mp4	0.0	149.50112390518188	0.09999299049377441
33	90.90758895874023	fix_pre	0		45.0	31.0	2.5	/experiments/knapen_aot/videos/R_S_ahJft-G235A_122.mp4	0.0	149.60111689567566	0.3749392032623291
33	91.2743730545044	response	0	2		31.0	2.5	/experiments/knapen_aot/videos/R_S_ahJft-G235A_122.mp4	0.0	149.96790099143982	
33	91.28252816200256	movie	1		301.0	31.0	2.5	/experiments/knapen_aot/videos/R_S_ahJft-G235A_122.mp4	0.0	149.976056098938	2.508309841156006
33	93.79083800315857	fix_post	2		12.0	31.0	2.5	/experiments/knapen_aot/videos/R_S_ahJft-G235A_122.mp4	0.0	152.484365940094	0.10002613067626953
34	93.89086413383484	fix_pre	0		25.0	32.0	2.5	/experiments/knapen_aot/videos/S_ILSVRC2015_train_00165009.mp4	0.0	152.58439207077026	0.20831990242004395
34	94.09092712402344	response	0	2		32.0	2.5	/experiments/knapen_aot/videos/S_ILSVRC2015_train_00165009.mp4	0.0	152.78445506095886	
34	94.09918403625488	movie	1		301.0	32.0	2.5	/experiments/knapen_aot/videos/S_ILSVRC2015_train_00165009.mp4	0.0	152.7927119731903	2.508409023284912
34	96.6075930595398	fix_post	2		12.0	32.0	2.5	/experiments/knapen_aot/videos/S_ILSVRC2015_train_00165009.mp4	0.0	155.30112099647522	0.09984707832336426
35	96.70744013786316	fix_pre	0		33.0	33.0	2.5	/experiments/knapen_aot/videos/S_yt-GWOOQZ19-oU_331.mp4	0.0	155.40096807479858	0.2750389575958252
35	96.97424912452698	response	0	2		33.0	2.5	/experiments/knapen_aot/videos/S_yt-GWOOQZ19-oU_331.mp4	0.0	155.6677770614624	
35	96.98247909545898	movie	1		301.0	33.0	2.5	/experiments/knapen_aot/videos/S_yt-GWOOQZ19-oU_331.mp4	0.0	155.6760070323944	2.508615016937256
35	99.49109411239624	fix_post	2		12.0	33.0	2.5	/experiments/knapen_aot/videos/S_yt-GWOOQZ19-oU_331.mp4	0.0	158.18462204933167	0.09981799125671387
36	99.59091210365295	fix_pre	0		45.0	34.0	2.5	blank	1.0	158.28444004058838	0.3755679130554199
36	99.95767498016357	response	0	2		34.0	2.5	blank	1.0	158.651202917099	
36	99.96648001670837	movie	1		301.0	34.0	2.5	blank	1.0	158.6600079536438	2.507714033126831
36	102.4741940498352	fix_post	2		12.0	34.0	2.5	blank	1.0	161.16772198677063	0.09999704360961914
37	102.57419109344482	fix_pre	0		39.0	35.0	2.5	/experiments/knapen_aot/videos/R_S_b8-3.mp4	0.0	161.26771903038025	0.3249800205230713
37	102.89103603363037	response	0	2		35.0	2.5	/experiments/knapen_aot/videos/R_S_b8-3.mp4	0.0	161.5845639705658	
37	102.8991711139679	movie	1		172.0	35.0	2.5	/experiments/knapen_aot/videos/R_S_b8-3.mp4	0.0	161.59269905090332	2.50832200050354
37	105.40749311447144	fix_post	2		12.0	35.0	2.5	/experiments/knapen_aot/videos/R_S_b8-3.mp4	0.0	164.10102105140686	0.09999895095825195
38	105.50749206542969	fix_pre	0		36.0	36.0	2.5	/experiments/knapen_aot/videos/R_S_production_ID_3712945.mp4	0.0	164.2010200023651	0.3000469207763672
38	105.7992250919342	response	0	2		36.0	2.5	/experiments/knapen_aot/videos/R_S_production_ID_3712945.mp4	0.0	164.49275302886963	
38	105.80753898620605	movie	1		190.0	36.0	2.5	/experiments/knapen_aot/videos/R_S_production_ID_3712945.mp4	0.0	164.50106692314148	2.508254051208496
38	108.31579303741455	fix_post	2		12.0	36.0	2.5	/experiments/knapen_aot/videos/R_S_production_ID_3712945.mp4	0.0	167.00932097434998	0.09999799728393555
39	108.41579103469849	fix_pre	0		47.0	37.0	2.5	/experiments/knapen_aot/videos/R_S_ILSVRC2015_test_00001002.mp4	0.0	167.1093189716339	0.3916149139404297
39	108.79928493499756	response	0	2		37.0	2.5	/experiments/knapen_aot/videos/R_S_ILSVRC2015_test_00001002.mp4	0.0	167.49281287193298	
39	108.80740594863892	movie	1		301.0	37.0	2.5	/experiments/knapen_aot/videos/R_S_ILSVRC2015_test_00001002.mp4	0.0	167.50093388557434	2.5083730220794678
39	111.31577897071838	fix_post	2		12.0	37.0	2.5	/experiments/knapen_aot/videos/R_S_ILSVRC2015_test_00001002.mp4	0.0	170.0093069076538	0.1000511646270752
40	111.41583013534546	fix_pre	0		45.0	38.0	2.5	/experiments/knapen_aot/videos/R_S_yt-1V0KJEc4cJ4_203.mp4	0.0	170.10935807228088	0.3749840259552002
40	111.7826681137085	response	0	2		38.0	2.5	/experiments/knapen_aot/videos/R_S_yt-1V0KJEc4cJ4_203.mp4	0.0	170.47619605064392	
40	111.79081416130066	movie	1		301.0	38.0	2.5	/experiments/knapen_aot/videos/R_S_yt-1V0KJEc4cJ4_203.mp4	0.0	170.48434209823608	2.5082969665527344
40	114.2991111278534	fix_post	2		12.0	38.0	2.5	/experiments/knapen_aot/videos/R_S_yt-1V0KJEc4cJ4_203.mp4	0.0	172.99263906478882	0.09997797012329102
41	114.39908909797668	fix_pre	0		28.0	39.0	2.5	/experiments/knapen_aot/videos/S_-vPHq-7BJ70_15.mp4	0.0	173.0926170349121	0.23388290405273438
41	114.62423205375671	response	0	2		39.0	2.5	/experiments/knapen_aot/videos/S_-vPHq-7BJ70_15.mp4	0.0	173.31775999069214	
41	114.63297200202942	movie	1		301.0	39.0	2.5	/experiments/knapen_aot/videos/S_-vPHq-7BJ70_15.mp4	0.0	173.32649993896484	2.5078210830688477
41	117.14079308509827	fix_post	2		12.0	39.0	2.5	/experiments/knapen_aot/videos/S_-vPHq-7BJ70_15.mp4	0.0	175.8343210220337	0.0999898910522461
42	117.24078297615051	fix_pre	0		40.0	40.0	2.5	/experiments/knapen_aot/videos/R_S_b8-3.mp4	0.0	175.93431091308594	0.33319616317749023
42	117.56590604782104	response	0	2		40.0	2.5	/experiments/knapen_aot/videos/R_S_b8-3.mp4	0.0	176.25943398475647	
42	117.573979139328	movie	1		171.0	40.0	2.5	/experiments/knapen_aot/videos/R_S_b8-3.mp4	0.0	176.26750707626343	2.5085489749908447
42	120.08252811431885	fix_post	2		12.0	40.0	2.5	/experiments/knapen_aot/videos/R_S_b8-3.mp4	0.0	178.77605605125427	0.09988689422607422
43	120.18241500854492	fix_pre	0		44.0	41.0	2.5	/experiments/knapen_aot/videos/R_S_4_D1iUb87uE_15.mp4	0.0	178.87594294548035	0.3671591281890869
43	120.54083204269409	response	0	2		41.0	2.5	/experiments/knapen_aot/videos/R_S_4_D1iUb87uE_15.mp4	0.0	179.23435997962952	
43	120.54957413673401	movie	1		301.0	41.0	2.5	/experiments/knapen_aot/videos/R_S_4_D1iUb87uE_15.mp4	0.0	179.24310207366943	2.507769823074341
43	123.05734395980835	fix_post	2		12.0	41.0	2.5	/experiments/knapen_aot/videos/R_S_4_D1iUb87uE_15.mp4	0.0	181.75087189674377	0.1000661849975586
44	123.15741014480591	fix_pre	0		47.0	42.0	2.5	blank	1.0	181.85093808174133	0.3921799659729004
44	123.54085302352905	response	0	2		42.0	2.5	blank	1.0	182.23438096046448	
44	123.54959011077881	movie	1		301.0	42.0	2.5	blank	1.0	182.24311804771423	2.507786989212036
44	126.05737709999084	fix_post	2		12.0	42.0	2.5	blank	1.0	184.75090503692627	0.10004901885986328
45	126.15742611885071	fix_pre	0		90.0	43.0	2.5	/experiments/knapen_aot/videos/S_flickr-lamujuri-10653517683_4.mp4	0.0	184.85095405578613	0.7499549388885498
45	126.89915299415588	response	0	2		43.0	2.5	/experiments/knapen_aot/videos/S_flickr-lamujuri-10653517683_4.mp4	0.0	185.5926809310913	
45	126.90738105773926	movie	1		171.0	43.0	2.5	/experiments/knapen_aot/videos/S_flickr-lamujuri-10653517683_4.mp4	0.0	185.60090899467468	2.508419990539551
45	129.4158010482788	fix_post	2		12.0	43.0	2.5	/experiments/knapen_aot/videos/S_flickr-lamujuri-10653517683_4.mp4	0.0	188.10932898521423	0.10000109672546387
46	129.51580214500427	fix_pre	0		21.0	44.0	2.5	/experiments/knapen_aot/videos/S_yt-tfHCqgH1guY_235.mp4	0.0	188.2093300819397	0.17491888999938965
46	129.68255996704102	response	0	2		44.0	2.5	/experiments/knapen_aot/videos/S_yt-tfHCqgH1guY_235.mp4	0.0	188.37608790397644	
46	129.69072103500366	movie	1		301.0	44.0	2.5	/experiments/knapen_aot/videos/S_yt-tfHCqgH1guY_235.mp4	0.0	188.3842489719391	2.5083370208740234
46	132.19905805587769	fix_post	2		12.0	44.0	2.5	/experiments/knapen_aot/videos/S_yt-tfHCqgH1guY_235.mp4	0.0	190.8925859928131	0.10055899620056152
47	132.29961705207825	fix_pre	0		31.0	45.0	2.5	/experiments/knapen_aot/videos/R_S_yt-1sn8u-rQRas_7.mp4	0.0	190.99314498901367	0.25774502754211426
47	132.54913115501404	response	0	2		45.0	2.5	/experiments/knapen_aot/videos/R_S_yt-1sn8u-rQRas_7.mp4	0.0	191.24265909194946	
47	132.55736207962036	movie	1		301.0	45.0	2.5	/experiments/knapen_aot/videos/R_S_yt-1sn8u-rQRas_7.mp4	0.0	191.2508900165558	2.5083439350128174
47	135.06570601463318	fix_post	2		12.0	45.0	2.5	/experiments/knapen_aot/videos/R_S_yt-1sn8u-rQRas_7.mp4	0.0	193.7592339515686	0.10000991821289062
48	135.16571593284607	fix_pre	0		31.0	46.0	2.5	/experiments/knapen_aot/videos/S_yt-s2PWkCdT-TM_258.mp4	0.0	193.8592438697815	0.2588810920715332
48	135.41583395004272	response	0	2		46.0	2.5	/experiments/knapen_aot/videos/S_yt-s2PWkCdT-TM_258.mp4	0.0	194.10936188697815	
48	135.4245970249176	movie	1		301.0	46.0	2.5	/experiments/knapen_aot/videos/S_yt-s2PWkCdT-TM_258.mp4	0.0	194.11812496185303	2.507779121398926
48	137.93237614631653	fix_post	2		12.0	46.0	2.5	/experiments/knapen_aot/videos/S_yt-s2PWkCdT-TM_258.mp4	0.0	196.62590408325195	0.09999299049377441
49	138.0323691368103	fix_pre	0		28.0	47.0	2.5	/experiments/knapen_aot/videos/R_S_BO_A014_C023_SDR_20190717_F240F3709_SDR_2K_AVC.mp4	0.0	196.72589707374573	0.23327183723449707
49	138.25748705863953	response	0	2		47.0	2.5	/experiments/knapen_aot/videos/R_S_BO_A014_C023_SDR_20190717_F240F3709_SDR_2K_AVC.mp4	0.0	196.95101499557495	
49	138.2656409740448	movie	1		168.0	47.0	2.5	/experiments/knapen_aot/videos/R_S_BO_A014_C023_SDR_20190717_F240F3709_SDR_2K_AVC.mp4	0.0	196.95916891098022	2.5083980560302734
49	140.77403903007507	fix_post	2		12.0	47.0	2.5	/experiments/knapen_aot/videos/R_S_BO_A014_C023_SDR_20190717_F240F3709_SDR_2K_AVC.mp4	0.0	199.4675669670105	0.09999704360961914
50	140.8740360736847	fix_pre	0		28.0	48.0	2.5	/experiments/knapen_aot/videos/S_yt-B7ZRYVhfW2U_52.mp4	0.0	199.56756401062012	0.23326396942138672
50	141.09915494918823	response	0	2		48.0	2.5	/experiments/knapen_aot/videos/S_yt-B7ZRYVhfW2U_52.mp4	0.0	199.79268288612366	
50	141.10730004310608	movie	1		301.0	48.0	2.5	/experiments/knapen_aot/videos/S_yt-B7ZRYVhfW2U_52.mp4	0.0	199.8008279800415	2.5083680152893066
50	143.61566805839539	fix_post	2		12.0	48.0	2.5	/experiments/knapen_aot/videos/S_yt-B7ZRYVhfW2U_52.mp4	0.0	202.3091959953308	0.10053300857543945
51	143.71620106697083	fix_pre	0		36.0	49.0	2.5	blank	1.0	202.40972900390625	0.29945993423461914
51	144.00743198394775	response	0	2		49.0	2.5	blank	1.0	202.70095992088318	
51	144.01566100120544	movie	1		301.0	49.0	2.5	blank	1.0	202.70918893814087	2.5083749294281006
51	146.52403593063354	fix_post	2		12.0	49.0	2.5	blank	1.0	205.21756386756897	0.10015606880187988
52	146.62419199943542	fix_pre	0		44.0	50.0	2.5	/experiments/knapen_aot/videos/S_yt-C0INfEJ4Awk_53.mp4	0.0	205.31771993637085	0.36647701263427734
52	146.982586145401	response	0	2		50.0	2.5	/experiments/knapen_aot/videos/S_yt-C0INfEJ4Awk_53.mp4	0.0	205.67611408233643	
52	146.9906690120697	movie	1		301.0	50.0	2.5	/experiments/knapen_aot/videos/S_yt-C0INfEJ4Awk_53.mp4	0.0	205.68419694900513	2.508366107940674
52	149.49903512001038	fix_post	2		12.0	50.0	2.5	/experiments/knapen_aot/videos/S_yt-C0INfEJ4Awk_53.mp4	0.0	208.1925630569458	0.09995484352111816
53	149.5989899635315	fix_pre	0		36.0	51.0	2.5	/experiments/knapen_aot/videos/R_S_ILSVRC2015_train_00756000.mp4	0.0	208.29251790046692	0.2999701499938965
53	149.89074301719666	response	0	2		51.0	2.5	/experiments/knapen_aot/videos/R_S_ILSVRC2015_train_00756000.mp4	0.0	208.58427095413208	
53	149.8989601135254	movie	1		301.0	51.0	2.5	/experiments/knapen_aot/videos/R_S_ILSVRC2015_train_00756000.mp4	0.0	208.59248805046082	2.508342981338501
53	152.4073030948639	fix_post	2		12.0	51.0	2.5	/experiments/knapen_aot/videos/R_S_ILSVRC2015_train_00756000.mp4	0.0	211.10083103179932	0.0999898910522461
54	152.50729298591614	fix_pre	0		42.0	52.0	2.5	/experiments/knapen_aot/videos/S_yt-cokedWwwYYs_136.mp4	0.0	211.20082092285156	0.3499910831451416
54	152.84917211532593	response	0	2		52.0	2.5	/experiments/knapen_aot/videos/S_yt-cokedWwwYYs_136.mp4	0.0	211.54270005226135	
54	152.85728406906128	movie	1		301.0	52.0	2.5	/experiments/knapen_aot/videos/S_yt-cokedWwwYYs_136.mp4	0.0	211.5508120059967	2.5083839893341064
54	155.36566805839539	fix_post	2		12.0	52.0	2.5	/experiments/knapen_aot/videos/S_yt-cokedWwwYYs_136.mp4	0.0	214.0591959953308	0.1003730297088623
55	155.46604108810425	fix_pre	0		23.0	53.0	2.5	/experiments/knapen_aot/videos/S_yt-IXMtF998XFY_547.mp4	0.0	214.15956902503967	0.19119906425476074
55	155.6491060256958	response	0	2		53.0	2.5	/experiments/knapen_aot/videos/S_yt-IXMtF998XFY_547.mp4	0.0	214.34263396263123	
55	155.657240152359	movie	1		301.0	53.0	2.5	/experiments/knapen_aot/videos/S_yt-IXMtF998XFY_547.mp4	0.0	214.35076808929443	2.5083558559417725
55	158.16559600830078	fix_post	2		12.0	53.0	2.5	/experiments/knapen_aot/videos/S_yt-IXMtF998XFY_547.mp4	0.0	216.8591239452362	0.10003805160522461
56	158.265634059906	fix_pre	0		42.0	54.0	2.5	/experiments/knapen_aot/videos/S_yt-mdxs8FCKLFc_232.mp4	0.0	216.95916199684143	0.35004091262817383
56	158.60738706588745	response	0	2		54.0	2.5	/experiments/knapen_aot/videos/S_yt-mdxs8FCKLFc_232.mp4	0.0	217.30091500282288	
56	158.61567497253418	movie	1		301.0	54.0	2.5	/experiments/knapen_aot/videos/S_yt-mdxs8FCKLFc_232.mp4	0.0	217.3092029094696	2.5082461833953857
56	161.12392115592957	fix_post	2		12.0	54.0	2.5	/experiments/knapen_aot/videos/S_yt-mdxs8FCKLFc_232.mp4	0.0	219.817449092865	0.10013294219970703
57	161.22405409812927	fix_pre	0		41.0	55.0	2.5	blank	1.0	219.9175820350647	0.3415679931640625
57	161.55723094940186	response	0	2		55.0	2.5	blank	1.0	220.25075888633728	
57	161.56562209129333	movie	1		301.0	55.0	2.5	blank	1.0	220.25915002822876	2.5082859992980957
57	164.07390809059143	fix_post	2		12.0	55.0	2.5	blank	1.0	222.76743602752686	0.10002493858337402
58	164.1739330291748	fix_pre	0		34.0	56.0	2.5	/experiments/knapen_aot/videos/R_S_pexels-koolshooters-7691440.mp4	0.0	222.86746096611023	0.283297061920166
58	164.44905805587769	response	0	2		56.0	2.5	/experiments/knapen_aot/videos/R_S_pexels-koolshooters-7691440.mp4	0.0	223.1425859928131	
58	164.45723009109497	movie	1		166.0	56.0	2.5	/experiments/knapen_aot/videos/R_S_pexels-koolshooters-7691440.mp4	0.0	223.1507580280304	2.5083508491516113
58	166.96558094024658	fix_post	2		12.0	56.0	2.5	/experiments/knapen_aot/videos/R_S_pexels-koolshooters-7691440.mp4	0.0	225.659108877182	0.10001802444458008
58	167.03226613998413	response	2	2		56.0	2.5	/experiments/knapen_aot/videos/R_S_pexels-koolshooters-7691440.mp4	0.0	225.72579407691956	
59	167.06559896469116	fix_pre	0		127.0	57.0	2.5	/experiments/knapen_aot/videos/R_S_ILSVRC2015_train_00165009.mp4	0.0	225.7591269016266	1.0582060813903809
59	168.1156439781189	response	0	2		57.0	2.5	/experiments/knapen_aot/videos/R_S_ILSVRC2015_train_00165009.mp4	0.0	226.80917191505432	
59	168.12380504608154	movie	1		301.0	57.0	2.5	/experiments/knapen_aot/videos/R_S_ILSVRC2015_train_00165009.mp4	0.0	226.81733298301697	2.5085949897766113
59	170.63240003585815	fix_post	2		12.0	57.0	2.5	/experiments/knapen_aot/videos/R_S_ILSVRC2015_train_00165009.mp4	0.0	229.32592797279358	0.09999895095825195
60	170.7323989868164	fix_pre	0		50.0	58.0	2.5	/experiments/knapen_aot/videos/R_S_yt-UKrWbJEs7pw_74.mp4	0.0	229.42592692375183	0.41636109352111816
60	171.1406569480896	response	0	2		58.0	2.5	/experiments/knapen_aot/videos/R_S_yt-UKrWbJEs7pw_74.mp4	0.0	229.83418488502502	
60	171.14876008033752	movie	1		301.0	58.0	2.5	/experiments/knapen_aot/videos/R_S_yt-UKrWbJEs7pw_74.mp4	0.0	229.84228801727295	2.508418083190918
60	173.65717816352844	fix_post	2		12.0	58.0	2.5	/experiments/knapen_aot/videos/R_S_yt-UKrWbJEs7pw_74.mp4	0.0	232.35070610046387	0.10034298896789551
61	173.75752115249634	fix_pre	0		34.0	59.0	2.5	/experiments/knapen_aot/videos/S_yt-a9bnYU0Gnxg_59.mp4	0.0	232.45104908943176	0.2829759120941162
61	174.03228902816772	response	0	2		59.0	2.5	/experiments/knapen_aot/videos/S_yt-a9bnYU0Gnxg_59.mp4	0.0	232.72581696510315	
61	174.04049706459045	movie	1		301.0	59.0	2.5	/experiments/knapen_aot/videos/S_yt-a9bnYU0Gnxg_59.mp4	0.0	232.73402500152588	2.5083279609680176
61	176.54882502555847	fix_post	2		12.0	59.0	2.5	/experiments/knapen_aot/videos/S_yt-a9bnYU0Gnxg_59.mp4	0.0	235.2423529624939	0.10011506080627441
62	176.64894008636475	fix_pre	0		31.0	60.0	2.5	/experiments/knapen_aot/videos/R_S_yt-2IxVZeiSv3g_28.mp4	0.0	235.34246802330017	0.2581448554992676
62	176.8989429473877	response	0	2		60.0	2.5	/experiments/knapen_aot/videos/R_S_yt-2IxVZeiSv3g_28.mp4	0.0	235.59247088432312	
62	176.907084941864	movie	1		301.0	60.0	2.5	/experiments/knapen_aot/videos/R_S_yt-2IxVZeiSv3g_28.mp4	0.0	235.60061287879944	2.508427143096924
62	179.41551208496094	fix_post	2		12.0	60.0	2.5	/experiments/knapen_aot/videos/R_S_yt-2IxVZeiSv3g_28.mp4	0.0	238.10904002189636	0.0999760627746582
63	179.5154881477356	fix_pre	0		33.0	61.0	2.5	blank	1.0	238.20901608467102	0.27498888969421387
63	179.78230500221252	response	0	2		61.0	2.5	blank	1.0	238.47583293914795	
63	179.7904770374298	movie	1		301.0	61.0	2.5	blank	1.0	238.48400497436523	2.5083510875701904
63	182.298828125	fix_post	2		12.0	61.0	2.5	blank	1.0	240.99235606193542	0.10009884834289551
64	182.3989269733429	fix_pre	0		47.0	62.0	2.5	/experiments/knapen_aot/videos/R_S_comp_GL_G002_C002_PSNK_v03_SDR_PS_20180925_SDR_2K_AVC.mp4	0.0	241.09245491027832	0.3914361000061035
64	182.78224301338196	response	0	2		62.0	2.5	/experiments/knapen_aot/videos/R_S_comp_GL_G002_C002_PSNK_v03_SDR_PS_20180925_SDR_2K_AVC.mp4	0.0	241.47577095031738	
64	182.790363073349	movie	1		173.0	62.0	2.5	/experiments/knapen_aot/videos/R_S_comp_GL_G002_C002_PSNK_v03_SDR_PS_20180925_SDR_2K_AVC.mp4	0.0	241.48389101028442	2.5086519718170166
64	185.29901504516602	fix_post	2		12.0	62.0	2.5	/experiments/knapen_aot/videos/R_S_comp_GL_G002_C002_PSNK_v03_SDR_PS_20180925_SDR_2K_AVC.mp4	0.0	243.99254298210144	0.09973406791687012
65	185.39874911308289	fix_pre	0		30.0	63.0	2.5	/experiments/knapen_aot/videos/R_S_yt-TBY8F6UMnJQ_51.mp4	0.0	244.0922770500183	0.2500619888305664
65	185.6405839920044	response	0	2		63.0	2.5	/experiments/knapen_aot/videos/R_S_yt-TBY8F6UMnJQ_51.mp4	0.0	244.33411192893982	
65	185.64881110191345	movie	1		301.0	63.0	2.5	/experiments/knapen_aot/videos/R_S_yt-TBY8F6UMnJQ_51.mp4	0.0	244.34233903884888	2.50832200050354
65	188.157133102417	fix_post	2		12.0	63.0	2.5	/experiments/knapen_aot/videos/R_S_yt-TBY8F6UMnJQ_51.mp4	0.0	246.85066103935242	0.10018706321716309
66	188.25732016563416	fix_pre	0		34.0	64.0	2.5	/experiments/knapen_aot/videos/R_S_g201_CA_A016_C002_SDR_20191114_SDR_2K_AVC.mp4	0.0	246.95084810256958	0.2831268310546875
66	188.53217196464539	response	0	2		64.0	2.5	/experiments/knapen_aot/videos/R_S_g201_CA_A016_C002_SDR_20191114_SDR_2K_AVC.mp4	0.0	247.2256999015808	
66	188.54044699668884	movie	1		168.0	64.0	2.5	/experiments/knapen_aot/videos/R_S_g201_CA_A016_C002_SDR_20191114_SDR_2K_AVC.mp4	0.0	247.23397493362427	2.508578062057495
66	191.04902505874634	fix_post	2		12.0	64.0	2.5	/experiments/knapen_aot/videos/R_S_g201_CA_A016_C002_SDR_20191114_SDR_2K_AVC.mp4	0.0	249.74255299568176	0.09988808631896973
67	191.1489131450653	fix_pre	0		33.0	65.0	2.5	/experiments/knapen_aot/videos/R_S_yt-BlWfK4MkjWA_469.mp4	0.0	249.84244108200073	0.2750120162963867
67	191.41557097434998	response	0	2		65.0	2.5	/experiments/knapen_aot/videos/R_S_yt-BlWfK4MkjWA_469.mp4	0.0	250.1090989112854	
67	191.4239251613617	movie	1		301.0	65.0	2.5	/experiments/knapen_aot/videos/R_S_yt-BlWfK4MkjWA_469.mp4	0.0	250.11745309829712	2.508185863494873
67	193.93211102485657	fix_post	2		12.0	65.0	2.5	/experiments/knapen_aot/videos/R_S_yt-BlWfK4MkjWA_469.mp4	0.0	252.625638961792	0.10001492500305176
68	194.03212594985962	fix_pre	0		36.0	66.0	2.5	/experiments/knapen_aot/videos/S_dnLAfffA-kU_53.mp4	0.0	252.72565388679504	0.2999701499938965
68	194.3238821029663	response	0	2		66.0	2.5	/experiments/knapen_aot/videos/S_dnLAfffA-kU_53.mp4	0.0	253.01741003990173	
68	194.33209609985352	movie	1		301.0	66.0	2.5	/experiments/knapen_aot/videos/S_dnLAfffA-kU_53.mp4	0.0	253.02562403678894	2.5084919929504395
68	196.84058809280396	fix_post	2		12.0	66.0	2.5	/experiments/knapen_aot/videos/S_dnLAfffA-kU_53.mp4	0.0	255.53411602973938	0.09983587265014648
69	196.9404239654541	fix_pre	0		30.0	67.0	2.5	/experiments/knapen_aot/videos/S_yt-ni4JaYu7PhU_6.mp4	0.0	255.63395190238953	0.2500021457672119
69	197.18216395378113	response	0	2		67.0	2.5	/experiments/knapen_aot/videos/S_yt-ni4JaYu7PhU_6.mp4	0.0	255.87569189071655	
69	197.1904261112213	movie	1		301.0	67.0	2.5	/experiments/knapen_aot/videos/S_yt-ni4JaYu7PhU_6.mp4	0.0	255.88395404815674	2.508340835571289
69	199.6987669467926	fix_post	2		12.0	67.0	2.5	/experiments/knapen_aot/videos/S_yt-ni4JaYu7PhU_6.mp4	0.0	258.392294883728	0.10013103485107422
70	199.79889798164368	fix_pre	0		60.0	68.0	2.5	/experiments/knapen_aot/videos/S_yt-6B69qmkEdTI_1.mp4	0.0	258.4924259185791	0.4999210834503174
70	200.29057693481445	response	0	2		68.0	2.5	/experiments/knapen_aot/videos/S_yt-6B69qmkEdTI_1.mp4	0.0	258.9841048717499	
70	200.298819065094	movie	1		301.0	68.0	2.5	/experiments/knapen_aot/videos/S_yt-6B69qmkEdTI_1.mp4	0.0	258.9923470020294	2.508265972137451
70	202.80708503723145	fix_post	2		12.0	68.0	2.5	/experiments/knapen_aot/videos/S_yt-6B69qmkEdTI_1.mp4	0.0	261.50061297416687	0.1000211238861084
71	202.90710616111755	fix_pre	0		23.0	69.0	2.5	/experiments/knapen_aot/videos/S_wc-lItGMdwvEd_l_7.mp4	0.0	261.600634098053	0.19156599044799805
71	203.0905201435089	response	0	2		69.0	2.5	/experiments/knapen_aot/videos/S_wc-lItGMdwvEd_l_7.mp4	0.0	261.78404808044434	
71	203.09867215156555	movie	1		163.0	69.0	2.5	/experiments/knapen_aot/videos/S_wc-lItGMdwvEd_l_7.mp4	0.0	261.792200088501	2.5084328651428223
71	205.60710501670837	fix_post	2		12.0	69.0	2.5	/experiments/knapen_aot/videos/S_wc-lItGMdwvEd_l_7.mp4	0.0	264.3006329536438	0.09994792938232422
72	205.7070529460907	fix_pre	0		35.0	70.0	2.5	blank	1.0	264.4005808830261	0.2916891574859619
72	205.9829511642456	response	0	2		70.0	2.5	blank	1.0	264.67647910118103	
72	205.99874210357666	movie	1		301.0	70.0	2.5	blank	1.0	264.6922700405121	2.5084359645843506
72	208.507178068161	fix_post	2		12.0	70.0	2.5	blank	1.0	267.20070600509644	0.09990596771240234
73	208.6070840358734	fix_pre	0		39.0	71.0	2.5	/experiments/knapen_aot/videos/S_b8-3.mp4	0.0	267.30061197280884	0.3249650001525879
73	208.92387413978577	response	0	2		71.0	2.5	/experiments/knapen_aot/videos/S_b8-3.mp4	0.0	267.6174020767212	
73	208.932049036026	movie	1		169.0	71.0	2.5	/experiments/knapen_aot/videos/S_b8-3.mp4	0.0	267.6255769729614	2.5083200931549072
73	211.4403691291809	fix_post	2		12.0	71.0	2.5	/experiments/knapen_aot/videos/S_b8-3.mp4	0.0	270.13389706611633	0.1000359058380127
74	211.54040503501892	fix_pre	0		27.0	72.0	2.5	/experiments/knapen_aot/videos/S_wc-DcFDe419cL3d_17.mp4	0.0	270.23393297195435	0.22497892379760742
74	211.75715398788452	response	0	2		72.0	2.5	/experiments/knapen_aot/videos/S_wc-DcFDe419cL3d_17.mp4	0.0	270.45068192481995	
74	211.76538395881653	movie	1		164.0	72.0	2.5	/experiments/knapen_aot/videos/S_wc-DcFDe419cL3d_17.mp4	0.0	270.45891189575195	2.508413076400757
74	214.27379703521729	fix_post	2		12.0	72.0	2.5	/experiments/knapen_aot/videos/S_wc-DcFDe419cL3d_17.mp4	0.0	272.9673249721527	0.09990811347961426
75	214.3737051486969	fix_pre	0		34.0	73.0	2.5	/experiments/knapen_aot/videos/R_S_ILSVRC2015_train_00725000.mp4	0.0	273.0672330856323	0.2832958698272705
75	214.6488070487976	response	0	2		73.0	2.5	/experiments/knapen_aot/videos/R_S_ILSVRC2015_train_00725000.mp4	0.0	273.34233498573303	
75	214.65700101852417	movie	1		301.0	73.0	2.5	/experiments/knapen_aot/videos/R_S_ILSVRC2015_train_00725000.mp4	0.0	273.3505289554596	2.5083580017089844
75	217.16535902023315	fix_post	2		12.0	73.0	2.5	/experiments/knapen_aot/videos/R_S_ILSVRC2015_train_00725000.mp4	0.0	275.8588869571686	0.10009503364562988
76	217.26545405387878	fix_pre	0		36.0	74.0	2.5	/experiments/knapen_aot/videos/R_S_yt-RVoC19C420Y_27.mp4	0.0	275.9589819908142	0.29985499382019043
76	217.55716109275818	response	0	2		74.0	2.5	/experiments/knapen_aot/videos/R_S_yt-RVoC19C420Y_27.mp4	0.0	276.2506890296936	
76	217.56530904769897	movie	1		301.0	74.0	2.5	/experiments/knapen_aot/videos/R_S_yt-RVoC19C420Y_27.mp4	0.0	276.2588369846344	2.5083909034729004
76	220.07369995117188	fix_post	2		12.0	74.0	2.5	/experiments/knapen_aot/videos/R_S_yt-RVoC19C420Y_27.mp4	0.0	278.7672278881073	0.10004520416259766
77	220.17374515533447	fix_pre	0		35.0	75.0	2.5	blank	1.0	278.8672730922699	0.2915928363800049
77	220.45710515975952	response	0	2		75.0	2.5	blank	1.0	279.15063309669495	
77	220.46533799171448	movie	1		301.0	75.0	2.5	blank	1.0	279.1588659286499	2.508316993713379
77	222.97365498542786	fix_post	2		12.0	75.0	2.5	blank	1.0	281.6671829223633	0.10013794898986816
78	223.07379293441772	fix_pre	0		55.0	76.0	2.5	/experiments/knapen_aot/videos/R_S_ILSVRC2015_train_00405000.mp4	0.0	281.76732087135315	0.4582180976867676
78	223.52377796173096	response	0	2		76.0	2.5	/experiments/knapen_aot/videos/R_S_ILSVRC2015_train_00405000.mp4	0.0	282.2173058986664	
78	223.5320110321045	movie	1		301.0	76.0	2.5	/experiments/knapen_aot/videos/R_S_ILSVRC2015_train_00405000.mp4	0.0	282.2255389690399	2.5082590579986572
78	226.04027009010315	fix_post	2		12.0	76.0	2.5	/experiments/knapen_aot/videos/R_S_ILSVRC2015_train_00405000.mp4	0.0	284.7337980270386	0.10004687309265137
79	226.1403169631958	fix_pre	0		37.0	77.0	2.5	/experiments/knapen_aot/videos/R_S_wc-DcFDe419cL3d_17.mp4	0.0	284.8338449001312	0.3081929683685303
79	226.44039511680603	response	0	2		77.0	2.5	/experiments/knapen_aot/videos/R_S_wc-DcFDe419cL3d_17.mp4	0.0	285.13392305374146	
79	226.44850993156433	movie	1		166.0	77.0	2.5	/experiments/knapen_aot/videos/R_S_wc-DcFDe419cL3d_17.mp4	0.0	285.14203786849976	2.5084691047668457
79	228.95697903633118	fix_post	2		12.0	77.0	2.5	/experiments/knapen_aot/videos/R_S_wc-DcFDe419cL3d_17.mp4	0.0	287.6505069732666	0.09993505477905273
80	229.05691409111023	fix_pre	0		32.0	78.0	2.5	/experiments/knapen_aot/videos/S_pexels-laker-5793000.mp4	0.0	287.75044202804565	0.26668500900268555
80	229.31539797782898	response	0	2		78.0	2.5	/experiments/knapen_aot/videos/S_pexels-laker-5793000.mp4	0.0	288.0089259147644	
80	229.32359910011292	movie	1		172.0	78.0	2.5	/experiments/knapen_aot/videos/S_pexels-laker-5793000.mp4	0.0	288.01712703704834	2.508328914642334
80	231.83192801475525	fix_post	2		12.0	78.0	2.5	/experiments/knapen_aot/videos/S_pexels-laker-5793000.mp4	0.0	290.5254559516907	0.09994697570800781
81	231.93187499046326	fix_pre	0		42.0	79.0	2.5	/experiments/knapen_aot/videos/R_S_yt-VJ65ukWmdxQ_193.mp4	0.0	290.6254029273987	0.349992036819458
81	232.27363204956055	response	0	2		79.0	2.5	/experiments/knapen_aot/videos/R_S_yt-VJ65ukWmdxQ_193.mp4	0.0	290.967159986496	
81	232.28186702728271	movie	1		301.0	79.0	2.5	/experiments/knapen_aot/videos/R_S_yt-VJ65ukWmdxQ_193.mp4	0.0	290.97539496421814	2.5083999633789062
81	234.79026699066162	fix_post	2		12.0	79.0	2.5	/experiments/knapen_aot/videos/R_S_yt-VJ65ukWmdxQ_193.mp4	0.0	293.48379492759705	0.09997200965881348
82	234.89023900032043	fix_pre	0		29.0	80.0	2.5	/experiments/knapen_aot/videos/R_S_yt-BqJHT4K7Qf8_127.mp4	0.0	293.58376693725586	0.24165701866149902
82	235.1235899925232	response	0	2		80.0	2.5	/experiments/knapen_aot/videos/R_S_yt-BqJHT4K7Qf8_127.mp4	0.0	293.8171179294586	
82	235.13189601898193	movie	1		301.0	80.0	2.5	/experiments/knapen_aot/videos/R_S_yt-BqJHT4K7Qf8_127.mp4	0.0	293.82542395591736	2.5083119869232178
82	237.64020800590515	fix_post	2		12.0	80.0	2.5	/experiments/knapen_aot/videos/R_S_yt-BqJHT4K7Qf8_127.mp4	0.0	296.3337359428406	0.09998512268066406
83	237.74019312858582	fix_pre	0		27.0	81.0	2.5	/experiments/knapen_aot/videos/S_yt-Ojy5TMPX8_Q_165.mp4	0.0	296.43372106552124	0.22503399848937988
83	237.95704793930054	response	0	2		81.0	2.5	/experiments/knapen_aot/videos/S_yt-Ojy5TMPX8_Q_165.mp4	0.0	296.65057587623596	
83	237.9652271270752	movie	1		301.0	81.0	2.5	/experiments/knapen_aot/videos/S_yt-Ojy5TMPX8_Q_165.mp4	0.0	296.6587550640106	2.508314847946167
83	240.47354197502136	fix_post	2		12.0	81.0	2.5	/experiments/knapen_aot/videos/S_yt-Ojy5TMPX8_Q_165.mp4	0.0	299.1670699119568	0.09998512268066406
84	240.57352709770203	fix_pre	0		22.0	82.0	2.5	/experiments/knapen_aot/videos/S_yt-4oacL3aXtlU_11.mp4	0.0	299.26705503463745	0.183366060256958
84	240.7486641407013	response	0	2		82.0	2.5	/experiments/knapen_aot/videos/S_yt-4oacL3aXtlU_11.mp4	0.0	299.4421920776367	
84	240.75689315795898	movie	1		301.0	82.0	2.5	/experiments/knapen_aot/videos/S_yt-4oacL3aXtlU_11.mp4	0.0	299.4504210948944	2.508316993713379
84	243.26521015167236	fix_post	2		12.0	82.0	2.5	/experiments/knapen_aot/videos/S_yt-4oacL3aXtlU_11.mp4	0.0	301.9587380886078	0.0999908447265625
85	243.36520099639893	fix_pre	0		30.0	83.0	2.5	blank	1.0	302.05872893333435	0.2500040531158447
85	243.6069791316986	response	0	2		83.0	2.5	blank	1.0	302.30050706863403	
85	243.61520504951477	movie	1		301.0	83.0	2.5	blank	1.0	302.3087329864502	2.5083060264587402
85	246.1235110759735	fix_post	2		12.0	83.0	2.5	blank	1.0	304.81703901290894	0.10004091262817383
87	246.22355198860168	stim	0		157.0					304.9170799255371	1.3109080791473389
87	247.52759099006653	response	0	space						306.22111892700195	
