trial_nr	onset	event_type	phase	response	nr_frames	movie_index	movie_duration	movie_file	blank	onset_abs	duration
0	0.12919092178344727	stim	0		46.0					61.830880880355835	0.37911105155944824
0	0.5000801086425781	response	0	space						62.201770067214966	
1	0.5083019733428955	stim	0		121.0					62.20999193191528	1.0079820156097412
1	0.8585219383239746	response	0	space						62.56021189689636	
1	1.5162839889526367	stim	1		120.0					63.217973947525024	1.001492977142334
1	1.8080430030822754	response	1	space						63.50973296165466	
2	2.5177769660949707	fix_pre	0		1.0	0.0	2.5	/experiments/knapen_aot/videos/R_S_yt-P001x88adE4_427.mp4	0.0	64.21946692466736	0.006911039352416992
2	2.5204949378967285	response	0	space		0.0	2.5	/experiments/knapen_aot/videos/R_S_yt-P001x88adE4_427.mp4	0.0	64.22218489646912	
2	2.5246880054473877	movie	1		297.0	0.0	2.5	/experiments/knapen_aot/videos/R_S_yt-P001x88adE4_427.mp4	0.0	64.22637796401978	2.5081329345703125
2	2.5739378929138184	response	1	2		0.0	2.5	/experiments/knapen_aot/videos/R_S_yt-P001x88adE4_427.mp4	0.0	64.2756278514862	
2	5.0328209400177	fix_post	2		12.0	0.0	2.5	/experiments/knapen_aot/videos/R_S_yt-P001x88adE4_427.mp4	0.0	66.73451089859009	0.10000205039978027
3	5.1328229904174805	fix_pre	0		29.0	1.0	2.5	/experiments/knapen_aot/videos/R_S_ILSVRC2015_train_00457000.mp4	0.0	66.83451294898987	0.2416400909423828
3	5.366247892379761	response	0	2		1.0	2.5	/experiments/knapen_aot/videos/R_S_ILSVRC2015_train_00457000.mp4	0.0	67.06793785095215	
3	5.374463081359863	movie	1		299.0	1.0	2.5	/experiments/knapen_aot/videos/R_S_ILSVRC2015_train_00457000.mp4	0.0	67.07615303993225	2.508401870727539
3	7.882864952087402	fix_post	2		12.0	1.0	2.5	/experiments/knapen_aot/videos/R_S_ILSVRC2015_train_00457000.mp4	0.0	69.58455491065979	0.10014510154724121
4	7.9830100536346436	fix_pre	0		69.0	2.0	2.5	/experiments/knapen_aot/videos/S_yt-fqbi4rGc9dk_65.mp4	0.0	69.68470001220703	0.5748770236968994
4	8.549710035324097	response	0	2		2.0	2.5	/experiments/knapen_aot/videos/S_yt-fqbi4rGc9dk_65.mp4	0.0	70.25139999389648	
4	8.557887077331543	movie	1		301.0	2.0	2.5	/experiments/knapen_aot/videos/S_yt-fqbi4rGc9dk_65.mp4	0.0	70.25957703590393	2.508401870727539
4	11.066288948059082	fix_post	2		12.0	2.0	2.5	/experiments/knapen_aot/videos/S_yt-fqbi4rGc9dk_65.mp4	0.0	72.76797890663147	0.09987902641296387
5	11.166167974472046	fix_pre	0		33.0	3.0	2.5	/experiments/knapen_aot/videos/S_yt-4RKOPaRF42o_124.mp4	0.0	72.86785793304443	0.27506399154663086
5	11.43291711807251	response	0	2		3.0	2.5	/experiments/knapen_aot/videos/S_yt-4RKOPaRF42o_124.mp4	0.0	73.1346070766449	
5	11.441231966018677	movie	1		301.0	3.0	2.5	/experiments/knapen_aot/videos/S_yt-4RKOPaRF42o_124.mp4	0.0	73.14292192459106	2.5082149505615234
5	13.9494469165802	fix_post	2		12.0	3.0	2.5	/experiments/knapen_aot/videos/S_yt-4RKOPaRF42o_124.mp4	0.0	75.65113687515259	0.10013818740844727
6	14.049585103988647	fix_pre	0		21.0	4.0	2.5	/experiments/knapen_aot/videos/R_S_yt-F2x6e7e7cAE_70.mp4	0.0	75.75127506256104	0.17490792274475098
6	14.216376066207886	response	0	2		4.0	2.5	/experiments/knapen_aot/videos/R_S_yt-F2x6e7e7cAE_70.mp4	0.0	75.91806602478027	
6	14.224493026733398	movie	1		301.0	4.0	2.5	/experiments/knapen_aot/videos/R_S_yt-F2x6e7e7cAE_70.mp4	0.0	75.92618298530579	2.5083658695220947
6	16.732858896255493	fix_post	2		12.0	4.0	2.5	/experiments/knapen_aot/videos/R_S_yt-F2x6e7e7cAE_70.mp4	0.0	78.43454885482788	0.09992218017578125
7	16.832781076431274	fix_pre	0		36.0	5.0	2.5	blank	1.0	78.53447103500366	0.2999999523162842
7	17.12465500831604	response	0	2		5.0	2.5	blank	1.0	78.82634496688843	
7	17.13278102874756	movie	1		301.0	5.0	2.5	blank	1.0	78.83447098731995	2.508370876312256
7	19.641151905059814	fix_post	2		12.0	5.0	2.5	blank	1.0	81.3428418636322	0.09991812705993652
8	19.74107003211975	fix_pre	0		74.0	6.0	2.5	/experiments/knapen_aot/videos/R_S_yt-VJ65ukWmdxQ_193.mp4	0.0	81.44275999069214	0.6167559623718262
8	20.349556922912598	response	0	2		6.0	2.5	/experiments/knapen_aot/videos/R_S_yt-VJ65ukWmdxQ_193.mp4	0.0	82.05124688148499	
8	20.357825994491577	movie	1		301.0	6.0	2.5	/experiments/knapen_aot/videos/R_S_yt-VJ65ukWmdxQ_193.mp4	0.0	82.05951595306396	2.5083370208740234
8	22.8661630153656	fix_post	2		12.0	6.0	2.5	/experiments/knapen_aot/videos/R_S_yt-VJ65ukWmdxQ_193.mp4	0.0	84.56785297393799	0.09993410110473633
9	22.966097116470337	fix_pre	0		47.0	7.0	2.5	/experiments/knapen_aot/videos/S_pexels-koolshooters-7689098.mp4	0.0	84.66778707504272	0.39170193672180176
9	23.3496150970459	response	0	2		7.0	2.5	/experiments/knapen_aot/videos/S_pexels-koolshooters-7689098.mp4	0.0	85.05130505561829	
9	23.35779905319214	movie	1		167.0	7.0	2.5	/experiments/knapen_aot/videos/S_pexels-koolshooters-7689098.mp4	0.0	85.05948901176453	2.508262872695923
9	25.86606192588806	fix_post	2		12.0	7.0	2.5	/experiments/knapen_aot/videos/S_pexels-koolshooters-7689098.mp4	0.0	87.56775188446045	0.10008001327514648
10	25.966141939163208	fix_pre	0		8.0	8.0	2.5	/experiments/knapen_aot/videos/R_S_ILSVRC2015_train_00574000.mp4	0.0	87.6678318977356	0.06663298606872559
10	26.017087936401367	response	0	2		8.0	2.5	/experiments/knapen_aot/videos/R_S_ILSVRC2015_train_00574000.mp4	0.0	87.71877789497375	
10	26.032774925231934	movie	1		301.0	8.0	2.5	/experiments/knapen_aot/videos/R_S_ILSVRC2015_train_00574000.mp4	0.0	87.73446488380432	2.508324146270752
10	28.541099071502686	fix_post	2		12.0	8.0	2.5	/experiments/knapen_aot/videos/R_S_ILSVRC2015_train_00574000.mp4	0.0	90.24278903007507	0.10003900527954102
11	28.641138076782227	fix_pre	0		7.0	9.0	2.5	/experiments/knapen_aot/videos/R_S_yt-Q5Mfl5NdT7g_3.mp4	0.0	90.34282803535461	0.05833888053894043
11	28.683767080307007	response	0	2		9.0	2.5	/experiments/knapen_aot/videos/R_S_yt-Q5Mfl5NdT7g_3.mp4	0.0	90.3854570388794	
11	28.699476957321167	movie	1		300.0	9.0	2.5	/experiments/knapen_aot/videos/R_S_yt-Q5Mfl5NdT7g_3.mp4	0.0	90.40116691589355	2.508244037628174
11	31.20772099494934	fix_post	2		12.0	9.0	2.5	/experiments/knapen_aot/videos/R_S_yt-Q5Mfl5NdT7g_3.mp4	0.0	92.90941095352173	0.09993505477905273
12	31.307656049728394	fix_pre	0		21.0	10.0	2.5	/experiments/knapen_aot/videos/R_S_wc-PqINyFk_ku4u_18.mp4	0.0	93.00934600830078	0.17507004737854004
12	31.474550008773804	response	0	2		10.0	2.5	/experiments/knapen_aot/videos/R_S_wc-PqINyFk_ku4u_18.mp4	0.0	93.17623996734619	
12	31.482726097106934	movie	1		163.0	10.0	2.5	/experiments/knapen_aot/videos/R_S_wc-PqINyFk_ku4u_18.mp4	0.0	93.18441605567932	2.5083940029144287
12	33.99112010002136	fix_post	2		12.0	10.0	2.5	/experiments/knapen_aot/videos/R_S_wc-PqINyFk_ku4u_18.mp4	0.0	95.69281005859375	0.09997200965881348
13	34.091092109680176	fix_pre	0		26.0	11.0	2.5	/experiments/knapen_aot/videos/R_S_comp_A012_C014_1223PT_v53_SDR_PS_FINAL_20180709_F0F8700_SDR_2K_AVC.mp4	0.0	95.79278206825256	0.2166759967803955
13	34.29952001571655	response	0	2		11.0	2.5	/experiments/knapen_aot/videos/R_S_comp_A012_C014_1223PT_v53_SDR_PS_FINAL_20180709_F0F8700_SDR_2K_AVC.mp4	0.0	96.00120997428894	
13	34.30776810646057	movie	1		170.0	11.0	2.5	/experiments/knapen_aot/videos/R_S_comp_A012_C014_1223PT_v53_SDR_PS_FINAL_20180709_F0F8700_SDR_2K_AVC.mp4	0.0	96.00945806503296	2.5083799362182617
13	36.81614804267883	fix_post	2		12.0	11.0	2.5	/experiments/knapen_aot/videos/R_S_comp_A012_C014_1223PT_v53_SDR_PS_FINAL_20180709_F0F8700_SDR_2K_AVC.mp4	0.0	98.51783800125122	0.09993100166320801
14	36.91607904434204	fix_pre	0		6.0	12.0	2.5	blank	1.0	98.61776900291443	0.05016207695007324
14	36.95791006088257	response	0	2		12.0	2.5	blank	1.0	98.65960001945496	
14	36.966241121292114	movie	1		301.0	12.0	2.5	blank	1.0	98.6679310798645	2.5081729888916016
14	39.474414110183716	fix_post	2		12.0	12.0	2.5	blank	1.0	101.1761040687561	0.09994792938232422
15	39.57436203956604	fix_pre	0		49.0	13.0	2.5	/experiments/knapen_aot/videos/S_flickr-lamujuri-10653517683_4.mp4	0.0	101.27605199813843	0.4083869457244873
15	39.97460603713989	response	0	2		13.0	2.5	/experiments/knapen_aot/videos/S_flickr-lamujuri-10653517683_4.mp4	0.0	101.67629599571228	
15	39.98274898529053	movie	1		167.0	13.0	2.5	/experiments/knapen_aot/videos/S_flickr-lamujuri-10653517683_4.mp4	0.0	101.68443894386292	2.508234977722168
15	42.490983963012695	fix_post	2		12.0	13.0	2.5	/experiments/knapen_aot/videos/S_flickr-lamujuri-10653517683_4.mp4	0.0	104.19267392158508	0.10004305839538574
16	42.59102702140808	fix_pre	0		22.0	14.0	2.5	/experiments/knapen_aot/videos/R_S_yt-KpOAdMtPGFs_17.mp4	0.0	104.29271697998047	0.18331599235534668
16	42.76611590385437	response	0	2		14.0	2.5	/experiments/knapen_aot/videos/R_S_yt-KpOAdMtPGFs_17.mp4	0.0	104.46780586242676	
16	42.77434301376343	movie	1		301.0	14.0	2.5	/experiments/knapen_aot/videos/R_S_yt-KpOAdMtPGFs_17.mp4	0.0	104.47603297233582	2.508358955383301
16	45.28270196914673	fix_post	2		12.0	14.0	2.5	/experiments/knapen_aot/videos/R_S_yt-KpOAdMtPGFs_17.mp4	0.0	106.98439192771912	0.0999290943145752
17	45.382631063461304	fix_pre	0		11.0	15.0	2.5	/experiments/knapen_aot/videos/R_S_yt-BlWfK4MkjWA_469.mp4	0.0	107.08432102203369	0.09300088882446289
17	45.46619510650635	response	0	2		15.0	2.5	/experiments/knapen_aot/videos/R_S_yt-BlWfK4MkjWA_469.mp4	0.0	107.16788506507874	
17	45.47563195228577	movie	1		301.0	15.0	2.5	/experiments/knapen_aot/videos/R_S_yt-BlWfK4MkjWA_469.mp4	0.0	107.17732191085815	2.5071020126342773
17	47.982733964920044	fix_post	2		12.0	15.0	2.5	/experiments/knapen_aot/videos/R_S_yt-BlWfK4MkjWA_469.mp4	0.0	109.68442392349243	0.09998011589050293
18	48.08271408081055	fix_pre	0		33.0	16.0	2.5	/experiments/knapen_aot/videos/S_ILSVRC2015_train_00715000.mp4	0.0	109.78440403938293	0.27498388290405273
18	48.34945893287659	response	0	2		16.0	2.5	/experiments/knapen_aot/videos/S_ILSVRC2015_train_00715000.mp4	0.0	110.05114889144897	
18	48.3576979637146	movie	1		301.0	16.0	2.5	/experiments/knapen_aot/videos/S_ILSVRC2015_train_00715000.mp4	0.0	110.05938792228699	2.508302927017212
18	50.65773892402649	response	1	2		16.0	2.5	/experiments/knapen_aot/videos/S_ILSVRC2015_train_00715000.mp4	0.0	112.35942888259888	
18	50.86600089073181	fix_post	2		12.0	16.0	2.5	/experiments/knapen_aot/videos/S_ILSVRC2015_train_00715000.mp4	0.0	112.5676908493042	0.10006999969482422
19	50.966070890426636	fix_pre	0		23.0	17.0	2.5	/experiments/knapen_aot/videos/S_ILSVRC2015_train_00450001.mp4	0.0	112.66776084899902	0.1916050910949707
19	51.14943790435791	response	0	2		17.0	2.5	/experiments/knapen_aot/videos/S_ILSVRC2015_train_00450001.mp4	0.0	112.8511278629303	
19	51.157675981521606	movie	1		301.0	17.0	2.5	/experiments/knapen_aot/videos/S_ILSVRC2015_train_00450001.mp4	0.0	112.859365940094	2.508366107940674
19	53.66604208946228	fix_post	2		12.0	17.0	2.5	/experiments/knapen_aot/videos/S_ILSVRC2015_train_00450001.mp4	0.0	115.36773204803467	0.10001397132873535
20	53.766056060791016	fix_pre	0		51.0	18.0	2.5	/experiments/knapen_aot/videos/R_S_yt-rB3YVZvA78w_20.mp4	0.0	115.4677460193634	0.4249699115753174
20	54.18286204338074	response	0	2		18.0	2.5	/experiments/knapen_aot/videos/R_S_yt-rB3YVZvA78w_20.mp4	0.0	115.88455200195312	
20	54.19102597236633	movie	1		301.0	18.0	2.5	/experiments/knapen_aot/videos/R_S_yt-rB3YVZvA78w_20.mp4	0.0	115.89271593093872	2.508315086364746
20	56.69934105873108	fix_post	2		12.0	18.0	2.5	/experiments/knapen_aot/videos/R_S_yt-rB3YVZvA78w_20.mp4	0.0	118.40103101730347	0.09993886947631836
20	56.766170024871826	response	2	2		18.0	2.5	/experiments/knapen_aot/videos/R_S_yt-rB3YVZvA78w_20.mp4	0.0	118.46785998344421	
21	56.7992799282074	fix_pre	0		47.0	19.0	2.5	/experiments/knapen_aot/videos/R_S_yt-9NV8zv2Sdq4_30.mp4	0.0	118.50096988677979	0.39171600341796875
21	57.18267011642456	response	0	2		19.0	2.5	/experiments/knapen_aot/videos/R_S_yt-9NV8zv2Sdq4_30.mp4	0.0	118.88436007499695	
21	57.190995931625366	movie	1		301.0	19.0	2.5	/experiments/knapen_aot/videos/R_S_yt-9NV8zv2Sdq4_30.mp4	0.0	118.89268589019775	2.5083491802215576
21	59.699345111846924	fix_post	2		12.0	19.0	2.5	/experiments/knapen_aot/videos/R_S_yt-9NV8zv2Sdq4_30.mp4	0.0	121.40103507041931	0.09994101524353027
22	59.799286127090454	fix_pre	0		14.0	20.0	2.5	/experiments/knapen_aot/videos/R_S_yt-SRozDkhwx28_1463.mp4	0.0	121.50097608566284	0.11665892601013184
22	59.907718896865845	response	0	2		20.0	2.5	/experiments/knapen_aot/videos/R_S_yt-SRozDkhwx28_1463.mp4	0.0	121.60940885543823	
22	59.915945053100586	movie	1		300.0	20.0	2.5	/experiments/knapen_aot/videos/R_S_yt-SRozDkhwx28_1463.mp4	0.0	121.61763501167297	2.5084099769592285
22	62.424355030059814	fix_post	2		12.0	20.0	2.5	/experiments/knapen_aot/videos/R_S_yt-SRozDkhwx28_1463.mp4	0.0	124.1260449886322	0.10007286071777344
23	62.52442789077759	fix_pre	0		28.0	21.0	2.5	blank	1.0	124.22611784934998	0.23319721221923828
23	62.74938893318176	response	0	2		21.0	2.5	blank	1.0	124.45107889175415	
23	62.757625102996826	movie	1		301.0	21.0	2.5	blank	1.0	124.45931506156921	2.5082709789276123
23	65.26589608192444	fix_post	2		12.0	21.0	2.5	blank	1.0	126.96758604049683	0.10005593299865723
24	65.3659520149231	fix_pre	0		61.0	22.0	2.5	/experiments/knapen_aot/videos/R_S_production_ID_4101309.mp4	0.0	127.06764197349548	0.5083889961242676
24	65.8660740852356	response	0	2		22.0	2.5	/experiments/knapen_aot/videos/R_S_production_ID_4101309.mp4	0.0	127.56776404380798	
24	65.87434101104736	movie	1		188.0	22.0	2.5	/experiments/knapen_aot/videos/R_S_production_ID_4101309.mp4	0.0	127.57603096961975	2.5082790851593018
24	68.38262009620667	fix_post	2		12.0	22.0	2.5	/experiments/knapen_aot/videos/R_S_production_ID_4101309.mp4	0.0	130.08431005477905	0.10008382797241211
25	68.48270392417908	fix_pre	0		5.0	23.0	2.5	/experiments/knapen_aot/videos/R_S_yt-PCSXJ5YB_AE_3.mp4	0.0	130.18439388275146	0.04153704643249512
25	68.50850892066956	response	0	2		23.0	2.5	/experiments/knapen_aot/videos/R_S_yt-PCSXJ5YB_AE_3.mp4	0.0	130.21019887924194	
25	68.52424097061157	movie	1		301.0	23.0	2.5	/experiments/knapen_aot/videos/R_S_yt-PCSXJ5YB_AE_3.mp4	0.0	130.22593092918396	2.5083580017089844
25	71.03259897232056	fix_post	2		12.0	23.0	2.5	/experiments/knapen_aot/videos/R_S_yt-PCSXJ5YB_AE_3.mp4	0.0	132.73428893089294	0.10001802444458008
26	71.13261699676514	fix_pre	0		23.0	24.0	2.5	/experiments/knapen_aot/videos/R_S_Ds4EKTLx_RI_51.mp4	0.0	132.83430695533752	0.19161391258239746
26	71.31607294082642	response	0	2		24.0	2.5	/experiments/knapen_aot/videos/R_S_Ds4EKTLx_RI_51.mp4	0.0	133.0177628993988	
26	71.32423090934753	movie	1		301.0	24.0	2.5	/experiments/knapen_aot/videos/R_S_Ds4EKTLx_RI_51.mp4	0.0	133.02592086791992	2.508371114730835
26	73.83260202407837	fix_post	2		12.0	24.0	2.5	/experiments/knapen_aot/videos/R_S_Ds4EKTLx_RI_51.mp4	0.0	135.53429198265076	0.09999299049377441
27	73.93259501457214	fix_pre	0		17.0	25.0	2.5	/experiments/knapen_aot/videos/R_S_ILSVRC2015_train_00457000.mp4	0.0	135.63428497314453	0.14159607887268066
27	74.0660789012909	response	0	2		25.0	2.5	/experiments/knapen_aot/videos/R_S_ILSVRC2015_train_00457000.mp4	0.0	135.76776885986328	
27	74.07419109344482	movie	1		301.0	25.0	2.5	/experiments/knapen_aot/videos/R_S_ILSVRC2015_train_00457000.mp4	0.0	135.7758810520172	2.508443832397461
27	76.58263492584229	fix_post	2		12.0	25.0	2.5	/experiments/knapen_aot/videos/R_S_ILSVRC2015_train_00457000.mp4	0.0	138.28432488441467	0.10000419616699219
28	76.68263912200928	fix_pre	0		39.0	26.0	2.5	/experiments/knapen_aot/videos/R_S_yt-JtR6WZXT2kU_8.mp4	0.0	138.38432908058167	0.3248279094696045
28	76.9993851184845	response	0	2		26.0	2.5	/experiments/knapen_aot/videos/R_S_yt-JtR6WZXT2kU_8.mp4	0.0	138.70107507705688	
28	77.00746703147888	movie	1		301.0	26.0	2.5	/experiments/knapen_aot/videos/R_S_yt-JtR6WZXT2kU_8.mp4	0.0	138.70915699005127	2.508344888687134
28	79.51581192016602	fix_post	2		12.0	26.0	2.5	/experiments/knapen_aot/videos/R_S_yt-JtR6WZXT2kU_8.mp4	0.0	141.2175018787384	0.10001707077026367
29	79.61582899093628	fix_pre	0		73.0	27.0	2.5	/experiments/knapen_aot/videos/R_S_yt-MsSEF0krKE4_149.mp4	0.0	141.31751894950867	0.6094520092010498
29	80.21602392196655	response	0	2		27.0	2.5	/experiments/knapen_aot/videos/R_S_yt-MsSEF0krKE4_149.mp4	0.0	141.91771388053894	
29	80.22528100013733	movie	1		301.0	27.0	2.5	/experiments/knapen_aot/videos/R_S_yt-MsSEF0krKE4_149.mp4	0.0	141.92697095870972	2.5072739124298096
29	82.73255491256714	fix_post	2		12.0	27.0	2.5	/experiments/knapen_aot/videos/R_S_yt-MsSEF0krKE4_149.mp4	0.0	144.43424487113953	0.09994912147521973
30	82.83250403404236	fix_pre	0		12.0	28.0	2.5	blank	1.0	144.53419399261475	0.10001087188720703
30	82.92430806159973	response	0	2		28.0	2.5	blank	1.0	144.62599802017212	
30	82.93251490592957	movie	1		301.0	28.0	2.5	blank	1.0	144.63420486450195	2.5083541870117188
30	85.44086909294128	fix_post	2		12.0	28.0	2.5	blank	1.0	147.14255905151367	0.09998488426208496
31	85.54085397720337	fix_pre	0		35.0	29.0	2.5	/experiments/knapen_aot/videos/R_S_video_inspire_california_catalina_avalon_00053.1080-h264.mp4	0.0	147.24254393577576	0.2916240692138672
31	85.82435297966003	response	0	2		29.0	2.5	/experiments/knapen_aot/videos/R_S_video_inspire_california_catalina_avalon_00053.1080-h264.mp4	0.0	147.52604293823242	
31	85.83247804641724	movie	1		170.0	29.0	2.5	/experiments/knapen_aot/videos/R_S_video_inspire_california_catalina_avalon_00053.1080-h264.mp4	0.0	147.53416800498962	2.508347988128662
31	88.33253192901611	response	1	2		29.0	2.5	/experiments/knapen_aot/videos/R_S_video_inspire_california_catalina_avalon_00053.1080-h264.mp4	0.0	150.0342218875885	
31	88.3408260345459	fix_post	2		12.0	29.0	2.5	/experiments/knapen_aot/videos/R_S_video_inspire_california_catalina_avalon_00053.1080-h264.mp4	0.0	150.0425159931183	0.09995508193969727
32	88.4407811164856	fix_pre	0		30.0	30.0	2.5	/experiments/knapen_aot/videos/R_S_pexels-tima-miroshnichenko-8724308.mp4	0.0	150.14247107505798	0.25002479553222656
32	88.68261790275574	response	0	2		30.0	2.5	/experiments/knapen_aot/videos/R_S_pexels-tima-miroshnichenko-8724308.mp4	0.0	150.38430786132812	
32	88.69080591201782	movie	1		206.0	30.0	2.5	/experiments/knapen_aot/videos/R_S_pexels-tima-miroshnichenko-8724308.mp4	0.0	150.3924958705902	2.508402109146118
32	90.89122700691223	response	1	2		30.0	2.5	/experiments/knapen_aot/videos/R_S_pexels-tima-miroshnichenko-8724308.mp4	0.0	152.59291696548462	
32	91.19920802116394	fix_post	2		12.0	30.0	2.5	/experiments/knapen_aot/videos/R_S_pexels-tima-miroshnichenko-8724308.mp4	0.0	152.90089797973633	0.09995007514953613
32	91.29103589057922	response	2	2		30.0	2.5	/experiments/knapen_aot/videos/R_S_pexels-tima-miroshnichenko-8724308.mp4	0.0	152.9927258491516	
33	91.29915809631348	fix_pre	0		37.0	31.0	2.5	/experiments/knapen_aot/videos/S_yt-McqS-QObQbk_122.mp4	0.0	153.00084805488586	0.30837202072143555
33	91.59928393363953	response	0	2		31.0	2.5	/experiments/knapen_aot/videos/S_yt-McqS-QObQbk_122.mp4	0.0	153.3009738922119	
33	91.60753011703491	movie	1		301.0	31.0	2.5	/experiments/knapen_aot/videos/S_yt-McqS-QObQbk_122.mp4	0.0	153.3092200756073	2.5083367824554443
33	94.11586689949036	fix_post	2		12.0	31.0	2.5	/experiments/knapen_aot/videos/S_yt-McqS-QObQbk_122.mp4	0.0	155.81755685806274	0.1000211238861084
34	94.21588802337646	fix_pre	0		16.0	32.0	2.5	/experiments/knapen_aot/videos/S_yt-7NjoFHBdP7c_102.mp4	0.0	155.91757798194885	0.13433194160461426
34	94.34097409248352	response	0	2		32.0	2.5	/experiments/knapen_aot/videos/S_yt-7NjoFHBdP7c_102.mp4	0.0	156.0426640510559	
34	94.35021996498108	movie	1		301.0	32.0	2.5	/experiments/knapen_aot/videos/S_yt-7NjoFHBdP7c_102.mp4	0.0	156.05190992355347	2.507265090942383
34	96.85748505592346	fix_post	2		12.0	32.0	2.5	/experiments/knapen_aot/videos/S_yt-7NjoFHBdP7c_102.mp4	0.0	158.55917501449585	0.09999799728393555
35	96.9574830532074	fix_pre	0		37.0	33.0	2.5	blank	1.0	158.65917301177979	0.30834293365478516
35	97.25752806663513	response	0	2		33.0	2.5	blank	1.0	158.95921802520752	
35	97.26582598686218	movie	1		301.0	33.0	2.5	blank	1.0	158.96751594543457	2.508289098739624
35	99.7741150856018	fix_post	2		12.0	33.0	2.5	blank	1.0	161.4758050441742	0.1000208854675293
36	99.87413597106934	fix_pre	0		32.0	34.0	2.5	/experiments/knapen_aot/videos/R_S_yt-FR_Y1Mm8BwQ_53.mp4	0.0	161.57582592964172	0.26763010025024414
36	100.13256096839905	response	0	2		34.0	2.5	/experiments/knapen_aot/videos/R_S_yt-FR_Y1Mm8BwQ_53.mp4	0.0	161.83425092697144	
36	100.14176607131958	movie	1		301.0	34.0	2.5	/experiments/knapen_aot/videos/R_S_yt-FR_Y1Mm8BwQ_53.mp4	0.0	161.84345602989197	2.507375955581665
36	102.64914202690125	fix_post	2		12.0	34.0	2.5	/experiments/knapen_aot/videos/R_S_yt-FR_Y1Mm8BwQ_53.mp4	0.0	164.35083198547363	0.10001897811889648
37	102.74916100502014	fix_pre	0		28.0	35.0	2.5	/experiments/knapen_aot/videos/S_pexels-sora-shimazaki-5925295.mp4	0.0	164.45085096359253	0.23323988914489746
37	102.9741621017456	response	0	2		35.0	2.5	/experiments/knapen_aot/videos/S_pexels-sora-shimazaki-5925295.mp4	0.0	164.675852060318	
37	102.98240089416504	movie	1		165.0	35.0	2.5	/experiments/knapen_aot/videos/S_pexels-sora-shimazaki-5925295.mp4	0.0	164.68409085273743	2.5083210468292236
37	105.49072194099426	fix_post	2		12.0	35.0	2.5	/experiments/knapen_aot/videos/S_pexels-sora-shimazaki-5925295.mp4	0.0	167.19241189956665	0.10001397132873535
38	105.590735912323	fix_pre	0		15.0	36.0	2.5	/experiments/knapen_aot/videos/R_S_yt-z16pdVTZK1o_3.mp4	0.0	167.29242587089539	0.12499308586120605
38	105.70747494697571	response	0	2		36.0	2.5	/experiments/knapen_aot/videos/R_S_yt-z16pdVTZK1o_3.mp4	0.0	167.4091649055481	
38	105.7157289981842	movie	1		301.0	36.0	2.5	/experiments/knapen_aot/videos/R_S_yt-z16pdVTZK1o_3.mp4	0.0	167.4174189567566	2.508392095565796
38	108.22412109375	fix_post	2		12.0	36.0	2.5	/experiments/knapen_aot/videos/R_S_yt-z16pdVTZK1o_3.mp4	0.0	169.9258110523224	0.10000801086425781
39	108.32412910461426	fix_pre	0		19.0	37.0	2.5	/experiments/knapen_aot/videos/S_yt-f9iXELY0EJ0_344.mp4	0.0	170.02581906318665	0.1582508087158203
39	108.47425389289856	response	0	2		37.0	2.5	/experiments/knapen_aot/videos/S_yt-f9iXELY0EJ0_344.mp4	0.0	170.17594385147095	
39	108.48237991333008	movie	1		301.0	37.0	2.5	/experiments/knapen_aot/videos/S_yt-f9iXELY0EJ0_344.mp4	0.0	170.18406987190247	2.50835919380188
39	110.99073910713196	fix_post	2		12.0	37.0	2.5	/experiments/knapen_aot/videos/S_yt-f9iXELY0EJ0_344.mp4	0.0	172.69242906570435	0.09998488426208496
40	111.09072399139404	fix_pre	0		26.0	38.0	2.5	/experiments/knapen_aot/videos/R_S_yt-PCSXJ5YB_AE_3.mp4	0.0	172.79241394996643	0.21762490272521973
40	111.29916501045227	response	0	2		38.0	2.5	/experiments/knapen_aot/videos/R_S_yt-PCSXJ5YB_AE_3.mp4	0.0	173.00085496902466	
40	111.30834889411926	movie	1		301.0	38.0	2.5	/experiments/knapen_aot/videos/R_S_yt-PCSXJ5YB_AE_3.mp4	0.0	173.01003885269165	2.5074851512908936
40	113.81583404541016	fix_post	2		12.0	38.0	2.5	/experiments/knapen_aot/videos/R_S_yt-PCSXJ5YB_AE_3.mp4	0.0	175.51752400398254	0.09993886947631836
41	113.91577291488647	fix_pre	0		10.0	39.0	2.5	/experiments/knapen_aot/videos/S_yt-c-H45QS0CF4_147.mp4	0.0	175.61746287345886	0.08324909210205078
41	113.9908459186554	response	0	2		39.0	2.5	/experiments/knapen_aot/videos/S_yt-c-H45QS0CF4_147.mp4	0.0	175.69253587722778	
41	113.99902200698853	movie	1		301.0	39.0	2.5	/experiments/knapen_aot/videos/S_yt-c-H45QS0CF4_147.mp4	0.0	175.7007119655609	2.5083770751953125
41	116.50739908218384	fix_post	2		12.0	39.0	2.5	/experiments/knapen_aot/videos/S_yt-c-H45QS0CF4_147.mp4	0.0	178.20908904075623	0.10000991821289062
42	116.60740900039673	fix_pre	0		25.0	40.0	2.5	/experiments/knapen_aot/videos/R_S_yt-gPhlnZG-pRY_4.mp4	0.0	178.30909895896912	0.21660304069519043
42	116.81602501869202	response	0	2		40.0	2.5	/experiments/knapen_aot/videos/R_S_yt-gPhlnZG-pRY_4.mp4	0.0	178.5177149772644	
42	116.82401204109192	movie	1		301.0	40.0	2.5	/experiments/knapen_aot/videos/R_S_yt-gPhlnZG-pRY_4.mp4	0.0	178.5257019996643	2.5083460807800293
42	119.33235812187195	fix_post	2		12.0	40.0	2.5	/experiments/knapen_aot/videos/R_S_yt-gPhlnZG-pRY_4.mp4	0.0	181.03404808044434	0.10003185272216797
43	119.43238997459412	fix_pre	0		20.0	41.0	2.5	blank	1.0	181.1340799331665	0.16669607162475586
43	119.58334803581238	response	0	2		41.0	2.5	blank	1.0	181.28503799438477	
43	119.59908604621887	movie	1		301.0	41.0	2.5	blank	1.0	181.30077600479126	2.5082759857177734
43	122.10736203193665	fix_post	2		12.0	41.0	2.5	blank	1.0	183.80905199050903	0.09994387626647949
44	122.20730590820312	fix_pre	0		41.0	42.0	2.5	/experiments/knapen_aot/videos/S_video_inspire_california_catalina_avalon_00053.1080-h264.mp4	0.0	183.9089958667755	0.3417210578918457
44	122.54083704948425	response	0	2		42.0	2.5	/experiments/knapen_aot/videos/S_video_inspire_california_catalina_avalon_00053.1080-h264.mp4	0.0	184.24252700805664	
44	122.54902696609497	movie	1		170.0	42.0	2.5	/experiments/knapen_aot/videos/S_video_inspire_california_catalina_avalon_00053.1080-h264.mp4	0.0	184.25071692466736	2.50833797454834
44	125.05736494064331	fix_post	2		12.0	42.0	2.5	/experiments/knapen_aot/videos/S_video_inspire_california_catalina_avalon_00053.1080-h264.mp4	0.0	186.7590548992157	0.09993696212768555
45	125.157301902771	fix_pre	0		1.0	43.0	2.5	/experiments/knapen_aot/videos/S_yt-JGKdBO2Ldzo_93.mp4	0.0	186.85899186134338	0.008391141891479492
45	125.15895199775696	response	0	2		43.0	2.5	/experiments/knapen_aot/videos/S_yt-JGKdBO2Ldzo_93.mp4	0.0	186.86064195632935	
45	125.16569304466248	movie	1		300.0	43.0	2.5	/experiments/knapen_aot/videos/S_yt-JGKdBO2Ldzo_93.mp4	0.0	186.86738300323486	2.5083699226379395
45	127.67406296730042	fix_post	2		12.0	43.0	2.5	/experiments/knapen_aot/videos/S_yt-JGKdBO2Ldzo_93.mp4	0.0	189.3757529258728	0.1000070571899414
46	127.77407002449036	fix_pre	0		38.0	44.0	2.5	/experiments/knapen_aot/videos/S_yt-JTBXPfbkjsA_11.mp4	0.0	189.47575998306274	0.31659793853759766
46	128.08254289627075	response	0	2		44.0	2.5	/experiments/knapen_aot/videos/S_yt-JTBXPfbkjsA_11.mp4	0.0	189.78423285484314	
46	128.09066796302795	movie	1		301.0	44.0	2.5	/experiments/knapen_aot/videos/S_yt-JTBXPfbkjsA_11.mp4	0.0	189.79235792160034	2.5092310905456543
46	130.59085893630981	response	1	2		44.0	2.5	/experiments/knapen_aot/videos/S_yt-JTBXPfbkjsA_11.mp4	0.0	192.2925488948822	
46	130.5998990535736	fix_post	2		12.0	44.0	2.5	/experiments/knapen_aot/videos/S_yt-JTBXPfbkjsA_11.mp4	0.0	192.301589012146	0.09913897514343262
47	130.69903802871704	fix_pre	0		31.0	45.0	2.5	/experiments/knapen_aot/videos/R_S_yt-11VGDAOVEag_8.mp4	0.0	192.40072798728943	0.25828099250793457
47	130.9490509033203	response	0	2		45.0	2.5	/experiments/knapen_aot/videos/R_S_yt-11VGDAOVEag_8.mp4	0.0	192.6507408618927	
47	130.95731902122498	movie	1		301.0	45.0	2.5	/experiments/knapen_aot/videos/R_S_yt-11VGDAOVEag_8.mp4	0.0	192.65900897979736	2.508357048034668
47	133.46567606925964	fix_post	2		12.0	45.0	2.5	/experiments/knapen_aot/videos/R_S_yt-11VGDAOVEag_8.mp4	0.0	195.16736602783203	0.0999908447265625
48	133.5656669139862	fix_pre	0		10.0	46.0	2.5	/experiments/knapen_aot/videos/S_yt-rB3YVZvA78w_20.mp4	0.0	195.2673568725586	0.08335018157958984
48	133.64187693595886	response	0	2		46.0	2.5	/experiments/knapen_aot/videos/S_yt-rB3YVZvA78w_20.mp4	0.0	195.34356689453125	
48	133.6490170955658	movie	1		301.0	46.0	2.5	/experiments/knapen_aot/videos/S_yt-rB3YVZvA78w_20.mp4	0.0	195.35070705413818	2.5083258152008057
48	136.1573429107666	fix_post	2		12.0	46.0	2.5	/experiments/knapen_aot/videos/S_yt-rB3YVZvA78w_20.mp4	0.0	197.859032869339	0.10001420974731445
49	136.25735712051392	fix_pre	0		42.0	47.0	2.5	/experiments/knapen_aot/videos/S_pexels-marcus-aurelius-6785014.mp4	0.0	197.9590470790863	0.349963903427124
49	136.59913611412048	response	0	2		47.0	2.5	/experiments/knapen_aot/videos/S_pexels-marcus-aurelius-6785014.mp4	0.0	198.30082607269287	
49	136.60732102394104	movie	1		165.0	47.0	2.5	/experiments/knapen_aot/videos/S_pexels-marcus-aurelius-6785014.mp4	0.0	198.30901098251343	2.5083680152893066
49	139.11568903923035	fix_post	2		12.0	47.0	2.5	/experiments/knapen_aot/videos/S_pexels-marcus-aurelius-6785014.mp4	0.0	200.81737899780273	0.09997797012329102
50	139.21566700935364	fix_pre	0		11.0	48.0	2.5	blank	1.0	200.91735696792603	0.09247207641601562
50	139.29915690422058	response	0	2		48.0	2.5	blank	1.0	201.00084686279297	
50	139.30813908576965	movie	1		301.0	48.0	2.5	blank	1.0	201.00982904434204	2.507539987564087
50	141.81567907333374	fix_post	2		12.0	48.0	2.5	blank	1.0	203.51736903190613	0.09997797012329102
51	141.91565704345703	fix_pre	0		57.0	49.0	2.5	/experiments/knapen_aot/videos/R_S_yt--jzScB82vKI_90.mp4	0.0	203.61734700202942	0.4757540225982666
51	142.3824200630188	response	0	2		49.0	2.5	/experiments/knapen_aot/videos/R_S_yt--jzScB82vKI_90.mp4	0.0	204.0841100215912	
51	142.3914110660553	movie	1		301.0	49.0	2.5	/experiments/knapen_aot/videos/R_S_yt--jzScB82vKI_90.mp4	0.0	204.09310102462769	2.5074808597564697
51	144.89889192581177	fix_post	2		12.0	49.0	2.5	/experiments/knapen_aot/videos/R_S_yt--jzScB82vKI_90.mp4	0.0	206.60058188438416	0.10002899169921875
52	144.998920917511	fix_pre	0		25.0	50.0	2.5	/experiments/knapen_aot/videos/R_S_yt-JGKdBO2Ldzo_93.mp4	0.0	206.70061087608337	0.20825409889221191
52	145.19906306266785	response	0	2		50.0	2.5	/experiments/knapen_aot/videos/R_S_yt-JGKdBO2Ldzo_93.mp4	0.0	206.90075302124023	
52	145.2071750164032	movie	1		298.0	50.0	2.5	/experiments/knapen_aot/videos/R_S_yt-JGKdBO2Ldzo_93.mp4	0.0	206.9088649749756	2.5084829330444336
52	147.71565794944763	fix_post	2		12.0	50.0	2.5	/experiments/knapen_aot/videos/R_S_yt-JGKdBO2Ldzo_93.mp4	0.0	209.41734790802002	0.09998297691345215
53	147.81564092636108	fix_pre	0		17.0	51.0	2.5	/experiments/knapen_aot/videos/R_S_yt-n1snPiGfg0A_45.mp4	0.0	209.51733088493347	0.14161419868469238
53	147.9490990638733	response	0	2		51.0	2.5	/experiments/knapen_aot/videos/R_S_yt-n1snPiGfg0A_45.mp4	0.0	209.65078902244568	
53	147.95725512504578	movie	1		301.0	51.0	2.5	/experiments/knapen_aot/videos/R_S_yt-n1snPiGfg0A_45.mp4	0.0	209.65894508361816	2.5083839893341064
53	150.46563911437988	fix_post	2		12.0	51.0	2.5	/experiments/knapen_aot/videos/R_S_yt-n1snPiGfg0A_45.mp4	0.0	212.16732907295227	0.10000085830688477
54	150.56563997268677	fix_pre	0		12.0	52.0	2.5	/experiments/knapen_aot/videos/R_S_yt-oVS_k_9upmo_205.mp4	0.0	212.26732993125916	0.09996914863586426
54	150.65741991996765	response	0	2		52.0	2.5	/experiments/knapen_aot/videos/R_S_yt-oVS_k_9upmo_205.mp4	0.0	212.35910987854004	
54	150.66560912132263	movie	1		301.0	52.0	2.5	/experiments/knapen_aot/videos/R_S_yt-oVS_k_9upmo_205.mp4	0.0	212.36729907989502	2.508330821990967
54	153.1739399433136	fix_post	2		12.0	52.0	2.5	/experiments/knapen_aot/videos/R_S_yt-oVS_k_9upmo_205.mp4	0.0	214.875629901886	0.10001397132873535
55	153.27395391464233	fix_pre	0		42.0	53.0	2.5	/experiments/knapen_aot/videos/R_S_g201_TH_804_A001_8_SDR_20191031_SDR_2K_AVC.mp4	0.0	214.97564387321472	0.34998202323913574
55	153.61573100090027	response	0	2		53.0	2.5	/experiments/knapen_aot/videos/R_S_g201_TH_804_A001_8_SDR_20191031_SDR_2K_AVC.mp4	0.0	215.31742095947266	
55	153.62393593788147	movie	1		167.0	53.0	2.5	/experiments/knapen_aot/videos/R_S_g201_TH_804_A001_8_SDR_20191031_SDR_2K_AVC.mp4	0.0	215.32562589645386	2.5083441734313965
55	156.13228011131287	fix_post	2		12.0	53.0	2.5	/experiments/knapen_aot/videos/R_S_g201_TH_804_A001_8_SDR_20191031_SDR_2K_AVC.mp4	0.0	217.83397006988525	0.09991693496704102
56	156.2321970462799	fix_pre	0		86.0	54.0	2.5	/experiments/knapen_aot/videos/R_S_yt-2WPmM2vIuBE_41.mp4	0.0	217.9338870048523	0.716649055480957
56	156.9406681060791	response	0	2		54.0	2.5	/experiments/knapen_aot/videos/R_S_yt-2WPmM2vIuBE_41.mp4	0.0	218.6423580646515	
56	156.94884610176086	movie	1		300.0	54.0	2.5	/experiments/knapen_aot/videos/R_S_yt-2WPmM2vIuBE_41.mp4	0.0	218.65053606033325	2.508387804031372
56	159.45723390579224	fix_post	2		12.0	54.0	2.5	/experiments/knapen_aot/videos/R_S_yt-2WPmM2vIuBE_41.mp4	0.0	221.15892386436462	0.09997200965881348
57	159.55720591545105	fix_pre	0		44.0	55.0	2.5	/experiments/knapen_aot/videos/S_production_ID_3709168.mp4	0.0	221.25889587402344	0.36665821075439453
57	159.9156949520111	response	0	2		55.0	2.5	/experiments/knapen_aot/videos/S_production_ID_3709168.mp4	0.0	221.6173849105835	
57	159.92386412620544	movie	1		200.0	55.0	2.5	/experiments/knapen_aot/videos/S_production_ID_3709168.mp4	0.0	221.62555408477783	2.5082919597625732
57	162.43215608596802	fix_post	2		12.0	55.0	2.5	/experiments/knapen_aot/videos/S_production_ID_3709168.mp4	0.0	224.1338460445404	0.09999799728393555
58	162.53215408325195	fix_pre	0		23.0	56.0	2.5	blank	1.0	224.23384404182434	0.19251704216003418
58	162.715646982193	response	0	2		56.0	2.5	blank	1.0	224.41733694076538	
58	162.724671125412	movie	1		301.0	56.0	2.5	blank	1.0	224.42636108398438	2.5075109004974365
58	165.23218202590942	fix_post	2		12.0	56.0	2.5	blank	1.0	226.9338719844818	0.09999895095825195
59	165.33218097686768	fix_pre	0		38.0	57.0	2.5	/experiments/knapen_aot/videos/R_S_bing-www_dailymotion_com_video_x64hzm7_8.mp4	0.0	227.03387093544006	0.31662893295288086
59	165.63323998451233	response	0	2		57.0	2.5	/experiments/knapen_aot/videos/R_S_bing-www_dailymotion_com_video_x64hzm7_8.mp4	0.0	227.33492994308472	
59	165.64880990982056	movie	1		165.0	57.0	2.5	/experiments/knapen_aot/videos/R_S_bing-www_dailymotion_com_video_x64hzm7_8.mp4	0.0	227.35049986839294	2.508388042449951
59	168.1571979522705	fix_post	2		12.0	57.0	2.5	/experiments/knapen_aot/videos/R_S_bing-www_dailymotion_com_video_x64hzm7_8.mp4	0.0	229.8588879108429	0.09997415542602539
60	168.25717210769653	fix_pre	0		15.0	58.0	2.5	/experiments/knapen_aot/videos/R_S_yt-0d5TkclKWVA_146.mp4	0.0	229.95886206626892	0.12497091293334961
60	168.37390995025635	response	0	2		58.0	2.5	/experiments/knapen_aot/videos/R_S_yt-0d5TkclKWVA_146.mp4	0.0	230.07559990882874	
60	168.38214302062988	movie	1		301.0	58.0	2.5	/experiments/knapen_aot/videos/R_S_yt-0d5TkclKWVA_146.mp4	0.0	230.08383297920227	2.5084030628204346
60	170.89054608345032	fix_post	2		12.0	58.0	2.5	/experiments/knapen_aot/videos/R_S_yt-0d5TkclKWVA_146.mp4	0.0	232.5922360420227	0.09999585151672363
61	170.99054193496704	fix_pre	0		12.0	59.0	2.5	/experiments/knapen_aot/videos/S_yt-KpOAdMtPGFs_17.mp4	0.0	232.69223189353943	0.09999203681945801
61	171.0823040008545	response	0	2		59.0	2.5	/experiments/knapen_aot/videos/S_yt-KpOAdMtPGFs_17.mp4	0.0	232.78399395942688	
61	171.0905339717865	movie	1		301.0	59.0	2.5	/experiments/knapen_aot/videos/S_yt-KpOAdMtPGFs_17.mp4	0.0	232.7922239303589	2.5083370208740234
61	173.59887099266052	fix_post	2		12.0	59.0	2.5	/experiments/knapen_aot/videos/S_yt-KpOAdMtPGFs_17.mp4	0.0	235.3005609512329	0.10001611709594727
62	173.69888710975647	fix_pre	0		22.0	60.0	2.5	/experiments/knapen_aot/videos/R_S_yt-W00vtWnXgIk_73.mp4	0.0	235.40057706832886	0.1832900047302246
62	173.8739869594574	response	0	2		60.0	2.5	/experiments/knapen_aot/videos/R_S_yt-W00vtWnXgIk_73.mp4	0.0	235.57567691802979	
62	173.8821771144867	movie	1		299.0	60.0	2.5	/experiments/knapen_aot/videos/R_S_yt-W00vtWnXgIk_73.mp4	0.0	235.58386707305908	2.5082998275756836
62	176.39047694206238	fix_post	2		12.0	60.0	2.5	/experiments/knapen_aot/videos/R_S_yt-W00vtWnXgIk_73.mp4	0.0	238.09216690063477	0.09992218017578125
63	176.49039912223816	fix_pre	0		15.0	61.0	2.5	/experiments/knapen_aot/videos/S_yt-SRozDkhwx28_1463.mp4	0.0	238.19208908081055	0.12506985664367676
63	176.60729598999023	response	0	2		61.0	2.5	/experiments/knapen_aot/videos/S_yt-SRozDkhwx28_1463.mp4	0.0	238.30898594856262	
63	176.61546897888184	movie	1		301.0	61.0	2.5	/experiments/knapen_aot/videos/S_yt-SRozDkhwx28_1463.mp4	0.0	238.31715893745422	2.508333921432495
63	179.12380290031433	fix_post	2		12.0	61.0	2.5	/experiments/knapen_aot/videos/S_yt-SRozDkhwx28_1463.mp4	0.0	240.82549285888672	0.0999751091003418
64	179.22377800941467	fix_pre	0		27.0	62.0	2.5	blank	1.0	240.92546796798706	0.22497105598449707
64	179.44056105613708	response	0	2		62.0	2.5	blank	1.0	241.14225101470947	
64	179.44874906539917	movie	1		301.0	62.0	2.5	blank	1.0	241.15043902397156	2.5083730220794678
64	181.95712208747864	fix_post	2		12.0	62.0	2.5	blank	1.0	243.65881204605103	0.09992504119873047
65	182.05704712867737	fix_pre	0		27.0	63.0	2.5	/experiments/knapen_aot/videos/S_yt-W00vtWnXgIk_73.mp4	0.0	243.75873708724976	0.22504091262817383
65	182.27387809753418	response	0	2		63.0	2.5	/experiments/knapen_aot/videos/S_yt-W00vtWnXgIk_73.mp4	0.0	243.97556805610657	
65	182.28208804130554	movie	1		299.0	63.0	2.5	/experiments/knapen_aot/videos/S_yt-W00vtWnXgIk_73.mp4	0.0	243.98377799987793	2.5082929134368896
65	184.79038095474243	fix_post	2		12.0	63.0	2.5	/experiments/knapen_aot/videos/S_yt-W00vtWnXgIk_73.mp4	0.0	246.49207091331482	0.10005903244018555
66	184.89043998718262	fix_pre	0		16.0	64.0	2.5	/experiments/knapen_aot/videos/R_S_yt-etF_WUW5D68_3.mp4	0.0	246.592129945755	0.13330698013305664
66	185.00799012184143	response	0	2		64.0	2.5	/experiments/knapen_aot/videos/R_S_yt-etF_WUW5D68_3.mp4	0.0	246.70968008041382	
66	185.02374696731567	movie	1		301.0	64.0	2.5	/experiments/knapen_aot/videos/R_S_yt-etF_WUW5D68_3.mp4	0.0	246.72543692588806	2.508366107940674
66	187.53211307525635	fix_post	2		12.0	64.0	2.5	/experiments/knapen_aot/videos/R_S_yt-etF_WUW5D68_3.mp4	0.0	249.23380303382874	0.09996294975280762
67	187.63207602500916	fix_pre	0		13.0	65.0	2.5	/experiments/knapen_aot/videos/S_yt-z16pdVTZK1o_3.mp4	0.0	249.33376598358154	0.10833191871643066
67	187.73231601715088	response	0	2		65.0	2.5	/experiments/knapen_aot/videos/S_yt-z16pdVTZK1o_3.mp4	0.0	249.43400597572327	
67	187.7404079437256	movie	1		301.0	65.0	2.5	/experiments/knapen_aot/videos/S_yt-z16pdVTZK1o_3.mp4	0.0	249.44209790229797	2.508242130279541
67	190.24865007400513	fix_post	2		12.0	65.0	2.5	/experiments/knapen_aot/videos/S_yt-z16pdVTZK1o_3.mp4	0.0	251.95034003257751	0.10064101219177246
68	190.3492910861969	fix_pre	0		56.0	66.0	2.5	/experiments/knapen_aot/videos/S_production_ID_4101307.mp4	0.0	252.0509810447693	0.4660468101501465
68	190.80721306800842	response	0	2		66.0	2.5	/experiments/knapen_aot/videos/S_production_ID_4101307.mp4	0.0	252.5089030265808	
68	190.81533789634705	movie	1		189.0	66.0	2.5	/experiments/knapen_aot/videos/S_production_ID_4101307.mp4	0.0	252.51702785491943	2.5084421634674072
68	193.32378005981445	fix_post	2		12.0	66.0	2.5	/experiments/knapen_aot/videos/S_production_ID_4101307.mp4	0.0	255.02547001838684	0.09999489784240723
69	193.42377495765686	fix_pre	0		16.0	67.0	2.5	/experiments/knapen_aot/videos/R_S_yt-gDZnJCR2uXI_18.mp4	0.0	255.12546491622925	0.1338210105895996
69	193.54885911941528	response	0	2		67.0	2.5	/experiments/knapen_aot/videos/R_S_yt-gDZnJCR2uXI_18.mp4	0.0	255.25054907798767	
69	193.55759596824646	movie	1		298.0	67.0	2.5	/experiments/knapen_aot/videos/R_S_yt-gDZnJCR2uXI_18.mp4	0.0	255.25928592681885	2.507840156555176
69	196.06543612480164	fix_post	2		12.0	67.0	2.5	/experiments/knapen_aot/videos/R_S_yt-gDZnJCR2uXI_18.mp4	0.0	257.767126083374	0.09999895095825195
70	196.1654350757599	fix_pre	0		40.0	68.0	2.5	/experiments/knapen_aot/videos/S_comp_C003_C003_PS_v01_SDR_PS_20180925_SDR_2K_AVC.mp4	0.0	257.8671250343323	0.3332839012145996
70	196.49062204360962	response	0	2		68.0	2.5	/experiments/knapen_aot/videos/S_comp_C003_C003_PS_v01_SDR_PS_20180925_SDR_2K_AVC.mp4	0.0	258.192312002182	
70	196.4987189769745	movie	1		164.0	68.0	2.5	/experiments/knapen_aot/videos/S_comp_C003_C003_PS_v01_SDR_PS_20180925_SDR_2K_AVC.mp4	0.0	258.2004089355469	2.5084049701690674
70	199.00712394714355	fix_post	2		12.0	68.0	2.5	/experiments/knapen_aot/videos/S_comp_C003_C003_PS_v01_SDR_PS_20180925_SDR_2K_AVC.mp4	0.0	260.70881390571594	0.09995102882385254
71	199.1070749759674	fix_pre	0		27.0	69.0	2.5	/experiments/knapen_aot/videos/R_S_yt-NQSCGMpo-p8_118.mp4	0.0	260.8087649345398	0.22501397132873535
71	199.3239119052887	response	0	2		69.0	2.5	/experiments/knapen_aot/videos/R_S_yt-NQSCGMpo-p8_118.mp4	0.0	261.0256018638611	
71	199.33208894729614	movie	1		300.0	69.0	2.5	/experiments/knapen_aot/videos/R_S_yt-NQSCGMpo-p8_118.mp4	0.0	261.03377890586853	2.5082390308380127
71	201.84032797813416	fix_post	2		12.0	69.0	2.5	/experiments/knapen_aot/videos/R_S_yt-NQSCGMpo-p8_118.mp4	0.0	263.54201793670654	0.09994912147521973
72	201.94027709960938	fix_pre	0		24.0	70.0	2.5	blank	1.0	263.64196705818176	0.20055890083312988
72	202.1321198940277	response	0	2		70.0	2.5	blank	1.0	263.8338098526001	
72	202.1408360004425	movie	1		301.0	70.0	2.5	blank	1.0	263.8425259590149	2.507812976837158
72	204.64864897727966	fix_post	2		12.0	70.0	2.5	blank	1.0	266.35033893585205	0.10000991821289062
73	204.74865889549255	fix_pre	0		64.0	71.0	2.5	/experiments/knapen_aot/videos/R_S_yt-x7TqP8l4lCA_39.mp4	0.0	266.45034885406494	0.5333311557769775
73	205.27386498451233	response	0	2		71.0	2.5	/experiments/knapen_aot/videos/R_S_yt-x7TqP8l4lCA_39.mp4	0.0	266.9755549430847	
73	205.28199005126953	movie	1		301.0	71.0	2.5	/experiments/knapen_aot/videos/R_S_yt-x7TqP8l4lCA_39.mp4	0.0	266.9836800098419	2.5083630084991455
73	207.79035305976868	fix_post	2		12.0	71.0	2.5	/experiments/knapen_aot/videos/R_S_yt-x7TqP8l4lCA_39.mp4	0.0	269.49204301834106	0.10000205039978027
74	207.89035511016846	fix_pre	0		71.0	72.0	2.5	/experiments/knapen_aot/videos/R_S_pexels-koolshooters-7327412_1.mp4	0.0	269.59204506874084	0.5915799140930176
74	208.4662320613861	response	0	2		72.0	2.5	/experiments/knapen_aot/videos/R_S_pexels-koolshooters-7327412_1.mp4	0.0	270.1679220199585	
74	208.48193502426147	movie	1		164.0	72.0	2.5	/experiments/knapen_aot/videos/R_S_pexels-koolshooters-7327412_1.mp4	0.0	270.18362498283386	2.508413076400757
74	210.99034810066223	fix_post	2		12.0	72.0	2.5	/experiments/knapen_aot/videos/R_S_pexels-koolshooters-7327412_1.mp4	0.0	272.6920380592346	0.09992098808288574
75	211.09026908874512	fix_pre	0		18.0	73.0	2.5	/experiments/knapen_aot/videos/S_yt-3E02UEHdoZ4_752.mp4	0.0	272.7919590473175	0.15007781982421875
75	211.2320909500122	response	0	2		73.0	2.5	/experiments/knapen_aot/videos/S_yt-3E02UEHdoZ4_752.mp4	0.0	272.9337809085846	
75	211.24034690856934	movie	1		301.0	73.0	2.5	/experiments/knapen_aot/videos/S_yt-3E02UEHdoZ4_752.mp4	0.0	272.9420368671417	2.5082859992980957
75	213.74863290786743	fix_post	2		12.0	73.0	2.5	/experiments/knapen_aot/videos/S_yt-3E02UEHdoZ4_752.mp4	0.0	275.4503228664398	0.10002303123474121
76	213.84865593910217	fix_pre	0		26.0	74.0	2.5	/experiments/knapen_aot/videos/R_S_ILSVRC2015_train_00405001.mp4	0.0	275.55034589767456	0.21668505668640137
76	214.05704402923584	response	0	2		74.0	2.5	/experiments/knapen_aot/videos/R_S_ILSVRC2015_train_00405001.mp4	0.0	275.7587339878082	
76	214.06534099578857	movie	1		301.0	74.0	2.5	/experiments/knapen_aot/videos/R_S_ILSVRC2015_train_00405001.mp4	0.0	275.76703095436096	2.5083041191101074
76	216.57364511489868	fix_post	2		12.0	74.0	2.5	/experiments/knapen_aot/videos/R_S_ILSVRC2015_train_00405001.mp4	0.0	278.27533507347107	0.10008883476257324
77	216.67373394966125	fix_pre	0		31.0	75.0	2.5	/experiments/knapen_aot/videos/R_S_yt-ZBhTpmrAlUY_70.mp4	0.0	278.37542390823364	0.25862598419189453
77	216.92372703552246	response	0	2		75.0	2.5	/experiments/knapen_aot/videos/R_S_yt-ZBhTpmrAlUY_70.mp4	0.0	278.62541699409485	
77	216.93235993385315	movie	1		301.0	75.0	2.5	/experiments/knapen_aot/videos/R_S_yt-ZBhTpmrAlUY_70.mp4	0.0	278.63404989242554	2.5079309940338135
77	219.44029092788696	fix_post	2		12.0	75.0	2.5	/experiments/knapen_aot/videos/R_S_yt-ZBhTpmrAlUY_70.mp4	0.0	281.14198088645935	0.09999608993530273
78	219.54028701782227	fix_pre	0		78.0	76.0	2.5	/experiments/knapen_aot/videos/S_comp_C003_C003_PS_v01_SDR_PS_20180925_SDR_2K_AVC.mp4	0.0	281.24197697639465	0.6500139236450195
78	220.18217992782593	response	0	2		76.0	2.5	/experiments/knapen_aot/videos/S_comp_C003_C003_PS_v01_SDR_PS_20180925_SDR_2K_AVC.mp4	0.0	281.8838698863983	
78	220.19030094146729	movie	1		164.0	76.0	2.5	/experiments/knapen_aot/videos/S_comp_C003_C003_PS_v01_SDR_PS_20180925_SDR_2K_AVC.mp4	0.0	281.8919909000397	2.508362054824829
78	222.69866299629211	fix_post	2		12.0	76.0	2.5	/experiments/knapen_aot/videos/S_comp_C003_C003_PS_v01_SDR_PS_20180925_SDR_2K_AVC.mp4	0.0	284.4003529548645	0.0998849868774414
79	222.79854798316956	fix_pre	0		16.0	77.0	2.5	blank	1.0	284.50023794174194	0.1338050365447998
79	222.92374300956726	response	0	2		77.0	2.5	blank	1.0	284.62543296813965	
79	222.93235301971436	movie	1		301.0	77.0	2.5	blank	1.0	284.63404297828674	2.5079009532928467
79	225.4402539730072	fix_post	2		12.0	77.0	2.5	blank	1.0	287.1419439315796	0.10000205039978027
80	225.54025602340698	fix_pre	0		56.0	78.0	2.5	/experiments/knapen_aot/videos/S_comp_H007_C003_PS_v01_SDR_PS_20180925_SDR_2K_AVC.mp4	0.0	287.24194598197937	0.46666407585144043
80	225.99881196022034	response	0	2		78.0	2.5	/experiments/knapen_aot/videos/S_comp_H007_C003_PS_v01_SDR_PS_20180925_SDR_2K_AVC.mp4	0.0	287.7005019187927	
80	226.00692009925842	movie	1		172.0	78.0	2.5	/experiments/knapen_aot/videos/S_comp_H007_C003_PS_v01_SDR_PS_20180925_SDR_2K_AVC.mp4	0.0	287.7086100578308	2.508340835571289
80	228.5152609348297	fix_post	2		12.0	78.0	2.5	/experiments/knapen_aot/videos/S_comp_H007_C003_PS_v01_SDR_PS_20180925_SDR_2K_AVC.mp4	0.0	290.2169508934021	0.0999910831451416
81	228.61525201797485	fix_pre	0		1.0	79.0	2.5	/experiments/knapen_aot/videos/S_ILSVRC2015_train_00574000.mp4	0.0	290.31694197654724	0.008322000503540039
81	228.61691308021545	response	0	2		79.0	2.5	/experiments/knapen_aot/videos/S_ILSVRC2015_train_00574000.mp4	0.0	290.31860303878784	
81	228.6235740184784	movie	1		299.0	79.0	2.5	/experiments/knapen_aot/videos/S_ILSVRC2015_train_00574000.mp4	0.0	290.3252639770508	2.5082950592041016
81	231.1318690776825	fix_post	2		12.0	79.0	2.5	/experiments/knapen_aot/videos/S_ILSVRC2015_train_00574000.mp4	0.0	292.8335590362549	0.10001897811889648
82	231.2318880558014	fix_pre	0		14.0	80.0	2.5	/experiments/knapen_aot/videos/R_S_yt-nMWqezngycw_10.mp4	0.0	292.9335780143738	0.11700105667114258
82	231.34039497375488	response	0	2		80.0	2.5	/experiments/knapen_aot/videos/R_S_yt-nMWqezngycw_10.mp4	0.0	293.04208493232727	
82	231.34888911247253	movie	1		301.0	80.0	2.5	/experiments/knapen_aot/videos/R_S_yt-nMWqezngycw_10.mp4	0.0	293.0505790710449	2.508030891418457
82	233.856920003891	fix_post	2		12.0	80.0	2.5	/experiments/knapen_aot/videos/R_S_yt-nMWqezngycw_10.mp4	0.0	295.5586099624634	0.10002994537353516
83	233.95694994926453	fix_pre	0		16.0	81.0	2.5	/experiments/knapen_aot/videos/R_S_yt-oVS_k_9upmo_205.mp4	0.0	295.6586399078369	0.13327813148498535
83	234.08201599121094	response	0	2		81.0	2.5	/experiments/knapen_aot/videos/R_S_yt-oVS_k_9upmo_205.mp4	0.0	295.7837059497833	
83	234.0902280807495	movie	1		301.0	81.0	2.5	/experiments/knapen_aot/videos/R_S_yt-oVS_k_9upmo_205.mp4	0.0	295.7919180393219	2.508270025253296
83	236.5984981060028	fix_post	2		12.0	81.0	2.5	/experiments/knapen_aot/videos/R_S_yt-oVS_k_9upmo_205.mp4	0.0	298.3001880645752	0.10004782676696777
84	236.69854593276978	fix_pre	0		5.0	82.0	2.5	/experiments/knapen_aot/videos/R_S_yt-ybH6uAiFbjc_273.mp4	0.0	298.40023589134216	0.04165315628051758
84	236.7321228981018	response	0	2		82.0	2.5	/experiments/knapen_aot/videos/R_S_yt-ybH6uAiFbjc_273.mp4	0.0	298.4338128566742	
84	236.7401990890503	movie	1		301.0	82.0	2.5	/experiments/knapen_aot/videos/R_S_yt-ybH6uAiFbjc_273.mp4	0.0	298.4418890476227	2.5083558559417725
84	239.24855494499207	fix_post	2		12.0	82.0	2.5	/experiments/knapen_aot/videos/R_S_yt-ybH6uAiFbjc_273.mp4	0.0	300.95024490356445	0.10026407241821289
84	239.25107789039612	response	2	2		82.0	2.5	/experiments/knapen_aot/videos/R_S_yt-ybH6uAiFbjc_273.mp4	0.0	300.9527678489685	
85	239.34881901741028	fix_pre	0		23.0	83.0	2.5	blank	1.0	301.05050897598267	0.19139409065246582
85	239.53197312355042	response	0	2		83.0	2.5	blank	1.0	301.2336630821228	
85	239.54021310806274	movie	1		301.0	83.0	2.5	blank	1.0	301.24190306663513	2.508335828781128
85	242.04854893684387	fix_post	2		12.0	83.0	2.5	blank	1.0	303.75023889541626	0.0999600887298584
87	242.14850902557373	stim	0		516.0					303.8501989841461	4.304430961608887
87	242.33192896842957	response	0	2						304.03361892700195	
87	246.4441521167755	response	0	space						308.1458420753479	
