trial_nr	onset	event_type	phase	response	nr_frames	movie_index	movie_duration	movie_file	blank	onset_abs	duration
0	0.15338397026062012	stim	0		35.0					58.91169595718384	0.29193592071533203
0	0.437532901763916	response	0	space						59.195844888687134	
1	0.44531989097595215	stim	0		121.0					59.20363187789917	1.0081660747528076
1	1.4534859657287598	stim	1		120.0					60.21179795265198	0.9996428489685059
2	2.4531288146972656	fix_pre	0		80.0	0.0	2.5	/experiments/knapen_aot/videos/S_pexels-mikhail-nilov-8410063.mp4	0.0	61.21144080162048	0.6666390895843506
2	3.1115968227386475	response	0	space		0.0	2.5	/experiments/knapen_aot/videos/S_pexels-mikhail-nilov-8410063.mp4	0.0	61.869908809661865	
2	3.119767904281616	movie	1		170.0	0.0	2.5	/experiments/knapen_aot/videos/S_pexels-mikhail-nilov-8410063.mp4	0.0	61.878079891204834	2.5083489418029785
2	5.628116846084595	fix_post	2		12.0	0.0	2.5	/experiments/knapen_aot/videos/S_pexels-mikhail-nilov-8410063.mp4	0.0	64.38642883300781	0.0999600887298584
2	5.703850984573364	response	2	2		0.0	2.5	/experiments/knapen_aot/videos/S_pexels-mikhail-nilov-8410063.mp4	0.0	64.46216297149658	
3	5.728076934814453	fix_pre	0		35.0	1.0	2.5	/experiments/knapen_aot/videos/S_ILSVRC2015_train_00450001.mp4	0.0	64.48638892173767	0.292294979095459
3	6.011526823043823	response	0	2		1.0	2.5	/experiments/knapen_aot/videos/S_ILSVRC2015_train_00450001.mp4	0.0	64.76983880996704	
3	6.020371913909912	movie	1		301.0	1.0	2.5	/experiments/knapen_aot/videos/S_ILSVRC2015_train_00450001.mp4	0.0	64.77868390083313	2.507737874984741
3	8.528109788894653	fix_post	2		12.0	1.0	2.5	/experiments/knapen_aot/videos/S_ILSVRC2015_train_00450001.mp4	0.0	67.28642177581787	0.10000419616699219
4	8.628113985061646	fix_pre	0		23.0	2.0	2.5	/experiments/knapen_aot/videos/R_S_yt-4NjyKFnwHBo_13.mp4	0.0	67.38642597198486	0.191619873046875
4	8.811617851257324	response	0	2		2.0	2.5	/experiments/knapen_aot/videos/R_S_yt-4NjyKFnwHBo_13.mp4	0.0	67.56992983818054	
4	8.81973385810852	movie	1		301.0	2.0	2.5	/experiments/knapen_aot/videos/R_S_yt-4NjyKFnwHBo_13.mp4	0.0	67.57804584503174	2.5083630084991455
4	11.328096866607666	fix_post	2		12.0	2.0	2.5	/experiments/knapen_aot/videos/R_S_yt-4NjyKFnwHBo_13.mp4	0.0	70.08640885353088	0.09997200965881348
5	11.42806887626648	fix_pre	0		20.0	3.0	2.5	/experiments/knapen_aot/videos/S_yt-q9-_bG9ry3E_5.mp4	0.0	70.1863808631897	0.16665911674499512
5	11.586473941802979	response	0	2		3.0	2.5	/experiments/knapen_aot/videos/S_yt-q9-_bG9ry3E_5.mp4	0.0	70.3447859287262	
5	11.594727993011475	movie	1		301.0	3.0	2.5	/experiments/knapen_aot/videos/S_yt-q9-_bG9ry3E_5.mp4	0.0	70.35303997993469	2.5082778930664062
5	14.10300588607788	fix_post	2		12.0	3.0	2.5	/experiments/knapen_aot/videos/S_yt-q9-_bG9ry3E_5.mp4	0.0	72.8613178730011	0.10009503364562988
6	14.20310091972351	fix_pre	0		8.0	4.0	2.5	/experiments/knapen_aot/videos/R_S_yt-x7TqP8l4lCA_39.mp4	0.0	72.96141290664673	0.0671839714050293
6	14.261530876159668	response	0	2		4.0	2.5	/experiments/knapen_aot/videos/R_S_yt-x7TqP8l4lCA_39.mp4	0.0	73.01984286308289	
6	14.27028489112854	movie	1		301.0	4.0	2.5	/experiments/knapen_aot/videos/R_S_yt-x7TqP8l4lCA_39.mp4	0.0	73.02859687805176	2.5077080726623535
6	16.777992963790894	fix_post	2		12.0	4.0	2.5	/experiments/knapen_aot/videos/R_S_yt-x7TqP8l4lCA_39.mp4	0.0	75.53630495071411	0.10006189346313477
7	16.87805485725403	fix_pre	0		11.0	5.0	2.5	blank	1.0	75.63636684417725	0.09168696403503418
7	16.961472988128662	response	0	2		5.0	2.5	blank	1.0	75.71978497505188	
7	16.969741821289062	movie	1		301.0	5.0	2.5	blank	1.0	75.72805380821228	2.508352041244507
7	19.47809386253357	fix_post	2		12.0	5.0	2.5	blank	1.0	78.23640584945679	0.09997200965881348
8	19.578065872192383	fix_pre	0		36.0	6.0	2.5	/experiments/knapen_aot/videos/S_comp_L010_C006_PS_v01_SDR_PS_20180925_SDR_2K_AVC.mp4	0.0	78.3363778591156	0.2999889850616455
8	19.869902849197388	response	0	2		6.0	2.5	/experiments/knapen_aot/videos/S_comp_L010_C006_PS_v01_SDR_PS_20180925_SDR_2K_AVC.mp4	0.0	78.6282148361206	
8	19.87805485725403	movie	1		164.0	6.0	2.5	/experiments/knapen_aot/videos/S_comp_L010_C006_PS_v01_SDR_PS_20180925_SDR_2K_AVC.mp4	0.0	78.63636684417725	2.5082621574401855
8	22.386317014694214	fix_post	2		12.0	6.0	2.5	/experiments/knapen_aot/videos/S_comp_L010_C006_PS_v01_SDR_PS_20180925_SDR_2K_AVC.mp4	0.0	81.14462900161743	0.10001182556152344
9	22.486328840255737	fix_pre	0		9.0	7.0	2.5	/experiments/knapen_aot/videos/S_yt-IDpUZ2NWBUY_60.mp4	0.0	81.24464082717896	0.07554101943969727
9	22.55318593978882	response	0	2		7.0	2.5	/experiments/knapen_aot/videos/S_yt-IDpUZ2NWBUY_60.mp4	0.0	81.31149792671204	
9	22.561869859695435	movie	1		301.0	7.0	2.5	/experiments/knapen_aot/videos/S_yt-IDpUZ2NWBUY_60.mp4	0.0	81.32018184661865	2.507838010787964
9	25.0697078704834	fix_post	2		12.0	7.0	2.5	/experiments/knapen_aot/videos/S_yt-IDpUZ2NWBUY_60.mp4	0.0	83.82801985740662	0.09997200965881348
10	25.169679880142212	fix_pre	0		25.0	8.0	2.5	/experiments/knapen_aot/videos/S_yt-aqrdb6BiFx4_12.mp4	0.0	83.92799186706543	0.20836591720581055
10	25.369871854782104	response	0	2		8.0	2.5	/experiments/knapen_aot/videos/S_yt-aqrdb6BiFx4_12.mp4	0.0	84.12818384170532	
10	25.378045797348022	movie	1		301.0	8.0	2.5	/experiments/knapen_aot/videos/S_yt-aqrdb6BiFx4_12.mp4	0.0	84.13635778427124	2.508303165435791
10	27.886348962783813	fix_post	2		12.0	8.0	2.5	/experiments/knapen_aot/videos/S_yt-aqrdb6BiFx4_12.mp4	0.0	86.64466094970703	0.10011792182922363
11	27.986466884613037	fix_pre	0		35.0	9.0	2.5	/experiments/knapen_aot/videos/S_yt-xQPKYWDRy2A_491.mp4	0.0	86.74477887153625	0.29152894020080566
11	28.269766807556152	response	0	2		9.0	2.5	/experiments/knapen_aot/videos/S_yt-xQPKYWDRy2A_491.mp4	0.0	87.02807879447937	
11	28.277995824813843	movie	1		301.0	9.0	2.5	/experiments/knapen_aot/videos/S_yt-xQPKYWDRy2A_491.mp4	0.0	87.03630781173706	2.5083720684051514
11	30.786367893218994	fix_post	2		12.0	9.0	2.5	/experiments/knapen_aot/videos/S_yt-xQPKYWDRy2A_491.mp4	0.0	89.54467988014221	0.09995102882385254
12	30.886318922042847	fix_pre	0		29.0	10.0	2.5	/experiments/knapen_aot/videos/S_yt-jUGt_Byqczw_599.mp4	0.0	89.64463090896606	0.2416379451751709
12	31.11981987953186	response	0	2		10.0	2.5	/experiments/knapen_aot/videos/S_yt-jUGt_Byqczw_599.mp4	0.0	89.87813186645508	
12	31.127956867218018	movie	1		301.0	10.0	2.5	/experiments/knapen_aot/videos/S_yt-jUGt_Byqczw_599.mp4	0.0	89.88626885414124	2.5082640647888184
12	33.636220932006836	fix_post	2		12.0	10.0	2.5	/experiments/knapen_aot/videos/S_yt-jUGt_Byqczw_599.mp4	0.0	92.39453291893005	0.10013985633850098
13	33.73636078834534	fix_pre	0		25.0	11.0	2.5	/experiments/knapen_aot/videos/S_yt-x6tYi0lRGqU_114.mp4	0.0	92.49467277526855	0.2083120346069336
13	33.92894387245178	response	0	2		11.0	2.5	/experiments/knapen_aot/videos/S_yt-x6tYi0lRGqU_114.mp4	0.0	92.687255859375	
13	33.94467282295227	movie	1		301.0	11.0	2.5	/experiments/knapen_aot/videos/S_yt-x6tYi0lRGqU_114.mp4	0.0	92.70298480987549	2.508397102355957
13	36.45306992530823	fix_post	2		12.0	11.0	2.5	/experiments/knapen_aot/videos/S_yt-x6tYi0lRGqU_114.mp4	0.0	95.21138191223145	0.10181808471679688
14	36.554888010025024	fix_pre	0		25.0	12.0	2.5	/experiments/knapen_aot/videos/R_S_yt-PreGL81PEP4_61.mp4	0.0	95.31319999694824	0.2064359188079834
14	36.75313687324524	response	0	2		12.0	2.5	/experiments/knapen_aot/videos/R_S_yt-PreGL81PEP4_61.mp4	0.0	95.51144886016846	
14	36.76132392883301	movie	1		301.0	12.0	2.5	/experiments/knapen_aot/videos/R_S_yt-PreGL81PEP4_61.mp4	0.0	95.51963591575623	2.50832200050354
14	39.26964592933655	fix_post	2		12.0	12.0	2.5	/experiments/knapen_aot/videos/R_S_yt-PreGL81PEP4_61.mp4	0.0	98.02795791625977	0.10001397132873535
14	39.3031268119812	response	2	2		12.0	2.5	/experiments/knapen_aot/videos/R_S_yt-PreGL81PEP4_61.mp4	0.0	98.06143879890442	
15	39.36965990066528	fix_pre	0		48.0	13.0	2.5	blank	1.0	98.1279718875885	0.4004380702972412
15	39.7613959312439	response	0	2		13.0	2.5	blank	1.0	98.51970791816711	
15	39.770097970962524	movie	1		301.0	13.0	2.5	blank	1.0	98.52840995788574	2.5078859329223633
15	42.27798390388489	fix_post	2		12.0	13.0	2.5	blank	1.0	101.0362958908081	0.09998106956481934
16	42.37796497344971	fix_pre	0		43.0	14.0	2.5	/experiments/knapen_aot/videos/S_wc-hmW1OnCPF_xn_37.mp4	0.0	101.13627696037292	0.3583228588104248
16	42.72053599357605	response	0	2		14.0	2.5	/experiments/knapen_aot/videos/S_wc-hmW1OnCPF_xn_37.mp4	0.0	101.47884798049927	
16	42.73628783226013	movie	1		166.0	14.0	2.5	/experiments/knapen_aot/videos/S_wc-hmW1OnCPF_xn_37.mp4	0.0	101.49459981918335	2.5083200931549072
16	45.24460792541504	fix_post	2		12.0	14.0	2.5	/experiments/knapen_aot/videos/S_wc-hmW1OnCPF_xn_37.mp4	0.0	104.00291991233826	0.09990787506103516
17	45.344515800476074	fix_pre	0		168.0	15.0	2.5	/experiments/knapen_aot/videos/R_S_yt-Fm97IY0Z2LU_110.mp4	0.0	104.10282778739929	1.400068998336792
17	46.73644685745239	response	0	2		15.0	2.5	/experiments/knapen_aot/videos/R_S_yt-Fm97IY0Z2LU_110.mp4	0.0	105.49475884437561	
17	46.744584798812866	movie	1		301.0	15.0	2.5	/experiments/knapen_aot/videos/R_S_yt-Fm97IY0Z2LU_110.mp4	0.0	105.50289678573608	2.508352041244507
17	49.25293684005737	fix_post	2		12.0	15.0	2.5	/experiments/knapen_aot/videos/R_S_yt-Fm97IY0Z2LU_110.mp4	0.0	108.01124882698059	0.1004171371459961
18	49.35335397720337	fix_pre	0		156.0	16.0	2.5	/experiments/knapen_aot/videos/R_S_video_inspire_texas_austin_oct2019_evening_00085.1080-h264.mp4	0.0	108.11166596412659	1.299644947052002
18	50.644712924957275	response	0	2		16.0	2.5	/experiments/knapen_aot/videos/R_S_video_inspire_texas_austin_oct2019_evening_00085.1080-h264.mp4	0.0	109.4030249118805	
18	50.65299892425537	movie	1		174.0	16.0	2.5	/experiments/knapen_aot/videos/R_S_video_inspire_texas_austin_oct2019_evening_00085.1080-h264.mp4	0.0	109.41131091117859	2.508280038833618
18	53.16127896308899	fix_post	2		12.0	16.0	2.5	/experiments/knapen_aot/videos/R_S_video_inspire_texas_austin_oct2019_evening_00085.1080-h264.mp4	0.0	111.9195909500122	0.09995794296264648
19	53.261236906051636	fix_pre	0		149.0	17.0	2.5	/experiments/knapen_aot/videos/S_X-D3lUv-atE_376.mp4	0.0	112.01954889297485	1.241663932800293
19	54.49474000930786	response	0	4		17.0	2.5	/experiments/knapen_aot/videos/S_X-D3lUv-atE_376.mp4	0.0	113.25305199623108	
19	54.50290083885193	movie	1		301.0	17.0	2.5	/experiments/knapen_aot/videos/S_X-D3lUv-atE_376.mp4	0.0	113.26121282577515	2.5083580017089844
19	54.51128792762756	response	1	2		17.0	2.5	/experiments/knapen_aot/videos/S_X-D3lUv-atE_376.mp4	0.0	113.26959991455078	
19	57.01125884056091	fix_post	2		12.0	17.0	2.5	/experiments/knapen_aot/videos/S_X-D3lUv-atE_376.mp4	0.0	115.76957082748413	0.09994912147521973
20	57.11120796203613	fix_pre	0		104.0	18.0	2.5	/experiments/knapen_aot/videos/R_S_yt-GBt59U0KUR0_6.mp4	0.0	115.86951994895935	0.8669939041137695
20	57.96969699859619	response	0	2		18.0	2.5	/experiments/knapen_aot/videos/R_S_yt-GBt59U0KUR0_6.mp4	0.0	116.72800898551941	
20	57.9782018661499	movie	1		301.0	18.0	2.5	/experiments/knapen_aot/videos/R_S_yt-GBt59U0KUR0_6.mp4	0.0	116.73651385307312	2.5080060958862305
20	60.48620796203613	fix_post	2		12.0	18.0	2.5	/experiments/knapen_aot/videos/R_S_yt-GBt59U0KUR0_6.mp4	0.0	119.24451994895935	0.10002493858337402
21	60.58623290061951	fix_pre	0		9.0	19.0	2.5	/experiments/knapen_aot/videos/S_comp_A105_C002_v06_SDR_FINAL_25062018_SDR_2K_AVC.mp4	0.0	119.34454488754272	0.07490992546081543
21	60.652992963790894	response	0	2		19.0	2.5	/experiments/knapen_aot/videos/S_comp_A105_C002_v06_SDR_FINAL_25062018_SDR_2K_AVC.mp4	0.0	119.41130495071411	
21	60.66114282608032	movie	1		169.0	19.0	2.5	/experiments/knapen_aot/videos/S_comp_A105_C002_v06_SDR_FINAL_25062018_SDR_2K_AVC.mp4	0.0	119.41945481300354	2.508362054824829
21	63.16950488090515	fix_post	2		12.0	19.0	2.5	/experiments/knapen_aot/videos/S_comp_A105_C002_v06_SDR_FINAL_25062018_SDR_2K_AVC.mp4	0.0	121.92781686782837	0.10039210319519043
22	63.26989698410034	fix_pre	0		21.0	20.0	2.5	/experiments/knapen_aot/videos/R_S_yt-LhP0mZ6xxIg_111.mp4	0.0	122.02820897102356	0.17459392547607422
22	63.43635392189026	response	0	2		20.0	2.5	/experiments/knapen_aot/videos/R_S_yt-LhP0mZ6xxIg_111.mp4	0.0	122.19466590881348	
22	63.444490909576416	movie	1		301.0	20.0	2.5	/experiments/knapen_aot/videos/R_S_yt-LhP0mZ6xxIg_111.mp4	0.0	122.20280289649963	2.5083229541778564
22	65.95281386375427	fix_post	2		12.0	20.0	2.5	/experiments/knapen_aot/videos/R_S_yt-LhP0mZ6xxIg_111.mp4	0.0	124.71112585067749	0.09993910789489746
23	66.05275297164917	fix_pre	0		48.0	21.0	2.5	blank	1.0	124.81106495857239	0.4000418186187744
23	66.4446849822998	response	0	2		21.0	2.5	blank	1.0	125.20299696922302	
23	66.45279479026794	movie	1		301.0	21.0	2.5	blank	1.0	125.21110677719116	2.50839900970459
23	68.96119379997253	fix_post	2		12.0	21.0	2.5	blank	1.0	127.71950578689575	0.10026907920837402
24	69.06146287918091	fix_pre	0		22.0	22.0	2.5	/experiments/knapen_aot/videos/R_S_pexels-cottonbro-6844209.mp4	0.0	127.81977486610413	0.183013916015625
24	69.2362289428711	response	0	2		22.0	2.5	/experiments/knapen_aot/videos/R_S_pexels-cottonbro-6844209.mp4	0.0	127.99454092979431	
24	69.24447679519653	movie	1		198.0	22.0	2.5	/experiments/knapen_aot/videos/R_S_pexels-cottonbro-6844209.mp4	0.0	128.00278878211975	2.5083491802215576
24	71.75282597541809	fix_post	2		12.0	22.0	2.5	/experiments/knapen_aot/videos/R_S_pexels-cottonbro-6844209.mp4	0.0	130.5111379623413	0.10029196739196777
25	71.85311794281006	fix_pre	0		14.0	23.0	2.5	/experiments/knapen_aot/videos/S_yt-nS2QqSQbjOQ_39.mp4	0.0	130.61142992973328	0.11631083488464355
25	71.96132493019104	response	0	2		23.0	2.5	/experiments/knapen_aot/videos/S_yt-nS2QqSQbjOQ_39.mp4	0.0	130.71963691711426	
25	71.9694287776947	movie	1		300.0	23.0	2.5	/experiments/knapen_aot/videos/S_yt-nS2QqSQbjOQ_39.mp4	0.0	130.72774076461792	2.5086450576782227
25	74.47807383537292	fix_post	2		12.0	23.0	2.5	/experiments/knapen_aot/videos/S_yt-nS2QqSQbjOQ_39.mp4	0.0	133.23638582229614	0.09976410865783691
26	74.57783794403076	fix_pre	0		16.0	24.0	2.5	/experiments/knapen_aot/videos/S_yt-GjFQxAklviE_25.mp4	0.0	133.33614993095398	0.13327598571777344
26	74.70292687416077	response	0	2		24.0	2.5	/experiments/knapen_aot/videos/S_yt-GjFQxAklviE_25.mp4	0.0	133.46123886108398	
26	74.71111392974854	movie	1		301.0	24.0	2.5	/experiments/knapen_aot/videos/S_yt-GjFQxAklviE_25.mp4	0.0	133.46942591667175	2.5084269046783447
26	77.21954083442688	fix_post	2		12.0	24.0	2.5	/experiments/knapen_aot/videos/S_yt-GjFQxAklviE_25.mp4	0.0	135.9778528213501	0.10000300407409668
27	77.31954383850098	fix_pre	0		53.0	25.0	2.5	/experiments/knapen_aot/videos/R_S_yt-nlfwzxlwRfk_12.mp4	0.0	136.0778558254242	0.4416160583496094
27	77.75299501419067	response	0	2		25.0	2.5	/experiments/knapen_aot/videos/R_S_yt-nlfwzxlwRfk_12.mp4	0.0	136.5113070011139	
27	77.76115989685059	movie	1		301.0	25.0	2.5	/experiments/knapen_aot/videos/R_S_yt-nlfwzxlwRfk_12.mp4	0.0	136.5194718837738	2.5085949897766113
27	80.2697548866272	fix_post	2		12.0	25.0	2.5	/experiments/knapen_aot/videos/R_S_yt-nlfwzxlwRfk_12.mp4	0.0	139.02806687355042	0.09977197647094727
28	80.36952686309814	fix_pre	0		28.0	26.0	2.5	/experiments/knapen_aot/videos/S_pexels-pavel-danilyuk-8057714.mp4	0.0	139.12783885002136	0.2335069179534912
28	80.59462881088257	response	0	2		26.0	2.5	/experiments/knapen_aot/videos/S_pexels-pavel-danilyuk-8057714.mp4	0.0	139.3529407978058	
28	80.60303378105164	movie	1		162.0	26.0	2.5	/experiments/knapen_aot/videos/S_pexels-pavel-danilyuk-8057714.mp4	0.0	139.36134576797485	2.5080440044403076
28	83.11107778549194	fix_post	2		12.0	26.0	2.5	/experiments/knapen_aot/videos/S_pexels-pavel-danilyuk-8057714.mp4	0.0	141.86938977241516	0.10004401206970215
28	83.18615484237671	response	2	2		26.0	2.5	/experiments/knapen_aot/videos/S_pexels-pavel-danilyuk-8057714.mp4	0.0	141.94446682929993	
29	83.21112179756165	fix_pre	0		42.0	27.0	2.5	/experiments/knapen_aot/videos/S_yt-2lnxIdOTxog_157.mp4	0.0	141.96943378448486	0.3501851558685303
29	83.55282878875732	response	0	2		27.0	2.5	/experiments/knapen_aot/videos/S_yt-2lnxIdOTxog_157.mp4	0.0	142.31114077568054	
29	83.56130695343018	movie	1		301.0	27.0	2.5	/experiments/knapen_aot/videos/S_yt-2lnxIdOTxog_157.mp4	0.0	142.3196189403534	2.5081169605255127
29	86.06942391395569	fix_post	2		12.0	27.0	2.5	/experiments/knapen_aot/videos/S_yt-2lnxIdOTxog_157.mp4	0.0	144.8277359008789	0.09996294975280762
30	86.1693868637085	fix_pre	0		21.0	28.0	2.5	blank	1.0	144.9276988506317	0.1750190258026123
30	86.32871079444885	response	0	2		28.0	2.5	blank	1.0	145.08702278137207	
30	86.34440588951111	movie	1		301.0	28.0	2.5	blank	1.0	145.10271787643433	2.508538007736206
30	88.85294389724731	fix_post	2		12.0	28.0	2.5	blank	1.0	147.61125588417053	0.09978508949279785
31	88.95272898674011	fix_pre	0		31.0	29.0	2.5	/experiments/knapen_aot/videos/S_yt-RqWnxg1wT-0_41.mp4	0.0	147.71104097366333	0.2583348751068115
31	89.20290493965149	response	0	2		29.0	2.5	/experiments/knapen_aot/videos/S_yt-RqWnxg1wT-0_41.mp4	0.0	147.9612169265747	
31	89.21106386184692	movie	1		301.0	29.0	2.5	/experiments/knapen_aot/videos/S_yt-RqWnxg1wT-0_41.mp4	0.0	147.96937584877014	2.508378028869629
31	91.71944189071655	fix_post	2		12.0	29.0	2.5	/experiments/knapen_aot/videos/S_yt-RqWnxg1wT-0_41.mp4	0.0	150.47775387763977	0.09999203681945801
32	91.81943392753601	fix_pre	0		26.0	30.0	2.5	/experiments/knapen_aot/videos/S_yt-YCjbGOPBQHw_131.mp4	0.0	150.57774591445923	0.21661996841430664
32	92.02786493301392	response	0	2		30.0	2.5	/experiments/knapen_aot/videos/S_yt-YCjbGOPBQHw_131.mp4	0.0	150.78617691993713	
32	92.03605389595032	movie	1		300.0	30.0	2.5	/experiments/knapen_aot/videos/S_yt-YCjbGOPBQHw_131.mp4	0.0	150.79436588287354	2.5083580017089844
32	94.5444118976593	fix_post	2		12.0	30.0	2.5	/experiments/knapen_aot/videos/S_yt-YCjbGOPBQHw_131.mp4	0.0	153.30272388458252	0.10014200210571289
33	94.64455389976501	fix_pre	0		22.0	31.0	2.5	/experiments/knapen_aot/videos/R_S_ILSVRC2015_train_00378000.mp4	0.0	153.40286588668823	0.1831660270690918
33	94.81956887245178	response	0	2		31.0	2.5	/experiments/knapen_aot/videos/R_S_ILSVRC2015_train_00378000.mp4	0.0	153.577880859375	
33	94.8277199268341	movie	1		301.0	31.0	2.5	/experiments/knapen_aot/videos/R_S_ILSVRC2015_train_00378000.mp4	0.0	153.58603191375732	2.508380889892578
33	97.33610081672668	fix_post	2		12.0	31.0	2.5	/experiments/knapen_aot/videos/R_S_ILSVRC2015_train_00378000.mp4	0.0	156.0944128036499	0.10048198699951172
34	97.4365828037262	fix_pre	0		23.0	32.0	2.5	/experiments/knapen_aot/videos/R_S_ILSVRC2015_train_00517000.mp4	0.0	156.1948947906494	0.19115805625915527
34	97.61959385871887	response	0	2		32.0	2.5	/experiments/knapen_aot/videos/R_S_ILSVRC2015_train_00517000.mp4	0.0	156.3779058456421	
34	97.62774085998535	movie	1		301.0	32.0	2.5	/experiments/knapen_aot/videos/R_S_ILSVRC2015_train_00517000.mp4	0.0	156.38605284690857	2.508331060409546
34	100.1360719203949	fix_post	2		12.0	32.0	2.5	/experiments/knapen_aot/videos/R_S_ILSVRC2015_train_00517000.mp4	0.0	158.89438390731812	0.10000801086425781
35	100.23607993125916	fix_pre	0		40.0	33.0	2.5	/experiments/knapen_aot/videos/R_S_yt-l_ioasf6yHg_44.mp4	0.0	158.99439191818237	0.3334510326385498
35	100.56120491027832	response	0	2		33.0	2.5	/experiments/knapen_aot/videos/R_S_yt-l_ioasf6yHg_44.mp4	0.0	159.31951689720154	
35	100.5695309638977	movie	1		300.0	33.0	2.5	/experiments/knapen_aot/videos/R_S_yt-l_ioasf6yHg_44.mp4	0.0	159.32784295082092	2.5081658363342285
35	103.07769680023193	fix_post	2		12.0	33.0	2.5	/experiments/knapen_aot/videos/R_S_yt-l_ioasf6yHg_44.mp4	0.0	161.83600878715515	0.09998512268066406
36	103.1776819229126	fix_pre	0		29.0	34.0	2.5	/experiments/knapen_aot/videos/R_S_yt-bOgChEHiroI_20.mp4	0.0	161.93599390983582	0.24167704582214355
36	103.41113591194153	response	0	2		34.0	2.5	/experiments/knapen_aot/videos/R_S_yt-bOgChEHiroI_20.mp4	0.0	162.16944789886475	
36	103.41935896873474	movie	1		301.0	34.0	2.5	/experiments/knapen_aot/videos/R_S_yt-bOgChEHiroI_20.mp4	0.0	162.17767095565796	2.508335828781128
36	105.92769479751587	fix_post	2		12.0	34.0	2.5	/experiments/knapen_aot/videos/R_S_yt-bOgChEHiroI_20.mp4	0.0	164.6860067844391	0.0999901294708252
37	106.0276849269867	fix_pre	0		30.0	35.0	2.5	blank	1.0	164.7859969139099	0.24994993209838867
37	106.26946091651917	response	0	2		35.0	2.5	blank	1.0	165.02777290344238	
37	106.27763485908508	movie	1		301.0	35.0	2.5	blank	1.0	165.0359468460083	2.508324146270752
37	108.78595900535583	fix_post	2		12.0	35.0	2.5	blank	1.0	167.54427099227905	0.10002493858337402
38	108.88598394393921	fix_pre	0		32.0	36.0	2.5	/experiments/knapen_aot/videos/R_S_yt-hRAqAwRhmwE_58.mp4	0.0	167.64429593086243	0.2665848731994629
38	109.14446997642517	response	0	2		36.0	2.5	/experiments/knapen_aot/videos/R_S_yt-hRAqAwRhmwE_58.mp4	0.0	167.9027819633484	
38	109.15256881713867	movie	1		301.0	36.0	2.5	/experiments/knapen_aot/videos/R_S_yt-hRAqAwRhmwE_58.mp4	0.0	167.9108808040619	2.508445978164673
38	111.66101479530334	fix_post	2		12.0	36.0	2.5	/experiments/knapen_aot/videos/R_S_yt-hRAqAwRhmwE_58.mp4	0.0	170.41932678222656	0.10000109672546387
39	111.76101589202881	fix_pre	0		14.0	37.0	2.5	/experiments/knapen_aot/videos/S_yt-jUGt_Byqczw_599.mp4	0.0	170.51932787895203	0.1166229248046875
39	111.86946392059326	response	0	2		37.0	2.5	/experiments/knapen_aot/videos/S_yt-jUGt_Byqczw_599.mp4	0.0	170.62777590751648	
39	111.8776388168335	movie	1		301.0	37.0	2.5	/experiments/knapen_aot/videos/S_yt-jUGt_Byqczw_599.mp4	0.0	170.6359508037567	2.50833797454834
39	114.38597679138184	fix_post	2		12.0	37.0	2.5	/experiments/knapen_aot/videos/S_yt-jUGt_Byqczw_599.mp4	0.0	173.14428877830505	0.09993505477905273
40	114.48591184616089	fix_pre	0		18.0	38.0	2.5	/experiments/knapen_aot/videos/R_S_yt-uT4MXm0UBJM_64.mp4	0.0	173.2442238330841	0.15842008590698242
40	114.63627982139587	response	0	2		38.0	2.5	/experiments/knapen_aot/videos/R_S_yt-uT4MXm0UBJM_64.mp4	0.0	173.3945918083191	
40	114.64433193206787	movie	1		301.0	38.0	2.5	/experiments/knapen_aot/videos/R_S_yt-uT4MXm0UBJM_64.mp4	0.0	173.4026439189911	2.508288860321045
40	117.15262079238892	fix_post	2		12.0	38.0	2.5	/experiments/knapen_aot/videos/R_S_yt-uT4MXm0UBJM_64.mp4	0.0	175.91093277931213	0.10004401206970215
41	117.25266480445862	fix_pre	0		12.0	39.0	2.5	/experiments/knapen_aot/videos/S_comp_H012_C009_PS_v01_SDR_PS_20180925_SDR_2K_AVC.mp4	0.0	176.01097679138184	0.10000109672546387
41	117.336984872818	response	0	2		39.0	2.5	/experiments/knapen_aot/videos/S_comp_H012_C009_PS_v01_SDR_PS_20180925_SDR_2K_AVC.mp4	0.0	176.0952968597412	
41	117.35266590118408	movie	1		169.0	39.0	2.5	/experiments/knapen_aot/videos/S_comp_H012_C009_PS_v01_SDR_PS_20180925_SDR_2K_AVC.mp4	0.0	176.1109778881073	2.508255958557129
41	119.82776594161987	response	1	2		39.0	2.5	/experiments/knapen_aot/videos/S_comp_H012_C009_PS_v01_SDR_PS_20180925_SDR_2K_AVC.mp4	0.0	178.5860779285431	
41	119.86092185974121	fix_post	2		12.0	39.0	2.5	/experiments/knapen_aot/videos/S_comp_H012_C009_PS_v01_SDR_PS_20180925_SDR_2K_AVC.mp4	0.0	178.61923384666443	0.1000509262084961
42	119.9609727859497	fix_pre	0		28.0	40.0	2.5	/experiments/knapen_aot/videos/S_yt-rqYMMAU_GJs_91.mp4	0.0	178.71928477287292	0.23332810401916504
42	120.17864799499512	response	0	2		40.0	2.5	/experiments/knapen_aot/videos/S_yt-rqYMMAU_GJs_91.mp4	0.0	178.93695998191833	
42	120.19430088996887	movie	1		301.0	40.0	2.5	/experiments/knapen_aot/videos/S_yt-rqYMMAU_GJs_91.mp4	0.0	178.9526128768921	2.5083160400390625
42	122.70261693000793	fix_post	2		12.0	40.0	2.5	/experiments/knapen_aot/videos/S_yt-rqYMMAU_GJs_91.mp4	0.0	181.46092891693115	0.09996485710144043
42	122.73607277870178	response	2	2		40.0	2.5	/experiments/knapen_aot/videos/S_yt-rqYMMAU_GJs_91.mp4	0.0	181.494384765625	
43	122.80258178710938	fix_pre	0		40.0	41.0	2.5	/experiments/knapen_aot/videos/S_yt-ObT9gF8E_tU_250.mp4	0.0	181.5608937740326	0.33333420753479004
43	123.12771201133728	response	0	2		41.0	2.5	/experiments/knapen_aot/videos/S_yt-ObT9gF8E_tU_250.mp4	0.0	181.8860239982605	
43	123.13591599464417	movie	1		299.0	41.0	2.5	/experiments/knapen_aot/videos/S_yt-ObT9gF8E_tU_250.mp4	0.0	181.89422798156738	2.508392810821533
43	125.6443088054657	fix_post	2		11.0	41.0	2.5	/experiments/knapen_aot/videos/S_yt-ObT9gF8E_tU_250.mp4	0.0	184.40262079238892	0.09169816970825195
43	125.72775387763977	response	2	2		41.0	2.5	/experiments/knapen_aot/videos/S_yt-ObT9gF8E_tU_250.mp4	0.0	184.486065864563	
44	125.73600697517395	fix_pre	0		39.0	42.0	2.5	blank	1.0	184.49431896209717	0.3249189853668213
44	126.05267596244812	response	0	2		42.0	2.5	blank	1.0	184.81098794937134	
44	126.06092596054077	movie	1		301.0	42.0	2.5	blank	1.0	184.819237947464	2.508370876312256
44	128.56929683685303	fix_post	2		12.0	42.0	2.5	blank	1.0	187.32760882377625	0.10007810592651367
45	128.66937494277954	fix_pre	0		24.0	43.0	2.5	/experiments/knapen_aot/videos/R_S_yt-XtzmBXKYEWk_60.mp4	0.0	187.42768692970276	0.19989705085754395
45	128.853581905365	response	0	2		43.0	2.5	/experiments/knapen_aot/videos/R_S_yt-XtzmBXKYEWk_60.mp4	0.0	187.6118938922882	
45	128.86927199363708	movie	1		300.0	43.0	2.5	/experiments/knapen_aot/videos/R_S_yt-XtzmBXKYEWk_60.mp4	0.0	187.6275839805603	2.508323907852173
45	131.37759590148926	fix_post	2		12.0	43.0	2.5	/experiments/knapen_aot/videos/R_S_yt-XtzmBXKYEWk_60.mp4	0.0	190.13590788841248	0.10001897811889648
46	131.47761487960815	fix_pre	0		21.0	44.0	2.5	/experiments/knapen_aot/videos/R_S_X-D3lUv-atE_376.mp4	0.0	190.23592686653137	0.17496395111083984
46	131.64440298080444	response	0	2		44.0	2.5	/experiments/knapen_aot/videos/R_S_X-D3lUv-atE_376.mp4	0.0	190.40271496772766	
46	131.652578830719	movie	1		301.0	44.0	2.5	/experiments/knapen_aot/videos/R_S_X-D3lUv-atE_376.mp4	0.0	190.4108908176422	2.5083460807800293
46	134.16092491149902	fix_post	2		12.0	44.0	2.5	/experiments/knapen_aot/videos/R_S_X-D3lUv-atE_376.mp4	0.0	192.91923689842224	0.10002303123474121
47	134.26094794273376	fix_pre	0		14.0	45.0	2.5	/experiments/knapen_aot/videos/R_S_yt-wUqpCtBOFBA_89.mp4	0.0	193.01925992965698	0.11663293838500977
47	134.36937880516052	response	0	2		45.0	2.5	/experiments/knapen_aot/videos/R_S_yt-wUqpCtBOFBA_89.mp4	0.0	193.12769079208374	
47	134.37758088111877	movie	1		301.0	45.0	2.5	/experiments/knapen_aot/videos/R_S_yt-wUqpCtBOFBA_89.mp4	0.0	193.135892868042	2.508352041244507
47	136.88593292236328	fix_post	2		12.0	45.0	2.5	/experiments/knapen_aot/videos/R_S_yt-wUqpCtBOFBA_89.mp4	0.0	195.6442449092865	0.10000395774841309
48	136.9859368801117	fix_pre	0		12.0	46.0	2.5	/experiments/knapen_aot/videos/S_yt-28ODBE9bVh0_44.mp4	0.0	195.7442488670349	0.09996700286865234
48	137.07774996757507	response	0	2		46.0	2.5	/experiments/knapen_aot/videos/S_yt-28ODBE9bVh0_44.mp4	0.0	195.8360619544983	
48	137.08590388298035	movie	1		301.0	46.0	2.5	/experiments/knapen_aot/videos/S_yt-28ODBE9bVh0_44.mp4	0.0	195.84421586990356	2.5083649158477783
48	139.59426879882812	fix_post	2		12.0	46.0	2.5	/experiments/knapen_aot/videos/S_yt-28ODBE9bVh0_44.mp4	0.0	198.35258078575134	0.10010099411010742
49	139.69436979293823	fix_pre	0		32.0	47.0	2.5	/experiments/knapen_aot/videos/R_S_pexels-pavel-danilyuk-8057714.mp4	0.0	198.45268177986145	0.2665371894836426
49	139.95270490646362	response	0	2		47.0	2.5	/experiments/knapen_aot/videos/R_S_pexels-pavel-danilyuk-8057714.mp4	0.0	198.71101689338684	
49	139.96090698242188	movie	1		167.0	47.0	2.5	/experiments/knapen_aot/videos/R_S_pexels-pavel-danilyuk-8057714.mp4	0.0	198.7192189693451	2.5082859992980957
49	142.46919298171997	fix_post	2		12.0	47.0	2.5	/experiments/knapen_aot/videos/R_S_pexels-pavel-danilyuk-8057714.mp4	0.0	201.2275049686432	0.1000518798828125
50	142.56924486160278	fix_pre	0		12.0	48.0	2.5	blank	1.0	201.327556848526	0.0999460220336914
50	142.66103982925415	response	0	2		48.0	2.5	blank	1.0	201.41935181617737	
50	142.66919088363647	movie	1		301.0	48.0	2.5	blank	1.0	201.4275028705597	2.508363962173462
50	145.17755484580994	fix_post	2		12.0	48.0	2.5	blank	1.0	203.93586683273315	0.10001111030578613
50	145.22789788246155	response	2	2		48.0	2.5	blank	1.0	203.98620986938477	
51	145.27756595611572	fix_pre	0		26.0	49.0	2.5	/experiments/knapen_aot/videos/S_yt-R9Iabv0XgOQ_80.mp4	0.0	204.03587794303894	0.21661591529846191
51	145.47841000556946	response	0	2		49.0	2.5	/experiments/knapen_aot/videos/S_yt-R9Iabv0XgOQ_80.mp4	0.0	204.23672199249268	
51	145.49418187141418	movie	1		301.0	49.0	2.5	/experiments/knapen_aot/videos/S_yt-R9Iabv0XgOQ_80.mp4	0.0	204.2524938583374	2.5083699226379395
51	148.00255179405212	fix_post	2		12.0	49.0	2.5	/experiments/knapen_aot/videos/S_yt-R9Iabv0XgOQ_80.mp4	0.0	206.76086378097534	0.10001516342163086
52	148.10256695747375	fix_pre	0		19.0	50.0	2.5	/experiments/knapen_aot/videos/S_ILSVRC2015_train_00495000.mp4	0.0	206.86087894439697	0.15830087661743164
52	148.2452108860016	response	0	2		50.0	2.5	/experiments/knapen_aot/videos/S_ILSVRC2015_train_00495000.mp4	0.0	207.0035228729248	
52	148.2608678340912	movie	1		301.0	50.0	2.5	/experiments/knapen_aot/videos/S_ILSVRC2015_train_00495000.mp4	0.0	207.0191798210144	2.5083491802215576
52	150.76921701431274	fix_post	2		12.0	50.0	2.5	/experiments/knapen_aot/videos/S_ILSVRC2015_train_00495000.mp4	0.0	209.52752900123596	0.09999680519104004
53	150.86921381950378	fix_pre	0		17.0	51.0	2.5	/experiments/knapen_aot/videos/S_ILSVRC2015_train_00517000.mp4	0.0	209.627525806427	0.1428999900817871
53	151.0026137828827	response	0	2		51.0	2.5	/experiments/knapen_aot/videos/S_ILSVRC2015_train_00517000.mp4	0.0	209.7609257698059	
53	151.01211380958557	movie	1		301.0	51.0	2.5	/experiments/knapen_aot/videos/S_ILSVRC2015_train_00517000.mp4	0.0	209.7704257965088	2.5070900917053223
53	153.5192039012909	fix_post	2		12.0	51.0	2.5	/experiments/knapen_aot/videos/S_ILSVRC2015_train_00517000.mp4	0.0	212.2775158882141	0.09997296333312988
54	153.61917686462402	fix_pre	0		9.0	52.0	2.5	/experiments/knapen_aot/videos/S_yt-LGwEki4ghNw_69.mp4	0.0	212.37748885154724	0.07501602172851562
54	153.67842197418213	response	0	2		52.0	2.5	/experiments/knapen_aot/videos/S_yt-LGwEki4ghNw_69.mp4	0.0	212.43673396110535	
54	153.69419288635254	movie	1		301.0	52.0	2.5	/experiments/knapen_aot/videos/S_yt-LGwEki4ghNw_69.mp4	0.0	212.45250487327576	2.5083091259002686
54	156.2025020122528	fix_post	2		12.0	52.0	2.5	/experiments/knapen_aot/videos/S_yt-LGwEki4ghNw_69.mp4	0.0	214.96081399917603	0.0999908447265625
55	156.30249285697937	fix_pre	0		5.0	53.0	2.5	/experiments/knapen_aot/videos/S_yt-ZwnliF0525U_95.mp4	0.0	215.0608048439026	0.042942047119140625
55	156.33595490455627	response	0	2		53.0	2.5	/experiments/knapen_aot/videos/S_yt-ZwnliF0525U_95.mp4	0.0	215.0942668914795	
55	156.3454349040985	movie	1		301.0	53.0	2.5	/experiments/knapen_aot/videos/S_yt-ZwnliF0525U_95.mp4	0.0	215.10374689102173	2.507072925567627
55	158.85250782966614	fix_post	2		12.0	53.0	2.5	/experiments/knapen_aot/videos/S_yt-ZwnliF0525U_95.mp4	0.0	217.61081981658936	0.09998106956481934
56	158.95248889923096	fix_pre	0		15.0	54.0	2.5	/experiments/knapen_aot/videos/S_yt-lv6mhnH7_g4_134.mp4	0.0	217.71080088615417	0.12499308586120605
56	159.06928491592407	response	0	2		54.0	2.5	/experiments/knapen_aot/videos/S_yt-lv6mhnH7_g4_134.mp4	0.0	217.8275969028473	
56	159.07748198509216	movie	1		300.0	54.0	2.5	/experiments/knapen_aot/videos/S_yt-lv6mhnH7_g4_134.mp4	0.0	217.83579397201538	2.5083389282226562
56	161.58582091331482	fix_post	2		12.0	54.0	2.5	/experiments/knapen_aot/videos/S_yt-lv6mhnH7_g4_134.mp4	0.0	220.34413290023804	0.09996700286865234
57	161.68578791618347	fix_pre	0		19.0	55.0	2.5	/experiments/knapen_aot/videos/R_S_yt-GBt59U0KUR0_6.mp4	0.0	220.4440999031067	0.1595749855041504
57	161.83594799041748	response	0	2		55.0	2.5	/experiments/knapen_aot/videos/R_S_yt-GBt59U0KUR0_6.mp4	0.0	220.5942599773407	
57	161.84536290168762	movie	1		301.0	55.0	2.5	/experiments/knapen_aot/videos/R_S_yt-GBt59U0KUR0_6.mp4	0.0	220.60367488861084	2.5071330070495605
57	164.35249590873718	fix_post	2		12.0	55.0	2.5	/experiments/knapen_aot/videos/R_S_yt-GBt59U0KUR0_6.mp4	0.0	223.1108078956604	0.09994697570800781
58	164.4524428844452	fix_pre	0		9.0	56.0	2.5	blank	1.0	223.2107548713684	0.07499408721923828
58	164.51930594444275	response	0	2		56.0	2.5	blank	1.0	223.27761793136597	
58	164.52743697166443	movie	1		301.0	56.0	2.5	blank	1.0	223.28574895858765	2.508248805999756
58	167.03568577766418	fix_post	2		12.0	56.0	2.5	blank	1.0	225.7939977645874	0.10008907318115234
59	167.13577485084534	fix_pre	0		18.0	57.0	2.5	/experiments/knapen_aot/videos/R_S_ILSVRC2015_train_00444000.mp4	0.0	225.89408683776855	0.1499321460723877
59	167.27754187583923	response	0	2		57.0	2.5	/experiments/knapen_aot/videos/R_S_ILSVRC2015_train_00444000.mp4	0.0	226.03585386276245	
59	167.28570699691772	movie	1		301.0	57.0	2.5	/experiments/knapen_aot/videos/R_S_ILSVRC2015_train_00444000.mp4	0.0	226.04401898384094	2.5083818435668945
59	169.79408884048462	fix_post	2		12.0	57.0	2.5	/experiments/knapen_aot/videos/R_S_ILSVRC2015_train_00444000.mp4	0.0	228.55240082740784	0.10002613067626953
59	169.86917996406555	response	2	2		57.0	2.5	/experiments/knapen_aot/videos/R_S_ILSVRC2015_train_00444000.mp4	0.0	228.62749195098877	
60	169.8941149711609	fix_pre	0		55.0	58.0	2.5	/experiments/knapen_aot/videos/S_production_ID_4101225.mp4	0.0	228.6524269580841	0.4582710266113281
60	170.3441469669342	response	0	2		58.0	2.5	/experiments/knapen_aot/videos/S_production_ID_4101225.mp4	0.0	229.10245895385742	
60	170.35238599777222	movie	1		207.0	58.0	2.5	/experiments/knapen_aot/videos/S_production_ID_4101225.mp4	0.0	229.11069798469543	2.508408784866333
60	172.86079478263855	fix_post	2		12.0	58.0	2.5	/experiments/knapen_aot/videos/S_production_ID_4101225.mp4	0.0	231.61910676956177	0.09997415542602539
60	172.93669390678406	response	2	2		58.0	2.5	/experiments/knapen_aot/videos/S_production_ID_4101225.mp4	0.0	231.69500589370728	
61	172.96076893806458	fix_pre	0		36.0	59.0	2.5	/experiments/knapen_aot/videos/S_yt-OTNdgakSIJE_97.mp4	0.0	231.7190809249878	0.3011338710784912
61	173.2524847984314	response	0	2		59.0	2.5	/experiments/knapen_aot/videos/S_yt-OTNdgakSIJE_97.mp4	0.0	232.01079678535461	
61	173.26190280914307	movie	1		301.0	59.0	2.5	/experiments/knapen_aot/videos/S_yt-OTNdgakSIJE_97.mp4	0.0	232.02021479606628	2.5072782039642334
61	175.7691810131073	fix_post	2		12.0	59.0	2.5	/experiments/knapen_aot/videos/S_yt-OTNdgakSIJE_97.mp4	0.0	234.52749300003052	0.09982681274414062
62	175.86900782585144	fix_pre	0		8.0	60.0	2.5	/experiments/knapen_aot/videos/R_S_yt-YLcmfyfIokU_64.mp4	0.0	234.62731981277466	0.06670212745666504
62	175.92758798599243	response	0	2		60.0	2.5	/experiments/knapen_aot/videos/R_S_yt-YLcmfyfIokU_64.mp4	0.0	234.68589997291565	
62	175.9357099533081	movie	1		301.0	60.0	2.5	/experiments/knapen_aot/videos/R_S_yt-YLcmfyfIokU_64.mp4	0.0	234.69402194023132	2.508388042449951
62	178.44409799575806	fix_post	2		11.0	60.0	2.5	/experiments/knapen_aot/videos/R_S_yt-YLcmfyfIokU_64.mp4	0.0	237.20240998268127	0.1000509262084961
63	178.54414892196655	fix_pre	0		7.0	61.0	2.5	/experiments/knapen_aot/videos/R_S_yt-l6WPyKg_3is_154.mp4	0.0	237.30246090888977	0.05825996398925781
63	178.59417080879211	response	0	2		61.0	2.5	/experiments/knapen_aot/videos/R_S_yt-l6WPyKg_3is_154.mp4	0.0	237.35248279571533	
63	178.6024088859558	movie	1		301.0	61.0	2.5	/experiments/knapen_aot/videos/R_S_yt-l6WPyKg_3is_154.mp4	0.0	237.36072087287903	2.5082249641418457
63	181.11063385009766	fix_post	2		12.0	61.0	2.5	/experiments/knapen_aot/videos/R_S_yt-l6WPyKg_3is_154.mp4	0.0	239.86894583702087	0.10001897811889648
64	181.21065282821655	fix_pre	0		20.0	62.0	2.5	blank	1.0	239.96896481513977	0.1667029857635498
64	181.361732006073	response	0	2		62.0	2.5	blank	1.0	240.12004399299622	
64	181.3773558139801	movie	1		301.0	62.0	2.5	blank	1.0	240.13566780090332	2.5083370208740234
64	183.88569283485413	fix_post	2		12.0	62.0	2.5	blank	1.0	242.64400482177734	0.09998798370361328
65	183.98568081855774	fix_pre	0		25.0	63.0	2.5	/experiments/knapen_aot/videos/R_S_production_ID_4873122.mp4	0.0	242.74399280548096	0.20830917358398438
65	184.18574500083923	response	0	2		63.0	2.5	/experiments/knapen_aot/videos/R_S_production_ID_4873122.mp4	0.0	242.94405698776245	
65	184.19398999214172	movie	1		166.0	63.0	2.5	/experiments/knapen_aot/videos/R_S_production_ID_4873122.mp4	0.0	242.95230197906494	2.5083699226379395
65	186.70235991477966	fix_post	2		12.0	63.0	2.5	/experiments/knapen_aot/videos/R_S_production_ID_4873122.mp4	0.0	245.46067190170288	0.09996604919433594
66	186.802325963974	fix_pre	0		28.0	64.0	2.5	/experiments/knapen_aot/videos/S__9v_wUywaAA_35.mp4	0.0	245.56063795089722	0.23328804969787598
66	187.02744388580322	response	0	2		64.0	2.5	/experiments/knapen_aot/videos/S__9v_wUywaAA_35.mp4	0.0	245.78575587272644	
66	187.03561401367188	movie	1		301.0	64.0	2.5	/experiments/knapen_aot/videos/S__9v_wUywaAA_35.mp4	0.0	245.7939260005951	2.5083839893341064
66	189.54399800300598	fix_post	2		12.0	64.0	2.5	/experiments/knapen_aot/videos/S__9v_wUywaAA_35.mp4	0.0	248.3023099899292	0.1000058650970459
67	189.64400386810303	fix_pre	0		24.0	65.0	2.5	/experiments/knapen_aot/videos/R_S_yt-7e6Z9QQieAk_183.mp4	0.0	248.40231585502625	0.2010359764099121
67	189.8358027935028	response	0	2		65.0	2.5	/experiments/knapen_aot/videos/R_S_yt-7e6Z9QQieAk_183.mp4	0.0	248.59411478042603	
67	189.84503984451294	movie	1		301.0	65.0	2.5	/experiments/knapen_aot/videos/R_S_yt-7e6Z9QQieAk_183.mp4	0.0	248.60335183143616	2.507261037826538
67	192.35230088233948	fix_post	2		12.0	65.0	2.5	/experiments/knapen_aot/videos/R_S_yt-7e6Z9QQieAk_183.mp4	0.0	251.1106128692627	0.10018301010131836
68	192.4524838924408	fix_pre	0		13.0	66.0	2.5	/experiments/knapen_aot/videos/S_yt-hekMMCluhnU_18.mp4	0.0	251.210795879364	0.10810995101928711
68	192.55248093605042	response	0	2		66.0	2.5	/experiments/knapen_aot/videos/S_yt-hekMMCluhnU_18.mp4	0.0	251.31079292297363	
68	192.56059384346008	movie	1		301.0	66.0	2.5	/experiments/knapen_aot/videos/S_yt-hekMMCluhnU_18.mp4	0.0	251.3189058303833	2.5083229541778564
68	195.06891679763794	fix_post	2		12.0	66.0	2.5	/experiments/knapen_aot/videos/S_yt-hekMMCluhnU_18.mp4	0.0	253.82722878456116	0.1000211238861084
69	195.16893792152405	fix_pre	0		29.0	67.0	2.5	/experiments/knapen_aot/videos/R_S_yt-nS2QqSQbjOQ_39.mp4	0.0	253.92724990844727	0.24168992042541504
69	195.40243291854858	response	0	2		67.0	2.5	/experiments/knapen_aot/videos/R_S_yt-nS2QqSQbjOQ_39.mp4	0.0	254.1607449054718	
69	195.41062784194946	movie	1		301.0	67.0	2.5	/experiments/knapen_aot/videos/R_S_yt-nS2QqSQbjOQ_39.mp4	0.0	254.16893982887268	2.5083069801330566
69	197.91893482208252	fix_post	2		12.0	67.0	2.5	/experiments/knapen_aot/videos/R_S_yt-nS2QqSQbjOQ_39.mp4	0.0	256.67724680900574	0.09997296333312988
70	198.01890778541565	fix_pre	0		58.0	68.0	2.5	blank	1.0	256.77721977233887	0.4833240509033203
70	198.49408888816833	response	0	2		68.0	2.5	blank	1.0	257.25240087509155	
70	198.50223183631897	movie	1		301.0	68.0	2.5	blank	1.0	257.2605438232422	2.5083510875701904
70	201.01058292388916	fix_post	2		12.0	68.0	2.5	blank	1.0	259.7688949108124	0.09993600845336914
71	201.11051893234253	fix_pre	0		94.0	69.0	2.5	/experiments/knapen_aot/videos/R_S_yt-Co4dzHwupRM_18.mp4	0.0	259.86883091926575	0.7833859920501709
71	201.88577580451965	response	0	2		69.0	2.5	/experiments/knapen_aot/videos/R_S_yt-Co4dzHwupRM_18.mp4	0.0	260.64408779144287	
71	201.8939049243927	movie	1		301.0	69.0	2.5	/experiments/knapen_aot/videos/R_S_yt-Co4dzHwupRM_18.mp4	0.0	260.6522169113159	2.508375883102417
71	204.40228080749512	fix_post	2		12.0	69.0	2.5	/experiments/knapen_aot/videos/R_S_yt-Co4dzHwupRM_18.mp4	0.0	263.16059279441833	0.09996700286865234
72	204.50224781036377	fix_pre	0		48.0	70.0	2.5	/experiments/knapen_aot/videos/R_S_yt-yJmHtBFyhH4_15.mp4	0.0	263.260559797287	0.39995408058166504
72	204.8940498828888	response	0	2		70.0	2.5	/experiments/knapen_aot/videos/R_S_yt-yJmHtBFyhH4_15.mp4	0.0	263.652361869812	
72	204.90220189094543	movie	1		301.0	70.0	2.5	/experiments/knapen_aot/videos/R_S_yt-yJmHtBFyhH4_15.mp4	0.0	263.66051387786865	2.5083260536193848
72	207.37736082077026	response	1	2		70.0	2.5	/experiments/knapen_aot/videos/R_S_yt-yJmHtBFyhH4_15.mp4	0.0	266.1356728076935	
72	207.41052794456482	fix_post	2		12.0	70.0	2.5	/experiments/knapen_aot/videos/R_S_yt-yJmHtBFyhH4_15.mp4	0.0	266.16883993148804	0.10101485252380371
73	207.51154279708862	fix_pre	0		33.0	71.0	2.5	/experiments/knapen_aot/videos/R_S_yt-NqyG4Ar2JWo_10.mp4	0.0	266.26985478401184	0.27399206161499023
73	207.7774269580841	response	0	2		71.0	2.5	/experiments/knapen_aot/videos/R_S_yt-NqyG4Ar2JWo_10.mp4	0.0	266.5357389450073	
73	207.7855348587036	movie	1		301.0	71.0	2.5	/experiments/knapen_aot/videos/R_S_yt-NqyG4Ar2JWo_10.mp4	0.0	266.54384684562683	2.508289098739624
73	210.29382395744324	fix_post	2		12.0	71.0	2.5	/experiments/knapen_aot/videos/R_S_yt-NqyG4Ar2JWo_10.mp4	0.0	269.05213594436646	0.10007691383361816
74	210.39390087127686	fix_pre	0		33.0	72.0	2.5	/experiments/knapen_aot/videos/S_production_ID_3709168.mp4	0.0	269.1522128582001	0.2749950885772705
74	210.6606409549713	response	0	2		72.0	2.5	/experiments/knapen_aot/videos/S_production_ID_3709168.mp4	0.0	269.41895294189453	
74	210.66889595985413	movie	1		192.0	72.0	2.5	/experiments/knapen_aot/videos/S_production_ID_3709168.mp4	0.0	269.42720794677734	2.508275032043457
74	213.17717099189758	fix_post	2		12.0	72.0	2.5	/experiments/knapen_aot/videos/S_production_ID_3709168.mp4	0.0	271.9354829788208	0.10011792182922363
75	213.2772889137268	fix_pre	0		6.0	73.0	2.5	/experiments/knapen_aot/videos/R_S_yt-yJmHtBFyhH4_15.mp4	0.0	272.03560090065	0.05003190040588379
75	213.31931900978088	response	0	2		73.0	2.5	/experiments/knapen_aot/videos/R_S_yt-yJmHtBFyhH4_15.mp4	0.0	272.0776309967041	
75	213.3273208141327	movie	1		301.0	73.0	2.5	/experiments/knapen_aot/videos/R_S_yt-yJmHtBFyhH4_15.mp4	0.0	272.0856328010559	2.508239984512329
75	215.83556079864502	fix_post	2		12.0	73.0	2.5	/experiments/knapen_aot/videos/R_S_yt-yJmHtBFyhH4_15.mp4	0.0	274.59387278556824	0.09993815422058105
76	215.9354989528656	fix_pre	0		5.0	74.0	2.5	/experiments/knapen_aot/videos/R_S_yt-BAwvfRmE1LU_79.mp4	0.0	274.6938109397888	0.04170799255371094
76	215.9695098400116	response	0	2		74.0	2.5	/experiments/knapen_aot/videos/R_S_yt-BAwvfRmE1LU_79.mp4	0.0	274.7278218269348	
76	215.9772069454193	movie	1		301.0	74.0	2.5	/experiments/knapen_aot/videos/R_S_yt-BAwvfRmE1LU_79.mp4	0.0	274.73551893234253	2.508298873901367
76	218.48550581932068	fix_post	2		12.0	74.0	2.5	/experiments/knapen_aot/videos/R_S_yt-BAwvfRmE1LU_79.mp4	0.0	277.2438178062439	0.09998798370361328
76	218.57735586166382	response	2	2		74.0	2.5	/experiments/knapen_aot/videos/R_S_yt-BAwvfRmE1LU_79.mp4	0.0	277.33566784858704	
77	218.5854938030243	fix_pre	0		51.0	75.0	2.5	/experiments/knapen_aot/videos/R_S_yt-jUGt_Byqczw_599.mp4	0.0	277.3438057899475	0.4258861541748047
77	219.00220894813538	response	0	2		75.0	2.5	/experiments/knapen_aot/videos/R_S_yt-jUGt_Byqczw_599.mp4	0.0	277.7605209350586	
77	219.0113799571991	movie	1		301.0	75.0	2.5	/experiments/knapen_aot/videos/R_S_yt-jUGt_Byqczw_599.mp4	0.0	277.7696919441223	2.507443904876709
77	221.5188238620758	fix_post	2		12.0	75.0	2.5	/experiments/knapen_aot/videos/R_S_yt-jUGt_Byqczw_599.mp4	0.0	280.277135848999	0.10007905960083008
78	221.61890292167664	fix_pre	0		1.0	76.0	2.5	/experiments/knapen_aot/videos/R_S_yt-cokedWwwYYs_136.mp4	0.0	280.37721490859985	0.010565042495727539
78	221.620778799057	response	0	2		76.0	2.5	/experiments/knapen_aot/videos/R_S_yt-cokedWwwYYs_136.mp4	0.0	280.3790907859802	
78	221.62946796417236	movie	1		301.0	76.0	2.5	/experiments/knapen_aot/videos/R_S_yt-cokedWwwYYs_136.mp4	0.0	280.3877799510956	2.5059988498687744
78	224.13546681404114	fix_post	2		12.0	76.0	2.5	/experiments/knapen_aot/videos/R_S_yt-cokedWwwYYs_136.mp4	0.0	282.89377880096436	0.10009312629699707
79	224.23555994033813	fix_pre	0		27.0	77.0	2.5	blank	1.0	282.99387192726135	0.22490596771240234
79	224.45228385925293	response	0	2		77.0	2.5	blank	1.0	283.21059584617615	
79	224.46046590805054	movie	1		301.0	77.0	2.5	blank	1.0	283.21877789497375	2.508375883102417
79	226.96884179115295	fix_post	2		12.0	77.0	2.5	blank	1.0	285.7271537780762	0.09996604919433594
80	227.0688078403473	fix_pre	0		13.0	78.0	2.5	/experiments/knapen_aot/videos/R_S_yt-QFGyhhr1KSQ_9.mp4	0.0	285.8271198272705	0.10921216011047363
80	227.16906595230103	response	0	2		78.0	2.5	/experiments/knapen_aot/videos/R_S_yt-QFGyhhr1KSQ_9.mp4	0.0	285.92737793922424	
80	227.17802000045776	movie	1		301.0	78.0	2.5	/experiments/knapen_aot/videos/R_S_yt-QFGyhhr1KSQ_9.mp4	0.0	285.936331987381	2.507443904876709
80	229.68546390533447	fix_post	2		12.0	78.0	2.5	/experiments/knapen_aot/videos/R_S_yt-QFGyhhr1KSQ_9.mp4	0.0	288.4437758922577	0.1000070571899414
81	229.7854709625244	fix_pre	0		10.0	79.0	2.5	/experiments/knapen_aot/videos/R_S_yt-M_ApPnq00iE_67.mp4	0.0	288.54378294944763	0.0832829475402832
81	229.8606197834015	response	0	2		79.0	2.5	/experiments/knapen_aot/videos/R_S_yt-M_ApPnq00iE_67.mp4	0.0	288.6189317703247	
81	229.8687539100647	movie	1		301.0	79.0	2.5	/experiments/knapen_aot/videos/R_S_yt-M_ApPnq00iE_67.mp4	0.0	288.6270658969879	2.5083560943603516
81	232.37711000442505	fix_post	2		12.0	79.0	2.5	/experiments/knapen_aot/videos/R_S_yt-M_ApPnq00iE_67.mp4	0.0	291.13542199134827	0.10005784034729004
82	232.47716784477234	fix_pre	0		12.0	80.0	2.5	/experiments/knapen_aot/videos/R_S_yt-28ODBE9bVh0_44.mp4	0.0	291.23547983169556	0.09996509552001953
82	232.5689399242401	response	0	2		80.0	2.5	/experiments/knapen_aot/videos/R_S_yt-28ODBE9bVh0_44.mp4	0.0	291.32725191116333	
82	232.57713294029236	movie	1		301.0	80.0	2.5	/experiments/knapen_aot/videos/R_S_yt-28ODBE9bVh0_44.mp4	0.0	291.3354449272156	2.5083489418029785
82	235.08548188209534	fix_post	2		12.0	80.0	2.5	/experiments/knapen_aot/videos/R_S_yt-28ODBE9bVh0_44.mp4	0.0	293.84379386901855	0.10002708435058594
83	235.18550896644592	fix_pre	0		8.0	81.0	2.5	/experiments/knapen_aot/videos/R_S_ILSVRC2015_train_00415005.mp4	0.0	293.94382095336914	0.0665748119354248
83	235.24393391609192	response	0	2		81.0	2.5	/experiments/knapen_aot/videos/R_S_ILSVRC2015_train_00415005.mp4	0.0	294.00224590301514	
83	235.25208377838135	movie	1		299.0	81.0	2.5	/experiments/knapen_aot/videos/R_S_ILSVRC2015_train_00415005.mp4	0.0	294.01039576530457	2.5084240436553955
83	237.76050782203674	fix_post	2		12.0	81.0	2.5	/experiments/knapen_aot/videos/R_S_ILSVRC2015_train_00415005.mp4	0.0	296.51881980895996	0.09996604919433594
84	237.86047387123108	fix_pre	0		3.0	82.0	2.5	blank	1.0	296.6187858581543	0.026026010513305664
84	237.8772988319397	response	0	2		82.0	2.5	blank	1.0	296.6356108188629	
84	237.88649988174438	movie	1		301.0	82.0	2.5	blank	1.0	296.6448118686676	2.5073049068450928
84	240.39380478858948	fix_post	2		12.0	82.0	2.5	blank	1.0	299.1521167755127	0.09994220733642578
85	240.4937469959259	fix_pre	0		18.0	83.0	2.5	/experiments/knapen_aot/videos/R_S_Pexels_Videos_2791797.mp4	0.0	299.2520589828491	0.15002989768981934
85	240.63552498817444	response	0	2		83.0	2.5	/experiments/knapen_aot/videos/R_S_Pexels_Videos_2791797.mp4	0.0	299.39383697509766	
85	240.64377689361572	movie	1		170.0	83.0	2.5	/experiments/knapen_aot/videos/R_S_Pexels_Videos_2791797.mp4	0.0	299.40208888053894	2.5083041191101074
85	243.15208101272583	fix_post	2		12.0	83.0	2.5	/experiments/knapen_aot/videos/R_S_Pexels_Videos_2791797.mp4	0.0	301.91039299964905	0.10000991821289062
87	243.25209093093872	stim	0		161.0					302.01040291786194	1.34244704246521
87	243.26140785217285	response	0	2						302.01971983909607	
87	243.80220794677734	response	0	2						302.56051993370056	
87	244.58363699913025	response	0	space						303.34194898605347	
