trial_nr	onset	event_type	phase	response	nr_frames	movie_index	movie_duration	movie_file	blank	onset_abs	duration
0	0.15814900398254395	stim	0		33.0					183.89069986343384	0.2778148651123047
0	0.42501091957092285	response	0	space						184.15756177902222	
1	0.43596386909484863	stim	0		121.0					184.16851472854614	1.0056390762329102
1	1.1082839965820312	response	0	space						184.84083485603333	
1	1.4416029453277588	stim	1		120.0					185.17415380477905	0.9996020793914795
1	1.7583069801330566	response	1	space						185.49085783958435	
1	2.1913158893585205	response	1	space						185.92386674880981	
2	2.4412050247192383	fix_pre	0		18.0	0.0	2.5	/experiments/knapen_aot/videos/R_S_yt-wIZprsJwxBM_298.mp4	0.0	186.17375588417053	0.14998698234558105
2	2.5830490589141846	response	0	space		0.0	2.5	/experiments/knapen_aot/videos/R_S_yt-wIZprsJwxBM_298.mp4	0.0	186.31559991836548	
2	2.5911920070648193	movie	1		300.0	0.0	2.5	/experiments/knapen_aot/videos/R_S_yt-wIZprsJwxBM_298.mp4	0.0	186.3237428665161	2.5083749294281006
2	5.09956693649292	fix_post	2		12.0	0.0	2.5	/experiments/knapen_aot/videos/R_S_yt-wIZprsJwxBM_298.mp4	0.0	188.8321177959442	0.09996294975280762
3	5.1995298862457275	fix_pre	0		11.0	1.0	2.5	/experiments/knapen_aot/videos/R_S_comp_GMT060_117NC_363D_1034_AUSTRALIA_v35_SDR_PS_FINAL_20180731_SDR_2K_AVC.mp4	0.0	188.93208074569702	0.09164714813232422
3	5.284193992614746	response	0	2		1.0	2.5	/experiments/knapen_aot/videos/R_S_comp_GMT060_117NC_363D_1034_AUSTRALIA_v35_SDR_PS_FINAL_20180731_SDR_2K_AVC.mp4	0.0	189.01674485206604	
3	5.291177034378052	movie	1		167.0	1.0	2.5	/experiments/knapen_aot/videos/R_S_comp_GMT060_117NC_363D_1034_AUSTRALIA_v35_SDR_PS_FINAL_20180731_SDR_2K_AVC.mp4	0.0	189.02372789382935	2.508359909057617
3	7.799536943435669	fix_post	2		12.0	1.0	2.5	/experiments/knapen_aot/videos/R_S_comp_GMT060_117NC_363D_1034_AUSTRALIA_v35_SDR_PS_FINAL_20180731_SDR_2K_AVC.mp4	0.0	191.53208780288696	0.09989213943481445
4	7.899429082870483	fix_pre	0		32.0	2.0	2.5	/experiments/knapen_aot/videos/S_yt-yPl8LcgSMjo_32.mp4	0.0	191.63197994232178	0.2666029930114746
4	8.158001899719238	response	0	2		2.0	2.5	/experiments/knapen_aot/videos/S_yt-yPl8LcgSMjo_32.mp4	0.0	191.89055275917053	
4	8.166032075881958	movie	1		301.0	2.0	2.5	/experiments/knapen_aot/videos/S_yt-yPl8LcgSMjo_32.mp4	0.0	191.89858293533325	2.508507013320923
4	10.67453908920288	fix_post	2		12.0	2.0	2.5	/experiments/knapen_aot/videos/S_yt-yPl8LcgSMjo_32.mp4	0.0	194.40708994865417	0.0998837947845459
5	10.774422883987427	fix_pre	0		36.0	3.0	2.5	/experiments/knapen_aot/videos/S_yt-qF-69JWJX_Y_55.mp4	0.0	194.50697374343872	0.30007219314575195
5	11.066345930099487	response	0	2		3.0	2.5	/experiments/knapen_aot/videos/S_yt-qF-69JWJX_Y_55.mp4	0.0	194.79889678955078	
5	11.074495077133179	movie	1		301.0	3.0	2.5	/experiments/knapen_aot/videos/S_yt-qF-69JWJX_Y_55.mp4	0.0	194.80704593658447	2.5083868503570557
5	13.582881927490234	fix_post	2		12.0	3.0	2.5	/experiments/knapen_aot/videos/S_yt-qF-69JWJX_Y_55.mp4	0.0	197.31543278694153	0.10000395774841309
6	13.682885885238647	fix_pre	0		37.0	4.0	2.5	/experiments/knapen_aot/videos/S_yt-gC3my54_ChQ_58.mp4	0.0	197.41543674468994	0.30831408500671387
6	13.983043909072876	response	0	2		4.0	2.5	/experiments/knapen_aot/videos/S_yt-gC3my54_ChQ_58.mp4	0.0	197.71559476852417	
6	13.991199970245361	movie	1		301.0	4.0	2.5	/experiments/knapen_aot/videos/S_yt-gC3my54_ChQ_58.mp4	0.0	197.72375082969666	2.5082850456237793
6	16.49948501586914	fix_post	2		12.0	4.0	2.5	/experiments/knapen_aot/videos/S_yt-gC3my54_ChQ_58.mp4	0.0	200.23203587532043	0.09994792938232422
7	16.599432945251465	fix_pre	0		38.0	5.0	2.5	/experiments/knapen_aot/videos/S_production_ID_3944248.mp4	0.0	200.33198380470276	0.3167269229888916
7	16.9079270362854	response	0	2		5.0	2.5	/experiments/knapen_aot/videos/S_production_ID_3944248.mp4	0.0	200.6404778957367	
7	16.916159868240356	movie	1		188.0	5.0	2.5	/experiments/knapen_aot/videos/S_production_ID_3944248.mp4	0.0	200.64871072769165	2.5083281993865967
7	19.424488067626953	fix_post	2		12.0	5.0	2.5	/experiments/knapen_aot/videos/S_production_ID_3944248.mp4	0.0	203.15703892707825	0.10006093978881836
8	19.52454900741577	fix_pre	0		39.0	6.0	2.5	blank	1.0	203.25709986686707	0.32497191429138184
8	19.84135890007019	response	0	2		6.0	2.5	blank	1.0	203.57390975952148	
8	19.849520921707153	movie	1		301.0	6.0	2.5	blank	1.0	203.58207178115845	2.508347988128662
8	22.357868909835815	fix_post	2		12.0	6.0	2.5	blank	1.0	206.0904197692871	0.09996700286865234
9	22.457835912704468	fix_pre	0		61.0	7.0	2.5	/experiments/knapen_aot/videos/R_S_yt-Ryb0K9lGPrg_5.mp4	0.0	206.19038677215576	0.5083081722259521
9	22.95799207687378	response	0	2		7.0	2.5	/experiments/knapen_aot/videos/R_S_yt-Ryb0K9lGPrg_5.mp4	0.0	206.69054293632507	
9	22.96614408493042	movie	1		301.0	7.0	2.5	/experiments/knapen_aot/videos/R_S_yt-Ryb0K9lGPrg_5.mp4	0.0	206.6986949443817	2.508232831954956
9	25.474376916885376	fix_post	2		12.0	7.0	2.5	/experiments/knapen_aot/videos/R_S_yt-Ryb0K9lGPrg_5.mp4	0.0	209.20692777633667	0.10012006759643555
10	25.57449698448181	fix_pre	0		62.0	8.0	2.5	/experiments/knapen_aot/videos/R_S_ILSVRC2015_train_00067003.mp4	0.0	209.3070478439331	0.5165879726409912
10	26.08287501335144	response	0	2		8.0	2.5	/experiments/knapen_aot/videos/R_S_ILSVRC2015_train_00067003.mp4	0.0	209.81542587280273	
10	26.091084957122803	movie	1		300.0	8.0	2.5	/experiments/knapen_aot/videos/R_S_ILSVRC2015_train_00067003.mp4	0.0	209.8236358165741	2.5083489418029785
10	28.59943389892578	fix_post	2		12.0	8.0	2.5	/experiments/knapen_aot/videos/R_S_ILSVRC2015_train_00067003.mp4	0.0	212.33198475837708	0.09996509552001953
11	28.6993989944458	fix_pre	0		34.0	9.0	2.5	/experiments/knapen_aot/videos/R_S_yt-mdLT282PVbE_6.mp4	0.0	212.4319498538971	0.2844710350036621
11	28.97453498840332	response	0	2		9.0	2.5	/experiments/knapen_aot/videos/R_S_yt-mdLT282PVbE_6.mp4	0.0	212.70708584785461	
11	28.983870029449463	movie	1		301.0	9.0	2.5	/experiments/knapen_aot/videos/R_S_yt-mdLT282PVbE_6.mp4	0.0	212.71642088890076	2.50732684135437
11	31.491196870803833	fix_post	2		12.0	9.0	2.5	/experiments/knapen_aot/videos/R_S_yt-mdLT282PVbE_6.mp4	0.0	215.22374773025513	0.09987115859985352
12	31.591068029403687	fix_pre	0		50.0	10.0	2.5	/experiments/knapen_aot/videos/R_S_pexels-koolshooters-7691440.mp4	0.0	215.32361888885498	0.4166889190673828
12	31.99954390525818	response	0	2		10.0	2.5	/experiments/knapen_aot/videos/R_S_pexels-koolshooters-7691440.mp4	0.0	215.73209476470947	
12	32.00775694847107	movie	1		166.0	10.0	2.5	/experiments/knapen_aot/videos/R_S_pexels-koolshooters-7691440.mp4	0.0	215.74030780792236	2.5083389282226562
12	34.516095876693726	fix_post	2		12.0	10.0	2.5	/experiments/knapen_aot/videos/R_S_pexels-koolshooters-7691440.mp4	0.0	218.24864673614502	0.09998607635498047
13	34.616081953048706	fix_pre	0		34.0	11.0	2.5	/experiments/knapen_aot/videos/R_S_yt-CR86bVrRwfo_13.mp4	0.0	218.3486328125	0.28441691398620605
13	34.8836829662323	response	0	2		11.0	2.5	/experiments/knapen_aot/videos/R_S_yt-CR86bVrRwfo_13.mp4	0.0	218.6162338256836	
13	34.90049886703491	movie	1		301.0	11.0	2.5	/experiments/knapen_aot/videos/R_S_yt-CR86bVrRwfo_13.mp4	0.0	218.6330497264862	2.50724720954895
13	37.40774607658386	fix_post	2		12.0	11.0	2.5	/experiments/knapen_aot/videos/R_S_yt-CR86bVrRwfo_13.mp4	0.0	221.14029693603516	0.09994697570800781
14	37.50769305229187	fix_pre	0		35.0	12.0	2.5	/experiments/knapen_aot/videos/R_S_yt-LdHRVIb4nIE_6.mp4	0.0	221.24024391174316	0.29163098335266113
14	37.79116892814636	response	0	2		12.0	2.5	/experiments/knapen_aot/videos/R_S_yt-LdHRVIb4nIE_6.mp4	0.0	221.52371978759766	
14	37.79932403564453	movie	1		301.0	12.0	2.5	/experiments/knapen_aot/videos/R_S_yt-LdHRVIb4nIE_6.mp4	0.0	221.53187489509583	2.5084028244018555
14	40.30772686004639	fix_post	2		12.0	12.0	2.5	/experiments/knapen_aot/videos/R_S_yt-LdHRVIb4nIE_6.mp4	0.0	224.04027771949768	0.1000051498413086
15	40.407732009887695	fix_pre	0		46.0	13.0	2.5	/experiments/knapen_aot/videos/R_S_ILSVRC2015_train_00572000.mp4	0.0	224.140282869339	0.38335585594177246
15	40.7828688621521	response	0	2		13.0	2.5	/experiments/knapen_aot/videos/R_S_ILSVRC2015_train_00572000.mp4	0.0	224.5154197216034	
15	40.79108786582947	movie	1		301.0	13.0	2.5	/experiments/knapen_aot/videos/R_S_ILSVRC2015_train_00572000.mp4	0.0	224.52363872528076	2.5083072185516357
15	43.2993950843811	fix_post	2		12.0	13.0	2.5	/experiments/knapen_aot/videos/R_S_ILSVRC2015_train_00572000.mp4	0.0	227.0319459438324	0.09999489784240723
16	43.39938998222351	fix_pre	0		32.0	14.0	2.5	blank	1.0	227.1319408416748	0.26668405532836914
16	43.65782403945923	response	0	2		14.0	2.5	blank	1.0	227.39037489891052	
16	43.66607403755188	movie	1		301.0	14.0	2.5	blank	1.0	227.39862489700317	2.5082828998565674
16	46.17435693740845	fix_post	2		12.0	14.0	2.5	blank	1.0	229.90690779685974	0.09998893737792969
17	46.27434587478638	fix_pre	0		66.0	15.0	2.5	/experiments/knapen_aot/videos/R_S_yt-a9bnYU0Gnxg_59.mp4	0.0	230.00689673423767	0.5499820709228516
17	46.816123962402344	response	0	2		15.0	2.5	/experiments/knapen_aot/videos/R_S_yt-a9bnYU0Gnxg_59.mp4	0.0	230.54867482185364	
17	46.82432794570923	movie	1		301.0	15.0	2.5	/experiments/knapen_aot/videos/R_S_yt-a9bnYU0Gnxg_59.mp4	0.0	230.55687880516052	2.5083870887756348
17	49.33271503448486	fix_post	2		12.0	15.0	2.5	/experiments/knapen_aot/videos/R_S_yt-a9bnYU0Gnxg_59.mp4	0.0	233.06526589393616	0.09998083114624023
18	49.4326958656311	fix_pre	0		223.0	16.0	2.5	/experiments/knapen_aot/videos/R_S_yt-w5lh_rKyKtE_21.mp4	0.0	233.1652467250824	1.8582501411437988
18	51.275243043899536	response	0	2		16.0	2.5	/experiments/knapen_aot/videos/R_S_yt-w5lh_rKyKtE_21.mp4	0.0	235.00779390335083	
18	51.2909460067749	movie	1		301.0	16.0	2.5	/experiments/knapen_aot/videos/R_S_yt-w5lh_rKyKtE_21.mp4	0.0	235.0234968662262	2.5083529949188232
18	53.799299001693726	fix_post	2		12.0	16.0	2.5	/experiments/knapen_aot/videos/R_S_yt-w5lh_rKyKtE_21.mp4	0.0	237.53184986114502	0.10004496574401855
19	53.899343967437744	fix_pre	0		60.0	17.0	2.5	/experiments/knapen_aot/videos/S_pexels-koolshooters-7691440.mp4	0.0	237.63189482688904	0.5009419918060303
19	54.39111399650574	response	0	2		17.0	2.5	/experiments/knapen_aot/videos/S_pexels-koolshooters-7691440.mp4	0.0	238.12366485595703	
19	54.400285959243774	movie	1		166.0	17.0	2.5	/experiments/knapen_aot/videos/S_pexels-koolshooters-7691440.mp4	0.0	238.13283681869507	2.5075321197509766
19	56.90781807899475	fix_post	2		12.0	17.0	2.5	/experiments/knapen_aot/videos/S_pexels-koolshooters-7691440.mp4	0.0	240.64036893844604	0.0998687744140625
20	57.00768685340881	fix_pre	0		81.0	18.0	2.5	/experiments/knapen_aot/videos/R_S_yt-kiEFK7bDssE_14.mp4	0.0	240.7402377128601	0.6749930381774902
20	57.67449402809143	response	0	2		18.0	2.5	/experiments/knapen_aot/videos/R_S_yt-kiEFK7bDssE_14.mp4	0.0	241.40704488754272	
20	57.682679891586304	movie	1		301.0	18.0	2.5	/experiments/knapen_aot/videos/R_S_yt-kiEFK7bDssE_14.mp4	0.0	241.4152307510376	2.5082480907440186
20	60.19092798233032	fix_post	2		12.0	18.0	2.5	/experiments/knapen_aot/videos/R_S_yt-kiEFK7bDssE_14.mp4	0.0	243.92347884178162	0.10007405281066895
21	60.29100203514099	fix_pre	0		42.0	19.0	2.5	blank	1.0	244.02355289459229	0.349902868270874
21	60.63270401954651	response	0	2		19.0	2.5	blank	1.0	244.3652548789978	
21	60.640904903411865	movie	1		301.0	19.0	2.5	blank	1.0	244.37345576286316	2.508327007293701
21	63.149231910705566	fix_post	2		12.0	19.0	2.5	blank	1.0	246.88178277015686	0.0999910831451416
22	63.24922299385071	fix_pre	0		68.0	20.0	2.5	/experiments/knapen_aot/videos/S_yt-N1ZrWT4xyzc_85.mp4	0.0	246.981773853302	0.5677340030670166
22	63.80774402618408	response	0	2		20.0	2.5	/experiments/knapen_aot/videos/S_yt-N1ZrWT4xyzc_85.mp4	0.0	247.54029488563538	
22	63.816956996917725	movie	1		301.0	20.0	2.5	/experiments/knapen_aot/videos/S_yt-N1ZrWT4xyzc_85.mp4	0.0	247.54950785636902	2.5072529315948486
22	66.32420992851257	fix_post	2		12.0	20.0	2.5	/experiments/knapen_aot/videos/S_yt-N1ZrWT4xyzc_85.mp4	0.0	250.05676078796387	0.10001397132873535
23	66.42422389984131	fix_pre	0		52.0	21.0	2.5	/experiments/knapen_aot/videos/S_yt-kiEFK7bDssE_14.mp4	0.0	250.1567747592926	0.43425917625427246
23	66.84940195083618	response	0	2		21.0	2.5	/experiments/knapen_aot/videos/S_yt-kiEFK7bDssE_14.mp4	0.0	250.58195281028748	
23	66.85848307609558	movie	1		300.0	21.0	2.5	/experiments/knapen_aot/videos/S_yt-kiEFK7bDssE_14.mp4	0.0	250.59103393554688	2.5074048042297363
23	69.36588788032532	fix_post	2		12.0	21.0	2.5	/experiments/knapen_aot/videos/S_yt-kiEFK7bDssE_14.mp4	0.0	253.0984387397766	0.1000070571899414
24	69.46589493751526	fix_pre	0		48.0	22.0	2.5	/experiments/knapen_aot/videos/S_yt-4W224-RSCnM_15.mp4	0.0	253.19844579696655	0.40003013610839844
24	69.85772395133972	response	0	2		22.0	2.5	/experiments/knapen_aot/videos/S_yt-4W224-RSCnM_15.mp4	0.0	253.59027481079102	
24	69.86592507362366	movie	1		300.0	22.0	2.5	/experiments/knapen_aot/videos/S_yt-4W224-RSCnM_15.mp4	0.0	253.59847593307495	2.508335828781128
24	72.37426090240479	fix_post	2		12.0	22.0	2.5	/experiments/knapen_aot/videos/S_yt-4W224-RSCnM_15.mp4	0.0	256.1068117618561	0.10003995895385742
25	72.47430086135864	fix_pre	0		37.0	23.0	2.5	/experiments/knapen_aot/videos/S_yt-thmqgEV-sYY_91.mp4	0.0	256.20685172080994	0.30825304985046387
25	72.77431607246399	response	0	2		23.0	2.5	/experiments/knapen_aot/videos/S_yt-thmqgEV-sYY_91.mp4	0.0	256.5068669319153	
25	72.7825539112091	movie	1		300.0	23.0	2.5	/experiments/knapen_aot/videos/S_yt-thmqgEV-sYY_91.mp4	0.0	256.5151047706604	2.508289098739624
25	75.29084300994873	fix_post	2		12.0	23.0	2.5	/experiments/knapen_aot/videos/S_yt-thmqgEV-sYY_91.mp4	0.0	259.0233938694	0.10001087188720703
26	75.39085388183594	fix_pre	0		33.0	24.0	2.5	/experiments/knapen_aot/videos/S_S003_C020_SDR_2K_AVC.mp4	0.0	259.12340474128723	0.27508997917175293
26	75.65766406059265	response	0	2		24.0	2.5	/experiments/knapen_aot/videos/S_S003_C020_SDR_2K_AVC.mp4	0.0	259.39021492004395	
26	75.66594386100769	movie	1		167.0	24.0	2.5	/experiments/knapen_aot/videos/S_S003_C020_SDR_2K_AVC.mp4	0.0	259.398494720459	2.508258104324341
26	78.17420196533203	fix_post	2		12.0	24.0	2.5	/experiments/knapen_aot/videos/S_S003_C020_SDR_2K_AVC.mp4	0.0	261.9067528247833	0.09996604919433594
27	78.27416801452637	fix_pre	0		50.0	25.0	2.5	/experiments/knapen_aot/videos/R_S_comp_GL_G004_C010_PSNK_v04_SDR_PS_FINAL_20180709_SDR_2K_AVC.mp4	0.0	262.00671887397766	0.4175899028778076
27	78.68271994590759	response	0	2		25.0	2.5	/experiments/knapen_aot/videos/R_S_comp_GL_G004_C010_PSNK_v04_SDR_PS_FINAL_20180709_SDR_2K_AVC.mp4	0.0	262.4152708053589	
27	78.69175791740417	movie	1		168.0	25.0	2.5	/experiments/knapen_aot/videos/R_S_comp_GL_G004_C010_PSNK_v04_SDR_PS_FINAL_20180709_SDR_2K_AVC.mp4	0.0	262.42430877685547	2.507423162460327
27	81.1991810798645	fix_post	2		12.0	25.0	2.5	/experiments/knapen_aot/videos/R_S_comp_GL_G004_C010_PSNK_v04_SDR_PS_FINAL_20180709_SDR_2K_AVC.mp4	0.0	264.9317319393158	0.09998583793640137
28	81.2991669178009	fix_pre	0		45.0	26.0	2.5	blank	1.0	265.0317177772522	0.37502503395080566
28	81.66593408584595	response	0	2		26.0	2.5	blank	1.0	265.39848494529724	
28	81.67419195175171	movie	1		301.0	26.0	2.5	blank	1.0	265.406742811203	2.508280038833618
28	84.18247199058533	fix_post	2		12.0	26.0	2.5	blank	1.0	267.9150228500366	0.10002899169921875
29	84.28250098228455	fix_pre	0		59.0	27.0	2.5	/experiments/knapen_aot/videos/R_S_yt-kP7VNn9QIo4_53.mp4	0.0	268.01505184173584	0.4925379753112793
29	84.76601386070251	response	0	2		27.0	2.5	/experiments/knapen_aot/videos/R_S_yt-kP7VNn9QIo4_53.mp4	0.0	268.4985647201538	
29	84.77503895759583	movie	1		301.0	27.0	2.5	/experiments/knapen_aot/videos/R_S_yt-kP7VNn9QIo4_53.mp4	0.0	268.5075898170471	2.5074710845947266
29	87.28251004219055	fix_post	2		12.0	27.0	2.5	/experiments/knapen_aot/videos/R_S_yt-kP7VNn9QIo4_53.mp4	0.0	271.01506090164185	0.09989690780639648
30	87.38240694999695	fix_pre	0		57.0	28.0	2.5	/experiments/knapen_aot/videos/S_yt-M8wvzt_BMXM_173.mp4	0.0	271.11495780944824	0.47589111328125
30	87.84931707382202	response	0	2		28.0	2.5	/experiments/knapen_aot/videos/S_yt-M8wvzt_BMXM_173.mp4	0.0	271.5818679332733	
30	87.8582980632782	movie	1		301.0	28.0	2.5	/experiments/knapen_aot/videos/S_yt-M8wvzt_BMXM_173.mp4	0.0	271.5908489227295	2.507535934448242
30	90.36583399772644	fix_post	2		12.0	28.0	2.5	/experiments/knapen_aot/videos/S_yt-M8wvzt_BMXM_173.mp4	0.0	274.09838485717773	0.09998202323913574
31	90.46581602096558	fix_pre	0		50.0	29.0	2.5	/experiments/knapen_aot/videos/R_S_yt-2IfvnrF3IV0_241.mp4	0.0	274.19836688041687	0.4166250228881836
31	90.8742880821228	response	0	2		29.0	2.5	/experiments/knapen_aot/videos/R_S_yt-2IfvnrF3IV0_241.mp4	0.0	274.6068389415741	
31	90.88244104385376	movie	1		301.0	29.0	2.5	/experiments/knapen_aot/videos/R_S_yt-2IfvnrF3IV0_241.mp4	0.0	274.61499190330505	2.5083799362182617
31	93.39082098007202	fix_post	2		12.0	29.0	2.5	/experiments/knapen_aot/videos/R_S_yt-2IfvnrF3IV0_241.mp4	0.0	277.1233718395233	0.10001206398010254
32	93.49083304405212	fix_pre	0		63.0	30.0	2.5	/experiments/knapen_aot/videos/S_ILSVRC2015_train_00682009.mp4	0.0	277.2233839035034	0.5249879360198975
32	94.00762987136841	response	0	2		30.0	2.5	/experiments/knapen_aot/videos/S_ILSVRC2015_train_00682009.mp4	0.0	277.7401807308197	
32	94.01582098007202	movie	1		301.0	30.0	2.5	/experiments/knapen_aot/videos/S_ILSVRC2015_train_00682009.mp4	0.0	277.7483718395233	2.5083069801330566
32	96.52412796020508	fix_post	2		12.0	30.0	2.5	/experiments/knapen_aot/videos/S_ILSVRC2015_train_00682009.mp4	0.0	280.2566788196564	0.10000109672546387
33	96.62412905693054	fix_pre	0		37.0	31.0	2.5	/experiments/knapen_aot/videos/R_S_yt-N1ZrWT4xyzc_85.mp4	0.0	280.35667991638184	0.30829501152038574
33	96.92428207397461	response	0	2		31.0	2.5	/experiments/knapen_aot/videos/R_S_yt-N1ZrWT4xyzc_85.mp4	0.0	280.6568329334259	
33	96.93242406845093	movie	1		301.0	31.0	2.5	/experiments/knapen_aot/videos/R_S_yt-N1ZrWT4xyzc_85.mp4	0.0	280.6649749279022	2.5083718299865723
33	99.4407958984375	fix_post	2		12.0	31.0	2.5	/experiments/knapen_aot/videos/R_S_yt-N1ZrWT4xyzc_85.mp4	0.0	283.1733467578888	0.09993410110473633
34	99.54072999954224	fix_pre	0		20.0	32.0	2.5	/experiments/knapen_aot/videos/S_pexels-rodnae-productions-5617905.mp4	0.0	283.27328085899353	0.1666259765625
34	99.6993088722229	response	0	2		32.0	2.5	/experiments/knapen_aot/videos/S_pexels-rodnae-productions-5617905.mp4	0.0	283.4318597316742	
34	99.70735597610474	movie	1		162.0	32.0	2.5	/experiments/knapen_aot/videos/S_pexels-rodnae-productions-5617905.mp4	0.0	283.43990683555603	2.5084519386291504
34	102.21580791473389	fix_post	2		12.0	32.0	2.5	/experiments/knapen_aot/videos/S_pexels-rodnae-productions-5617905.mp4	0.0	285.9483587741852	0.10071301460266113
35	102.31652092933655	fix_pre	0		33.0	33.0	2.5	/experiments/knapen_aot/videos/R_S_yt-qF-69JWJX_Y_55.mp4	0.0	286.04907178878784	0.2741999626159668
35	102.58260607719421	response	0	2		33.0	2.5	/experiments/knapen_aot/videos/R_S_yt-qF-69JWJX_Y_55.mp4	0.0	286.3151569366455	
35	102.59072089195251	movie	1		301.0	33.0	2.5	/experiments/knapen_aot/videos/R_S_yt-qF-69JWJX_Y_55.mp4	0.0	286.3232717514038	2.5083680152893066
35	105.09908890724182	fix_post	2		12.0	33.0	2.5	/experiments/knapen_aot/videos/R_S_yt-qF-69JWJX_Y_55.mp4	0.0	288.8316397666931	0.10001397132873535
36	105.19910287857056	fix_pre	0		56.0	34.0	2.5	/experiments/knapen_aot/videos/S_yt-s2tZ2NIQrxg_175.mp4	0.0	288.93165373802185	0.46666717529296875
36	105.65753388404846	response	0	2		34.0	2.5	/experiments/knapen_aot/videos/S_yt-s2tZ2NIQrxg_175.mp4	0.0	289.39008474349976	
36	105.66577005386353	movie	1		299.0	34.0	2.5	/experiments/knapen_aot/videos/S_yt-s2tZ2NIQrxg_175.mp4	0.0	289.3983209133148	2.5082459449768066
36	108.17401599884033	fix_post	2		12.0	34.0	2.5	/experiments/knapen_aot/videos/S_yt-s2tZ2NIQrxg_175.mp4	0.0	291.9065668582916	0.10007405281066895
37	108.274090051651	fix_pre	0		74.0	35.0	2.5	blank	1.0	292.0066409111023	0.6165950298309326
37	108.88250589370728	response	0	2		35.0	2.5	blank	1.0	292.61505675315857	
37	108.89068508148193	movie	1		301.0	35.0	2.5	blank	1.0	292.6232359409332	2.508370876312256
37	111.39905595779419	fix_post	2		12.0	35.0	2.5	blank	1.0	295.1316068172455	0.10001611709594727
38	111.49907207489014	fix_pre	0		33.0	36.0	2.5	/experiments/knapen_aot/videos/R_S_pexels-mart-production-7279749.mp4	0.0	295.23162293434143	0.27570390701293945
38	111.76582098007202	response	0	2		36.0	2.5	/experiments/knapen_aot/videos/R_S_pexels-mart-production-7279749.mp4	0.0	295.4983718395233	
38	111.77477598190308	movie	1		164.0	36.0	2.5	/experiments/knapen_aot/videos/R_S_pexels-mart-production-7279749.mp4	0.0	295.50732684135437	2.5076160430908203
38	114.2823920249939	fix_post	2		12.0	36.0	2.5	/experiments/knapen_aot/videos/R_S_pexels-mart-production-7279749.mp4	0.0	298.0149428844452	0.10000205039978027
39	114.38239407539368	fix_pre	0		35.0	37.0	2.5	/experiments/knapen_aot/videos/S_wc-sd8_iKx0t7s7_9.mp4	0.0	298.11494493484497	0.2916719913482666
39	114.66586089134216	response	0	2		37.0	2.5	/experiments/knapen_aot/videos/S_wc-sd8_iKx0t7s7_9.mp4	0.0	298.39841175079346	
39	114.67406606674194	movie	1		161.0	37.0	2.5	/experiments/knapen_aot/videos/S_wc-sd8_iKx0t7s7_9.mp4	0.0	298.40661692619324	2.508253812789917
39	117.18231987953186	fix_post	2		12.0	37.0	2.5	/experiments/knapen_aot/videos/S_wc-sd8_iKx0t7s7_9.mp4	0.0	300.91487073898315	0.09995007514953613
40	117.2822699546814	fix_pre	0		39.0	38.0	2.5	/experiments/knapen_aot/videos/R_S_yt-8aJDzfAaArQ_75.mp4	0.0	301.0148208141327	0.32576894760131836
40	117.59166598320007	response	0	2		38.0	2.5	/experiments/knapen_aot/videos/R_S_yt-8aJDzfAaArQ_75.mp4	0.0	301.32421684265137	
40	117.60803890228271	movie	1		301.0	38.0	2.5	/experiments/knapen_aot/videos/R_S_yt-8aJDzfAaArQ_75.mp4	0.0	301.340589761734	2.507718086242676
40	120.11575698852539	fix_post	2		12.0	38.0	2.5	/experiments/knapen_aot/videos/R_S_yt-8aJDzfAaArQ_75.mp4	0.0	303.8483078479767	0.09996509552001953
41	120.21572208404541	fix_pre	0		58.0	39.0	2.5	/experiments/knapen_aot/videos/S_yt-G65z8p1YNhw_16.mp4	0.0	303.9482729434967	0.48332881927490234
41	120.69074892997742	response	0	2		39.0	2.5	/experiments/knapen_aot/videos/S_yt-G65z8p1YNhw_16.mp4	0.0	304.4232997894287	
41	120.69905090332031	movie	1		301.0	39.0	2.5	/experiments/knapen_aot/videos/S_yt-G65z8p1YNhw_16.mp4	0.0	304.4316017627716	2.5083250999450684
41	123.20737600326538	fix_post	2		12.0	39.0	2.5	/experiments/knapen_aot/videos/S_yt-G65z8p1YNhw_16.mp4	0.0	306.9399268627167	0.09994888305664062
42	123.30732488632202	fix_pre	0		36.0	40.0	2.5	/experiments/knapen_aot/videos/S_ILSVRC2015_train_00323000.mp4	0.0	307.0398757457733	0.3006720542907715
42	123.59916591644287	response	0	2		40.0	2.5	/experiments/knapen_aot/videos/S_ILSVRC2015_train_00323000.mp4	0.0	307.33171677589417	
42	123.6079969406128	movie	1		301.0	40.0	2.5	/experiments/knapen_aot/videos/S_ILSVRC2015_train_00323000.mp4	0.0	307.3405478000641	2.5077199935913086
42	126.1157169342041	fix_post	2		12.0	40.0	2.5	/experiments/knapen_aot/videos/S_ILSVRC2015_train_00323000.mp4	0.0	309.8482677936554	0.09999704360961914
43	126.21571397781372	fix_pre	0		56.0	41.0	2.5	blank	1.0	309.948264837265	0.4666290283203125
43	126.67420101165771	response	0	2		41.0	2.5	blank	1.0	310.406751871109	
43	126.68234300613403	movie	1		301.0	41.0	2.5	blank	1.0	310.4148938655853	2.508378028869629
43	129.19072103500366	fix_post	2		12.0	41.0	2.5	blank	1.0	312.92327189445496	0.09998703002929688
44	129.29070806503296	fix_pre	0		37.0	42.0	2.5	/experiments/knapen_aot/videos/S_S005_C015_SDR_2K_AVC.mp4	0.0	313.02325892448425	0.30829381942749023
44	129.58328986167908	response	0	2		42.0	2.5	/experiments/knapen_aot/videos/S_S005_C015_SDR_2K_AVC.mp4	0.0	313.31584072113037	
44	129.59900188446045	movie	1		168.0	42.0	2.5	/experiments/knapen_aot/videos/S_S005_C015_SDR_2K_AVC.mp4	0.0	313.33155274391174	2.5083041191101074
44	132.10730600357056	fix_post	2		12.0	42.0	2.5	/experiments/knapen_aot/videos/S_S005_C015_SDR_2K_AVC.mp4	0.0	315.83985686302185	0.10002493858337402
45	132.20733094215393	fix_pre	0		34.0	43.0	2.5	/experiments/knapen_aot/videos/R_S_ILSVRC2015_train_00323000.mp4	0.0	315.9398818016052	0.28326892852783203
45	132.4824140071869	response	0	2		43.0	2.5	/experiments/knapen_aot/videos/R_S_ILSVRC2015_train_00323000.mp4	0.0	316.2149648666382	
45	132.49059987068176	movie	1		301.0	43.0	2.5	/experiments/knapen_aot/videos/R_S_ILSVRC2015_train_00323000.mp4	0.0	316.22315073013306	2.5083529949188232
45	134.9989528656006	fix_post	2		12.0	43.0	2.5	/experiments/knapen_aot/videos/R_S_ILSVRC2015_train_00323000.mp4	0.0	318.7315037250519	0.09996199607849121
46	135.09891486167908	fix_pre	0		29.0	44.0	2.5	/experiments/knapen_aot/videos/S_ILSVRC2015_train_00518001.mp4	0.0	318.83146572113037	0.24166417121887207
46	135.3324830532074	response	0	2		44.0	2.5	/experiments/knapen_aot/videos/S_ILSVRC2015_train_00518001.mp4	0.0	319.0650339126587	
46	135.34057903289795	movie	1		301.0	44.0	2.5	/experiments/knapen_aot/videos/S_ILSVRC2015_train_00518001.mp4	0.0	319.07312989234924	2.5083210468292236
46	137.84890007972717	fix_post	2		12.0	44.0	2.5	/experiments/knapen_aot/videos/S_ILSVRC2015_train_00518001.mp4	0.0	321.58145093917847	0.1000368595123291
47	137.9489369392395	fix_pre	0		38.0	45.0	2.5	/experiments/knapen_aot/videos/R_S_yt-074ygGXNoQ8_64.mp4	0.0	321.6814877986908	0.3166680335998535
47	138.2573640346527	response	0	2		45.0	2.5	/experiments/knapen_aot/videos/R_S_yt-074ygGXNoQ8_64.mp4	0.0	321.989914894104	
47	138.26560497283936	movie	1		301.0	45.0	2.5	/experiments/knapen_aot/videos/R_S_yt-074ygGXNoQ8_64.mp4	0.0	321.99815583229065	2.5083630084991455
47	140.7739679813385	fix_post	2		12.0	45.0	2.5	/experiments/knapen_aot/videos/R_S_yt-074ygGXNoQ8_64.mp4	0.0	324.5065188407898	0.09992194175720215
48	140.8738899230957	fix_pre	0		55.0	46.0	2.5	/experiments/knapen_aot/videos/S_pexels-diva-plavalaguna-6985395.mp4	0.0	324.606440782547	0.458327054977417
48	141.324059009552	response	0	2		46.0	2.5	/experiments/knapen_aot/videos/S_pexels-diva-plavalaguna-6985395.mp4	0.0	325.0566098690033	
48	141.33221697807312	movie	1		163.0	46.0	2.5	/experiments/knapen_aot/videos/S_pexels-diva-plavalaguna-6985395.mp4	0.0	325.0647678375244	2.5083301067352295
48	143.84054708480835	fix_post	2		12.0	46.0	2.5	/experiments/knapen_aot/videos/S_pexels-diva-plavalaguna-6985395.mp4	0.0	327.57309794425964	0.10006380081176758
49	143.94061088562012	fix_pre	0		47.0	47.0	2.5	/experiments/knapen_aot/videos/R_S_wc-DcFDe419cL3d_17.mp4	0.0	327.6731617450714	0.3916280269622803
49	144.32407999038696	response	0	2		47.0	2.5	/experiments/knapen_aot/videos/R_S_wc-DcFDe419cL3d_17.mp4	0.0	328.05663084983826	
49	144.3322389125824	movie	1		164.0	47.0	2.5	/experiments/knapen_aot/videos/R_S_wc-DcFDe419cL3d_17.mp4	0.0	328.0647897720337	2.5083680152893066
49	146.8406069278717	fix_post	2		12.0	47.0	2.5	/experiments/knapen_aot/videos/R_S_wc-DcFDe419cL3d_17.mp4	0.0	330.573157787323	0.10001301765441895
50	146.94061994552612	fix_pre	0		33.0	48.0	2.5	blank	1.0	330.6731708049774	0.2749030590057373
50	147.20737195014954	response	0	2		48.0	2.5	blank	1.0	330.93992280960083	
50	147.21552300453186	movie	1		301.0	48.0	2.5	blank	1.0	330.94807386398315	2.5084030628204346
50	149.7239260673523	fix_post	2		12.0	48.0	2.5	blank	1.0	333.4564769268036	0.09993481636047363
51	149.82386088371277	fix_pre	0		49.0	49.0	2.5	/experiments/knapen_aot/videos/R_S_yt-eVAlSjH8E8k_127.mp4	0.0	333.55641174316406	0.4088261127471924
51	150.22408294677734	response	0	2		49.0	2.5	/experiments/knapen_aot/videos/R_S_yt-eVAlSjH8E8k_127.mp4	0.0	333.95663380622864	
51	150.23268699645996	movie	1		301.0	49.0	2.5	/experiments/knapen_aot/videos/R_S_yt-eVAlSjH8E8k_127.mp4	0.0	333.96523785591125	2.507904052734375
51	152.74059104919434	fix_post	2		12.0	49.0	2.5	/experiments/knapen_aot/videos/R_S_yt-eVAlSjH8E8k_127.mp4	0.0	336.47314190864563	0.0999608039855957
52	152.84055185317993	fix_pre	0		32.0	50.0	2.5	/experiments/knapen_aot/videos/R_S_ILSVRC2015_train_00323000.mp4	0.0	336.5731027126312	0.26714205741882324
52	153.0990080833435	response	0	2		50.0	2.5	/experiments/knapen_aot/videos/R_S_ILSVRC2015_train_00323000.mp4	0.0	336.8315589427948	
52	153.10769391059875	movie	1		301.0	50.0	2.5	/experiments/knapen_aot/videos/R_S_ILSVRC2015_train_00323000.mp4	0.0	336.84024477005005	2.5078821182250977
52	155.61557602882385	fix_post	2		12.0	50.0	2.5	/experiments/knapen_aot/videos/R_S_ILSVRC2015_train_00323000.mp4	0.0	339.34812688827515	0.09995102882385254
53	155.7155270576477	fix_pre	0		39.0	51.0	2.5	/experiments/knapen_aot/videos/S_yt-XRQ_LSGGr3Y_712.mp4	0.0	339.448077917099	0.3249549865722656
53	156.03234887123108	response	0	2		51.0	2.5	/experiments/knapen_aot/videos/S_yt-XRQ_LSGGr3Y_712.mp4	0.0	339.7648997306824	
53	156.04048204421997	movie	1		301.0	51.0	2.5	/experiments/knapen_aot/videos/S_yt-XRQ_LSGGr3Y_712.mp4	0.0	339.77303290367126	2.5083999633789062
53	158.54888200759888	fix_post	2		12.0	51.0	2.5	/experiments/knapen_aot/videos/S_yt-XRQ_LSGGr3Y_712.mp4	0.0	342.28143286705017	0.10045385360717773
54	158.64933586120605	fix_pre	0		51.0	52.0	2.5	/experiments/knapen_aot/videos/R_S_yt-thmqgEV-sYY_91.mp4	0.0	342.38188672065735	0.42448902130126953
54	159.06572699546814	response	0	2		52.0	2.5	/experiments/knapen_aot/videos/R_S_yt-thmqgEV-sYY_91.mp4	0.0	342.79827785491943	
54	159.07382488250732	movie	1		300.0	52.0	2.5	/experiments/knapen_aot/videos/R_S_yt-thmqgEV-sYY_91.mp4	0.0	342.8063757419586	2.5083069801330566
54	161.58213186264038	fix_post	2		12.0	52.0	2.5	/experiments/knapen_aot/videos/R_S_yt-thmqgEV-sYY_91.mp4	0.0	345.3146827220917	0.10001516342163086
55	161.682147026062	fix_pre	0		38.0	53.0	2.5	/experiments/knapen_aot/videos/S_yt-I9uf7kAccFA_229.mp4	0.0	345.4146978855133	0.3166520595550537
55	161.99063897132874	response	0	2		53.0	2.5	/experiments/knapen_aot/videos/S_yt-I9uf7kAccFA_229.mp4	0.0	345.72318983078003	
55	161.99879908561707	movie	1		301.0	53.0	2.5	/experiments/knapen_aot/videos/S_yt-I9uf7kAccFA_229.mp4	0.0	345.73134994506836	2.508356809616089
55	164.50715589523315	fix_post	2		12.0	53.0	2.5	/experiments/knapen_aot/videos/S_yt-I9uf7kAccFA_229.mp4	0.0	348.23970675468445	0.09987998008728027
56	164.60703587532043	fix_pre	0		30.0	54.0	2.5	/experiments/knapen_aot/videos/S_pexels-anthony-shkraba-7569650.mp4	0.0	348.33958673477173	0.2505199909210205
56	164.84898900985718	response	0	2		54.0	2.5	/experiments/knapen_aot/videos/S_pexels-anthony-shkraba-7569650.mp4	0.0	348.5815398693085	
56	164.85755586624146	movie	1		187.0	54.0	2.5	/experiments/knapen_aot/videos/S_pexels-anthony-shkraba-7569650.mp4	0.0	348.59010672569275	2.507970094680786
56	167.36552596092224	fix_post	2		12.0	54.0	2.5	/experiments/knapen_aot/videos/S_pexels-anthony-shkraba-7569650.mp4	0.0	351.09807682037354	0.09990191459655762
57	167.4654278755188	fix_pre	0		201.0	55.0	2.5	blank	1.0	351.1979787349701	1.6750540733337402
57	169.13231706619263	response	0	2		55.0	2.5	blank	1.0	352.8648679256439	
57	169.14048194885254	movie	1		301.0	55.0	2.5	blank	1.0	352.87303280830383	2.5083160400390625
57	171.6487979888916	fix_post	2		12.0	55.0	2.5	blank	1.0	355.3813488483429	0.10005593299865723
58	171.74885392189026	fix_pre	0		76.0	56.0	2.5	/experiments/knapen_aot/videos/R_S_yt-isJga8ec5UM_32.mp4	0.0	355.48140478134155	0.6332550048828125
58	172.37387800216675	response	0	2		56.0	2.5	/experiments/knapen_aot/videos/R_S_yt-isJga8ec5UM_32.mp4	0.0	356.10642886161804	
58	172.38210892677307	movie	1		301.0	56.0	2.5	/experiments/knapen_aot/videos/R_S_yt-isJga8ec5UM_32.mp4	0.0	356.11465978622437	2.5082881450653076
58	174.89039707183838	fix_post	2		12.0	56.0	2.5	/experiments/knapen_aot/videos/R_S_yt-isJga8ec5UM_32.mp4	0.0	358.6229479312897	0.0999598503112793
59	174.99035692214966	fix_pre	0		61.0	57.0	2.5	/experiments/knapen_aot/videos/S_yt-4sSV4iIs8gQ_55.mp4	0.0	358.72290778160095	0.5084130764007568
59	175.49058198928833	response	0	2		57.0	2.5	/experiments/knapen_aot/videos/S_yt-4sSV4iIs8gQ_55.mp4	0.0	359.2231328487396	
59	175.49876999855042	movie	1		301.0	57.0	2.5	/experiments/knapen_aot/videos/S_yt-4sSV4iIs8gQ_55.mp4	0.0	359.2313208580017	2.508363962173462
59	178.00713396072388	fix_post	2		12.0	57.0	2.5	/experiments/knapen_aot/videos/S_yt-4sSV4iIs8gQ_55.mp4	0.0	361.73968482017517	0.10028791427612305
60	178.107421875	fix_pre	0		35.0	58.0	2.5	/experiments/knapen_aot/videos/R_S_production_ID_5139371.mp4	0.0	361.8399727344513	0.2916691303253174
60	178.39054203033447	response	0	2		58.0	2.5	/experiments/knapen_aot/videos/R_S_production_ID_5139371.mp4	0.0	362.12309288978577	
60	178.39909100532532	movie	1		166.0	58.0	2.5	/experiments/knapen_aot/videos/R_S_production_ID_5139371.mp4	0.0	362.1316418647766	2.5080440044403076
60	180.90713500976562	fix_post	2		12.0	58.0	2.5	/experiments/knapen_aot/videos/R_S_production_ID_5139371.mp4	0.0	364.6396858692169	0.09994697570800781
61	181.00708198547363	fix_pre	0		225.0	59.0	2.5	/experiments/knapen_aot/videos/R_S_gHYomsO1dSU_5.mp4	0.0	364.7396328449249	1.874953031539917
61	182.87383008003235	response	0	2		59.0	2.5	/experiments/knapen_aot/videos/R_S_gHYomsO1dSU_5.mp4	0.0	366.60638093948364	
61	182.88203501701355	movie	1		299.0	59.0	2.5	/experiments/knapen_aot/videos/R_S_gHYomsO1dSU_5.mp4	0.0	366.61458587646484	2.508394956588745
61	185.3904299736023	fix_post	2		12.0	59.0	2.5	/experiments/knapen_aot/videos/R_S_gHYomsO1dSU_5.mp4	0.0	369.1229808330536	0.09998297691345215
62	185.49041295051575	fix_pre	0		93.0	60.0	2.5	/experiments/knapen_aot/videos/R_S_comp_LA_A008_C004_ALTB_ED_FROM_FLAME_RETIME_v46_SDR_PS_20180917_SDR_2K_AVC.mp4	0.0	369.22296380996704	0.7750389575958252
62	186.2571930885315	response	0	2		60.0	2.5	/experiments/knapen_aot/videos/R_S_comp_LA_A008_C004_ALTB_ED_FROM_FLAME_RETIME_v46_SDR_PS_20180917_SDR_2K_AVC.mp4	0.0	369.9897439479828	
62	186.26545190811157	movie	1		170.0	60.0	2.5	/experiments/knapen_aot/videos/R_S_comp_LA_A008_C004_ALTB_ED_FROM_FLAME_RETIME_v46_SDR_PS_20180917_SDR_2K_AVC.mp4	0.0	369.99800276756287	2.5082740783691406
62	188.7737259864807	fix_post	2		12.0	60.0	2.5	/experiments/knapen_aot/videos/R_S_comp_LA_A008_C004_ALTB_ED_FROM_FLAME_RETIME_v46_SDR_PS_20180917_SDR_2K_AVC.mp4	0.0	372.506276845932	0.1000070571899414
63	188.87373304367065	fix_pre	0		41.0	61.0	2.5	/experiments/knapen_aot/videos/S_ILSVRC2015_train_00515000.mp4	0.0	372.60628390312195	0.3416268825531006
63	189.207181930542	response	0	2		61.0	2.5	/experiments/knapen_aot/videos/S_ILSVRC2015_train_00515000.mp4	0.0	372.9397327899933	
63	189.21535992622375	movie	1		301.0	61.0	2.5	/experiments/knapen_aot/videos/S_ILSVRC2015_train_00515000.mp4	0.0	372.94791078567505	2.5082590579986572
63	191.7236189842224	fix_post	2		12.0	61.0	2.5	/experiments/knapen_aot/videos/S_ILSVRC2015_train_00515000.mp4	0.0	375.4561698436737	0.10008502006530762
64	191.82370400428772	fix_pre	0		54.0	62.0	2.5	blank	1.0	375.556254863739	0.4502859115600586
64	192.26569294929504	response	0	2		62.0	2.5	blank	1.0	375.99824380874634	
64	192.27398991584778	movie	1		301.0	62.0	2.5	blank	1.0	376.0065407752991	2.5080251693725586
64	194.78201508522034	fix_post	2		12.0	62.0	2.5	blank	1.0	378.51456594467163	0.1000068187713623
65	194.8820219039917	fix_pre	0		36.0	63.0	2.5	/experiments/knapen_aot/videos/S_yt-wIZprsJwxBM_298.mp4	0.0	378.614572763443	0.2999610900878906
65	195.17380285263062	response	0	2		63.0	2.5	/experiments/knapen_aot/videos/S_yt-wIZprsJwxBM_298.mp4	0.0	378.9063537120819	
65	195.1819829940796	movie	1		301.0	63.0	2.5	/experiments/knapen_aot/videos/S_yt-wIZprsJwxBM_298.mp4	0.0	378.9145338535309	2.5083560943603516
65	197.69033908843994	fix_post	2		12.0	63.0	2.5	/experiments/knapen_aot/videos/S_yt-wIZprsJwxBM_298.mp4	0.0	381.42288994789124	0.10001778602600098
66	197.79035687446594	fix_pre	0		46.0	64.0	2.5	/experiments/knapen_aot/videos/R_S_ILSVRC2015_train_00584001.mp4	0.0	381.52290773391724	0.3832550048828125
66	198.16553401947021	response	0	2		64.0	2.5	/experiments/knapen_aot/videos/R_S_ILSVRC2015_train_00584001.mp4	0.0	381.8980848789215	
66	198.17361187934875	movie	1		301.0	64.0	2.5	/experiments/knapen_aot/videos/R_S_ILSVRC2015_train_00584001.mp4	0.0	381.90616273880005	2.5083470344543457
66	200.6819589138031	fix_post	2		12.0	64.0	2.5	/experiments/knapen_aot/videos/R_S_ILSVRC2015_train_00584001.mp4	0.0	384.4145097732544	0.10006308555603027
67	200.78202199935913	fix_pre	0		50.0	65.0	2.5	/experiments/knapen_aot/videos/S_yt-VrEuTDQxtD0_226.mp4	0.0	384.5145728588104	0.41667604446411133
67	201.19046187400818	response	0	2		65.0	2.5	/experiments/knapen_aot/videos/S_yt-VrEuTDQxtD0_226.mp4	0.0	384.9230127334595	
67	201.19869804382324	movie	1		301.0	65.0	2.5	/experiments/knapen_aot/videos/S_yt-VrEuTDQxtD0_226.mp4	0.0	384.93124890327454	2.5083088874816895
67	203.70700693130493	fix_post	2		12.0	65.0	2.5	/experiments/knapen_aot/videos/S_yt-VrEuTDQxtD0_226.mp4	0.0	387.4395577907562	0.10004401206970215
68	203.80705094337463	fix_pre	0		40.0	66.0	2.5	/experiments/knapen_aot/videos/S_pexels-mart-production-7279749.mp4	0.0	387.5396018028259	0.3333289623260498
68	204.13214206695557	response	0	2		66.0	2.5	/experiments/knapen_aot/videos/S_pexels-mart-production-7279749.mp4	0.0	387.86469292640686	
68	204.14037990570068	movie	1		162.0	66.0	2.5	/experiments/knapen_aot/videos/S_pexels-mart-production-7279749.mp4	0.0	387.872930765152	2.5082521438598633
68	206.64863204956055	fix_post	2		12.0	66.0	2.5	/experiments/knapen_aot/videos/S_pexels-mart-production-7279749.mp4	0.0	390.38118290901184	0.09998583793640137
69	206.74861788749695	fix_pre	0		31.0	67.0	2.5	/experiments/knapen_aot/videos/R_S_yt-RNPFV7lgAvE_362.mp4	0.0	390.48116874694824	0.25833606719970703
69	206.99885487556458	response	0	2		67.0	2.5	/experiments/knapen_aot/videos/R_S_yt-RNPFV7lgAvE_362.mp4	0.0	390.73140573501587	
69	207.00695395469666	movie	1		301.0	67.0	2.5	/experiments/knapen_aot/videos/R_S_yt-RNPFV7lgAvE_362.mp4	0.0	390.73950481414795	2.508316993713379
69	209.51527094841003	fix_post	2		12.0	67.0	2.5	/experiments/knapen_aot/videos/R_S_yt-RNPFV7lgAvE_362.mp4	0.0	393.2478218078613	0.09998607635498047
70	209.61525702476501	fix_pre	0		52.0	68.0	2.5	/experiments/knapen_aot/videos/R_S_comp_DB_D011_D009_SIGNCMP_v15_6Mbps.mp4	0.0	393.3478078842163	0.4333460330963135
70	210.04054188728333	response	0	2		68.0	2.5	/experiments/knapen_aot/videos/R_S_comp_DB_D011_D009_SIGNCMP_v15_6Mbps.mp4	0.0	393.7730927467346	
70	210.04860305786133	movie	1		169.0	68.0	2.5	/experiments/knapen_aot/videos/R_S_comp_DB_D011_D009_SIGNCMP_v15_6Mbps.mp4	0.0	393.7811539173126	2.5083858966827393
70	212.55698895454407	fix_post	2		12.0	68.0	2.5	/experiments/knapen_aot/videos/R_S_comp_DB_D011_D009_SIGNCMP_v15_6Mbps.mp4	0.0	396.28953981399536	0.09997200965881348
71	212.65696096420288	fix_pre	0		60.0	69.0	2.5	/experiments/knapen_aot/videos/S_yt-a9bnYU0Gnxg_59.mp4	0.0	396.3895118236542	0.49997496604919434
71	213.14878797531128	response	0	2		69.0	2.5	/experiments/knapen_aot/videos/S_yt-a9bnYU0Gnxg_59.mp4	0.0	396.8813388347626	
71	213.15693593025208	movie	1		301.0	69.0	2.5	/experiments/knapen_aot/videos/S_yt-a9bnYU0Gnxg_59.mp4	0.0	396.88948678970337	2.508368968963623
71	215.6653048992157	fix_post	2		12.0	69.0	2.5	/experiments/knapen_aot/videos/S_yt-a9bnYU0Gnxg_59.mp4	0.0	399.397855758667	0.09998917579650879
72	215.7652940750122	fix_pre	0		36.0	70.0	2.5	blank	1.0	399.4978449344635	0.30026888847351074
72	216.0570559501648	response	0	2		70.0	2.5	blank	1.0	399.7896068096161	
72	216.06556296348572	movie	1		301.0	70.0	2.5	blank	1.0	399.798113822937	2.5080668926239014
72	218.57362985610962	fix_post	2		12.0	70.0	2.5	blank	1.0	402.3061807155609	0.0999901294708252
73	218.67361998558044	fix_pre	0		54.0	71.0	2.5	/experiments/knapen_aot/videos/R_S_ILSVRC2015_train_00743005.mp4	0.0	402.40617084503174	0.45826005935668945
73	219.12365102767944	response	0	2		71.0	2.5	/experiments/knapen_aot/videos/R_S_ILSVRC2015_train_00743005.mp4	0.0	402.85620188713074	
73	219.13188004493713	movie	1		301.0	71.0	2.5	/experiments/knapen_aot/videos/R_S_ILSVRC2015_train_00743005.mp4	0.0	402.8644309043884	2.5084190368652344
73	221.64029908180237	fix_post	2		12.0	71.0	2.5	/experiments/knapen_aot/videos/R_S_ILSVRC2015_train_00743005.mp4	0.0	405.37284994125366	0.09997177124023438
74	221.7402708530426	fix_pre	0		33.0	72.0	2.5	/experiments/knapen_aot/videos/S_Nh81j72Utbs_5.mp4	0.0	405.4728217124939	0.27495908737182617
74	222.00698804855347	response	0	2		72.0	2.5	/experiments/knapen_aot/videos/S_Nh81j72Utbs_5.mp4	0.0	405.73953890800476	
74	222.01522994041443	movie	1		301.0	72.0	2.5	/experiments/knapen_aot/videos/S_Nh81j72Utbs_5.mp4	0.0	405.7477807998657	2.508470058441162
74	224.5236999988556	fix_post	2		12.0	72.0	2.5	/experiments/knapen_aot/videos/S_Nh81j72Utbs_5.mp4	0.0	408.2562508583069	0.09985995292663574
75	224.62355995178223	fix_pre	0		56.0	73.0	2.5	/experiments/knapen_aot/videos/S_ILSVRC2015_test_00001002.mp4	0.0	408.3561108112335	0.46663713455200195
75	225.08204007148743	response	0	2		73.0	2.5	/experiments/knapen_aot/videos/S_ILSVRC2015_test_00001002.mp4	0.0	408.8145909309387	
75	225.09019708633423	movie	1		301.0	73.0	2.5	/experiments/knapen_aot/videos/S_ILSVRC2015_test_00001002.mp4	0.0	408.8227479457855	2.5083529949188232
75	227.59855008125305	fix_post	2		12.0	73.0	2.5	/experiments/knapen_aot/videos/S_ILSVRC2015_test_00001002.mp4	0.0	411.33110094070435	0.09994888305664062
76	227.6984989643097	fix_pre	0		43.0	74.0	2.5	/experiments/knapen_aot/videos/R_S_yt-mI9voWol7cE_104.mp4	0.0	411.431049823761	0.35830211639404297
76	228.0486900806427	response	0	2		74.0	2.5	/experiments/knapen_aot/videos/R_S_yt-mI9voWol7cE_104.mp4	0.0	411.781240940094	
76	228.05680108070374	movie	1		301.0	74.0	2.5	/experiments/knapen_aot/videos/R_S_yt-mI9voWol7cE_104.mp4	0.0	411.78935194015503	2.508466958999634
76	230.56526803970337	fix_post	2		12.0	74.0	2.5	/experiments/knapen_aot/videos/R_S_yt-mI9voWol7cE_104.mp4	0.0	414.29781889915466	0.09994292259216309
77	230.66521096229553	fix_pre	0		57.0	75.0	2.5	/experiments/knapen_aot/videos/R_S_yt-2WPmM2vIuBE_41.mp4	0.0	414.3977618217468	0.4749460220336914
77	231.12458395957947	response	0	2		75.0	2.5	/experiments/knapen_aot/videos/R_S_yt-2WPmM2vIuBE_41.mp4	0.0	414.85713481903076	
77	231.14015698432922	movie	1		301.0	75.0	2.5	/experiments/knapen_aot/videos/R_S_yt-2WPmM2vIuBE_41.mp4	0.0	414.8727078437805	2.5084409713745117
77	233.64859795570374	fix_post	2		12.0	75.0	2.5	/experiments/knapen_aot/videos/R_S_yt-2WPmM2vIuBE_41.mp4	0.0	417.38114881515503	0.09993100166320801
78	233.74852895736694	fix_pre	0		42.0	76.0	2.5	blank	1.0	417.48107981681824	0.34996700286865234
78	234.09036207199097	response	0	2		76.0	2.5	blank	1.0	417.82291293144226	
78	234.0984959602356	movie	1		301.0	76.0	2.5	blank	1.0	417.8310468196869	2.5085229873657227
78	236.60701894760132	fix_post	2		12.0	76.0	2.5	blank	1.0	420.3395698070526	0.09984493255615234
79	236.70686388015747	fix_pre	0		51.0	77.0	2.5	/experiments/knapen_aot/videos/R_S_yt-wjBwgccZM5k_150.mp4	0.0	420.43941473960876	0.42496609687805176
79	237.12360286712646	response	0	2		77.0	2.5	/experiments/knapen_aot/videos/R_S_yt-wjBwgccZM5k_150.mp4	0.0	420.85615372657776	
79	237.13182997703552	movie	1		301.0	77.0	2.5	/experiments/knapen_aot/videos/R_S_yt-wjBwgccZM5k_150.mp4	0.0	420.8643808364868	2.5083630084991455
79	239.64019298553467	fix_post	2		12.0	77.0	2.5	/experiments/knapen_aot/videos/R_S_yt-wjBwgccZM5k_150.mp4	0.0	423.37274384498596	0.09999203681945801
80	239.74018502235413	fix_pre	0		39.0	78.0	2.5	/experiments/knapen_aot/videos/R_S_yt-wEbfIR14zZ8_7.mp4	0.0	423.4727358818054	0.3250570297241211
80	240.05698800086975	response	0	2		78.0	2.5	/experiments/knapen_aot/videos/R_S_yt-wEbfIR14zZ8_7.mp4	0.0	423.78953886032104	
80	240.06524205207825	movie	1		301.0	78.0	2.5	/experiments/knapen_aot/videos/R_S_yt-wEbfIR14zZ8_7.mp4	0.0	423.79779291152954	2.508188009262085
80	242.57343006134033	fix_post	2		12.0	78.0	2.5	/experiments/knapen_aot/videos/R_S_yt-wEbfIR14zZ8_7.mp4	0.0	426.3059809207916	0.10003995895385742
81	242.6734700202942	fix_pre	0		32.0	79.0	2.5	/experiments/knapen_aot/videos/S_yt-2IN85w8ptmM_51.mp4	0.0	426.4060208797455	0.26668500900268555
81	242.93194103240967	response	0	2		79.0	2.5	/experiments/knapen_aot/videos/S_yt-2IN85w8ptmM_51.mp4	0.0	426.66449189186096	
81	242.94015502929688	movie	1		301.0	79.0	2.5	/experiments/knapen_aot/videos/S_yt-2IN85w8ptmM_51.mp4	0.0	426.67270588874817	2.508281946182251
81	245.44843697547913	fix_post	2		12.0	79.0	2.5	/experiments/knapen_aot/videos/S_yt-2IN85w8ptmM_51.mp4	0.0	429.1809878349304	0.10004591941833496
82	245.54848289489746	fix_pre	0		29.0	80.0	2.5	/experiments/knapen_aot/videos/S_G008_C015_UHD_SDR_2K_AVC.mp4	0.0	429.28103375434875	0.24156808853149414
82	245.7818899154663	response	0	2		80.0	2.5	/experiments/knapen_aot/videos/S_G008_C015_UHD_SDR_2K_AVC.mp4	0.0	429.5144407749176	
82	245.79005098342896	movie	1		171.0	80.0	2.5	/experiments/knapen_aot/videos/S_G008_C015_UHD_SDR_2K_AVC.mp4	0.0	429.52260184288025	2.508435010910034
82	248.298485994339	fix_post	2		12.0	80.0	2.5	/experiments/knapen_aot/videos/S_G008_C015_UHD_SDR_2K_AVC.mp4	0.0	432.0310368537903	0.10003805160522461
83	248.3985240459442	fix_pre	0		60.0	81.0	2.5	/experiments/knapen_aot/videos/R_S_yt-6B69qmkEdTI_1.mp4	0.0	432.1310749053955	0.5013308525085449
83	248.89020204544067	response	0	2		81.0	2.5	/experiments/knapen_aot/videos/R_S_yt-6B69qmkEdTI_1.mp4	0.0	432.62275290489197	
83	248.89985489845276	movie	1		301.0	81.0	2.5	/experiments/knapen_aot/videos/R_S_yt-6B69qmkEdTI_1.mp4	0.0	432.63240575790405	2.506925106048584
83	251.40678000450134	fix_post	2		12.0	81.0	2.5	/experiments/knapen_aot/videos/R_S_yt-6B69qmkEdTI_1.mp4	0.0	435.13933086395264	0.09995198249816895
84	251.5067319869995	fix_pre	0		69.0	82.0	2.5	/experiments/knapen_aot/videos/R_S_production_ID_4325516.mp4	0.0	435.2392828464508	0.5750269889831543
84	252.07356190681458	response	0	2		82.0	2.5	/experiments/knapen_aot/videos/R_S_production_ID_4325516.mp4	0.0	435.80611276626587	
84	252.08175897598267	movie	1		193.0	82.0	2.5	/experiments/knapen_aot/videos/R_S_production_ID_4325516.mp4	0.0	435.81430983543396	2.5083439350128174
84	254.59010291099548	fix_post	2		12.0	82.0	2.5	/experiments/knapen_aot/videos/R_S_production_ID_4325516.mp4	0.0	438.3226537704468	0.10008406639099121
85	254.69018697738647	fix_pre	0		38.0	83.0	2.5	blank	1.0	438.42273783683777	0.31662893295288086
85	254.99860191345215	response	0	2		83.0	2.5	blank	1.0	438.73115277290344	
85	255.00681591033936	movie	1		301.0	83.0	2.5	blank	1.0	438.73936676979065	2.5083420276641846
85	257.51515793800354	fix_post	2		12.0	83.0	2.5	blank	1.0	441.24770879745483	0.09998106956481934
87	257.61513900756836	stim	0		135.0					441.34768986701965	1.1250040531158447
87	257.86525893211365	response	0	2						441.59780979156494	
87	258.7335569858551	response	0	space						442.4661078453064	
