trial_nr	onset	event_type	phase	response	nr_frames	movie_index	movie_duration	movie_file	blank	onset_abs	duration
0	0.13348698616027832	stim	0		28.0					208.18636298179626	0.23320603370666504
0	0.35843896865844727	response	0	space						208.41131496429443	
1	0.36669301986694336	stim	0		121.0					208.41956901550293	1.0079469680786133
1	1.025007963180542	response	0	space						209.07788395881653	
1	1.2440237998962402	response	0	2						209.29689979553223	
1	1.3746399879455566	stim	1		120.0					209.42751598358154	1.0000698566436768
1	1.3759148120880127	response	1	space						209.428790807724	
1	1.824692964553833	response	1	space						209.87756896018982	
1	2.1997008323669434	response	1	space						210.25257682800293	
2	2.3747098445892334	fix_pre	0		48.0	0.0	2.5	/experiments/knapen_aot/videos/R_S_yt-FLMdajcbjcg_35.mp4	0.0	210.42758584022522	0.3998379707336426
2	2.766436815261841	response	0	space		0.0	2.5	/experiments/knapen_aot/videos/R_S_yt-FLMdajcbjcg_35.mp4	0.0	210.81931281089783	
2	2.774547815322876	movie	1		301.0	0.0	2.5	/experiments/knapen_aot/videos/R_S_yt-FLMdajcbjcg_35.mp4	0.0	210.82742381095886	2.5083680152893066
2	5.282915830612183	fix_post	2		11.0	0.0	2.5	/experiments/knapen_aot/videos/R_S_yt-FLMdajcbjcg_35.mp4	0.0	213.33579182624817	0.09507012367248535
2	5.369673013687134	response	2	2		0.0	2.5	/experiments/knapen_aot/videos/R_S_yt-FLMdajcbjcg_35.mp4	0.0	213.42254900932312	
3	5.377985954284668	fix_pre	0		64.0	1.0	2.5	/experiments/knapen_aot/videos/S_yt--cAfxH1WnPo_3.mp4	0.0	213.43086194992065	0.5298540592193604
3	5.899712800979614	response	0	2		1.0	2.5	/experiments/knapen_aot/videos/S_yt--cAfxH1WnPo_3.mp4	0.0	213.9525887966156	
3	5.907840013504028	movie	1		301.0	1.0	2.5	/experiments/knapen_aot/videos/S_yt--cAfxH1WnPo_3.mp4	0.0	213.96071600914001	2.5086159706115723
3	8.4164559841156	fix_post	2		12.0	1.0	2.5	/experiments/knapen_aot/videos/S_yt--cAfxH1WnPo_3.mp4	0.0	216.4693319797516	0.09981584548950195
4	8.516271829605103	fix_pre	0		19.0	2.0	2.5	/experiments/knapen_aot/videos/S_comp_LA_A011_C003_DGRN_LNFIX_STAB_v57_SDR_PS_20181002_SDR_2K_AVC.mp4	0.0	216.5691478252411	0.15826797485351562
4	8.666382789611816	response	0	2		2.0	2.5	/experiments/knapen_aot/videos/S_comp_LA_A011_C003_DGRN_LNFIX_STAB_v57_SDR_PS_20181002_SDR_2K_AVC.mp4	0.0	216.7192587852478	
4	8.674539804458618	movie	1		167.0	2.0	2.5	/experiments/knapen_aot/videos/S_comp_LA_A011_C003_DGRN_LNFIX_STAB_v57_SDR_PS_20181002_SDR_2K_AVC.mp4	0.0	216.7274158000946	2.508419990539551
4	11.182959794998169	fix_post	2		12.0	2.0	2.5	/experiments/knapen_aot/videos/S_comp_LA_A011_C003_DGRN_LNFIX_STAB_v57_SDR_PS_20181002_SDR_2K_AVC.mp4	0.0	219.23583579063416	0.09994316101074219
4	11.274784803390503	response	2	2		2.0	2.5	/experiments/knapen_aot/videos/S_comp_LA_A011_C003_DGRN_LNFIX_STAB_v57_SDR_PS_20181002_SDR_2K_AVC.mp4	0.0	219.3276607990265	
5	11.282902956008911	fix_pre	0		47.0	3.0	2.5	/experiments/knapen_aot/videos/R_S_yt-MyL1VlXiZa4_25.mp4	0.0	219.3357789516449	0.391726016998291
5	11.666334867477417	response	0	2		3.0	2.5	/experiments/knapen_aot/videos/R_S_yt-MyL1VlXiZa4_25.mp4	0.0	219.7192108631134	
5	11.674628973007202	movie	1		301.0	3.0	2.5	/experiments/knapen_aot/videos/R_S_yt-MyL1VlXiZa4_25.mp4	0.0	219.7275049686432	2.5082600116729736
5	14.182888984680176	fix_post	2		12.0	3.0	2.5	/experiments/knapen_aot/videos/R_S_yt-MyL1VlXiZa4_25.mp4	0.0	222.23576498031616	0.09995698928833008
5	14.258790969848633	response	2	2		3.0	2.5	/experiments/knapen_aot/videos/R_S_yt-MyL1VlXiZa4_25.mp4	0.0	222.31166696548462	
6	14.282845973968506	fix_pre	0		54.0	4.0	2.5	/experiments/knapen_aot/videos/R_S_wc-NVeGRb_y_y_5_36.mp4	0.0	222.3357219696045	0.45000600814819336
6	14.724677801132202	response	0	2		4.0	2.5	/experiments/knapen_aot/videos/R_S_wc-NVeGRb_y_y_5_36.mp4	0.0	222.7775537967682	
6	14.7328519821167	movie	1		167.0	4.0	2.5	/experiments/knapen_aot/videos/R_S_wc-NVeGRb_y_y_5_36.mp4	0.0	222.78572797775269	2.508546829223633
6	17.241398811340332	fix_post	2		12.0	4.0	2.5	/experiments/knapen_aot/videos/R_S_wc-NVeGRb_y_y_5_36.mp4	0.0	225.29427480697632	0.09984612464904785
7	17.34124493598938	fix_pre	0		6.0	5.0	2.5	/experiments/knapen_aot/videos/R_S_yt-RNPFV7lgAvE_362.mp4	0.0	225.39412093162537	0.050415992736816406
7	17.382964849472046	response	0	2		5.0	2.5	/experiments/knapen_aot/videos/R_S_yt-RNPFV7lgAvE_362.mp4	0.0	225.43584084510803	
7	17.391660928726196	movie	1		301.0	5.0	2.5	/experiments/knapen_aot/videos/R_S_yt-RNPFV7lgAvE_362.mp4	0.0	225.44453692436218	2.507899045944214
7	19.89955997467041	fix_post	2		12.0	5.0	2.5	/experiments/knapen_aot/videos/R_S_yt-RNPFV7lgAvE_362.mp4	0.0	227.9524359703064	0.09992790222167969
8	19.99948787689209	fix_pre	0		25.0	6.0	2.5	/experiments/knapen_aot/videos/R_S_yt-BrepyEWKrPQ_20.mp4	0.0	228.05236387252808	0.20835399627685547
8	20.199662923812866	response	0	2		6.0	2.5	/experiments/knapen_aot/videos/R_S_yt-BrepyEWKrPQ_20.mp4	0.0	228.25253891944885	
8	20.207841873168945	movie	1		301.0	6.0	2.5	/experiments/knapen_aot/videos/R_S_yt-BrepyEWKrPQ_20.mp4	0.0	228.26071786880493	2.5083611011505127
8	22.716202974319458	fix_post	2		12.0	6.0	2.5	/experiments/knapen_aot/videos/R_S_yt-BrepyEWKrPQ_20.mp4	0.0	230.76907896995544	0.09999203681945801
9	22.816195011138916	fix_pre	0		7.0	7.0	2.5	blank	1.0	230.8690710067749	0.05831098556518555
9	22.86632990837097	response	0	2		7.0	2.5	blank	1.0	230.91920590400696	
9	22.8745059967041	movie	1		301.0	7.0	2.5	blank	1.0	230.9273819923401	2.5083508491516113
9	25.382856845855713	fix_post	2		12.0	7.0	2.5	blank	1.0	233.4357328414917	0.10000014305114746
9	25.474609851837158	response	2	2		7.0	2.5	blank	1.0	233.52748584747314	
10	25.48285698890686	fix_pre	0		45.0	8.0	2.5	/experiments/knapen_aot/videos/S_yt-MyL1VlXiZa4_25.mp4	0.0	233.53573298454285	0.3750169277191162
10	25.849615812301636	response	0	2		8.0	2.5	/experiments/knapen_aot/videos/S_yt-MyL1VlXiZa4_25.mp4	0.0	233.90249180793762	
10	25.857873916625977	movie	1		301.0	8.0	2.5	/experiments/knapen_aot/videos/S_yt-MyL1VlXiZa4_25.mp4	0.0	233.91074991226196	2.5083160400390625
10	28.36618995666504	fix_post	2		12.0	8.0	2.5	/experiments/knapen_aot/videos/S_yt-MyL1VlXiZa4_25.mp4	0.0	236.41906595230103	0.0999598503112793
11	28.46614980697632	fix_pre	0		8.0	9.0	2.5	/experiments/knapen_aot/videos/S_ILSVRC2015_train_00423000.mp4	0.0	236.5190258026123	0.06666207313537598
11	28.524606943130493	response	0	2		9.0	2.5	/experiments/knapen_aot/videos/S_ILSVRC2015_train_00423000.mp4	0.0	236.57748293876648	
11	28.532811880111694	movie	1		301.0	9.0	2.5	/experiments/knapen_aot/videos/S_ILSVRC2015_train_00423000.mp4	0.0	236.58568787574768	2.5086750984191895
11	31.041486978530884	fix_post	2		12.0	9.0	2.5	/experiments/knapen_aot/videos/S_ILSVRC2015_train_00423000.mp4	0.0	239.09436297416687	0.10017681121826172
12	31.141663789749146	fix_pre	0		5.0	10.0	2.5	/experiments/knapen_aot/videos/S_yt-SRcIvTQcmOk_62.mp4	0.0	239.19453978538513	0.04154706001281738
12	31.17468786239624	response	0	2		10.0	2.5	/experiments/knapen_aot/videos/S_yt-SRcIvTQcmOk_62.mp4	0.0	239.22756385803223	
12	31.183210849761963	movie	1		301.0	10.0	2.5	/experiments/knapen_aot/videos/S_yt-SRcIvTQcmOk_62.mp4	0.0	239.23608684539795	2.5079381465911865
12	33.69114899635315	fix_post	2		12.0	10.0	2.5	/experiments/knapen_aot/videos/S_yt-SRcIvTQcmOk_62.mp4	0.0	241.74402499198914	0.10022091865539551
13	33.791369915008545	fix_pre	0		10.0	11.0	2.5	/experiments/knapen_aot/videos/S_ILSVRC2015_train_00574004.mp4	0.0	241.84424591064453	0.0831151008605957
13	33.86617088317871	response	0	2		11.0	2.5	/experiments/knapen_aot/videos/S_ILSVRC2015_train_00574004.mp4	0.0	241.9190468788147	
13	33.87448501586914	movie	1		301.0	11.0	2.5	/experiments/knapen_aot/videos/S_ILSVRC2015_train_00574004.mp4	0.0	241.92736101150513	2.508370876312256
13	36.3828558921814	fix_post	2		12.0	11.0	2.5	/experiments/knapen_aot/videos/S_ILSVRC2015_train_00574004.mp4	0.0	244.43573188781738	0.09996509552001953
14	36.482820987701416	fix_pre	0		31.0	12.0	2.5	/experiments/knapen_aot/videos/S_yt-nn-8LZcafGs_35.mp4	0.0	244.5356969833374	0.2583279609680176
14	36.73292899131775	response	0	2		12.0	2.5	/experiments/knapen_aot/videos/S_yt-nn-8LZcafGs_35.mp4	0.0	244.78580498695374	
14	36.741148948669434	movie	1		301.0	12.0	2.5	/experiments/knapen_aot/videos/S_yt-nn-8LZcafGs_35.mp4	0.0	244.79402494430542	2.5083229541778564
14	39.24947190284729	fix_post	2		12.0	12.0	2.5	/experiments/knapen_aot/videos/S_yt-nn-8LZcafGs_35.mp4	0.0	247.30234789848328	0.10002398490905762
15	39.34949588775635	fix_pre	0		19.0	13.0	2.5	/experiments/knapen_aot/videos/S_yt-5doJmCcFL7s_3.mp4	0.0	247.40237188339233	0.15823912620544434
15	39.49963092803955	response	0	2		13.0	2.5	/experiments/knapen_aot/videos/S_yt-5doJmCcFL7s_3.mp4	0.0	247.55250692367554	
15	39.50773501396179	movie	1		301.0	13.0	2.5	/experiments/knapen_aot/videos/S_yt-5doJmCcFL7s_3.mp4	0.0	247.56061100959778	2.5084409713745117
15	42.016175985336304	fix_post	2		12.0	13.0	2.5	/experiments/knapen_aot/videos/S_yt-5doJmCcFL7s_3.mp4	0.0	250.0690519809723	0.09995484352111816
16	42.11613082885742	fix_pre	0		16.0	14.0	2.5	blank	1.0	250.1690068244934	0.1333000659942627
16	42.24120783805847	response	0	2		14.0	2.5	blank	1.0	250.29408383369446	
16	42.249430894851685	movie	1		301.0	14.0	2.5	blank	1.0	250.30230689048767	2.5083730220794678
16	44.75780391693115	fix_post	2		12.0	14.0	2.5	blank	1.0	252.81067991256714	0.09997701644897461
17	44.85778093338013	fix_pre	0		16.0	15.0	2.5	/experiments/knapen_aot/videos/R_S_bing-www_nytimes_com_video_dining_1247468118505_grilled-chicken-breasts-with-herb-butter_html_132.mp4	0.0	252.9106569290161	0.13330793380737305
17	44.98296594619751	response	0	2		15.0	2.5	/experiments/knapen_aot/videos/R_S_bing-www_nytimes_com_video_dining_1247468118505_grilled-chicken-breasts-with-herb-butter_html_132.mp4	0.0	253.0358419418335	
17	44.9910888671875	movie	1		168.0	15.0	2.5	/experiments/knapen_aot/videos/R_S_bing-www_nytimes_com_video_dining_1247468118505_grilled-chicken-breasts-with-herb-butter_html_132.mp4	0.0	253.0439648628235	2.5083260536193848
17	47.499414920806885	fix_post	2		12.0	15.0	2.5	/experiments/knapen_aot/videos/R_S_bing-www_nytimes_com_video_dining_1247468118505_grilled-chicken-breasts-with-herb-butter_html_132.mp4	0.0	255.55229091644287	0.10004997253417969
18	47.599464893341064	fix_pre	0		1.0	16.0	2.5	/experiments/knapen_aot/videos/R_S_yt-4Qz0m5IYh10_167.mp4	0.0	255.65234088897705	0.008230924606323242
18	47.601247787475586	response	0	2		16.0	2.5	/experiments/knapen_aot/videos/R_S_yt-4Qz0m5IYh10_167.mp4	0.0	255.65412378311157	
18	47.60769581794739	movie	1		301.0	16.0	2.5	/experiments/knapen_aot/videos/R_S_yt-4Qz0m5IYh10_167.mp4	0.0	255.66057181358337	2.508458137512207
18	50.116153955459595	fix_post	2		12.0	16.0	2.5	/experiments/knapen_aot/videos/R_S_yt-4Qz0m5IYh10_167.mp4	0.0	258.1690299510956	0.09994792938232422
19	50.21610188484192	fix_pre	0		14.0	17.0	2.5	/experiments/knapen_aot/videos/R_S_yt-rZA9zXR-A6s_426.mp4	0.0	258.2689778804779	0.11661505699157715
19	50.32455801963806	response	0	2		17.0	2.5	/experiments/knapen_aot/videos/R_S_yt-rZA9zXR-A6s_426.mp4	0.0	258.37743401527405	
19	50.332716941833496	movie	1		301.0	17.0	2.5	/experiments/knapen_aot/videos/R_S_yt-rZA9zXR-A6s_426.mp4	0.0	258.3855929374695	2.508401870727539
19	52.841118812561035	fix_post	2		12.0	17.0	2.5	/experiments/knapen_aot/videos/R_S_yt-rZA9zXR-A6s_426.mp4	0.0	260.893994808197	0.10012316703796387
20	52.941241979599	fix_pre	0		4.0	18.0	2.5	/experiments/knapen_aot/videos/R_S_yt-xQilXyNKsBw_42.mp4	0.0	260.994117975235	0.03369283676147461
20	52.9662299156189	response	0	2		18.0	2.5	/experiments/knapen_aot/videos/R_S_yt-xQilXyNKsBw_42.mp4	0.0	261.0191059112549	
20	52.974934816360474	movie	1		301.0	18.0	2.5	/experiments/knapen_aot/videos/R_S_yt-xQilXyNKsBw_42.mp4	0.0	261.02781081199646	2.507801055908203
20	55.48273587226868	fix_post	2		12.0	18.0	2.5	/experiments/knapen_aot/videos/R_S_yt-xQilXyNKsBw_42.mp4	0.0	263.53561186790466	0.10001611709594727
21	55.582751989364624	fix_pre	0		9.0	19.0	2.5	blank	1.0	263.6356279850006	0.07493090629577637
21	55.64952087402344	response	0	2		19.0	2.5	blank	1.0	263.7023968696594	
21	55.6576828956604	movie	1		301.0	19.0	2.5	blank	1.0	263.7105588912964	2.5083649158477783
21	58.16604781150818	fix_post	2		12.0	19.0	2.5	blank	1.0	266.21892380714417	0.10036611557006836
22	58.26641392707825	fix_pre	0		22.0	20.0	2.5	/experiments/knapen_aot/videos/R_S_yt-l6WPyKg_3is_154.mp4	0.0	266.31928992271423	0.18301987648010254
22	58.44115900993347	response	0	2		20.0	2.5	/experiments/knapen_aot/videos/R_S_yt-l6WPyKg_3is_154.mp4	0.0	266.49403500556946	
22	58.44943380355835	movie	1		301.0	20.0	2.5	/experiments/knapen_aot/videos/R_S_yt-l6WPyKg_3is_154.mp4	0.0	266.50230979919434	2.5082662105560303
22	60.95770001411438	fix_post	2		12.0	20.0	2.5	/experiments/knapen_aot/videos/R_S_yt-l6WPyKg_3is_154.mp4	0.0	269.01057600975037	0.10000300407409668
23	61.05770301818848	fix_pre	0		12.0	21.0	2.5	/experiments/knapen_aot/videos/R_S_yt-aD-EAuBdpUo_163.mp4	0.0	269.11057901382446	0.0999457836151123
23	61.14942693710327	response	0	2		21.0	2.5	/experiments/knapen_aot/videos/R_S_yt-aD-EAuBdpUo_163.mp4	0.0	269.20230293273926	
23	61.15764880180359	movie	1		301.0	21.0	2.5	/experiments/knapen_aot/videos/R_S_yt-aD-EAuBdpUo_163.mp4	0.0	269.2105247974396	2.5085980892181396
23	63.66624689102173	fix_post	2		12.0	21.0	2.5	/experiments/knapen_aot/videos/R_S_yt-aD-EAuBdpUo_163.mp4	0.0	271.7191228866577	0.10010695457458496
24	63.76635384559631	fix_pre	0		2.0	22.0	2.5	/experiments/knapen_aot/videos/R_S_bing-www_nytimes_com_video_dining_1247468118505_grilled-chicken-breasts-with-herb-butter_html_132.mp4	0.0	271.8192298412323	0.016376972198486328
24	63.768913984298706	response	0	2		22.0	2.5	/experiments/knapen_aot/videos/R_S_bing-www_nytimes_com_video_dining_1247468118505_grilled-chicken-breasts-with-herb-butter_html_132.mp4	0.0	271.8217899799347	
24	63.7827308177948	movie	1		166.0	22.0	2.5	/experiments/knapen_aot/videos/R_S_bing-www_nytimes_com_video_dining_1247468118505_grilled-chicken-breasts-with-herb-butter_html_132.mp4	0.0	271.8356068134308	2.508305072784424
24	66.29103589057922	fix_post	2		12.0	22.0	2.5	/experiments/knapen_aot/videos/R_S_bing-www_nytimes_com_video_dining_1247468118505_grilled-chicken-breasts-with-herb-butter_html_132.mp4	0.0	274.3439118862152	0.10023093223571777
24	66.3577139377594	response	2	2		22.0	2.5	/experiments/knapen_aot/videos/R_S_bing-www_nytimes_com_video_dining_1247468118505_grilled-chicken-breasts-with-herb-butter_html_132.mp4	0.0	274.4105899333954	
25	66.39126682281494	fix_pre	0		48.0	23.0	2.5	/experiments/knapen_aot/videos/R_S_yt-XbigWWtnGL4_75.mp4	0.0	274.4441428184509	0.3997170925140381
25	66.7827398777008	response	0	2		23.0	2.5	/experiments/knapen_aot/videos/R_S_yt-XbigWWtnGL4_75.mp4	0.0	274.8356158733368	
25	66.79098391532898	movie	1		301.0	23.0	2.5	/experiments/knapen_aot/videos/R_S_yt-XbigWWtnGL4_75.mp4	0.0	274.84385991096497	2.508388042449951
25	69.29937195777893	fix_post	2		12.0	23.0	2.5	/experiments/knapen_aot/videos/R_S_yt-XbigWWtnGL4_75.mp4	0.0	277.3522479534149	0.09993505477905273
26	69.39930701255798	fix_pre	0		35.0	24.0	2.5	/experiments/knapen_aot/videos/S_yt-LQrnLKP5tiQ_48.mp4	0.0	277.45218300819397	0.2916219234466553
26	69.68281888961792	response	0	2		24.0	2.5	/experiments/knapen_aot/videos/S_yt-LQrnLKP5tiQ_48.mp4	0.0	277.7356948852539	
26	69.69092893600464	movie	1		301.0	24.0	2.5	/experiments/knapen_aot/videos/S_yt-LQrnLKP5tiQ_48.mp4	0.0	277.7438049316406	2.508441925048828
26	72.19937086105347	fix_post	2		12.0	24.0	2.5	/experiments/knapen_aot/videos/S_yt-LQrnLKP5tiQ_48.mp4	0.0	280.25224685668945	0.09999203681945801
27	72.29936289787292	fix_pre	0		23.0	25.0	2.5	/experiments/knapen_aot/videos/S_yt-BCFGCganiuE_8.mp4	0.0	280.3522388935089	0.19159412384033203
27	72.47511386871338	response	0	2		25.0	2.5	/experiments/knapen_aot/videos/S_yt-BCFGCganiuE_8.mp4	0.0	280.52798986434937	
27	72.49095702171326	movie	1		301.0	25.0	2.5	/experiments/knapen_aot/videos/S_yt-BCFGCganiuE_8.mp4	0.0	280.54383301734924	2.508448839187622
27	74.99940586090088	fix_post	2		12.0	25.0	2.5	/experiments/knapen_aot/videos/S_yt-BCFGCganiuE_8.mp4	0.0	283.05228185653687	0.10009598731994629
28	75.09950184822083	fix_pre	0		26.0	26.0	2.5	blank	1.0	283.1523778438568	0.21638894081115723
28	75.30779981613159	response	0	2		26.0	2.5	blank	1.0	283.3606758117676	
28	75.31589078903198	movie	1		301.0	26.0	2.5	blank	1.0	283.36876678466797	2.5084640979766846
28	77.82435488700867	fix_post	2		12.0	26.0	2.5	blank	1.0	285.87723088264465	0.09996700286865234
29	77.92432188987732	fix_pre	0		26.0	27.0	2.5	/experiments/knapen_aot/videos/R_S_yt-xQilXyNKsBw_42.mp4	0.0	285.9771978855133	0.21674704551696777
29	78.13273596763611	response	0	2		27.0	2.5	/experiments/knapen_aot/videos/R_S_yt-xQilXyNKsBw_42.mp4	0.0	286.1856119632721	
29	78.14106893539429	movie	1		301.0	27.0	2.5	/experiments/knapen_aot/videos/R_S_yt-xQilXyNKsBw_42.mp4	0.0	286.1939449310303	2.5081920623779297
29	80.64926099777222	fix_post	2		12.0	27.0	2.5	/experiments/knapen_aot/videos/R_S_yt-xQilXyNKsBw_42.mp4	0.0	288.7021369934082	0.10008788108825684
30	80.74934887886047	fix_pre	0		13.0	28.0	2.5	/experiments/knapen_aot/videos/R_S_yt-aD-EAuBdpUo_163.mp4	0.0	288.80222487449646	0.10824298858642578
30	80.84939479827881	response	0	2		28.0	2.5	/experiments/knapen_aot/videos/R_S_yt-aD-EAuBdpUo_163.mp4	0.0	288.9022707939148	
30	80.8575918674469	movie	1		301.0	28.0	2.5	/experiments/knapen_aot/videos/R_S_yt-aD-EAuBdpUo_163.mp4	0.0	288.9104678630829	2.5083019733428955
30	83.3658938407898	fix_post	2		12.0	28.0	2.5	/experiments/knapen_aot/videos/R_S_yt-aD-EAuBdpUo_163.mp4	0.0	291.4187698364258	0.10017514228820801
31	83.466068983078	fix_pre	0		16.0	29.0	2.5	/experiments/knapen_aot/videos/S_yt-MyL1VlXiZa4_25.mp4	0.0	291.518944978714	0.1332390308380127
31	83.58353781700134	response	0	2		29.0	2.5	/experiments/knapen_aot/videos/S_yt-MyL1VlXiZa4_25.mp4	0.0	291.63641381263733	
31	83.59930801391602	movie	1		301.0	29.0	2.5	/experiments/knapen_aot/videos/S_yt-MyL1VlXiZa4_25.mp4	0.0	291.652184009552	2.5082969665527344
31	86.10760498046875	fix_post	2		12.0	29.0	2.5	/experiments/knapen_aot/videos/S_yt-MyL1VlXiZa4_25.mp4	0.0	294.16048097610474	0.10003185272216797
32	86.20763683319092	fix_pre	0		28.0	30.0	2.5	/experiments/knapen_aot/videos/R_S_yt-6B69qmkEdTI_1.mp4	0.0	294.2605128288269	0.23318099975585938
32	86.43270587921143	response	0	2		30.0	2.5	/experiments/knapen_aot/videos/R_S_yt-6B69qmkEdTI_1.mp4	0.0	294.4855818748474	
32	86.44081783294678	movie	1		301.0	30.0	2.5	/experiments/knapen_aot/videos/R_S_yt-6B69qmkEdTI_1.mp4	0.0	294.49369382858276	2.508394956588745
32	88.94921278953552	fix_post	2		12.0	30.0	2.5	/experiments/knapen_aot/videos/R_S_yt-6B69qmkEdTI_1.mp4	0.0	297.0020887851715	0.10010600090026855
33	89.04931879043579	fix_pre	0		4.0	31.0	2.5	/experiments/knapen_aot/videos/R_S_yt-mdxs8FCKLFc_232.mp4	0.0	297.1021947860718	0.033274173736572266
33	89.07453799247742	response	0	2		31.0	2.5	/experiments/knapen_aot/videos/R_S_yt-mdxs8FCKLFc_232.mp4	0.0	297.1274139881134	
33	89.08259296417236	movie	1		301.0	31.0	2.5	/experiments/knapen_aot/videos/R_S_yt-mdxs8FCKLFc_232.mp4	0.0	297.13546895980835	2.5083138942718506
33	91.59090685844421	fix_post	2		12.0	31.0	2.5	/experiments/knapen_aot/videos/R_S_yt-mdxs8FCKLFc_232.mp4	0.0	299.6437828540802	0.1001131534576416
34	91.69102001190186	fix_pre	0		3.0	32.0	2.5	/experiments/knapen_aot/videos/S_ILSVRC2015_train_00574004.mp4	0.0	299.74389600753784	0.024846792221069336
34	91.70767092704773	response	0	2		32.0	2.5	/experiments/knapen_aot/videos/S_ILSVRC2015_train_00574004.mp4	0.0	299.7605469226837	
34	91.71586680412292	movie	1		301.0	32.0	2.5	/experiments/knapen_aot/videos/S_ILSVRC2015_train_00574004.mp4	0.0	299.7687427997589	2.508472204208374
34	94.2243390083313	fix_post	2		12.0	32.0	2.5	/experiments/knapen_aot/videos/S_ILSVRC2015_train_00574004.mp4	0.0	302.2772150039673	0.09990692138671875
35	94.32424592971802	fix_pre	0		7.0	33.0	2.5	/experiments/knapen_aot/videos/R_S_yt-6aqg1P9YqR8_38.mp4	0.0	302.377121925354	0.05830693244934082
35	94.37437987327576	response	0	2		33.0	2.5	/experiments/knapen_aot/videos/R_S_yt-6aqg1P9YqR8_38.mp4	0.0	302.42725586891174	
35	94.38255286216736	movie	1		301.0	33.0	2.5	/experiments/knapen_aot/videos/R_S_yt-6aqg1P9YqR8_38.mp4	0.0	302.43542885780334	2.5088069438934326
35	96.89135980606079	fix_post	2		12.0	33.0	2.5	/experiments/knapen_aot/videos/R_S_yt-6aqg1P9YqR8_38.mp4	0.0	304.9442358016968	0.09967899322509766
36	96.99103879928589	fix_pre	0		16.0	34.0	2.5	/experiments/knapen_aot/videos/R_S_yt-RVoC19C420Y_27.mp4	0.0	305.0439147949219	0.133148193359375
36	97.11596298217773	response	0	2		34.0	2.5	/experiments/knapen_aot/videos/R_S_yt-RVoC19C420Y_27.mp4	0.0	305.1688389778137	
36	97.12418699264526	movie	1		301.0	34.0	2.5	/experiments/knapen_aot/videos/R_S_yt-RVoC19C420Y_27.mp4	0.0	305.17706298828125	2.5082898139953613
36	99.63247680664062	fix_post	2		12.0	34.0	2.5	/experiments/knapen_aot/videos/R_S_yt-RVoC19C420Y_27.mp4	0.0	307.6853528022766	0.10010218620300293
37	99.73257899284363	fix_pre	0		11.0	35.0	2.5	blank	1.0	307.7854549884796	0.09160280227661133
37	99.81592988967896	response	0	2		35.0	2.5	blank	1.0	307.86880588531494	
37	99.82418179512024	movie	1		301.0	35.0	2.5	blank	1.0	307.8770577907562	2.508592128753662
37	102.3327739238739	fix_post	2		12.0	35.0	2.5	blank	1.0	310.3856499195099	0.09990096092224121
37	102.38267183303833	response	2	2		35.0	2.5	blank	1.0	310.4355478286743	
38	102.43267488479614	fix_pre	0		41.0	36.0	2.5	/experiments/knapen_aot/videos/S_video-5.mp4	0.0	310.48555088043213	0.34148502349853516
38	102.76592087745667	response	0	2		36.0	2.5	/experiments/knapen_aot/videos/S_video-5.mp4	0.0	310.81879687309265	
38	102.77415990829468	movie	1		169.0	36.0	2.5	/experiments/knapen_aot/videos/S_video-5.mp4	0.0	310.82703590393066	2.508389949798584
38	105.25758481025696	response	1	2		36.0	2.5	/experiments/knapen_aot/videos/S_video-5.mp4	0.0	313.31046080589294	
38	105.28254985809326	fix_post	2		12.0	36.0	2.5	/experiments/knapen_aot/videos/S_video-5.mp4	0.0	313.33542585372925	0.09998798370361328
39	105.38253784179688	fix_pre	0		22.0	37.0	2.5	/experiments/knapen_aot/videos/S_flickr-hapanine-31880782705_22.mp4	0.0	313.43541383743286	0.1832871437072754
39	105.55763983726501	response	0	2		37.0	2.5	/experiments/knapen_aot/videos/S_flickr-hapanine-31880782705_22.mp4	0.0	313.610515832901	
39	105.56582498550415	movie	1		168.0	37.0	2.5	/experiments/knapen_aot/videos/S_flickr-hapanine-31880782705_22.mp4	0.0	313.61870098114014	2.508405923843384
39	108.07423090934753	fix_post	2		12.0	37.0	2.5	/experiments/knapen_aot/videos/S_flickr-hapanine-31880782705_22.mp4	0.0	316.1271069049835	0.0998990535736084
40	108.17412996292114	fix_pre	0		3.0	38.0	2.5	/experiments/knapen_aot/videos/S_yt-Xq6uX1jfFRk_21.mp4	0.0	316.22700595855713	0.025102853775024414
40	108.19103288650513	response	0	2		38.0	2.5	/experiments/knapen_aot/videos/S_yt-Xq6uX1jfFRk_21.mp4	0.0	316.2439088821411	
40	108.19923281669617	movie	1		301.0	38.0	2.5	/experiments/knapen_aot/videos/S_yt-Xq6uX1jfFRk_21.mp4	0.0	316.25210881233215	2.508301019668579
40	110.70753383636475	fix_post	2		12.0	38.0	2.5	/experiments/knapen_aot/videos/S_yt-Xq6uX1jfFRk_21.mp4	0.0	318.76040983200073	0.1000521183013916
41	110.80758595466614	fix_pre	0		9.0	39.0	2.5	/experiments/knapen_aot/videos/R_S_yt-Mjm5smrurQI_125.mp4	0.0	318.8604619503021	0.07491683959960938
41	110.87423300743103	response	0	2		39.0	2.5	/experiments/knapen_aot/videos/R_S_yt-Mjm5smrurQI_125.mp4	0.0	318.927109003067	
41	110.88250279426575	movie	1		301.0	39.0	2.5	/experiments/knapen_aot/videos/R_S_yt-Mjm5smrurQI_125.mp4	0.0	318.93537878990173	2.5083401203155518
41	113.3908429145813	fix_post	2		12.0	39.0	2.5	/experiments/knapen_aot/videos/R_S_yt-Mjm5smrurQI_125.mp4	0.0	321.4437189102173	0.09991598129272461
42	113.49075889587402	fix_pre	0		21.0	40.0	2.5	blank	1.0	321.54363489151	0.17508506774902344
42	113.65763282775879	response	0	2		40.0	2.5	blank	1.0	321.7105088233948	
42	113.66584396362305	movie	1		301.0	40.0	2.5	blank	1.0	321.71871995925903	2.50832200050354
42	116.17416596412659	fix_post	2		12.0	40.0	2.5	blank	1.0	324.2270419597626	0.10004997253417969
43	116.27421593666077	fix_pre	0		31.0	41.0	2.5	/experiments/knapen_aot/videos/S_yt-IT741UWKVzg_34.mp4	0.0	324.32709193229675	0.2581958770751953
43	116.51667380332947	response	0	2		41.0	2.5	/experiments/knapen_aot/videos/S_yt-IT741UWKVzg_34.mp4	0.0	324.56954979896545	
43	116.53241181373596	movie	1		301.0	41.0	2.5	/experiments/knapen_aot/videos/S_yt-IT741UWKVzg_34.mp4	0.0	324.58528780937195	2.5083670616149902
43	119.04077887535095	fix_post	2		12.0	41.0	2.5	/experiments/knapen_aot/videos/S_yt-IT741UWKVzg_34.mp4	0.0	327.09365487098694	0.10000991821289062
44	119.14078879356384	fix_pre	0		31.0	42.0	2.5	/experiments/knapen_aot/videos/S_ILSVRC2015_train_00066005.mp4	0.0	327.19366478919983	0.25830721855163574
44	119.3834137916565	response	0	2		42.0	2.5	/experiments/knapen_aot/videos/S_ILSVRC2015_train_00066005.mp4	0.0	327.4362897872925	
44	119.39909601211548	movie	1		301.0	42.0	2.5	/experiments/knapen_aot/videos/S_ILSVRC2015_train_00066005.mp4	0.0	327.45197200775146	2.5083439350128174
44	121.9074399471283	fix_post	2		12.0	42.0	2.5	/experiments/knapen_aot/videos/S_ILSVRC2015_train_00066005.mp4	0.0	329.9603159427643	0.1000058650970459
45	122.00744581222534	fix_pre	0		5.0	43.0	2.5	/experiments/knapen_aot/videos/R_S_ILSVRC2015_train_00369002.mp4	0.0	330.0603218078613	0.042971134185791016
45	122.04094696044922	response	0	2		43.0	2.5	/experiments/knapen_aot/videos/R_S_ILSVRC2015_train_00369002.mp4	0.0	330.0938229560852	
45	122.05041694641113	movie	1		301.0	43.0	2.5	/experiments/knapen_aot/videos/R_S_ILSVRC2015_train_00369002.mp4	0.0	330.1032929420471	2.507143020629883
45	124.55755996704102	fix_post	2		12.0	43.0	2.5	/experiments/knapen_aot/videos/R_S_ILSVRC2015_train_00369002.mp4	0.0	332.610435962677	0.09985494613647461
45	124.64086890220642	response	2	2		43.0	2.5	/experiments/knapen_aot/videos/R_S_ILSVRC2015_train_00369002.mp4	0.0	332.6937448978424	
46	124.65741491317749	fix_pre	0		33.0	44.0	2.5	/experiments/knapen_aot/videos/R_S_yt-nlfwzxlwRfk_12.mp4	0.0	332.7102909088135	0.27498698234558105
46	124.91664481163025	response	0	2		44.0	2.5	/experiments/knapen_aot/videos/R_S_yt-nlfwzxlwRfk_12.mp4	0.0	332.96952080726624	
46	124.93240189552307	movie	1		301.0	44.0	2.5	/experiments/knapen_aot/videos/R_S_yt-nlfwzxlwRfk_12.mp4	0.0	332.98527789115906	2.508358955383301
46	127.44076085090637	fix_post	2		12.0	44.0	2.5	/experiments/knapen_aot/videos/R_S_yt-nlfwzxlwRfk_12.mp4	0.0	335.49363684654236	0.09998703002929688
47	127.54074788093567	fix_pre	0		4.0	45.0	2.5	/experiments/knapen_aot/videos/R_S_comp_L012_c002_PS_v01_SDR_PS_20180925_SDR_2K_AVC.mp4	0.0	335.59362387657166	0.033349037170410156
47	127.55845093727112	response	0	2		45.0	2.5	/experiments/knapen_aot/videos/R_S_comp_L012_c002_PS_v01_SDR_PS_20180925_SDR_2K_AVC.mp4	0.0	335.6113269329071	
47	127.57409691810608	movie	1		170.0	45.0	2.5	/experiments/knapen_aot/videos/R_S_comp_L012_c002_PS_v01_SDR_PS_20180925_SDR_2K_AVC.mp4	0.0	335.62697291374207	2.508357048034668
47	129.77423286437988	response	1	2		45.0	2.5	/experiments/knapen_aot/videos/R_S_comp_L012_c002_PS_v01_SDR_PS_20180925_SDR_2K_AVC.mp4	0.0	337.82710886001587	
47	130.0324969291687	response	1	2		45.0	2.5	/experiments/knapen_aot/videos/R_S_comp_L012_c002_PS_v01_SDR_PS_20180925_SDR_2K_AVC.mp4	0.0	338.0853729248047	
47	130.08245396614075	fix_post	2		12.0	45.0	2.5	/experiments/knapen_aot/videos/R_S_comp_L012_c002_PS_v01_SDR_PS_20180925_SDR_2K_AVC.mp4	0.0	338.13532996177673	0.09995198249816895
48	130.18240594863892	fix_pre	0		20.0	46.0	2.5	/experiments/knapen_aot/videos/R_S_yt-mL3MuCfKtdY_79.mp4	0.0	338.2352819442749	0.16656994819641113
48	130.34083580970764	response	0	2		46.0	2.5	/experiments/knapen_aot/videos/R_S_yt-mL3MuCfKtdY_79.mp4	0.0	338.3937118053436	
48	130.34897589683533	movie	1		301.0	46.0	2.5	/experiments/knapen_aot/videos/R_S_yt-mL3MuCfKtdY_79.mp4	0.0	338.4018518924713	2.5084450244903564
48	132.85742092132568	fix_post	2		12.0	46.0	2.5	/experiments/knapen_aot/videos/R_S_yt-mL3MuCfKtdY_79.mp4	0.0	340.91029691696167	0.10020709037780762
49	132.9576280117035	fix_pre	0		10.0	47.0	2.5	/experiments/knapen_aot/videos/R_S_yt-ObT9gF8E_tU_250.mp4	0.0	341.0105040073395	0.0830838680267334
49	133.0325379371643	response	0	2		47.0	2.5	/experiments/knapen_aot/videos/R_S_yt-ObT9gF8E_tU_250.mp4	0.0	341.0854139328003	
49	133.04071187973022	movie	1		301.0	47.0	2.5	/experiments/knapen_aot/videos/R_S_yt-ObT9gF8E_tU_250.mp4	0.0	341.0935878753662	2.508402109146118
49	135.54911398887634	fix_post	2		12.0	47.0	2.5	/experiments/knapen_aot/videos/R_S_yt-ObT9gF8E_tU_250.mp4	0.0	343.60198998451233	0.09996795654296875
50	135.6490819454193	fix_pre	0		1.0	48.0	2.5	/experiments/knapen_aot/videos/S_dwi2oPzQ1Wo_48.mp4	0.0	343.7019579410553	0.008302927017211914
50	135.65094184875488	response	0	2		48.0	2.5	/experiments/knapen_aot/videos/S_dwi2oPzQ1Wo_48.mp4	0.0	343.70381784439087	
50	135.65738487243652	movie	1		301.0	48.0	2.5	/experiments/knapen_aot/videos/S_dwi2oPzQ1Wo_48.mp4	0.0	343.7102608680725	2.508371114730835
50	138.16575598716736	fix_post	2		12.0	48.0	2.5	/experiments/knapen_aot/videos/S_dwi2oPzQ1Wo_48.mp4	0.0	346.21863198280334	0.09989595413208008
50	138.24989891052246	response	2	2		48.0	2.5	/experiments/knapen_aot/videos/S_dwi2oPzQ1Wo_48.mp4	0.0	346.30277490615845	
51	138.26565194129944	fix_pre	0		40.0	49.0	2.5	blank	1.0	346.3185279369354	0.333345890045166
51	138.5907859802246	response	0	2		49.0	2.5	blank	1.0	346.6436619758606	
51	138.5989978313446	movie	1		301.0	49.0	2.5	blank	1.0	346.6518738269806	2.5083751678466797
51	141.10737299919128	fix_post	2		12.0	49.0	2.5	blank	1.0	349.16024899482727	0.10020685195922852
52	141.2075798511505	fix_pre	0		16.0	50.0	2.5	/experiments/knapen_aot/videos/S_pexels-sora-shimazaki-5925295.mp4	0.0	349.2604558467865	0.13438200950622559
52	141.3324999809265	response	0	2		50.0	2.5	/experiments/knapen_aot/videos/S_pexels-sora-shimazaki-5925295.mp4	0.0	349.3853759765625	
52	141.34196186065674	movie	1		167.0	50.0	2.5	/experiments/knapen_aot/videos/S_pexels-sora-shimazaki-5925295.mp4	0.0	349.3948378562927	2.507054090499878
52	143.84901595115662	fix_post	2		12.0	50.0	2.5	/experiments/knapen_aot/videos/S_pexels-sora-shimazaki-5925295.mp4	0.0	351.9018919467926	0.09994292259216309
53	143.94895887374878	fix_pre	0		1.0	51.0	2.5	/experiments/knapen_aot/videos/S_yt-oPq1uvbw-lQ_62.mp4	0.0	352.00183486938477	0.008397102355957031
53	143.95053696632385	response	0	2		51.0	2.5	/experiments/knapen_aot/videos/S_yt-oPq1uvbw-lQ_62.mp4	0.0	352.00341296195984	
53	143.95735597610474	movie	1		301.0	51.0	2.5	/experiments/knapen_aot/videos/S_yt-oPq1uvbw-lQ_62.mp4	0.0	352.0102319717407	2.508327007293701
53	146.46568298339844	fix_post	2		12.0	51.0	2.5	/experiments/knapen_aot/videos/S_yt-oPq1uvbw-lQ_62.mp4	0.0	354.5185589790344	0.10008502006530762
54	146.56576800346375	fix_pre	0		27.0	52.0	2.5	/experiments/knapen_aot/videos/S_ILSVRC2015_train_00165013.mp4	0.0	354.61864399909973	0.22484493255615234
54	146.77487587928772	response	0	2		52.0	2.5	/experiments/knapen_aot/videos/S_ILSVRC2015_train_00165013.mp4	0.0	354.8277518749237	
54	146.7906129360199	movie	1		301.0	52.0	2.5	/experiments/knapen_aot/videos/S_ILSVRC2015_train_00165013.mp4	0.0	354.8434889316559	2.5084919929504395
54	149.29910492897034	fix_post	2		12.0	52.0	2.5	/experiments/knapen_aot/videos/S_ILSVRC2015_train_00165013.mp4	0.0	357.3519809246063	0.09992003440856934
55	149.3990249633789	fix_pre	0		11.0	53.0	2.5	/experiments/knapen_aot/videos/S_yt-FsylDeYfcxU_24.mp4	0.0	357.4519009590149	0.09163594245910645
55	149.482421875	response	0	2		53.0	2.5	/experiments/knapen_aot/videos/S_yt-FsylDeYfcxU_24.mp4	0.0	357.535297870636	
55	149.490660905838	movie	1		301.0	53.0	2.5	/experiments/knapen_aot/videos/S_yt-FsylDeYfcxU_24.mp4	0.0	357.543536901474	2.508315086364746
55	151.99897599220276	fix_post	2		12.0	53.0	2.5	/experiments/knapen_aot/videos/S_yt-FsylDeYfcxU_24.mp4	0.0	360.05185198783875	0.10001897811889648
56	152.09899497032166	fix_pre	0		1.0	54.0	2.5	/experiments/knapen_aot/videos/R_S_video-2_copy.mp4	0.0	360.15187096595764	0.00830984115600586
56	152.1006498336792	response	0	2		54.0	2.5	/experiments/knapen_aot/videos/R_S_video-2_copy.mp4	0.0	360.1535258293152	
56	152.10730481147766	movie	1		172.0	54.0	2.5	/experiments/knapen_aot/videos/R_S_video-2_copy.mp4	0.0	360.16018080711365	2.5082972049713135
56	154.61560201644897	fix_post	2		12.0	54.0	2.5	/experiments/knapen_aot/videos/R_S_video-2_copy.mp4	0.0	362.66847801208496	0.1000359058380127
57	154.715637922287	fix_pre	0		10.0	55.0	2.5	blank	1.0	362.768513917923	0.08322286605834961
57	154.79070901870728	response	0	2		55.0	2.5	blank	1.0	362.84358501434326	
57	154.79886078834534	movie	1		301.0	55.0	2.5	blank	1.0	362.8517367839813	2.5083861351013184
57	157.30724692344666	fix_post	2		12.0	55.0	2.5	blank	1.0	365.36012291908264	0.10005998611450195
58	157.40730690956116	fix_pre	0		18.0	56.0	2.5	/experiments/knapen_aot/videos/R_S_yt-xSGPe0KemD4_384.mp4	0.0	365.46018290519714	0.14996600151062012
58	157.5490357875824	response	0	2		56.0	2.5	/experiments/knapen_aot/videos/R_S_yt-xSGPe0KemD4_384.mp4	0.0	365.6019117832184	
58	157.55727291107178	movie	1		301.0	56.0	2.5	/experiments/knapen_aot/videos/R_S_yt-xSGPe0KemD4_384.mp4	0.0	365.61014890670776	2.5083670616149902
58	160.06563997268677	fix_post	2		12.0	56.0	2.5	/experiments/knapen_aot/videos/R_S_yt-xSGPe0KemD4_384.mp4	0.0	368.11851596832275	0.09999799728393555
59	160.1656379699707	fix_pre	0		20.0	57.0	2.5	/experiments/knapen_aot/videos/R_S_ILSVRC2015_train_00001011.mp4	0.0	368.2185139656067	0.16663193702697754
59	160.3241958618164	response	0	2		57.0	2.5	/experiments/knapen_aot/videos/R_S_ILSVRC2015_train_00001011.mp4	0.0	368.3770718574524	
59	160.33226990699768	movie	1		301.0	57.0	2.5	/experiments/knapen_aot/videos/R_S_ILSVRC2015_train_00001011.mp4	0.0	368.38514590263367	2.5083649158477783
59	162.84063482284546	fix_post	2		12.0	57.0	2.5	/experiments/knapen_aot/videos/R_S_ILSVRC2015_train_00001011.mp4	0.0	370.89351081848145	0.1000051498413086
59	162.92408084869385	response	2	2		57.0	2.5	/experiments/knapen_aot/videos/R_S_ILSVRC2015_train_00001011.mp4	0.0	370.97695684432983	
60	162.94063997268677	fix_pre	0		37.0	58.0	2.5	/experiments/knapen_aot/videos/S_ILSVRC2015_train_00066005.mp4	0.0	370.99351596832275	0.3082399368286133
60	163.24062395095825	response	0	2		58.0	2.5	/experiments/knapen_aot/videos/S_ILSVRC2015_train_00066005.mp4	0.0	371.29349994659424	
60	163.24887990951538	movie	1		301.0	58.0	2.5	/experiments/knapen_aot/videos/S_ILSVRC2015_train_00066005.mp4	0.0	371.30175590515137	2.5084009170532227
60	165.7572808265686	fix_post	2		12.0	58.0	2.5	/experiments/knapen_aot/videos/S_ILSVRC2015_train_00066005.mp4	0.0	373.8101568222046	0.09996318817138672
61	165.85724401474	fix_pre	0		3.0	59.0	2.5	/experiments/knapen_aot/videos/R_S_yt-giRwl4yChlw_9.mp4	0.0	373.910120010376	0.026115894317626953
61	165.86650586128235	response	0	2		59.0	2.5	/experiments/knapen_aot/videos/R_S_yt-giRwl4yChlw_9.mp4	0.0	373.91938185691833	
61	165.88335990905762	movie	1		301.0	59.0	2.5	/experiments/knapen_aot/videos/R_S_yt-giRwl4yChlw_9.mp4	0.0	373.9362359046936	2.5072150230407715
61	168.3905749320984	fix_post	2		12.0	59.0	2.5	/experiments/knapen_aot/videos/R_S_yt-giRwl4yChlw_9.mp4	0.0	376.4434509277344	0.10002589225769043
62	168.49060082435608	fix_pre	0		15.0	60.0	2.5	/experiments/knapen_aot/videos/R_S_ILSVRC2015_train_00682007.mp4	0.0	376.54347681999207	0.12500405311584473
62	168.60733699798584	response	0	2		60.0	2.5	/experiments/knapen_aot/videos/R_S_ILSVRC2015_train_00682007.mp4	0.0	376.6602129936218	
62	168.61560487747192	movie	1		301.0	60.0	2.5	/experiments/knapen_aot/videos/R_S_ILSVRC2015_train_00682007.mp4	0.0	376.6684808731079	2.5082859992980957
62	171.12389087677002	fix_post	2		12.0	60.0	2.5	/experiments/knapen_aot/videos/R_S_ILSVRC2015_train_00682007.mp4	0.0	379.176766872406	0.10001206398010254
63	171.22390294075012	fix_pre	0		19.0	61.0	2.5	/experiments/knapen_aot/videos/R_S_yt-hyZEDFkh49w_196.mp4	0.0	379.2767789363861	0.1593630313873291
63	171.37395596504211	response	0	2		61.0	2.5	/experiments/knapen_aot/videos/R_S_yt-hyZEDFkh49w_196.mp4	0.0	379.4268319606781	
63	171.38326597213745	movie	1		301.0	61.0	2.5	/experiments/knapen_aot/videos/R_S_yt-hyZEDFkh49w_196.mp4	0.0	379.43614196777344	2.5076918601989746
63	173.89095783233643	fix_post	2		12.0	61.0	2.5	/experiments/knapen_aot/videos/R_S_yt-hyZEDFkh49w_196.mp4	0.0	381.9438338279724	0.09955906867980957
64	173.99051690101624	fix_pre	0		8.0	62.0	2.5	blank	1.0	382.0433928966522	0.06665706634521484
64	174.0489959716797	response	0	2		62.0	2.5	blank	1.0	382.1018719673157	
64	174.05717396736145	movie	1		301.0	62.0	2.5	blank	1.0	382.11004996299744	2.5083799362182617
64	176.5655539035797	fix_post	2		12.0	62.0	2.5	blank	1.0	384.6184298992157	0.09994792938232422
65	176.66550183296204	fix_pre	0		28.0	63.0	2.5	/experiments/knapen_aot/videos/R_S_yt-DWsFRl5bXs8_23.mp4	0.0	384.718377828598	0.23334407806396484
65	176.88311791419983	response	0	2		63.0	2.5	/experiments/knapen_aot/videos/R_S_yt-DWsFRl5bXs8_23.mp4	0.0	384.9359939098358	
65	176.898845911026	movie	1		301.0	63.0	2.5	/experiments/knapen_aot/videos/R_S_yt-DWsFRl5bXs8_23.mp4	0.0	384.951721906662	2.508481025695801
65	179.4073269367218	fix_post	2		12.0	63.0	2.5	/experiments/knapen_aot/videos/R_S_yt-DWsFRl5bXs8_23.mp4	0.0	387.4602029323578	0.09987807273864746
66	179.50720500946045	fix_pre	0		12.0	64.0	2.5	/experiments/knapen_aot/videos/S_ILSVRC2015_train_00414000.mp4	0.0	387.56008100509644	0.09998679161071777
66	179.59897685050964	response	0	2		64.0	2.5	/experiments/knapen_aot/videos/S_ILSVRC2015_train_00414000.mp4	0.0	387.65185284614563	
66	179.60719180107117	movie	1		301.0	64.0	2.5	/experiments/knapen_aot/videos/S_ILSVRC2015_train_00414000.mp4	0.0	387.66006779670715	2.5083491802215576
66	182.11554098129272	fix_post	2		12.0	64.0	2.5	/experiments/knapen_aot/videos/S_ILSVRC2015_train_00414000.mp4	0.0	390.1684169769287	0.09992599487304688
67	182.21546697616577	fix_pre	0		11.0	65.0	2.5	/experiments/knapen_aot/videos/S_yt-2dRSJcaJIXw_32.mp4	0.0	390.26834297180176	0.09164690971374512
67	182.2989628314972	response	0	2		65.0	2.5	/experiments/knapen_aot/videos/S_yt-2dRSJcaJIXw_32.mp4	0.0	390.3518388271332	
67	182.30711388587952	movie	1		301.0	65.0	2.5	/experiments/knapen_aot/videos/S_yt-2dRSJcaJIXw_32.mp4	0.0	390.3599898815155	2.5087361335754395
67	184.81585001945496	fix_post	2		12.0	65.0	2.5	/experiments/knapen_aot/videos/S_yt-2dRSJcaJIXw_32.mp4	0.0	392.86872601509094	0.0996389389038086
68	184.91548895835876	fix_pre	0		11.0	66.0	2.5	/experiments/knapen_aot/videos/S_ILSVRC2015_train_00469000.mp4	0.0	392.96836495399475	0.09268498420715332
68	184.99895787239075	response	0	2		66.0	2.5	/experiments/knapen_aot/videos/S_ILSVRC2015_train_00469000.mp4	0.0	393.05183386802673	
68	185.00817394256592	movie	1		301.0	66.0	2.5	/experiments/knapen_aot/videos/S_ILSVRC2015_train_00469000.mp4	0.0	393.0610499382019	2.507323980331421
68	187.51549792289734	fix_post	2		12.0	66.0	2.5	/experiments/knapen_aot/videos/S_ILSVRC2015_train_00469000.mp4	0.0	395.5683739185333	0.09995603561401367
69	187.61545395851135	fix_pre	0		18.0	67.0	2.5	/experiments/knapen_aot/videos/S_yt-EFrazkRaYbs_21.mp4	0.0	395.66832995414734	0.15003490447998047
69	187.75726985931396	response	0	2		67.0	2.5	/experiments/knapen_aot/videos/S_yt-EFrazkRaYbs_21.mp4	0.0	395.81014585494995	
69	187.76548886299133	movie	1		301.0	67.0	2.5	/experiments/knapen_aot/videos/S_yt-EFrazkRaYbs_21.mp4	0.0	395.8183648586273	2.5083389282226562
69	190.273827791214	fix_post	2		12.0	67.0	2.5	/experiments/knapen_aot/videos/S_yt-EFrazkRaYbs_21.mp4	0.0	398.32670378685	0.10004520416259766
70	190.3738729953766	fix_pre	0		10.0	68.0	2.5	blank	1.0	398.4267489910126	0.08333992958068848
70	190.44893288612366	response	0	2		68.0	2.5	blank	1.0	398.50180888175964	
70	190.45721292495728	movie	1		301.0	68.0	2.5	blank	1.0	398.51008892059326	2.5085489749908447
70	192.96576189994812	fix_post	2		12.0	68.0	2.5	blank	1.0	401.0186378955841	0.0997459888458252
71	193.06550788879395	fix_pre	0		23.0	69.0	2.5	/experiments/knapen_aot/videos/S_yt-IigHVUksnw8_7.mp4	0.0	401.11838388442993	0.19255590438842773
71	193.2488968372345	response	0	2		69.0	2.5	/experiments/knapen_aot/videos/S_yt-IigHVUksnw8_7.mp4	0.0	401.3017728328705	
71	193.25806379318237	movie	1		301.0	69.0	2.5	/experiments/knapen_aot/videos/S_yt-IigHVUksnw8_7.mp4	0.0	401.31093978881836	2.5074751377105713
71	195.76553893089294	fix_post	2		12.0	69.0	2.5	/experiments/knapen_aot/videos/S_yt-IigHVUksnw8_7.mp4	0.0	403.81841492652893	0.1001739501953125
72	195.86571288108826	fix_pre	0		12.0	70.0	2.5	/experiments/knapen_aot/videos/R_S_yt-i-1Gou9SA5U_3.mp4	0.0	403.91858887672424	0.10083293914794922
72	195.9572730064392	response	0	2		70.0	2.5	/experiments/knapen_aot/videos/R_S_yt-i-1Gou9SA5U_3.mp4	0.0	404.0101490020752	
72	195.9665458202362	movie	1		301.0	70.0	2.5	/experiments/knapen_aot/videos/R_S_yt-i-1Gou9SA5U_3.mp4	0.0	404.0194218158722	2.5072810649871826
72	198.4738268852234	fix_post	2		12.0	70.0	2.5	/experiments/knapen_aot/videos/R_S_yt-i-1Gou9SA5U_3.mp4	0.0	406.5267028808594	0.10008692741394043
73	198.57391381263733	fix_pre	0		17.0	71.0	2.5	/experiments/knapen_aot/videos/S_S005_C015_SDR_2K_AVC.mp4	0.0	406.6267898082733	0.14249610900878906
73	198.70731282234192	response	0	2		71.0	2.5	/experiments/knapen_aot/videos/S_S005_C015_SDR_2K_AVC.mp4	0.0	406.7601888179779	
73	198.71640992164612	movie	1		169.0	71.0	2.5	/experiments/knapen_aot/videos/S_S005_C015_SDR_2K_AVC.mp4	0.0	406.7692859172821	2.5074830055236816
73	201.2238929271698	fix_post	2		12.0	71.0	2.5	/experiments/knapen_aot/videos/S_S005_C015_SDR_2K_AVC.mp4	0.0	409.2767689228058	0.09992599487304688
74	201.32381892204285	fix_pre	0		19.0	72.0	2.5	/experiments/knapen_aot/videos/S_pexels-marcus-aurelius-6785014.mp4	0.0	409.37669491767883	0.15829896926879883
74	201.47394180297852	response	0	2		72.0	2.5	/experiments/knapen_aot/videos/S_pexels-marcus-aurelius-6785014.mp4	0.0	409.5268177986145	
74	201.48211789131165	movie	1		168.0	72.0	2.5	/experiments/knapen_aot/videos/S_pexels-marcus-aurelius-6785014.mp4	0.0	409.53499388694763	2.50844407081604
74	203.99056196212769	fix_post	2		12.0	72.0	2.5	/experiments/knapen_aot/videos/S_pexels-marcus-aurelius-6785014.mp4	0.0	412.0434379577637	0.09984898567199707
75	204.09041094779968	fix_pre	0		5.0	73.0	2.5	/experiments/knapen_aot/videos/S_yt-CNq5mTA8oXY_176.mp4	0.0	412.14328694343567	0.04258298873901367
75	204.12393879890442	response	0	2		73.0	2.5	/experiments/knapen_aot/videos/S_yt-CNq5mTA8oXY_176.mp4	0.0	412.1768147945404	
75	204.1329939365387	movie	1		301.0	73.0	2.5	/experiments/knapen_aot/videos/S_yt-CNq5mTA8oXY_176.mp4	0.0	412.1858699321747	2.5074570178985596
75	206.64045095443726	fix_post	2		12.0	73.0	2.5	/experiments/knapen_aot/videos/S_yt-CNq5mTA8oXY_176.mp4	0.0	414.69332695007324	0.10004186630249023
76	206.74049282073975	fix_pre	0		13.0	74.0	2.5	/experiments/knapen_aot/videos/R_S_ILSVRC2015_train_00574004.mp4	0.0	414.79336881637573	0.10837316513061523
76	206.84058690071106	response	0	2		74.0	2.5	/experiments/knapen_aot/videos/R_S_ILSVRC2015_train_00574004.mp4	0.0	414.89346289634705	
76	206.84886598587036	movie	1		301.0	74.0	2.5	/experiments/knapen_aot/videos/R_S_ILSVRC2015_train_00574004.mp4	0.0	414.90174198150635	2.5083048343658447
76	209.3571708202362	fix_post	2		12.0	74.0	2.5	/experiments/knapen_aot/videos/R_S_ILSVRC2015_train_00574004.mp4	0.0	417.4100468158722	0.100067138671875
76	209.43224096298218	response	2	2		74.0	2.5	/experiments/knapen_aot/videos/R_S_ILSVRC2015_train_00574004.mp4	0.0	417.48511695861816	
77	209.45723795890808	fix_pre	0		40.0	75.0	2.5	/experiments/knapen_aot/videos/S_yt-SRcIvTQcmOk_62.mp4	0.0	417.51011395454407	0.3331930637359619
77	209.78223299980164	response	0	2		75.0	2.5	/experiments/knapen_aot/videos/S_yt-SRcIvTQcmOk_62.mp4	0.0	417.8351089954376	
77	209.79043102264404	movie	1		301.0	75.0	2.5	/experiments/knapen_aot/videos/S_yt-SRcIvTQcmOk_62.mp4	0.0	417.84330701828003	2.5083467960357666
77	212.2987778186798	fix_post	2		12.0	75.0	2.5	/experiments/knapen_aot/videos/S_yt-SRcIvTQcmOk_62.mp4	0.0	420.3516538143158	0.10000801086425781
78	212.39878582954407	fix_pre	0		6.0	76.0	2.5	/experiments/knapen_aot/videos/S_yt-v9WGfC67DPk_50.mp4	0.0	420.45166182518005	0.04993295669555664
78	212.43341994285583	response	0	2		76.0	2.5	/experiments/knapen_aot/videos/S_yt-v9WGfC67DPk_50.mp4	0.0	420.4862959384918	
78	212.44871878623962	movie	1		301.0	76.0	2.5	/experiments/knapen_aot/videos/S_yt-v9WGfC67DPk_50.mp4	0.0	420.5015947818756	2.508350133895874
78	214.9570689201355	fix_post	2		12.0	76.0	2.5	/experiments/knapen_aot/videos/S_yt-v9WGfC67DPk_50.mp4	0.0	423.0099449157715	0.09998798370361328
79	215.0570569038391	fix_pre	0		9.0	77.0	2.5	blank	1.0	423.1099328994751	0.07497406005859375
79	215.1163568496704	response	0	2		77.0	2.5	blank	1.0	423.1692328453064	
79	215.1320309638977	movie	1		301.0	77.0	2.5	blank	1.0	423.1849069595337	2.5083799362182617
79	217.64041090011597	fix_post	2		12.0	77.0	2.5	blank	1.0	425.69328689575195	0.09990906715393066
80	217.7403199672699	fix_pre	0		28.0	78.0	2.5	/experiments/knapen_aot/videos/R_S_yt-mWlx1SIXl5M_850.mp4	0.0	425.7931959629059	0.23335886001586914
80	217.96546697616577	response	0	2		78.0	2.5	/experiments/knapen_aot/videos/R_S_yt-mWlx1SIXl5M_850.mp4	0.0	426.01834297180176	
80	217.97367882728577	movie	1		301.0	78.0	2.5	/experiments/knapen_aot/videos/R_S_yt-mWlx1SIXl5M_850.mp4	0.0	426.02655482292175	2.5083420276641846
80	220.48202085494995	fix_post	2		12.0	78.0	2.5	/experiments/knapen_aot/videos/R_S_yt-mWlx1SIXl5M_850.mp4	0.0	428.53489685058594	0.10000395774841309
81	220.58202481269836	fix_pre	0		9.0	79.0	2.5	/experiments/knapen_aot/videos/R_S_comp_C003_C003_PS_v01_SDR_PS_20180925_SDR_2K_AVC.mp4	0.0	428.63490080833435	0.07495903968811035
81	220.648827791214	response	0	2		79.0	2.5	/experiments/knapen_aot/videos/R_S_comp_C003_C003_PS_v01_SDR_PS_20180925_SDR_2K_AVC.mp4	0.0	428.70170378685	
81	220.65698385238647	movie	1		165.0	79.0	2.5	/experiments/knapen_aot/videos/R_S_comp_C003_C003_PS_v01_SDR_PS_20180925_SDR_2K_AVC.mp4	0.0	428.70985984802246	2.508716106414795
81	223.16569995880127	fix_post	2		12.0	79.0	2.5	/experiments/knapen_aot/videos/R_S_comp_C003_C003_PS_v01_SDR_PS_20180925_SDR_2K_AVC.mp4	0.0	431.21857595443726	0.09977483749389648
82	223.26547479629517	fix_pre	0		3.0	80.0	2.5	/experiments/knapen_aot/videos/S_ILSVRC2015_train_00369002.mp4	0.0	431.31835079193115	0.02487921714782715
82	223.28204894065857	response	0	2		80.0	2.5	/experiments/knapen_aot/videos/S_ILSVRC2015_train_00369002.mp4	0.0	431.33492493629456	
82	223.290354013443	movie	1		301.0	80.0	2.5	/experiments/knapen_aot/videos/S_ILSVRC2015_train_00369002.mp4	0.0	431.343230009079	2.508331775665283
82	225.79868578910828	fix_post	2		12.0	80.0	2.5	/experiments/knapen_aot/videos/S_ILSVRC2015_train_00369002.mp4	0.0	433.85156178474426	0.10000419616699219
83	225.89868998527527	fix_pre	0		23.0	81.0	2.5	/experiments/knapen_aot/videos/R_S_video-12.mp4	0.0	433.95156598091125	0.19248294830322266
83	226.08213996887207	response	0	2		81.0	2.5	/experiments/knapen_aot/videos/R_S_video-12.mp4	0.0	434.13501596450806	
83	226.0911729335785	movie	1		168.0	81.0	2.5	/experiments/knapen_aot/videos/R_S_video-12.mp4	0.0	434.1440489292145	2.507477045059204
83	228.5986499786377	fix_post	2		12.0	81.0	2.5	/experiments/knapen_aot/videos/R_S_video-12.mp4	0.0	436.6515259742737	0.09994196891784668
84	228.69859194755554	fix_pre	0		23.0	82.0	2.5	/experiments/knapen_aot/videos/S_yt-xQilXyNKsBw_42.mp4	0.0	436.7514679431915	0.19183588027954102
84	228.88202285766602	response	0	2		82.0	2.5	/experiments/knapen_aot/videos/S_yt-xQilXyNKsBw_42.mp4	0.0	436.934898853302	
84	228.89042782783508	movie	1		301.0	82.0	2.5	/experiments/knapen_aot/videos/S_yt-xQilXyNKsBw_42.mp4	0.0	436.94330382347107	2.508207082748413
84	231.3986349105835	fix_post	2		12.0	82.0	2.5	/experiments/knapen_aot/videos/S_yt-xQilXyNKsBw_42.mp4	0.0	439.4515109062195	0.10025310516357422
85	231.49888801574707	fix_pre	0		13.0	83.0	2.5	blank	1.0	439.55176401138306	0.1080467700958252
85	231.5988028049469	response	0	2		83.0	2.5	blank	1.0	439.6516788005829	
85	231.6069347858429	movie	1		301.0	83.0	2.5	blank	1.0	439.6598107814789	2.508380174636841
85	234.11531496047974	fix_post	2		12.0	83.0	2.5	blank	1.0	442.1681909561157	0.10009098052978516
87	234.21540594100952	stim	0		185.0					442.2682819366455	1.542262077331543
87	235.7465147972107	response	0	space						443.7993907928467	
