trial_nr	onset	event_type	phase	response	nr_frames	movie_index	movie_duration	movie_file	blank	onset_abs	duration
0	0.12559890747070312	stim	0		12.0					56.13014078140259	0.09867095947265625
0	0.21602106094360352	response	0	space						56.22056293487549	
1	0.22426986694335938	stim	0		121.0					56.228811740875244	1.0086781978607178
1	0.9576828479766846	response	0	space						56.96222472190857	
1	1.2329480648040771	stim	1		120.0					57.23748993873596	0.999241828918457
1	1.782343864440918	response	1	space						57.7868857383728	
2	2.232189893722534	fix_pre	0		10.0	0.0	2.5	/experiments/knapen_aot/videos/R_S_yt-9EnchawJ3pA_90.mp4	0.0	58.23673176765442	0.08328008651733398
2	2.299818992614746	response	0	space		0.0	2.5	/experiments/knapen_aot/videos/R_S_yt-9EnchawJ3pA_90.mp4	0.0	58.30436086654663	
2	2.315469980239868	movie	1		301.0	0.0	2.5	/experiments/knapen_aot/videos/R_S_yt-9EnchawJ3pA_90.mp4	0.0	58.32001185417175	2.5084118843078613
2	4.8238818645477295	fix_post	2		12.0	0.0	2.5	/experiments/knapen_aot/videos/R_S_yt-9EnchawJ3pA_90.mp4	0.0	60.828423738479614	0.0999910831451416
3	4.923872947692871	fix_pre	0		117.0	1.0	2.5	/experiments/knapen_aot/videos/R_S_Pexels_Videos_2795731_1.mp4	0.0	60.928414821624756	0.9785449504852295
3	5.895298004150391	response	0	2		1.0	2.5	/experiments/knapen_aot/videos/R_S_Pexels_Videos_2795731_1.mp4	0.0	61.899839878082275	
3	5.902417898178101	movie	1		164.0	1.0	2.5	/experiments/knapen_aot/videos/R_S_Pexels_Videos_2795731_1.mp4	0.0	61.906959772109985	2.5047049522399902
3	8.40712285041809	fix_post	2		12.0	1.0	2.5	/experiments/knapen_aot/videos/R_S_Pexels_Videos_2795731_1.mp4	0.0	64.41166472434998	0.10008811950683594
4	8.507210969924927	fix_pre	0		72.0	2.0	2.5	/experiments/knapen_aot/videos/R_S_3dzza09VbXY_235.mp4	0.0	64.51175284385681	0.5999228954315186
4	9.098927974700928	response	0	2		2.0	2.5	/experiments/knapen_aot/videos/R_S_3dzza09VbXY_235.mp4	0.0	65.10346984863281	
4	9.107133865356445	movie	1		301.0	2.0	2.5	/experiments/knapen_aot/videos/R_S_3dzza09VbXY_235.mp4	0.0	65.11167573928833	2.5083861351013184
4	11.615520000457764	fix_post	2		12.0	2.0	2.5	/experiments/knapen_aot/videos/R_S_3dzza09VbXY_235.mp4	0.0	67.62006187438965	0.10020804405212402
5	11.715728044509888	fix_pre	0		54.0	3.0	2.5	/experiments/knapen_aot/videos/R_S_pexels-yaroslav-shuraev-8091356.mp4	0.0	67.72026991844177	0.4505348205566406
5	12.15726900100708	response	0	2		3.0	2.5	/experiments/knapen_aot/videos/R_S_pexels-yaroslav-shuraev-8091356.mp4	0.0	68.16181087493896	
5	12.166262865066528	movie	1		177.0	3.0	2.5	/experiments/knapen_aot/videos/R_S_pexels-yaroslav-shuraev-8091356.mp4	0.0	68.17080473899841	2.507519006729126
5	14.673781871795654	fix_post	2		12.0	3.0	2.5	/experiments/knapen_aot/videos/R_S_pexels-yaroslav-shuraev-8091356.mp4	0.0	70.67832374572754	0.10001301765441895
6	14.773794889450073	fix_pre	0		32.0	4.0	2.5	/experiments/knapen_aot/videos/R_S_yt-VinOD6g7xEc_135.mp4	0.0	70.77833676338196	0.26741909980773926
6	15.032283067703247	response	0	2		4.0	2.5	/experiments/knapen_aot/videos/R_S_yt-VinOD6g7xEc_135.mp4	0.0	71.03682494163513	
6	15.041213989257812	movie	1		301.0	4.0	2.5	/experiments/knapen_aot/videos/R_S_yt-VinOD6g7xEc_135.mp4	0.0	71.0457558631897	2.5075619220733643
6	17.548775911331177	fix_post	2		12.0	4.0	2.5	/experiments/knapen_aot/videos/R_S_yt-VinOD6g7xEc_135.mp4	0.0	73.55331778526306	0.10001397132873535
7	17.648789882659912	fix_pre	0		41.0	5.0	2.5	/experiments/knapen_aot/videos/S_yt-0Ut9QANGX20_35.mp4	0.0	73.6533317565918	0.34163403511047363
7	17.98227095603943	response	0	2		5.0	2.5	/experiments/knapen_aot/videos/S_yt-0Ut9QANGX20_35.mp4	0.0	73.98681282997131	
7	17.990423917770386	movie	1		301.0	5.0	2.5	/experiments/knapen_aot/videos/S_yt-0Ut9QANGX20_35.mp4	0.0	73.99496579170227	2.5084221363067627
7	20.49884605407715	fix_post	2		12.0	5.0	2.5	/experiments/knapen_aot/videos/S_yt-0Ut9QANGX20_35.mp4	0.0	76.50338792800903	0.09994792938232422
8	20.598793983459473	fix_pre	0		58.0	6.0	2.5	blank	1.0	76.60333585739136	0.48406386375427246
8	21.073832988739014	response	0	2		6.0	2.5	blank	1.0	77.0783748626709	
8	21.082857847213745	movie	1		301.0	6.0	2.5	blank	1.0	77.08739972114563	2.507606029510498
8	23.590463876724243	fix_post	2		12.0	6.0	2.5	blank	1.0	79.59500575065613	0.09997200965881348
9	23.690435886383057	fix_pre	0		55.0	7.0	2.5	/experiments/knapen_aot/videos/S_yt-9mWz93En7Gw_97.mp4	0.0	79.69497776031494	0.4583301544189453
9	24.140570878982544	response	0	2		7.0	2.5	/experiments/knapen_aot/videos/S_yt-9mWz93En7Gw_97.mp4	0.0	80.14511275291443	
9	24.148766040802002	movie	1		301.0	7.0	2.5	/experiments/knapen_aot/videos/S_yt-9mWz93En7Gw_97.mp4	0.0	80.15330791473389	2.5083799362182617
9	26.657145977020264	fix_post	2		12.0	7.0	2.5	/experiments/knapen_aot/videos/S_yt-9mWz93En7Gw_97.mp4	0.0	82.66168785095215	0.09997987747192383
10	26.757125854492188	fix_pre	0		72.0	8.0	2.5	/experiments/knapen_aot/videos/S_Pexels_Videos_2795731_1.mp4	0.0	82.76166772842407	0.6000862121582031
10	27.348922967910767	response	0	2		8.0	2.5	/experiments/knapen_aot/videos/S_Pexels_Videos_2795731_1.mp4	0.0	83.35346484184265	
10	27.35721206665039	movie	1		161.0	8.0	2.5	/experiments/knapen_aot/videos/S_Pexels_Videos_2795731_1.mp4	0.0	83.36175394058228	2.508206844329834
10	29.865418910980225	fix_post	2		12.0	8.0	2.5	/experiments/knapen_aot/videos/S_Pexels_Videos_2795731_1.mp4	0.0	85.86996078491211	0.09993410110473633
11	29.96535301208496	fix_pre	0		62.0	9.0	2.5	/experiments/knapen_aot/videos/R_S_yt-MXLxcvKZDHw_22.mp4	0.0	85.96989488601685	0.516671895980835
11	30.473870992660522	response	0	2		9.0	2.5	/experiments/knapen_aot/videos/R_S_yt-MXLxcvKZDHw_22.mp4	0.0	86.47841286659241	
11	30.482024908065796	movie	1		299.0	9.0	2.5	/experiments/knapen_aot/videos/R_S_yt-MXLxcvKZDHw_22.mp4	0.0	86.48656678199768	2.5084190368652344
11	32.99044394493103	fix_post	2		12.0	9.0	2.5	/experiments/knapen_aot/videos/R_S_yt-MXLxcvKZDHw_22.mp4	0.0	88.99498581886292	0.09999799728393555
12	33.090441942214966	fix_pre	0		49.0	10.0	2.5	/experiments/knapen_aot/videos/S_WO9z7lBUvOs_151.mp4	0.0	89.09498381614685	0.40894198417663574
12	33.49064898490906	response	0	2		10.0	2.5	/experiments/knapen_aot/videos/S_WO9z7lBUvOs_151.mp4	0.0	89.49519085884094	
12	33.4993839263916	movie	1		301.0	10.0	2.5	/experiments/knapen_aot/videos/S_WO9z7lBUvOs_151.mp4	0.0	89.50392580032349	2.507704973220825
12	36.00708889961243	fix_post	2		12.0	10.0	2.5	/experiments/knapen_aot/videos/S_WO9z7lBUvOs_151.mp4	0.0	92.01163077354431	0.10000896453857422
13	36.107097864151	fix_pre	0		69.0	11.0	2.5	/experiments/knapen_aot/videos/R_S_yt-uT4MXm0UBJM_64.mp4	0.0	92.11163973808289	0.5749940872192383
13	36.67391586303711	response	0	2		11.0	2.5	/experiments/knapen_aot/videos/R_S_yt-uT4MXm0UBJM_64.mp4	0.0	92.678457736969	
13	36.68209195137024	movie	1		299.0	11.0	2.5	/experiments/knapen_aot/videos/R_S_yt-uT4MXm0UBJM_64.mp4	0.0	92.68663382530212	2.508275032043457
13	39.190366983413696	fix_post	2		12.0	11.0	2.5	/experiments/knapen_aot/videos/R_S_yt-uT4MXm0UBJM_64.mp4	0.0	95.19490885734558	0.09994196891784668
14	39.29030895233154	fix_pre	0		52.0	12.0	2.5	/experiments/knapen_aot/videos/S_ILSVRC2015_train_00545000.mp4	0.0	95.29485082626343	0.433380126953125
14	39.71552896499634	response	0	2		12.0	2.5	/experiments/knapen_aot/videos/S_ILSVRC2015_train_00545000.mp4	0.0	95.72007083892822	
14	39.72368907928467	movie	1		301.0	12.0	2.5	/experiments/knapen_aot/videos/S_ILSVRC2015_train_00545000.mp4	0.0	95.72823095321655	2.5083258152008057
14	42.232014894485474	fix_post	2		12.0	12.0	2.5	/experiments/knapen_aot/videos/S_ILSVRC2015_train_00545000.mp4	0.0	98.23655676841736	0.10000014305114746
15	42.33201503753662	fix_pre	0		47.0	13.0	2.5	/experiments/knapen_aot/videos/R_S_ILSVRC2015_train_00495000.mp4	0.0	98.3365569114685	0.3916740417480469
15	42.71540594100952	response	0	2		13.0	2.5	/experiments/knapen_aot/videos/R_S_ILSVRC2015_train_00495000.mp4	0.0	98.7199478149414	
15	42.72368907928467	movie	1		300.0	13.0	2.5	/experiments/knapen_aot/videos/R_S_ILSVRC2015_train_00495000.mp4	0.0	98.72823095321655	2.508382797241211
15	45.23207187652588	fix_post	2		12.0	13.0	2.5	/experiments/knapen_aot/videos/R_S_ILSVRC2015_train_00495000.mp4	0.0	101.23661375045776	0.09996819496154785
16	45.33204007148743	fix_pre	0		62.0	14.0	2.5	blank	1.0	101.33658194541931	0.5166850090026855
16	45.84064507484436	response	0	2		14.0	2.5	blank	1.0	101.84518694877625	
16	45.84872508049011	movie	1		301.0	14.0	2.5	blank	1.0	101.853266954422	2.508286952972412
16	48.357012033462524	fix_post	2		12.0	14.0	2.5	blank	1.0	104.36155390739441	0.1000509262084961
17	48.45706295967102	fix_pre	0		44.0	15.0	2.5	/experiments/knapen_aot/videos/R_S_yt-zam74qlzGtQ_122.mp4	0.0	104.4616048336029	0.3666369915008545
17	48.81546902656555	response	0	2		15.0	2.5	/experiments/knapen_aot/videos/R_S_yt-zam74qlzGtQ_122.mp4	0.0	104.82001090049744	
17	48.823699951171875	movie	1		301.0	15.0	2.5	/experiments/knapen_aot/videos/R_S_yt-zam74qlzGtQ_122.mp4	0.0	104.82824182510376	2.508945941925049
17	51.332645893096924	fix_post	2		12.0	15.0	2.5	/experiments/knapen_aot/videos/R_S_yt-zam74qlzGtQ_122.mp4	0.0	107.33718776702881	0.09936308860778809
18	51.43200898170471	fix_pre	0		53.0	16.0	2.5	/experiments/knapen_aot/videos/R_S_ILSVRC2015_train_00689000.mp4	0.0	107.4365508556366	0.44219088554382324
18	51.86556696891785	response	0	2		16.0	2.5	/experiments/knapen_aot/videos/R_S_ILSVRC2015_train_00689000.mp4	0.0	107.87010884284973	
18	51.874199867248535	movie	1		301.0	16.0	2.5	/experiments/knapen_aot/videos/R_S_ILSVRC2015_train_00689000.mp4	0.0	107.87874174118042	2.507826089859009
18	54.382025957107544	fix_post	2		12.0	16.0	2.5	/experiments/knapen_aot/videos/R_S_ILSVRC2015_train_00689000.mp4	0.0	110.38656783103943	0.10001111030578613
19	54.48203706741333	fix_pre	0		63.0	17.0	2.5	/experiments/knapen_aot/videos/R_S_ILSVRC2015_train_00708000.mp4	0.0	110.48657894134521	0.5249359607696533
19	54.9988169670105	response	0	2		17.0	2.5	/experiments/knapen_aot/videos/R_S_ILSVRC2015_train_00708000.mp4	0.0	111.00335884094238	
19	55.00697302818298	movie	1		301.0	17.0	2.5	/experiments/knapen_aot/videos/R_S_ILSVRC2015_train_00708000.mp4	0.0	111.01151490211487	2.5083749294281006
19	57.515347957611084	fix_post	2		12.0	17.0	2.5	/experiments/knapen_aot/videos/R_S_ILSVRC2015_train_00708000.mp4	0.0	113.51988983154297	0.10000300407409668
20	57.61535096168518	fix_pre	0		53.0	18.0	2.5	/experiments/knapen_aot/videos/R_S_yt-fnE8kgUHUMI_64.mp4	0.0	113.61989283561707	0.4416229724884033
20	58.048819065093994	response	0	2		18.0	2.5	/experiments/knapen_aot/videos/R_S_yt-fnE8kgUHUMI_64.mp4	0.0	114.05336093902588	
20	58.056973934173584	movie	1		301.0	18.0	2.5	/experiments/knapen_aot/videos/R_S_yt-fnE8kgUHUMI_64.mp4	0.0	114.06151580810547	2.50838303565979
20	60.565356969833374	fix_post	2		12.0	18.0	2.5	/experiments/knapen_aot/videos/R_S_yt-fnE8kgUHUMI_64.mp4	0.0	116.56989884376526	0.0999898910522461
21	60.66534686088562	fix_pre	0		46.0	19.0	2.5	blank	1.0	116.6698887348175	0.3833441734313965
21	61.040350914001465	response	0	2		19.0	2.5	blank	1.0	117.04489278793335	
21	61.04869103431702	movie	1		301.0	19.0	2.5	blank	1.0	117.0532329082489	2.508237838745117
21	63.556928873062134	fix_post	2		12.0	19.0	2.5	blank	1.0	119.56147074699402	0.10000801086425781
22	63.65693688392639	fix_pre	0		28.0	20.0	2.5	/experiments/knapen_aot/videos/R_S_yt-EKPrSw5xF7k_112.mp4	0.0	119.66147875785828	0.23329997062683105
22	63.88207006454468	response	0	2		20.0	2.5	/experiments/knapen_aot/videos/R_S_yt-EKPrSw5xF7k_112.mp4	0.0	119.88661193847656	
22	63.89023685455322	movie	1		300.0	20.0	2.5	/experiments/knapen_aot/videos/R_S_yt-EKPrSw5xF7k_112.mp4	0.0	119.89477872848511	2.508338212966919
22	66.39857506752014	fix_post	2		12.0	20.0	2.5	/experiments/knapen_aot/videos/R_S_yt-EKPrSw5xF7k_112.mp4	0.0	122.40311694145203	0.10001993179321289
23	66.49859499931335	fix_pre	0		52.0	21.0	2.5	/experiments/knapen_aot/videos/R_S_ILSVRC2015_train_00743005.mp4	0.0	122.50313687324524	0.433290958404541
23	66.92388391494751	response	0	2		21.0	2.5	/experiments/knapen_aot/videos/R_S_ILSVRC2015_train_00743005.mp4	0.0	122.9284257888794	
23	66.9318859577179	movie	1		300.0	21.0	2.5	/experiments/knapen_aot/videos/R_S_ILSVRC2015_train_00743005.mp4	0.0	122.93642783164978	2.5083420276641846
23	69.44022798538208	fix_post	2		12.0	21.0	2.5	/experiments/knapen_aot/videos/R_S_ILSVRC2015_train_00743005.mp4	0.0	125.44476985931396	0.10003900527954102
24	69.54026699066162	fix_pre	0		54.0	22.0	2.5	/experiments/knapen_aot/videos/R_S_ILSVRC2015_train_00545000.mp4	0.0	125.5448088645935	0.4498860836029053
24	69.98208904266357	response	0	2		22.0	2.5	/experiments/knapen_aot/videos/R_S_ILSVRC2015_train_00545000.mp4	0.0	125.98663091659546	
24	69.99015307426453	movie	1		298.0	22.0	2.5	/experiments/knapen_aot/videos/R_S_ILSVRC2015_train_00545000.mp4	0.0	125.99469494819641	2.5085577964782715
24	72.4987108707428	fix_post	2		12.0	22.0	2.5	/experiments/knapen_aot/videos/R_S_ILSVRC2015_train_00545000.mp4	0.0	128.50325274467468	0.09992408752441406
25	72.59863495826721	fix_pre	0		37.0	23.0	2.5	/experiments/knapen_aot/videos/R_S_yt-xBwq6sHHF5M_21.mp4	0.0	128.6031768321991	0.3082280158996582
25	72.89868903160095	response	0	2		23.0	2.5	/experiments/knapen_aot/videos/R_S_yt-xBwq6sHHF5M_21.mp4	0.0	128.90323090553284	
25	72.90686297416687	movie	1		301.0	23.0	2.5	/experiments/knapen_aot/videos/R_S_yt-xBwq6sHHF5M_21.mp4	0.0	128.91140484809875	2.5083138942718506
25	75.41517686843872	fix_post	2		12.0	23.0	2.5	/experiments/knapen_aot/videos/R_S_yt-xBwq6sHHF5M_21.mp4	0.0	131.4197187423706	0.10007500648498535
26	75.5152518749237	fix_pre	0		66.0	24.0	2.5	/experiments/knapen_aot/videos/R_S_yt-MTo50ReVNmU_2.mp4	0.0	131.5197937488556	0.5499980449676514
26	76.05696892738342	response	0	2		24.0	2.5	/experiments/knapen_aot/videos/R_S_yt-MTo50ReVNmU_2.mp4	0.0	132.0615108013153	
26	76.06524991989136	movie	1		301.0	24.0	2.5	/experiments/knapen_aot/videos/R_S_yt-MTo50ReVNmU_2.mp4	0.0	132.06979179382324	2.508263111114502
26	78.57351303100586	fix_post	2		12.0	24.0	2.5	/experiments/knapen_aot/videos/R_S_yt-MTo50ReVNmU_2.mp4	0.0	134.57805490493774	0.10001993179321289
27	78.67353296279907	fix_pre	0		48.0	25.0	2.5	/experiments/knapen_aot/videos/S_yt-bOgChEHiroI_20.mp4	0.0	134.67807483673096	0.400068998336792
27	79.0653748512268	response	0	2		25.0	2.5	/experiments/knapen_aot/videos/S_yt-bOgChEHiroI_20.mp4	0.0	135.0699167251587	
27	79.07360196113586	movie	1		301.0	25.0	2.5	/experiments/knapen_aot/videos/S_yt-bOgChEHiroI_20.mp4	0.0	135.07814383506775	2.5082590579986572
27	81.58186101913452	fix_post	2		12.0	25.0	2.5	/experiments/knapen_aot/videos/S_yt-bOgChEHiroI_20.mp4	0.0	137.5864028930664	0.09994792938232422
28	81.68180894851685	fix_pre	0		51.0	26.0	2.5	/experiments/knapen_aot/videos/R_S_yt-e9AZJKNv9ow_359.mp4	0.0	137.68635082244873	0.42505407333374023
28	82.09873485565186	response	0	2		26.0	2.5	/experiments/knapen_aot/videos/R_S_yt-e9AZJKNv9ow_359.mp4	0.0	138.10327672958374	
28	82.10686302185059	movie	1		301.0	26.0	2.5	/experiments/knapen_aot/videos/R_S_yt-e9AZJKNv9ow_359.mp4	0.0	138.11140489578247	2.5083389282226562
28	84.61520195007324	fix_post	2		12.0	26.0	2.5	/experiments/knapen_aot/videos/R_S_yt-e9AZJKNv9ow_359.mp4	0.0	140.61974382400513	0.09998703002929688
29	84.71518898010254	fix_pre	0		51.0	27.0	2.5	/experiments/knapen_aot/videos/R_S_ILSVRC2015_train_00408000.mp4	0.0	140.71973085403442	0.42499589920043945
29	85.13202285766602	response	0	2		27.0	2.5	/experiments/knapen_aot/videos/R_S_ILSVRC2015_train_00408000.mp4	0.0	141.1365647315979	
29	85.14018487930298	movie	1		301.0	27.0	2.5	/experiments/knapen_aot/videos/R_S_ILSVRC2015_train_00408000.mp4	0.0	141.14472675323486	2.508316993713379
29	87.64850187301636	fix_post	2		12.0	27.0	2.5	/experiments/knapen_aot/videos/R_S_ILSVRC2015_train_00408000.mp4	0.0	143.65304374694824	0.10041499137878418
30	87.74891686439514	fix_pre	0		76.0	28.0	2.5	blank	1.0	143.75345873832703	0.6329050064086914
30	88.37369799613953	response	0	2		28.0	2.5	blank	1.0	144.3782398700714	
30	88.38182187080383	movie	1		301.0	28.0	2.5	blank	1.0	144.38636374473572	2.508331060409546
30	90.89015293121338	fix_post	2		12.0	28.0	2.5	blank	1.0	146.89469480514526	0.10001897811889648
31	90.99017190933228	fix_pre	0		63.0	29.0	2.5	/experiments/knapen_aot/videos/S_yt-xCh0LI9VKeI_28.mp4	0.0	146.99471378326416	0.5249171257019043
31	91.50699806213379	response	0	2		29.0	2.5	/experiments/knapen_aot/videos/S_yt-xCh0LI9VKeI_28.mp4	0.0	147.51153993606567	
31	91.51508903503418	movie	1		301.0	29.0	2.5	/experiments/knapen_aot/videos/S_yt-xCh0LI9VKeI_28.mp4	0.0	147.51963090896606	2.5084388256073
31	94.02352786064148	fix_post	2		12.0	29.0	2.5	/experiments/knapen_aot/videos/S_yt-xCh0LI9VKeI_28.mp4	0.0	150.02806973457336	0.10034298896789551
32	94.12387084960938	fix_pre	0		45.0	30.0	2.5	/experiments/knapen_aot/videos/R_S_yt--5ls65Ue1RA_52.mp4	0.0	150.12841272354126	0.3749840259552002
32	94.49034404754639	response	0	2		30.0	2.5	/experiments/knapen_aot/videos/R_S_yt--5ls65Ue1RA_52.mp4	0.0	150.49488592147827	
32	94.49885487556458	movie	1		301.0	30.0	2.5	/experiments/knapen_aot/videos/R_S_yt--5ls65Ue1RA_52.mp4	0.0	150.50339674949646	2.5080461502075195
32	97.0069010257721	fix_post	2		12.0	30.0	2.5	/experiments/knapen_aot/videos/R_S_yt--5ls65Ue1RA_52.mp4	0.0	153.01144289970398	0.09998583793640137
33	97.1068868637085	fix_pre	0		50.0	31.0	2.5	/experiments/knapen_aot/videos/S_yt-074ygGXNoQ8_64.mp4	0.0	153.11142873764038	0.41658902168273926
33	97.51531600952148	response	0	2		31.0	2.5	/experiments/knapen_aot/videos/S_yt-074ygGXNoQ8_64.mp4	0.0	153.51985788345337	
33	97.52347588539124	movie	1		301.0	31.0	2.5	/experiments/knapen_aot/videos/S_yt-074ygGXNoQ8_64.mp4	0.0	153.52801775932312	2.5084099769592285
33	100.03188586235046	fix_post	2		12.0	31.0	2.5	/experiments/knapen_aot/videos/S_yt-074ygGXNoQ8_64.mp4	0.0	156.03642773628235	0.09995818138122559
34	100.13184404373169	fix_pre	0		54.0	32.0	2.5	/experiments/knapen_aot/videos/R_S_yt-Gc1p5CnDbDY_22.mp4	0.0	156.13638591766357	0.4502840042114258
34	100.5735969543457	response	0	2		32.0	2.5	/experiments/knapen_aot/videos/R_S_yt-Gc1p5CnDbDY_22.mp4	0.0	156.5781388282776	
34	100.58212804794312	movie	1		301.0	32.0	2.5	/experiments/knapen_aot/videos/R_S_yt-Gc1p5CnDbDY_22.mp4	0.0	156.586669921875	2.508046865463257
34	103.09017491340637	fix_post	2		12.0	32.0	2.5	/experiments/knapen_aot/videos/R_S_yt-Gc1p5CnDbDY_22.mp4	0.0	159.09471678733826	0.09995293617248535
35	103.19012784957886	fix_pre	0		76.0	33.0	2.5	/experiments/knapen_aot/videos/S_yt-xqjVM0Vj4mI_161.mp4	0.0	159.19466972351074	0.6333460807800293
35	103.81532096862793	response	0	2		33.0	2.5	/experiments/knapen_aot/videos/S_yt-xqjVM0Vj4mI_161.mp4	0.0	159.81986284255981	
35	103.82347393035889	movie	1		301.0	33.0	2.5	/experiments/knapen_aot/videos/S_yt-xqjVM0Vj4mI_161.mp4	0.0	159.82801580429077	2.5083529949188232
35	106.33182692527771	fix_post	2		12.0	33.0	2.5	/experiments/knapen_aot/videos/S_yt-xqjVM0Vj4mI_161.mp4	0.0	162.3363687992096	0.09996509552001953
36	106.43179202079773	fix_pre	0		183.0	34.0	2.5	/experiments/knapen_aot/videos/R_S_yt-6aqg1P9YqR8_38.mp4	0.0	162.43633389472961	1.5252439975738525
36	107.9411768913269	response	0	2		34.0	2.5	/experiments/knapen_aot/videos/R_S_yt-6aqg1P9YqR8_38.mp4	0.0	163.9457187652588	
36	107.95703601837158	movie	1		301.0	34.0	2.5	/experiments/knapen_aot/videos/R_S_yt-6aqg1P9YqR8_38.mp4	0.0	163.96157789230347	2.5080599784851074
36	110.46509599685669	fix_post	2		12.0	34.0	2.5	/experiments/knapen_aot/videos/R_S_yt-6aqg1P9YqR8_38.mp4	0.0	166.46963787078857	0.10003185272216797
37	110.56512784957886	fix_pre	0		51.0	35.0	2.5	blank	1.0	166.56966972351074	0.42501115798950195
37	110.98190689086914	response	0	2		35.0	2.5	blank	1.0	166.98644876480103	
37	110.99013900756836	movie	1		301.0	35.0	2.5	blank	1.0	166.99468088150024	2.5083088874816895
37	113.49844789505005	fix_post	2		12.0	35.0	2.5	blank	1.0	169.50298976898193	0.10003995895385742
38	113.5984878540039	fix_pre	0		56.0	36.0	2.5	/experiments/knapen_aot/videos/S_comp_GMT308_139K_142NC_CARIBBEAN_DAY_v09_SDR_FINAL_22062018_SDR_2K_AVC.mp4	0.0	169.6030297279358	0.4666471481323242
38	114.05695486068726	response	0	2		36.0	2.5	/experiments/knapen_aot/videos/S_comp_GMT308_139K_142NC_CARIBBEAN_DAY_v09_SDR_FINAL_22062018_SDR_2K_AVC.mp4	0.0	170.06149673461914	
38	114.06513500213623	movie	1		171.0	36.0	2.5	/experiments/knapen_aot/videos/S_comp_GMT308_139K_142NC_CARIBBEAN_DAY_v09_SDR_FINAL_22062018_SDR_2K_AVC.mp4	0.0	170.06967687606812	2.508296012878418
38	116.57343101501465	fix_post	2		12.0	36.0	2.5	/experiments/knapen_aot/videos/S_comp_GMT308_139K_142NC_CARIBBEAN_DAY_v09_SDR_FINAL_22062018_SDR_2K_AVC.mp4	0.0	172.57797288894653	0.10004496574401855
39	116.67347598075867	fix_pre	0		40.0	37.0	2.5	/experiments/knapen_aot/videos/S_yt-7VVzNnp36DM_78.mp4	0.0	172.67801785469055	0.3332669734954834
39	116.99858498573303	response	0	2		37.0	2.5	/experiments/knapen_aot/videos/S_yt-7VVzNnp36DM_78.mp4	0.0	173.00312685966492	
39	117.00674295425415	movie	1		301.0	37.0	2.5	/experiments/knapen_aot/videos/S_yt-7VVzNnp36DM_78.mp4	0.0	173.01128482818604	2.5084519386291504
39	119.5151948928833	fix_post	2		12.0	37.0	2.5	/experiments/knapen_aot/videos/S_yt-7VVzNnp36DM_78.mp4	0.0	175.51973676681519	0.09988117218017578
40	119.61507606506348	fix_pre	0		53.0	38.0	2.5	/experiments/knapen_aot/videos/S_yt-tHBOlYmaBuk_96.mp4	0.0	175.61961793899536	0.4416639804840088
40	120.04864406585693	response	0	2		38.0	2.5	/experiments/knapen_aot/videos/S_yt-tHBOlYmaBuk_96.mp4	0.0	176.05318593978882	
40	120.05674004554749	movie	1		300.0	38.0	2.5	/experiments/knapen_aot/videos/S_yt-tHBOlYmaBuk_96.mp4	0.0	176.06128191947937	2.5082578659057617
40	122.56499791145325	fix_post	2		12.0	38.0	2.5	/experiments/knapen_aot/videos/S_yt-tHBOlYmaBuk_96.mp4	0.0	178.56953978538513	0.10022497177124023
41	122.66522288322449	fix_pre	0		48.0	39.0	2.5	/experiments/knapen_aot/videos/R_S_yt-Tt_LkR4iAt4_11.mp4	0.0	178.66976475715637	0.3998110294342041
41	123.05695986747742	response	0	2		39.0	2.5	/experiments/knapen_aot/videos/R_S_yt-Tt_LkR4iAt4_11.mp4	0.0	179.0615017414093	
41	123.06503391265869	movie	1		301.0	39.0	2.5	/experiments/knapen_aot/videos/R_S_yt-Tt_LkR4iAt4_11.mp4	0.0	179.06957578659058	2.508319139480591
41	125.57335305213928	fix_post	2		12.0	39.0	2.5	/experiments/knapen_aot/videos/R_S_yt-Tt_LkR4iAt4_11.mp4	0.0	181.57789492607117	0.10016584396362305
42	125.6735188961029	fix_pre	0		46.0	40.0	2.5	blank	1.0	181.6780607700348	0.3831629753112793
42	126.0485029220581	response	0	2		40.0	2.5	blank	1.0	182.05304479599	
42	126.05668187141418	movie	1		301.0	40.0	2.5	blank	1.0	182.06122374534607	2.508336067199707
42	128.5650179386139	fix_post	2		12.0	40.0	2.5	blank	1.0	184.56955981254578	0.10011601448059082
43	128.66513395309448	fix_pre	0		55.0	41.0	2.5	/experiments/knapen_aot/videos/S_yt-eVAlSjH8E8k_127.mp4	0.0	184.66967582702637	0.4582951068878174
43	129.10761785507202	response	0	2		41.0	2.5	/experiments/knapen_aot/videos/S_yt-eVAlSjH8E8k_127.mp4	0.0	185.1121597290039	
43	129.1234290599823	movie	1		301.0	41.0	2.5	/experiments/knapen_aot/videos/S_yt-eVAlSjH8E8k_127.mp4	0.0	185.12797093391418	2.508248805999756
43	131.63167786598206	fix_post	2		12.0	41.0	2.5	/experiments/knapen_aot/videos/S_yt-eVAlSjH8E8k_127.mp4	0.0	187.63621973991394	0.09997701644897461
44	131.73165488243103	fix_pre	0		47.0	42.0	2.5	/experiments/knapen_aot/videos/S_yt-0buqUbXVTn8_48.mp4	0.0	187.73619675636292	0.39178919792175293
44	132.11512684822083	response	0	2		42.0	2.5	/experiments/knapen_aot/videos/S_yt-0buqUbXVTn8_48.mp4	0.0	188.1196687221527	
44	132.12344408035278	movie	1		301.0	42.0	2.5	/experiments/knapen_aot/videos/S_yt-0buqUbXVTn8_48.mp4	0.0	188.12798595428467	2.5082578659057617
44	134.63170194625854	fix_post	2		12.0	42.0	2.5	/experiments/knapen_aot/videos/S_yt-0buqUbXVTn8_48.mp4	0.0	190.63624382019043	0.10000896453857422
45	134.73171091079712	fix_pre	0		72.0	43.0	2.5	/experiments/knapen_aot/videos/S_yt-RlHmMGUjT9E_130.mp4	0.0	190.736252784729	0.6001260280609131
45	135.32347989082336	response	0	2		43.0	2.5	/experiments/knapen_aot/videos/S_yt-RlHmMGUjT9E_130.mp4	0.0	191.32802176475525	
45	135.33183693885803	movie	1		301.0	43.0	2.5	/experiments/knapen_aot/videos/S_yt-RlHmMGUjT9E_130.mp4	0.0	191.33637881278992	2.5081470012664795
45	137.8399839401245	fix_post	2		12.0	43.0	2.5	/experiments/knapen_aot/videos/S_yt-RlHmMGUjT9E_130.mp4	0.0	193.8445258140564	0.09998393058776855
46	137.93996787071228	fix_pre	0		50.0	44.0	2.5	/experiments/knapen_aot/videos/R_S_2RTDFkjD6vI_93.mp4	0.0	193.94450974464417	0.4167301654815674
46	138.34852004051208	response	0	2		44.0	2.5	/experiments/knapen_aot/videos/R_S_2RTDFkjD6vI_93.mp4	0.0	194.35306191444397	
46	138.35669803619385	movie	1		301.0	44.0	2.5	/experiments/knapen_aot/videos/R_S_2RTDFkjD6vI_93.mp4	0.0	194.36123991012573	2.5082600116729736
46	140.86495804786682	fix_post	2		12.0	44.0	2.5	/experiments/knapen_aot/videos/R_S_2RTDFkjD6vI_93.mp4	0.0	196.8694999217987	0.0999908447265625
47	140.96494889259338	fix_pre	0		34.0	45.0	2.5	/experiments/knapen_aot/videos/S_ILSVRC2015_train_00708000.mp4	0.0	196.96949076652527	0.2836439609527588
47	141.24007296562195	response	0	2		45.0	2.5	/experiments/knapen_aot/videos/S_ILSVRC2015_train_00708000.mp4	0.0	197.24461483955383	
47	141.24859285354614	movie	1		301.0	45.0	2.5	/experiments/knapen_aot/videos/S_ILSVRC2015_train_00708000.mp4	0.0	197.25313472747803	2.5080230236053467
47	143.7566158771515	fix_post	2		12.0	45.0	2.5	/experiments/knapen_aot/videos/S_ILSVRC2015_train_00708000.mp4	0.0	199.76115775108337	0.09995913505554199
48	143.85657501220703	fix_pre	0		52.0	46.0	2.5	/experiments/knapen_aot/videos/R_S_ILSVRC2015_train_00404003.mp4	0.0	199.86111688613892	0.4334418773651123
48	144.28178000450134	response	0	2		46.0	2.5	/experiments/knapen_aot/videos/R_S_ILSVRC2015_train_00404003.mp4	0.0	200.28632187843323	
48	144.29001688957214	movie	1		301.0	46.0	2.5	/experiments/knapen_aot/videos/R_S_ILSVRC2015_train_00404003.mp4	0.0	200.29455876350403	2.508255958557129
48	146.79827284812927	fix_post	2		12.0	46.0	2.5	/experiments/knapen_aot/videos/R_S_ILSVRC2015_train_00404003.mp4	0.0	202.80281472206116	0.10000109672546387
49	146.89827394485474	fix_pre	0		42.0	47.0	2.5	blank	1.0	202.90281581878662	0.3500819206237793
49	147.24002695083618	response	0	2		47.0	2.5	blank	1.0	203.24456882476807	
49	147.24835586547852	movie	1		301.0	47.0	2.5	blank	1.0	203.2528977394104	2.508219003677368
49	149.75657486915588	fix_post	2		12.0	47.0	2.5	blank	1.0	205.76111674308777	0.10001707077026367
50	149.85659193992615	fix_pre	0		58.0	48.0	2.5	/experiments/knapen_aot/videos/R_S_ga8dBJH_qK8_765.mp4	0.0	205.86113381385803	0.4832470417022705
50	150.3317370414734	response	0	2		48.0	2.5	/experiments/knapen_aot/videos/R_S_ga8dBJH_qK8_765.mp4	0.0	206.33627891540527	
50	150.33983898162842	movie	1		301.0	48.0	2.5	/experiments/knapen_aot/videos/R_S_ga8dBJH_qK8_765.mp4	0.0	206.3443808555603	2.5084140300750732
50	152.8482530117035	fix_post	2		12.0	48.0	2.5	/experiments/knapen_aot/videos/R_S_ga8dBJH_qK8_765.mp4	0.0	208.85279488563538	0.10000896453857422
51	152.94826197624207	fix_pre	0		32.0	49.0	2.5	/experiments/knapen_aot/videos/R_S_yt-1XfKrSmjtl4_443.mp4	0.0	208.95280385017395	0.26665496826171875
51	153.2067048549652	response	0	2		49.0	2.5	/experiments/knapen_aot/videos/R_S_yt-1XfKrSmjtl4_443.mp4	0.0	209.2112467288971	
51	153.21491694450378	movie	1		301.0	49.0	2.5	/experiments/knapen_aot/videos/R_S_yt-1XfKrSmjtl4_443.mp4	0.0	209.21945881843567	2.5083439350128174
51	155.7232608795166	fix_post	2		12.0	49.0	2.5	/experiments/knapen_aot/videos/R_S_yt-1XfKrSmjtl4_443.mp4	0.0	211.7278027534485	0.09998607635498047
52	155.82324695587158	fix_pre	0		41.0	50.0	2.5	/experiments/knapen_aot/videos/S_yt-pO5SVq-9EhU_114.mp4	0.0	211.82778882980347	0.3416860103607178
52	156.1567108631134	response	0	2		50.0	2.5	/experiments/knapen_aot/videos/S_yt-pO5SVq-9EhU_114.mp4	0.0	212.1612527370453	
52	156.1649329662323	movie	1		301.0	50.0	2.5	/experiments/knapen_aot/videos/S_yt-pO5SVq-9EhU_114.mp4	0.0	212.16947484016418	2.508246898651123
52	158.67317986488342	fix_post	2		12.0	50.0	2.5	/experiments/knapen_aot/videos/S_yt-pO5SVq-9EhU_114.mp4	0.0	214.6777217388153	0.10004615783691406
53	158.77322602272034	fix_pre	0		64.0	51.0	2.5	/experiments/knapen_aot/videos/R_S_yt-iT6jsSikmGM_4.mp4	0.0	214.77776789665222	0.5332949161529541
53	159.2908580303192	response	0	2		51.0	2.5	/experiments/knapen_aot/videos/R_S_yt-iT6jsSikmGM_4.mp4	0.0	215.2953999042511	
53	159.3065209388733	movie	1		301.0	51.0	2.5	/experiments/knapen_aot/videos/R_S_yt-iT6jsSikmGM_4.mp4	0.0	215.31106281280518	2.5083110332489014
53	161.8148319721222	fix_post	2		12.0	51.0	2.5	/experiments/knapen_aot/videos/R_S_yt-iT6jsSikmGM_4.mp4	0.0	217.81937384605408	0.10005807876586914
54	161.91489005088806	fix_pre	0		58.0	52.0	2.5	/experiments/knapen_aot/videos/R_S_WO9z7lBUvOs_151.mp4	0.0	217.91943192481995	0.48331284523010254
54	162.39005088806152	response	0	2		52.0	2.5	/experiments/knapen_aot/videos/R_S_WO9z7lBUvOs_151.mp4	0.0	218.3945927619934	
54	162.39820289611816	movie	1		301.0	52.0	2.5	/experiments/knapen_aot/videos/R_S_WO9z7lBUvOs_151.mp4	0.0	218.40274477005005	2.5083019733428955
54	164.90650486946106	fix_post	2		12.0	52.0	2.5	/experiments/knapen_aot/videos/R_S_WO9z7lBUvOs_151.mp4	0.0	220.91104674339294	0.10006213188171387
55	165.00656700134277	fix_pre	0		60.0	53.0	2.5	/experiments/knapen_aot/videos/R_S_yt-316ecr1BT84_44.mp4	0.0	221.01110887527466	0.4999229907989502
55	165.49840188026428	response	0	2		53.0	2.5	/experiments/knapen_aot/videos/R_S_yt-316ecr1BT84_44.mp4	0.0	221.50294375419617	
55	165.50648999214172	movie	1		301.0	53.0	2.5	/experiments/knapen_aot/videos/R_S_yt-316ecr1BT84_44.mp4	0.0	221.5110318660736	2.5083389282226562
55	168.01482892036438	fix_post	2		12.0	53.0	2.5	/experiments/knapen_aot/videos/R_S_yt-316ecr1BT84_44.mp4	0.0	224.01937079429626	0.0999751091003418
56	168.11480402946472	fix_pre	0		52.0	54.0	2.5	/experiments/knapen_aot/videos/R_S_yt-9t5-3Qe_t9A_591.mp4	0.0	224.1193459033966	0.43349599838256836
56	168.54000687599182	response	0	2		54.0	2.5	/experiments/knapen_aot/videos/R_S_yt-9t5-3Qe_t9A_591.mp4	0.0	224.5445487499237	
56	168.5483000278473	movie	1		301.0	54.0	2.5	/experiments/knapen_aot/videos/R_S_yt-9t5-3Qe_t9A_591.mp4	0.0	224.55284190177917	2.5082249641418457
56	171.05652499198914	fix_post	2		12.0	54.0	2.5	/experiments/knapen_aot/videos/R_S_yt-9t5-3Qe_t9A_591.mp4	0.0	227.06106686592102	0.09990906715393066
57	171.15643405914307	fix_pre	0		64.0	55.0	2.5	blank	1.0	227.16097593307495	0.5333278179168701
57	171.6816508769989	response	0	2		55.0	2.5	blank	1.0	227.6861927509308	
57	171.68976187705994	movie	1		301.0	55.0	2.5	blank	1.0	227.69430375099182	2.5084421634674072
57	174.19820404052734	fix_post	2		12.0	55.0	2.5	blank	1.0	230.20274591445923	0.09998798370361328
58	174.29819202423096	fix_pre	0		77.0	56.0	2.5	/experiments/knapen_aot/videos/R_S_ILSVRC2015_train_00479001.mp4	0.0	230.30273389816284	0.6416168212890625
58	174.93161797523499	response	0	2		56.0	2.5	/experiments/knapen_aot/videos/R_S_ILSVRC2015_train_00479001.mp4	0.0	230.93615984916687	
58	174.93980884552002	movie	1		301.0	56.0	2.5	/experiments/knapen_aot/videos/R_S_ILSVRC2015_train_00479001.mp4	0.0	230.9443507194519	2.5083611011505127
58	177.44816994667053	fix_post	2		12.0	56.0	2.5	/experiments/knapen_aot/videos/R_S_ILSVRC2015_train_00479001.mp4	0.0	233.45271182060242	0.09995794296264648
59	177.54812788963318	fix_pre	0		43.0	57.0	2.5	/experiments/knapen_aot/videos/R_S_ILSVRC2015_train_00524001.mp4	0.0	233.55266976356506	0.3583500385284424
59	177.8907859325409	response	0	2		57.0	2.5	/experiments/knapen_aot/videos/R_S_ILSVRC2015_train_00524001.mp4	0.0	233.89532780647278	
59	177.90647792816162	movie	1		301.0	57.0	2.5	/experiments/knapen_aot/videos/R_S_ILSVRC2015_train_00524001.mp4	0.0	233.9110198020935	2.508268117904663
59	180.41474604606628	fix_post	2		12.0	57.0	2.5	/experiments/knapen_aot/videos/R_S_ILSVRC2015_train_00524001.mp4	0.0	236.41928791999817	0.10005593299865723
60	180.51480197906494	fix_pre	0		66.0	58.0	2.5	/experiments/knapen_aot/videos/S_yt-RNPFV7lgAvE_362.mp4	0.0	236.51934385299683	0.549997091293335
60	181.05657291412354	response	0	2		58.0	2.5	/experiments/knapen_aot/videos/S_yt-RNPFV7lgAvE_362.mp4	0.0	237.06111478805542	
60	181.06479907035828	movie	1		301.0	58.0	2.5	/experiments/knapen_aot/videos/S_yt-RNPFV7lgAvE_362.mp4	0.0	237.06934094429016	2.508283853530884
60	183.57308292388916	fix_post	2		12.0	58.0	2.5	/experiments/knapen_aot/videos/S_yt-RNPFV7lgAvE_362.mp4	0.0	239.57762479782104	0.1000070571899414
61	183.6730899810791	fix_pre	0		57.0	59.0	2.5	/experiments/knapen_aot/videos/S_yt-7bSTxOajpjc_58.mp4	0.0	239.677631855011	0.475024938583374
61	184.13995003700256	response	0	2		59.0	2.5	/experiments/knapen_aot/videos/S_yt-7bSTxOajpjc_58.mp4	0.0	240.14449191093445	
61	184.14811491966248	movie	1		299.0	59.0	2.5	/experiments/knapen_aot/videos/S_yt-7bSTxOajpjc_58.mp4	0.0	240.15265679359436	2.508324146270752
61	186.65643906593323	fix_post	2		12.0	59.0	2.5	/experiments/knapen_aot/videos/S_yt-7bSTxOajpjc_58.mp4	0.0	242.6609809398651	0.09995889663696289
62	186.7563979625702	fix_pre	0		51.0	60.0	2.5	/experiments/knapen_aot/videos/R_S_yt-EBuE7GbFw7U_180.mp4	0.0	242.76093983650208	0.4250509738922119
62	187.1731719970703	response	0	2		60.0	2.5	/experiments/knapen_aot/videos/R_S_yt-EBuE7GbFw7U_180.mp4	0.0	243.1777138710022	
62	187.1814489364624	movie	1		301.0	60.0	2.5	/experiments/knapen_aot/videos/R_S_yt-EBuE7GbFw7U_180.mp4	0.0	243.1859908103943	2.508254051208496
62	189.6897029876709	fix_post	2		12.0	60.0	2.5	/experiments/knapen_aot/videos/R_S_yt-EBuE7GbFw7U_180.mp4	0.0	245.69424486160278	0.10008907318115234
63	189.78979206085205	fix_pre	0		43.0	61.0	2.5	/experiments/knapen_aot/videos/R_S_yt-EBuE7GbFw7U_180.mp4	0.0	245.79433393478394	0.3582799434661865
63	190.13988184928894	response	0	2		61.0	2.5	/experiments/knapen_aot/videos/R_S_yt-EBuE7GbFw7U_180.mp4	0.0	246.14442372322083	
63	190.14807200431824	movie	1		301.0	61.0	2.5	/experiments/knapen_aot/videos/R_S_yt-EBuE7GbFw7U_180.mp4	0.0	246.15261387825012	2.508357048034668
63	192.6564290523529	fix_post	2		12.0	61.0	2.5	/experiments/knapen_aot/videos/R_S_yt-EBuE7GbFw7U_180.mp4	0.0	248.6609709262848	0.10004591941833496
64	192.75647497177124	fix_pre	0		25.0	62.0	2.5	blank	1.0	248.76101684570312	0.2082209587097168
64	192.95657300949097	response	0	2		62.0	2.5	blank	1.0	248.96111488342285	
64	192.96469593048096	movie	1		301.0	62.0	2.5	blank	1.0	248.96923780441284	2.508424997329712
64	195.47312092781067	fix_post	2		12.0	62.0	2.5	blank	1.0	251.47766280174255	0.09996199607849121
65	195.57308292388916	fix_pre	0		107.0	63.0	2.5	/experiments/knapen_aot/videos/S_yt-MTo50ReVNmU_2.mp4	0.0	251.57762479782104	0.8916139602661133
65	196.45653891563416	response	0	2		63.0	2.5	/experiments/knapen_aot/videos/S_yt-MTo50ReVNmU_2.mp4	0.0	252.46108078956604	
65	196.46469688415527	movie	1		300.0	63.0	2.5	/experiments/knapen_aot/videos/S_yt-MTo50ReVNmU_2.mp4	0.0	252.46923875808716	2.508430004119873
65	198.97312688827515	fix_post	2		12.0	63.0	2.5	/experiments/knapen_aot/videos/S_yt-MTo50ReVNmU_2.mp4	0.0	254.97766876220703	0.09997105598449707
66	199.07309794425964	fix_pre	0		75.0	64.0	2.5	/experiments/knapen_aot/videos/R_S_yt-nS2QqSQbjOQ_39.mp4	0.0	255.07763981819153	0.6261169910430908
66	199.6899070739746	response	0	2		64.0	2.5	/experiments/knapen_aot/videos/R_S_yt-nS2QqSQbjOQ_39.mp4	0.0	255.6944489479065	
66	199.69921493530273	movie	1		301.0	64.0	2.5	/experiments/knapen_aot/videos/R_S_yt-nS2QqSQbjOQ_39.mp4	0.0	255.70375680923462	2.507143974304199
66	202.20635890960693	fix_post	2		12.0	64.0	2.5	/experiments/knapen_aot/videos/R_S_yt-nS2QqSQbjOQ_39.mp4	0.0	258.2109007835388	0.1000511646270752
67	202.306410074234	fix_pre	0		50.0	65.0	2.5	/experiments/knapen_aot/videos/R_S_yt-wVMhACNFF-M_154.mp4	0.0	258.3109519481659	0.41665077209472656
67	202.71481895446777	response	0	2		65.0	2.5	/experiments/knapen_aot/videos/R_S_yt-wVMhACNFF-M_154.mp4	0.0	258.71936082839966	
67	202.72306084632874	movie	1		301.0	65.0	2.5	/experiments/knapen_aot/videos/R_S_yt-wVMhACNFF-M_154.mp4	0.0	258.7276027202606	2.5083181858062744
67	205.231379032135	fix_post	2		12.0	65.0	2.5	/experiments/knapen_aot/videos/R_S_yt-wVMhACNFF-M_154.mp4	0.0	261.2359209060669	0.10004901885986328
68	205.33142805099487	fix_pre	0		42.0	66.0	2.5	/experiments/knapen_aot/videos/S_yt-deiWoIfK6vg_44.mp4	0.0	261.33596992492676	0.3499298095703125
68	205.67322492599487	response	0	2		66.0	2.5	/experiments/knapen_aot/videos/S_yt-deiWoIfK6vg_44.mp4	0.0	261.67776679992676	
68	205.68135786056519	movie	1		301.0	66.0	2.5	/experiments/knapen_aot/videos/S_yt-deiWoIfK6vg_44.mp4	0.0	261.68589973449707	2.5083839893341064
68	208.1897418498993	fix_post	2		12.0	66.0	2.5	/experiments/knapen_aot/videos/S_yt-deiWoIfK6vg_44.mp4	0.0	264.1942837238312	0.09996199607849121
69	208.28970384597778	fix_pre	0		76.0	67.0	2.5	/experiments/knapen_aot/videos/S_yt-giRwl4yChlw_9.mp4	0.0	264.29424571990967	0.633317232131958
69	208.91483306884766	response	0	2		67.0	2.5	/experiments/knapen_aot/videos/S_yt-giRwl4yChlw_9.mp4	0.0	264.91937494277954	
69	208.92302107810974	movie	1		301.0	67.0	2.5	/experiments/knapen_aot/videos/S_yt-giRwl4yChlw_9.mp4	0.0	264.9275629520416	2.5083367824554443
69	211.43135786056519	fix_post	2		12.0	67.0	2.5	/experiments/knapen_aot/videos/S_yt-giRwl4yChlw_9.mp4	0.0	267.43589973449707	0.100006103515625
70	211.5313639640808	fix_pre	0		70.0	68.0	2.5	/experiments/knapen_aot/videos/S_yt-PvWkOmfZuSY_4.mp4	0.0	267.5359058380127	0.5843799114227295
70	212.10647892951965	response	0	2		68.0	2.5	/experiments/knapen_aot/videos/S_yt-PvWkOmfZuSY_4.mp4	0.0	268.11102080345154	
70	212.11574387550354	movie	1		300.0	68.0	2.5	/experiments/knapen_aot/videos/S_yt-PvWkOmfZuSY_4.mp4	0.0	268.1202857494354	2.507291078567505
70	214.62303495407104	fix_post	2		12.0	68.0	2.5	/experiments/knapen_aot/videos/S_yt-PvWkOmfZuSY_4.mp4	0.0	270.62757682800293	0.09998893737792969
71	214.72302389144897	fix_pre	0		49.0	69.0	2.5	/experiments/knapen_aot/videos/R_S_comp_H012_C009_PS_v01_SDR_PS_20180925_SDR_2K_AVC.mp4	0.0	270.72756576538086	0.408297061920166
71	215.12313389778137	response	0	2		69.0	2.5	/experiments/knapen_aot/videos/R_S_comp_H012_C009_PS_v01_SDR_PS_20180925_SDR_2K_AVC.mp4	0.0	271.12767577171326	
71	215.13132095336914	movie	1		170.0	69.0	2.5	/experiments/knapen_aot/videos/R_S_comp_H012_C009_PS_v01_SDR_PS_20180925_SDR_2K_AVC.mp4	0.0	271.135862827301	2.5083489418029785
71	217.63966989517212	fix_post	2		12.0	69.0	2.5	/experiments/knapen_aot/videos/R_S_comp_H012_C009_PS_v01_SDR_PS_20180925_SDR_2K_AVC.mp4	0.0	273.644211769104	0.10001015663146973
72	217.7396800518036	fix_pre	0		36.0	70.0	2.5	blank	1.0	273.7442219257355	0.30001091957092285
72	218.02401494979858	response	0	2		70.0	2.5	blank	1.0	274.02855682373047	
72	218.0396909713745	movie	1		301.0	70.0	2.5	blank	1.0	274.0442328453064	2.508316993713379
72	220.5480079650879	fix_post	2		12.0	70.0	2.5	blank	1.0	276.5525498390198	0.10003304481506348
73	220.64804100990295	fix_pre	0		59.0	71.0	2.5	/experiments/knapen_aot/videos/S_yt-TSSPDwAQLXs_158.mp4	0.0	276.65258288383484	0.4916269779205322
73	221.13136792182922	response	0	2		71.0	2.5	/experiments/knapen_aot/videos/S_yt-TSSPDwAQLXs_158.mp4	0.0	277.1359097957611	
73	221.1396679878235	movie	1		301.0	71.0	2.5	/experiments/knapen_aot/videos/S_yt-TSSPDwAQLXs_158.mp4	0.0	277.14420986175537	2.5082650184631348
73	223.64793300628662	fix_post	2		12.0	71.0	2.5	/experiments/knapen_aot/videos/S_yt-TSSPDwAQLXs_158.mp4	0.0	279.6524748802185	0.0999748706817627
74	223.74790787696838	fix_pre	0		56.0	72.0	2.5	/experiments/knapen_aot/videos/S_yt-TvU-aYjNa2c_21.mp4	0.0	279.75244975090027	0.4667701721191406
74	224.2063820362091	response	0	2		72.0	2.5	/experiments/knapen_aot/videos/S_yt-TvU-aYjNa2c_21.mp4	0.0	280.210923910141	
74	224.21467804908752	movie	1		301.0	72.0	2.5	/experiments/knapen_aot/videos/S_yt-TvU-aYjNa2c_21.mp4	0.0	280.2192199230194	2.5082759857177734
74	226.7229540348053	fix_post	2		12.0	72.0	2.5	/experiments/knapen_aot/videos/S_yt-TvU-aYjNa2c_21.mp4	0.0	282.7274959087372	0.10002994537353516
75	226.82298398017883	fix_pre	0		46.0	73.0	2.5	/experiments/knapen_aot/videos/S_yt-kiEFK7bDssE_14.mp4	0.0	282.8275258541107	0.3832828998565674
75	227.19812989234924	response	0	2		73.0	2.5	/experiments/knapen_aot/videos/S_yt-kiEFK7bDssE_14.mp4	0.0	283.2026717662811	
75	227.2062668800354	movie	1		301.0	73.0	2.5	/experiments/knapen_aot/videos/S_yt-kiEFK7bDssE_14.mp4	0.0	283.2108087539673	2.5083930492401123
75	229.7146599292755	fix_post	2		12.0	73.0	2.5	/experiments/knapen_aot/videos/S_yt-kiEFK7bDssE_14.mp4	0.0	285.7192018032074	0.0999610424041748
76	229.8146209716797	fix_pre	0		52.0	74.0	2.5	/experiments/knapen_aot/videos/S_ILSVRC2015_train_00568002.mp4	0.0	285.8191628456116	0.43334197998046875
76	230.2398018836975	response	0	2		74.0	2.5	/experiments/knapen_aot/videos/S_ILSVRC2015_train_00568002.mp4	0.0	286.2443437576294	
76	230.24796295166016	movie	1		301.0	74.0	2.5	/experiments/knapen_aot/videos/S_ILSVRC2015_train_00568002.mp4	0.0	286.25250482559204	2.508336067199707
76	232.75629901885986	fix_post	2		12.0	74.0	2.5	/experiments/knapen_aot/videos/S_ILSVRC2015_train_00568002.mp4	0.0	288.76084089279175	0.0999610424041748
77	232.85626006126404	fix_pre	0		59.0	75.0	2.5	/experiments/knapen_aot/videos/R_S_yt-2IN85w8ptmM_51.mp4	0.0	288.8608019351959	0.49165892601013184
77	233.33974194526672	response	0	2		75.0	2.5	/experiments/knapen_aot/videos/R_S_yt-2IN85w8ptmM_51.mp4	0.0	289.3442838191986	
77	233.34791898727417	movie	1		301.0	75.0	2.5	/experiments/knapen_aot/videos/R_S_yt-2IN85w8ptmM_51.mp4	0.0	289.35246086120605	2.5083260536193848
77	235.85624504089355	fix_post	2		12.0	75.0	2.5	/experiments/knapen_aot/videos/R_S_yt-2IN85w8ptmM_51.mp4	0.0	291.86078691482544	0.09995198249816895
78	235.95619702339172	fix_pre	0		79.0	76.0	2.5	/experiments/knapen_aot/videos/R_S_ILSVRC2015_train_00568002.mp4	0.0	291.9607388973236	0.6593449115753174
78	236.6064109802246	response	0	2		76.0	2.5	/experiments/knapen_aot/videos/R_S_ILSVRC2015_train_00568002.mp4	0.0	292.6109528541565	
78	236.61554193496704	movie	1		300.0	76.0	2.5	/experiments/knapen_aot/videos/R_S_ILSVRC2015_train_00568002.mp4	0.0	292.6200838088989	2.507270097732544
78	239.12281203269958	fix_post	2		12.0	76.0	2.5	/experiments/knapen_aot/videos/R_S_ILSVRC2015_train_00568002.mp4	0.0	295.12735390663147	0.10004591941833496
79	239.22285795211792	fix_pre	0		71.0	77.0	2.5	blank	1.0	295.2273998260498	0.5917680263519287
79	239.79886507987976	response	0	2		77.0	2.5	blank	1.0	295.80340695381165	
79	239.81462597846985	movie	1		301.0	77.0	2.5	blank	1.0	295.81916785240173	2.5082969665527344
79	242.32292294502258	fix_post	2		12.0	77.0	2.5	blank	1.0	298.32746481895447	0.09987092018127441
80	242.42279386520386	fix_pre	0		56.0	78.0	2.5	/experiments/knapen_aot/videos/R_S_yt-pO5SVq-9EhU_114.mp4	0.0	298.42733573913574	0.46680402755737305
80	242.88132190704346	response	0	2		78.0	2.5	/experiments/knapen_aot/videos/R_S_yt-pO5SVq-9EhU_114.mp4	0.0	298.88586378097534	
80	242.88959789276123	movie	1		301.0	78.0	2.5	/experiments/knapen_aot/videos/R_S_yt-pO5SVq-9EhU_114.mp4	0.0	298.8941397666931	2.508223056793213
80	245.39782094955444	fix_post	2		12.0	78.0	2.5	/experiments/knapen_aot/videos/R_S_yt-pO5SVq-9EhU_114.mp4	0.0	301.4023628234863	0.09998798370361328
81	245.49780893325806	fix_pre	0		66.0	79.0	2.5	/experiments/knapen_aot/videos/R_S_yt-s2tZ2NIQrxg_175.mp4	0.0	301.50235080718994	0.5499789714813232
81	246.03974986076355	response	0	2		79.0	2.5	/experiments/knapen_aot/videos/R_S_yt-s2tZ2NIQrxg_175.mp4	0.0	302.04429173469543	
81	246.04778790473938	movie	1		301.0	79.0	2.5	/experiments/knapen_aot/videos/R_S_yt-s2tZ2NIQrxg_175.mp4	0.0	302.05232977867126	2.5083861351013184
81	248.5561740398407	fix_post	2		12.0	79.0	2.5	/experiments/knapen_aot/videos/R_S_yt-s2tZ2NIQrxg_175.mp4	0.0	304.5607159137726	0.1009519100189209
82	248.65712594985962	fix_pre	0		54.0	80.0	2.5	/experiments/knapen_aot/videos/R_S_yt-f9iXELY0EJ0_344.mp4	0.0	304.6616678237915	0.4490330219268799
82	249.09062385559082	response	0	2		80.0	2.5	/experiments/knapen_aot/videos/R_S_yt-f9iXELY0EJ0_344.mp4	0.0	305.0951657295227	
82	249.1061589717865	movie	1		301.0	80.0	2.5	/experiments/knapen_aot/videos/R_S_yt-f9iXELY0EJ0_344.mp4	0.0	305.1107008457184	2.50833797454834
82	251.61449694633484	fix_post	2		12.0	80.0	2.5	/experiments/knapen_aot/videos/R_S_yt-f9iXELY0EJ0_344.mp4	0.0	307.6190388202667	0.0999610424041748
83	251.714457988739	fix_pre	0		69.0	81.0	2.5	/experiments/knapen_aot/videos/R_S_yt-fnE8kgUHUMI_64.mp4	0.0	307.7189998626709	0.5750648975372314
83	252.28121495246887	response	0	2		81.0	2.5	/experiments/knapen_aot/videos/R_S_yt-fnE8kgUHUMI_64.mp4	0.0	308.28575682640076	
83	252.28952288627625	movie	1		301.0	81.0	2.5	/experiments/knapen_aot/videos/R_S_yt-fnE8kgUHUMI_64.mp4	0.0	308.29406476020813	2.5083370208740234
83	254.79785990715027	fix_post	2		12.0	81.0	2.5	/experiments/knapen_aot/videos/R_S_yt-fnE8kgUHUMI_64.mp4	0.0	310.80240178108215	0.09998798370361328
84	254.89784789085388	fix_pre	0		79.0	82.0	2.5	/experiments/knapen_aot/videos/R_S_ILSVRC2015_train_00715000.mp4	0.0	310.90238976478577	0.6582880020141602
84	255.5407199859619	response	0	2		82.0	2.5	/experiments/knapen_aot/videos/R_S_ILSVRC2015_train_00715000.mp4	0.0	311.5452618598938	
84	255.55613589286804	movie	1		301.0	82.0	2.5	/experiments/knapen_aot/videos/R_S_ILSVRC2015_train_00715000.mp4	0.0	311.5606777667999	2.5084140300750732
84	258.0645499229431	fix_post	2		12.0	82.0	2.5	/experiments/knapen_aot/videos/R_S_ILSVRC2015_train_00715000.mp4	0.0	314.069091796875	0.09999299049377441
85	258.1645429134369	fix_pre	0		58.0	83.0	2.5	blank	1.0	314.1690847873688	0.4832921028137207
85	258.63962602615356	response	0	2		83.0	2.5	blank	1.0	314.64416790008545	
85	258.6478350162506	movie	1		301.0	83.0	2.5	blank	1.0	314.6523768901825	2.5083718299865723
85	261.1562068462372	fix_post	2		12.0	83.0	2.5	blank	1.0	317.16074872016907	0.09996223449707031
87	261.25616908073425	stim	0		172.0					317.26071095466614	1.4355738162994385
87	262.68396401405334	response	0	space						318.68850588798523	
