trial_nr	onset	event_type	phase	response	nr_frames	movie_index	movie_duration	movie_file	blank	onset_abs	duration
0	0.12553000450134277	stim	0		36.0					163.02007508277893	0.29830193519592285
0	0.41533780097961426	response	0	space						163.3098828792572	
1	0.4238319396972656	stim	0		121.0					163.31837701797485	1.0077848434448242
1	1.3238139152526855	response	0	space						164.21835899353027	
1	1.4316167831420898	stim	1		120.0					164.32616186141968	0.9999880790710449
1	1.7234299182891846	response	1	space						164.61797499656677	
1	2.3400537967681885	response	1	space						165.23459887504578	
2	2.4316048622131348	fix_pre	0		22.0	0.0	2.5	/experiments/knapen_aot/videos/S_yt-xBwq6sHHF5M_21.mp4	0.0	165.32614994049072	0.18329405784606934
2	2.606698989868164	response	0	space		0.0	2.5	/experiments/knapen_aot/videos/S_yt-xBwq6sHHF5M_21.mp4	0.0	165.50124406814575	
2	2.614898920059204	movie	1		301.0	0.0	2.5	/experiments/knapen_aot/videos/S_yt-xBwq6sHHF5M_21.mp4	0.0	165.5094439983368	2.508394956588745
2	5.123293876647949	fix_post	2		12.0	0.0	2.5	/experiments/knapen_aot/videos/S_yt-xBwq6sHHF5M_21.mp4	0.0	168.01783895492554	0.09999799728393555
3	5.223291873931885	fix_pre	0		91.0	1.0	2.5	/experiments/knapen_aot/videos/S_ILSVRC2015_train_00369004.mp4	0.0	168.11783695220947	0.7623400688171387
3	5.975663900375366	response	0	2		1.0	2.5	/experiments/knapen_aot/videos/S_ILSVRC2015_train_00369004.mp4	0.0	168.87020897865295	
3	5.985631942749023	movie	1		301.0	1.0	2.5	/experiments/knapen_aot/videos/S_ILSVRC2015_train_00369004.mp4	0.0	168.8801770210266	2.504305839538574
3	8.489937782287598	fix_post	2		12.0	1.0	2.5	/experiments/knapen_aot/videos/S_ILSVRC2015_train_00369004.mp4	0.0	171.38448286056519	0.10002708435058594
4	8.589964866638184	fix_pre	0		95.0	2.0	2.5	/experiments/knapen_aot/videos/S_yt-k-MRlbCOzZU_163.mp4	0.0	171.48450994491577	0.7916951179504395
4	9.373387813568115	response	0	2		2.0	2.5	/experiments/knapen_aot/videos/S_yt-k-MRlbCOzZU_163.mp4	0.0	172.2679328918457	
4	9.381659984588623	movie	1		301.0	2.0	2.5	/experiments/knapen_aot/videos/S_yt-k-MRlbCOzZU_163.mp4	0.0	172.2762050628662	2.5084168910980225
4	11.890076875686646	fix_post	2		12.0	2.0	2.5	/experiments/knapen_aot/videos/S_yt-k-MRlbCOzZU_163.mp4	0.0	174.78462195396423	0.09988093376159668
5	11.989957809448242	fix_pre	0		76.0	3.0	2.5	/experiments/knapen_aot/videos/R_S_ILSVRC2015_train_00303008.mp4	0.0	174.88450288772583	0.6332540512084961
5	12.607544898986816	response	0	2		3.0	2.5	/experiments/knapen_aot/videos/R_S_ILSVRC2015_train_00303008.mp4	0.0	175.5020899772644	
5	12.623211860656738	movie	1		301.0	3.0	2.5	/experiments/knapen_aot/videos/R_S_ILSVRC2015_train_00303008.mp4	0.0	175.51775693893433	2.5085930824279785
5	15.131804943084717	fix_post	2		12.0	3.0	2.5	/experiments/knapen_aot/videos/R_S_ILSVRC2015_train_00303008.mp4	0.0	178.0263500213623	0.09981489181518555
6	15.231619834899902	fix_pre	0		69.0	4.0	2.5	/experiments/knapen_aot/videos/S_yt-kawmL3oVw8c_2.mp4	0.0	178.1261649131775	0.5748960971832275
6	15.798344850540161	response	0	2		4.0	2.5	/experiments/knapen_aot/videos/S_yt-kawmL3oVw8c_2.mp4	0.0	178.69288992881775	
6	15.80651593208313	movie	1		301.0	4.0	2.5	/experiments/knapen_aot/videos/S_yt-kawmL3oVw8c_2.mp4	0.0	178.70106101036072	2.5084309577941895
6	18.31494688987732	fix_post	2		12.0	4.0	2.5	/experiments/knapen_aot/videos/S_yt-kawmL3oVw8c_2.mp4	0.0	181.2094919681549	0.09996199607849121
7	18.41490888595581	fix_pre	0		83.0	5.0	2.5	/experiments/knapen_aot/videos/S_yt-4-u4Fw_J_q8_45.mp4	0.0	181.3094539642334	0.6915690898895264
7	19.09834885597229	response	0	2		5.0	2.5	/experiments/knapen_aot/videos/S_yt-4-u4Fw_J_q8_45.mp4	0.0	181.99289393424988	
7	19.106477975845337	movie	1		300.0	5.0	2.5	/experiments/knapen_aot/videos/S_yt-4-u4Fw_J_q8_45.mp4	0.0	182.00102305412292	2.5083889961242676
7	21.614866971969604	fix_post	2		12.0	5.0	2.5	/experiments/knapen_aot/videos/S_yt-4-u4Fw_J_q8_45.mp4	0.0	184.5094120502472	0.10008597373962402
8	21.71495294570923	fix_pre	0		62.0	6.0	2.5	blank	1.0	184.60949802398682	0.5164830684661865
8	22.223309993743896	response	0	2		6.0	2.5	blank	1.0	185.11785507202148	
8	22.231436014175415	movie	1		301.0	6.0	2.5	blank	1.0	185.125981092453	2.508344888687134
8	24.73978090286255	fix_post	2		12.0	6.0	2.5	blank	1.0	187.63432598114014	0.10003995895385742
9	24.839820861816406	fix_pre	0		61.0	7.0	2.5	/experiments/knapen_aot/videos/R_S_yt-npaE4fe6A6Y_26.mp4	0.0	187.734365940094	0.5083479881286621
9	25.33998990058899	response	0	2		7.0	2.5	/experiments/knapen_aot/videos/R_S_yt-npaE4fe6A6Y_26.mp4	0.0	188.23453497886658	
9	25.34816884994507	movie	1		301.0	7.0	2.5	/experiments/knapen_aot/videos/R_S_yt-npaE4fe6A6Y_26.mp4	0.0	188.24271392822266	2.508355140686035
9	27.856523990631104	fix_post	2		12.0	7.0	2.5	/experiments/knapen_aot/videos/R_S_yt-npaE4fe6A6Y_26.mp4	0.0	190.7510690689087	0.09996390342712402
10	27.956487894058228	fix_pre	0		63.0	8.0	2.5	/experiments/knapen_aot/videos/R_S_yt-QiJyOUkuo38_6.mp4	0.0	190.85103297233582	0.5249600410461426
10	28.473272800445557	response	0	2		8.0	2.5	/experiments/knapen_aot/videos/R_S_yt-QiJyOUkuo38_6.mp4	0.0	191.36781787872314	
10	28.48144793510437	movie	1		301.0	8.0	2.5	/experiments/knapen_aot/videos/R_S_yt-QiJyOUkuo38_6.mp4	0.0	191.37599301338196	2.5083670616149902
10	30.98981499671936	fix_post	2		12.0	8.0	2.5	/experiments/knapen_aot/videos/R_S_yt-QiJyOUkuo38_6.mp4	0.0	193.88436007499695	0.10009384155273438
11	31.089908838272095	fix_pre	0		59.0	9.0	2.5	/experiments/knapen_aot/videos/S_pexels-mart-production-7698911_1.mp4	0.0	193.98445391654968	0.49277210235595703
11	31.573318004608154	response	0	2		9.0	2.5	/experiments/knapen_aot/videos/S_pexels-mart-production-7698911_1.mp4	0.0	194.46786308288574	
11	31.58268094062805	movie	1		182.0	9.0	2.5	/experiments/knapen_aot/videos/S_pexels-mart-production-7698911_1.mp4	0.0	194.47722601890564	2.507140874862671
11	34.08982181549072	fix_post	2		12.0	9.0	2.5	/experiments/knapen_aot/videos/S_pexels-mart-production-7698911_1.mp4	0.0	196.9843668937683	0.10002803802490234
12	34.189849853515625	fix_pre	0		56.0	10.0	2.5	/experiments/knapen_aot/videos/R_S_yt-wz2opOBqClo_14.mp4	0.0	197.0843949317932	0.4665989875793457
12	34.64827585220337	response	0	2		10.0	2.5	/experiments/knapen_aot/videos/R_S_yt-wz2opOBqClo_14.mp4	0.0	197.54282093048096	
12	34.65644884109497	movie	1		301.0	10.0	2.5	/experiments/knapen_aot/videos/R_S_yt-wz2opOBqClo_14.mp4	0.0	197.55099391937256	2.5083820819854736
12	37.164830923080444	fix_post	2		12.0	10.0	2.5	/experiments/knapen_aot/videos/R_S_yt-wz2opOBqClo_14.mp4	0.0	200.05937600135803	0.09995198249816895
13	37.26478290557861	fix_pre	0		65.0	11.0	2.5	/experiments/knapen_aot/videos/S_yt-Ozx_f0a0ZDI_32.mp4	0.0	200.1593279838562	0.5416669845581055
13	37.798322916030884	response	0	2		11.0	2.5	/experiments/knapen_aot/videos/S_yt-Ozx_f0a0ZDI_32.mp4	0.0	200.69286799430847	
13	37.80644989013672	movie	1		301.0	11.0	2.5	/experiments/knapen_aot/videos/S_yt-Ozx_f0a0ZDI_32.mp4	0.0	200.7009949684143	2.5083420276641846
13	40.3147919178009	fix_post	2		12.0	11.0	2.5	/experiments/knapen_aot/videos/S_yt-Ozx_f0a0ZDI_32.mp4	0.0	203.2093369960785	0.09996700286865234
14	40.414758920669556	fix_pre	0		72.0	12.0	2.5	/experiments/knapen_aot/videos/R_S_yt-4-u4Fw_J_q8_45.mp4	0.0	203.30930399894714	0.5999109745025635
14	41.006523847579956	response	0	2		12.0	2.5	/experiments/knapen_aot/videos/R_S_yt-4-u4Fw_J_q8_45.mp4	0.0	203.90106892585754	
14	41.01466989517212	movie	1		301.0	12.0	2.5	/experiments/knapen_aot/videos/R_S_yt-4-u4Fw_J_q8_45.mp4	0.0	203.9092149734497	2.5084609985351562
14	43.523130893707275	fix_post	2		12.0	12.0	2.5	/experiments/knapen_aot/videos/R_S_yt-4-u4Fw_J_q8_45.mp4	0.0	206.41767597198486	0.09997797012329102
15	43.623108863830566	fix_pre	0		69.0	13.0	2.5	/experiments/knapen_aot/videos/R_S_yt-PYP0fEQ357c_89.mp4	0.0	206.51765394210815	0.5749380588531494
15	44.18240189552307	response	0	2		13.0	2.5	/experiments/knapen_aot/videos/R_S_yt-PYP0fEQ357c_89.mp4	0.0	207.07694697380066	
15	44.198046922683716	movie	1		301.0	13.0	2.5	/experiments/knapen_aot/videos/R_S_yt-PYP0fEQ357c_89.mp4	0.0	207.0925920009613	2.508436918258667
15	46.70648384094238	fix_post	2		12.0	13.0	2.5	/experiments/knapen_aot/videos/R_S_yt-PYP0fEQ357c_89.mp4	0.0	209.60102891921997	0.09993314743041992
16	46.8064169883728	fix_pre	0		68.0	14.0	2.5	blank	1.0	209.7009620666504	0.5667638778686523
16	47.36483383178711	response	0	2		14.0	2.5	blank	1.0	210.2593789100647	
16	47.373180866241455	movie	1		301.0	14.0	2.5	blank	1.0	210.26772594451904	2.508131980895996
16	49.88131284713745	fix_post	2		12.0	14.0	2.5	blank	1.0	212.77585792541504	0.10025215148925781
17	49.98156499862671	fix_pre	0		70.0	15.0	2.5	/experiments/knapen_aot/videos/S_yt-8fQ9LaF8U10_382.mp4	0.0	212.8761100769043	0.5830848217010498
17	50.556466817855835	response	0	2		15.0	2.5	/experiments/knapen_aot/videos/S_yt-8fQ9LaF8U10_382.mp4	0.0	213.45101189613342	
17	50.56464982032776	movie	1		301.0	15.0	2.5	/experiments/knapen_aot/videos/S_yt-8fQ9LaF8U10_382.mp4	0.0	213.45919489860535	2.5086281299591064
17	53.073277950286865	fix_post	2		12.0	15.0	2.5	/experiments/knapen_aot/videos/S_yt-8fQ9LaF8U10_382.mp4	0.0	215.96782302856445	0.09978604316711426
18	53.17306399345398	fix_pre	0		73.0	16.0	2.5	/experiments/knapen_aot/videos/S_ILSVRC2015_train_00303008.mp4	0.0	216.06760907173157	0.6082658767700195
18	53.773188829422	response	0	2		16.0	2.5	/experiments/knapen_aot/videos/S_ILSVRC2015_train_00303008.mp4	0.0	216.66773390769958	
18	53.781329870224	movie	1		301.0	16.0	2.5	/experiments/knapen_aot/videos/S_ILSVRC2015_train_00303008.mp4	0.0	216.6758749485016	2.508620023727417
18	56.289949893951416	fix_post	2		12.0	16.0	2.5	/experiments/knapen_aot/videos/S_ILSVRC2015_train_00303008.mp4	0.0	219.184494972229	0.09965801239013672
19	56.38960790634155	fix_pre	0		71.0	17.0	2.5	/experiments/knapen_aot/videos/S_yt-8fQ9LaF8U10_382.mp4	0.0	219.28415298461914	0.5916969776153564
19	56.97314691543579	response	0	2		17.0	2.5	/experiments/knapen_aot/videos/S_yt-8fQ9LaF8U10_382.mp4	0.0	219.86769199371338	
19	56.98130488395691	movie	1		301.0	17.0	2.5	/experiments/knapen_aot/videos/S_yt-8fQ9LaF8U10_382.mp4	0.0	219.8758499622345	2.5084660053253174
19	59.48977088928223	fix_post	2		12.0	17.0	2.5	/experiments/knapen_aot/videos/S_yt-8fQ9LaF8U10_382.mp4	0.0	222.38431596755981	0.09993290901184082
20	59.58970379829407	fix_pre	0		54.0	18.0	2.5	/experiments/knapen_aot/videos/R_S_yt-tneuR3EtSZE_72.mp4	0.0	222.48424887657166	0.4510021209716797
20	60.03136992454529	response	0	2		18.0	2.5	/experiments/knapen_aot/videos/R_S_yt-tneuR3EtSZE_72.mp4	0.0	222.92591500282288	
20	60.04070591926575	movie	1		301.0	18.0	2.5	/experiments/knapen_aot/videos/R_S_yt-tneuR3EtSZE_72.mp4	0.0	222.93525099754333	2.507340908050537
20	62.548046827316284	fix_post	2		12.0	18.0	2.5	/experiments/knapen_aot/videos/R_S_yt-tneuR3EtSZE_72.mp4	0.0	225.44259190559387	0.10000395774841309
21	62.6480507850647	fix_pre	0		66.0	19.0	2.5	/experiments/knapen_aot/videos/S_ILSVRC2015_train_00569007.mp4	0.0	225.54259586334229	0.549950122833252
21	63.182254791259766	response	0	2		19.0	2.5	/experiments/knapen_aot/videos/S_ILSVRC2015_train_00569007.mp4	0.0	226.07679986953735	
21	63.19800090789795	movie	1		300.0	19.0	2.5	/experiments/knapen_aot/videos/S_ILSVRC2015_train_00569007.mp4	0.0	226.09254598617554	2.5083560943603516
21	65.7063570022583	fix_post	2		12.0	19.0	2.5	/experiments/knapen_aot/videos/S_ILSVRC2015_train_00569007.mp4	0.0	228.6009020805359	0.1000058650970459
22	65.80636286735535	fix_pre	0		52.0	20.0	2.5	blank	1.0	228.70090794563293	0.43326401710510254
22	66.23144888877869	response	0	2		20.0	2.5	blank	1.0	229.12599396705627	
22	66.23962688446045	movie	1		301.0	20.0	2.5	blank	1.0	229.13417196273804	2.508389949798584
22	68.74801683425903	fix_post	2		12.0	20.0	2.5	blank	1.0	231.64256191253662	0.09998202323913574
23	68.84799885749817	fix_pre	0		59.0	21.0	2.5	/experiments/knapen_aot/videos/R_S_production_ID_5182928.mp4	0.0	231.74254393577576	0.4916090965270996
23	69.33146595954895	response	0	2		21.0	2.5	/experiments/knapen_aot/videos/R_S_production_ID_5182928.mp4	0.0	232.22601103782654	
23	69.33960795402527	movie	1		171.0	21.0	2.5	/experiments/knapen_aot/videos/R_S_production_ID_5182928.mp4	0.0	232.23415303230286	2.5083839893341064
23	71.84799194335938	fix_post	2		12.0	21.0	2.5	/experiments/knapen_aot/videos/R_S_production_ID_5182928.mp4	0.0	234.74253702163696	0.09997391700744629
24	71.94796586036682	fix_pre	0		50.0	22.0	2.5	/experiments/knapen_aot/videos/S_yt-LsCCAQ8BRO8_7.mp4	0.0	234.8425109386444	0.4166719913482666
24	72.35645484924316	response	0	2		22.0	2.5	/experiments/knapen_aot/videos/S_yt-LsCCAQ8BRO8_7.mp4	0.0	235.25099992752075	
24	72.36463785171509	movie	1		301.0	22.0	2.5	/experiments/knapen_aot/videos/S_yt-LsCCAQ8BRO8_7.mp4	0.0	235.25918292999268	2.50829815864563
24	74.87293601036072	fix_post	2		12.0	22.0	2.5	/experiments/knapen_aot/videos/S_yt-LsCCAQ8BRO8_7.mp4	0.0	237.7674810886383	0.10003280639648438
25	74.9729688167572	fix_pre	0		66.0	23.0	2.5	/experiments/knapen_aot/videos/R_S_g201_TH_804_A001_8_SDR_20191031_SDR_2K_AVC.mp4	0.0	237.8675138950348	0.5499789714813232
25	75.51470685005188	response	0	2		23.0	2.5	/experiments/knapen_aot/videos/R_S_g201_TH_804_A001_8_SDR_20191031_SDR_2K_AVC.mp4	0.0	238.40925192832947	
25	75.52294778823853	movie	1		167.0	23.0	2.5	/experiments/knapen_aot/videos/R_S_g201_TH_804_A001_8_SDR_20191031_SDR_2K_AVC.mp4	0.0	238.4174928665161	2.50828218460083
25	78.03122997283936	fix_post	2		12.0	23.0	2.5	/experiments/knapen_aot/videos/R_S_g201_TH_804_A001_8_SDR_20191031_SDR_2K_AVC.mp4	0.0	240.92577505111694	0.10003495216369629
26	78.13126492500305	fix_pre	0		59.0	24.0	2.5	/experiments/knapen_aot/videos/R_S_comp_H012_C009_PS_v01_SDR_PS_20180925_SDR_2K_AVC.mp4	0.0	241.02581000328064	0.4924888610839844
26	78.61466598510742	response	0	2		24.0	2.5	/experiments/knapen_aot/videos/R_S_comp_H012_C009_PS_v01_SDR_PS_20180925_SDR_2K_AVC.mp4	0.0	241.509211063385	
26	78.62375378608704	movie	1		165.0	24.0	2.5	/experiments/knapen_aot/videos/R_S_comp_H012_C009_PS_v01_SDR_PS_20180925_SDR_2K_AVC.mp4	0.0	241.51829886436462	2.507550001144409
26	81.13130378723145	fix_post	2		12.0	24.0	2.5	/experiments/knapen_aot/videos/R_S_comp_H012_C009_PS_v01_SDR_PS_20180925_SDR_2K_AVC.mp4	0.0	244.02584886550903	0.0999000072479248
27	81.23120379447937	fix_pre	0		52.0	25.0	2.5	/experiments/knapen_aot/videos/S_yt-mJzkLd3Mr_c_35.mp4	0.0	244.12574887275696	0.43427109718322754
27	81.65640377998352	response	0	2		25.0	2.5	/experiments/knapen_aot/videos/S_yt-mJzkLd3Mr_c_35.mp4	0.0	244.5509488582611	
27	81.6654748916626	movie	1		301.0	25.0	2.5	/experiments/knapen_aot/videos/S_yt-mJzkLd3Mr_c_35.mp4	0.0	244.56001996994019	2.50742506980896
27	84.17289996147156	fix_post	2		12.0	25.0	2.5	/experiments/knapen_aot/videos/S_yt-mJzkLd3Mr_c_35.mp4	0.0	247.06744503974915	0.09995794296264648
28	84.2728579044342	fix_pre	0		60.0	26.0	2.5	/experiments/knapen_aot/videos/S_yt-fnE8kgUHUMI_64.mp4	0.0	247.1674029827118	0.49997591972351074
28	84.76467680931091	response	0	2		26.0	2.5	/experiments/knapen_aot/videos/S_yt-fnE8kgUHUMI_64.mp4	0.0	247.6592218875885	
28	84.77283382415771	movie	1		301.0	26.0	2.5	/experiments/knapen_aot/videos/S_yt-fnE8kgUHUMI_64.mp4	0.0	247.6673789024353	2.5083110332489014
28	87.28114485740662	fix_post	2		12.0	26.0	2.5	/experiments/knapen_aot/videos/S_yt-fnE8kgUHUMI_64.mp4	0.0	250.1756899356842	0.1001739501953125
29	87.38131880760193	fix_pre	0		74.0	27.0	2.5	/experiments/knapen_aot/videos/R_S_yt-WTxvvlP8xnw_113.mp4	0.0	250.27586388587952	0.617326021194458
29	87.9896628856659	response	0	2		27.0	2.5	/experiments/knapen_aot/videos/R_S_yt-WTxvvlP8xnw_113.mp4	0.0	250.88420796394348	
29	87.99864482879639	movie	1		301.0	27.0	2.5	/experiments/knapen_aot/videos/R_S_yt-WTxvvlP8xnw_113.mp4	0.0	250.89318990707397	2.507539987564087
29	90.50618481636047	fix_post	2		12.0	27.0	2.5	/experiments/knapen_aot/videos/R_S_yt-WTxvvlP8xnw_113.mp4	0.0	253.40072989463806	0.09999799728393555
30	90.60618281364441	fix_pre	0		64.0	28.0	2.5	blank	1.0	253.500727891922	0.5333681106567383
30	91.13137793540955	response	0	2		28.0	2.5	blank	1.0	254.02592301368713	
30	91.13955092430115	movie	1		301.0	28.0	2.5	blank	1.0	254.03409600257874	2.5083160400390625
30	93.64786696434021	fix_post	2		12.0	28.0	2.5	blank	1.0	256.5424120426178	0.09995388984680176
31	93.74782085418701	fix_pre	0		64.0	29.0	2.5	/experiments/knapen_aot/videos/R_S_yt-FsXOl6JjzSY_15.mp4	0.0	256.6423659324646	0.5333189964294434
31	94.27294182777405	response	0	2		29.0	2.5	/experiments/knapen_aot/videos/R_S_yt-FsXOl6JjzSY_15.mp4	0.0	257.16748690605164	
31	94.28113985061646	movie	1		301.0	29.0	2.5	/experiments/knapen_aot/videos/R_S_yt-FsXOl6JjzSY_15.mp4	0.0	257.17568492889404	2.5085830688476562
31	96.78972291946411	fix_post	2		12.0	29.0	2.5	/experiments/knapen_aot/videos/R_S_yt-FsXOl6JjzSY_15.mp4	0.0	259.6842679977417	0.09978389739990234
32	96.88950681686401	fix_pre	0		85.0	30.0	2.5	/experiments/knapen_aot/videos/S_ILSVRC2015_train_00584001.mp4	0.0	259.7840518951416	0.7082741260528564
32	97.58957195281982	response	0	2		30.0	2.5	/experiments/knapen_aot/videos/S_ILSVRC2015_train_00584001.mp4	0.0	260.4841170310974	
32	97.59778094291687	movie	1		301.0	30.0	2.5	/experiments/knapen_aot/videos/S_ILSVRC2015_train_00584001.mp4	0.0	260.49232602119446	2.5083730220794678
32	100.10615396499634	fix_post	2		12.0	30.0	2.5	/experiments/knapen_aot/videos/S_ILSVRC2015_train_00584001.mp4	0.0	263.0006990432739	0.09997892379760742
33	100.20613288879395	fix_pre	0		57.0	31.0	2.5	/experiments/knapen_aot/videos/R_S_yt-Wf-RauSbVgA_56.mp4	0.0	263.10067796707153	0.47498297691345215
33	100.67294001579285	response	0	2		31.0	2.5	/experiments/knapen_aot/videos/R_S_yt-Wf-RauSbVgA_56.mp4	0.0	263.56748509407043	
33	100.6811158657074	movie	1		301.0	31.0	2.5	/experiments/knapen_aot/videos/R_S_yt-Wf-RauSbVgA_56.mp4	0.0	263.575660943985	2.5085830688476562
33	103.18969893455505	fix_post	2		12.0	31.0	2.5	/experiments/knapen_aot/videos/R_S_yt-Wf-RauSbVgA_56.mp4	0.0	266.08424401283264	0.1000070571899414
34	103.289705991745	fix_pre	0		78.0	32.0	2.5	/experiments/knapen_aot/videos/S_yt-CINajD_PVjQ_494.mp4	0.0	266.1842510700226	0.6498630046844482
34	103.93126082420349	response	0	2		32.0	2.5	/experiments/knapen_aot/videos/S_yt-CINajD_PVjQ_494.mp4	0.0	266.8258059024811	
34	103.93956899642944	movie	1		301.0	32.0	2.5	/experiments/knapen_aot/videos/S_yt-CINajD_PVjQ_494.mp4	0.0	266.83411407470703	2.5082128047943115
34	106.44778180122375	fix_post	2		12.0	32.0	2.5	/experiments/knapen_aot/videos/S_yt-CINajD_PVjQ_494.mp4	0.0	269.34232687950134	0.09995007514953613
35	106.54773187637329	fix_pre	0		61.0	33.0	2.5	/experiments/knapen_aot/videos/R_S_yt-M5qZo3CUXYE_27.mp4	0.0	269.4422769546509	0.5083720684051514
35	107.04791188240051	response	0	2		33.0	2.5	/experiments/knapen_aot/videos/R_S_yt-M5qZo3CUXYE_27.mp4	0.0	269.9424569606781	
35	107.05610394477844	movie	1		301.0	33.0	2.5	/experiments/knapen_aot/videos/R_S_yt-M5qZo3CUXYE_27.mp4	0.0	269.95064902305603	2.50833797454834
35	109.56444191932678	fix_post	2		12.0	33.0	2.5	/experiments/knapen_aot/videos/R_S_yt-M5qZo3CUXYE_27.mp4	0.0	272.45898699760437	0.09999394416809082
36	109.66443586349487	fix_pre	0		72.0	34.0	2.5	blank	1.0	272.55898094177246	0.5999240875244141
36	110.256276845932	response	0	2		34.0	2.5	blank	1.0	273.1508219242096	
36	110.26435995101929	movie	1		301.0	34.0	2.5	blank	1.0	273.1589050292969	2.508359909057617
36	112.7727198600769	fix_post	2		12.0	34.0	2.5	blank	1.0	275.6672649383545	0.10005593299865723
37	112.87277579307556	fix_pre	0		55.0	35.0	2.5	/experiments/knapen_aot/videos/S_yt-Wf-RauSbVgA_56.mp4	0.0	275.76732087135315	0.45898914337158203
37	113.32285594940186	response	0	2		35.0	2.5	/experiments/knapen_aot/videos/S_yt-Wf-RauSbVgA_56.mp4	0.0	276.21740102767944	
37	113.33176493644714	movie	1		301.0	35.0	2.5	/experiments/knapen_aot/videos/S_yt-Wf-RauSbVgA_56.mp4	0.0	276.22631001472473	2.5076558589935303
37	115.83942079544067	fix_post	2		12.0	35.0	2.5	/experiments/knapen_aot/videos/S_yt-Wf-RauSbVgA_56.mp4	0.0	278.73396587371826	0.09993314743041992
38	115.9393539428711	fix_pre	0		55.0	36.0	2.5	/experiments/knapen_aot/videos/S_yt-FsXOl6JjzSY_15.mp4	0.0	278.8338990211487	0.45832204818725586
38	116.38952088356018	response	0	2		36.0	2.5	/experiments/knapen_aot/videos/S_yt-FsXOl6JjzSY_15.mp4	0.0	279.28406596183777	
38	116.39767599105835	movie	1		301.0	36.0	2.5	/experiments/knapen_aot/videos/S_yt-FsXOl6JjzSY_15.mp4	0.0	279.29222106933594	2.5084269046783447
38	118.9061028957367	fix_post	2		12.0	36.0	2.5	/experiments/knapen_aot/videos/S_yt-FsXOl6JjzSY_15.mp4	0.0	281.8006479740143	0.09995508193969727
39	119.00605797767639	fix_pre	0		90.0	37.0	2.5	/experiments/knapen_aot/videos/R_S_yt-feTWuKPZA_k_34.mp4	0.0	281.900603055954	0.7499909400939941
39	119.74037480354309	response	0	2		37.0	2.5	/experiments/knapen_aot/videos/R_S_yt-feTWuKPZA_k_34.mp4	0.0	282.6349198818207	
39	119.75604891777039	movie	1		301.0	37.0	2.5	/experiments/knapen_aot/videos/R_S_yt-feTWuKPZA_k_34.mp4	0.0	282.650593996048	2.508405923843384
39	122.26445484161377	fix_post	2		12.0	37.0	2.5	/experiments/knapen_aot/videos/R_S_yt-feTWuKPZA_k_34.mp4	0.0	285.15899991989136	0.09998703002929688
40	122.36444187164307	fix_pre	0		76.0	38.0	2.5	/experiments/knapen_aot/videos/R_S_production_ID_4325509.mp4	0.0	285.25898694992065	0.6339089870452881
40	122.989501953125	response	0	2		38.0	2.5	/experiments/knapen_aot/videos/R_S_production_ID_4325509.mp4	0.0	285.8840470314026	
40	122.99835085868835	movie	1		199.0	38.0	2.5	/experiments/knapen_aot/videos/R_S_production_ID_4325509.mp4	0.0	285.89289593696594	2.507611036300659
40	125.50596189498901	fix_post	2		12.0	38.0	2.5	/experiments/knapen_aot/videos/R_S_production_ID_4325509.mp4	0.0	288.4005069732666	0.10010004043579102
41	125.6060619354248	fix_pre	0		57.0	39.0	2.5	/experiments/knapen_aot/videos/R_S_yt-bshHX6vWLtA_84.mp4	0.0	288.5006070137024	0.4755859375
41	126.0727949142456	response	0	2		39.0	2.5	/experiments/knapen_aot/videos/R_S_yt-bshHX6vWLtA_84.mp4	0.0	288.9673399925232	
41	126.0816478729248	movie	1		301.0	39.0	2.5	/experiments/knapen_aot/videos/R_S_yt-bshHX6vWLtA_84.mp4	0.0	288.9761929512024	2.5077059268951416
41	128.58935379981995	fix_post	2		12.0	39.0	2.5	/experiments/knapen_aot/videos/R_S_yt-bshHX6vWLtA_84.mp4	0.0	291.48389887809753	0.09998512268066406
42	128.6893389225006	fix_pre	0		65.0	40.0	2.5	/experiments/knapen_aot/videos/R_S_yt-w_C-15eJeCQ_191.mp4	0.0	291.5838840007782	0.5416390895843506
42	129.2227349281311	response	0	2		40.0	2.5	/experiments/knapen_aot/videos/R_S_yt-w_C-15eJeCQ_191.mp4	0.0	292.1172800064087	
42	129.23097801208496	movie	1		301.0	40.0	2.5	/experiments/knapen_aot/videos/R_S_yt-w_C-15eJeCQ_191.mp4	0.0	292.12552309036255	2.5083839893341064
42	131.73936200141907	fix_post	2		12.0	40.0	2.5	/experiments/knapen_aot/videos/R_S_yt-w_C-15eJeCQ_191.mp4	0.0	294.63390707969666	0.0999448299407959
43	131.83930683135986	fix_pre	0		80.0	41.0	2.5	/experiments/knapen_aot/videos/S_yt-M8wvzt_BMXM_173.mp4	0.0	294.73385190963745	0.666694164276123
43	132.4977948665619	response	0	2		41.0	2.5	/experiments/knapen_aot/videos/S_yt-M8wvzt_BMXM_173.mp4	0.0	295.3923399448395	
43	132.506000995636	movie	1		301.0	41.0	2.5	/experiments/knapen_aot/videos/S_yt-M8wvzt_BMXM_173.mp4	0.0	295.4005460739136	2.5083529949188232
43	135.0143539905548	fix_post	2		12.0	41.0	2.5	/experiments/knapen_aot/videos/S_yt-M8wvzt_BMXM_173.mp4	0.0	297.9088990688324	0.09996986389160156
44	135.1143238544464	fix_pre	0		58.0	42.0	2.5	blank	1.0	298.008868932724	0.48322415351867676
44	135.5894079208374	response	0	2		42.0	2.5	blank	1.0	298.483952999115	
44	135.5975480079651	movie	1		301.0	42.0	2.5	blank	1.0	298.4920930862427	2.508431911468506
44	138.1059799194336	fix_post	2		12.0	42.0	2.5	blank	1.0	301.0005249977112	0.10001492500305176
45	138.20599484443665	fix_pre	0		57.0	43.0	2.5	/experiments/knapen_aot/videos/S_yt-QiJyOUkuo38_6.mp4	0.0	301.10053992271423	0.4749491214752197
45	138.67276287078857	response	0	2		43.0	2.5	/experiments/knapen_aot/videos/S_yt-QiJyOUkuo38_6.mp4	0.0	301.56730794906616	
45	138.68094396591187	movie	1		301.0	43.0	2.5	/experiments/knapen_aot/videos/S_yt-QiJyOUkuo38_6.mp4	0.0	301.57548904418945	2.5083699226379395
45	141.1893138885498	fix_post	2		12.0	43.0	2.5	/experiments/knapen_aot/videos/S_yt-QiJyOUkuo38_6.mp4	0.0	304.0838589668274	0.10006499290466309
46	141.28937888145447	fix_pre	0		69.0	44.0	2.5	/experiments/knapen_aot/videos/R_S_yt-9pUeQix6EW8_7.mp4	0.0	304.18392395973206	0.5748529434204102
46	141.85612201690674	response	0	2		44.0	2.5	/experiments/knapen_aot/videos/R_S_yt-9pUeQix6EW8_7.mp4	0.0	304.7506670951843	
46	141.86423182487488	movie	1		301.0	44.0	2.5	/experiments/knapen_aot/videos/R_S_yt-9pUeQix6EW8_7.mp4	0.0	304.75877690315247	2.5085480213165283
46	144.3727798461914	fix_post	2		12.0	44.0	2.5	/experiments/knapen_aot/videos/R_S_yt-9pUeQix6EW8_7.mp4	0.0	307.267324924469	0.09987807273864746
47	144.47265791893005	fix_pre	0		58.0	45.0	2.5	/experiments/knapen_aot/videos/S_yt-tneuR3EtSZE_72.mp4	0.0	307.36720299720764	0.4839320182800293
47	144.94769883155823	response	0	2		45.0	2.5	/experiments/knapen_aot/videos/S_yt-tneuR3EtSZE_72.mp4	0.0	307.8422439098358	
47	144.95658993721008	movie	1		300.0	45.0	2.5	/experiments/knapen_aot/videos/S_yt-tneuR3EtSZE_72.mp4	0.0	307.85113501548767	2.507840871810913
47	147.464430809021	fix_post	2		12.0	45.0	2.5	/experiments/knapen_aot/videos/S_yt-tneuR3EtSZE_72.mp4	0.0	310.3589758872986	0.09986519813537598
48	147.56429600715637	fix_pre	0		60.0	46.0	2.5	/experiments/knapen_aot/videos/S_pexels-kindel-media-7147375.mp4	0.0	310.45884108543396	0.4999208450317383
48	148.0560178756714	response	0	2		46.0	2.5	/experiments/knapen_aot/videos/S_pexels-kindel-media-7147375.mp4	0.0	310.950562953949	
48	148.0642168521881	movie	1		167.0	46.0	2.5	/experiments/knapen_aot/videos/S_pexels-kindel-media-7147375.mp4	0.0	310.9587619304657	2.508355140686035
48	150.57257199287415	fix_post	2		12.0	46.0	2.5	/experiments/knapen_aot/videos/S_pexels-kindel-media-7147375.mp4	0.0	313.46711707115173	0.10004401206970215
49	150.67261600494385	fix_pre	0		66.0	47.0	2.5	/experiments/knapen_aot/videos/S_yt-R9Iabv0XgOQ_80.mp4	0.0	313.56716108322144	0.5499358177185059
49	151.21434998512268	response	0	2		47.0	2.5	/experiments/knapen_aot/videos/S_yt-R9Iabv0XgOQ_80.mp4	0.0	314.10889506340027	
49	151.22255182266235	movie	1		301.0	47.0	2.5	/experiments/knapen_aot/videos/S_yt-R9Iabv0XgOQ_80.mp4	0.0	314.11709690093994	2.5083611011505127
49	153.73091292381287	fix_post	2		12.0	47.0	2.5	/experiments/knapen_aot/videos/S_yt-R9Iabv0XgOQ_80.mp4	0.0	316.62545800209045	0.09995698928833008
50	153.8308699131012	fix_pre	0		74.0	48.0	2.5	blank	1.0	316.7254149913788	0.6166610717773438
50	154.43935298919678	response	0	2		48.0	2.5	blank	1.0	317.33389806747437	
50	154.44753098487854	movie	1		301.0	48.0	2.5	blank	1.0	317.3420760631561	2.508509874343872
50	156.9560408592224	fix_post	2		12.0	48.0	2.5	blank	1.0	319.8505859375	0.09987711906433105
51	157.05591797828674	fix_pre	0		52.0	49.0	2.5	/experiments/knapen_aot/videos/S_comp_A009_C001_010181A_v09_SDR_PS_FINAL_20180725_SDR_2K_AVC.mp4	0.0	319.95046305656433	0.4333000183105469
51	157.48095989227295	response	0	2		49.0	2.5	/experiments/knapen_aot/videos/S_comp_A009_C001_010181A_v09_SDR_PS_FINAL_20180725_SDR_2K_AVC.mp4	0.0	320.37550497055054	
51	157.4892179965973	movie	1		168.0	49.0	2.5	/experiments/knapen_aot/videos/S_comp_A009_C001_010181A_v09_SDR_PS_FINAL_20180725_SDR_2K_AVC.mp4	0.0	320.3837630748749	2.508373975753784
51	159.99759197235107	fix_post	2		12.0	49.0	2.5	/experiments/knapen_aot/videos/S_comp_A009_C001_010181A_v09_SDR_PS_FINAL_20180725_SDR_2K_AVC.mp4	0.0	322.89213705062866	0.09997797012329102
52	160.09756994247437	fix_pre	0		52.0	50.0	2.5	/experiments/knapen_aot/videos/R_S_yt-Q4edV5qiqu0_578.mp4	0.0	322.99211502075195	0.43326687812805176
52	160.52277398109436	response	0	2		50.0	2.5	/experiments/knapen_aot/videos/R_S_yt-Q4edV5qiqu0_578.mp4	0.0	323.41731905937195	
52	160.53083682060242	movie	1		301.0	50.0	2.5	/experiments/knapen_aot/videos/R_S_yt-Q4edV5qiqu0_578.mp4	0.0	323.42538189888	2.5084311962127686
52	163.03926801681519	fix_post	2		12.0	50.0	2.5	/experiments/knapen_aot/videos/R_S_yt-Q4edV5qiqu0_578.mp4	0.0	325.9338130950928	0.10000276565551758
53	163.1392707824707	fix_pre	0		66.0	51.0	2.5	/experiments/knapen_aot/videos/S_production_ID_4325509.mp4	0.0	326.0338158607483	0.5498931407928467
53	163.68100881576538	response	0	2		51.0	2.5	/experiments/knapen_aot/videos/S_production_ID_4325509.mp4	0.0	326.57555389404297	
53	163.68916392326355	movie	1		200.0	51.0	2.5	/experiments/knapen_aot/videos/S_production_ID_4325509.mp4	0.0	326.58370900154114	2.5083820819854736
53	166.19754600524902	fix_post	2		12.0	51.0	2.5	/experiments/knapen_aot/videos/S_production_ID_4325509.mp4	0.0	329.0920910835266	0.10010099411010742
54	166.29764699935913	fix_pre	0		70.0	52.0	2.5	/experiments/knapen_aot/videos/R_S_yt-AbJBxqEYoMg_105.mp4	0.0	329.1921920776367	0.5832178592681885
54	166.8726668357849	response	0	2		52.0	2.5	/experiments/knapen_aot/videos/R_S_yt-AbJBxqEYoMg_105.mp4	0.0	329.7672119140625	
54	166.88086485862732	movie	1		301.0	52.0	2.5	/experiments/knapen_aot/videos/R_S_yt-AbJBxqEYoMg_105.mp4	0.0	329.7754099369049	2.5083260536193848
54	169.3891909122467	fix_post	2		12.0	52.0	2.5	/experiments/knapen_aot/videos/R_S_yt-AbJBxqEYoMg_105.mp4	0.0	332.2837359905243	0.10004591941833496
55	169.48923683166504	fix_pre	0		55.0	53.0	2.5	/experiments/knapen_aot/videos/S_yt-JtR6WZXT2kU_8.mp4	0.0	332.3837819099426	0.45821404457092285
55	169.9393129348755	response	0	2		53.0	2.5	/experiments/knapen_aot/videos/S_yt-JtR6WZXT2kU_8.mp4	0.0	332.8338580131531	
55	169.94745087623596	movie	1		301.0	53.0	2.5	/experiments/knapen_aot/videos/S_yt-JtR6WZXT2kU_8.mp4	0.0	332.84199595451355	2.5083839893341064
55	172.45583486557007	fix_post	2		12.0	53.0	2.5	/experiments/knapen_aot/videos/S_yt-JtR6WZXT2kU_8.mp4	0.0	335.35037994384766	0.10005712509155273
56	172.55589199066162	fix_pre	0		51.0	54.0	2.5	/experiments/knapen_aot/videos/S_yt-Fdv-V--QlR0_117.mp4	0.0	335.4504370689392	0.42498779296875
56	172.97266793251038	response	0	2		54.0	2.5	/experiments/knapen_aot/videos/S_yt-Fdv-V--QlR0_117.mp4	0.0	335.86721301078796	
56	172.98087978363037	movie	1		301.0	54.0	2.5	/experiments/knapen_aot/videos/S_yt-Fdv-V--QlR0_117.mp4	0.0	335.87542486190796	2.5083231925964355
56	175.4892029762268	fix_post	2		12.0	54.0	2.5	/experiments/knapen_aot/videos/S_yt-Fdv-V--QlR0_117.mp4	0.0	338.3837480545044	0.09995293617248535
57	175.5891559123993	fix_pre	0		77.0	55.0	2.5	blank	1.0	338.4837009906769	0.6416518688201904
57	176.22267293930054	response	0	2		55.0	2.5	blank	1.0	339.1172180175781	
57	176.23080778121948	movie	1		301.0	55.0	2.5	blank	1.0	339.12535285949707	2.5083532333374023
57	178.73916101455688	fix_post	2		12.0	55.0	2.5	blank	1.0	341.6337060928345	0.10014891624450684
58	178.8393099308014	fix_pre	0		53.0	56.0	2.5	/experiments/knapen_aot/videos/R_S_ILSVRC2015_train_00364000.mp4	0.0	341.733855009079	0.4415409564971924
58	179.2726149559021	response	0	2		56.0	2.5	/experiments/knapen_aot/videos/R_S_ILSVRC2015_train_00364000.mp4	0.0	342.1671600341797	
58	179.28085088729858	movie	1		301.0	56.0	2.5	/experiments/knapen_aot/videos/R_S_ILSVRC2015_train_00364000.mp4	0.0	342.1753959655762	2.508354902267456
58	181.78920578956604	fix_post	2		12.0	56.0	2.5	/experiments/knapen_aot/videos/R_S_ILSVRC2015_train_00364000.mp4	0.0	344.6837508678436	0.10001802444458008
59	181.88922381401062	fix_pre	0		61.0	57.0	2.5	/experiments/knapen_aot/videos/S_yt-BiBS8EO5GPc_4.mp4	0.0	344.7837688922882	0.508357048034668
59	182.38935899734497	response	0	2		57.0	2.5	/experiments/knapen_aot/videos/S_yt-BiBS8EO5GPc_4.mp4	0.0	345.28390407562256	
59	182.3975808620453	movie	1		301.0	57.0	2.5	/experiments/knapen_aot/videos/S_yt-BiBS8EO5GPc_4.mp4	0.0	345.2921259403229	2.508301019668579
59	184.90588188171387	fix_post	2		12.0	57.0	2.5	/experiments/knapen_aot/videos/S_yt-BiBS8EO5GPc_4.mp4	0.0	347.80042695999146	0.09993290901184082
60	185.0058147907257	fix_pre	0		57.0	58.0	2.5	/experiments/knapen_aot/videos/R_S_video_inspire_california_big-sur_bixby_005.1080-h264.mp4	0.0	347.9003598690033	0.47501420974731445
60	185.47269082069397	response	0	2		58.0	2.5	/experiments/knapen_aot/videos/R_S_video_inspire_california_big-sur_bixby_005.1080-h264.mp4	0.0	348.36723589897156	
60	185.48082900047302	movie	1		168.0	58.0	2.5	/experiments/knapen_aot/videos/R_S_video_inspire_california_big-sur_bixby_005.1080-h264.mp4	0.0	348.3753740787506	2.5083789825439453
60	187.98920798301697	fix_post	2		12.0	58.0	2.5	/experiments/knapen_aot/videos/R_S_video_inspire_california_big-sur_bixby_005.1080-h264.mp4	0.0	350.88375306129456	0.0999908447265625
61	188.08919882774353	fix_pre	0		51.0	59.0	2.5	/experiments/knapen_aot/videos/R_S_yt-v8e_DlCsP4w_10.mp4	0.0	350.9837439060211	0.42498207092285156
61	188.50599694252014	response	0	2		59.0	2.5	/experiments/knapen_aot/videos/R_S_yt-v8e_DlCsP4w_10.mp4	0.0	351.40054202079773	
61	188.51418089866638	movie	1		301.0	59.0	2.5	/experiments/knapen_aot/videos/R_S_yt-v8e_DlCsP4w_10.mp4	0.0	351.40872597694397	2.5083060264587402
61	191.02248692512512	fix_post	2		12.0	59.0	2.5	/experiments/knapen_aot/videos/R_S_yt-v8e_DlCsP4w_10.mp4	0.0	353.9170320034027	0.10038304328918457
62	191.1228699684143	fix_pre	0		66.0	60.0	2.5	/experiments/knapen_aot/videos/R_S_yt-ThT8utBaywI_68.mp4	0.0	354.0174150466919	0.5495908260345459
62	191.66429591178894	response	0	2		60.0	2.5	/experiments/knapen_aot/videos/R_S_yt-ThT8utBaywI_68.mp4	0.0	354.5588409900665	
62	191.67246079444885	movie	1		301.0	60.0	2.5	/experiments/knapen_aot/videos/R_S_yt-ThT8utBaywI_68.mp4	0.0	354.56700587272644	2.5083181858062744
62	194.18077898025513	fix_post	2		12.0	60.0	2.5	/experiments/knapen_aot/videos/R_S_yt-ThT8utBaywI_68.mp4	0.0	357.0753240585327	0.1000518798828125
63	194.28083086013794	fix_pre	0		55.0	61.0	2.5	/experiments/knapen_aot/videos/S_yt-zKnjBBYWe90_369.mp4	0.0	357.1753759384155	0.4582960605621338
63	194.7309010028839	response	0	2		61.0	2.5	/experiments/knapen_aot/videos/S_yt-zKnjBBYWe90_369.mp4	0.0	357.6254460811615	
63	194.73912692070007	movie	1		301.0	61.0	2.5	/experiments/knapen_aot/videos/S_yt-zKnjBBYWe90_369.mp4	0.0	357.63367199897766	2.5082719326019287
63	197.247398853302	fix_post	2		12.0	61.0	2.5	/experiments/knapen_aot/videos/S_yt-zKnjBBYWe90_369.mp4	0.0	360.1419439315796	0.10002493858337402
64	197.34742379188538	fix_pre	0		53.0	62.0	2.5	blank	1.0	360.24196887016296	0.44195008277893066
64	197.78089785575867	response	0	2		62.0	2.5	blank	1.0	360.67544293403625	
64	197.7893738746643	movie	1		301.0	62.0	2.5	blank	1.0	360.6839189529419	2.5080649852752686
64	200.29743885993958	fix_post	2		12.0	62.0	2.5	blank	1.0	363.19198393821716	0.10020995140075684
65	200.39764881134033	fix_pre	0		85.0	63.0	2.5	/experiments/knapen_aot/videos/S_KP_A010_C002_SDR_20190717_SDR_2K_AVC.mp4	0.0	363.2921938896179	0.7080550193786621
65	201.09758687019348	response	0	2		63.0	2.5	/experiments/knapen_aot/videos/S_KP_A010_C002_SDR_20190717_SDR_2K_AVC.mp4	0.0	363.99213194847107	
65	201.105703830719	movie	1		164.0	63.0	2.5	/experiments/knapen_aot/videos/S_KP_A010_C002_SDR_20190717_SDR_2K_AVC.mp4	0.0	364.0002489089966	2.5083680152893066
65	203.6140718460083	fix_post	2		12.0	63.0	2.5	/experiments/knapen_aot/videos/S_KP_A010_C002_SDR_20190717_SDR_2K_AVC.mp4	0.0	366.5086169242859	0.1000370979309082
66	203.7141089439392	fix_pre	0		45.0	64.0	2.5	/experiments/knapen_aot/videos/R_S_comp_C001_C005_PS_v01_SDR_PS_20180925_SDR_2K_AVC.mp4	0.0	366.6086540222168	0.3749358654022217
66	204.0808379650116	response	0	2		64.0	2.5	/experiments/knapen_aot/videos/R_S_comp_C001_C005_PS_v01_SDR_PS_20180925_SDR_2K_AVC.mp4	0.0	366.9753830432892	
66	204.08904480934143	movie	1		172.0	64.0	2.5	/experiments/knapen_aot/videos/R_S_comp_C001_C005_PS_v01_SDR_PS_20180925_SDR_2K_AVC.mp4	0.0	366.983589887619	2.508364200592041
66	206.59740900993347	fix_post	2		12.0	64.0	2.5	/experiments/knapen_aot/videos/R_S_comp_C001_C005_PS_v01_SDR_PS_20180925_SDR_2K_AVC.mp4	0.0	369.49195408821106	0.10019683837890625
67	206.69760584831238	fix_pre	0		47.0	65.0	2.5	/experiments/knapen_aot/videos/S_yt-a5TGHnldsKg_102.mp4	0.0	369.59215092658997	0.3914780616760254
67	207.08094882965088	response	0	2		65.0	2.5	/experiments/knapen_aot/videos/S_yt-a5TGHnldsKg_102.mp4	0.0	369.97549390792847	
67	207.0890839099884	movie	1		301.0	65.0	2.5	/experiments/knapen_aot/videos/S_yt-a5TGHnldsKg_102.mp4	0.0	369.983628988266	2.5083329677581787
67	209.59741687774658	fix_post	2		12.0	65.0	2.5	/experiments/knapen_aot/videos/S_yt-a5TGHnldsKg_102.mp4	0.0	372.49196195602417	0.09996891021728516
68	209.69738578796387	fix_pre	0		75.0	66.0	2.5	/experiments/knapen_aot/videos/R_S_yt-RO4mhuXBVrY_67.mp4	0.0	372.59193086624146	0.6249370574951172
68	210.3141348361969	response	0	2		66.0	2.5	/experiments/knapen_aot/videos/R_S_yt-RO4mhuXBVrY_67.mp4	0.0	373.2086799144745	
68	210.32232284545898	movie	1		301.0	66.0	2.5	/experiments/knapen_aot/videos/R_S_yt-RO4mhuXBVrY_67.mp4	0.0	373.2168679237366	2.508975028991699
68	212.83129787445068	fix_post	2		12.0	66.0	2.5	/experiments/knapen_aot/videos/R_S_yt-RO4mhuXBVrY_67.mp4	0.0	375.72584295272827	0.09966301918029785
69	212.93096089363098	fix_pre	0		68.0	67.0	2.5	/experiments/knapen_aot/videos/S_ILSVRC2015_train_00743000.mp4	0.0	375.82550597190857	0.5666460990905762
69	213.48918080329895	response	0	2		67.0	2.5	/experiments/knapen_aot/videos/S_ILSVRC2015_train_00743000.mp4	0.0	376.38372588157654	
69	213.49760699272156	movie	1		301.0	67.0	2.5	/experiments/knapen_aot/videos/S_ILSVRC2015_train_00743000.mp4	0.0	376.39215207099915	2.508190870285034
69	216.0057978630066	fix_post	2		12.0	67.0	2.5	/experiments/knapen_aot/videos/S_ILSVRC2015_train_00743000.mp4	0.0	378.9003429412842	0.09998202323913574
70	216.10577988624573	fix_pre	0		76.0	68.0	2.5	blank	1.0	379.0003249645233	0.6331839561462402
70	216.73084378242493	response	0	2		68.0	2.5	blank	1.0	379.6253888607025	
70	216.73896384239197	movie	1		301.0	68.0	2.5	blank	1.0	379.63350892066956	2.508604049682617
70	219.24756789207458	fix_post	2		12.0	68.0	2.5	blank	1.0	382.1421129703522	0.0997779369354248
71	219.34734582901	fix_pre	0		57.0	69.0	2.5	/experiments/knapen_aot/videos/S_yt-tEzCpMrjOHs_24.mp4	0.0	382.2418909072876	0.4749431610107422
71	219.81412482261658	response	0	2		69.0	2.5	/experiments/knapen_aot/videos/S_yt-tEzCpMrjOHs_24.mp4	0.0	382.70866990089417	
71	219.82228899002075	movie	1		301.0	69.0	2.5	/experiments/knapen_aot/videos/S_yt-tEzCpMrjOHs_24.mp4	0.0	382.71683406829834	2.5086638927459717
71	222.33095288276672	fix_post	2		12.0	69.0	2.5	/experiments/knapen_aot/videos/S_yt-tEzCpMrjOHs_24.mp4	0.0	385.2254979610443	0.0997469425201416
72	222.43069982528687	fix_pre	0		58.0	70.0	2.5	/experiments/knapen_aot/videos/R_S_ILSVRC2015_train_00569002.mp4	0.0	385.32524490356445	0.483396053314209
72	222.90580987930298	response	0	2		70.0	2.5	/experiments/knapen_aot/videos/R_S_ILSVRC2015_train_00569002.mp4	0.0	385.80035495758057	
72	222.91409587860107	movie	1		301.0	70.0	2.5	/experiments/knapen_aot/videos/R_S_ILSVRC2015_train_00569002.mp4	0.0	385.80864095687866	2.5082149505615234
72	225.4223108291626	fix_post	2		12.0	70.0	2.5	/experiments/knapen_aot/videos/R_S_ILSVRC2015_train_00569002.mp4	0.0	388.3168559074402	0.09991812705993652
73	225.52222895622253	fix_pre	0		81.0	71.0	2.5	/experiments/knapen_aot/videos/R_S_pexels-kindel-media-7147375.mp4	0.0	388.4167740345001	0.6750729084014893
73	226.18914890289307	response	0	2		71.0	2.5	/experiments/knapen_aot/videos/R_S_pexels-kindel-media-7147375.mp4	0.0	389.08369398117065	
73	226.19730186462402	movie	1		164.0	71.0	2.5	/experiments/knapen_aot/videos/R_S_pexels-kindel-media-7147375.mp4	0.0	389.0918469429016	2.508923053741455
73	228.70622491836548	fix_post	2		12.0	71.0	2.5	/experiments/knapen_aot/videos/R_S_pexels-kindel-media-7147375.mp4	0.0	391.60076999664307	0.0994119644165039
74	228.80563688278198	fix_pre	0		54.0	72.0	2.5	/experiments/knapen_aot/videos/R_S_yt-qsyDLtXcyHc_8.mp4	0.0	391.70018196105957	0.44994306564331055
74	229.24739480018616	response	0	2		72.0	2.5	/experiments/knapen_aot/videos/R_S_yt-qsyDLtXcyHc_8.mp4	0.0	392.14193987846375	
74	229.2555799484253	movie	1		301.0	72.0	2.5	/experiments/knapen_aot/videos/R_S_yt-qsyDLtXcyHc_8.mp4	0.0	392.1501250267029	2.5083839893341064
74	231.7639639377594	fix_post	2		12.0	72.0	2.5	/experiments/knapen_aot/videos/R_S_yt-qsyDLtXcyHc_8.mp4	0.0	394.658509016037	0.10006904602050781
75	231.8640329837799	fix_pre	0		46.0	73.0	2.5	/experiments/knapen_aot/videos/R_S_ILSVRC2015_train_00373000.mp4	0.0	394.7585780620575	0.38330793380737305
75	232.2390649318695	response	0	2		73.0	2.5	/experiments/knapen_aot/videos/R_S_ILSVRC2015_train_00373000.mp4	0.0	395.1336100101471	
75	232.24734091758728	movie	1		301.0	73.0	2.5	/experiments/knapen_aot/videos/R_S_ILSVRC2015_train_00373000.mp4	0.0	395.14188599586487	2.508305072784424
75	234.7556459903717	fix_post	2		12.0	73.0	2.5	/experiments/knapen_aot/videos/R_S_ILSVRC2015_train_00373000.mp4	0.0	397.6501910686493	0.09996294975280762
76	234.8556089401245	fix_pre	0		77.0	74.0	2.5	/experiments/knapen_aot/videos/R_S_production_ID_4802716.mp4	0.0	397.7501540184021	0.6416659355163574
76	235.48908591270447	response	0	2		74.0	2.5	/experiments/knapen_aot/videos/R_S_production_ID_4802716.mp4	0.0	398.38363099098206	
76	235.49727487564087	movie	1		166.0	74.0	2.5	/experiments/knapen_aot/videos/R_S_production_ID_4802716.mp4	0.0	398.39181995391846	2.508310079574585
76	238.00558495521545	fix_post	2		12.0	74.0	2.5	/experiments/knapen_aot/videos/R_S_production_ID_4802716.mp4	0.0	400.90013003349304	0.10004091262817383
77	238.10562586784363	fix_pre	0		57.0	75.0	2.5	/experiments/knapen_aot/videos/R_S_yt-QiJyOUkuo38_6.mp4	0.0	401.0001709461212	0.47498297691345215
77	238.57238483428955	response	0	2		75.0	2.5	/experiments/knapen_aot/videos/R_S_yt-QiJyOUkuo38_6.mp4	0.0	401.46692991256714	
77	238.58060884475708	movie	1		301.0	75.0	2.5	/experiments/knapen_aot/videos/R_S_yt-QiJyOUkuo38_6.mp4	0.0	401.47515392303467	2.5083489418029785
77	241.08895778656006	fix_post	2		12.0	75.0	2.5	/experiments/knapen_aot/videos/R_S_yt-QiJyOUkuo38_6.mp4	0.0	403.98350286483765	0.10003805160522461
78	241.18899583816528	fix_pre	0		62.0	76.0	2.5	blank	1.0	404.08354091644287	0.5166561603546143
78	241.69744896888733	response	0	2		76.0	2.5	blank	1.0	404.5919940471649	
78	241.7056519985199	movie	1		301.0	76.0	2.5	blank	1.0	404.6001970767975	2.508309841156006
78	244.2139618396759	fix_post	2		12.0	76.0	2.5	blank	1.0	407.1085069179535	0.1000051498413086
79	244.3139669895172	fix_pre	0		80.0	77.0	2.5	/experiments/knapen_aot/videos/S_yt-H5LQq4MPIao_660.mp4	0.0	407.2085120677948	0.6666297912597656
79	244.97238183021545	response	0	2		77.0	2.5	/experiments/knapen_aot/videos/S_yt-H5LQq4MPIao_660.mp4	0.0	407.86692690849304	
79	244.98059678077698	movie	1		301.0	77.0	2.5	/experiments/knapen_aot/videos/S_yt-H5LQq4MPIao_660.mp4	0.0	407.87514185905457	2.508366107940674
79	247.48896288871765	fix_post	2		12.0	77.0	2.5	/experiments/knapen_aot/videos/S_yt-H5LQq4MPIao_660.mp4	0.0	410.38350796699524	0.09998703002929688
80	247.58894991874695	fix_pre	0		93.0	78.0	2.5	/experiments/knapen_aot/videos/S_ILSVRC2015_train_00652001.mp4	0.0	410.48349499702454	0.7749478816986084
80	248.35573983192444	response	0	2		78.0	2.5	/experiments/knapen_aot/videos/S_ILSVRC2015_train_00652001.mp4	0.0	411.250284910202	
80	248.36389780044556	movie	1		301.0	78.0	2.5	/experiments/knapen_aot/videos/S_ILSVRC2015_train_00652001.mp4	0.0	411.25844287872314	2.5084500312805176
80	250.87234783172607	fix_post	2		12.0	78.0	2.5	/experiments/knapen_aot/videos/S_ILSVRC2015_train_00652001.mp4	0.0	413.76689291000366	0.09992504119873047
81	250.9722728729248	fix_pre	0		118.0	79.0	2.5	/experiments/knapen_aot/videos/R_S_yt-YFl_NAWBFAw_166.mp4	0.0	413.8668179512024	0.9832761287689209
81	251.93986988067627	response	0	2		79.0	2.5	/experiments/knapen_aot/videos/R_S_yt-YFl_NAWBFAw_166.mp4	0.0	414.83441495895386	
81	251.95554900169373	movie	1		301.0	79.0	2.5	/experiments/knapen_aot/videos/R_S_yt-YFl_NAWBFAw_166.mp4	0.0	414.8500940799713	2.5083580017089844
81	254.4639070034027	fix_post	2		12.0	79.0	2.5	/experiments/knapen_aot/videos/R_S_yt-YFl_NAWBFAw_166.mp4	0.0	417.3584520816803	0.10001587867736816
82	254.56392288208008	fix_pre	0		61.0	80.0	2.5	/experiments/knapen_aot/videos/R_S_yt-JtR6WZXT2kU_8.mp4	0.0	417.45846796035767	0.5097041130065918
82	255.06414580345154	response	0	2		80.0	2.5	/experiments/knapen_aot/videos/R_S_yt-JtR6WZXT2kU_8.mp4	0.0	417.9586908817291	
82	255.07362699508667	movie	1		301.0	80.0	2.5	/experiments/knapen_aot/videos/R_S_yt-JtR6WZXT2kU_8.mp4	0.0	417.96817207336426	2.5069198608398438
82	257.5805468559265	fix_post	2		12.0	80.0	2.5	/experiments/knapen_aot/videos/R_S_yt-JtR6WZXT2kU_8.mp4	0.0	420.4750919342041	0.10021209716796875
83	257.6807589530945	fix_pre	0		48.0	81.0	2.5	/experiments/knapen_aot/videos/R_S_ILSVRC2015_train_00373000.mp4	0.0	420.57530403137207	0.3997969627380371
83	258.07235288619995	response	0	2		81.0	2.5	/experiments/knapen_aot/videos/R_S_ILSVRC2015_train_00373000.mp4	0.0	420.96689796447754	
83	258.0805559158325	movie	1		301.0	81.0	2.5	/experiments/knapen_aot/videos/R_S_ILSVRC2015_train_00373000.mp4	0.0	420.9751009941101	2.508357048034668
83	260.5889129638672	fix_post	2		12.0	81.0	2.5	/experiments/knapen_aot/videos/R_S_ILSVRC2015_train_00373000.mp4	0.0	423.4834580421448	0.1000518798828125
84	260.68896484375	fix_pre	0		69.0	82.0	2.5	/experiments/knapen_aot/videos/S_ILSVRC2015_train_00469000.mp4	0.0	423.5835099220276	0.5748851299285889
84	261.2557179927826	response	0	2		82.0	2.5	/experiments/knapen_aot/videos/S_ILSVRC2015_train_00469000.mp4	0.0	424.1502630710602	
84	261.2638499736786	movie	1		301.0	82.0	2.5	/experiments/knapen_aot/videos/S_ILSVRC2015_train_00469000.mp4	0.0	424.1583950519562	2.5083680152893066
84	263.7722179889679	fix_post	2		12.0	82.0	2.5	/experiments/knapen_aot/videos/S_ILSVRC2015_train_00469000.mp4	0.0	426.6667630672455	0.0999908447265625
85	263.87220883369446	fix_pre	0		64.0	83.0	2.5	blank	1.0	426.76675391197205	0.5333480834960938
85	264.3972978591919	response	0	2		83.0	2.5	blank	1.0	427.2918429374695	
85	264.40555691719055	movie	1		301.0	83.0	2.5	blank	1.0	427.30010199546814	2.508404016494751
85	266.9139609336853	fix_post	2		12.0	83.0	2.5	blank	1.0	429.8085060119629	0.1000359058380127
87	267.0139968395233	stim	0		347.0					429.9085419178009	2.89148211479187
87	268.37638998031616	response	0	num_enter						431.27093505859375	
87	269.8972690105438	response	0	space						432.7918140888214	
