trial_nr	onset	event_type	phase	response	nr_frames	movie_index	movie_duration	movie_file	blank	onset_abs	duration
0	0.12495088577270508	stim	0		38.0					371.9965748786926	0.3165249824523926
0	0.4261138439178467	response	0	space						372.29773783683777	
1	0.44147586822509766	stim	0		121.0					372.313099861145	1.0078630447387695
1	1.0081348419189453	response	0	space						372.87975883483887	
1	1.257822036743164	response	0	space						373.1294460296631	
1	1.4493389129638672	stim	1		120.0					373.3209629058838	1.0001270771026611
1	1.4502289295196533	response	1	space						373.3218529224396	
1	1.6503958702087402	response	1	space						373.52201986312866	
1	1.8328478336334229	response	1	space						373.70447182655334	
1	1.9994819164276123	response	1	space						373.87110590934753	
1	2.1661570072174072	response	1	space						374.03778100013733	
1	2.366183042526245	response	1	space						374.23780703544617	
2	2.4494659900665283	fix_pre	0		38.0	0.0	2.5	/experiments/knapen_aot/videos/S_yt-Ojy5TMPX8_Q_165.mp4	0.0	374.32108998298645	0.31659889221191406
2	2.7579429149627686	response	0	space		0.0	2.5	/experiments/knapen_aot/videos/S_yt-Ojy5TMPX8_Q_165.mp4	0.0	374.6295669078827	
2	2.7660648822784424	movie	1		300.0	0.0	2.5	/experiments/knapen_aot/videos/S_yt-Ojy5TMPX8_Q_165.mp4	0.0	374.63768887519836	2.5083091259002686
2	3.9614999294281006	response	1	4		0.0	2.5	/experiments/knapen_aot/videos/S_yt-Ojy5TMPX8_Q_165.mp4	0.0	375.833123922348	
2	5.274374008178711	fix_post	2		12.0	0.0	2.5	/experiments/knapen_aot/videos/S_yt-Ojy5TMPX8_Q_165.mp4	0.0	377.14599800109863	0.10024785995483398
3	5.374621868133545	fix_pre	0		43.0	1.0	2.5	/experiments/knapen_aot/videos/R_S_production_ID_3923518.mp4	0.0	377.24624586105347	0.3580460548400879
3	5.72456693649292	response	0	4		1.0	2.5	/experiments/knapen_aot/videos/R_S_production_ID_3923518.mp4	0.0	377.59619092941284	
3	5.732667922973633	movie	1		169.0	1.0	2.5	/experiments/knapen_aot/videos/R_S_production_ID_3923518.mp4	0.0	377.60429191589355	2.5083820819854736
3	8.241050004959106	fix_post	2		12.0	1.0	2.5	/experiments/knapen_aot/videos/R_S_production_ID_3923518.mp4	0.0	380.112673997879	0.09996485710144043
4	8.341014862060547	fix_pre	0		18.0	2.0	2.5	/experiments/knapen_aot/videos/R_S_yt-HFiRYTnMZxE_338.mp4	0.0	380.21263885498047	0.15001416206359863
4	8.475198984146118	response	0	4		2.0	2.5	/experiments/knapen_aot/videos/R_S_yt-HFiRYTnMZxE_338.mp4	0.0	380.34682297706604	
4	8.491029024124146	movie	1		301.0	2.0	2.5	/experiments/knapen_aot/videos/R_S_yt-HFiRYTnMZxE_338.mp4	0.0	380.36265301704407	2.508517026901245
4	10.99954605102539	fix_post	2		12.0	2.0	2.5	/experiments/knapen_aot/videos/R_S_yt-HFiRYTnMZxE_338.mp4	0.0	382.8711700439453	0.09981489181518555
5	11.099360942840576	fix_pre	0		57.0	3.0	2.5	/experiments/knapen_aot/videos/S_comp_C001_C005_PS_v01_SDR_PS_20180925_SDR_2K_AVC.mp4	0.0	382.9709849357605	0.4749488830566406
5	11.566139936447144	response	0	4		3.0	2.5	/experiments/knapen_aot/videos/S_comp_C001_C005_PS_v01_SDR_PS_20180925_SDR_2K_AVC.mp4	0.0	383.43776392936707	
5	11.574309825897217	movie	1		176.0	3.0	2.5	/experiments/knapen_aot/videos/S_comp_C001_C005_PS_v01_SDR_PS_20180925_SDR_2K_AVC.mp4	0.0	383.44593381881714	2.5085160732269287
5	13.681342840194702	response	1	4		3.0	2.5	/experiments/knapen_aot/videos/S_comp_C001_C005_PS_v01_SDR_PS_20180925_SDR_2K_AVC.mp4	0.0	385.5529668331146	
5	14.082825899124146	fix_post	2		12.0	3.0	2.5	/experiments/knapen_aot/videos/S_comp_C001_C005_PS_v01_SDR_PS_20180925_SDR_2K_AVC.mp4	0.0	385.95444989204407	0.09984707832336426
6	14.18267297744751	fix_pre	0		26.0	4.0	2.5	/experiments/knapen_aot/videos/R_S_yt-83nimFMNhrM_131.mp4	0.0	386.05429697036743	0.21669793128967285
6	14.391134977340698	response	0	4		4.0	2.5	/experiments/knapen_aot/videos/R_S_yt-83nimFMNhrM_131.mp4	0.0	386.2627589702606	
6	14.399370908737183	movie	1		301.0	4.0	2.5	/experiments/knapen_aot/videos/R_S_yt-83nimFMNhrM_131.mp4	0.0	386.2709949016571	2.5083329677581787
6	16.617668867111206	response	1	4		4.0	2.5	/experiments/knapen_aot/videos/R_S_yt-83nimFMNhrM_131.mp4	0.0	388.4892928600311	
6	16.90770387649536	fix_post	2		12.0	4.0	2.5	/experiments/knapen_aot/videos/R_S_yt-83nimFMNhrM_131.mp4	0.0	388.7793278694153	0.09986305236816406
7	17.007566928863525	fix_pre	0		78.0	5.0	2.5	/experiments/knapen_aot/videos/R_S_yt-s73Xqkcq9Js_285.mp4	0.0	388.87919092178345	0.6501119136810303
7	17.649346828460693	response	0	4		5.0	2.5	/experiments/knapen_aot/videos/R_S_yt-s73Xqkcq9Js_285.mp4	0.0	389.5209708213806	
7	17.657678842544556	movie	1		301.0	5.0	2.5	/experiments/knapen_aot/videos/R_S_yt-s73Xqkcq9Js_285.mp4	0.0	389.5293028354645	2.5084609985351562
7	20.166139841079712	fix_post	2		12.0	5.0	2.5	/experiments/knapen_aot/videos/R_S_yt-s73Xqkcq9Js_285.mp4	0.0	392.03776383399963	0.09984111785888672
8	20.2659809589386	fix_pre	0		18.0	6.0	2.5	/experiments/knapen_aot/videos/R_S_production_ID_4121250.mp4	0.0	392.1376049518585	0.1500720977783203
8	20.407800912857056	response	0	4		6.0	2.5	/experiments/knapen_aot/videos/R_S_production_ID_4121250.mp4	0.0	392.279424905777	
8	20.41605305671692	movie	1		165.0	6.0	2.5	/experiments/knapen_aot/videos/R_S_production_ID_4121250.mp4	0.0	392.28767704963684	2.5082409381866455
8	22.924293994903564	fix_post	2		12.0	6.0	2.5	/experiments/knapen_aot/videos/R_S_production_ID_4121250.mp4	0.0	394.7959179878235	0.09995484352111816
9	23.024248838424683	fix_pre	0		7.0	7.0	2.5	blank	1.0	394.8958728313446	0.05849099159240723
9	23.074383974075317	response	0	4		7.0	2.5	blank	1.0	394.94600796699524	
9	23.08273983001709	movie	1		301.0	7.0	2.5	blank	1.0	394.954363822937	2.5082762241363525
9	25.591016054153442	fix_post	2		12.0	7.0	2.5	blank	1.0	397.46264004707336	0.10004496574401855
10	25.69106101989746	fix_pre	0		29.0	8.0	2.5	/experiments/knapen_aot/videos/S_Pexels_Videos_2795736.mp4	0.0	397.5626850128174	0.24153399467468262
10	25.92436385154724	response	0	4		8.0	2.5	/experiments/knapen_aot/videos/S_Pexels_Videos_2795736.mp4	0.0	397.79598784446716	
10	25.932595014572144	movie	1		161.0	8.0	2.5	/experiments/knapen_aot/videos/S_Pexels_Videos_2795736.mp4	0.0	397.80421900749207	2.5083329677581787
10	27.464741945266724	response	1	4		8.0	2.5	/experiments/knapen_aot/videos/S_Pexels_Videos_2795736.mp4	0.0	399.33636593818665	
10	28.440927982330322	fix_post	2		12.0	8.0	2.5	/experiments/knapen_aot/videos/S_Pexels_Videos_2795736.mp4	0.0	400.31255197525024	0.10009598731994629
11	28.54102396965027	fix_pre	0		35.0	9.0	2.5	/experiments/knapen_aot/videos/S_wc-PsidKmkEV7Km_14.mp4	0.0	400.4126479625702	0.2916078567504883
11	28.824445009231567	response	0	4		9.0	2.5	/experiments/knapen_aot/videos/S_wc-PsidKmkEV7Km_14.mp4	0.0	400.6960690021515	
11	28.832631826400757	movie	1		163.0	9.0	2.5	/experiments/knapen_aot/videos/S_wc-PsidKmkEV7Km_14.mp4	0.0	400.7042558193207	2.508287191390991
11	31.04944086074829	response	1	4		9.0	2.5	/experiments/knapen_aot/videos/S_wc-PsidKmkEV7Km_14.mp4	0.0	402.9210648536682	
11	31.340919017791748	fix_post	2		12.0	9.0	2.5	/experiments/knapen_aot/videos/S_wc-PsidKmkEV7Km_14.mp4	0.0	403.21254301071167	0.09993600845336914
12	31.440855026245117	fix_pre	0		2.0	10.0	2.5	/experiments/knapen_aot/videos/S_bing-www_dailymotion_com_video_x64hzm7_8.mp4	0.0	403.31247901916504	0.01689887046813965
12	31.450916051864624	response	0	4		10.0	2.5	/experiments/knapen_aot/videos/S_bing-www_dailymotion_com_video_x64hzm7_8.mp4	0.0	403.32254004478455	
12	31.457753896713257	movie	1		165.0	10.0	2.5	/experiments/knapen_aot/videos/S_bing-www_dailymotion_com_video_x64hzm7_8.mp4	0.0	403.3293778896332	2.50822114944458
12	33.72441291809082	response	1	4		10.0	2.5	/experiments/knapen_aot/videos/S_bing-www_dailymotion_com_video_x64hzm7_8.mp4	0.0	405.59603691101074	
12	33.96597504615784	fix_post	2		12.0	10.0	2.5	/experiments/knapen_aot/videos/S_bing-www_dailymotion_com_video_x64hzm7_8.mp4	0.0	405.83759903907776	0.09989094734191895
13	34.065865993499756	fix_pre	0		191.0	11.0	2.5	/experiments/knapen_aot/videos/R_S_yt-BAQ3Xhm_PPE_23.mp4	0.0	405.9374899864197	1.593169927597046
13	35.64184784889221	response	0	4		11.0	2.5	/experiments/knapen_aot/videos/R_S_yt-BAQ3Xhm_PPE_23.mp4	0.0	407.51347184181213	
13	35.6590359210968	movie	1		301.0	11.0	2.5	/experiments/knapen_aot/videos/R_S_yt-BAQ3Xhm_PPE_23.mp4	0.0	407.5306599140167	2.5069339275360107
13	38.16596984863281	fix_post	2		12.0	11.0	2.5	/experiments/knapen_aot/videos/R_S_yt-BAQ3Xhm_PPE_23.mp4	0.0	410.03759384155273	0.0999910831451416
14	38.265960931777954	fix_pre	0		30.0	12.0	2.5	blank	1.0	410.1375849246979	0.24990296363830566
14	38.50769400596619	response	0	4		12.0	2.5	blank	1.0	410.3793179988861	
14	38.51586389541626	movie	1		301.0	12.0	2.5	blank	1.0	410.3874878883362	2.508406162261963
14	41.02427005767822	fix_post	2		12.0	12.0	2.5	blank	1.0	412.89589405059814	0.0999608039855957
15	41.12423086166382	fix_pre	0		38.0	13.0	2.5	/experiments/knapen_aot/videos/R_S_yt-V35ubrbe8gA_86.mp4	0.0	412.99585485458374	0.31667613983154297
15	41.432721853256226	response	0	4		13.0	2.5	/experiments/knapen_aot/videos/R_S_yt-V35ubrbe8gA_86.mp4	0.0	413.30434584617615	
15	41.44090700149536	movie	1		301.0	13.0	2.5	/experiments/knapen_aot/videos/R_S_yt-V35ubrbe8gA_86.mp4	0.0	413.3125309944153	2.508363962173462
15	43.94927096366882	fix_post	2		12.0	13.0	2.5	/experiments/knapen_aot/videos/R_S_yt-V35ubrbe8gA_86.mp4	0.0	415.82089495658875	0.09985494613647461
16	44.0491259098053	fix_pre	0		13.0	14.0	2.5	/experiments/knapen_aot/videos/R_S_comp_LA_A006_C008_PSNK_ALL_LOGOS_v10_SDR_PS_FINAL_20180801_SDR_2K_AVC.mp4	0.0	415.9207499027252	0.10844898223876953
16	44.149364948272705	response	0	4		14.0	2.5	/experiments/knapen_aot/videos/R_S_comp_LA_A006_C008_PSNK_ALL_LOGOS_v10_SDR_PS_FINAL_20180801_SDR_2K_AVC.mp4	0.0	416.0209889411926	
16	44.15757489204407	movie	1		172.0	14.0	2.5	/experiments/knapen_aot/videos/R_S_comp_LA_A006_C008_PSNK_ALL_LOGOS_v10_SDR_PS_FINAL_20180801_SDR_2K_AVC.mp4	0.0	416.029198884964	2.508439064025879
16	46.666013956069946	fix_post	2		12.0	14.0	2.5	/experiments/knapen_aot/videos/R_S_comp_LA_A006_C008_PSNK_ALL_LOGOS_v10_SDR_PS_FINAL_20180801_SDR_2K_AVC.mp4	0.0	418.53763794898987	0.09982109069824219
17	46.76583504676819	fix_pre	0		19.0	15.0	2.5	/experiments/knapen_aot/videos/R_S_pexels-c-technical-6809719.mp4	0.0	418.6374590396881	0.15836691856384277
17	46.915952920913696	response	0	4		15.0	2.5	/experiments/knapen_aot/videos/R_S_pexels-c-technical-6809719.mp4	0.0	418.7875769138336	
17	46.92420196533203	movie	1		187.0	15.0	2.5	/experiments/knapen_aot/videos/R_S_pexels-c-technical-6809719.mp4	0.0	418.79582595825195	2.5082919597625732
17	48.895081996917725	response	1	4		15.0	2.5	/experiments/knapen_aot/videos/R_S_pexels-c-technical-6809719.mp4	0.0	420.76670598983765	
17	49.432493925094604	fix_post	2		12.0	15.0	2.5	/experiments/knapen_aot/videos/R_S_pexels-c-technical-6809719.mp4	0.0	421.3041179180145	0.09993910789489746
18	49.5324330329895	fix_pre	0		32.0	16.0	2.5	/experiments/knapen_aot/videos/R_S_pexels-tima-miroshnichenko-8724308.mp4	0.0	421.4040570259094	0.26671481132507324
18	49.79097390174866	response	0	4		16.0	2.5	/experiments/knapen_aot/videos/R_S_pexels-tima-miroshnichenko-8724308.mp4	0.0	421.6625978946686	
18	49.799147844314575	movie	1		199.0	16.0	2.5	/experiments/knapen_aot/videos/R_S_pexels-tima-miroshnichenko-8724308.mp4	0.0	421.6707718372345	2.508388042449951
18	52.19104504585266	response	1	4		16.0	2.5	/experiments/knapen_aot/videos/R_S_pexels-tima-miroshnichenko-8724308.mp4	0.0	424.0626690387726	
18	52.307535886764526	fix_post	2		12.0	16.0	2.5	/experiments/knapen_aot/videos/R_S_pexels-tima-miroshnichenko-8724308.mp4	0.0	424.17915987968445	0.09999799728393555
19	52.40753388404846	fix_pre	0		51.0	17.0	2.5	/experiments/knapen_aot/videos/R_S_yt-0MB_IYX1fgo_44.mp4	0.0	424.2791578769684	0.4248931407928467
19	52.82426595687866	response	0	4		17.0	2.5	/experiments/knapen_aot/videos/R_S_yt-0MB_IYX1fgo_44.mp4	0.0	424.6958899497986	
19	52.83242702484131	movie	1		301.0	17.0	2.5	/experiments/knapen_aot/videos/R_S_yt-0MB_IYX1fgo_44.mp4	0.0	424.70405101776123	2.5083858966827393
19	55.34081292152405	fix_post	2		12.0	17.0	2.5	/experiments/knapen_aot/videos/R_S_yt-0MB_IYX1fgo_44.mp4	0.0	427.21243691444397	0.09999799728393555
20	55.44081091880798	fix_pre	0		22.0	18.0	2.5	/experiments/knapen_aot/videos/S_yt-5MyvZYFlc9g_125.mp4	0.0	427.3124349117279	0.1833200454711914
20	55.61591601371765	response	0	4		18.0	2.5	/experiments/knapen_aot/videos/S_yt-5MyvZYFlc9g_125.mp4	0.0	427.4875400066376	
20	55.624130964279175	movie	1		301.0	18.0	2.5	/experiments/knapen_aot/videos/S_yt-5MyvZYFlc9g_125.mp4	0.0	427.4957549571991	2.5083539485931396
20	56.200685024261475	response	1	4		18.0	2.5	/experiments/knapen_aot/videos/S_yt-5MyvZYFlc9g_125.mp4	0.0	428.0723090171814	
20	57.210829973220825	response	1	4		18.0	2.5	/experiments/knapen_aot/videos/S_yt-5MyvZYFlc9g_125.mp4	0.0	429.08245396614075	
20	58.132484912872314	fix_post	2		12.0	18.0	2.5	/experiments/knapen_aot/videos/S_yt-5MyvZYFlc9g_125.mp4	0.0	430.00410890579224	0.10000300407409668
20	58.18273401260376	response	2	4		18.0	2.5	/experiments/knapen_aot/videos/S_yt-5MyvZYFlc9g_125.mp4	0.0	430.0543580055237	
21	58.23248791694641	fix_pre	0		130.0	19.0	2.5	/experiments/knapen_aot/videos/R_S_yt-FLMdajcbjcg_35.mp4	0.0	430.10411190986633	1.0833020210266113
21	59.30005192756653	response	0	4		19.0	2.5	/experiments/knapen_aot/videos/R_S_yt-FLMdajcbjcg_35.mp4	0.0	431.17167592048645	
21	59.31578993797302	movie	1		301.0	19.0	2.5	/experiments/knapen_aot/videos/R_S_yt-FLMdajcbjcg_35.mp4	0.0	431.18741393089294	2.5083439350128174
21	61.82413387298584	fix_post	2		12.0	19.0	2.5	/experiments/knapen_aot/videos/R_S_yt-FLMdajcbjcg_35.mp4	0.0	433.69575786590576	0.09996414184570312
22	61.92409801483154	fix_pre	0		28.0	20.0	2.5	/experiments/knapen_aot/videos/R_S_yt-d5jBQ-LOW2I_17.mp4	0.0	433.79572200775146	0.2333078384399414
22	62.149224042892456	response	0	4		20.0	2.5	/experiments/knapen_aot/videos/R_S_yt-d5jBQ-LOW2I_17.mp4	0.0	434.0208480358124	
22	62.157405853271484	movie	1		301.0	20.0	2.5	/experiments/knapen_aot/videos/R_S_yt-d5jBQ-LOW2I_17.mp4	0.0	434.0290298461914	2.5083861351013184
22	64.6657919883728	fix_post	2		12.0	20.0	2.5	/experiments/knapen_aot/videos/R_S_yt-d5jBQ-LOW2I_17.mp4	0.0	436.5374159812927	0.09994888305664062
23	64.76574087142944	fix_pre	0		31.0	21.0	2.5	blank	1.0	436.63736486434937	0.2583200931549072
23	65.0158998966217	response	0	4		21.0	2.5	blank	1.0	436.8875238895416	
23	65.02406096458435	movie	1		301.0	21.0	2.5	blank	1.0	436.8956849575043	2.5083229541778564
23	67.14082789421082	response	1	4		21.0	2.5	blank	1.0	439.01245188713074	
23	67.5323839187622	fix_post	2		12.0	21.0	2.5	blank	1.0	439.40400791168213	0.09995508193969727
24	67.6323390007019	fix_pre	0		24.0	22.0	2.5	/experiments/knapen_aot/videos/S_pexels-mart-production-7698911_1.mp4	0.0	439.5039629936218	0.2000138759613037
24	67.82416796684265	response	0	4		22.0	2.5	/experiments/knapen_aot/videos/S_pexels-mart-production-7698911_1.mp4	0.0	439.6957919597626	
24	67.83235287666321	movie	1		201.0	22.0	2.5	/experiments/knapen_aot/videos/S_pexels-mart-production-7698911_1.mp4	0.0	439.70397686958313	2.5083491802215576
24	70.3075499534607	response	1	4		22.0	2.5	/experiments/knapen_aot/videos/S_pexels-mart-production-7698911_1.mp4	0.0	442.1791739463806	
24	70.34070205688477	fix_post	2		12.0	22.0	2.5	/experiments/knapen_aot/videos/S_pexels-mart-production-7698911_1.mp4	0.0	442.2123260498047	0.10004091262817383
25	70.44074296951294	fix_pre	0		37.0	23.0	2.5	/experiments/knapen_aot/videos/R_S_yt-7K5X1G7Cpls_965.mp4	0.0	442.31236696243286	0.30825304985046387
25	70.74087405204773	response	0	4		23.0	2.5	/experiments/knapen_aot/videos/R_S_yt-7K5X1G7Cpls_965.mp4	0.0	442.61249804496765	
25	70.7489960193634	movie	1		301.0	23.0	2.5	/experiments/knapen_aot/videos/R_S_yt-7K5X1G7Cpls_965.mp4	0.0	442.6206200122833	2.508359909057617
25	73.25735592842102	fix_post	2		12.0	23.0	2.5	/experiments/knapen_aot/videos/R_S_yt-7K5X1G7Cpls_965.mp4	0.0	445.12897992134094	0.10008096694946289
26	73.35743689537048	fix_pre	0		38.0	24.0	2.5	/experiments/knapen_aot/videos/R_S_yt-lazG9z4VQAw_99.mp4	0.0	445.2290608882904	0.3166649341583252
26	73.66594004631042	response	0	4		24.0	2.5	/experiments/knapen_aot/videos/R_S_yt-lazG9z4VQAw_99.mp4	0.0	445.53756403923035	
26	73.67410182952881	movie	1		301.0	24.0	2.5	/experiments/knapen_aot/videos/R_S_yt-lazG9z4VQAw_99.mp4	0.0	445.54572582244873	2.5082859992980957
26	76.1823878288269	fix_post	2		12.0	24.0	2.5	/experiments/knapen_aot/videos/R_S_yt-lazG9z4VQAw_99.mp4	0.0	448.0540118217468	0.10001707077026367
27	76.28240489959717	fix_pre	0		29.0	25.0	2.5	/experiments/knapen_aot/videos/S_yt-vQGD-rJyMw4_166.mp4	0.0	448.1540288925171	0.2500309944152832
27	76.51588892936707	response	0	4		25.0	2.5	/experiments/knapen_aot/videos/S_yt-vQGD-rJyMw4_166.mp4	0.0	448.387512922287	
27	76.53243589401245	movie	1		300.0	25.0	2.5	/experiments/knapen_aot/videos/S_yt-vQGD-rJyMw4_166.mp4	0.0	448.4040598869324	2.4999990463256836
27	79.03243494033813	fix_post	2		12.0	25.0	2.5	/experiments/knapen_aot/videos/S_yt-vQGD-rJyMw4_166.mp4	0.0	450.90405893325806	0.10001397132873535
28	79.13244891166687	fix_pre	0		6.0	26.0	2.5	/experiments/knapen_aot/videos/S_yt-J_FnFAl1uL0_143.mp4	0.0	451.0040729045868	0.04997611045837402
28	79.17423486709595	response	0	4		26.0	2.5	/experiments/knapen_aot/videos/S_yt-J_FnFAl1uL0_143.mp4	0.0	451.04585886001587	
28	79.18242502212524	movie	1		301.0	26.0	2.5	/experiments/knapen_aot/videos/S_yt-J_FnFAl1uL0_143.mp4	0.0	451.05404901504517	2.5083119869232178
28	80.40879702568054	response	1	4		26.0	2.5	/experiments/knapen_aot/videos/S_yt-J_FnFAl1uL0_143.mp4	0.0	452.28042101860046	
28	81.69073700904846	fix_post	2		12.0	26.0	2.5	/experiments/knapen_aot/videos/S_yt-J_FnFAl1uL0_143.mp4	0.0	453.5623610019684	0.10003805160522461
29	81.79077506065369	fix_pre	0		30.0	27.0	2.5	blank	1.0	453.6623990535736	0.2499828338623047
29	82.03249502182007	response	0	4		27.0	2.5	blank	1.0	453.90411901474	
29	82.04075789451599	movie	1		301.0	27.0	2.5	blank	1.0	453.9123818874359	2.5083060264587402
29	83.22410798072815	response	1	4		27.0	2.5	blank	1.0	455.09573197364807	
29	84.54906392097473	fix_post	2		12.0	27.0	2.5	blank	1.0	456.42068791389465	0.09999394416809082
30	84.64905786514282	fix_pre	0		37.0	28.0	2.5	/experiments/knapen_aot/videos/S_yt-4r-oovk9JWg_85.mp4	0.0	456.52068185806274	0.3083360195159912
30	84.94915390014648	response	0	4		28.0	2.5	/experiments/knapen_aot/videos/S_yt-4r-oovk9JWg_85.mp4	0.0	456.8207778930664	
30	84.95739388465881	movie	1		301.0	28.0	2.5	/experiments/knapen_aot/videos/S_yt-4r-oovk9JWg_85.mp4	0.0	456.82901787757874	2.5083420276641846
30	87.465735912323	fix_post	2		12.0	28.0	2.5	/experiments/knapen_aot/videos/S_yt-4r-oovk9JWg_85.mp4	0.0	459.3373599052429	0.09993410110473633
31	87.56567001342773	fix_pre	0		38.0	29.0	2.5	/experiments/knapen_aot/videos/S_video-12.mp4	0.0	459.43729400634766	0.31671786308288574
31	87.87417697906494	response	0	4		29.0	2.5	/experiments/knapen_aot/videos/S_video-12.mp4	0.0	459.74580097198486	
31	87.88238787651062	movie	1		165.0	29.0	2.5	/experiments/knapen_aot/videos/S_video-12.mp4	0.0	459.75401186943054	2.5082621574401855
31	90.3906500339508	fix_post	2		12.0	29.0	2.5	/experiments/knapen_aot/videos/S_video-12.mp4	0.0	462.2622740268707	0.10006284713745117
32	90.49071288108826	fix_pre	0		4.0	30.0	2.5	/experiments/knapen_aot/videos/S_yt-V35ubrbe8gA_86.mp4	0.0	462.3623368740082	0.03333616256713867
32	90.51585698127747	response	0	4		30.0	2.5	/experiments/knapen_aot/videos/S_yt-V35ubrbe8gA_86.mp4	0.0	462.3874809741974	
32	90.5240490436554	movie	1		301.0	30.0	2.5	/experiments/knapen_aot/videos/S_yt-V35ubrbe8gA_86.mp4	0.0	462.3956730365753	2.5083348751068115
32	93.0323839187622	fix_post	2		12.0	30.0	2.5	/experiments/knapen_aot/videos/S_yt-V35ubrbe8gA_86.mp4	0.0	464.90400791168213	0.10000109672546387
33	93.13238501548767	fix_pre	0		26.0	31.0	2.5	/experiments/knapen_aot/videos/R_S_yt-t8NfuFA7OlM_26.mp4	0.0	465.0040090084076	0.21663689613342285
33	93.34080004692078	response	0	4		31.0	2.5	/experiments/knapen_aot/videos/R_S_yt-t8NfuFA7OlM_26.mp4	0.0	465.2124240398407	
33	93.3490219116211	movie	1		301.0	31.0	2.5	/experiments/knapen_aot/videos/R_S_yt-t8NfuFA7OlM_26.mp4	0.0	465.220645904541	2.508362054824829
33	95.85738396644592	fix_post	2		12.0	31.0	2.5	/experiments/knapen_aot/videos/R_S_yt-t8NfuFA7OlM_26.mp4	0.0	467.72900795936584	0.09993600845336914
34	95.95731997489929	fix_pre	0		59.0	32.0	2.5	/experiments/knapen_aot/videos/S_wc-8bTJmWfuVyJ4_8.mp4	0.0	467.8289439678192	0.4927940368652344
34	96.44083404541016	response	0	4		32.0	2.5	/experiments/knapen_aot/videos/S_wc-8bTJmWfuVyJ4_8.mp4	0.0	468.3124580383301	
34	96.45011401176453	movie	1		169.0	32.0	2.5	/experiments/knapen_aot/videos/S_wc-8bTJmWfuVyJ4_8.mp4	0.0	468.32173800468445	2.50718092918396
34	98.95729494094849	fix_post	2		12.0	32.0	2.5	/experiments/knapen_aot/videos/S_wc-8bTJmWfuVyJ4_8.mp4	0.0	470.8289189338684	0.09997010231018066
35	99.05726504325867	fix_pre	0		55.0	33.0	2.5	/experiments/knapen_aot/videos/S_yt-G_eNNzNB-hU_1.mp4	0.0	470.9288890361786	0.45841479301452637
35	99.50743794441223	response	0	4		33.0	2.5	/experiments/knapen_aot/videos/S_yt-G_eNNzNB-hU_1.mp4	0.0	471.37906193733215	
35	99.5156798362732	movie	1		301.0	33.0	2.5	/experiments/knapen_aot/videos/S_yt-G_eNNzNB-hU_1.mp4	0.0	471.3873038291931	2.5082449913024902
35	102.02392482757568	fix_post	2		12.0	33.0	2.5	/experiments/knapen_aot/videos/S_yt-G_eNNzNB-hU_1.mp4	0.0	473.8955488204956	0.10005807876586914
36	102.12398290634155	fix_pre	0		123.0	34.0	2.5	/experiments/knapen_aot/videos/S_yt-GBt59U0KUR0_6.mp4	0.0	473.9956068992615	1.0249559879302979
36	103.14076399803162	response	0	4		34.0	2.5	/experiments/knapen_aot/videos/S_yt-GBt59U0KUR0_6.mp4	0.0	475.01238799095154	
36	103.14893889427185	movie	1		301.0	34.0	2.5	/experiments/knapen_aot/videos/S_yt-GBt59U0KUR0_6.mp4	0.0	475.0205628871918	2.508280038833618
36	105.65721893310547	fix_post	2		12.0	34.0	2.5	/experiments/knapen_aot/videos/S_yt-GBt59U0KUR0_6.mp4	0.0	477.5288429260254	0.10001206398010254
37	105.75723099708557	fix_pre	0		97.0	35.0	2.5	blank	1.0	477.6288549900055	0.8083009719848633
37	106.55740904808044	response	0	4		35.0	2.5	blank	1.0	478.42903304100037	
37	106.56553196907043	movie	1		301.0	35.0	2.5	blank	1.0	478.43715596199036	2.5083370208740234
37	107.04901790618896	response	1	4		35.0	2.5	blank	1.0	478.9206418991089	
37	108.83235597610474	response	1	4		35.0	2.5	blank	1.0	480.70397996902466	
37	109.07386898994446	fix_post	2		12.0	35.0	2.5	blank	1.0	480.9454929828644	0.1000819206237793
38	109.17395091056824	fix_pre	0		28.0	36.0	2.5	/experiments/knapen_aot/videos/S_yt-y2RUPYKfBZs_12.mp4	0.0	481.04557490348816	0.23428010940551758
38	109.3990068435669	response	0	4		36.0	2.5	/experiments/knapen_aot/videos/S_yt-y2RUPYKfBZs_12.mp4	0.0	481.2706308364868	
38	109.40823101997375	movie	1		301.0	36.0	2.5	/experiments/knapen_aot/videos/S_yt-y2RUPYKfBZs_12.mp4	0.0	481.2798550128937	2.507347822189331
38	111.91557884216309	fix_post	2		12.0	36.0	2.5	/experiments/knapen_aot/videos/S_yt-y2RUPYKfBZs_12.mp4	0.0	483.787202835083	0.09998011589050293
39	112.01555895805359	fix_pre	0		20.0	37.0	2.5	/experiments/knapen_aot/videos/S_yt-thmqgEV-sYY_91.mp4	0.0	483.8871829509735	0.16665196418762207
39	112.17400598526001	response	0	4		37.0	2.5	/experiments/knapen_aot/videos/S_yt-thmqgEV-sYY_91.mp4	0.0	484.04562997817993	
39	112.18221092224121	movie	1		298.0	37.0	2.5	/experiments/knapen_aot/videos/S_yt-thmqgEV-sYY_91.mp4	0.0	484.05383491516113	2.508345127105713
39	114.08233499526978	response	1	4		37.0	2.5	/experiments/knapen_aot/videos/S_yt-thmqgEV-sYY_91.mp4	0.0	485.9539589881897	
39	114.69055604934692	fix_post	2		12.0	37.0	2.5	/experiments/knapen_aot/videos/S_yt-thmqgEV-sYY_91.mp4	0.0	486.56218004226685	0.10001897811889648
40	114.79057502746582	fix_pre	0		192.0	38.0	2.5	/experiments/knapen_aot/videos/S_yt-kNZUFy3cbjQ_9.mp4	0.0	486.66219902038574	1.5999360084533691
40	116.38236999511719	response	0	4		38.0	2.5	/experiments/knapen_aot/videos/S_yt-kNZUFy3cbjQ_9.mp4	0.0	488.2539939880371	
40	116.39051103591919	movie	1		301.0	38.0	2.5	/experiments/knapen_aot/videos/S_yt-kNZUFy3cbjQ_9.mp4	0.0	488.2621350288391	2.508424997329712
40	116.95007705688477	response	1	4		38.0	2.5	/experiments/knapen_aot/videos/S_yt-kNZUFy3cbjQ_9.mp4	0.0	488.8217010498047	
40	118.8989360332489	fix_post	2		12.0	38.0	2.5	/experiments/knapen_aot/videos/S_yt-kNZUFy3cbjQ_9.mp4	0.0	490.7705600261688	0.0999758243560791
41	118.99891185760498	fix_pre	0		20.0	39.0	2.5	/experiments/knapen_aot/videos/R_S_yt-y2RUPYKfBZs_12.mp4	0.0	490.8705358505249	0.1665949821472168
41	119.1572699546814	response	0	4		39.0	2.5	/experiments/knapen_aot/videos/R_S_yt-y2RUPYKfBZs_12.mp4	0.0	491.0288939476013	
41	119.1655068397522	movie	1		301.0	39.0	2.5	/experiments/knapen_aot/videos/R_S_yt-y2RUPYKfBZs_12.mp4	0.0	491.0371308326721	2.5083889961242676
41	121.67389583587646	fix_post	2		12.0	39.0	2.5	/experiments/knapen_aot/videos/R_S_yt-y2RUPYKfBZs_12.mp4	0.0	493.5455198287964	0.09991717338562012
42	121.77381300926208	fix_pre	0		87.0	40.0	2.5	/experiments/knapen_aot/videos/R_S_ILSVRC2015_train_00599000.mp4	0.0	493.645437002182	0.7250080108642578
42	122.48312091827393	response	0	4		40.0	2.5	/experiments/knapen_aot/videos/R_S_ILSVRC2015_train_00599000.mp4	0.0	494.35474491119385	
42	122.49882102012634	movie	1		301.0	40.0	2.5	/experiments/knapen_aot/videos/R_S_ILSVRC2015_train_00599000.mp4	0.0	494.37044501304626	2.5086100101470947
42	125.00743103027344	fix_post	2		12.0	40.0	2.5	/experiments/knapen_aot/videos/R_S_ILSVRC2015_train_00599000.mp4	0.0	496.87905502319336	0.09975194931030273
43	125.10718297958374	fix_pre	0		7.0	41.0	2.5	blank	1.0	496.97880697250366	0.05832505226135254
43	125.15732884407043	response	0	4		41.0	2.5	blank	1.0	497.02895283699036	
43	125.16550803184509	movie	1		301.0	41.0	2.5	blank	1.0	497.037132024765	2.5083258152008057
43	127.6738338470459	fix_post	2		12.0	41.0	2.5	blank	1.0	499.5454578399658	0.10013508796691895
44	127.77396893501282	fix_pre	0		28.0	42.0	2.5	/experiments/knapen_aot/videos/S_yt-FzMLLmcD1mE_19.mp4	0.0	499.64559292793274	0.23319005966186523
44	127.99887299537659	response	0	4		42.0	2.5	/experiments/knapen_aot/videos/S_yt-FzMLLmcD1mE_19.mp4	0.0	499.8704969882965	
44	128.00715899467468	movie	1		300.0	42.0	2.5	/experiments/knapen_aot/videos/S_yt-FzMLLmcD1mE_19.mp4	0.0	499.8787829875946	2.508328914642334
44	130.51548790931702	fix_post	2		12.0	42.0	2.5	/experiments/knapen_aot/videos/S_yt-FzMLLmcD1mE_19.mp4	0.0	502.38711190223694	0.09994697570800781
45	130.61543488502502	fix_pre	0		64.0	43.0	2.5	/experiments/knapen_aot/videos/R_S_yt-QXsedpZh800_275.mp4	0.0	502.48705887794495	0.5333380699157715
45	131.1409628391266	response	0	4		43.0	2.5	/experiments/knapen_aot/videos/R_S_yt-QXsedpZh800_275.mp4	0.0	503.0125868320465	
45	131.1487729549408	movie	1		301.0	43.0	2.5	/experiments/knapen_aot/videos/R_S_yt-QXsedpZh800_275.mp4	0.0	503.0203969478607	2.5083060264587402
45	131.6322479248047	response	1	4		43.0	2.5	/experiments/knapen_aot/videos/R_S_yt-QXsedpZh800_275.mp4	0.0	503.5038719177246	
45	133.65707898139954	fix_post	2		12.0	43.0	2.5	/experiments/knapen_aot/videos/R_S_yt-QXsedpZh800_275.mp4	0.0	505.52870297431946	0.10002684593200684
46	133.75710582733154	fix_pre	0		12.0	44.0	2.5	/experiments/knapen_aot/videos/R_S_yt-8vm83GUgYxI_1.mp4	0.0	505.62872982025146	0.0999610424041748
46	133.84894394874573	response	0	4		44.0	2.5	/experiments/knapen_aot/videos/R_S_yt-8vm83GUgYxI_1.mp4	0.0	505.72056794166565	
46	133.85706686973572	movie	1		301.0	44.0	2.5	/experiments/knapen_aot/videos/R_S_yt-8vm83GUgYxI_1.mp4	0.0	505.72869086265564	2.5084121227264404
46	136.36547899246216	fix_post	2		12.0	44.0	2.5	/experiments/knapen_aot/videos/R_S_yt-8vm83GUgYxI_1.mp4	0.0	508.2371029853821	0.10001993179321289
47	136.46549892425537	fix_pre	0		77.0	45.0	2.5	/experiments/knapen_aot/videos/S_yt-I2n2eo2zoZs_94.mp4	0.0	508.3371229171753	0.6416311264038086
47	137.09900903701782	response	0	4		45.0	2.5	/experiments/knapen_aot/videos/S_yt-I2n2eo2zoZs_94.mp4	0.0	508.97063302993774	
47	137.10713005065918	movie	1		301.0	45.0	2.5	/experiments/knapen_aot/videos/S_yt-I2n2eo2zoZs_94.mp4	0.0	508.9787540435791	2.50826096534729
47	139.04060983657837	response	1	4		45.0	2.5	/experiments/knapen_aot/videos/S_yt-I2n2eo2zoZs_94.mp4	0.0	510.9122338294983	
47	139.61539101600647	fix_post	2		12.0	45.0	2.5	/experiments/knapen_aot/videos/S_yt-I2n2eo2zoZs_94.mp4	0.0	511.4870150089264	0.10001182556152344
48	139.715402841568	fix_pre	0		39.0	46.0	2.5	/experiments/knapen_aot/videos/S_ILSVRC2015_train_00067003.mp4	0.0	511.5870268344879	0.3250391483306885
48	140.03217482566833	response	0	4		46.0	2.5	/experiments/knapen_aot/videos/S_ILSVRC2015_train_00067003.mp4	0.0	511.90379881858826	
48	140.04044198989868	movie	1		301.0	46.0	2.5	/experiments/knapen_aot/videos/S_ILSVRC2015_train_00067003.mp4	0.0	511.9120659828186	2.508375883102417
48	140.96564197540283	response	1	4		46.0	2.5	/experiments/knapen_aot/videos/S_ILSVRC2015_train_00067003.mp4	0.0	512.8372659683228	
48	142.5488178730011	fix_post	2		12.0	46.0	2.5	/experiments/knapen_aot/videos/S_ILSVRC2015_train_00067003.mp4	0.0	514.420441865921	0.10012197494506836
49	142.64893984794617	fix_pre	0		141.0	47.0	2.5	/experiments/knapen_aot/videos/R_S_yt-nfDPFHUDq8g_136.mp4	0.0	514.5205638408661	1.175706148147583
49	143.8156280517578	response	0	4		47.0	2.5	/experiments/knapen_aot/videos/R_S_yt-nfDPFHUDq8g_136.mp4	0.0	515.6872520446777	
49	143.82464599609375	movie	1		301.0	47.0	2.5	/experiments/knapen_aot/videos/R_S_yt-nfDPFHUDq8g_136.mp4	0.0	515.6962699890137	2.507441997528076
49	146.33208799362183	fix_post	2		12.0	47.0	2.5	/experiments/knapen_aot/videos/R_S_yt-nfDPFHUDq8g_136.mp4	0.0	518.2037119865417	0.10001087188720703
50	146.43209886550903	fix_pre	0		23.0	48.0	2.5	blank	1.0	518.303722858429	0.19163107872009277
50	146.61556696891785	response	0	4		48.0	2.5	blank	1.0	518.4871909618378	
50	146.62372994422913	movie	1		301.0	48.0	2.5	blank	1.0	518.495353937149	2.508354902267456
50	148.848778963089	response	1	4		48.0	2.5	blank	1.0	520.7204029560089	
50	149.13208484649658	fix_post	2		12.0	48.0	2.5	blank	1.0	521.0037088394165	0.09992313385009766
51	149.23200798034668	fix_pre	0		24.0	49.0	2.5	/experiments/knapen_aot/videos/S_yt-8RmEimCI80g_35.mp4	0.0	521.1036319732666	0.20002007484436035
51	149.42395401000977	response	0	4		49.0	2.5	/experiments/knapen_aot/videos/S_yt-8RmEimCI80g_35.mp4	0.0	521.2955780029297	
51	149.43202805519104	movie	1		301.0	49.0	2.5	/experiments/knapen_aot/videos/S_yt-8RmEimCI80g_35.mp4	0.0	521.303652048111	2.5083978176116943
51	151.94042587280273	fix_post	2		12.0	49.0	2.5	/experiments/knapen_aot/videos/S_yt-8RmEimCI80g_35.mp4	0.0	523.8120498657227	0.10001301765441895
52	152.04043889045715	fix_pre	0		127.0	50.0	2.5	/experiments/knapen_aot/videos/R_S_yt-9NV8zv2Sdq4_30.mp4	0.0	523.9120628833771	1.058305025100708
52	153.0905158519745	response	0	4		50.0	2.5	/experiments/knapen_aot/videos/R_S_yt-9NV8zv2Sdq4_30.mp4	0.0	524.9621398448944	
52	153.09874391555786	movie	1		300.0	50.0	2.5	/experiments/knapen_aot/videos/R_S_yt-9NV8zv2Sdq4_30.mp4	0.0	524.9703679084778	2.5083141326904297
52	155.6070580482483	fix_post	2		12.0	50.0	2.5	/experiments/knapen_aot/videos/R_S_yt-9NV8zv2Sdq4_30.mp4	0.0	527.4786820411682	0.10006999969482422
53	155.70712804794312	fix_pre	0		22.0	51.0	2.5	/experiments/knapen_aot/videos/R_S_yt-bmGWhOCsvJo_128.mp4	0.0	527.578752040863	0.18328094482421875
53	155.88223600387573	response	0	4		51.0	2.5	/experiments/knapen_aot/videos/R_S_yt-bmGWhOCsvJo_128.mp4	0.0	527.7538599967957	
53	155.89040899276733	movie	1		301.0	51.0	2.5	/experiments/knapen_aot/videos/R_S_yt-bmGWhOCsvJo_128.mp4	0.0	527.7620329856873	2.5083189010620117
53	158.39872789382935	fix_post	2		12.0	51.0	2.5	/experiments/knapen_aot/videos/R_S_yt-bmGWhOCsvJo_128.mp4	0.0	530.2703518867493	0.09991693496704102
54	158.4986448287964	fix_pre	0		37.0	52.0	2.5	/experiments/knapen_aot/videos/S_yt-yJmHtBFyhH4_15.mp4	0.0	530.3702688217163	0.30840206146240234
54	158.79125499725342	response	0	4		52.0	2.5	/experiments/knapen_aot/videos/S_yt-yJmHtBFyhH4_15.mp4	0.0	530.6628789901733	
54	158.8070468902588	movie	1		301.0	52.0	2.5	/experiments/knapen_aot/videos/S_yt-yJmHtBFyhH4_15.mp4	0.0	530.6786708831787	2.5082449913024902
54	161.31529188156128	fix_post	2		12.0	52.0	2.5	/experiments/knapen_aot/videos/S_yt-yJmHtBFyhH4_15.mp4	0.0	533.1869158744812	0.10003399848937988
55	161.41532588005066	fix_pre	0		48.0	53.0	2.5	/experiments/knapen_aot/videos/S_yt-ZE8Af60eNsI_15.mp4	0.0	533.2869498729706	0.40001606941223145
55	161.79960083961487	response	0	4		53.0	2.5	/experiments/knapen_aot/videos/S_yt-ZE8Af60eNsI_15.mp4	0.0	533.6712248325348	
55	161.8153419494629	movie	1		301.0	53.0	2.5	/experiments/knapen_aot/videos/S_yt-ZE8Af60eNsI_15.mp4	0.0	533.6869659423828	2.508354902267456
55	164.32369685173035	fix_post	2		12.0	53.0	2.5	/experiments/knapen_aot/videos/S_yt-ZE8Af60eNsI_15.mp4	0.0	536.1953208446503	0.09998202323913574
56	164.42367887496948	fix_pre	0		102.0	54.0	2.5	/experiments/knapen_aot/videos/R_S_yt-J_FnFAl1uL0_143.mp4	0.0	536.2953028678894	0.8499159812927246
56	165.26544785499573	response	0	4		54.0	2.5	/experiments/knapen_aot/videos/R_S_yt-J_FnFAl1uL0_143.mp4	0.0	537.1370718479156	
56	165.2735948562622	movie	1		301.0	54.0	2.5	/experiments/knapen_aot/videos/R_S_yt-J_FnFAl1uL0_143.mp4	0.0	537.1452188491821	2.5084609985351562
56	167.78205585479736	fix_post	2		12.0	54.0	2.5	/experiments/knapen_aot/videos/R_S_yt-J_FnFAl1uL0_143.mp4	0.0	539.6536798477173	0.10001611709594727
57	167.8820719718933	fix_pre	0		22.0	55.0	2.5	/experiments/knapen_aot/videos/R_S_comp_LA_A008_C004_ALTB_ED_FROM_FLAME_RETIME_v46_SDR_PS_20180917_SDR_2K_AVC.mp4	0.0	539.7536959648132	0.18321490287780762
57	168.04955291748047	response	0	4		55.0	2.5	/experiments/knapen_aot/videos/R_S_comp_LA_A008_C004_ALTB_ED_FROM_FLAME_RETIME_v46_SDR_PS_20180917_SDR_2K_AVC.mp4	0.0	539.9211769104004	
57	168.06528687477112	movie	1		171.0	55.0	2.5	/experiments/knapen_aot/videos/R_S_comp_LA_A008_C004_ALTB_ED_FROM_FLAME_RETIME_v46_SDR_PS_20180917_SDR_2K_AVC.mp4	0.0	539.936910867691	2.5083541870117188
57	169.99886894226074	response	1	4		55.0	2.5	/experiments/knapen_aot/videos/R_S_comp_LA_A008_C004_ALTB_ED_FROM_FLAME_RETIME_v46_SDR_PS_20180917_SDR_2K_AVC.mp4	0.0	541.8704929351807	
57	170.57364106178284	fix_post	2		12.0	55.0	2.5	/experiments/knapen_aot/videos/R_S_comp_LA_A008_C004_ALTB_ED_FROM_FLAME_RETIME_v46_SDR_PS_20180917_SDR_2K_AVC.mp4	0.0	542.4452650547028	0.10013484954833984
58	170.67377591133118	fix_pre	0		172.0	56.0	2.5	blank	1.0	542.5453999042511	1.43324613571167
58	172.0988450050354	response	0	4		56.0	2.5	blank	1.0	543.9704689979553	
58	172.10702204704285	movie	1		301.0	56.0	2.5	blank	1.0	543.9786460399628	2.5084598064422607
58	174.6154818534851	fix_post	2		12.0	56.0	2.5	blank	1.0	546.487105846405	0.09987807273864746
59	174.71535992622375	fix_pre	0		33.0	57.0	2.5	/experiments/knapen_aot/videos/S_production_ID_4057155.mp4	0.0	546.5869839191437	0.27567410469055176
59	174.98218297958374	response	0	4		57.0	2.5	/experiments/knapen_aot/videos/S_production_ID_4057155.mp4	0.0	546.8538069725037	
59	174.9910340309143	movie	1		195.0	57.0	2.5	/experiments/knapen_aot/videos/S_production_ID_4057155.mp4	0.0	546.8626580238342	2.5076138973236084
59	177.49864792823792	fix_post	2		12.0	57.0	2.5	/experiments/knapen_aot/videos/S_production_ID_4057155.mp4	0.0	549.3702719211578	0.10001897811889648
60	177.5986669063568	fix_pre	0		48.0	58.0	2.5	/experiments/knapen_aot/videos/S_production_ID_4707837.mp4	0.0	549.4702908992767	0.40000414848327637
60	177.99039006233215	response	0	4		58.0	2.5	/experiments/knapen_aot/videos/S_production_ID_4707837.mp4	0.0	549.8620140552521	
60	177.9986710548401	movie	1		167.0	58.0	2.5	/experiments/knapen_aot/videos/S_production_ID_4707837.mp4	0.0	549.87029504776	2.508302927017212
60	180.5069739818573	fix_post	2		12.0	58.0	2.5	/experiments/knapen_aot/videos/S_production_ID_4707837.mp4	0.0	552.3785979747772	0.1000208854675293
61	180.60699486732483	fix_pre	0		44.0	59.0	2.5	/experiments/knapen_aot/videos/R_S_82eJpVKGnC0_188.mp4	0.0	552.4786188602448	0.3666410446166992
61	180.95795702934265	response	0	4		59.0	2.5	/experiments/knapen_aot/videos/R_S_82eJpVKGnC0_188.mp4	0.0	552.8295810222626	
61	180.97363591194153	movie	1		301.0	59.0	2.5	/experiments/knapen_aot/videos/R_S_82eJpVKGnC0_188.mp4	0.0	552.8452599048615	2.508275032043457
61	183.48191094398499	fix_post	2		12.0	59.0	2.5	/experiments/knapen_aot/videos/R_S_82eJpVKGnC0_188.mp4	0.0	555.3535349369049	0.0999300479888916
62	183.58184099197388	fix_pre	0		53.0	60.0	2.5	/experiments/knapen_aot/videos/R_S_ILSVRC2015_train_00761000.mp4	0.0	555.4534649848938	0.4416630268096924
62	184.015478849411	response	0	4		60.0	2.5	/experiments/knapen_aot/videos/R_S_ILSVRC2015_train_00761000.mp4	0.0	555.8871028423309	
62	184.02350401878357	movie	1		301.0	60.0	2.5	/experiments/knapen_aot/videos/R_S_ILSVRC2015_train_00761000.mp4	0.0	555.8951280117035	2.5084309577941895
62	186.53193497657776	fix_post	2		12.0	60.0	2.5	/experiments/knapen_aot/videos/R_S_ILSVRC2015_train_00761000.mp4	0.0	558.4035589694977	0.09998703002929688
63	186.63192200660706	fix_pre	0		37.0	61.0	2.5	/experiments/knapen_aot/videos/R_S_production_ID_5199636.mp4	0.0	558.503545999527	0.30830883979797363
63	186.9319610595703	response	0	4		61.0	2.5	/experiments/knapen_aot/videos/R_S_production_ID_5199636.mp4	0.0	558.8035850524902	
63	186.94023084640503	movie	1		171.0	61.0	2.5	/experiments/knapen_aot/videos/R_S_production_ID_5199636.mp4	0.0	558.811854839325	2.5083131790161133
63	189.44854402542114	fix_post	2		12.0	61.0	2.5	/experiments/knapen_aot/videos/R_S_production_ID_5199636.mp4	0.0	561.3201680183411	0.10002684593200684
64	189.54857087135315	fix_pre	0		30.0	62.0	2.5	blank	1.0	561.4201948642731	0.2499370574951172
64	189.7903389930725	response	0	4		62.0	2.5	blank	1.0	561.6619629859924	
64	189.79850792884827	movie	1		301.0	62.0	2.5	blank	1.0	561.6701319217682	2.508376121520996
64	192.30688405036926	fix_post	2		12.0	62.0	2.5	blank	1.0	564.1785080432892	0.10064697265625
65	192.4075310230255	fix_pre	0		20.0	63.0	2.5	/experiments/knapen_aot/videos/R_S_ILSVRC2015_train_00569007.mp4	0.0	564.2791550159454	0.16664886474609375
65	192.5653579235077	response	0	4		63.0	2.5	/experiments/knapen_aot/videos/R_S_ILSVRC2015_train_00569007.mp4	0.0	564.4369819164276	
65	192.5741798877716	movie	1		301.0	63.0	2.5	/experiments/knapen_aot/videos/R_S_ILSVRC2015_train_00569007.mp4	0.0	564.4458038806915	2.507697105407715
65	194.71544098854065	response	1	4		63.0	2.5	/experiments/knapen_aot/videos/R_S_ILSVRC2015_train_00569007.mp4	0.0	566.5870649814606	
65	195.08187699317932	fix_post	2		12.0	63.0	2.5	/experiments/knapen_aot/videos/R_S_ILSVRC2015_train_00569007.mp4	0.0	566.9535009860992	0.10004901885986328
66	195.18192601203918	fix_pre	0		64.0	64.0	2.5	/experiments/knapen_aot/videos/S_yt-SgiTZNjCPCo_19.mp4	0.0	567.0535500049591	0.533268928527832
66	195.70704102516174	response	0	4		64.0	2.5	/experiments/knapen_aot/videos/S_yt-SgiTZNjCPCo_19.mp4	0.0	567.5786650180817	
66	195.71519494056702	movie	1		301.0	64.0	2.5	/experiments/knapen_aot/videos/S_yt-SgiTZNjCPCo_19.mp4	0.0	567.5868189334869	2.5083189010620117
66	198.22351384162903	fix_post	2		12.0	64.0	2.5	/experiments/knapen_aot/videos/S_yt-SgiTZNjCPCo_19.mp4	0.0	570.095137834549	0.10000300407409668
67	198.32351684570312	fix_pre	0		30.0	65.0	2.5	/experiments/knapen_aot/videos/R_S_production_ID_5020960.mp4	0.0	570.195140838623	0.25830698013305664
67	198.57370591163635	response	0	4		65.0	2.5	/experiments/knapen_aot/videos/R_S_production_ID_5020960.mp4	0.0	570.4453299045563	
67	198.58182382583618	movie	1		197.0	65.0	2.5	/experiments/knapen_aot/videos/R_S_production_ID_5020960.mp4	0.0	570.4534478187561	2.5083510875701904
67	200.99028396606445	response	1	4		65.0	2.5	/experiments/knapen_aot/videos/R_S_production_ID_5020960.mp4	0.0	572.8619079589844	
67	201.09017491340637	fix_post	2		12.0	65.0	2.5	/experiments/knapen_aot/videos/R_S_production_ID_5020960.mp4	0.0	572.9617989063263	0.0999140739440918
68	201.19008898735046	fix_pre	0		38.0	66.0	2.5	/experiments/knapen_aot/videos/R_S_production_ID_4360158.mp4	0.0	573.0617129802704	0.31673288345336914
68	201.49862694740295	response	0	4		66.0	2.5	/experiments/knapen_aot/videos/R_S_production_ID_4360158.mp4	0.0	573.3702509403229	
68	201.50682187080383	movie	1		164.0	66.0	2.5	/experiments/knapen_aot/videos/R_S_production_ID_4360158.mp4	0.0	573.3784458637238	2.50828218460083
68	204.01510405540466	fix_post	2		11.0	66.0	2.5	/experiments/knapen_aot/videos/R_S_production_ID_4360158.mp4	0.0	575.8867280483246	0.09374594688415527
68	204.09864687919617	response	2	4		66.0	2.5	/experiments/knapen_aot/videos/R_S_production_ID_4360158.mp4	0.0	575.9702708721161	
69	204.10885000228882	fix_pre	0		95.0	67.0	2.5	/experiments/knapen_aot/videos/R_S_pexels-mart-production-7698911_1.mp4	0.0	575.9804739952087	0.7896218299865723
69	204.89024591445923	response	0	4		67.0	2.5	/experiments/knapen_aot/videos/R_S_pexels-mart-production-7698911_1.mp4	0.0	576.7618699073792	
69	204.8984718322754	movie	1		208.0	67.0	2.5	/experiments/knapen_aot/videos/R_S_pexels-mart-production-7698911_1.mp4	0.0	576.7700958251953	2.5082859992980957
69	206.83204698562622	response	1	4		67.0	2.5	/experiments/knapen_aot/videos/R_S_pexels-mart-production-7698911_1.mp4	0.0	578.7036709785461	
69	207.4067578315735	fix_post	2		12.0	67.0	2.5	/experiments/knapen_aot/videos/R_S_pexels-mart-production-7698911_1.mp4	0.0	579.2783818244934	0.10010719299316406
70	207.50686502456665	fix_pre	0		32.0	68.0	2.5	blank	1.0	579.3784890174866	0.26653480529785156
70	207.76523685455322	response	0	4		68.0	2.5	blank	1.0	579.6368608474731	
70	207.7733998298645	movie	1		301.0	68.0	2.5	blank	1.0	579.6450238227844	2.5083460807800293
70	210.28174591064453	fix_post	2		12.0	68.0	2.5	blank	1.0	582.1533699035645	0.10007500648498535
71	210.38182091712952	fix_pre	0		27.0	69.0	2.5	/experiments/knapen_aot/videos/R_S_yt-urJgH6tpfkU_204.mp4	0.0	582.2534449100494	0.2249901294708252
71	210.59862804412842	response	0	4		69.0	2.5	/experiments/knapen_aot/videos/R_S_yt-urJgH6tpfkU_204.mp4	0.0	582.4702520370483	
71	210.60681104660034	movie	1		301.0	69.0	2.5	/experiments/knapen_aot/videos/R_S_yt-urJgH6tpfkU_204.mp4	0.0	582.4784350395203	2.508327007293701
71	213.11513805389404	fix_post	2		12.0	69.0	2.5	/experiments/knapen_aot/videos/R_S_yt-urJgH6tpfkU_204.mp4	0.0	584.986762046814	0.09998798370361328
72	213.21512603759766	fix_pre	0		46.0	70.0	2.5	/experiments/knapen_aot/videos/R_S_yt-ZBk_XFb5PGo_25.mp4	0.0	585.0867500305176	0.3832888603210449
72	213.58269095420837	response	0	4		70.0	2.5	/experiments/knapen_aot/videos/R_S_yt-ZBk_XFb5PGo_25.mp4	0.0	585.4543149471283	
72	213.5984148979187	movie	1		301.0	70.0	2.5	/experiments/knapen_aot/videos/R_S_yt-ZBk_XFb5PGo_25.mp4	0.0	585.4700388908386	2.50832200050354
72	216.10673689842224	fix_post	2		12.0	70.0	2.5	/experiments/knapen_aot/videos/R_S_yt-ZBk_XFb5PGo_25.mp4	0.0	587.9783608913422	0.1001131534576416
73	216.20685005187988	fix_pre	0		18.0	71.0	2.5	/experiments/knapen_aot/videos/R_S_ILSVRC2015_train_00251005.mp4	0.0	588.0784740447998	0.14995789527893066
73	216.34862399101257	response	0	4		71.0	2.5	/experiments/knapen_aot/videos/R_S_ILSVRC2015_train_00251005.mp4	0.0	588.2202479839325	
73	216.3568079471588	movie	1		301.0	71.0	2.5	/experiments/knapen_aot/videos/R_S_ILSVRC2015_train_00251005.mp4	0.0	588.2284319400787	2.508354902267456
73	218.86516284942627	fix_post	2		12.0	71.0	2.5	/experiments/knapen_aot/videos/R_S_ILSVRC2015_train_00251005.mp4	0.0	590.7367868423462	0.09989714622497559
74	218.96505999565125	fix_pre	0		100.0	72.0	2.5	/experiments/knapen_aot/videos/S_yt-eoASPwIAiHY_244.mp4	0.0	590.8366839885712	0.83341383934021
74	219.79030990600586	response	0	4		72.0	2.5	/experiments/knapen_aot/videos/S_yt-eoASPwIAiHY_244.mp4	0.0	591.6619338989258	
74	219.79847383499146	movie	1		301.0	72.0	2.5	/experiments/knapen_aot/videos/S_yt-eoASPwIAiHY_244.mp4	0.0	591.6700978279114	2.508355140686035
74	222.3068289756775	fix_post	2		12.0	72.0	2.5	/experiments/knapen_aot/videos/S_yt-eoASPwIAiHY_244.mp4	0.0	594.1784529685974	0.0999610424041748
75	222.40679001808167	fix_pre	0		50.0	73.0	2.5	/experiments/knapen_aot/videos/R_S_yt-uXDyvrm0Tw0_17.mp4	0.0	594.2784140110016	0.41718387603759766
75	222.8152949810028	response	0	4		73.0	2.5	/experiments/knapen_aot/videos/R_S_yt-uXDyvrm0Tw0_17.mp4	0.0	594.6869189739227	
75	222.82397389411926	movie	1		301.0	73.0	2.5	/experiments/knapen_aot/videos/R_S_yt-uXDyvrm0Tw0_17.mp4	0.0	594.6955978870392	2.507812023162842
75	225.3317859172821	fix_post	2		12.0	73.0	2.5	/experiments/knapen_aot/videos/R_S_yt-uXDyvrm0Tw0_17.mp4	0.0	597.203409910202	0.10004496574401855
76	225.43183088302612	fix_pre	0		34.0	74.0	2.5	/experiments/knapen_aot/videos/R_S_82eJpVKGnC0_188.mp4	0.0	597.303454875946	0.28327107429504395
76	225.70690298080444	response	0	4		74.0	2.5	/experiments/knapen_aot/videos/R_S_82eJpVKGnC0_188.mp4	0.0	597.5785269737244	
76	225.71510195732117	movie	1		301.0	74.0	2.5	/experiments/knapen_aot/videos/R_S_82eJpVKGnC0_188.mp4	0.0	597.5867259502411	2.50838303565979
76	228.22348499298096	fix_post	2		12.0	74.0	2.5	/experiments/knapen_aot/videos/R_S_82eJpVKGnC0_188.mp4	0.0	600.0951089859009	0.09992003440856934
77	228.32340502738953	fix_pre	0		27.0	75.0	2.5	/experiments/knapen_aot/videos/R_S_pexels-rodnae-productions-5993671.mp4	0.0	600.1950290203094	0.22502994537353516
77	228.5402638912201	response	0	4		75.0	2.5	/experiments/knapen_aot/videos/R_S_pexels-rodnae-productions-5993671.mp4	0.0	600.41188788414	
77	228.54843497276306	movie	1		167.0	75.0	2.5	/experiments/knapen_aot/videos/R_S_pexels-rodnae-productions-5993671.mp4	0.0	600.420058965683	2.5083279609680176
77	231.05676293373108	fix_post	2		12.0	75.0	2.5	/experiments/knapen_aot/videos/R_S_pexels-rodnae-productions-5993671.mp4	0.0	602.928386926651	0.10000300407409668
78	231.15676593780518	fix_pre	0		50.0	76.0	2.5	blank	1.0	603.0283899307251	0.41704893112182617
78	231.5651319026947	response	0	4		76.0	2.5	blank	1.0	603.4367558956146	
78	231.573814868927	movie	1		301.0	76.0	2.5	blank	1.0	603.4454388618469	2.5079259872436523
78	234.08174085617065	fix_post	2		12.0	76.0	2.5	blank	1.0	605.9533648490906	0.1000680923461914
79	234.18180894851685	fix_pre	0		23.0	77.0	2.5	/experiments/knapen_aot/videos/R_S_yt-J_FnFAl1uL0_143.mp4	0.0	606.0534329414368	0.19153094291687012
79	234.365140914917	response	0	4		77.0	2.5	/experiments/knapen_aot/videos/R_S_yt-J_FnFAl1uL0_143.mp4	0.0	606.2367649078369	
79	234.37333989143372	movie	1		301.0	77.0	2.5	/experiments/knapen_aot/videos/R_S_yt-J_FnFAl1uL0_143.mp4	0.0	606.2449638843536	2.5083820819854736
79	236.8817219734192	fix_post	2		12.0	77.0	2.5	/experiments/knapen_aot/videos/R_S_yt-J_FnFAl1uL0_143.mp4	0.0	608.7533459663391	0.0999748706817627
80	236.98169684410095	fix_pre	0		15.0	78.0	2.5	/experiments/knapen_aot/videos/S_production_ID_4121250.mp4	0.0	608.8533208370209	0.12496805191040039
80	237.09846997261047	response	0	4		78.0	2.5	/experiments/knapen_aot/videos/S_production_ID_4121250.mp4	0.0	608.9700939655304	
80	237.10666489601135	movie	1		164.0	78.0	2.5	/experiments/knapen_aot/videos/S_production_ID_4121250.mp4	0.0	608.9782888889313	2.50829815864563
80	239.61496305465698	fix_post	2		12.0	78.0	2.5	/experiments/knapen_aot/videos/S_production_ID_4121250.mp4	0.0	611.4865870475769	0.10003781318664551
81	239.71500086784363	fix_pre	0		66.0	79.0	2.5	/experiments/knapen_aot/videos/S_yt-nfDPFHUDq8g_136.mp4	0.0	611.5866248607635	0.550011157989502
81	240.25686502456665	response	0	4		79.0	2.5	/experiments/knapen_aot/videos/S_yt-nfDPFHUDq8g_136.mp4	0.0	612.1284890174866	
81	240.26501202583313	movie	1		301.0	79.0	2.5	/experiments/knapen_aot/videos/S_yt-nfDPFHUDq8g_136.mp4	0.0	612.136636018753	2.5083060264587402
81	242.77331805229187	fix_post	2		12.0	79.0	2.5	/experiments/knapen_aot/videos/S_yt-nfDPFHUDq8g_136.mp4	0.0	614.6449420452118	0.09996700286865234
82	242.87328505516052	fix_pre	0		77.0	80.0	2.5	/experiments/knapen_aot/videos/R_S_yt-0xzYSBvVfYM_197.mp4	0.0	614.7449090480804	0.6417109966278076
82	243.49935388565063	response	0	4		80.0	2.5	/experiments/knapen_aot/videos/R_S_yt-0xzYSBvVfYM_197.mp4	0.0	615.3709778785706	
82	243.51499605178833	movie	1		301.0	80.0	2.5	/experiments/knapen_aot/videos/R_S_yt-0xzYSBvVfYM_197.mp4	0.0	615.3866200447083	2.508328914642334
82	246.02332496643066	fix_post	2		12.0	80.0	2.5	/experiments/knapen_aot/videos/R_S_yt-0xzYSBvVfYM_197.mp4	0.0	617.8949489593506	0.09994292259216309
83	246.12326788902283	fix_pre	0		48.0	81.0	2.5	/experiments/knapen_aot/videos/R_S_yt-2SVpSaBAxsw_78.mp4	0.0	617.9948918819427	0.39996910095214844
83	246.51517987251282	response	0	4		81.0	2.5	/experiments/knapen_aot/videos/R_S_yt-2SVpSaBAxsw_78.mp4	0.0	618.3868038654327	
83	246.52323698997498	movie	1		301.0	81.0	2.5	/experiments/knapen_aot/videos/R_S_yt-2SVpSaBAxsw_78.mp4	0.0	618.3948609828949	2.508349895477295
83	249.03158688545227	fix_post	2		12.0	81.0	2.5	/experiments/knapen_aot/videos/R_S_yt-2SVpSaBAxsw_78.mp4	0.0	620.9032108783722	0.10006093978881836
84	249.1316478252411	fix_pre	0		75.0	82.0	2.5	/experiments/knapen_aot/videos/R_S_yt-8RmEimCI80g_35.mp4	0.0	621.003271818161	0.6250572204589844
84	249.74834990501404	response	0	4		82.0	2.5	/experiments/knapen_aot/videos/R_S_yt-8RmEimCI80g_35.mp4	0.0	621.619973897934	
84	249.75670504570007	movie	1		301.0	82.0	2.5	/experiments/knapen_aot/videos/R_S_yt-8RmEimCI80g_35.mp4	0.0	621.62832903862	2.5082600116729736
84	252.26496505737305	fix_post	2		12.0	82.0	2.5	/experiments/knapen_aot/videos/R_S_yt-8RmEimCI80g_35.mp4	0.0	624.136589050293	0.09996581077575684
85	252.3649308681488	fix_pre	0		1.0	83.0	2.5	blank	1.0	624.2365548610687	0.008414030075073242
85	252.36660599708557	response	0	4		83.0	2.5	blank	1.0	624.2382299900055	
85	252.37334489822388	movie	1		301.0	83.0	2.5	blank	1.0	624.2449688911438	2.5082969665527344
85	254.8816418647766	fix_post	2		12.0	83.0	2.5	blank	1.0	626.7532658576965	0.09998512268066406
87	254.98162698745728	stim	0		95.0					626.8532509803772	0.7933740615844727
87	255.76234102249146	response	0	space						627.6339650154114	
