trial_nr	onset	event_type	phase	response	nr_frames	movie_index	movie_duration	movie_file	blank	onset_abs	duration
0	0.136275053024292	stim	0		33.0					61.363381147384644	0.272258996963501
0	0.40039801597595215	response	0	space						61.627504110336304	
1	0.40853404998779297	stim	0		121.0					61.635640144348145	1.0082228183746338
1	0.908505916595459	response	0	space						62.13561201095581	
1	1.4167568683624268	stim	1		120.0					62.64386296272278	0.9996042251586914
1	1.4430019855499268	response	1	space						62.67010807991028	
1	1.9165430068969727	response	1	space						63.143649101257324	
1	2.3006629943847656	response	1	space						63.52776908874512	
2	2.416361093521118	fix_pre	0		54.0	0.0	2.5	/experiments/knapen_aot/videos/R_S_yt-xQPKYWDRy2A_491.mp4	0.0	63.64346718788147	0.44993090629577637
2	2.85815691947937	response	0	space		0.0	2.5	/experiments/knapen_aot/videos/R_S_yt-xQPKYWDRy2A_491.mp4	0.0	64.08526301383972	
2	2.8662919998168945	movie	1		300.0	0.0	2.5	/experiments/knapen_aot/videos/R_S_yt-xQPKYWDRy2A_491.mp4	0.0	64.09339809417725	2.508370876312256
2	5.37466287612915	fix_post	2		12.0	0.0	2.5	/experiments/knapen_aot/videos/R_S_yt-xQPKYWDRy2A_491.mp4	0.0	66.6017689704895	0.09995007514953613
3	5.4746129512786865	fix_pre	0		5.0	1.0	2.5	/experiments/knapen_aot/videos/S_comp_A083_C002_1130KZ_v04_SDR_PS_FINAL_20180725_SDR_2K_AVC.mp4	0.0	66.70171904563904	0.043331146240234375
3	5.505687952041626	response	0	2		1.0	2.5	/experiments/knapen_aot/videos/S_comp_A083_C002_1130KZ_v04_SDR_PS_FINAL_20180725_SDR_2K_AVC.mp4	0.0	66.73279404640198	
3	5.517944097518921	movie	1		160.0	1.0	2.5	/experiments/knapen_aot/videos/S_comp_A083_C002_1130KZ_v04_SDR_PS_FINAL_20180725_SDR_2K_AVC.mp4	0.0	66.74505019187927	2.5069148540496826
3	8.024858951568604	fix_post	2		12.0	1.0	2.5	/experiments/knapen_aot/videos/S_comp_A083_C002_1130KZ_v04_SDR_PS_FINAL_20180725_SDR_2K_AVC.mp4	0.0	69.25196504592896	0.09987306594848633
4	8.12473201751709	fix_pre	0		2.0	2.0	2.5	/experiments/knapen_aot/videos/R_S_yt-xQPKYWDRy2A_491.mp4	0.0	69.35183811187744	0.016633987426757812
4	8.13331389427185	response	0	2		2.0	2.5	/experiments/knapen_aot/videos/R_S_yt-xQPKYWDRy2A_491.mp4	0.0	69.3604199886322	
4	8.141366004943848	movie	1		301.0	2.0	2.5	/experiments/knapen_aot/videos/R_S_yt-xQPKYWDRy2A_491.mp4	0.0	69.3684720993042	2.5084660053253174
4	10.649832010269165	fix_post	2		12.0	2.0	2.5	/experiments/knapen_aot/videos/R_S_yt-xQPKYWDRy2A_491.mp4	0.0	71.87693810462952	0.09986400604248047
5	10.749696016311646	fix_pre	0		4.0	3.0	2.5	/experiments/knapen_aot/videos/R_S_ILSVRC2015_train_00405001.mp4	0.0	71.976802110672	0.033354997634887695
5	10.775547981262207	response	0	2		3.0	2.5	/experiments/knapen_aot/videos/R_S_ILSVRC2015_train_00405001.mp4	0.0	72.00265407562256	
5	10.783051013946533	movie	1		301.0	3.0	2.5	/experiments/knapen_aot/videos/R_S_ILSVRC2015_train_00405001.mp4	0.0	72.01015710830688	2.5082850456237793
5	13.291336059570312	fix_post	2		12.0	3.0	2.5	/experiments/knapen_aot/videos/R_S_ILSVRC2015_train_00405001.mp4	0.0	74.51844215393066	0.09993886947631836
6	13.39127492904663	fix_pre	0		4.0	4.0	2.5	/experiments/knapen_aot/videos/S_yt-nQu-PAXBv2g_5.mp4	0.0	74.61838102340698	0.03344106674194336
6	13.409183979034424	response	0	2		4.0	2.5	/experiments/knapen_aot/videos/S_yt-nQu-PAXBv2g_5.mp4	0.0	74.63629007339478	
6	13.424715995788574	movie	1		301.0	4.0	2.5	/experiments/knapen_aot/videos/S_yt-nQu-PAXBv2g_5.mp4	0.0	74.65182209014893	2.508267879486084
6	15.932983875274658	fix_post	2		12.0	4.0	2.5	/experiments/knapen_aot/videos/S_yt-nQu-PAXBv2g_5.mp4	0.0	77.16008996963501	0.09997916221618652
7	16.032963037490845	fix_pre	0		10.0	5.0	2.5	blank	1.0	77.2600691318512	0.0833430290222168
7	16.108108043670654	response	0	2		5.0	2.5	blank	1.0	77.335214138031	
7	16.11630606651306	movie	1		301.0	5.0	2.5	blank	1.0	77.34341216087341	2.508316993713379
7	18.62462306022644	fix_post	2		12.0	5.0	2.5	blank	1.0	79.85172915458679	0.09996390342712402
8	18.724586963653564	fix_pre	0		16.0	6.0	2.5	/experiments/knapen_aot/videos/S_yt-NFb0SUCeiro_158.mp4	0.0	79.95169305801392	0.13349604606628418
8	18.849750995635986	response	0	2		6.0	2.5	/experiments/knapen_aot/videos/S_yt-NFb0SUCeiro_158.mp4	0.0	80.07685708999634	
8	18.85808300971985	movie	1		301.0	6.0	2.5	/experiments/knapen_aot/videos/S_yt-NFb0SUCeiro_158.mp4	0.0	80.0851891040802	2.508208990097046
8	21.366291999816895	fix_post	2		12.0	6.0	2.5	/experiments/knapen_aot/videos/S_yt-NFb0SUCeiro_158.mp4	0.0	82.59339809417725	0.09998393058776855
9	21.466275930404663	fix_pre	0		5.0	7.0	2.5	/experiments/knapen_aot/videos/R_S_yt-9T99N7Cvi_o_112.mp4	0.0	82.69338202476501	0.04177498817443848
9	21.49295997619629	response	0	2		7.0	2.5	/experiments/knapen_aot/videos/R_S_yt-9T99N7Cvi_o_112.mp4	0.0	82.72006607055664	
9	21.5080509185791	movie	1		301.0	7.0	2.5	/experiments/knapen_aot/videos/R_S_yt-9T99N7Cvi_o_112.mp4	0.0	82.73515701293945	2.5082101821899414
9	24.016261100769043	fix_post	2		12.0	7.0	2.5	/experiments/knapen_aot/videos/R_S_yt-9T99N7Cvi_o_112.mp4	0.0	85.2433671951294	0.1000208854675293
10	24.116281986236572	fix_pre	0		3.0	8.0	2.5	/experiments/knapen_aot/videos/S_yt-QiJyOUkuo38_6.mp4	0.0	85.34338808059692	0.024959087371826172
10	24.13317894935608	response	0	2		8.0	2.5	/experiments/knapen_aot/videos/S_yt-QiJyOUkuo38_6.mp4	0.0	85.36028504371643	
10	24.1412410736084	movie	1		301.0	8.0	2.5	/experiments/knapen_aot/videos/S_yt-QiJyOUkuo38_6.mp4	0.0	85.36834716796875	2.508445978164673
10	26.64968705177307	fix_post	2		12.0	8.0	2.5	/experiments/knapen_aot/videos/S_yt-QiJyOUkuo38_6.mp4	0.0	87.87679314613342	0.09988594055175781
11	26.74957299232483	fix_pre	0		9.0	9.0	2.5	/experiments/knapen_aot/videos/S_wc-PsidKmkEV7Km_14.mp4	0.0	87.97667908668518	0.07500290870666504
11	26.816365003585815	response	0	2		9.0	2.5	/experiments/knapen_aot/videos/S_wc-PsidKmkEV7Km_14.mp4	0.0	88.04347109794617	
11	26.824575901031494	movie	1		164.0	9.0	2.5	/experiments/knapen_aot/videos/S_wc-PsidKmkEV7Km_14.mp4	0.0	88.05168199539185	2.508327007293701
11	29.332902908325195	fix_post	2		12.0	9.0	2.5	/experiments/knapen_aot/videos/S_wc-PsidKmkEV7Km_14.mp4	0.0	90.56000900268555	0.10000205039978027
12	29.432904958724976	fix_pre	0		20.0	10.0	2.5	/experiments/knapen_aot/videos/R_S_ILSVRC2015_train_00404003.mp4	0.0	90.66001105308533	0.16666102409362793
12	29.591352939605713	response	0	2		10.0	2.5	/experiments/knapen_aot/videos/R_S_ILSVRC2015_train_00404003.mp4	0.0	90.81845903396606	
12	29.599565982818604	movie	1		301.0	10.0	2.5	/experiments/knapen_aot/videos/R_S_ILSVRC2015_train_00404003.mp4	0.0	90.82667207717896	2.5084049701690674
12	32.10797095298767	fix_post	2		12.0	10.0	2.5	/experiments/knapen_aot/videos/R_S_ILSVRC2015_train_00404003.mp4	0.0	93.33507704734802	0.1000070571899414
12	32.191272020339966	response	2	2		10.0	2.5	/experiments/knapen_aot/videos/R_S_ILSVRC2015_train_00404003.mp4	0.0	93.41837811470032	
13	32.20797801017761	fix_pre	0		40.0	11.0	2.5	/experiments/knapen_aot/videos/R_S_yt-GytLOB9Qjro_76.mp4	0.0	93.43508410453796	0.33318185806274414
13	32.533019065856934	response	0	2		11.0	2.5	/experiments/knapen_aot/videos/R_S_yt-GytLOB9Qjro_76.mp4	0.0	93.76012516021729	
13	32.541159868240356	movie	1		301.0	11.0	2.5	/experiments/knapen_aot/videos/R_S_yt-GytLOB9Qjro_76.mp4	0.0	93.76826596260071	2.508411169052124
13	35.04957103729248	fix_post	2		12.0	11.0	2.5	/experiments/knapen_aot/videos/R_S_yt-GytLOB9Qjro_76.mp4	0.0	96.27667713165283	0.10005593299865723
14	35.14962697029114	fix_pre	0		5.0	12.0	2.5	/experiments/knapen_aot/videos/R_S_yt-QiJyOUkuo38_6.mp4	0.0	96.37673306465149	0.042114973068237305
14	35.1829719543457	response	0	2		12.0	2.5	/experiments/knapen_aot/videos/R_S_yt-QiJyOUkuo38_6.mp4	0.0	96.41007804870605	
14	35.191741943359375	movie	1		301.0	12.0	2.5	/experiments/knapen_aot/videos/R_S_yt-QiJyOUkuo38_6.mp4	0.0	96.41884803771973	2.5078251361846924
14	37.69956707954407	fix_post	2		12.0	12.0	2.5	/experiments/knapen_aot/videos/R_S_yt-QiJyOUkuo38_6.mp4	0.0	98.92667317390442	0.10001087188720703
15	37.799577951431274	fix_pre	0		9.0	13.0	2.5	blank	1.0	99.02668404579163	0.07505297660827637
15	37.86636996269226	response	0	2		13.0	2.5	blank	1.0	99.09347605705261	
15	37.87463092803955	movie	1		301.0	13.0	2.5	blank	1.0	99.1017370223999	2.5082240104675293
15	40.38285493850708	fix_post	2		12.0	13.0	2.5	blank	1.0	101.60996103286743	0.10007905960083008
16	40.48293399810791	fix_pre	0		33.0	14.0	2.5	/experiments/knapen_aot/videos/R_S_pexels-koolshooters-7327412.mp4	0.0	101.71004009246826	0.27497196197509766
16	40.749706983566284	response	0	2		14.0	2.5	/experiments/knapen_aot/videos/R_S_pexels-koolshooters-7327412.mp4	0.0	101.97681307792664	
16	40.75790596008301	movie	1		168.0	14.0	2.5	/experiments/knapen_aot/videos/R_S_pexels-koolshooters-7327412.mp4	0.0	101.98501205444336	2.5083019733428955
16	43.2662079334259	fix_post	2		12.0	14.0	2.5	/experiments/knapen_aot/videos/R_S_pexels-koolshooters-7327412.mp4	0.0	104.49331402778625	0.10003900527954102
17	43.366246938705444	fix_pre	0		1.0	15.0	2.5	/experiments/knapen_aot/videos/S_yt-6aqg1P9YqR8_38.mp4	0.0	104.5933530330658	0.008317947387695312
17	43.3678719997406	response	0	2		15.0	2.5	/experiments/knapen_aot/videos/S_yt-6aqg1P9YqR8_38.mp4	0.0	104.59497809410095	
17	43.37456488609314	movie	1		300.0	15.0	2.5	/experiments/knapen_aot/videos/S_yt-6aqg1P9YqR8_38.mp4	0.0	104.60167098045349	2.5083250999450684
17	45.88288998603821	fix_post	2		12.0	15.0	2.5	/experiments/knapen_aot/videos/S_yt-6aqg1P9YqR8_38.mp4	0.0	107.10999608039856	0.09999704360961914
18	45.98288702964783	fix_pre	0		16.0	16.0	2.5	/experiments/knapen_aot/videos/S_yt-n_eO-7KedAE_21.mp4	0.0	107.20999312400818	0.13330602645874023
18	46.10796308517456	response	0	2		16.0	2.5	/experiments/knapen_aot/videos/S_yt-n_eO-7KedAE_21.mp4	0.0	107.33506917953491	
18	46.11619305610657	movie	1		301.0	16.0	2.5	/experiments/knapen_aot/videos/S_yt-n_eO-7KedAE_21.mp4	0.0	107.34329915046692	2.508296012878418
18	48.624489068984985	fix_post	2		12.0	16.0	2.5	/experiments/knapen_aot/videos/S_yt-n_eO-7KedAE_21.mp4	0.0	109.85159516334534	0.1000208854675293
19	48.724509954452515	fix_pre	0		14.0	17.0	2.5	/experiments/knapen_aot/videos/S_yt-7NjoFHBdP7c_102.mp4	0.0	109.95161604881287	0.11659812927246094
19	48.833093881607056	response	0	2		17.0	2.5	/experiments/knapen_aot/videos/S_yt-7NjoFHBdP7c_102.mp4	0.0	110.06019997596741	
19	48.841108083724976	movie	1		301.0	17.0	2.5	/experiments/knapen_aot/videos/S_yt-7NjoFHBdP7c_102.mp4	0.0	110.06821417808533	2.5084078311920166
19	51.34951591491699	fix_post	2		12.0	17.0	2.5	/experiments/knapen_aot/videos/S_yt-7NjoFHBdP7c_102.mp4	0.0	112.57662200927734	0.10000300407409668
20	51.44951891899109	fix_pre	0		17.0	18.0	2.5	/experiments/knapen_aot/videos/S_yt-RO4mhuXBVrY_67.mp4	0.0	112.67662501335144	0.1416001319885254
20	51.57542300224304	response	0	2		18.0	2.5	/experiments/knapen_aot/videos/S_yt-RO4mhuXBVrY_67.mp4	0.0	112.8025290966034	
20	51.591119050979614	movie	1		301.0	18.0	2.5	/experiments/knapen_aot/videos/S_yt-RO4mhuXBVrY_67.mp4	0.0	112.81822514533997	2.5083889961242676
20	54.09950804710388	fix_post	2		12.0	18.0	2.5	/experiments/knapen_aot/videos/S_yt-RO4mhuXBVrY_67.mp4	0.0	115.32661414146423	0.09995293617248535
21	54.19946098327637	fix_pre	0		11.0	19.0	2.5	/experiments/knapen_aot/videos/S_yt-F1X_vq0Zioc_154.mp4	0.0	115.42656707763672	0.09167909622192383
21	54.28294110298157	response	0	2		19.0	2.5	/experiments/knapen_aot/videos/S_yt-F1X_vq0Zioc_154.mp4	0.0	115.51004719734192	
21	54.29114007949829	movie	1		301.0	19.0	2.5	/experiments/knapen_aot/videos/S_yt-F1X_vq0Zioc_154.mp4	0.0	115.51824617385864	2.508368968963623
21	56.799509048461914	fix_post	2		12.0	19.0	2.5	/experiments/knapen_aot/videos/S_yt-F1X_vq0Zioc_154.mp4	0.0	118.02661514282227	0.10005784034729004
22	56.899566888809204	fix_pre	0		28.0	20.0	2.5	/experiments/knapen_aot/videos/S_ILSVRC2015_train_00632002.mp4	0.0	118.12667298316956	0.23321008682250977
22	57.124626874923706	response	0	2		20.0	2.5	/experiments/knapen_aot/videos/S_ILSVRC2015_train_00632002.mp4	0.0	118.35173296928406	
22	57.132776975631714	movie	1		301.0	20.0	2.5	/experiments/knapen_aot/videos/S_ILSVRC2015_train_00632002.mp4	0.0	118.35988306999207	2.508431911468506
22	59.64120888710022	fix_post	2		12.0	20.0	2.5	/experiments/knapen_aot/videos/S_ILSVRC2015_train_00632002.mp4	0.0	120.86831498146057	0.09998917579650879
23	59.74119806289673	fix_pre	0		5.0	21.0	2.5	blank	1.0	120.96830415725708	0.041777849197387695
23	59.77494192123413	response	0	2		21.0	2.5	blank	1.0	121.00204801559448	
23	59.782975912094116	movie	1		301.0	21.0	2.5	blank	1.0	121.01008200645447	2.5082809925079346
23	62.29125690460205	fix_post	2		12.0	21.0	2.5	blank	1.0	123.5183629989624	0.09991812705993652
24	62.39117503166199	fix_pre	0		7.0	22.0	2.5	/experiments/knapen_aot/videos/S_ILSVRC2015_train_00074011.mp4	0.0	123.61828112602234	0.05833101272583008
24	62.441314935684204	response	0	2		22.0	2.5	/experiments/knapen_aot/videos/S_ILSVRC2015_train_00074011.mp4	0.0	123.66842103004456	
24	62.44950604438782	movie	1		300.0	22.0	2.5	/experiments/knapen_aot/videos/S_ILSVRC2015_train_00074011.mp4	0.0	123.67661213874817	2.508281946182251
24	64.95778799057007	fix_post	2		12.0	22.0	2.5	/experiments/knapen_aot/videos/S_ILSVRC2015_train_00074011.mp4	0.0	126.18489408493042	0.10006189346313477
25	65.0578498840332	fix_pre	0		6.0	23.0	2.5	/experiments/knapen_aot/videos/R_S_yt-Ndwek2tpIOA_169.mp4	0.0	126.28495597839355	0.04995012283325195
25	65.09961700439453	response	0	2		23.0	2.5	/experiments/knapen_aot/videos/R_S_yt-Ndwek2tpIOA_169.mp4	0.0	126.32672309875488	
25	65.10780000686646	movie	1		301.0	23.0	2.5	/experiments/knapen_aot/videos/R_S_yt-Ndwek2tpIOA_169.mp4	0.0	126.3349061012268	2.5083420276641846
25	67.61614203453064	fix_post	2		12.0	23.0	2.5	/experiments/knapen_aot/videos/R_S_yt-Ndwek2tpIOA_169.mp4	0.0	128.843248128891	0.10003805160522461
26	67.71618008613586	fix_pre	0		16.0	24.0	2.5	/experiments/knapen_aot/videos/R_S_yt-NuZy8Rjk4d0_156.mp4	0.0	128.94328618049622	0.13454580307006836
26	67.8413999080658	response	0	2		24.0	2.5	/experiments/knapen_aot/videos/R_S_yt-NuZy8Rjk4d0_156.mp4	0.0	129.06850600242615	
26	67.85072588920593	movie	1		301.0	24.0	2.5	/experiments/knapen_aot/videos/R_S_yt-NuZy8Rjk4d0_156.mp4	0.0	129.07783198356628	2.5070230960845947
26	70.35774898529053	fix_post	2		12.0	24.0	2.5	/experiments/knapen_aot/videos/R_S_yt-NuZy8Rjk4d0_156.mp4	0.0	131.58485507965088	0.10003304481506348
27	70.45778203010559	fix_pre	0		11.0	25.0	2.5	/experiments/knapen_aot/videos/S_yt-szXWk_X_67Q_10.mp4	0.0	131.68488812446594	0.09161090850830078
27	70.54115200042725	response	0	2		25.0	2.5	/experiments/knapen_aot/videos/S_yt-szXWk_X_67Q_10.mp4	0.0	131.7682580947876	
27	70.54939293861389	movie	1		301.0	25.0	2.5	/experiments/knapen_aot/videos/S_yt-szXWk_X_67Q_10.mp4	0.0	131.77649903297424	2.5083770751953125
27	73.0577700138092	fix_post	2		12.0	25.0	2.5	/experiments/knapen_aot/videos/S_yt-szXWk_X_67Q_10.mp4	0.0	134.28487610816956	0.09999489784240723
28	73.15776491165161	fix_pre	0		9.0	26.0	2.5	blank	1.0	134.38487100601196	0.07503914833068848
28	73.22467994689941	response	0	2		26.0	2.5	blank	1.0	134.45178604125977	
28	73.2328040599823	movie	1		301.0	26.0	2.5	blank	1.0	134.45991015434265	2.5083298683166504
28	75.5662009716034	response	1	2		26.0	2.5	blank	1.0	136.79330706596375	
28	75.74113392829895	fix_post	2		12.0	26.0	2.5	blank	1.0	136.9682400226593	0.09995794296264648
29	75.8410918712616	fix_pre	0		16.0	27.0	2.5	/experiments/knapen_aot/videos/S_yt-RlHmMGUjT9E_130.mp4	0.0	137.06819796562195	0.13330602645874023
29	75.96612000465393	response	0	2		27.0	2.5	/experiments/knapen_aot/videos/S_yt-RlHmMGUjT9E_130.mp4	0.0	137.19322609901428	
29	75.97439789772034	movie	1		301.0	27.0	2.5	/experiments/knapen_aot/videos/S_yt-RlHmMGUjT9E_130.mp4	0.0	137.2015039920807	2.5083870887756348
29	78.48278498649597	fix_post	2		12.0	27.0	2.5	/experiments/knapen_aot/videos/S_yt-RlHmMGUjT9E_130.mp4	0.0	139.70989108085632	0.09997010231018066
30	78.58275508880615	fix_pre	0		27.0	28.0	2.5	/experiments/knapen_aot/videos/S_yt-PreGL81PEP4_61.mp4	0.0	139.8098611831665	0.2261970043182373
30	78.79968500137329	response	0	2		28.0	2.5	/experiments/knapen_aot/videos/S_yt-PreGL81PEP4_61.mp4	0.0	140.02679109573364	
30	78.80895209312439	movie	1		300.0	28.0	2.5	/experiments/knapen_aot/videos/S_yt-PreGL81PEP4_61.mp4	0.0	140.03605818748474	2.5070879459381104
30	81.3160400390625	fix_post	2		12.0	28.0	2.5	/experiments/knapen_aot/videos/S_yt-PreGL81PEP4_61.mp4	0.0	142.54314613342285	0.10003304481506348
31	81.41607308387756	fix_pre	0		11.0	29.0	2.5	/experiments/knapen_aot/videos/R_S_yt-zSSnQYeO_DE_338.mp4	0.0	142.64317917823792	0.09163093566894531
31	81.49943208694458	response	0	2		29.0	2.5	/experiments/knapen_aot/videos/R_S_yt-zSSnQYeO_DE_338.mp4	0.0	142.72653818130493	
31	81.50770401954651	movie	1		301.0	29.0	2.5	/experiments/knapen_aot/videos/R_S_yt-zSSnQYeO_DE_338.mp4	0.0	142.73481011390686	2.508357048034668
31	84.01606106758118	fix_post	2		12.0	29.0	2.5	/experiments/knapen_aot/videos/R_S_yt-zSSnQYeO_DE_338.mp4	0.0	145.24316716194153	0.10001182556152344
32	84.1160728931427	fix_pre	0		20.0	30.0	2.5	/experiments/knapen_aot/videos/S_yt-8vm83GUgYxI_1.mp4	0.0	145.34317898750305	0.16662001609802246
32	84.27455306053162	response	0	2		30.0	2.5	/experiments/knapen_aot/videos/S_yt-8vm83GUgYxI_1.mp4	0.0	145.50165915489197	
32	84.28269290924072	movie	1		299.0	30.0	2.5	/experiments/knapen_aot/videos/S_yt-8vm83GUgYxI_1.mp4	0.0	145.50979900360107	2.508350133895874
32	86.7910430431366	fix_post	2		12.0	30.0	2.5	/experiments/knapen_aot/videos/S_yt-8vm83GUgYxI_1.mp4	0.0	148.01814913749695	0.09999394416809082
33	86.89103698730469	fix_pre	0		14.0	31.0	2.5	/experiments/knapen_aot/videos/R_S_yt-hQ5pge893b4_6.mp4	0.0	148.11814308166504	0.11665105819702148
33	86.99952507019043	response	0	2		31.0	2.5	/experiments/knapen_aot/videos/R_S_yt-hQ5pge893b4_6.mp4	0.0	148.22663116455078	
33	87.00768804550171	movie	1		301.0	31.0	2.5	/experiments/knapen_aot/videos/R_S_yt-hQ5pge893b4_6.mp4	0.0	148.23479413986206	2.508389949798584
33	89.5160779953003	fix_post	2		12.0	31.0	2.5	/experiments/knapen_aot/videos/R_S_yt-hQ5pge893b4_6.mp4	0.0	150.74318408966064	0.10001087188720703
34	89.6160888671875	fix_pre	0		13.0	32.0	2.5	/experiments/knapen_aot/videos/R_S_yt-bH4nJibL4Jo_164.mp4	0.0	150.84319496154785	0.10945010185241699
34	89.71621489524841	response	0	2		32.0	2.5	/experiments/knapen_aot/videos/R_S_yt-bH4nJibL4Jo_164.mp4	0.0	150.94332098960876	
34	89.72553896903992	movie	1		301.0	32.0	2.5	/experiments/knapen_aot/videos/R_S_yt-bH4nJibL4Jo_164.mp4	0.0	150.95264506340027	2.507188081741333
34	92.23272705078125	fix_post	2		12.0	32.0	2.5	/experiments/knapen_aot/videos/R_S_yt-bH4nJibL4Jo_164.mp4	0.0	153.4598331451416	0.10002398490905762
35	92.33275103569031	fix_pre	0		20.0	33.0	2.5	/experiments/knapen_aot/videos/R_S_yt-r7PeFd-hIp0_378.mp4	0.0	153.55985713005066	0.1665630340576172
35	92.49117493629456	response	0	2		33.0	2.5	/experiments/knapen_aot/videos/R_S_yt-r7PeFd-hIp0_378.mp4	0.0	153.7182810306549	
35	92.49931406974792	movie	1		301.0	33.0	2.5	/experiments/knapen_aot/videos/R_S_yt-r7PeFd-hIp0_378.mp4	0.0	153.72642016410828	2.508382797241211
35	95.00769686698914	fix_post	2		12.0	33.0	2.5	/experiments/knapen_aot/videos/R_S_yt-r7PeFd-hIp0_378.mp4	0.0	156.2348029613495	0.09999704360961914
36	95.10769391059875	fix_pre	0		16.0	34.0	2.5	/experiments/knapen_aot/videos/R_S_yt-k-MRlbCOzZU_163.mp4	0.0	156.3348000049591	0.1333789825439453
36	95.23276805877686	response	0	2		34.0	2.5	/experiments/knapen_aot/videos/R_S_yt-k-MRlbCOzZU_163.mp4	0.0	156.4598741531372	
36	95.2410728931427	movie	1		301.0	34.0	2.5	/experiments/knapen_aot/videos/R_S_yt-k-MRlbCOzZU_163.mp4	0.0	156.46817898750305	2.5082881450653076
36	97.74936103820801	fix_post	2		12.0	34.0	2.5	/experiments/knapen_aot/videos/R_S_yt-k-MRlbCOzZU_163.mp4	0.0	158.97646713256836	0.09998798370361328
37	97.84934902191162	fix_pre	0		13.0	35.0	2.5	blank	1.0	159.07645511627197	0.10836601257324219
37	97.94950103759766	response	0	2		35.0	2.5	blank	1.0	159.176607131958	
37	97.95771503448486	movie	1		301.0	35.0	2.5	blank	1.0	159.18482112884521	2.508297920227051
37	100.46601295471191	fix_post	2		12.0	35.0	2.5	blank	1.0	161.69311904907227	0.10002708435058594
38	100.5660400390625	fix_pre	0		16.0	36.0	2.5	/experiments/knapen_aot/videos/R_S_yt-Ozx_f0a0ZDI_32.mp4	0.0	161.79314613342285	0.13331389427185059
38	100.69111204147339	response	0	2		36.0	2.5	/experiments/knapen_aot/videos/R_S_yt-Ozx_f0a0ZDI_32.mp4	0.0	161.91821813583374	
38	100.69935393333435	movie	1		301.0	36.0	2.5	/experiments/knapen_aot/videos/R_S_yt-Ozx_f0a0ZDI_32.mp4	0.0	161.9264600276947	2.5083460807800293
38	103.20770001411438	fix_post	2		12.0	36.0	2.5	/experiments/knapen_aot/videos/R_S_yt-Ozx_f0a0ZDI_32.mp4	0.0	164.43480610847473	0.09999704360961914
39	103.307697057724	fix_pre	0		9.0	37.0	2.5	/experiments/knapen_aot/videos/R_S_yt-Ul81y6R9YbE_12.mp4	0.0	164.53480315208435	0.07492995262145996
39	103.37447905540466	response	0	2		37.0	2.5	/experiments/knapen_aot/videos/R_S_yt-Ul81y6R9YbE_12.mp4	0.0	164.60158514976501	
39	103.38262701034546	movie	1		301.0	37.0	2.5	/experiments/knapen_aot/videos/R_S_yt-Ul81y6R9YbE_12.mp4	0.0	164.6097331047058	2.5084850788116455
39	105.8911120891571	fix_post	2		12.0	37.0	2.5	/experiments/knapen_aot/videos/R_S_yt-Ul81y6R9YbE_12.mp4	0.0	167.11821818351746	0.0998528003692627
40	105.99096488952637	fix_pre	0		11.0	38.0	2.5	/experiments/knapen_aot/videos/R_S_yt-F1X_vq0Zioc_154.mp4	0.0	167.21807098388672	0.09166216850280762
40	106.07456707954407	response	0	2		38.0	2.5	/experiments/knapen_aot/videos/R_S_yt-F1X_vq0Zioc_154.mp4	0.0	167.30167317390442	
40	106.08262705802917	movie	1		301.0	38.0	2.5	/experiments/knapen_aot/videos/R_S_yt-F1X_vq0Zioc_154.mp4	0.0	167.30973315238953	2.508352041244507
40	108.59097909927368	fix_post	2		12.0	38.0	2.5	/experiments/knapen_aot/videos/R_S_yt-F1X_vq0Zioc_154.mp4	0.0	169.81808519363403	0.10001897811889648
41	108.69099807739258	fix_pre	0		15.0	39.0	2.5	/experiments/knapen_aot/videos/R_S_yt-J1dw4AznwmQ_7.mp4	0.0	169.91810417175293	0.12497496604919434
41	108.80777788162231	response	0	2		39.0	2.5	/experiments/knapen_aot/videos/R_S_yt-J1dw4AznwmQ_7.mp4	0.0	170.03488397598267	
41	108.81597304344177	movie	1		301.0	39.0	2.5	/experiments/knapen_aot/videos/R_S_yt-J1dw4AznwmQ_7.mp4	0.0	170.04307913780212	2.5082390308380127
41	111.32421207427979	fix_post	2		12.0	39.0	2.5	/experiments/knapen_aot/videos/R_S_yt-J1dw4AznwmQ_7.mp4	0.0	172.55131816864014	0.10005879402160645
42	111.42427086830139	fix_pre	0		12.0	40.0	2.5	/experiments/knapen_aot/videos/S_ILSVRC2015_train_00638000.mp4	0.0	172.65137696266174	0.10003900527954102
42	111.51610493659973	response	0	2		40.0	2.5	/experiments/knapen_aot/videos/S_ILSVRC2015_train_00638000.mp4	0.0	172.74321103096008	
42	111.52430987358093	movie	1		301.0	40.0	2.5	/experiments/knapen_aot/videos/S_ILSVRC2015_train_00638000.mp4	0.0	172.75141596794128	2.5083041191101074
42	114.03261399269104	fix_post	2		12.0	40.0	2.5	/experiments/knapen_aot/videos/S_ILSVRC2015_train_00638000.mp4	0.0	175.2597200870514	0.09999704360961914
43	114.13261103630066	fix_pre	0		8.0	41.0	2.5	/experiments/knapen_aot/videos/S_yt-7lULOC_rSE0_747.mp4	0.0	175.359717130661	0.06666183471679688
43	114.19103503227234	response	0	2		41.0	2.5	/experiments/knapen_aot/videos/S_yt-7lULOC_rSE0_747.mp4	0.0	175.4181411266327	
43	114.19927287101746	movie	1		301.0	41.0	2.5	/experiments/knapen_aot/videos/S_yt-7lULOC_rSE0_747.mp4	0.0	175.4263789653778	2.5083720684051514
43	116.70764493942261	fix_post	2		12.0	41.0	2.5	/experiments/knapen_aot/videos/S_yt-7lULOC_rSE0_747.mp4	0.0	177.93475103378296	0.09998393058776855
44	116.80762887001038	fix_pre	0		13.0	42.0	2.5	blank	1.0	178.03473496437073	0.10827517509460449
44	116.90014600753784	response	0	2		42.0	2.5	blank	1.0	178.1272521018982	
44	116.91590404510498	movie	1		301.0	42.0	2.5	blank	1.0	178.14301013946533	2.5084128379821777
44	119.42431688308716	fix_post	2		12.0	42.0	2.5	blank	1.0	180.6514229774475	0.09998416900634766
45	119.5243010520935	fix_pre	0		13.0	43.0	2.5	/experiments/knapen_aot/videos/R_S_ILSVRC2015_train_00322000.mp4	0.0	180.75140714645386	0.10835003852844238
45	119.62440896034241	response	0	2		43.0	2.5	/experiments/knapen_aot/videos/R_S_ILSVRC2015_train_00322000.mp4	0.0	180.85151505470276	
45	119.63265109062195	movie	1		301.0	43.0	2.5	/experiments/knapen_aot/videos/R_S_ILSVRC2015_train_00322000.mp4	0.0	180.8597571849823	2.5082428455352783
45	122.14089393615723	fix_post	2		12.0	43.0	2.5	/experiments/knapen_aot/videos/R_S_ILSVRC2015_train_00322000.mp4	0.0	183.36800003051758	0.1000521183013916
46	122.24094605445862	fix_pre	0		6.0	44.0	2.5	/experiments/knapen_aot/videos/S_yt-VfASxEzDrvc_145.mp4	0.0	183.46805214881897	0.05005192756652832
46	122.27563500404358	response	0	2		44.0	2.5	/experiments/knapen_aot/videos/S_yt-VfASxEzDrvc_145.mp4	0.0	183.50274109840393	
46	122.29099798202515	movie	1		300.0	44.0	2.5	/experiments/knapen_aot/videos/S_yt-VfASxEzDrvc_145.mp4	0.0	183.5181040763855	2.5081748962402344
46	124.79917287826538	fix_post	2		12.0	44.0	2.5	/experiments/knapen_aot/videos/S_yt-VfASxEzDrvc_145.mp4	0.0	186.02627897262573	0.10001707077026367
47	124.89918994903564	fix_pre	0		11.0	45.0	2.5	/experiments/knapen_aot/videos/R_S_ILSVRC2015_train_00471000.mp4	0.0	186.126296043396	0.0917661190032959
47	124.98267006874084	response	0	2		45.0	2.5	/experiments/knapen_aot/videos/R_S_ILSVRC2015_train_00471000.mp4	0.0	186.2097761631012	
47	124.99095606803894	movie	1		301.0	45.0	2.5	/experiments/knapen_aot/videos/R_S_ILSVRC2015_train_00471000.mp4	0.0	186.2180621623993	2.5083279609680176
47	127.49928402900696	fix_post	2		12.0	45.0	2.5	/experiments/knapen_aot/videos/R_S_ILSVRC2015_train_00471000.mp4	0.0	188.7263901233673	0.09998106956481934
48	127.59926509857178	fix_pre	0		22.0	46.0	2.5	/experiments/knapen_aot/videos/S_Nh81j72Utbs_5.mp4	0.0	188.82637119293213	0.1833038330078125
48	127.77434396743774	response	0	2		46.0	2.5	/experiments/knapen_aot/videos/S_Nh81j72Utbs_5.mp4	0.0	189.0014500617981	
48	127.78256893157959	movie	1		301.0	46.0	2.5	/experiments/knapen_aot/videos/S_Nh81j72Utbs_5.mp4	0.0	189.00967502593994	2.5082781314849854
48	130.29084706306458	fix_post	2		12.0	46.0	2.5	/experiments/knapen_aot/videos/S_Nh81j72Utbs_5.mp4	0.0	191.51795315742493	0.09994101524353027
49	130.3907880783081	fix_pre	0		18.0	47.0	2.5	/experiments/knapen_aot/videos/R_S_pexels-tima-miroshnichenko-5717005.mp4	0.0	191.61789417266846	0.15009284019470215
49	130.53267693519592	response	0	2		47.0	2.5	/experiments/knapen_aot/videos/R_S_pexels-tima-miroshnichenko-5717005.mp4	0.0	191.75978302955627	
49	130.5408809185028	movie	1		165.0	47.0	2.5	/experiments/knapen_aot/videos/R_S_pexels-tima-miroshnichenko-5717005.mp4	0.0	191.76798701286316	2.508355140686035
49	133.04923605918884	fix_post	2		12.0	47.0	2.5	/experiments/knapen_aot/videos/R_S_pexels-tima-miroshnichenko-5717005.mp4	0.0	194.2763421535492	0.0999758243560791
50	133.14921188354492	fix_pre	0		4.0	48.0	2.5	blank	1.0	194.37631797790527	0.03425908088684082
50	133.1743769645691	response	0	2		48.0	2.5	blank	1.0	194.40148305892944	
50	133.18347096443176	movie	1		301.0	48.0	2.5	blank	1.0	194.41057705879211	2.507322072982788
50	135.69079303741455	fix_post	2		12.0	48.0	2.5	blank	1.0	196.9178991317749	0.10005402565002441
51	135.79084706306458	fix_pre	0		21.0	49.0	2.5	/experiments/knapen_aot/videos/S_yt-Ev39pXXfr1Y_152.mp4	0.0	197.01795315742493	0.17497491836547852
51	135.95764708518982	response	0	2		49.0	2.5	/experiments/knapen_aot/videos/S_yt-Ev39pXXfr1Y_152.mp4	0.0	197.18475317955017	
51	135.96582198143005	movie	1		299.0	49.0	2.5	/experiments/knapen_aot/videos/S_yt-Ev39pXXfr1Y_152.mp4	0.0	197.1929280757904	2.50833797454834
51	138.4741599559784	fix_post	2		12.0	49.0	2.5	/experiments/knapen_aot/videos/S_yt-Ev39pXXfr1Y_152.mp4	0.0	199.70126605033875	0.10004091262817383
52	138.57420086860657	fix_pre	0		2.0	50.0	2.5	/experiments/knapen_aot/videos/S_production_ID_5199636.mp4	0.0	199.80130696296692	0.01666116714477539
52	138.5766520500183	response	0	2		50.0	2.5	/experiments/knapen_aot/videos/S_production_ID_5199636.mp4	0.0	199.80375814437866	
52	138.59086203575134	movie	1		165.0	50.0	2.5	/experiments/knapen_aot/videos/S_production_ID_5199636.mp4	0.0	199.8179681301117	2.5083179473876953
52	141.09917998313904	fix_post	2		12.0	50.0	2.5	/experiments/knapen_aot/videos/S_production_ID_5199636.mp4	0.0	202.3262860774994	0.10006594657897949
53	141.19924592971802	fix_pre	0		10.0	51.0	2.5	/experiments/knapen_aot/videos/S_yt-mdLT282PVbE_6.mp4	0.0	202.42635202407837	0.08334708213806152
53	141.27426099777222	response	0	2		51.0	2.5	/experiments/knapen_aot/videos/S_yt-mdLT282PVbE_6.mp4	0.0	202.50136709213257	
53	141.28259301185608	movie	1		301.0	51.0	2.5	/experiments/knapen_aot/videos/S_yt-mdLT282PVbE_6.mp4	0.0	202.50969910621643	2.5082480907440186
53	143.7908411026001	fix_post	2		12.0	51.0	2.5	/experiments/knapen_aot/videos/S_yt-mdLT282PVbE_6.mp4	0.0	205.01794719696045	0.0999748706817627
54	143.89081597328186	fix_pre	0		8.0	52.0	2.5	/experiments/knapen_aot/videos/R_S_yt-dO0OuozAgt0_225.mp4	0.0	205.1179220676422	0.06665205955505371
54	143.94934797286987	response	0	2		52.0	2.5	/experiments/knapen_aot/videos/R_S_yt-dO0OuozAgt0_225.mp4	0.0	205.17645406723022	
54	143.9574680328369	movie	1		301.0	52.0	2.5	/experiments/knapen_aot/videos/R_S_yt-dO0OuozAgt0_225.mp4	0.0	205.18457412719727	2.508331060409546
54	146.46579909324646	fix_post	2		12.0	52.0	2.5	/experiments/knapen_aot/videos/R_S_yt-dO0OuozAgt0_225.mp4	0.0	207.6929051876068	0.09993290901184082
55	146.5657320022583	fix_pre	0		18.0	53.0	2.5	/experiments/knapen_aot/videos/S_yt-mHLTJkMrkZI_143.mp4	0.0	207.79283809661865	0.1500849723815918
55	146.70761108398438	response	0	2		53.0	2.5	/experiments/knapen_aot/videos/S_yt-mHLTJkMrkZI_143.mp4	0.0	207.93471717834473	
55	146.7158169746399	movie	1		301.0	53.0	2.5	/experiments/knapen_aot/videos/S_yt-mHLTJkMrkZI_143.mp4	0.0	207.94292306900024	2.508301019668579
55	149.22411799430847	fix_post	2		12.0	53.0	2.5	/experiments/knapen_aot/videos/S_yt-mHLTJkMrkZI_143.mp4	0.0	210.45122408866882	0.10004305839538574
56	149.32416105270386	fix_pre	0		12.0	54.0	2.5	/experiments/knapen_aot/videos/R_S_ILSVRC2015_train_00569002.mp4	0.0	210.5512671470642	0.0998988151550293
56	149.41595888137817	response	0	2		54.0	2.5	/experiments/knapen_aot/videos/R_S_ILSVRC2015_train_00569002.mp4	0.0	210.64306497573853	
56	149.4240598678589	movie	1		301.0	54.0	2.5	/experiments/knapen_aot/videos/R_S_ILSVRC2015_train_00569002.mp4	0.0	210.65116596221924	2.5084171295166016
56	151.9324769973755	fix_post	2		12.0	54.0	2.5	/experiments/knapen_aot/videos/R_S_ILSVRC2015_train_00569002.mp4	0.0	213.15958309173584	0.09999394416809082
57	152.03247094154358	fix_pre	0		26.0	55.0	2.5	blank	1.0	213.25957703590393	0.21661901473999023
57	152.2409119606018	response	0	2		55.0	2.5	blank	1.0	213.46801805496216	
57	152.24908995628357	movie	1		301.0	55.0	2.5	blank	1.0	213.47619605064392	2.5083820819854736
57	154.75747203826904	fix_post	2		12.0	55.0	2.5	blank	1.0	215.9845781326294	0.09995889663696289
58	154.857430934906	fix_pre	0		21.0	56.0	2.5	/experiments/knapen_aot/videos/S_yt-GytLOB9Qjro_76.mp4	0.0	216.08453702926636	0.1750011444091797
58	155.02422308921814	response	0	2		56.0	2.5	/experiments/knapen_aot/videos/S_yt-GytLOB9Qjro_76.mp4	0.0	216.2513291835785	
58	155.03243207931519	movie	1		301.0	56.0	2.5	/experiments/knapen_aot/videos/S_yt-GytLOB9Qjro_76.mp4	0.0	216.25953817367554	2.5083529949188232
58	157.540785074234	fix_post	2		12.0	56.0	2.5	/experiments/knapen_aot/videos/S_yt-GytLOB9Qjro_76.mp4	0.0	218.76789116859436	0.09997797012329102
59	157.6407630443573	fix_pre	0		20.0	57.0	2.5	/experiments/knapen_aot/videos/S_yt-UKrWbJEs7pw_74.mp4	0.0	218.86786913871765	0.16751384735107422
59	157.79171204566956	response	0	2		57.0	2.5	/experiments/knapen_aot/videos/S_yt-UKrWbJEs7pw_74.mp4	0.0	219.0188181400299	
59	157.80827689170837	movie	1		301.0	57.0	2.5	/experiments/knapen_aot/videos/S_yt-UKrWbJEs7pw_74.mp4	0.0	219.03538298606873	2.507513999938965
59	160.31579089164734	fix_post	2		12.0	57.0	2.5	/experiments/knapen_aot/videos/S_yt-UKrWbJEs7pw_74.mp4	0.0	221.5428969860077	0.0999910831451416
60	160.41578197479248	fix_pre	0		11.0	58.0	2.5	/experiments/knapen_aot/videos/S_yt-c5IgOXX8YZ0_24.mp4	0.0	221.64288806915283	0.09168291091918945
60	160.4992480278015	response	0	2		58.0	2.5	/experiments/knapen_aot/videos/S_yt-c5IgOXX8YZ0_24.mp4	0.0	221.72635412216187	
60	160.50746488571167	movie	1		301.0	58.0	2.5	/experiments/knapen_aot/videos/S_yt-c5IgOXX8YZ0_24.mp4	0.0	221.73457098007202	2.50835919380188
60	163.01582407951355	fix_post	2		12.0	58.0	2.5	/experiments/knapen_aot/videos/S_yt-c5IgOXX8YZ0_24.mp4	0.0	224.2429301738739	0.09993195533752441
61	163.11575603485107	fix_pre	0		7.0	59.0	2.5	/experiments/knapen_aot/videos/S_pexels-c-technical-6753390.mp4	0.0	224.34286212921143	0.05833101272583008
61	163.1660599708557	response	0	2		59.0	2.5	/experiments/knapen_aot/videos/S_pexels-c-technical-6753390.mp4	0.0	224.39316606521606	
61	163.1740870475769	movie	1		204.0	59.0	2.5	/experiments/knapen_aot/videos/S_pexels-c-technical-6753390.mp4	0.0	224.40119314193726	2.508267879486084
61	165.682354927063	fix_post	2		12.0	59.0	2.5	/experiments/knapen_aot/videos/S_pexels-c-technical-6753390.mp4	0.0	226.90946102142334	0.1000981330871582
62	165.78245306015015	fix_pre	0		2.0	60.0	2.5	/experiments/knapen_aot/videos/R_S_yt-O6W6CZPXvlA_15.mp4	0.0	227.0095591545105	0.016652822494506836
62	165.78486609458923	response	0	2		60.0	2.5	/experiments/knapen_aot/videos/R_S_yt-O6W6CZPXvlA_15.mp4	0.0	227.01197218894958	
62	165.79910588264465	movie	1		301.0	60.0	2.5	/experiments/knapen_aot/videos/R_S_yt-O6W6CZPXvlA_15.mp4	0.0	227.026211977005	2.508280038833618
62	168.30738592147827	fix_post	2		12.0	60.0	2.5	/experiments/knapen_aot/videos/R_S_yt-O6W6CZPXvlA_15.mp4	0.0	229.53449201583862	0.1000070571899414
63	168.4073929786682	fix_pre	0		8.0	61.0	2.5	blank	1.0	229.63449907302856	0.06740903854370117
63	168.46602201461792	response	0	2		61.0	2.5	blank	1.0	229.69312810897827	
63	168.4748020172119	movie	1		301.0	61.0	2.5	blank	1.0	229.70190811157227	2.5075478553771973
63	170.9823498725891	fix_post	2		12.0	61.0	2.5	blank	1.0	232.20945596694946	0.10002422332763672
64	171.08237409591675	fix_pre	0		14.0	62.0	2.5	/experiments/knapen_aot/videos/R_S_yt-RlHmMGUjT9E_130.mp4	0.0	232.3094801902771	0.11666679382324219
64	171.19075202941895	response	0	2		62.0	2.5	/experiments/knapen_aot/videos/R_S_yt-RlHmMGUjT9E_130.mp4	0.0	232.4178581237793	
64	171.19904088974	movie	1		299.0	62.0	2.5	/experiments/knapen_aot/videos/R_S_yt-RlHmMGUjT9E_130.mp4	0.0	232.42614698410034	2.5083320140838623
64	173.70737290382385	fix_post	2		12.0	62.0	2.5	/experiments/knapen_aot/videos/R_S_yt-RlHmMGUjT9E_130.mp4	0.0	234.9344789981842	0.09995198249816895
65	173.80732488632202	fix_pre	0		5.0	63.0	2.5	/experiments/knapen_aot/videos/S_yt-J1dw4AznwmQ_7.mp4	0.0	235.03443098068237	0.04253506660461426
65	173.84077501296997	response	0	2		63.0	2.5	/experiments/knapen_aot/videos/S_yt-J1dw4AznwmQ_7.mp4	0.0	235.06788110733032	
65	173.84985995292664	movie	1		301.0	63.0	2.5	/experiments/knapen_aot/videos/S_yt-J1dw4AznwmQ_7.mp4	0.0	235.076966047287	2.5074899196624756
65	176.3573498725891	fix_post	2		12.0	63.0	2.5	/experiments/knapen_aot/videos/S_yt-J1dw4AznwmQ_7.mp4	0.0	237.58445596694946	0.10001206398010254
66	176.4573619365692	fix_pre	0		22.0	64.0	2.5	/experiments/knapen_aot/videos/S_yt-e1RAhIW6WAs_535.mp4	0.0	237.68446803092957	0.18401694297790527
66	176.6324999332428	response	0	2		64.0	2.5	/experiments/knapen_aot/videos/S_yt-e1RAhIW6WAs_535.mp4	0.0	237.85960602760315	
66	176.64137887954712	movie	1		300.0	64.0	2.5	/experiments/knapen_aot/videos/S_yt-e1RAhIW6WAs_535.mp4	0.0	237.86848497390747	2.5076839923858643
66	179.14906287193298	fix_post	2		12.0	64.0	2.5	/experiments/knapen_aot/videos/S_yt-e1RAhIW6WAs_535.mp4	0.0	240.37616896629333	0.09999799728393555
67	179.24906086921692	fix_pre	0		9.0	65.0	2.5	/experiments/knapen_aot/videos/R_S_comp_LW_L001_C006_PSNK_DENOISE_v02_SDR_PS_FINAL_20180709_SDR_2K_AVC.mp4	0.0	240.47616696357727	0.07500815391540527
67	179.31589794158936	response	0	2		65.0	2.5	/experiments/knapen_aot/videos/R_S_comp_LW_L001_C006_PSNK_DENOISE_v02_SDR_PS_FINAL_20180709_SDR_2K_AVC.mp4	0.0	240.5430040359497	
67	179.32406902313232	movie	1		165.0	65.0	2.5	/experiments/knapen_aot/videos/R_S_comp_LW_L001_C006_PSNK_DENOISE_v02_SDR_PS_FINAL_20180709_SDR_2K_AVC.mp4	0.0	240.55117511749268	2.5082850456237793
67	181.8323540687561	fix_post	2		12.0	65.0	2.5	/experiments/knapen_aot/videos/R_S_comp_LW_L001_C006_PSNK_DENOISE_v02_SDR_PS_FINAL_20180709_SDR_2K_AVC.mp4	0.0	243.05946016311646	0.09997797012329102
68	181.9323320388794	fix_pre	0		4.0	66.0	2.5	/experiments/knapen_aot/videos/S_yt-LGwEki4ghNw_69.mp4	0.0	243.15943813323975	0.03340291976928711
68	181.95757389068604	response	0	2		66.0	2.5	/experiments/knapen_aot/videos/S_yt-LGwEki4ghNw_69.mp4	0.0	243.1846799850464	
68	181.96573495864868	movie	1		301.0	66.0	2.5	/experiments/knapen_aot/videos/S_yt-LGwEki4ghNw_69.mp4	0.0	243.19284105300903	2.5082039833068848
68	184.47393894195557	fix_post	2		12.0	66.0	2.5	/experiments/knapen_aot/videos/S_yt-LGwEki4ghNw_69.mp4	0.0	245.70104503631592	0.10004901885986328
69	184.57398796081543	fix_pre	0		6.0	67.0	2.5	/experiments/knapen_aot/videos/R_S_yt-6aqg1P9YqR8_38.mp4	0.0	245.80109405517578	0.04999995231628418
69	184.61582708358765	response	0	2		67.0	2.5	/experiments/knapen_aot/videos/R_S_yt-6aqg1P9YqR8_38.mp4	0.0	245.842933177948	
69	184.6239879131317	movie	1		301.0	67.0	2.5	/experiments/knapen_aot/videos/R_S_yt-6aqg1P9YqR8_38.mp4	0.0	245.85109400749207	2.5083181858062744
69	187.132306098938	fix_post	2		12.0	67.0	2.5	/experiments/knapen_aot/videos/R_S_yt-6aqg1P9YqR8_38.mp4	0.0	248.35941219329834	0.09997081756591797
70	187.2322769165039	fix_pre	0		28.0	68.0	2.5	/experiments/knapen_aot/videos/R_S_yt-wVMhACNFF-M_154.mp4	0.0	248.45938301086426	0.2333521842956543
70	187.45740795135498	response	0	2		68.0	2.5	/experiments/knapen_aot/videos/R_S_yt-wVMhACNFF-M_154.mp4	0.0	248.68451404571533	
70	187.46562910079956	movie	1		301.0	68.0	2.5	/experiments/knapen_aot/videos/R_S_yt-wVMhACNFF-M_154.mp4	0.0	248.6927351951599	2.50834584236145
70	189.973974943161	fix_post	2		12.0	68.0	2.5	/experiments/knapen_aot/videos/R_S_yt-wVMhACNFF-M_154.mp4	0.0	251.20108103752136	0.09995913505554199
71	190.07393407821655	fix_pre	0		16.0	69.0	2.5	/experiments/knapen_aot/videos/S_comp_DB_D008_C010_PSNK_v21_SDR_PS_20180914_F0F16157_SDR_2K_AVC.mp4	0.0	251.3010401725769	0.1333308219909668
71	190.19913601875305	response	0	2		69.0	2.5	/experiments/knapen_aot/videos/S_comp_DB_D008_C010_PSNK_v21_SDR_PS_20180914_F0F16157_SDR_2K_AVC.mp4	0.0	251.4262421131134	
71	190.20726490020752	movie	1		165.0	69.0	2.5	/experiments/knapen_aot/videos/S_comp_DB_D008_C010_PSNK_v21_SDR_PS_20180914_F0F16157_SDR_2K_AVC.mp4	0.0	251.43437099456787	2.508368968963623
71	192.71563386917114	fix_post	2		11.0	69.0	2.5	/experiments/knapen_aot/videos/S_comp_DB_D008_C010_PSNK_v21_SDR_PS_20180914_F0F16157_SDR_2K_AVC.mp4	0.0	253.9427399635315	0.09230422973632812
71	192.79932808876038	response	2	2		69.0	2.5	/experiments/knapen_aot/videos/S_comp_DB_D008_C010_PSNK_v21_SDR_PS_20180914_F0F16157_SDR_2K_AVC.mp4	0.0	254.02643418312073	
72	192.80793809890747	fix_pre	0		48.0	70.0	2.5	blank	1.0	254.03504419326782	0.39940881729125977
72	193.1990089416504	response	0	2		70.0	2.5	blank	1.0	254.42611503601074	
72	193.20734691619873	movie	1		301.0	70.0	2.5	blank	1.0	254.43445301055908	2.5082809925079346
72	195.71562790870667	fix_post	2		12.0	70.0	2.5	blank	1.0	256.942734003067	0.09995913505554199
73	195.8155870437622	fix_pre	0		19.0	71.0	2.5	/experiments/knapen_aot/videos/S_yt-Faxdis4m3Fw_9.mp4	0.0	257.04269313812256	0.1589369773864746
73	195.9657769203186	response	0	2		71.0	2.5	/experiments/knapen_aot/videos/S_yt-Faxdis4m3Fw_9.mp4	0.0	257.19288301467896	
73	195.97452402114868	movie	1		301.0	71.0	2.5	/experiments/knapen_aot/videos/S_yt-Faxdis4m3Fw_9.mp4	0.0	257.20163011550903	2.5076980590820312
73	198.4822220802307	fix_post	2		12.0	71.0	2.5	/experiments/knapen_aot/videos/S_yt-Faxdis4m3Fw_9.mp4	0.0	259.70932817459106	0.10003995895385742
74	198.58226203918457	fix_pre	0		13.0	72.0	2.5	/experiments/knapen_aot/videos/S_yt-qiPhBL4lBr0_44.mp4	0.0	259.8093681335449	0.10828495025634766
74	198.6823489665985	response	0	2		72.0	2.5	/experiments/knapen_aot/videos/S_yt-qiPhBL4lBr0_44.mp4	0.0	259.90945506095886	
74	198.69054698944092	movie	1		301.0	72.0	2.5	/experiments/knapen_aot/videos/S_yt-qiPhBL4lBr0_44.mp4	0.0	259.91765308380127	2.5084118843078613
74	201.19895887374878	fix_post	2		12.0	72.0	2.5	/experiments/knapen_aot/videos/S_yt-qiPhBL4lBr0_44.mp4	0.0	262.42606496810913	0.09993314743041992
75	201.2988920211792	fix_pre	0		11.0	73.0	2.5	/experiments/knapen_aot/videos/R_S_yt-7bSTxOajpjc_58.mp4	0.0	262.52599811553955	0.09222602844238281
75	201.38234901428223	response	0	2		73.0	2.5	/experiments/knapen_aot/videos/R_S_yt-7bSTxOajpjc_58.mp4	0.0	262.6094551086426	
75	201.39111804962158	movie	1		300.0	73.0	2.5	/experiments/knapen_aot/videos/R_S_yt-7bSTxOajpjc_58.mp4	0.0	262.61822414398193	2.5077760219573975
75	203.89889407157898	fix_post	2		12.0	73.0	2.5	/experiments/knapen_aot/videos/R_S_yt-7bSTxOajpjc_58.mp4	0.0	265.12600016593933	0.1000218391418457
76	203.99891591072083	fix_pre	0		13.0	74.0	2.5	/experiments/knapen_aot/videos/R_S_yt-BAQ3Xhm_PPE_23.mp4	0.0	265.2260220050812	0.10834002494812012
76	204.09910488128662	response	0	2		74.0	2.5	/experiments/knapen_aot/videos/R_S_yt-BAQ3Xhm_PPE_23.mp4	0.0	265.326210975647	
76	204.10725593566895	movie	1		301.0	74.0	2.5	/experiments/knapen_aot/videos/R_S_yt-BAQ3Xhm_PPE_23.mp4	0.0	265.3343620300293	2.5082550048828125
76	206.61551094055176	fix_post	2		12.0	74.0	2.5	/experiments/knapen_aot/videos/R_S_yt-BAQ3Xhm_PPE_23.mp4	0.0	267.8426170349121	0.10003995895385742
77	206.71555089950562	fix_pre	0		5.0	75.0	2.5	blank	1.0	267.94265699386597	0.044525146484375
77	206.74918508529663	response	0	2		75.0	2.5	blank	1.0	267.976291179657	
77	206.76007604599	movie	1		301.0	75.0	2.5	blank	1.0	267.98718214035034	2.505444049835205
77	209.2655200958252	fix_post	2		12.0	75.0	2.5	blank	1.0	270.49262619018555	0.09992194175720215
78	209.3654420375824	fix_pre	0		17.0	76.0	2.5	/experiments/knapen_aot/videos/S_pexels-vlada-karpovich-8044792.mp4	0.0	270.59254813194275	0.14179086685180664
78	209.4990429878235	response	0	2		76.0	2.5	/experiments/knapen_aot/videos/S_pexels-vlada-karpovich-8044792.mp4	0.0	270.72614908218384	
78	209.5072329044342	movie	1		163.0	76.0	2.5	/experiments/knapen_aot/videos/S_pexels-vlada-karpovich-8044792.mp4	0.0	270.73433899879456	2.5083491802215576
78	212.01558208465576	fix_post	2		12.0	76.0	2.5	/experiments/knapen_aot/videos/S_pexels-vlada-karpovich-8044792.mp4	0.0	273.2426881790161	0.10003399848937988
79	212.11561608314514	fix_pre	0		6.0	77.0	2.5	/experiments/knapen_aot/videos/R_S_yt-n_eO-7KedAE_21.mp4	0.0	273.3427221775055	0.049978017807006836
79	212.1573588848114	response	0	2		77.0	2.5	/experiments/knapen_aot/videos/R_S_yt-n_eO-7KedAE_21.mp4	0.0	273.38446497917175	
79	212.16559410095215	movie	1		299.0	77.0	2.5	/experiments/knapen_aot/videos/R_S_yt-n_eO-7KedAE_21.mp4	0.0	273.3927001953125	2.508305788040161
79	214.6738998889923	fix_post	2		12.0	77.0	2.5	/experiments/knapen_aot/videos/R_S_yt-n_eO-7KedAE_21.mp4	0.0	275.90100598335266	0.09999418258666992
80	214.77389407157898	fix_pre	0		4.0	78.0	2.5	/experiments/knapen_aot/videos/S_production_ID_4360158.mp4	0.0	276.00100016593933	0.034047842025756836
80	214.79171299934387	response	0	2		78.0	2.5	/experiments/knapen_aot/videos/S_production_ID_4360158.mp4	0.0	276.0188190937042	
80	214.80794191360474	movie	1		165.0	78.0	2.5	/experiments/knapen_aot/videos/S_production_ID_4360158.mp4	0.0	276.0350480079651	2.50758695602417
80	217.3155288696289	fix_post	2		12.0	78.0	2.5	/experiments/knapen_aot/videos/S_production_ID_4360158.mp4	0.0	278.54263496398926	0.1000981330871582
81	217.41562700271606	fix_pre	0		10.0	79.0	2.5	/experiments/knapen_aot/videos/R_S_yt-K_gHa2x2OQA_319.mp4	0.0	278.6427330970764	0.08319997787475586
81	217.4906129837036	response	0	2		79.0	2.5	/experiments/knapen_aot/videos/R_S_yt-K_gHa2x2OQA_319.mp4	0.0	278.71771907806396	
81	217.49882698059082	movie	1		301.0	79.0	2.5	/experiments/knapen_aot/videos/R_S_yt-K_gHa2x2OQA_319.mp4	0.0	278.7259330749512	2.5083088874816895
81	220.0071358680725	fix_post	2		12.0	79.0	2.5	/experiments/knapen_aot/videos/R_S_yt-K_gHa2x2OQA_319.mp4	0.0	281.23424196243286	0.10001015663146973
81	220.08222699165344	response	2	2		79.0	2.5	/experiments/knapen_aot/videos/R_S_yt-K_gHa2x2OQA_319.mp4	0.0	281.3093330860138	
82	220.10714602470398	fix_pre	0		48.0	80.0	2.5	/experiments/knapen_aot/videos/R_S_yt-BLmwmX-mni8_56.mp4	0.0	281.33425211906433	0.40000200271606445
82	220.49897503852844	response	0	2		80.0	2.5	/experiments/knapen_aot/videos/R_S_yt-BLmwmX-mni8_56.mp4	0.0	281.7260811328888	
82	220.50714802742004	movie	1		301.0	80.0	2.5	/experiments/knapen_aot/videos/R_S_yt-BLmwmX-mni8_56.mp4	0.0	281.7342541217804	2.5083749294281006
82	223.01552295684814	fix_post	2		12.0	80.0	2.5	/experiments/knapen_aot/videos/R_S_yt-BLmwmX-mni8_56.mp4	0.0	284.2426290512085	0.10005497932434082
82	223.10801100730896	response	2	2		80.0	2.5	/experiments/knapen_aot/videos/R_S_yt-BLmwmX-mni8_56.mp4	0.0	284.3351171016693	
83	223.11557793617249	fix_pre	0		40.0	81.0	2.5	/experiments/knapen_aot/videos/S_ILSVRC2015_train_00693000.mp4	0.0	284.34268403053284	0.3333320617675781
83	223.44058299064636	response	0	2		81.0	2.5	/experiments/knapen_aot/videos/S_ILSVRC2015_train_00693000.mp4	0.0	284.6676890850067	
83	223.44890999794006	movie	1		301.0	81.0	2.5	/experiments/knapen_aot/videos/S_ILSVRC2015_train_00693000.mp4	0.0	284.6760160923004	2.508255958557129
83	225.9571659564972	fix_post	2		12.0	81.0	2.5	/experiments/knapen_aot/videos/S_ILSVRC2015_train_00693000.mp4	0.0	287.18427205085754	0.09993600845336914
84	226.05710196495056	fix_pre	0		11.0	82.0	2.5	/experiments/knapen_aot/videos/R_S_yt-NFb0SUCeiro_158.mp4	0.0	287.2842080593109	0.09169697761535645
84	226.14079809188843	response	0	2		82.0	2.5	/experiments/knapen_aot/videos/R_S_yt-NFb0SUCeiro_158.mp4	0.0	287.3679041862488	
84	226.14879894256592	movie	1		301.0	82.0	2.5	/experiments/knapen_aot/videos/R_S_yt-NFb0SUCeiro_158.mp4	0.0	287.37590503692627	2.50839900970459
84	228.6571979522705	fix_post	2		12.0	82.0	2.5	/experiments/knapen_aot/videos/R_S_yt-NFb0SUCeiro_158.mp4	0.0	289.88430404663086	0.09991812705993652
85	228.75711607933044	fix_pre	0		3.0	83.0	2.5	blank	1.0	289.9842221736908	0.025059938430786133
85	228.7739040851593	response	0	2		83.0	2.5	blank	1.0	290.00101017951965	
85	228.78217601776123	movie	1		301.0	83.0	2.5	blank	1.0	290.0092821121216	2.5082719326019287
85	231.29044795036316	fix_post	2		12.0	83.0	2.5	blank	1.0	292.5175540447235	0.10040712356567383
87	231.39085507392883	stim	0		97.0					292.6179611682892	0.8079228401184082
87	231.57382106781006	response	0	2						292.8009271621704	
87	232.1882050037384	response	0	space						293.41531109809875	
