trial_nr	onset	event_type	phase	response	nr_frames	movie_index	movie_duration	movie_file	blank	onset_abs	duration
0	0.1333482265472412	stim	0		60.0					74.75707817077637	0.500471830368042
0	0.625136137008667	response	0	space						75.2488660812378	
1	0.6338200569152832	stim	0		121.0					75.25755000114441	1.0074419975280762
1	1.6412620544433594	stim	1		120.0					76.26499199867249	1.0000331401824951
2	2.6412951946258545	fix_pre	0		332.0	0.0	2.5	/experiments/knapen_aot/videos/R_S_production_ID_4122384.mp4	0.0	77.26502513885498	2.766587972640991
2	5.399641036987305	response	0	space		0.0	2.5	/experiments/knapen_aot/videos/R_S_production_ID_4122384.mp4	0.0	80.02337098121643	
2	5.407883167266846	movie	1		168.0	0.0	2.5	/experiments/knapen_aot/videos/R_S_production_ID_4122384.mp4	0.0	80.03161311149597	2.50833797454834
2	7.9162211418151855	fix_post	2		12.0	0.0	2.5	/experiments/knapen_aot/videos/R_S_production_ID_4122384.mp4	0.0	82.53995108604431	0.10003805160522461
3	8.01625919342041	fix_pre	0		12.0	1.0	2.5	/experiments/knapen_aot/videos/R_S_yt-ZBhTpmrAlUY_70.mp4	0.0	82.63998913764954	0.10318779945373535
3	8.106611013412476	response	0	4		1.0	2.5	/experiments/knapen_aot/videos/R_S_yt-ZBhTpmrAlUY_70.mp4	0.0	82.7303409576416	
3	8.119446992874146	movie	1		296.0	1.0	2.5	/experiments/knapen_aot/videos/R_S_yt-ZBhTpmrAlUY_70.mp4	0.0	82.74317693710327	2.5051090717315674
3	10.624556064605713	fix_post	2		12.0	1.0	2.5	/experiments/knapen_aot/videos/R_S_yt-ZBhTpmrAlUY_70.mp4	0.0	85.24828600883484	0.10001611709594727
4	10.72457218170166	fix_pre	0		25.0	2.0	2.5	/experiments/knapen_aot/videos/S_pexels-rodnae-productions-5544703.mp4	0.0	85.34830212593079	0.20832586288452148
4	10.924700021743774	response	0	2		2.0	2.5	/experiments/knapen_aot/videos/S_pexels-rodnae-productions-5544703.mp4	0.0	85.5484299659729	
4	10.932898044586182	movie	1		168.0	2.0	2.5	/experiments/knapen_aot/videos/S_pexels-rodnae-productions-5544703.mp4	0.0	85.55662798881531	2.508366107940674
4	13.441264152526855	fix_post	2		12.0	2.0	2.5	/experiments/knapen_aot/videos/S_pexels-rodnae-productions-5544703.mp4	0.0	88.06499409675598	0.09993505477905273
5	13.541199207305908	fix_pre	0		32.0	3.0	2.5	/experiments/knapen_aot/videos/S_yt-w_C-15eJeCQ_191.mp4	0.0	88.16492915153503	0.26677894592285156
5	13.799669027328491	response	0	4		3.0	2.5	/experiments/knapen_aot/videos/S_yt-w_C-15eJeCQ_191.mp4	0.0	88.42339897155762	
5	13.80797815322876	movie	1		301.0	3.0	2.5	/experiments/knapen_aot/videos/S_yt-w_C-15eJeCQ_191.mp4	0.0	88.43170809745789	2.5084030628204346
5	16.316381216049194	fix_post	2		12.0	3.0	2.5	/experiments/knapen_aot/videos/S_yt-w_C-15eJeCQ_191.mp4	0.0	90.94011116027832	0.09987998008728027
6	16.416261196136475	fix_pre	0		42.0	4.0	2.5	/experiments/knapen_aot/videos/R_S_yt-AbJBxqEYoMg_105.mp4	0.0	91.0399911403656	0.34996581077575684
6	16.758092164993286	response	0	4		4.0	2.5	/experiments/knapen_aot/videos/R_S_yt-AbJBxqEYoMg_105.mp4	0.0	91.38182210922241	
6	16.76622700691223	movie	1		301.0	4.0	2.5	/experiments/knapen_aot/videos/R_S_yt-AbJBxqEYoMg_105.mp4	0.0	91.38995695114136	2.5083181858062744
6	19.274545192718506	fix_post	2		12.0	4.0	2.5	/experiments/knapen_aot/videos/R_S_yt-AbJBxqEYoMg_105.mp4	0.0	93.89827513694763	0.10013103485107422
7	19.37467622756958	fix_pre	0		28.0	5.0	2.5	blank	1.0	93.9984061717987	0.23318886756896973
7	19.59966206550598	response	0	2		5.0	2.5	blank	1.0	94.22339200973511	
7	19.60786509513855	movie	1		301.0	5.0	2.5	blank	1.0	94.23159503936768	2.5082969665527344
7	22.116162061691284	fix_post	2		12.0	5.0	2.5	blank	1.0	96.73989200592041	0.10047101974487305
8	22.216633081436157	fix_pre	0		20.0	6.0	2.5	/experiments/knapen_aot/videos/S_Xq0a2BWE3zA_53.mp4	0.0	96.84036302566528	0.16659998893737793
8	22.374651193618774	response	0	4		6.0	2.5	/experiments/knapen_aot/videos/S_Xq0a2BWE3zA_53.mp4	0.0	96.9983811378479	
8	22.383233070373535	movie	1		301.0	6.0	2.5	/experiments/knapen_aot/videos/S_Xq0a2BWE3zA_53.mp4	0.0	97.00696301460266	2.507902145385742
8	24.891135215759277	fix_post	2		12.0	6.0	2.5	/experiments/knapen_aot/videos/S_Xq0a2BWE3zA_53.mp4	0.0	99.5148651599884	0.1000528335571289
9	24.991188049316406	fix_pre	0		27.0	7.0	2.5	/experiments/knapen_aot/videos/R_S_yt-s-J3C6e5A3Q_18.mp4	0.0	99.61491799354553	0.22535395622253418
9	25.20798110961914	response	0	2		7.0	2.5	/experiments/knapen_aot/videos/R_S_yt-s-J3C6e5A3Q_18.mp4	0.0	99.83171105384827	
9	25.21654200553894	movie	1		301.0	7.0	2.5	/experiments/knapen_aot/videos/R_S_yt-s-J3C6e5A3Q_18.mp4	0.0	99.84027194976807	2.5080389976501465
9	27.724581003189087	fix_post	2		12.0	7.0	2.5	/experiments/knapen_aot/videos/R_S_yt-s-J3C6e5A3Q_18.mp4	0.0	102.34831094741821	0.09988808631896973
10	27.824469089508057	fix_pre	0		29.0	8.0	2.5	/experiments/knapen_aot/videos/R_S_comp_A103_C002_0205DG_v12_SDR_FINAL_20180706_SDR_2K_AVC.mp4	0.0	102.44819903373718	0.24171113967895508
10	28.0504891872406	response	0	4		8.0	2.5	/experiments/knapen_aot/videos/R_S_comp_A103_C002_0205DG_v12_SDR_FINAL_20180706_SDR_2K_AVC.mp4	0.0	102.67421913146973	
10	28.06618022918701	movie	1		164.0	8.0	2.5	/experiments/knapen_aot/videos/R_S_comp_A103_C002_0205DG_v12_SDR_FINAL_20180706_SDR_2K_AVC.mp4	0.0	102.68991017341614	2.508248805999756
10	30.574429035186768	fix_post	2		12.0	8.0	2.5	/experiments/knapen_aot/videos/R_S_comp_A103_C002_0205DG_v12_SDR_FINAL_20180706_SDR_2K_AVC.mp4	0.0	105.1981589794159	0.1004331111907959
11	30.674862146377563	fix_pre	0		31.0	9.0	2.5	/experiments/knapen_aot/videos/R_S_yt-14tjqjjjAEI_15.mp4	0.0	105.29859209060669	0.2579638957977295
11	30.924548149108887	response	0	2		9.0	2.5	/experiments/knapen_aot/videos/R_S_yt-14tjqjjjAEI_15.mp4	0.0	105.54827809333801	
11	30.932826042175293	movie	1		301.0	9.0	2.5	/experiments/knapen_aot/videos/R_S_yt-14tjqjjjAEI_15.mp4	0.0	105.55655598640442	2.508373975753784
11	33.44120001792908	fix_post	2		12.0	9.0	2.5	/experiments/knapen_aot/videos/R_S_yt-14tjqjjjAEI_15.mp4	0.0	108.0649299621582	0.09999513626098633
12	33.54119515419006	fix_pre	0		14.0	10.0	2.5	/experiments/knapen_aot/videos/R_S_comp_C004_C003_PS_v01_SDR_PS_20180925_SDR_2K_AVC.mp4	0.0	108.16492509841919	0.11664986610412598
12	33.64957904815674	response	0	4		10.0	2.5	/experiments/knapen_aot/videos/R_S_comp_C004_C003_PS_v01_SDR_PS_20180925_SDR_2K_AVC.mp4	0.0	108.27330899238586	
12	33.65784502029419	movie	1		171.0	10.0	2.5	/experiments/knapen_aot/videos/R_S_comp_C004_C003_PS_v01_SDR_PS_20180925_SDR_2K_AVC.mp4	0.0	108.28157496452332	2.5082950592041016
12	36.16614007949829	fix_post	2		12.0	10.0	2.5	/experiments/knapen_aot/videos/R_S_comp_C004_C003_PS_v01_SDR_PS_20180925_SDR_2K_AVC.mp4	0.0	110.78987002372742	0.09998106956481934
13	36.26612114906311	fix_pre	0		12.0	11.0	2.5	/experiments/knapen_aot/videos/S_production_ID_5199636.mp4	0.0	110.88985109329224	0.10003995895385742
13	36.35794115066528	response	0	2		11.0	2.5	/experiments/knapen_aot/videos/S_production_ID_5199636.mp4	0.0	110.98167109489441	
13	36.36616110801697	movie	1		165.0	11.0	2.5	/experiments/knapen_aot/videos/S_production_ID_5199636.mp4	0.0	110.9898910522461	2.5083000659942627
13	38.87446117401123	fix_post	2		12.0	11.0	2.5	/experiments/knapen_aot/videos/S_production_ID_5199636.mp4	0.0	113.49819111824036	0.09995102882385254
14	38.97441220283508	fix_pre	0		25.0	12.0	2.5	blank	1.0	113.59814214706421	0.20839786529541016
14	39.16704607009888	response	0	4		12.0	2.5	blank	1.0	113.790776014328	
14	39.18281006813049	movie	1		301.0	12.0	2.5	blank	1.0	113.80654001235962	2.5082881450653076
14	41.6910982131958	fix_post	2		12.0	12.0	2.5	blank	1.0	116.31482815742493	0.0999917984008789
15	41.79109001159668	fix_pre	0		32.0	13.0	2.5	/experiments/knapen_aot/videos/S_ILSVRC2015_train_00762000.mp4	0.0	116.4148199558258	0.2666490077972412
15	42.049588203430176	response	0	2		13.0	2.5	/experiments/knapen_aot/videos/S_ILSVRC2015_train_00762000.mp4	0.0	116.6733181476593	
15	42.05773901939392	movie	1		301.0	13.0	2.5	/experiments/knapen_aot/videos/S_ILSVRC2015_train_00762000.mp4	0.0	116.68146896362305	2.508256196975708
15	44.56599521636963	fix_post	2		12.0	13.0	2.5	/experiments/knapen_aot/videos/S_ILSVRC2015_train_00762000.mp4	0.0	119.18972516059875	0.10007381439208984
16	44.66606903076172	fix_pre	0		14.0	14.0	2.5	/experiments/knapen_aot/videos/S_comp_LA_A008_C004_ALTB_ED_FROM_FLAME_RETIME_v46_SDR_PS_20180917_SDR_2K_AVC.mp4	0.0	119.28979897499084	0.11668014526367188
16	44.774543046951294	response	0	4		14.0	2.5	/experiments/knapen_aot/videos/S_comp_LA_A008_C004_ALTB_ED_FROM_FLAME_RETIME_v46_SDR_PS_20180917_SDR_2K_AVC.mp4	0.0	119.39827299118042	
16	44.78274917602539	movie	1		168.0	14.0	2.5	/experiments/knapen_aot/videos/S_comp_LA_A008_C004_ALTB_ED_FROM_FLAME_RETIME_v46_SDR_PS_20180917_SDR_2K_AVC.mp4	0.0	119.40647912025452	2.5082900524139404
16	47.29103922843933	fix_post	2		12.0	14.0	2.5	/experiments/knapen_aot/videos/S_comp_LA_A008_C004_ALTB_ED_FROM_FLAME_RETIME_v46_SDR_PS_20180917_SDR_2K_AVC.mp4	0.0	121.91476917266846	0.09998178482055664
17	47.39102101325989	fix_pre	0		15.0	15.0	2.5	/experiments/knapen_aot/videos/R_S_yt-3E02UEHdoZ4_752.mp4	0.0	122.01475095748901	0.12499809265136719
17	47.507883071899414	response	0	2		15.0	2.5	/experiments/knapen_aot/videos/R_S_yt-3E02UEHdoZ4_752.mp4	0.0	122.13161301612854	
17	47.516019105911255	movie	1		301.0	15.0	2.5	/experiments/knapen_aot/videos/R_S_yt-3E02UEHdoZ4_752.mp4	0.0	122.13974905014038	2.508455991744995
17	50.02447509765625	fix_post	2		12.0	15.0	2.5	/experiments/knapen_aot/videos/R_S_yt-3E02UEHdoZ4_752.mp4	0.0	124.64820504188538	0.09998106956481934
18	50.12445616722107	fix_pre	0		16.0	16.0	2.5	/experiments/knapen_aot/videos/S_yt-YykKZWKmLnQ_386.mp4	0.0	124.7481861114502	0.13354086875915527
18	50.24941611289978	response	0	4		16.0	2.5	/experiments/knapen_aot/videos/S_yt-YykKZWKmLnQ_386.mp4	0.0	124.8731460571289	
18	50.257997035980225	movie	1		301.0	16.0	2.5	/experiments/knapen_aot/videos/S_yt-YykKZWKmLnQ_386.mp4	0.0	124.88172698020935	2.5080790519714355
18	52.76607608795166	fix_post	2		12.0	16.0	2.5	/experiments/knapen_aot/videos/S_yt-YykKZWKmLnQ_386.mp4	0.0	127.38980603218079	0.09997010231018066
19	52.86604619026184	fix_pre	0		55.0	17.0	2.5	/experiments/knapen_aot/videos/R_S_yt-4oacL3aXtlU_11.mp4	0.0	127.48977613449097	0.45835089683532715
19	53.31620812416077	response	0	4		17.0	2.5	/experiments/knapen_aot/videos/R_S_yt-4oacL3aXtlU_11.mp4	0.0	127.93993806838989	
19	53.32439708709717	movie	1		301.0	17.0	2.5	/experiments/knapen_aot/videos/R_S_yt-4oacL3aXtlU_11.mp4	0.0	127.9481270313263	2.5083749294281006
19	55.83277201652527	fix_post	2		12.0	17.0	2.5	/experiments/knapen_aot/videos/R_S_yt-4oacL3aXtlU_11.mp4	0.0	130.4565019607544	0.0999600887298584
20	55.93273210525513	fix_pre	0		51.0	18.0	2.5	/experiments/knapen_aot/videos/R_S_yt-q9kT_c9QjbQ_34.mp4	0.0	130.55646204948425	0.4249539375305176
20	56.34947109222412	response	0	2		18.0	2.5	/experiments/knapen_aot/videos/R_S_yt-q9kT_c9QjbQ_34.mp4	0.0	130.97320103645325	
20	56.357686042785645	movie	1		301.0	18.0	2.5	/experiments/knapen_aot/videos/R_S_yt-q9kT_c9QjbQ_34.mp4	0.0	130.98141598701477	2.5083820819854736
20	58.86606812477112	fix_post	2		12.0	18.0	2.5	/experiments/knapen_aot/videos/R_S_yt-q9kT_c9QjbQ_34.mp4	0.0	133.48979806900024	0.10030794143676758
21	58.966376066207886	fix_pre	0		30.0	19.0	2.5	/experiments/knapen_aot/videos/S_comp_A013_C012_0122D6_CC_v01_SDR_PS_FINAL_20180709_SDR_2K_AVC.mp4	0.0	133.590106010437	0.24984002113342285
21	59.20777916908264	response	0	4		19.0	2.5	/experiments/knapen_aot/videos/S_comp_A013_C012_0122D6_CC_v01_SDR_PS_FINAL_20180709_SDR_2K_AVC.mp4	0.0	133.83150911331177	
21	59.21621608734131	movie	1		168.0	19.0	2.5	/experiments/knapen_aot/videos/S_comp_A013_C012_0122D6_CC_v01_SDR_PS_FINAL_20180709_SDR_2K_AVC.mp4	0.0	133.83994603157043	2.5081241130828857
21	61.724340200424194	fix_post	2		12.0	19.0	2.5	/experiments/knapen_aot/videos/S_comp_A013_C012_0122D6_CC_v01_SDR_PS_FINAL_20180709_SDR_2K_AVC.mp4	0.0	136.34807014465332	0.09999990463256836
22	61.82434010505676	fix_pre	0		40.0	20.0	2.5	blank	1.0	136.4480700492859	0.33336496353149414
22	62.14947819709778	response	0	2		20.0	2.5	blank	1.0	136.7732081413269	
22	62.15770506858826	movie	1		301.0	20.0	2.5	blank	1.0	136.78143501281738	2.5082480907440186
22	64.66595315933228	fix_post	2		12.0	20.0	2.5	blank	1.0	139.2896831035614	0.10001587867736816
23	64.76596903800964	fix_pre	0		31.0	21.0	2.5	/experiments/knapen_aot/videos/S_yt-738MRS0yI6g_177.mp4	0.0	139.38969898223877	0.2583451271057129
23	65.01608800888062	response	0	4		21.0	2.5	/experiments/knapen_aot/videos/S_yt-738MRS0yI6g_177.mp4	0.0	139.63981795310974	
23	65.02431416511536	movie	1		301.0	21.0	2.5	/experiments/knapen_aot/videos/S_yt-738MRS0yI6g_177.mp4	0.0	139.64804410934448	2.508368968963623
23	67.53268313407898	fix_post	2		12.0	21.0	2.5	/experiments/knapen_aot/videos/S_yt-738MRS0yI6g_177.mp4	0.0	142.1564130783081	0.10025787353515625
24	67.63294100761414	fix_pre	0		28.0	22.0	2.5	/experiments/knapen_aot/videos/S_ILSVRC2015_train_00371013.mp4	0.0	142.25667095184326	0.23306512832641602
24	67.85782313346863	response	0	2		22.0	2.5	/experiments/knapen_aot/videos/S_ILSVRC2015_train_00371013.mp4	0.0	142.48155307769775	
24	67.86600613594055	movie	1		298.0	22.0	2.5	/experiments/knapen_aot/videos/S_ILSVRC2015_train_00371013.mp4	0.0	142.48973608016968	2.508354902267456
24	70.37436103820801	fix_post	2		12.0	22.0	2.5	/experiments/knapen_aot/videos/S_ILSVRC2015_train_00371013.mp4	0.0	144.99809098243713	0.09993696212768555
25	70.4742980003357	fix_pre	0		19.0	23.0	2.5	/experiments/knapen_aot/videos/S_ILSVRC2015_train_00371006.mp4	0.0	145.09802794456482	0.1585090160369873
25	70.62446117401123	response	0	4		23.0	2.5	/experiments/knapen_aot/videos/S_ILSVRC2015_train_00371006.mp4	0.0	145.24819111824036	
25	70.63280701637268	movie	1		301.0	23.0	2.5	/experiments/knapen_aot/videos/S_ILSVRC2015_train_00371006.mp4	0.0	145.2565369606018	2.5081911087036133
25	73.1409981250763	fix_post	2		12.0	23.0	2.5	/experiments/knapen_aot/videos/S_ILSVRC2015_train_00371006.mp4	0.0	147.76472806930542	0.10001897811889648
26	73.24101710319519	fix_pre	0		32.0	24.0	2.5	/experiments/knapen_aot/videos/S_yt-fk-z6WCvjjA_3.mp4	0.0	147.86474704742432	0.26676392555236816
26	73.4996690750122	response	0	2		24.0	2.5	/experiments/knapen_aot/videos/S_yt-fk-z6WCvjjA_3.mp4	0.0	148.12339901924133	
26	73.50778102874756	movie	1		300.0	24.0	2.5	/experiments/knapen_aot/videos/S_yt-fk-z6WCvjjA_3.mp4	0.0	148.13151097297668	2.508129119873047
26	76.0159101486206	fix_post	2		12.0	24.0	2.5	/experiments/knapen_aot/videos/S_yt-fk-z6WCvjjA_3.mp4	0.0	150.63964009284973	0.10007095336914062
27	76.11598110198975	fix_pre	0		31.0	25.0	2.5	/experiments/knapen_aot/videos/R_S_yt-fGN7sGPy8BA_13.mp4	0.0	150.73971104621887	0.2582828998565674
27	76.36608004570007	response	0	4		25.0	2.5	/experiments/knapen_aot/videos/R_S_yt-fGN7sGPy8BA_13.mp4	0.0	150.9898099899292	
27	76.37426400184631	movie	1		301.0	25.0	2.5	/experiments/knapen_aot/videos/R_S_yt-fGN7sGPy8BA_13.mp4	0.0	150.99799394607544	2.508341073989868
27	78.88260507583618	fix_post	2		12.0	25.0	2.5	/experiments/knapen_aot/videos/R_S_yt-fGN7sGPy8BA_13.mp4	0.0	153.5063350200653	0.09996914863586426
28	78.98257422447205	fix_pre	0		31.0	26.0	2.5	/experiments/knapen_aot/videos/R_S_yt-TZ107yBhXoA_1.mp4	0.0	153.60630416870117	0.25835084915161133
28	79.23276209831238	response	0	2		26.0	2.5	/experiments/knapen_aot/videos/R_S_yt-TZ107yBhXoA_1.mp4	0.0	153.8564920425415	
28	79.24092507362366	movie	1		301.0	26.0	2.5	/experiments/knapen_aot/videos/R_S_yt-TZ107yBhXoA_1.mp4	0.0	153.86465501785278	2.5083789825439453
28	81.7493040561676	fix_post	2		12.0	26.0	2.5	/experiments/knapen_aot/videos/R_S_yt-TZ107yBhXoA_1.mp4	0.0	156.37303400039673	0.09998512268066406
29	81.84928917884827	fix_pre	0		28.0	27.0	2.5	/experiments/knapen_aot/videos/R_S_yt-lv6mhnH7_g4_134.mp4	0.0	156.4730191230774	0.23328089714050293
29	82.07437300682068	response	0	2		27.0	2.5	/experiments/knapen_aot/videos/R_S_yt-lv6mhnH7_g4_134.mp4	0.0	156.6981029510498	
29	82.08257007598877	movie	1		300.0	27.0	2.5	/experiments/knapen_aot/videos/R_S_yt-lv6mhnH7_g4_134.mp4	0.0	156.7063000202179	2.5084681510925293
29	84.5910382270813	fix_post	2		12.0	27.0	2.5	/experiments/knapen_aot/videos/R_S_yt-lv6mhnH7_g4_134.mp4	0.0	159.21476817131042	0.09990191459655762
30	84.69094014167786	fix_pre	0		25.0	28.0	2.5	blank	1.0	159.31467008590698	0.2082970142364502
30	84.89107322692871	response	0	4		28.0	2.5	blank	1.0	159.51480317115784	
30	84.8992371559143	movie	1		301.0	28.0	2.5	blank	1.0	159.52296710014343	2.508378028869629
30	87.40761518478394	fix_post	2		12.0	28.0	2.5	blank	1.0	162.03134512901306	0.10005497932434082
31	87.50767016410828	fix_pre	0		34.0	29.0	2.5	/experiments/knapen_aot/videos/R_S_comp_N008_C009_PS_v01_SDR_PS_20180925_SDR_2K_AVC.mp4	0.0	162.1314001083374	0.28334784507751465
31	87.7827091217041	response	0	2		29.0	2.5	/experiments/knapen_aot/videos/R_S_comp_N008_C009_PS_v01_SDR_PS_20180925_SDR_2K_AVC.mp4	0.0	162.40643906593323	
31	87.79101800918579	movie	1		170.0	29.0	2.5	/experiments/knapen_aot/videos/R_S_comp_N008_C009_PS_v01_SDR_PS_20180925_SDR_2K_AVC.mp4	0.0	162.41474795341492	2.508294105529785
31	90.29931211471558	fix_post	2		12.0	29.0	2.5	/experiments/knapen_aot/videos/R_S_comp_N008_C009_PS_v01_SDR_PS_20180925_SDR_2K_AVC.mp4	0.0	164.9230420589447	0.09985494613647461
32	90.39916706085205	fix_pre	0		5.0	30.0	2.5	/experiments/knapen_aot/videos/R_S_yt-YlA-FPDylDE_100.mp4	0.0	165.02289700508118	0.0417330265045166
32	90.43276309967041	response	0	4		30.0	2.5	/experiments/knapen_aot/videos/R_S_yt-YlA-FPDylDE_100.mp4	0.0	165.05649304389954	
32	90.44090008735657	movie	1		301.0	30.0	2.5	/experiments/knapen_aot/videos/R_S_yt-YlA-FPDylDE_100.mp4	0.0	165.0646300315857	2.508316993713379
32	92.94921708106995	fix_post	2		12.0	30.0	2.5	/experiments/knapen_aot/videos/R_S_yt-YlA-FPDylDE_100.mp4	0.0	167.57294702529907	0.10007810592651367
33	93.04929518699646	fix_pre	0		25.0	31.0	2.5	/experiments/knapen_aot/videos/R_S_yt-Jo6PxivsTOg_247.mp4	0.0	167.6730251312256	0.20824885368347168
33	93.24938201904297	response	0	4		31.0	2.5	/experiments/knapen_aot/videos/R_S_yt-Jo6PxivsTOg_247.mp4	0.0	167.8731119632721	
33	93.25754404067993	movie	1		301.0	31.0	2.5	/experiments/knapen_aot/videos/R_S_yt-Jo6PxivsTOg_247.mp4	0.0	167.88127398490906	2.5083320140838623
33	95.7658760547638	fix_post	2		12.0	31.0	2.5	/experiments/knapen_aot/videos/R_S_yt-Jo6PxivsTOg_247.mp4	0.0	170.38960599899292	0.10003304481506348
34	95.86590909957886	fix_pre	0		29.0	32.0	2.5	/experiments/knapen_aot/videos/S_yt-ZBhTpmrAlUY_70.mp4	0.0	170.48963904380798	0.24166202545166016
34	96.09935212135315	response	0	2		32.0	2.5	/experiments/knapen_aot/videos/S_yt-ZBhTpmrAlUY_70.mp4	0.0	170.72308206558228	
34	96.10757112503052	movie	1		301.0	32.0	2.5	/experiments/knapen_aot/videos/S_yt-ZBhTpmrAlUY_70.mp4	0.0	170.73130106925964	2.508336067199707
34	98.61590719223022	fix_post	2		12.0	32.0	2.5	/experiments/knapen_aot/videos/S_yt-ZBhTpmrAlUY_70.mp4	0.0	173.23963713645935	0.10000085830688477
35	98.71590805053711	fix_pre	0		38.0	33.0	2.5	/experiments/knapen_aot/videos/S_yt-jbvXEFk2Gyw_12.mp4	0.0	173.33963799476624	0.3166050910949707
35	99.02431511878967	response	0	2		33.0	2.5	/experiments/knapen_aot/videos/S_yt-jbvXEFk2Gyw_12.mp4	0.0	173.6480450630188	
35	99.03251314163208	movie	1		301.0	33.0	2.5	/experiments/knapen_aot/videos/S_yt-jbvXEFk2Gyw_12.mp4	0.0	173.6562430858612	2.508389949798584
35	101.54090309143066	fix_post	2		12.0	33.0	2.5	/experiments/knapen_aot/videos/S_yt-jbvXEFk2Gyw_12.mp4	0.0	176.1646330356598	0.09999513626098633
36	101.64089822769165	fix_pre	0		33.0	34.0	2.5	blank	1.0	176.26462817192078	0.27500486373901367
36	101.90775418281555	response	0	4		34.0	2.5	blank	1.0	176.53148412704468	
36	101.91590309143066	movie	1		301.0	34.0	2.5	blank	1.0	176.5396330356598	2.508275032043457
36	104.42417812347412	fix_post	2		12.0	34.0	2.5	blank	1.0	179.04790806770325	0.0999898910522461
37	104.52416801452637	fix_pre	0		64.0	35.0	2.5	/experiments/knapen_aot/videos/R_S_I003_C011_SDR_2K_AVC.mp4	0.0	179.1478979587555	0.5333390235900879
37	105.04927206039429	response	0	4		35.0	2.5	/experiments/knapen_aot/videos/R_S_I003_C011_SDR_2K_AVC.mp4	0.0	179.6730020046234	
37	105.05750703811646	movie	1		170.0	35.0	2.5	/experiments/knapen_aot/videos/R_S_I003_C011_SDR_2K_AVC.mp4	0.0	179.68123698234558	2.5082499980926514
37	107.5657570362091	fix_post	2		12.0	35.0	2.5	/experiments/knapen_aot/videos/R_S_I003_C011_SDR_2K_AVC.mp4	0.0	182.18948698043823	0.10013008117675781
38	107.66588711738586	fix_pre	0		4.0	36.0	2.5	/experiments/knapen_aot/videos/S_pexels-koolshooters-7327405.mp4	0.0	182.289617061615	0.033310890197753906
38	107.69107818603516	response	0	2		36.0	2.5	/experiments/knapen_aot/videos/S_pexels-koolshooters-7327405.mp4	0.0	182.31480813026428	
38	107.69919800758362	movie	1		164.0	36.0	2.5	/experiments/knapen_aot/videos/S_pexels-koolshooters-7327405.mp4	0.0	182.32292795181274	2.508244037628174
38	110.20744204521179	fix_post	2		12.0	36.0	2.5	/experiments/knapen_aot/videos/S_pexels-koolshooters-7327405.mp4	0.0	184.83117198944092	0.10003113746643066
39	110.30747318267822	fix_pre	0		41.0	37.0	2.5	/experiments/knapen_aot/videos/R_S_yt-MsSEF0krKE4_149.mp4	0.0	184.93120312690735	0.34165501594543457
39	110.6411030292511	response	0	2		37.0	2.5	/experiments/knapen_aot/videos/R_S_yt-MsSEF0krKE4_149.mp4	0.0	185.26483297348022	
39	110.64912819862366	movie	1		301.0	37.0	2.5	/experiments/knapen_aot/videos/R_S_yt-MsSEF0krKE4_149.mp4	0.0	185.27285814285278	2.5082809925079346
39	113.15740919113159	fix_post	2		12.0	37.0	2.5	/experiments/knapen_aot/videos/R_S_yt-MsSEF0krKE4_149.mp4	0.0	187.78113913536072	0.10004401206970215
40	113.2574532032013	fix_pre	0		7.0	38.0	2.5	/experiments/knapen_aot/videos/S_yt-xvIZtEVkebk_462.mp4	0.0	187.88118314743042	0.05835390090942383
40	113.30753207206726	response	0	4		38.0	2.5	/experiments/knapen_aot/videos/S_yt-xvIZtEVkebk_462.mp4	0.0	187.9312620162964	
40	113.31580710411072	movie	1		298.0	38.0	2.5	/experiments/knapen_aot/videos/S_yt-xvIZtEVkebk_462.mp4	0.0	187.93953704833984	2.508323907852173
40	115.82413101196289	fix_post	2		12.0	38.0	2.5	/experiments/knapen_aot/videos/S_yt-xvIZtEVkebk_462.mp4	0.0	190.44786095619202	0.09995007514953613
41	115.92408108711243	fix_pre	0		56.0	39.0	2.5	/experiments/knapen_aot/videos/R_S_ILSVRC2015_train_00584001.mp4	0.0	190.54781103134155	0.46671199798583984
41	116.38257503509521	response	0	2		39.0	2.5	/experiments/knapen_aot/videos/R_S_ILSVRC2015_train_00584001.mp4	0.0	191.00630497932434	
41	116.39079308509827	movie	1		301.0	39.0	2.5	/experiments/knapen_aot/videos/R_S_ILSVRC2015_train_00584001.mp4	0.0	191.0145230293274	2.508302927017212
41	118.89909601211548	fix_post	2		12.0	39.0	2.5	/experiments/knapen_aot/videos/R_S_ILSVRC2015_train_00584001.mp4	0.0	193.5228259563446	0.10001015663146973
42	118.99910616874695	fix_pre	0		11.0	40.0	2.5	/experiments/knapen_aot/videos/R_S_yt-YlA-FPDylDE_100.mp4	0.0	193.62283611297607	0.09164690971374512
42	119.08256721496582	response	0	4		40.0	2.5	/experiments/knapen_aot/videos/R_S_yt-YlA-FPDylDE_100.mp4	0.0	193.70629715919495	
42	119.0907530784607	movie	1		301.0	40.0	2.5	/experiments/knapen_aot/videos/R_S_yt-YlA-FPDylDE_100.mp4	0.0	193.71448302268982	2.5083351135253906
42	121.59908819198608	fix_post	2		12.0	40.0	2.5	/experiments/knapen_aot/videos/R_S_yt-YlA-FPDylDE_100.mp4	0.0	196.2228181362152	0.09998893737792969
43	121.69907712936401	fix_pre	0		32.0	41.0	2.5	blank	1.0	196.32280707359314	0.2667419910430908
43	121.95748710632324	response	0	2		41.0	2.5	blank	1.0	196.58121705055237	
43	121.9658191204071	movie	1		301.0	41.0	2.5	blank	1.0	196.58954906463623	2.508219003677368
43	124.47403812408447	fix_post	2		12.0	41.0	2.5	blank	1.0	199.0977680683136	0.09997797012329102
44	124.57401609420776	fix_pre	0		46.0	42.0	2.5	/experiments/knapen_aot/videos/R_S_yt-2l6VKd94eAI_151.mp4	0.0	199.1977460384369	0.3833639621734619
44	124.94923806190491	response	0	4		42.0	2.5	/experiments/knapen_aot/videos/R_S_yt-2l6VKd94eAI_151.mp4	0.0	199.57296800613403	
44	124.95738005638123	movie	1		301.0	42.0	2.5	/experiments/knapen_aot/videos/R_S_yt-2l6VKd94eAI_151.mp4	0.0	199.58111000061035	2.508378028869629
44	126.83385419845581	response	1	2		42.0	2.5	/experiments/knapen_aot/videos/R_S_yt-2l6VKd94eAI_151.mp4	0.0	201.45758414268494	
44	127.46575808525085	fix_post	2		12.0	42.0	2.5	/experiments/knapen_aot/videos/R_S_yt-2l6VKd94eAI_151.mp4	0.0	202.08948802947998	0.10001611709594727
45	127.5657742023468	fix_pre	0		45.0	43.0	2.5	/experiments/knapen_aot/videos/R_S_yt-7lULOC_rSE0_747.mp4	0.0	202.18950414657593	0.3750429153442383
45	127.9325680732727	response	0	2		43.0	2.5	/experiments/knapen_aot/videos/R_S_yt-7lULOC_rSE0_747.mp4	0.0	202.55629801750183	
45	127.94081711769104	movie	1		301.0	43.0	2.5	/experiments/knapen_aot/videos/R_S_yt-7lULOC_rSE0_747.mp4	0.0	202.56454706192017	2.5082099437713623
45	130.4490270614624	fix_post	2		12.0	43.0	2.5	/experiments/knapen_aot/videos/R_S_yt-7lULOC_rSE0_747.mp4	0.0	205.07275700569153	0.10001301765441895
46	130.54904007911682	fix_pre	0		117.0	44.0	2.5	/experiments/knapen_aot/videos/S_yt-LYnwnfi1JJ4_120.mp4	0.0	205.17277002334595	0.9749929904937744
46	131.51580715179443	response	0	2		44.0	2.5	/experiments/knapen_aot/videos/S_yt-LYnwnfi1JJ4_120.mp4	0.0	206.13953709602356	
46	131.5240330696106	movie	1		301.0	44.0	2.5	/experiments/knapen_aot/videos/S_yt-LYnwnfi1JJ4_120.mp4	0.0	206.14776301383972	2.508347988128662
46	134.03238105773926	fix_post	2		12.0	44.0	2.5	/experiments/knapen_aot/videos/S_yt-LYnwnfi1JJ4_120.mp4	0.0	208.65611100196838	0.10017704963684082
47	134.1325581073761	fix_pre	0		28.0	45.0	2.5	/experiments/knapen_aot/videos/R_S_ILSVRC2015_train_00042003.mp4	0.0	208.75628805160522	0.23317909240722656
47	134.35747599601746	response	0	4		45.0	2.5	/experiments/knapen_aot/videos/R_S_ILSVRC2015_train_00042003.mp4	0.0	208.98120594024658	
47	134.36573719978333	movie	1		301.0	45.0	2.5	/experiments/knapen_aot/videos/R_S_ILSVRC2015_train_00042003.mp4	0.0	208.98946714401245	2.5082828998565674
47	136.8740200996399	fix_post	2		12.0	45.0	2.5	/experiments/knapen_aot/videos/R_S_ILSVRC2015_train_00042003.mp4	0.0	211.49775004386902	0.10001397132873535
48	136.97403407096863	fix_pre	0		8.0	46.0	2.5	/experiments/knapen_aot/videos/R_S_ILSVRC2015_train_00682007.mp4	0.0	211.59776401519775	0.06789898872375488
48	137.03250217437744	response	0	2		46.0	2.5	/experiments/knapen_aot/videos/R_S_ILSVRC2015_train_00682007.mp4	0.0	211.65623211860657	
48	137.04193305969238	movie	1		301.0	46.0	2.5	/experiments/knapen_aot/videos/R_S_ILSVRC2015_train_00682007.mp4	0.0	211.6656630039215	2.507117986679077
48	139.54905104637146	fix_post	2		12.0	46.0	2.5	/experiments/knapen_aot/videos/R_S_ILSVRC2015_train_00682007.mp4	0.0	214.1727809906006	0.09999299049377441
49	139.64904403686523	fix_pre	0		24.0	47.0	2.5	blank	1.0	214.27277398109436	0.19997310638427734
49	139.8408031463623	response	0	4		47.0	2.5	blank	1.0	214.46453309059143	
49	139.8490171432495	movie	1		301.0	47.0	2.5	blank	1.0	214.47274708747864	2.50833797454834
49	142.35735511779785	fix_post	2		12.0	47.0	2.5	blank	1.0	216.98108506202698	0.09995388984680176
50	142.45730900764465	fix_pre	0		18.0	48.0	2.5	/experiments/knapen_aot/videos/R_S_comp_A103_C002_0205DG_v12_SDR_FINAL_20180706_SDR_2K_AVC.mp4	0.0	217.08103895187378	0.15001416206359863
50	142.5991461277008	response	0	2		48.0	2.5	/experiments/knapen_aot/videos/R_S_comp_A103_C002_0205DG_v12_SDR_FINAL_20180706_SDR_2K_AVC.mp4	0.0	217.22287607192993	
50	142.60732316970825	movie	1		171.0	48.0	2.5	/experiments/knapen_aot/videos/R_S_comp_A103_C002_0205DG_v12_SDR_FINAL_20180706_SDR_2K_AVC.mp4	0.0	217.23105311393738	2.5083110332489014
50	145.11563420295715	fix_post	2		12.0	48.0	2.5	/experiments/knapen_aot/videos/R_S_comp_A103_C002_0205DG_v12_SDR_FINAL_20180706_SDR_2K_AVC.mp4	0.0	219.73936414718628	0.10005402565002441
51	145.21568822860718	fix_pre	0		15.0	49.0	2.5	/experiments/knapen_aot/videos/R_S_yt-NLfzvAJgyJ4_120.mp4	0.0	219.8394181728363	0.12498092651367188
51	145.33252120018005	response	0	4		49.0	2.5	/experiments/knapen_aot/videos/R_S_yt-NLfzvAJgyJ4_120.mp4	0.0	219.95625114440918	
51	145.34066915512085	movie	1		300.0	49.0	2.5	/experiments/knapen_aot/videos/R_S_yt-NLfzvAJgyJ4_120.mp4	0.0	219.96439909934998	2.50834584236145
51	147.8490149974823	fix_post	2		12.0	49.0	2.5	/experiments/knapen_aot/videos/R_S_yt-NLfzvAJgyJ4_120.mp4	0.0	222.47274494171143	0.09999513626098633
52	147.9490101337433	fix_pre	0		3.0	50.0	2.5	/experiments/knapen_aot/videos/S_ILSVRC2015_train_00569004.mp4	0.0	222.5727400779724	0.024972915649414062
52	147.96581721305847	response	0	2		50.0	2.5	/experiments/knapen_aot/videos/S_ILSVRC2015_train_00569004.mp4	0.0	222.5895471572876	
52	147.9739830493927	movie	1		301.0	50.0	2.5	/experiments/knapen_aot/videos/S_ILSVRC2015_train_00569004.mp4	0.0	222.59771299362183	2.508272171020508
52	150.4822552204132	fix_post	2		12.0	50.0	2.5	/experiments/knapen_aot/videos/S_ILSVRC2015_train_00569004.mp4	0.0	225.10598516464233	0.10010600090026855
53	150.58236122131348	fix_pre	0		21.0	51.0	2.5	/experiments/knapen_aot/videos/R_S_bing-www_nbcnews_com_storyline_isis-terror_fall-isis-stronghold-raqqa-will-change-war-extremists-not-end-n808621_86.mp4	0.0	225.2060911655426	0.17492985725402832
53	150.7490930557251	response	0	4		51.0	2.5	/experiments/knapen_aot/videos/R_S_bing-www_nbcnews_com_storyline_isis-terror_fall-isis-stronghold-raqqa-will-change-war-extremists-not-end-n808621_86.mp4	0.0	225.37282299995422	
53	150.7572910785675	movie	1		167.0	51.0	2.5	/experiments/knapen_aot/videos/R_S_bing-www_nbcnews_com_storyline_isis-terror_fall-isis-stronghold-raqqa-will-change-war-extremists-not-end-n808621_86.mp4	0.0	225.38102102279663	2.5083489418029785
53	153.26564002037048	fix_post	2		12.0	51.0	2.5	/experiments/knapen_aot/videos/R_S_bing-www_nbcnews_com_storyline_isis-terror_fall-isis-stronghold-raqqa-will-change-war-extremists-not-end-n808621_86.mp4	0.0	227.8893699645996	0.10001707077026367
54	153.36565709114075	fix_pre	0		14.0	52.0	2.5	/experiments/knapen_aot/videos/S_yt-c5_SFS4aaJI_1102.mp4	0.0	227.98938703536987	0.11662793159484863
54	153.47412514686584	response	0	2		52.0	2.5	/experiments/knapen_aot/videos/S_yt-c5_SFS4aaJI_1102.mp4	0.0	228.09785509109497	
54	153.4822850227356	movie	1		301.0	52.0	2.5	/experiments/knapen_aot/videos/S_yt-c5_SFS4aaJI_1102.mp4	0.0	228.10601496696472	2.508371114730835
54	155.99065613746643	fix_post	2		12.0	52.0	2.5	/experiments/knapen_aot/videos/S_yt-c5_SFS4aaJI_1102.mp4	0.0	230.61438608169556	0.09997797012329102
55	156.09063410758972	fix_pre	0		48.0	53.0	2.5	/experiments/knapen_aot/videos/S_g201_AK_A003_C014_SDR_20191113_SDR_2K_AVC.mp4	0.0	230.71436405181885	0.39999890327453613
55	156.48239707946777	response	0	4		53.0	2.5	/experiments/knapen_aot/videos/S_g201_AK_A003_C014_SDR_20191113_SDR_2K_AVC.mp4	0.0	231.1061270236969	
55	156.49063301086426	movie	1		165.0	53.0	2.5	/experiments/knapen_aot/videos/S_g201_AK_A003_C014_SDR_20191113_SDR_2K_AVC.mp4	0.0	231.11436295509338	2.508345127105713
55	158.99897813796997	fix_post	2		12.0	53.0	2.5	/experiments/knapen_aot/videos/S_g201_AK_A003_C014_SDR_20191113_SDR_2K_AVC.mp4	0.0	233.6227080821991	0.09993600845336914
56	159.09891414642334	fix_pre	0		33.0	54.0	2.5	/experiments/knapen_aot/videos/R_S_yt-y6JsUW0eSW8_32.mp4	0.0	233.72264409065247	0.27609896659851074
56	159.36573004722595	response	0	2		54.0	2.5	/experiments/knapen_aot/videos/R_S_yt-y6JsUW0eSW8_32.mp4	0.0	233.98945999145508	
56	159.37501311302185	movie	1		301.0	54.0	2.5	/experiments/knapen_aot/videos/R_S_yt-y6JsUW0eSW8_32.mp4	0.0	233.99874305725098	2.5072178840637207
56	161.88223099708557	fix_post	2		12.0	54.0	2.5	/experiments/knapen_aot/videos/R_S_yt-y6JsUW0eSW8_32.mp4	0.0	236.5059609413147	0.10001206398010254
57	161.98224306106567	fix_pre	0		57.0	55.0	2.5	blank	1.0	236.6059730052948	0.47499799728393555
57	162.4489631652832	response	0	4		55.0	2.5	blank	1.0	237.07269310951233	
57	162.4572410583496	movie	1		301.0	55.0	2.5	blank	1.0	237.08097100257874	2.5083529949188232
57	164.96559405326843	fix_post	2		12.0	55.0	2.5	blank	1.0	239.58932399749756	0.10001015663146973
58	165.0656042098999	fix_pre	0		19.0	56.0	2.5	/experiments/knapen_aot/videos/R_S_ILSVRC2015_train_00354001.mp4	0.0	239.68933415412903	0.15831279754638672
58	165.2156901359558	response	0	2		56.0	2.5	/experiments/knapen_aot/videos/R_S_ILSVRC2015_train_00354001.mp4	0.0	239.83942008018494	
58	165.2239170074463	movie	1		301.0	56.0	2.5	/experiments/knapen_aot/videos/R_S_ILSVRC2015_train_00354001.mp4	0.0	239.84764695167542	2.508319139480591
58	167.73223614692688	fix_post	2		12.0	56.0	2.5	/experiments/knapen_aot/videos/R_S_ILSVRC2015_train_00354001.mp4	0.0	242.355966091156	0.10006189346313477
59	167.83229804039001	fix_pre	0		29.0	57.0	2.5	/experiments/knapen_aot/videos/R_S_yt-3EZOeAbiMQE_10.mp4	0.0	242.45602798461914	0.2415771484375
59	168.06569004058838	response	0	4		57.0	2.5	/experiments/knapen_aot/videos/R_S_yt-3EZOeAbiMQE_10.mp4	0.0	242.6894199848175	
59	168.07387518882751	movie	1		301.0	57.0	2.5	/experiments/knapen_aot/videos/R_S_yt-3EZOeAbiMQE_10.mp4	0.0	242.69760513305664	2.5083019733428955
59	170.5821771621704	fix_post	2		12.0	57.0	2.5	/experiments/knapen_aot/videos/R_S_yt-3EZOeAbiMQE_10.mp4	0.0	245.20590710639954	0.1000509262084961
60	170.6822280883789	fix_pre	0		26.0	58.0	2.5	/experiments/knapen_aot/videos/R_S_ILSVRC2015_train_00572000.mp4	0.0	245.30595803260803	0.2166910171508789
60	170.88316106796265	response	0	2		58.0	2.5	/experiments/knapen_aot/videos/R_S_ILSVRC2015_train_00572000.mp4	0.0	245.50689101219177	
60	170.89891910552979	movie	1		299.0	58.0	2.5	/experiments/knapen_aot/videos/R_S_ILSVRC2015_train_00572000.mp4	0.0	245.5226490497589	2.508315086364746
60	173.40723419189453	fix_post	2		12.0	58.0	2.5	/experiments/knapen_aot/videos/R_S_ILSVRC2015_train_00572000.mp4	0.0	248.03096413612366	0.10000181198120117
61	173.50723600387573	fix_pre	0		27.0	59.0	2.5	/experiments/knapen_aot/videos/S_ILSVRC2015_train_00067005.mp4	0.0	248.13096594810486	0.22495818138122559
61	173.72402811050415	response	0	4		59.0	2.5	/experiments/knapen_aot/videos/S_ILSVRC2015_train_00067005.mp4	0.0	248.34775805473328	
61	173.73219418525696	movie	1		301.0	59.0	2.5	/experiments/knapen_aot/videos/S_ILSVRC2015_train_00067005.mp4	0.0	248.35592412948608	2.5083580017089844
61	176.24055218696594	fix_post	2		12.0	59.0	2.5	/experiments/knapen_aot/videos/S_ILSVRC2015_train_00067005.mp4	0.0	250.86428213119507	0.10002899169921875
62	176.34058117866516	fix_pre	0		21.0	60.0	2.5	/experiments/knapen_aot/videos/R_S_ILSVRC2015_train_00723001.mp4	0.0	250.9643111228943	0.17499899864196777
62	176.50730419158936	response	0	2		60.0	2.5	/experiments/knapen_aot/videos/R_S_ILSVRC2015_train_00723001.mp4	0.0	251.13103413581848	
62	176.51558017730713	movie	1		301.0	60.0	2.5	/experiments/knapen_aot/videos/R_S_ILSVRC2015_train_00723001.mp4	0.0	251.13931012153625	2.5082929134368896
62	179.02387309074402	fix_post	2		12.0	60.0	2.5	/experiments/knapen_aot/videos/R_S_ILSVRC2015_train_00723001.mp4	0.0	253.64760303497314	0.09991693496704102
63	179.12379002571106	fix_pre	0		17.0	61.0	2.5	/experiments/knapen_aot/videos/R_S_yt-vY49oIv_dWg_73.mp4	0.0	253.74751996994019	0.14175009727478027
63	179.25732111930847	response	0	4		61.0	2.5	/experiments/knapen_aot/videos/R_S_yt-vY49oIv_dWg_73.mp4	0.0	253.8810510635376	
63	179.26554012298584	movie	1		301.0	61.0	2.5	/experiments/knapen_aot/videos/R_S_yt-vY49oIv_dWg_73.mp4	0.0	253.88927006721497	2.5082828998565674
63	181.7738230228424	fix_post	2		12.0	61.0	2.5	/experiments/knapen_aot/videos/R_S_yt-vY49oIv_dWg_73.mp4	0.0	256.39755296707153	0.1000070571899414
64	181.87383008003235	fix_pre	0		30.0	62.0	2.5	blank	1.0	256.4975600242615	0.24998211860656738
64	182.11568403244019	response	0	2		62.0	2.5	blank	1.0	256.7394139766693	
64	182.12381219863892	movie	1		301.0	62.0	2.5	blank	1.0	256.74754214286804	2.508347988128662
64	184.63216018676758	fix_post	2		12.0	62.0	2.5	blank	1.0	259.2558901309967	0.09999489784240723
65	184.73215508460999	fix_pre	0		32.0	63.0	2.5	/experiments/knapen_aot/videos/S_yt-c-H45QS0CF4_147.mp4	0.0	259.3558850288391	0.26769208908081055
65	184.99061012268066	response	0	4		63.0	2.5	/experiments/knapen_aot/videos/S_yt-c-H45QS0CF4_147.mp4	0.0	259.6143400669098	
65	184.9998471736908	movie	1		300.0	63.0	2.5	/experiments/knapen_aot/videos/S_yt-c-H45QS0CF4_147.mp4	0.0	259.6235771179199	2.5073249340057373
65	187.50717210769653	fix_post	2		12.0	63.0	2.5	/experiments/knapen_aot/videos/S_yt-c-H45QS0CF4_147.mp4	0.0	262.13090205192566	0.0999140739440918
66	187.60708618164062	fix_pre	0		20.0	64.0	2.5	/experiments/knapen_aot/videos/S_yt-83nimFMNhrM_131.mp4	0.0	262.23081612586975	0.16675281524658203
66	187.76564812660217	response	0	2		64.0	2.5	/experiments/knapen_aot/videos/S_yt-83nimFMNhrM_131.mp4	0.0	262.3893780708313	
66	187.7738389968872	movie	1		301.0	64.0	2.5	/experiments/knapen_aot/videos/S_yt-83nimFMNhrM_131.mp4	0.0	262.39756894111633	2.508242130279541
66	190.28208112716675	fix_post	2		12.0	64.0	2.5	/experiments/knapen_aot/videos/S_yt-83nimFMNhrM_131.mp4	0.0	264.9058110713959	0.1000669002532959
67	190.38214802742004	fix_pre	0		47.0	65.0	2.5	/experiments/knapen_aot/videos/S_yt-hWXr5bv2_uA_48.mp4	0.0	265.00587797164917	0.3916940689086914
67	190.7582631111145	response	0	4		65.0	2.5	/experiments/knapen_aot/videos/S_yt-hWXr5bv2_uA_48.mp4	0.0	265.3819930553436	
67	190.77384209632874	movie	1		301.0	65.0	2.5	/experiments/knapen_aot/videos/S_yt-hWXr5bv2_uA_48.mp4	0.0	265.39757204055786	2.50832200050354
67	193.28216409683228	fix_post	2		12.0	65.0	2.5	/experiments/knapen_aot/videos/S_yt-hWXr5bv2_uA_48.mp4	0.0	267.9058940410614	0.09999990463256836
68	193.38216400146484	fix_pre	0		12.0	66.0	2.5	/experiments/knapen_aot/videos/R_S_ILSVRC2015_train_00354001.mp4	0.0	268.00589394569397	0.09996199607849121
68	193.47390818595886	response	0	2		66.0	2.5	/experiments/knapen_aot/videos/R_S_ILSVRC2015_train_00354001.mp4	0.0	268.097638130188	
68	193.48212599754333	movie	1		301.0	66.0	2.5	/experiments/knapen_aot/videos/R_S_ILSVRC2015_train_00354001.mp4	0.0	268.10585594177246	2.5083301067352295
68	195.99045610427856	fix_post	2		12.0	66.0	2.5	/experiments/knapen_aot/videos/R_S_ILSVRC2015_train_00354001.mp4	0.0	270.6141860485077	0.09998393058776855
69	196.09044003486633	fix_pre	0		29.0	67.0	2.5	/experiments/knapen_aot/videos/R_S_FK_U009_C004_SDR_20191220_SDR_2K_AVC.mp4	0.0	270.71416997909546	0.2426290512084961
69	196.32394909858704	response	0	4		67.0	2.5	/experiments/knapen_aot/videos/R_S_FK_U009_C004_SDR_20191220_SDR_2K_AVC.mp4	0.0	270.94767904281616	
69	196.33306908607483	movie	1		164.0	67.0	2.5	/experiments/knapen_aot/videos/R_S_FK_U009_C004_SDR_20191220_SDR_2K_AVC.mp4	0.0	270.95679903030396	2.5073981285095215
69	198.84046721458435	fix_post	2		12.0	67.0	2.5	/experiments/knapen_aot/videos/R_S_FK_U009_C004_SDR_20191220_SDR_2K_AVC.mp4	0.0	273.4641971588135	0.1000359058380127
70	198.94050312042236	fix_pre	0		22.0	68.0	2.5	/experiments/knapen_aot/videos/R_S_yt-31yLemkW42Q_111.mp4	0.0	273.5642330646515	0.18416309356689453
70	199.1154761314392	response	0	2		68.0	2.5	/experiments/knapen_aot/videos/R_S_yt-31yLemkW42Q_111.mp4	0.0	273.73920607566833	
70	199.12466621398926	movie	1		301.0	68.0	2.5	/experiments/knapen_aot/videos/R_S_yt-31yLemkW42Q_111.mp4	0.0	273.7483961582184	2.507396936416626
70	201.63206315040588	fix_post	2		12.0	68.0	2.5	/experiments/knapen_aot/videos/R_S_yt-31yLemkW42Q_111.mp4	0.0	276.255793094635	0.10008096694946289
71	201.73214411735535	fix_pre	0		20.0	69.0	2.5	/experiments/knapen_aot/videos/S_yt-lfDIg8kaXhA_169.mp4	0.0	276.3558740615845	0.16666102409362793
71	201.8905529975891	response	0	4		69.0	2.5	/experiments/knapen_aot/videos/S_yt-lfDIg8kaXhA_169.mp4	0.0	276.51428294181824	
71	201.89880514144897	movie	1		301.0	69.0	2.5	/experiments/knapen_aot/videos/S_yt-lfDIg8kaXhA_169.mp4	0.0	276.5225350856781	2.5083279609680176
71	204.407133102417	fix_post	2		12.0	69.0	2.5	/experiments/knapen_aot/videos/S_yt-lfDIg8kaXhA_169.mp4	0.0	279.0308630466461	0.09995794296264648
72	204.50709104537964	fix_pre	0		53.0	70.0	2.5	blank	1.0	279.13082098960876	0.4416351318359375
72	204.9405710697174	response	0	2		70.0	2.5	blank	1.0	279.56430101394653	
72	204.94872617721558	movie	1		301.0	70.0	2.5	blank	1.0	279.5724561214447	2.5083909034729004
72	207.45711708068848	fix_post	2		12.0	70.0	2.5	blank	1.0	282.0808470249176	0.10000300407409668
73	207.55712008476257	fix_pre	0		23.0	71.0	2.5	/experiments/knapen_aot/videos/R_S_comp_C004_C003_PS_v01_SDR_PS_20180925_SDR_2K_AVC.mp4	0.0	282.1808500289917	0.19251298904418945
73	207.74052119255066	response	0	4		71.0	2.5	/experiments/knapen_aot/videos/R_S_comp_C004_C003_PS_v01_SDR_PS_20180925_SDR_2K_AVC.mp4	0.0	282.3642511367798	
73	207.74963307380676	movie	1		167.0	71.0	2.5	/experiments/knapen_aot/videos/R_S_comp_C004_C003_PS_v01_SDR_PS_20180925_SDR_2K_AVC.mp4	0.0	282.3733630180359	2.507380962371826
73	210.2570140361786	fix_post	2		12.0	71.0	2.5	/experiments/knapen_aot/videos/R_S_comp_C004_C003_PS_v01_SDR_PS_20180925_SDR_2K_AVC.mp4	0.0	284.8807439804077	0.10000395774841309
74	210.357017993927	fix_pre	0		1.0	72.0	2.5	/experiments/knapen_aot/videos/S_yt-zhQ32_OayBQ_39.mp4	0.0	284.9807479381561	0.010881185531616211
74	210.3586871623993	response	0	2		72.0	2.5	/experiments/knapen_aot/videos/S_yt-zhQ32_OayBQ_39.mp4	0.0	284.9824171066284	
74	210.36789917945862	movie	1		301.0	72.0	2.5	/experiments/knapen_aot/videos/S_yt-zhQ32_OayBQ_39.mp4	0.0	284.99162912368774	2.505823850631714
74	212.87372303009033	fix_post	2		12.0	72.0	2.5	/experiments/knapen_aot/videos/S_yt-zhQ32_OayBQ_39.mp4	0.0	287.49745297431946	0.10002398490905762
75	212.9737470149994	fix_pre	0		12.0	73.0	2.5	/experiments/knapen_aot/videos/R_S_ILSVRC2015_train_00251004.mp4	0.0	287.5974769592285	0.09999918937683105
75	213.05799221992493	response	0	4		73.0	2.5	/experiments/knapen_aot/videos/R_S_ILSVRC2015_train_00251004.mp4	0.0	287.68172216415405	
75	213.07374620437622	movie	1		301.0	73.0	2.5	/experiments/knapen_aot/videos/R_S_ILSVRC2015_train_00251004.mp4	0.0	287.69747614860535	2.508312940597534
75	215.58205914497375	fix_post	2		12.0	73.0	2.5	/experiments/knapen_aot/videos/R_S_ILSVRC2015_train_00251004.mp4	0.0	290.2057890892029	0.09993600845336914
76	215.68199515342712	fix_pre	0		1.0	74.0	2.5	/experiments/knapen_aot/videos/R_S_yt-YCjbGOPBQHw_131.mp4	0.0	290.30572509765625	0.008408069610595703
76	215.68364119529724	response	0	2		74.0	2.5	/experiments/knapen_aot/videos/R_S_yt-YCjbGOPBQHw_131.mp4	0.0	290.30737113952637	
76	215.69040322303772	movie	1		301.0	74.0	2.5	/experiments/knapen_aot/videos/R_S_yt-YCjbGOPBQHw_131.mp4	0.0	290.31413316726685	2.508307933807373
76	218.1987111568451	fix_post	2		12.0	74.0	2.5	/experiments/knapen_aot/videos/R_S_yt-YCjbGOPBQHw_131.mp4	0.0	292.8224411010742	0.1000058650970459
77	218.29871702194214	fix_pre	0		12.0	75.0	2.5	/experiments/knapen_aot/videos/S_goAwcQiFu1Q_99.mp4	0.0	292.92244696617126	0.0999751091003418
77	218.39047408103943	response	0	4		75.0	2.5	/experiments/knapen_aot/videos/S_goAwcQiFu1Q_99.mp4	0.0	293.01420402526855	
77	218.39869213104248	movie	1		301.0	75.0	2.5	/experiments/knapen_aot/videos/S_goAwcQiFu1Q_99.mp4	0.0	293.0224220752716	2.508354902267456
77	220.90704703330994	fix_post	2		12.0	75.0	2.5	/experiments/knapen_aot/videos/S_goAwcQiFu1Q_99.mp4	0.0	295.53077697753906	0.09999918937683105
78	221.00704622268677	fix_pre	0		26.0	76.0	2.5	/experiments/knapen_aot/videos/S_yt-y6JsUW0eSW8_32.mp4	0.0	295.6307761669159	0.21665096282958984
78	221.2155430316925	response	0	2		76.0	2.5	/experiments/knapen_aot/videos/S_yt-y6JsUW0eSW8_32.mp4	0.0	295.83927297592163	
78	221.22369718551636	movie	1		301.0	76.0	2.5	/experiments/knapen_aot/videos/S_yt-y6JsUW0eSW8_32.mp4	0.0	295.8474271297455	2.5083348751068115
78	223.73203206062317	fix_post	2		12.0	76.0	2.5	/experiments/knapen_aot/videos/S_yt-y6JsUW0eSW8_32.mp4	0.0	298.3557620048523	0.10000300407409668
79	223.83203506469727	fix_pre	0		34.0	77.0	2.5	blank	1.0	298.4557650089264	0.2833261489868164
79	224.10708808898926	response	0	4		77.0	2.5	blank	1.0	298.7308180332184	
79	224.11536121368408	movie	1		301.0	77.0	2.5	blank	1.0	298.7390911579132	2.5082859992980957
79	226.62364721298218	fix_post	2		12.0	77.0	2.5	blank	1.0	301.2473771572113	0.10007882118225098
80	226.72372603416443	fix_pre	0		50.0	78.0	2.5	/experiments/knapen_aot/videos/S_yt-Dwgpjoikt84_71.mp4	0.0	301.34745597839355	0.41660618782043457
80	227.13203620910645	response	0	2		78.0	2.5	/experiments/knapen_aot/videos/S_yt-Dwgpjoikt84_71.mp4	0.0	301.75576615333557	
80	227.14033222198486	movie	1		301.0	78.0	2.5	/experiments/knapen_aot/videos/S_yt-Dwgpjoikt84_71.mp4	0.0	301.764062166214	2.508368968963623
80	229.6487011909485	fix_post	2		12.0	78.0	2.5	/experiments/knapen_aot/videos/S_yt-Dwgpjoikt84_71.mp4	0.0	304.2724311351776	0.09996199607849121
81	229.74866318702698	fix_pre	0		35.0	79.0	2.5	/experiments/knapen_aot/videos/R_S_ILSVRC2015_train_00708000.mp4	0.0	304.3723931312561	0.2923760414123535
81	230.03213906288147	response	0	4		79.0	2.5	/experiments/knapen_aot/videos/R_S_ILSVRC2015_train_00708000.mp4	0.0	304.6558690071106	
81	230.04103922843933	movie	1		301.0	79.0	2.5	/experiments/knapen_aot/videos/R_S_ILSVRC2015_train_00708000.mp4	0.0	304.66476917266846	2.5076639652252197
81	232.54870319366455	fix_post	2		12.0	79.0	2.5	/experiments/knapen_aot/videos/R_S_ILSVRC2015_train_00708000.mp4	0.0	307.1724331378937	0.09988880157470703
82	232.64859199523926	fix_pre	0		12.0	80.0	2.5	/experiments/knapen_aot/videos/R_S_yt-x7NWmdlvVIQ_183.mp4	0.0	307.2723219394684	0.10076212882995605
82	232.73311400413513	response	0	2		80.0	2.5	/experiments/knapen_aot/videos/R_S_yt-x7NWmdlvVIQ_183.mp4	0.0	307.35684394836426	
82	232.7493541240692	movie	1		301.0	80.0	2.5	/experiments/knapen_aot/videos/R_S_yt-x7NWmdlvVIQ_183.mp4	0.0	307.37308406829834	2.507607936859131
82	235.25696206092834	fix_post	2		12.0	80.0	2.5	/experiments/knapen_aot/videos/R_S_yt-x7NWmdlvVIQ_183.mp4	0.0	309.88069200515747	0.10006999969482422
83	235.35703206062317	fix_pre	0		7.0	81.0	2.5	/experiments/knapen_aot/videos/R_S_P007_C027_UHD_SDR_2K_AVC.mp4	0.0	309.9807620048523	0.05892300605773926
83	235.407142162323	response	0	2		81.0	2.5	/experiments/knapen_aot/videos/R_S_P007_C027_UHD_SDR_2K_AVC.mp4	0.0	310.0308721065521	
83	235.4159550666809	movie	1		172.0	81.0	2.5	/experiments/knapen_aot/videos/R_S_P007_C027_UHD_SDR_2K_AVC.mp4	0.0	310.03968501091003	2.5077130794525146
83	237.92366814613342	fix_post	2		12.0	81.0	2.5	/experiments/knapen_aot/videos/R_S_P007_C027_UHD_SDR_2K_AVC.mp4	0.0	312.54739809036255	0.09996986389160156
84	238.02363801002502	fix_pre	0		23.0	82.0	2.5	/experiments/knapen_aot/videos/R_S_yt-o_CT2MjZ9fA_216.mp4	0.0	312.64736795425415	0.1916060447692871
84	238.20710611343384	response	0	4		82.0	2.5	/experiments/knapen_aot/videos/R_S_yt-o_CT2MjZ9fA_216.mp4	0.0	312.83083605766296	
84	238.2152440547943	movie	1		301.0	82.0	2.5	/experiments/knapen_aot/videos/R_S_yt-o_CT2MjZ9fA_216.mp4	0.0	312.83897399902344	2.5083980560302734
84	240.72364211082458	fix_post	2		12.0	82.0	2.5	/experiments/knapen_aot/videos/R_S_yt-o_CT2MjZ9fA_216.mp4	0.0	315.3473720550537	0.09990501403808594
85	240.82354712486267	fix_pre	0		26.0	83.0	2.5	blank	1.0	315.4472770690918	0.2174370288848877
85	241.03206610679626	response	0	4		83.0	2.5	blank	1.0	315.6557960510254	
85	241.04098415374756	movie	1		301.0	83.0	2.5	blank	1.0	315.6647140979767	2.5076119899749756
85	243.54859614372253	fix_post	2		12.0	83.0	2.5	blank	1.0	318.17232608795166	0.09995293617248535
87	243.64854907989502	stim	0		391.0					318.27227902412415	3.260435104370117
87	243.87370204925537	response	0	2						318.4974319934845	
87	246.90246319770813	response	0	space						321.52619314193726	
