trial_nr	onset	event_type	phase	response	nr_frames	movie_index	movie_duration	movie_file	blank	onset_abs	duration
0	0.12923002243041992	stim	0		19.0					68.63873887062073	0.15402603149414062
0	0.27529406547546387	response	0	space						68.78480291366577	
1	0.28325605392456055	stim	0		121.0					68.79276490211487	1.00791597366333
1	0.9749269485473633	response	0	space						69.48443579673767	
1	1.191486120223999	response	0	space						69.7009949684143	
1	1.2911720275878906	stim	1		120.0					69.8006808757782	0.9999980926513672
1	1.444221019744873	response	1	4						69.95372986793518	
1	1.5000581741333008	response	1	space						70.00956702232361	
1	1.7621419429779053	response	1	space						70.27165079116821	
1	2.0662841796875	response	1	space						70.57579302787781	
2	2.291170120239258	fix_pre	0		20.0	0.0	2.5	/experiments/knapen_aot/videos/R_S_ILSVRC2015_train_00661001.mp4	0.0	70.80067896842957	0.16668391227722168
2	2.449629068374634	response	0	space		0.0	2.5	/experiments/knapen_aot/videos/R_S_ILSVRC2015_train_00661001.mp4	0.0	70.95913791656494	
2	2.4578540325164795	movie	1		298.0	0.0	2.5	/experiments/knapen_aot/videos/R_S_ILSVRC2015_train_00661001.mp4	0.0	70.96736288070679	2.5083351135253906
2	4.96618914604187	fix_post	2		12.0	0.0	2.5	/experiments/knapen_aot/videos/R_S_ILSVRC2015_train_00661001.mp4	0.0	73.47569799423218	0.10015487670898438
3	5.0663440227508545	fix_pre	0		33.0	1.0	2.5	/experiments/knapen_aot/videos/R_S_yt--OkafQ5VFHs_51.mp4	0.0	73.57585287094116	0.27782297134399414
3	5.33056116104126	response	0	4		1.0	2.5	/experiments/knapen_aot/videos/R_S_yt--OkafQ5VFHs_51.mp4	0.0	73.84007000923157	
3	5.344166994094849	movie	1		299.0	1.0	2.5	/experiments/knapen_aot/videos/R_S_yt--OkafQ5VFHs_51.mp4	0.0	73.85367584228516	2.5053470134735107
3	7.833065032958984	response	1	4		1.0	2.5	/experiments/knapen_aot/videos/R_S_yt--OkafQ5VFHs_51.mp4	0.0	76.34257388114929	
3	7.849514007568359	fix_post	2		12.0	1.0	2.5	/experiments/knapen_aot/videos/R_S_yt--OkafQ5VFHs_51.mp4	0.0	76.35902285575867	0.0999140739440918
4	7.949428081512451	fix_pre	0		59.0	2.0	2.5	/experiments/knapen_aot/videos/S_video_inspire_california_big-sur_landscape_054.1080-h264.mp4	0.0	76.45893692970276	0.491894006729126
4	8.433004140853882	response	0	4		2.0	2.5	/experiments/knapen_aot/videos/S_video_inspire_california_big-sur_landscape_054.1080-h264.mp4	0.0	76.94251298904419	
4	8.441322088241577	movie	1		171.0	2.0	2.5	/experiments/knapen_aot/videos/S_video_inspire_california_big-sur_landscape_054.1080-h264.mp4	0.0	76.95083093643188	2.5081260204315186
4	10.949448108673096	fix_post	2		12.0	2.0	2.5	/experiments/knapen_aot/videos/S_video_inspire_california_big-sur_landscape_054.1080-h264.mp4	0.0	79.4589569568634	0.10014104843139648
5	11.049589157104492	fix_pre	0		282.0	3.0	2.5	/experiments/knapen_aot/videos/S_yt-a0axt7n0GuQ_19.mp4	0.0	79.5590980052948	2.3500030040740967
5	13.39139199256897	response	0	4		3.0	2.5	/experiments/knapen_aot/videos/S_yt-a0axt7n0GuQ_19.mp4	0.0	81.90090084075928	
5	13.399592161178589	movie	1		301.0	3.0	2.5	/experiments/knapen_aot/videos/S_yt-a0axt7n0GuQ_19.mp4	0.0	81.9091010093689	2.5082199573516846
5	15.907812118530273	fix_post	2		12.0	3.0	2.5	/experiments/knapen_aot/videos/S_yt-a0axt7n0GuQ_19.mp4	0.0	84.41732096672058	0.10007190704345703
6	16.00788402557373	fix_pre	0		13.0	4.0	2.5	/experiments/knapen_aot/videos/R_S_pexels-mart-production-7698693.mp4	0.0	84.51739287376404	0.10822200775146484
6	16.107983112335205	response	0	4		4.0	2.5	/experiments/knapen_aot/videos/R_S_pexels-mart-production-7698693.mp4	0.0	84.61749196052551	
6	16.116106033325195	movie	1		210.0	4.0	2.5	/experiments/knapen_aot/videos/R_S_pexels-mart-production-7698693.mp4	0.0	84.6256148815155	2.5084049701690674
6	18.624511003494263	fix_post	2		12.0	4.0	2.5	/experiments/knapen_aot/videos/R_S_pexels-mart-production-7698693.mp4	0.0	87.13401985168457	0.09994196891784668
7	18.72445297241211	fix_pre	0		37.0	5.0	2.5	/experiments/knapen_aot/videos/S_yt-Faxdis4m3Fw_9.mp4	0.0	87.23396182060242	0.30832409858703613
7	19.024585008621216	response	0	4		5.0	2.5	/experiments/knapen_aot/videos/S_yt-Faxdis4m3Fw_9.mp4	0.0	87.53409385681152	
7	19.032777070999146	movie	1		301.0	5.0	2.5	/experiments/knapen_aot/videos/S_yt-Faxdis4m3Fw_9.mp4	0.0	87.54228591918945	2.508347988128662
7	21.541125059127808	fix_post	2		12.0	5.0	2.5	/experiments/knapen_aot/videos/S_yt-Faxdis4m3Fw_9.mp4	0.0	90.05063390731812	0.09997296333312988
8	21.641098022460938	fix_pre	0		19.0	6.0	2.5	/experiments/knapen_aot/videos/R_S_ILSVRC2015_train_00563000.mp4	0.0	90.15060687065125	0.1582810878753662
8	21.791260957717896	response	0	4		6.0	2.5	/experiments/knapen_aot/videos/R_S_ILSVRC2015_train_00563000.mp4	0.0	90.3007698059082	
8	21.799379110336304	movie	1		301.0	6.0	2.5	/experiments/knapen_aot/videos/R_S_ILSVRC2015_train_00563000.mp4	0.0	90.30888795852661	2.508518934249878
8	22.97599697113037	response	1	4		6.0	2.5	/experiments/knapen_aot/videos/R_S_ILSVRC2015_train_00563000.mp4	0.0	91.48550581932068	
8	24.30789804458618	fix_post	2		12.0	6.0	2.5	/experiments/knapen_aot/videos/R_S_ILSVRC2015_train_00563000.mp4	0.0	92.81740689277649	0.09989190101623535
9	24.407789945602417	fix_pre	0		36.0	7.0	2.5	blank	1.0	92.91729879379272	0.2999410629272461
9	24.69960117340088	response	0	4		7.0	2.5	blank	1.0	93.20911002159119	
9	24.707731008529663	movie	1		301.0	7.0	2.5	blank	1.0	93.21723985671997	2.5083041191101074
9	26.849562168121338	response	1	4		7.0	2.5	blank	1.0	95.35907101631165	
9	27.21603512763977	fix_post	2		12.0	7.0	2.5	blank	1.0	95.72554397583008	0.10009384155273438
10	27.316128969192505	fix_pre	0		21.0	8.0	2.5	/experiments/knapen_aot/videos/S_yt-rIQoRErqnlI_17.mp4	0.0	95.82563781738281	0.17494916915893555
10	27.482867002487183	response	0	4		8.0	2.5	/experiments/knapen_aot/videos/S_yt-rIQoRErqnlI_17.mp4	0.0	95.99237585067749	
10	27.49107813835144	movie	1		301.0	8.0	2.5	/experiments/knapen_aot/videos/S_yt-rIQoRErqnlI_17.mp4	0.0	96.00058698654175	2.508344888687134
10	29.999423027038574	fix_post	2		12.0	8.0	2.5	/experiments/knapen_aot/videos/S_yt-rIQoRErqnlI_17.mp4	0.0	98.50893187522888	0.09995198249816895
11	30.099375009536743	fix_pre	0		32.0	9.0	2.5	/experiments/knapen_aot/videos/S_yt-Faxdis4m3Fw_9.mp4	0.0	98.60888385772705	0.26665616035461426
11	30.35791301727295	response	0	4		9.0	2.5	/experiments/knapen_aot/videos/S_yt-Faxdis4m3Fw_9.mp4	0.0	98.86742186546326	
11	30.366031169891357	movie	1		301.0	9.0	2.5	/experiments/knapen_aot/videos/S_yt-Faxdis4m3Fw_9.mp4	0.0	98.87554001808167	2.5083649158477783
11	32.874396085739136	fix_post	2		12.0	9.0	2.5	/experiments/knapen_aot/videos/S_yt-Faxdis4m3Fw_9.mp4	0.0	101.38390493392944	0.0999290943145752
12	32.97432518005371	fix_pre	0		301.0	10.0	2.5	/experiments/knapen_aot/videos/R_S_yt-N7ztk2fa3Ls_137.mp4	0.0	101.48383402824402	2.5083508491516113
12	35.47455406188965	response	0	4		10.0	2.5	/experiments/knapen_aot/videos/R_S_yt-N7ztk2fa3Ls_137.mp4	0.0	103.98406291007996	
12	35.48267602920532	movie	1		300.0	10.0	2.5	/experiments/knapen_aot/videos/R_S_yt-N7ztk2fa3Ls_137.mp4	0.0	103.99218487739563	2.508341073989868
12	35.78289008140564	response	1	4		10.0	2.5	/experiments/knapen_aot/videos/R_S_yt-N7ztk2fa3Ls_137.mp4	0.0	104.29239892959595	
12	37.99101710319519	fix_post	2		12.0	10.0	2.5	/experiments/knapen_aot/videos/R_S_yt-N7ztk2fa3Ls_137.mp4	0.0	106.5005259513855	0.1000678539276123
13	38.0910849571228	fix_pre	0		13.0	11.0	2.5	/experiments/knapen_aot/videos/S_yt-ZE8Af60eNsI_15.mp4	0.0	106.60059380531311	0.10830402374267578
13	38.19115114212036	response	0	4		11.0	2.5	/experiments/knapen_aot/videos/S_yt-ZE8Af60eNsI_15.mp4	0.0	106.70065999031067	
13	38.19938898086548	movie	1		301.0	11.0	2.5	/experiments/knapen_aot/videos/S_yt-ZE8Af60eNsI_15.mp4	0.0	106.70889782905579	2.5083441734313965
13	40.707733154296875	fix_post	2		12.0	11.0	2.5	/experiments/knapen_aot/videos/S_yt-ZE8Af60eNsI_15.mp4	0.0	109.21724200248718	0.0999898910522461
14	40.80772304534912	fix_pre	0		11.0	12.0	2.5	/experiments/knapen_aot/videos/R_S_yt-ph1AkIToO4E_46.mp4	0.0	109.31723189353943	0.09163212776184082
14	40.89116096496582	response	0	4		12.0	2.5	/experiments/knapen_aot/videos/R_S_yt-ph1AkIToO4E_46.mp4	0.0	109.40066981315613	
14	40.89935517311096	movie	1		301.0	12.0	2.5	/experiments/knapen_aot/videos/R_S_yt-ph1AkIToO4E_46.mp4	0.0	109.40886402130127	2.508344888687134
14	43.407700061798096	fix_post	2		12.0	12.0	2.5	/experiments/knapen_aot/videos/R_S_yt-ph1AkIToO4E_46.mp4	0.0	111.9172089099884	0.09999608993530273
15	43.5076961517334	fix_pre	0		13.0	13.0	2.5	blank	1.0	112.0172049999237	0.10831880569458008
15	43.60783815383911	response	0	4		13.0	2.5	blank	1.0	112.11734700202942	
15	43.61601495742798	movie	1		301.0	13.0	2.5	blank	1.0	112.12552380561829	2.508385181427002
15	46.12440013885498	fix_post	2		12.0	13.0	2.5	blank	1.0	114.63390898704529	0.09996485710144043
15	46.15789294242859	response	2	4		13.0	2.5	blank	1.0	114.6674017906189	
16	46.22436499595642	fix_pre	0		41.0	14.0	2.5	/experiments/knapen_aot/videos/R_S_yt-CeOZeB1LXwE_79.mp4	0.0	114.73387384414673	0.34165000915527344
16	46.55776000022888	response	0	4		14.0	2.5	/experiments/knapen_aot/videos/R_S_yt-CeOZeB1LXwE_79.mp4	0.0	115.06726884841919	
16	46.566015005111694	movie	1		301.0	14.0	2.5	/experiments/knapen_aot/videos/R_S_yt-CeOZeB1LXwE_79.mp4	0.0	115.075523853302	2.5083489418029785
16	49.07436394691467	fix_post	2		12.0	14.0	2.5	/experiments/knapen_aot/videos/R_S_yt-CeOZeB1LXwE_79.mp4	0.0	117.58387279510498	0.10003018379211426
17	49.17439413070679	fix_pre	0		14.0	15.0	2.5	/experiments/knapen_aot/videos/R_S_ILSVRC2015_train_00524001.mp4	0.0	117.6839029788971	0.11658883094787598
17	49.282891035079956	response	0	4		15.0	2.5	/experiments/knapen_aot/videos/R_S_ILSVRC2015_train_00524001.mp4	0.0	117.79239988327026	
17	49.29098296165466	movie	1		301.0	15.0	2.5	/experiments/knapen_aot/videos/R_S_ILSVRC2015_train_00524001.mp4	0.0	117.80049180984497	2.5082621574401855
17	51.79924511909485	fix_post	2		12.0	15.0	2.5	/experiments/knapen_aot/videos/R_S_ILSVRC2015_train_00524001.mp4	0.0	120.30875396728516	0.10009193420410156
17	51.85860013961792	response	2	4		15.0	2.5	/experiments/knapen_aot/videos/R_S_ILSVRC2015_train_00524001.mp4	0.0	120.36810898780823	
18	51.89933705329895	fix_pre	0		49.0	16.0	2.5	/experiments/knapen_aot/videos/S_comp_A001_C001_120530_v04_SDR_FINAL_20180706_SDR_2K_AVC.mp4	0.0	120.40884590148926	0.4082810878753662
18	52.299355030059814	response	0	4		16.0	2.5	/experiments/knapen_aot/videos/S_comp_A001_C001_120530_v04_SDR_FINAL_20180706_SDR_2K_AVC.mp4	0.0	120.80886387825012	
18	52.307618141174316	movie	1		165.0	16.0	2.5	/experiments/knapen_aot/videos/S_comp_A001_C001_120530_v04_SDR_FINAL_20180706_SDR_2K_AVC.mp4	0.0	120.81712698936462	2.508427858352661
18	54.81604599952698	fix_post	2		12.0	16.0	2.5	/experiments/knapen_aot/videos/S_comp_A001_C001_120530_v04_SDR_FINAL_20180706_SDR_2K_AVC.mp4	0.0	123.32555484771729	0.09996795654296875
18	54.8745231628418	response	2	4		16.0	2.5	/experiments/knapen_aot/videos/S_comp_A001_C001_120530_v04_SDR_FINAL_20180706_SDR_2K_AVC.mp4	0.0	123.3840320110321	
19	54.916013956069946	fix_pre	0		70.0	17.0	2.5	/experiments/knapen_aot/videos/R_S_yt-w_e3sxIzepA_115.mp4	0.0	123.42552280426025	0.5833160877227783
19	55.491175174713135	response	0	4		17.0	2.5	/experiments/knapen_aot/videos/R_S_yt-w_e3sxIzepA_115.mp4	0.0	124.00068402290344	
19	55.499330043792725	movie	1		301.0	17.0	2.5	/experiments/knapen_aot/videos/R_S_yt-w_e3sxIzepA_115.mp4	0.0	124.00883889198303	2.5083370208740234
19	58.00766706466675	fix_post	2		12.0	17.0	2.5	/experiments/knapen_aot/videos/R_S_yt-w_e3sxIzepA_115.mp4	0.0	126.51717591285706	0.10004901885986328
20	58.10771608352661	fix_pre	0		8.0	18.0	2.5	/experiments/knapen_aot/videos/R_S_yt-xBwq6sHHF5M_21.mp4	0.0	126.61722493171692	0.06662201881408691
20	58.15880608558655	response	0	4		18.0	2.5	/experiments/knapen_aot/videos/R_S_yt-xBwq6sHHF5M_21.mp4	0.0	126.66831493377686	
20	58.1743381023407	movie	1		301.0	18.0	2.5	/experiments/knapen_aot/videos/R_S_yt-xBwq6sHHF5M_21.mp4	0.0	126.683846950531	2.508342981338501
20	60.6826810836792	fix_post	2		12.0	18.0	2.5	/experiments/knapen_aot/videos/R_S_yt-xBwq6sHHF5M_21.mp4	0.0	129.1921899318695	0.0999300479888916
21	60.78261113166809	fix_pre	0		12.0	19.0	2.5	blank	1.0	129.2921199798584	0.0999908447265625
21	60.87451505661011	response	0	4		19.0	2.5	blank	1.0	129.38402390480042	
21	60.88260197639465	movie	1		301.0	19.0	2.5	blank	1.0	129.39211082458496	2.50829815864563
21	63.39090013504028	fix_post	2		12.0	19.0	2.5	blank	1.0	131.9004089832306	0.10004281997680664
22	63.49094295501709	fix_pre	0		11.0	20.0	2.5	/experiments/knapen_aot/videos/R_S_yt-dqcUJzNOzbM_156.mp4	0.0	132.0004518032074	0.09166622161865234
22	63.566835165023804	response	0	4		20.0	2.5	/experiments/knapen_aot/videos/R_S_yt-dqcUJzNOzbM_156.mp4	0.0	132.0763440132141	
22	63.58260917663574	movie	1		301.0	20.0	2.5	/experiments/knapen_aot/videos/R_S_yt-dqcUJzNOzbM_156.mp4	0.0	132.09211802482605	2.508342981338501
22	66.09095215797424	fix_post	2		12.0	20.0	2.5	/experiments/knapen_aot/videos/R_S_yt-dqcUJzNOzbM_156.mp4	0.0	134.60046100616455	0.09998393058776855
23	66.19093608856201	fix_pre	0		43.0	21.0	2.5	/experiments/knapen_aot/videos/S_pexels-mikhail-nilov-8410063.mp4	0.0	134.70044493675232	0.35837888717651367
23	66.54098296165466	response	0	4		21.0	2.5	/experiments/knapen_aot/videos/S_pexels-mikhail-nilov-8410063.mp4	0.0	135.05049180984497	
23	66.54931497573853	movie	1		167.0	21.0	2.5	/experiments/knapen_aot/videos/S_pexels-mikhail-nilov-8410063.mp4	0.0	135.05882382392883	2.5083301067352295
23	69.05764508247375	fix_post	2		12.0	21.0	2.5	/experiments/knapen_aot/videos/S_pexels-mikhail-nilov-8410063.mp4	0.0	137.56715393066406	0.09996199607849121
23	69.13267397880554	response	2	4		21.0	2.5	/experiments/knapen_aot/videos/S_pexels-mikhail-nilov-8410063.mp4	0.0	137.64218282699585	
24	69.15760707855225	fix_pre	0		48.0	22.0	2.5	/experiments/knapen_aot/videos/R_S_yt-rY_ra5Tb9XU_51.mp4	0.0	137.66711592674255	0.39998292922973633
24	69.54179096221924	response	0	4		22.0	2.5	/experiments/knapen_aot/videos/R_S_yt-rY_ra5Tb9XU_51.mp4	0.0	138.05129981040955	
24	69.55759000778198	movie	1		300.0	22.0	2.5	/experiments/knapen_aot/videos/R_S_yt-rY_ra5Tb9XU_51.mp4	0.0	138.0670988559723	2.5082919597625732
24	72.06588196754456	fix_post	2		12.0	22.0	2.5	/experiments/knapen_aot/videos/R_S_yt-rY_ra5Tb9XU_51.mp4	0.0	140.57539081573486	0.10002708435058594
25	72.16590905189514	fix_pre	0		33.0	23.0	2.5	/experiments/knapen_aot/videos/S_production_ID_4325509.mp4	0.0	140.67541790008545	0.27495503425598145
25	72.43263602256775	response	0	4		23.0	2.5	/experiments/knapen_aot/videos/S_production_ID_4325509.mp4	0.0	140.94214487075806	
25	72.44086408615112	movie	1		188.0	23.0	2.5	/experiments/knapen_aot/videos/S_production_ID_4325509.mp4	0.0	140.95037293434143	2.5084569454193115
25	74.94932103157043	fix_post	2		12.0	23.0	2.5	/experiments/knapen_aot/videos/S_production_ID_4325509.mp4	0.0	143.45882987976074	0.09992408752441406
26	75.04924511909485	fix_pre	0		27.0	24.0	2.5	/experiments/knapen_aot/videos/S_production_ID_4787635.mp4	0.0	143.55875396728516	0.224931001663208
26	75.26595306396484	response	0	4		24.0	2.5	/experiments/knapen_aot/videos/S_production_ID_4787635.mp4	0.0	143.77546191215515	
26	75.27417612075806	movie	1		165.0	24.0	2.5	/experiments/knapen_aot/videos/S_production_ID_4787635.mp4	0.0	143.78368496894836	2.508368968963623
26	77.78254508972168	fix_post	2		12.0	24.0	2.5	/experiments/knapen_aot/videos/S_production_ID_4787635.mp4	0.0	146.292053937912	0.10001707077026367
27	77.88256216049194	fix_pre	0		30.0	25.0	2.5	/experiments/knapen_aot/videos/S_yt-CNq5mTA8oXY_176.mp4	0.0	146.39207100868225	0.24993896484375
27	78.12437915802002	response	0	4		25.0	2.5	/experiments/knapen_aot/videos/S_yt-CNq5mTA8oXY_176.mp4	0.0	146.63388800621033	
27	78.1325011253357	movie	1		301.0	25.0	2.5	/experiments/knapen_aot/videos/S_yt-CNq5mTA8oXY_176.mp4	0.0	146.642009973526	2.508363962173462
27	80.64086508750916	fix_post	2		12.0	25.0	2.5	/experiments/knapen_aot/videos/S_yt-CNq5mTA8oXY_176.mp4	0.0	149.15037393569946	0.10002303123474121
28	80.7408881187439	fix_pre	0		47.0	26.0	2.5	blank	1.0	149.2503969669342	0.39162397384643555
28	81.12433409690857	response	0	4		26.0	2.5	blank	1.0	149.63384294509888	
28	81.13251209259033	movie	1		301.0	26.0	2.5	blank	1.0	149.64202094078064	2.508275032043457
28	83.64078712463379	fix_post	2		12.0	26.0	2.5	blank	1.0	152.1502959728241	0.10007190704345703
29	83.74085903167725	fix_pre	0		24.0	27.0	2.5	/experiments/knapen_aot/videos/R_S_yt-EFrazkRaYbs_21.mp4	0.0	152.25036787986755	0.19996213912963867
29	83.93258810043335	response	0	4		27.0	2.5	/experiments/knapen_aot/videos/R_S_yt-EFrazkRaYbs_21.mp4	0.0	152.44209694862366	
29	83.94082117080688	movie	1		301.0	27.0	2.5	/experiments/knapen_aot/videos/R_S_yt-EFrazkRaYbs_21.mp4	0.0	152.4503300189972	2.5083978176116943
29	86.44921898841858	fix_post	2		12.0	27.0	2.5	/experiments/knapen_aot/videos/R_S_yt-EFrazkRaYbs_21.mp4	0.0	154.9587278366089	0.10001111030578613
30	86.54923009872437	fix_pre	0		25.0	28.0	2.5	/experiments/knapen_aot/videos/S_yt-6xXEMHBQ08A_28.mp4	0.0	155.05873894691467	0.20828795433044434
30	86.74938607215881	response	0	4		28.0	2.5	/experiments/knapen_aot/videos/S_yt-6xXEMHBQ08A_28.mp4	0.0	155.25889492034912	
30	86.75751805305481	movie	1		301.0	28.0	2.5	/experiments/knapen_aot/videos/S_yt-6xXEMHBQ08A_28.mp4	0.0	155.26702690124512	2.5082859992980957
30	89.00759315490723	response	1	4		28.0	2.5	/experiments/knapen_aot/videos/S_yt-6xXEMHBQ08A_28.mp4	0.0	157.51710200309753	
30	89.2658040523529	fix_post	2		12.0	28.0	2.5	/experiments/knapen_aot/videos/S_yt-6xXEMHBQ08A_28.mp4	0.0	157.7753129005432	0.1000370979309082
31	89.36584115028381	fix_pre	0		22.0	29.0	2.5	/experiments/knapen_aot/videos/S_pexels-cottonbro-10639398.mp4	0.0	157.87534999847412	0.18328595161437988
31	89.54092216491699	response	0	4		29.0	2.5	/experiments/knapen_aot/videos/S_pexels-cottonbro-10639398.mp4	0.0	158.0504310131073	
31	89.5491271018982	movie	1		193.0	29.0	2.5	/experiments/knapen_aot/videos/S_pexels-cottonbro-10639398.mp4	0.0	158.0586359500885	2.5083680152893066
31	92.0574951171875	fix_post	2		12.0	29.0	2.5	/experiments/knapen_aot/videos/S_pexels-cottonbro-10639398.mp4	0.0	160.5670039653778	0.0999288558959961
32	92.1574239730835	fix_pre	0		6.0	30.0	2.5	/experiments/knapen_aot/videos/R_S_bing-www_cnn_com_2015_04_20_living_steak-eating-contest-molly-schuyler-feat_index_html_1.mp4	0.0	160.6669328212738	0.050002098083496094
32	92.199294090271	response	0	4		30.0	2.5	/experiments/knapen_aot/videos/R_S_bing-www_cnn_com_2015_04_20_living_steak-eating-contest-molly-schuyler-feat_index_html_1.mp4	0.0	160.7088029384613	
32	92.20742607116699	movie	1		301.0	30.0	2.5	/experiments/knapen_aot/videos/R_S_bing-www_cnn_com_2015_04_20_living_steak-eating-contest-molly-schuyler-feat_index_html_1.mp4	0.0	160.7169349193573	2.5083959102630615
32	94.07427096366882	response	1	4		30.0	2.5	/experiments/knapen_aot/videos/R_S_bing-www_cnn_com_2015_04_20_living_steak-eating-contest-molly-schuyler-feat_index_html_1.mp4	0.0	162.58377981185913	
32	94.61590600013733	response	1	4		30.0	2.5	/experiments/knapen_aot/videos/R_S_bing-www_cnn_com_2015_04_20_living_steak-eating-contest-molly-schuyler-feat_index_html_1.mp4	0.0	163.12541484832764	
32	94.71582198143005	fix_post	2		12.0	30.0	2.5	/experiments/knapen_aot/videos/R_S_bing-www_cnn_com_2015_04_20_living_steak-eating-contest-molly-schuyler-feat_index_html_1.mp4	0.0	163.22533082962036	0.09999418258666992
33	94.81581616401672	fix_pre	0		48.0	31.0	2.5	/experiments/knapen_aot/videos/R_S_ILSVRC2015_train_00479001.mp4	0.0	163.32532501220703	0.3999819755554199
33	95.20769095420837	response	0	4		31.0	2.5	/experiments/knapen_aot/videos/R_S_ILSVRC2015_train_00479001.mp4	0.0	163.71719980239868	
33	95.21579813957214	movie	1		301.0	31.0	2.5	/experiments/knapen_aot/videos/R_S_ILSVRC2015_train_00479001.mp4	0.0	163.72530698776245	2.508229970932007
33	97.72402811050415	fix_post	2		12.0	31.0	2.5	/experiments/knapen_aot/videos/R_S_ILSVRC2015_train_00479001.mp4	0.0	166.23353695869446	0.10014796257019043
34	97.82417607307434	fix_pre	0		1.0	32.0	2.5	/experiments/knapen_aot/videos/R_S_yt-n_eO-7KedAE_21.mp4	0.0	166.33368492126465	0.008289098739624023
34	97.82583808898926	response	0	4		32.0	2.5	/experiments/knapen_aot/videos/R_S_yt-n_eO-7KedAE_21.mp4	0.0	166.33534693717957	
34	97.83246517181396	movie	1		301.0	32.0	2.5	/experiments/knapen_aot/videos/R_S_yt-n_eO-7KedAE_21.mp4	0.0	166.34197402000427	2.5082809925079346
34	100.11588406562805	response	1	4		32.0	2.5	/experiments/knapen_aot/videos/R_S_yt-n_eO-7KedAE_21.mp4	0.0	168.62539291381836	
34	100.3407461643219	fix_post	2		12.0	32.0	2.5	/experiments/knapen_aot/videos/R_S_yt-n_eO-7KedAE_21.mp4	0.0	168.8502550125122	0.10007786750793457
35	100.44082403182983	fix_pre	0		15.0	33.0	2.5	blank	1.0	168.95033288002014	0.12487292289733887
35	100.55757808685303	response	0	4		33.0	2.5	blank	1.0	169.06708693504333	
35	100.56569695472717	movie	1		301.0	33.0	2.5	blank	1.0	169.07520580291748	2.508453130722046
35	103.07415008544922	fix_post	2		12.0	33.0	2.5	blank	1.0	171.58365893363953	0.09998798370361328
36	103.17413806915283	fix_pre	0		12.0	34.0	2.5	/experiments/knapen_aot/videos/S_ILSVRC2015_train_00479001.mp4	0.0	171.68364691734314	0.09995889663696289
36	103.2659330368042	response	0	4		34.0	2.5	/experiments/knapen_aot/videos/S_ILSVRC2015_train_00479001.mp4	0.0	171.7754418849945	
36	103.2740969657898	movie	1		301.0	34.0	2.5	/experiments/knapen_aot/videos/S_ILSVRC2015_train_00479001.mp4	0.0	171.7836058139801	2.5083301067352295
36	105.78242707252502	fix_post	2		12.0	34.0	2.5	/experiments/knapen_aot/videos/S_ILSVRC2015_train_00479001.mp4	0.0	174.29193592071533	0.09998202323913574
37	105.88240909576416	fix_pre	0		26.0	35.0	2.5	/experiments/knapen_aot/videos/S_yt-rlVzHENWufE_61.mp4	0.0	174.39191794395447	0.21774888038635254
37	106.08347201347351	response	0	4		35.0	2.5	/experiments/knapen_aot/videos/S_yt-rlVzHENWufE_61.mp4	0.0	174.59298086166382	
37	106.10015797615051	movie	1		301.0	35.0	2.5	/experiments/knapen_aot/videos/S_yt-rlVzHENWufE_61.mp4	0.0	174.60966682434082	2.507237195968628
37	108.60739517211914	fix_post	2		12.0	35.0	2.5	/experiments/knapen_aot/videos/S_yt-rlVzHENWufE_61.mp4	0.0	177.11690402030945	0.10001778602600098
38	108.70741295814514	fix_pre	0		71.0	36.0	2.5	/experiments/knapen_aot/videos/R_S_yt-a0axt7n0GuQ_19.mp4	0.0	177.21692180633545	0.591616153717041
38	109.2908980846405	response	0	4		36.0	2.5	/experiments/knapen_aot/videos/R_S_yt-a0axt7n0GuQ_19.mp4	0.0	177.8004069328308	
38	109.29902911186218	movie	1		301.0	36.0	2.5	/experiments/knapen_aot/videos/R_S_yt-a0axt7n0GuQ_19.mp4	0.0	177.8085379600525	2.5083580017089844
38	111.80738711357117	fix_post	2		12.0	36.0	2.5	/experiments/knapen_aot/videos/R_S_yt-a0axt7n0GuQ_19.mp4	0.0	180.31689596176147	0.10003495216369629
39	111.90742206573486	fix_pre	0		32.0	37.0	2.5	/experiments/knapen_aot/videos/R_S_wc-b4Oquu3WQPRz_45.mp4	0.0	180.41693091392517	0.26660609245300293
39	112.16583609580994	response	0	4		37.0	2.5	/experiments/knapen_aot/videos/R_S_wc-b4Oquu3WQPRz_45.mp4	0.0	180.67534494400024	
39	112.17402815818787	movie	1		165.0	37.0	2.5	/experiments/knapen_aot/videos/R_S_wc-b4Oquu3WQPRz_45.mp4	0.0	180.68353700637817	2.508340835571289
39	114.68236899375916	fix_post	2		12.0	37.0	2.5	/experiments/knapen_aot/videos/R_S_wc-b4Oquu3WQPRz_45.mp4	0.0	183.19187784194946	0.1000211238861084
40	114.78239011764526	fix_pre	0		23.0	38.0	2.5	/experiments/knapen_aot/videos/S_yt-8LO59eN9om4_16.mp4	0.0	183.29189896583557	0.19263792037963867
40	114.96588015556335	response	0	4		38.0	2.5	/experiments/knapen_aot/videos/S_yt-8LO59eN9om4_16.mp4	0.0	183.47538900375366	
40	114.9750280380249	movie	1		301.0	38.0	2.5	/experiments/knapen_aot/videos/S_yt-8LO59eN9om4_16.mp4	0.0	183.4845368862152	2.507370948791504
40	116.39176607131958	response	1	4		38.0	2.5	/experiments/knapen_aot/videos/S_yt-8LO59eN9om4_16.mp4	0.0	184.9012749195099	
40	117.4823989868164	fix_post	2		12.0	38.0	2.5	/experiments/knapen_aot/videos/S_yt-8LO59eN9om4_16.mp4	0.0	185.9919078350067	0.09993600845336914
41	117.58233499526978	fix_pre	0		29.0	39.0	2.5	/experiments/knapen_aot/videos/S_yt-pB9w3AA-woE_37.mp4	0.0	186.09184384346008	0.241685152053833
41	117.81578516960144	response	0	4		39.0	2.5	/experiments/knapen_aot/videos/S_yt-pB9w3AA-woE_37.mp4	0.0	186.32529401779175	
41	117.82402014732361	movie	1		301.0	39.0	2.5	/experiments/knapen_aot/videos/S_yt-pB9w3AA-woE_37.mp4	0.0	186.33352899551392	2.5083818435668945
41	120.3324019908905	fix_post	2		12.0	39.0	2.5	/experiments/knapen_aot/videos/S_yt-pB9w3AA-woE_37.mp4	0.0	188.8419108390808	0.1000051498413086
42	120.43240714073181	fix_pre	0		81.0	40.0	2.5	blank	1.0	188.94191598892212	0.6749739646911621
42	121.09918117523193	response	0	4		40.0	2.5	blank	1.0	189.60869002342224	
42	121.10738110542297	movie	1		301.0	40.0	2.5	blank	1.0	189.61688995361328	2.508316993713379
42	123.61569809913635	fix_post	2		12.0	40.0	2.5	blank	1.0	192.12520694732666	0.0999460220336914
43	123.71564412117004	fix_pre	0		49.0	41.0	2.5	/experiments/knapen_aot/videos/R_S_Pexels_Videos_2795731.mp4	0.0	192.22515296936035	0.40836501121520996
43	124.11577105522156	response	0	4		41.0	2.5	/experiments/knapen_aot/videos/R_S_Pexels_Videos_2795731.mp4	0.0	192.62527990341187	
43	124.12400913238525	movie	1		164.0	41.0	2.5	/experiments/knapen_aot/videos/R_S_Pexels_Videos_2795731.mp4	0.0	192.63351798057556	2.5082998275756836
43	126.63230895996094	fix_post	2		12.0	41.0	2.5	/experiments/knapen_aot/videos/R_S_Pexels_Videos_2795731.mp4	0.0	195.14181780815125	0.10001516342163086
44	126.73232412338257	fix_pre	0		74.0	42.0	2.5	/experiments/knapen_aot/videos/S_yt-22c5eZ1UNME_76.mp4	0.0	195.24183297157288	0.6175529956817627
44	127.34084296226501	response	0	4		42.0	2.5	/experiments/knapen_aot/videos/S_yt-22c5eZ1UNME_76.mp4	0.0	195.85035181045532	
44	127.34987711906433	movie	1		300.0	42.0	2.5	/experiments/knapen_aot/videos/S_yt-22c5eZ1UNME_76.mp4	0.0	195.85938596725464	2.5074219703674316
44	129.85729908943176	fix_post	2		12.0	42.0	2.5	/experiments/knapen_aot/videos/S_yt-22c5eZ1UNME_76.mp4	0.0	198.36680793762207	0.10000896453857422
45	129.95730805397034	fix_pre	0		28.0	43.0	2.5	/experiments/knapen_aot/videos/S_ILSVRC2015_train_00042003.mp4	0.0	198.46681690216064	0.2333240509033203
45	130.1825201511383	response	0	4		43.0	2.5	/experiments/knapen_aot/videos/S_ILSVRC2015_train_00042003.mp4	0.0	198.6920289993286	
45	130.19063210487366	movie	1		301.0	43.0	2.5	/experiments/knapen_aot/videos/S_ILSVRC2015_train_00042003.mp4	0.0	198.70014095306396	2.508327007293701
45	132.5609471797943	response	1	4		43.0	2.5	/experiments/knapen_aot/videos/S_ILSVRC2015_train_00042003.mp4	0.0	201.07045602798462	
45	132.69895911216736	fix_post	2		12.0	43.0	2.5	/experiments/knapen_aot/videos/S_ILSVRC2015_train_00042003.mp4	0.0	201.20846796035767	0.1000368595123291
46	132.7989959716797	fix_pre	0		480.0	44.0	2.5	/experiments/knapen_aot/videos/R_S_yt-hTkrnNr39dk_202.mp4	0.0	201.30850481987	3.999845027923584
46	136.79072999954224	response	0	4		44.0	2.5	/experiments/knapen_aot/videos/R_S_yt-hTkrnNr39dk_202.mp4	0.0	205.30023884773254	
46	136.79884099960327	movie	1		301.0	44.0	2.5	/experiments/knapen_aot/videos/R_S_yt-hTkrnNr39dk_202.mp4	0.0	205.30834984779358	2.5083911418914795
46	139.30723214149475	fix_post	2		12.0	44.0	2.5	/experiments/knapen_aot/videos/R_S_yt-hTkrnNr39dk_202.mp4	0.0	207.81674098968506	0.10007381439208984
47	139.40730595588684	fix_pre	0		252.0	45.0	2.5	/experiments/knapen_aot/videos/S_ahJft-G235A_122.mp4	0.0	207.91681480407715	2.0998849868774414
47	141.49907302856445	response	0	4		45.0	2.5	/experiments/knapen_aot/videos/S_ahJft-G235A_122.mp4	0.0	210.00858187675476	
47	141.50719094276428	movie	1		301.0	45.0	2.5	/experiments/knapen_aot/videos/S_ahJft-G235A_122.mp4	0.0	210.0166997909546	2.5083441734313965
47	144.01553511619568	fix_post	2		12.0	45.0	2.5	/experiments/knapen_aot/videos/S_ahJft-G235A_122.mp4	0.0	212.525043964386	0.10006999969482422
48	144.1156051158905	fix_pre	0		61.0	46.0	2.5	/experiments/knapen_aot/videos/R_S_yt-0d5TkclKWVA_146.mp4	0.0	212.6251139640808	0.5082850456237793
48	144.61573195457458	response	0	4		46.0	2.5	/experiments/knapen_aot/videos/R_S_yt-0d5TkclKWVA_146.mp4	0.0	213.1252408027649	
48	144.62389016151428	movie	1		301.0	46.0	2.5	/experiments/knapen_aot/videos/R_S_yt-0d5TkclKWVA_146.mp4	0.0	213.1333990097046	2.5084409713745117
48	146.13463401794434	response	1	4		46.0	2.5	/experiments/knapen_aot/videos/R_S_yt-0d5TkclKWVA_146.mp4	0.0	214.64414286613464	
48	147.1323311328888	fix_post	2		12.0	46.0	2.5	/experiments/knapen_aot/videos/R_S_yt-0d5TkclKWVA_146.mp4	0.0	215.6418399810791	0.09997081756591797
49	147.2323019504547	fix_pre	0		85.0	47.0	2.5	blank	1.0	215.74181079864502	0.7082381248474121
49	147.93231916427612	response	0	4		47.0	2.5	blank	1.0	216.44182801246643	
49	147.94054007530212	movie	1		301.0	47.0	2.5	blank	1.0	216.45004892349243	2.5083439350128174
49	150.44888401031494	fix_post	2		12.0	47.0	2.5	blank	1.0	218.95839285850525	0.10001206398010254
50	150.54889607429504	fix_pre	0		56.0	48.0	2.5	/experiments/knapen_aot/videos/R_S_ILSVRC2015_train_00693000.mp4	0.0	219.05840492248535	0.4674510955810547
50	151.00736618041992	response	0	4		48.0	2.5	/experiments/knapen_aot/videos/R_S_ILSVRC2015_train_00693000.mp4	0.0	219.51687502861023	
50	151.0163471698761	movie	1		301.0	48.0	2.5	/experiments/knapen_aot/videos/R_S_ILSVRC2015_train_00693000.mp4	0.0	219.5258560180664	2.507535934448242
50	153.52388310432434	fix_post	2		12.0	48.0	2.5	/experiments/knapen_aot/videos/R_S_ILSVRC2015_train_00693000.mp4	0.0	222.03339195251465	0.09997987747192383
51	153.62386298179626	fix_pre	0		142.0	49.0	2.5	/experiments/knapen_aot/videos/S_ILSVRC2015_train_00661001.mp4	0.0	222.13337182998657	1.18408203125
51	154.79903411865234	response	0	4		49.0	2.5	/experiments/knapen_aot/videos/S_ILSVRC2015_train_00661001.mp4	0.0	223.30854296684265	
51	154.80794501304626	movie	1		300.0	49.0	2.5	/experiments/knapen_aot/videos/S_ILSVRC2015_train_00661001.mp4	0.0	223.31745386123657	2.507560968399048
51	157.3155059814453	fix_post	2		12.0	49.0	2.5	/experiments/knapen_aot/videos/S_ILSVRC2015_train_00661001.mp4	0.0	225.82501482963562	0.10006499290466309
52	157.41557097434998	fix_pre	0		78.0	50.0	2.5	/experiments/knapen_aot/videos/R_S_yt-R-SETZtYWaA_336.mp4	0.0	225.92507982254028	0.6499450206756592
52	158.05738401412964	response	0	4		50.0	2.5	/experiments/knapen_aot/videos/R_S_yt-R-SETZtYWaA_336.mp4	0.0	226.56689286231995	
52	158.06551599502563	movie	1		301.0	50.0	2.5	/experiments/knapen_aot/videos/R_S_yt-R-SETZtYWaA_336.mp4	0.0	226.57502484321594	2.508378028869629
52	159.84978795051575	response	1	4		50.0	2.5	/experiments/knapen_aot/videos/R_S_yt-R-SETZtYWaA_336.mp4	0.0	228.35929679870605	
52	160.57389402389526	fix_post	2		12.0	50.0	2.5	/experiments/knapen_aot/videos/R_S_yt-R-SETZtYWaA_336.mp4	0.0	229.08340287208557	0.0999600887298584
53	160.67385411262512	fix_pre	0		72.0	51.0	2.5	/experiments/knapen_aot/videos/S_comp_LW_L001_C003__PSNK_DENOISE_v04_SDR_PS_FINAL_20180803_SDR_2K_AVC.mp4	0.0	229.18336296081543	0.6000099182128906
53	161.26556205749512	response	0	4		51.0	2.5	/experiments/knapen_aot/videos/S_comp_LW_L001_C003__PSNK_DENOISE_v04_SDR_PS_FINAL_20180803_SDR_2K_AVC.mp4	0.0	229.77507090568542	
53	161.273864030838	movie	1		163.0	51.0	2.5	/experiments/knapen_aot/videos/S_comp_LW_L001_C003__PSNK_DENOISE_v04_SDR_PS_FINAL_20180803_SDR_2K_AVC.mp4	0.0	229.78337287902832	2.508319139480591
53	163.7821831703186	fix_post	2		12.0	51.0	2.5	/experiments/knapen_aot/videos/S_comp_LW_L001_C003__PSNK_DENOISE_v04_SDR_PS_FINAL_20180803_SDR_2K_AVC.mp4	0.0	232.2916920185089	0.10006880760192871
54	163.88225197792053	fix_pre	0		45.0	52.0	2.5	/experiments/knapen_aot/videos/S_yt-R-SETZtYWaA_336.mp4	0.0	232.39176082611084	0.3749070167541504
54	164.24907517433167	response	0	4		52.0	2.5	/experiments/knapen_aot/videos/S_yt-R-SETZtYWaA_336.mp4	0.0	232.75858402252197	
54	164.25715899467468	movie	1		301.0	52.0	2.5	/experiments/knapen_aot/videos/S_yt-R-SETZtYWaA_336.mp4	0.0	232.766667842865	2.508308172225952
54	166.76546716690063	fix_post	2		12.0	52.0	2.5	/experiments/knapen_aot/videos/S_yt-R-SETZtYWaA_336.mp4	0.0	235.27497601509094	0.1000218391418457
55	166.86548900604248	fix_pre	0		97.0	53.0	2.5	/experiments/knapen_aot/videos/S_yt-QJ2k6vA8aco_12.mp4	0.0	235.3749978542328	0.8083369731903076
55	167.66566610336304	response	0	4		53.0	2.5	/experiments/knapen_aot/videos/S_yt-QJ2k6vA8aco_12.mp4	0.0	236.17517495155334	
55	167.6738259792328	movie	1		301.0	53.0	2.5	/experiments/knapen_aot/videos/S_yt-QJ2k6vA8aco_12.mp4	0.0	236.1833348274231	2.5083160400390625
55	170.18214201927185	fix_post	2		12.0	53.0	2.5	/experiments/knapen_aot/videos/S_yt-QJ2k6vA8aco_12.mp4	0.0	238.69165086746216	0.09994196891784668
56	170.2820839881897	fix_pre	0		31.0	54.0	2.5	/experiments/knapen_aot/videos/S_yt-RMjo2PPEPEA_112.mp4	0.0	238.79159283638	0.258350133895874
56	170.53224205970764	response	0	4		54.0	2.5	/experiments/knapen_aot/videos/S_yt-RMjo2PPEPEA_112.mp4	0.0	239.04175090789795	
56	170.54043412208557	movie	1		301.0	54.0	2.5	/experiments/knapen_aot/videos/S_yt-RMjo2PPEPEA_112.mp4	0.0	239.04994297027588	2.508297920227051
56	173.04873204231262	fix_post	2		12.0	54.0	2.5	/experiments/knapen_aot/videos/S_yt-RMjo2PPEPEA_112.mp4	0.0	241.55824089050293	0.10010910034179688
57	173.14884114265442	fix_pre	0		35.0	55.0	2.5	blank	1.0	241.65834999084473	0.2916698455810547
57	173.43227910995483	response	0	4		55.0	2.5	blank	1.0	241.94178795814514	
57	173.44051098823547	movie	1		301.0	55.0	2.5	blank	1.0	241.95001983642578	2.50828218460083
57	175.9487931728363	fix_post	2		12.0	55.0	2.5	blank	1.0	244.4583020210266	0.10003089904785156
58	176.04882407188416	fix_pre	0		147.0	56.0	2.5	/experiments/knapen_aot/videos/S_ILSVRC2015_train_00497001.mp4	0.0	244.55833292007446	1.22501802444458
58	177.26555109024048	response	0	4		56.0	2.5	/experiments/knapen_aot/videos/S_ILSVRC2015_train_00497001.mp4	0.0	245.7750599384308	
58	177.27384209632874	movie	1		301.0	56.0	2.5	/experiments/knapen_aot/videos/S_ILSVRC2015_train_00497001.mp4	0.0	245.78335094451904	2.5082409381866455
58	179.673926115036	response	1	4		56.0	2.5	/experiments/knapen_aot/videos/S_ILSVRC2015_train_00497001.mp4	0.0	248.18343496322632	
58	179.78208303451538	fix_post	2		12.0	56.0	2.5	/experiments/knapen_aot/videos/S_ILSVRC2015_train_00497001.mp4	0.0	248.2915918827057	0.0999910831451416
59	179.88207411766052	fix_pre	0		598.0	57.0	2.5	/experiments/knapen_aot/videos/R_S_yt-xBwq6sHHF5M_21.mp4	0.0	248.39158296585083	4.983325004577637
59	184.84965705871582	response	0	4		57.0	2.5	/experiments/knapen_aot/videos/R_S_yt-xBwq6sHHF5M_21.mp4	0.0	253.35916590690613	
59	184.86539912223816	movie	1		299.0	57.0	2.5	/experiments/knapen_aot/videos/R_S_yt-xBwq6sHHF5M_21.mp4	0.0	253.37490797042847	2.5083789825439453
59	187.3737781047821	fix_post	2		12.0	57.0	2.5	/experiments/knapen_aot/videos/R_S_yt-xBwq6sHHF5M_21.mp4	0.0	255.8832869529724	0.10001301765441895
60	187.47379112243652	fix_pre	0		307.0	58.0	2.5	/experiments/knapen_aot/videos/R_S_yt-sWJc_Do8EaI_32.mp4	0.0	255.98329997062683	2.5582449436187744
60	190.02389812469482	response	0	4		58.0	2.5	/experiments/knapen_aot/videos/R_S_yt-sWJc_Do8EaI_32.mp4	0.0	258.53340697288513	
60	190.0320360660553	movie	1		301.0	58.0	2.5	/experiments/knapen_aot/videos/R_S_yt-sWJc_Do8EaI_32.mp4	0.0	258.5415449142456	2.5083889961242676
60	192.54042506217957	fix_post	2		12.0	58.0	2.5	/experiments/knapen_aot/videos/R_S_yt-sWJc_Do8EaI_32.mp4	0.0	261.0499339103699	0.0999610424041748
61	192.64038610458374	fix_pre	0		87.0	59.0	2.5	/experiments/knapen_aot/videos/R_S_ILSVRC2015_train_00441000.mp4	0.0	261.14989495277405	0.7249739170074463
61	193.34965705871582	response	0	4		59.0	2.5	/experiments/knapen_aot/videos/R_S_ILSVRC2015_train_00441000.mp4	0.0	261.8591659069061	
61	193.3653600215912	movie	1		301.0	59.0	2.5	/experiments/knapen_aot/videos/R_S_ILSVRC2015_train_00441000.mp4	0.0	261.8748688697815	2.508352041244507
61	195.8737120628357	fix_post	2		12.0	59.0	2.5	/experiments/knapen_aot/videos/R_S_ILSVRC2015_train_00441000.mp4	0.0	264.383220911026	0.10007500648498535
62	195.97378706932068	fix_pre	0		124.0	60.0	2.5	/experiments/knapen_aot/videos/R_S_yt-YykKZWKmLnQ_386.mp4	0.0	264.483295917511	1.0331740379333496
62	196.99883008003235	response	0	4		60.0	2.5	/experiments/knapen_aot/videos/R_S_yt-YykKZWKmLnQ_386.mp4	0.0	265.50833892822266	
62	197.00696110725403	movie	1		301.0	60.0	2.5	/experiments/knapen_aot/videos/R_S_yt-YykKZWKmLnQ_386.mp4	0.0	265.51646995544434	2.5084619522094727
62	199.0508029460907	response	1	4		60.0	2.5	/experiments/knapen_aot/videos/R_S_yt-YykKZWKmLnQ_386.mp4	0.0	267.560311794281	
62	199.5154230594635	fix_post	2		12.0	60.0	2.5	/experiments/knapen_aot/videos/R_S_yt-YykKZWKmLnQ_386.mp4	0.0	268.0249319076538	0.09997797012329102
63	199.6154010295868	fix_pre	0		61.0	61.0	2.5	blank	1.0	268.1249098777771	0.5083310604095459
63	200.11550116539001	response	0	4		61.0	2.5	blank	1.0	268.6250100135803	
63	200.12373208999634	movie	1		301.0	61.0	2.5	blank	1.0	268.63324093818665	2.508315086364746
63	202.14871907234192	response	1	4		61.0	2.5	blank	1.0	270.6582279205322	
63	202.63204717636108	fix_post	2		12.0	61.0	2.5	blank	1.0	271.1415560245514	0.09992599487304688
64	202.73197317123413	fix_pre	0		78.0	62.0	2.5	/experiments/knapen_aot/videos/S_yt-7e6Z9QQieAk_183.mp4	0.0	271.24148201942444	0.650000810623169
64	203.37382316589355	response	0	4		62.0	2.5	/experiments/knapen_aot/videos/S_yt-7e6Z9QQieAk_183.mp4	0.0	271.88333201408386	
64	203.3819739818573	movie	1		301.0	62.0	2.5	/experiments/knapen_aot/videos/S_yt-7e6Z9QQieAk_183.mp4	0.0	271.8914828300476	2.5083611011505127
64	204.8240041732788	response	1	4		62.0	2.5	/experiments/knapen_aot/videos/S_yt-7e6Z9QQieAk_183.mp4	0.0	273.3335130214691	
64	205.8903350830078	fix_post	2		12.0	62.0	2.5	/experiments/knapen_aot/videos/S_yt-7e6Z9QQieAk_183.mp4	0.0	274.3998439311981	0.10000801086425781
65	205.99034309387207	fix_pre	0		36.0	63.0	2.5	/experiments/knapen_aot/videos/R_S_yt-7e6Z9QQieAk_183.mp4	0.0	274.4998519420624	0.29994702339172363
65	206.2821581363678	response	0	4		63.0	2.5	/experiments/knapen_aot/videos/R_S_yt-7e6Z9QQieAk_183.mp4	0.0	274.7916669845581	
65	206.2902901172638	movie	1		301.0	63.0	2.5	/experiments/knapen_aot/videos/R_S_yt-7e6Z9QQieAk_183.mp4	0.0	274.7997989654541	2.5082998275756836
65	207.80759406089783	response	1	4		63.0	2.5	/experiments/knapen_aot/videos/R_S_yt-7e6Z9QQieAk_183.mp4	0.0	276.31710290908813	
65	208.79858994483948	fix_post	2		12.0	63.0	2.5	/experiments/knapen_aot/videos/R_S_yt-7e6Z9QQieAk_183.mp4	0.0	277.3080987930298	0.10006117820739746
66	208.89865112304688	fix_pre	0		21.0	64.0	2.5	/experiments/knapen_aot/videos/S_yt-1Xbcf0BPT-g_57.mp4	0.0	277.4081599712372	0.17490386962890625
66	209.0654261112213	response	0	4		64.0	2.5	/experiments/knapen_aot/videos/S_yt-1Xbcf0BPT-g_57.mp4	0.0	277.5749349594116	
66	209.07355499267578	movie	1		301.0	64.0	2.5	/experiments/knapen_aot/videos/S_yt-1Xbcf0BPT-g_57.mp4	0.0	277.5830638408661	2.508419990539551
66	211.58197498321533	fix_post	2		12.0	64.0	2.5	/experiments/knapen_aot/videos/S_yt-1Xbcf0BPT-g_57.mp4	0.0	280.09148383140564	0.10003209114074707
67	211.68200707435608	fix_pre	0		24.0	65.0	2.5	/experiments/knapen_aot/videos/S_ILSVRC2015_train_00471000.mp4	0.0	280.1915159225464	0.19993090629577637
67	211.8738009929657	response	0	4		65.0	2.5	/experiments/knapen_aot/videos/S_ILSVRC2015_train_00471000.mp4	0.0	280.383309841156	
67	211.88193798065186	movie	1		301.0	65.0	2.5	/experiments/knapen_aot/videos/S_ILSVRC2015_train_00471000.mp4	0.0	280.39144682884216	2.5083839893341064
67	213.2820119857788	response	1	4		65.0	2.5	/experiments/knapen_aot/videos/S_ILSVRC2015_train_00471000.mp4	0.0	281.7915208339691	
67	213.67560195922852	response	1	4		65.0	2.5	/experiments/knapen_aot/videos/S_ILSVRC2015_train_00471000.mp4	0.0	282.1851108074188	
67	214.39032196998596	fix_post	2		12.0	65.0	2.5	/experiments/knapen_aot/videos/S_ILSVRC2015_train_00471000.mp4	0.0	282.89983081817627	0.09999513626098633
68	214.49031710624695	fix_pre	0		29.0	66.0	2.5	/experiments/knapen_aot/videos/S_yt-2IxVZeiSv3g_28.mp4	0.0	282.99982595443726	0.24161195755004883
68	214.72378396987915	response	0	4		66.0	2.5	/experiments/knapen_aot/videos/S_yt-2IxVZeiSv3g_28.mp4	0.0	283.23329281806946	
68	214.731929063797	movie	1		301.0	66.0	2.5	/experiments/knapen_aot/videos/S_yt-2IxVZeiSv3g_28.mp4	0.0	283.2414379119873	2.508378028869629
68	217.24030709266663	fix_post	2		12.0	66.0	2.5	/experiments/knapen_aot/videos/S_yt-2IxVZeiSv3g_28.mp4	0.0	285.74981594085693	0.09993100166320801
69	217.34023809432983	fix_pre	0		35.0	67.0	2.5	/experiments/knapen_aot/videos/S_yt-HoRtvVuuvOs_5.mp4	0.0	285.84974694252014	0.29167985916137695
69	217.62373995780945	response	0	4		67.0	2.5	/experiments/knapen_aot/videos/S_yt-HoRtvVuuvOs_5.mp4	0.0	286.13324880599976	
69	217.6319179534912	movie	1		301.0	67.0	2.5	/experiments/knapen_aot/videos/S_yt-HoRtvVuuvOs_5.mp4	0.0	286.1414268016815	2.508406162261963
69	220.14032411575317	fix_post	2		12.0	67.0	2.5	/experiments/knapen_aot/videos/S_yt-HoRtvVuuvOs_5.mp4	0.0	288.6498329639435	0.09995293617248535
70	220.24027705192566	fix_pre	0		40.0	68.0	2.5	blank	1.0	288.74978590011597	0.33322596549987793
70	220.55790209770203	response	0	4		68.0	2.5	blank	1.0	289.06741094589233	
70	220.57350301742554	movie	1		301.0	68.0	2.5	blank	1.0	289.08301186561584	2.5084431171417236
70	223.04861116409302	response	1	4		68.0	2.5	blank	1.0	291.5581200122833	
70	223.08194613456726	fix_post	2		12.0	68.0	2.5	blank	1.0	291.59145498275757	0.10045099258422852
71	223.1823971271515	fix_pre	0		50.0	69.0	2.5	/experiments/knapen_aot/videos/S_m-aeoYPMqfg_185.mp4	0.0	291.6919059753418	0.41654491424560547
71	223.58285307884216	response	0	4		69.0	2.5	/experiments/knapen_aot/videos/S_m-aeoYPMqfg_185.mp4	0.0	292.09236192703247	
71	223.5989420413971	movie	1		300.0	69.0	2.5	/experiments/knapen_aot/videos/S_m-aeoYPMqfg_185.mp4	0.0	292.1084508895874	2.5079100131988525
71	226.10685205459595	fix_post	2		12.0	69.0	2.5	/experiments/knapen_aot/videos/S_m-aeoYPMqfg_185.mp4	0.0	294.61636090278625	0.10016894340515137
72	226.2070209980011	fix_pre	0		124.0	70.0	2.5	/experiments/knapen_aot/videos/R_S_yt-fymgyhmYnMI_76.mp4	0.0	294.7165298461914	1.033177137374878
72	227.2320520877838	response	0	4		70.0	2.5	/experiments/knapen_aot/videos/R_S_yt-fymgyhmYnMI_76.mp4	0.0	295.7415609359741	
72	227.24019813537598	movie	1		301.0	70.0	2.5	/experiments/knapen_aot/videos/R_S_yt-fymgyhmYnMI_76.mp4	0.0	295.7497069835663	2.5083868503570557
72	229.74858498573303	fix_post	2		12.0	70.0	2.5	/experiments/knapen_aot/videos/R_S_yt-fymgyhmYnMI_76.mp4	0.0	298.25809383392334	0.09995317459106445
73	229.8485381603241	fix_pre	0		80.0	71.0	2.5	/experiments/knapen_aot/videos/R_S_yt-2kPrGwVmRfE_169.mp4	0.0	298.3580470085144	0.6672937870025635
73	230.50701999664307	response	0	4		71.0	2.5	/experiments/knapen_aot/videos/R_S_yt-2kPrGwVmRfE_169.mp4	0.0	299.0165288448334	
73	230.51583194732666	movie	1		300.0	71.0	2.5	/experiments/knapen_aot/videos/R_S_yt-2kPrGwVmRfE_169.mp4	0.0	299.02534079551697	2.5077412128448486
73	230.8986849784851	response	1	4		71.0	2.5	/experiments/knapen_aot/videos/R_S_yt-2kPrGwVmRfE_169.mp4	0.0	299.4081938266754	
73	231.0819890499115	response	1	4		71.0	2.5	/experiments/knapen_aot/videos/R_S_yt-2kPrGwVmRfE_169.mp4	0.0	299.5914978981018	
73	232.27375411987305	response	1	4		71.0	2.5	/experiments/knapen_aot/videos/R_S_yt-2kPrGwVmRfE_169.mp4	0.0	300.78326296806335	
73	233.0235731601715	fix_post	2		12.0	71.0	2.5	/experiments/knapen_aot/videos/R_S_yt-2kPrGwVmRfE_169.mp4	0.0	301.5330820083618	0.09991097450256348
74	233.12348413467407	fix_pre	0		29.0	72.0	2.5	/experiments/knapen_aot/videos/R_S_yt-pPIHiIYSjW8_653.mp4	0.0	301.6329929828644	0.24169182777404785
74	233.35704803466797	response	0	4		72.0	2.5	/experiments/knapen_aot/videos/R_S_yt-pPIHiIYSjW8_653.mp4	0.0	301.8665568828583	
74	233.36517596244812	movie	1		300.0	72.0	2.5	/experiments/knapen_aot/videos/R_S_yt-pPIHiIYSjW8_653.mp4	0.0	301.8746848106384	2.5083651542663574
74	234.56530594825745	response	1	4		72.0	2.5	/experiments/knapen_aot/videos/R_S_yt-pPIHiIYSjW8_653.mp4	0.0	303.07481479644775	
74	235.7152669429779	response	1	4		72.0	2.5	/experiments/knapen_aot/videos/R_S_yt-pPIHiIYSjW8_653.mp4	0.0	304.2247757911682	
74	235.87354111671448	fix_post	2		12.0	72.0	2.5	/experiments/knapen_aot/videos/R_S_yt-pPIHiIYSjW8_653.mp4	0.0	304.3830499649048	0.1000070571899414
75	235.97354817390442	fix_pre	0		132.0	73.0	2.5	/experiments/knapen_aot/videos/S_yt-bQRBtP9zkms_111.mp4	0.0	304.4830570220947	1.0999689102172852
75	237.0577371120453	response	0	4		73.0	2.5	/experiments/knapen_aot/videos/S_yt-bQRBtP9zkms_111.mp4	0.0	305.5672459602356	
75	237.0735170841217	movie	1		301.0	73.0	2.5	/experiments/knapen_aot/videos/S_yt-bQRBtP9zkms_111.mp4	0.0	305.583025932312	2.508302927017212
75	238.2820360660553	response	1	4		73.0	2.5	/experiments/knapen_aot/videos/S_yt-bQRBtP9zkms_111.mp4	0.0	306.7915449142456	
75	239.44862413406372	response	1	4		73.0	2.5	/experiments/knapen_aot/videos/S_yt-bQRBtP9zkms_111.mp4	0.0	307.958132982254	
75	239.58182001113892	fix_post	2		12.0	73.0	2.5	/experiments/knapen_aot/videos/S_yt-bQRBtP9zkms_111.mp4	0.0	308.0913288593292	0.10040903091430664
76	239.68222904205322	fix_pre	0		87.0	74.0	2.5	/experiments/knapen_aot/videos/R_S_wc-sd8_iKx0t7s7_9.mp4	0.0	308.19173789024353	0.7246100902557373
76	240.39867115020752	response	0	4		74.0	2.5	/experiments/knapen_aot/videos/R_S_wc-sd8_iKx0t7s7_9.mp4	0.0	308.9081799983978	
76	240.40683913230896	movie	1		169.0	74.0	2.5	/experiments/knapen_aot/videos/R_S_wc-sd8_iKx0t7s7_9.mp4	0.0	308.91634798049927	2.508394956588745
76	241.83056211471558	response	1	4		74.0	2.5	/experiments/knapen_aot/videos/R_S_wc-sd8_iKx0t7s7_9.mp4	0.0	310.3400709629059	
76	242.9152340888977	fix_post	2		11.0	74.0	2.5	/experiments/knapen_aot/videos/R_S_wc-sd8_iKx0t7s7_9.mp4	0.0	311.424742937088	0.09336495399475098
76	242.99864411354065	response	2	4		74.0	2.5	/experiments/knapen_aot/videos/R_S_wc-sd8_iKx0t7s7_9.mp4	0.0	311.50815296173096	
77	243.00859904289246	fix_pre	0		65.0	75.0	2.5	/experiments/knapen_aot/videos/S_ILSVRC2015_train_00563000.mp4	0.0	311.51810789108276	0.5398900508880615
77	243.54028010368347	response	0	4		75.0	2.5	/experiments/knapen_aot/videos/S_ILSVRC2015_train_00563000.mp4	0.0	312.0497889518738	
77	243.54848909378052	movie	1		301.0	75.0	2.5	/experiments/knapen_aot/videos/S_ILSVRC2015_train_00563000.mp4	0.0	312.0579979419708	2.5083649158477783
77	244.7819709777832	response	1	4		75.0	2.5	/experiments/knapen_aot/videos/S_ILSVRC2015_train_00563000.mp4	0.0	313.2914798259735	
77	246.01532697677612	response	1	4		75.0	2.5	/experiments/knapen_aot/videos/S_ILSVRC2015_train_00563000.mp4	0.0	314.52483582496643	
77	246.0568540096283	fix_post	2		12.0	75.0	2.5	/experiments/knapen_aot/videos/S_ILSVRC2015_train_00563000.mp4	0.0	314.5663628578186	0.09999299049377441
78	246.15684700012207	fix_pre	0		45.0	76.0	2.5	blank	1.0	314.6663558483124	0.37496113777160645
78	246.52361011505127	response	0	4		76.0	2.5	blank	1.0	315.0331189632416	
78	246.53180813789368	movie	1		301.0	76.0	2.5	blank	1.0	315.041316986084	2.508307933807373
78	247.79858303070068	response	1	4		76.0	2.5	blank	1.0	316.308091878891	
78	248.3819019794464	response	1	4		76.0	2.5	blank	1.0	316.8914108276367	
78	249.04011607170105	fix_post	2		12.0	76.0	2.5	blank	1.0	317.54962491989136	0.10032796859741211
79	249.14044404029846	fix_pre	0		42.0	77.0	2.5	/experiments/knapen_aot/videos/S_yt--5ls65Ue1RA_52.mp4	0.0	317.64995288848877	0.34975600242614746
79	249.48189306259155	response	0	4		77.0	2.5	/experiments/knapen_aot/videos/S_yt--5ls65Ue1RA_52.mp4	0.0	317.99140191078186	
79	249.4902000427246	movie	1		300.0	77.0	2.5	/experiments/knapen_aot/videos/S_yt--5ls65Ue1RA_52.mp4	0.0	317.9997088909149	2.508255958557129
79	251.99845600128174	fix_post	2		12.0	77.0	2.5	/experiments/knapen_aot/videos/S_yt--5ls65Ue1RA_52.mp4	0.0	320.50796484947205	0.10033917427062988
80	252.09879517555237	fix_pre	0		75.0	78.0	2.5	/experiments/knapen_aot/videos/S_yt-Xkx53mjgj2E_30.mp4	0.0	320.6083040237427	0.6249358654022217
80	252.71524214744568	response	0	4		78.0	2.5	/experiments/knapen_aot/videos/S_yt-Xkx53mjgj2E_30.mp4	0.0	321.224750995636	
80	252.7237310409546	movie	1		301.0	78.0	2.5	/experiments/knapen_aot/videos/S_yt-Xkx53mjgj2E_30.mp4	0.0	321.2332398891449	2.50809907913208
80	253.19393610954285	response	1	4		78.0	2.5	/experiments/knapen_aot/videos/S_yt-Xkx53mjgj2E_30.mp4	0.0	321.70344495773315	
80	254.1335699558258	response	1	4		78.0	2.5	/experiments/knapen_aot/videos/S_yt-Xkx53mjgj2E_30.mp4	0.0	322.6430788040161	
80	255.23183012008667	fix_post	2		12.0	78.0	2.5	/experiments/knapen_aot/videos/S_yt-Xkx53mjgj2E_30.mp4	0.0	323.741338968277	0.09996294975280762
81	255.33179306983948	fix_pre	0		164.0	79.0	2.5	/experiments/knapen_aot/videos/S_ILSVRC2015_train_00693000.mp4	0.0	323.8413019180298	1.3666598796844482
81	256.6826410293579	response	0	4		79.0	2.5	/experiments/knapen_aot/videos/S_ILSVRC2015_train_00693000.mp4	0.0	325.1921498775482	
81	256.6984529495239	movie	1		301.0	79.0	2.5	/experiments/knapen_aot/videos/S_ILSVRC2015_train_00693000.mp4	0.0	325.20796179771423	2.508481025695801
81	258.4818480014801	response	1	4		79.0	2.5	/experiments/knapen_aot/videos/S_ILSVRC2015_train_00693000.mp4	0.0	326.9913568496704	
81	259.2069339752197	fix_post	2		12.0	79.0	2.5	/experiments/knapen_aot/videos/S_ILSVRC2015_train_00693000.mp4	0.0	327.71644282341003	0.1000680923461914
82	259.3070020675659	fix_pre	0		423.0	80.0	2.5	/experiments/knapen_aot/videos/S_ILSVRC2015_train_00484001.mp4	0.0	327.8165109157562	3.524714946746826
82	262.8234670162201	response	0	4		80.0	2.5	/experiments/knapen_aot/videos/S_ILSVRC2015_train_00484001.mp4	0.0	331.3329758644104	
82	262.83171701431274	movie	1		301.0	80.0	2.5	/experiments/knapen_aot/videos/S_ILSVRC2015_train_00484001.mp4	0.0	331.34122586250305	2.5083141326904297
82	264.38341212272644	response	1	4		80.0	2.5	/experiments/knapen_aot/videos/S_ILSVRC2015_train_00484001.mp4	0.0	332.89292097091675	
82	265.3400311470032	fix_post	2		12.0	80.0	2.5	/experiments/knapen_aot/videos/S_ILSVRC2015_train_00484001.mp4	0.0	333.8495399951935	0.10000085830688477
83	265.44003200531006	fix_pre	0		97.0	81.0	2.5	/experiments/knapen_aot/videos/R_S_ILSVRC2015_train_00441000.mp4	0.0	333.94954085350037	0.8082900047302246
83	266.24011516571045	response	0	4		81.0	2.5	/experiments/knapen_aot/videos/R_S_ILSVRC2015_train_00441000.mp4	0.0	334.74962401390076	
83	266.2483220100403	movie	1		301.0	81.0	2.5	/experiments/knapen_aot/videos/R_S_ILSVRC2015_train_00441000.mp4	0.0	334.7578308582306	2.508453130722046
83	268.2318160533905	response	1	4		81.0	2.5	/experiments/knapen_aot/videos/R_S_ILSVRC2015_train_00441000.mp4	0.0	336.7413249015808	
83	268.75677514076233	fix_post	2		12.0	81.0	2.5	/experiments/knapen_aot/videos/R_S_ILSVRC2015_train_00441000.mp4	0.0	337.26628398895264	0.09999203681945801
83	268.773588180542	response	2	4		81.0	2.5	/experiments/knapen_aot/videos/R_S_ILSVRC2015_train_00441000.mp4	0.0	337.2830970287323	
84	268.8567671775818	fix_pre	0		86.0	82.0	2.5	blank	1.0	337.3662760257721	0.7165679931640625
84	269.5650930404663	response	0	4		82.0	2.5	blank	1.0	338.0746018886566	
84	269.57333517074585	movie	1		301.0	82.0	2.5	blank	1.0	338.08284401893616	2.5083940029144287
84	272.0817291736603	fix_post	2		12.0	82.0	2.5	blank	1.0	340.5912380218506	0.10014986991882324
85	272.1818790435791	fix_pre	0		1.0	83.0	2.5	/experiments/knapen_aot/videos/R_S_ILSVRC2015_train_00563000.mp4	0.0	340.6913878917694	0.008175134658813477
85	272.1835639476776	response	0	4		83.0	2.5	/experiments/knapen_aot/videos/R_S_ILSVRC2015_train_00563000.mp4	0.0	340.6930727958679	
85	272.1900541782379	movie	1		301.0	83.0	2.5	/experiments/knapen_aot/videos/R_S_ILSVRC2015_train_00563000.mp4	0.0	340.6995630264282	2.508342981338501
85	273.0234479904175	response	1	4		83.0	2.5	/experiments/knapen_aot/videos/R_S_ILSVRC2015_train_00563000.mp4	0.0	341.5329568386078	
85	274.6983971595764	fix_post	2		12.0	83.0	2.5	/experiments/knapen_aot/videos/R_S_ILSVRC2015_train_00563000.mp4	0.0	343.2079060077667	0.09997701644897461
87	274.7983741760254	stim	0		377.0					343.3078830242157	3.1415719985961914
87	277.9360520839691	response	0	space						346.4455609321594	
