trial_nr	onset	event_type	phase	response	nr_frames	movie_index	movie_duration	movie_file	blank	onset_abs	duration
0	0.13324594497680664	stim	0		46.0					63.069782972335815	0.38274407386779785
0	0.5077388286590576	response	0	space						63.444275856018066	
1	0.5159900188446045	stim	0		121.0					63.45252704620361	1.0083038806915283
1	1.5242938995361328	stim	1		120.0					64.46083092689514	0.9996390342712402
1	2.4324469566345215	response	1	space						65.36898398399353	
2	2.523932933807373	fix_pre	0		233.0	0.0	2.5	/experiments/knapen_aot/videos/R_S_yt--jzScB82vKI_90.mp4	0.0	65.46046996116638	1.941575050354004
2	4.457266807556152	response	0	space		0.0	2.5	/experiments/knapen_aot/videos/R_S_yt--jzScB82vKI_90.mp4	0.0	67.39380383491516	
2	4.465507984161377	movie	1		301.0	0.0	2.5	/experiments/knapen_aot/videos/R_S_yt--jzScB82vKI_90.mp4	0.0	67.40204501152039	2.5083768367767334
2	6.97388482093811	fix_post	2		12.0	0.0	2.5	/experiments/knapen_aot/videos/R_S_yt--jzScB82vKI_90.mp4	0.0	69.91042184829712	0.10003805160522461
3	7.073922872543335	fix_pre	0		36.0	1.0	2.5	/experiments/knapen_aot/videos/R_S_production_ID_4499960.mp4	0.0	70.01045989990234	0.300616979598999
3	7.3700079917907715	response	0	2		1.0	2.5	/experiments/knapen_aot/videos/R_S_production_ID_4499960.mp4	0.0	70.30654501914978	
3	7.374539852142334	movie	1		166.0	1.0	2.5	/experiments/knapen_aot/videos/R_S_production_ID_4499960.mp4	0.0	70.31107687950134	2.5076961517333984
3	9.882236003875732	fix_post	2		12.0	1.0	2.5	/experiments/knapen_aot/videos/R_S_production_ID_4499960.mp4	0.0	72.81877303123474	0.0999608039855957
4	9.982196807861328	fix_pre	0		56.0	2.0	2.5	/experiments/knapen_aot/videos/S_yt-mDil5vGZb14_4049.mp4	0.0	72.91873383522034	0.4666750431060791
4	10.440680980682373	response	0	2		2.0	2.5	/experiments/knapen_aot/videos/S_yt-mDil5vGZb14_4049.mp4	0.0	73.37721800804138	
4	10.448871850967407	movie	1		298.0	2.0	2.5	/experiments/knapen_aot/videos/S_yt-mDil5vGZb14_4049.mp4	0.0	73.38540887832642	2.508301019668579
4	12.957172870635986	fix_post	2		12.0	2.0	2.5	/experiments/knapen_aot/videos/S_yt-mDil5vGZb14_4049.mp4	0.0	75.893709897995	0.09999513626098633
5	13.057168006896973	fix_pre	0		27.0	3.0	2.5	/experiments/knapen_aot/videos/R_S_production_ID_4820325.mp4	0.0	75.99370503425598	0.2249138355255127
5	13.274009943008423	response	0	2		3.0	2.5	/experiments/knapen_aot/videos/R_S_production_ID_4820325.mp4	0.0	76.21054697036743	
5	13.282081842422485	movie	1		171.0	3.0	2.5	/experiments/knapen_aot/videos/R_S_production_ID_4820325.mp4	0.0	76.2186188697815	2.5084331035614014
5	15.790514945983887	fix_post	2		12.0	3.0	2.5	/experiments/knapen_aot/videos/R_S_production_ID_4820325.mp4	0.0	78.7270519733429	0.09999585151672363
5	15.865577936172485	response	2	2		3.0	2.5	/experiments/knapen_aot/videos/R_S_production_ID_4820325.mp4	0.0	78.8021149635315	
6	15.89051079750061	fix_pre	0		113.0	4.0	2.5	/experiments/knapen_aot/videos/S_pexels-ron-lach-8259631.mp4	0.0	78.82704782485962	0.9422712326049805
6	16.823922872543335	response	0	2		4.0	2.5	/experiments/knapen_aot/videos/S_pexels-ron-lach-8259631.mp4	0.0	79.76045989990234	
6	16.83278203010559	movie	1		193.0	4.0	2.5	/experiments/knapen_aot/videos/S_pexels-ron-lach-8259631.mp4	0.0	79.7693190574646	2.5077409744262695
6	19.34052300453186	fix_post	2		12.0	4.0	2.5	/experiments/knapen_aot/videos/S_pexels-ron-lach-8259631.mp4	0.0	82.27706003189087	0.10000491142272949
7	19.44052791595459	fix_pre	0		24.0	5.0	2.5	blank	1.0	82.3770649433136	0.19995689392089844
7	19.632303953170776	response	0	2		5.0	2.5	blank	1.0	82.56884098052979	
7	19.64048480987549	movie	1		301.0	5.0	2.5	blank	1.0	82.5770218372345	2.508329153060913
7	22.1488139629364	fix_post	2		12.0	5.0	2.5	blank	1.0	85.08535099029541	0.09994006156921387
8	22.248754024505615	fix_pre	0		21.0	6.0	2.5	/experiments/knapen_aot/videos/S_flickr-lamujuri-10653517683_4.mp4	0.0	85.18529105186462	0.17510485649108887
8	22.408123016357422	response	0	2		6.0	2.5	/experiments/knapen_aot/videos/S_flickr-lamujuri-10653517683_4.mp4	0.0	85.34466004371643	
8	22.423858880996704	movie	1		168.0	6.0	2.5	/experiments/knapen_aot/videos/S_flickr-lamujuri-10653517683_4.mp4	0.0	85.36039590835571	2.5082900524139404
8	24.932148933410645	fix_post	2		12.0	6.0	2.5	/experiments/knapen_aot/videos/S_flickr-lamujuri-10653517683_4.mp4	0.0	87.86868596076965	0.09997296333312988
8	24.983507871627808	response	2	2		6.0	2.5	/experiments/knapen_aot/videos/S_flickr-lamujuri-10653517683_4.mp4	0.0	87.92004489898682	
9	25.032121896743774	fix_pre	0		122.0	7.0	2.5	/experiments/knapen_aot/videos/R_S_yt-AjyR9--Mx3A_44.mp4	0.0	87.96865892410278	1.0166759490966797
9	26.040544986724854	response	0	2		7.0	2.5	/experiments/knapen_aot/videos/R_S_yt-AjyR9--Mx3A_44.mp4	0.0	88.97708201408386	
9	26.048797845840454	movie	1		301.0	7.0	2.5	/experiments/knapen_aot/videos/R_S_yt-AjyR9--Mx3A_44.mp4	0.0	88.98533487319946	2.5083541870117188
9	28.557152032852173	fix_post	2		12.0	7.0	2.5	/experiments/knapen_aot/videos/R_S_yt-AjyR9--Mx3A_44.mp4	0.0	91.49368906021118	0.09984493255615234
10	28.656996965408325	fix_pre	0		18.0	8.0	2.5	/experiments/knapen_aot/videos/S_yt-jbvXEFk2Gyw_12.mp4	0.0	91.59353399276733	0.15013384819030762
10	28.791481971740723	response	0	2		8.0	2.5	/experiments/knapen_aot/videos/S_yt-jbvXEFk2Gyw_12.mp4	0.0	91.72801899909973	
10	28.807130813598633	movie	1		301.0	8.0	2.5	/experiments/knapen_aot/videos/S_yt-jbvXEFk2Gyw_12.mp4	0.0	91.74366784095764	2.508258104324341
10	31.315388917922974	fix_post	2		12.0	8.0	2.5	/experiments/knapen_aot/videos/S_yt-jbvXEFk2Gyw_12.mp4	0.0	94.25192594528198	0.10001802444458008
11	31.415406942367554	fix_pre	0		6.0	9.0	2.5	/experiments/knapen_aot/videos/R_S_yt-KK6fVRAMm-c_476.mp4	0.0	94.35194396972656	0.050004005432128906
11	31.45730686187744	response	0	2		9.0	2.5	/experiments/knapen_aot/videos/R_S_yt-KK6fVRAMm-c_476.mp4	0.0	94.39384388923645	
11	31.465410947799683	movie	1		301.0	9.0	2.5	/experiments/knapen_aot/videos/R_S_yt-KK6fVRAMm-c_476.mp4	0.0	94.40194797515869	2.5083320140838623
11	33.973742961883545	fix_post	2		12.0	9.0	2.5	/experiments/knapen_aot/videos/R_S_yt-KK6fVRAMm-c_476.mp4	0.0	96.91027998924255	0.09999394416809082
12	34.073736906051636	fix_pre	0		9.0	10.0	2.5	/experiments/knapen_aot/videos/S_bing-vimeo_com_161378598_22.mp4	0.0	97.01027393341064	0.07518291473388672
12	34.1409809589386	response	0	2		10.0	2.5	/experiments/knapen_aot/videos/S_bing-vimeo_com_161378598_22.mp4	0.0	97.07751798629761	
12	34.14891982078552	movie	1		165.0	10.0	2.5	/experiments/knapen_aot/videos/S_bing-vimeo_com_161378598_22.mp4	0.0	97.08545684814453	2.5081989765167236
12	36.657118797302246	fix_post	2		12.0	10.0	2.5	/experiments/knapen_aot/videos/S_bing-vimeo_com_161378598_22.mp4	0.0	99.59365582466125	0.10002422332763672
13	36.75714302062988	fix_pre	0		3.0	11.0	2.5	/experiments/knapen_aot/videos/R_S_ILSVRC2015_train_00465000.mp4	0.0	99.69368004798889	0.024974822998046875
13	36.77384901046753	response	0	2		11.0	2.5	/experiments/knapen_aot/videos/R_S_ILSVRC2015_train_00465000.mp4	0.0	99.71038603782654	
13	36.78211784362793	movie	1		301.0	11.0	2.5	/experiments/knapen_aot/videos/R_S_ILSVRC2015_train_00465000.mp4	0.0	99.71865487098694	2.5083279609680176
13	39.29044580459595	fix_post	2		12.0	11.0	2.5	/experiments/knapen_aot/videos/R_S_ILSVRC2015_train_00465000.mp4	0.0	102.22698283195496	0.09998321533203125
14	39.39042901992798	fix_pre	0		9.0	12.0	2.5	/experiments/knapen_aot/videos/R_S_yt-MyL1VlXiZa4_25.mp4	0.0	102.32696604728699	0.07495379447937012
14	39.45725393295288	response	0	2		12.0	2.5	/experiments/knapen_aot/videos/R_S_yt-MyL1VlXiZa4_25.mp4	0.0	102.39379096031189	
14	39.46538281440735	movie	1		301.0	12.0	2.5	/experiments/knapen_aot/videos/R_S_yt-MyL1VlXiZa4_25.mp4	0.0	102.40191984176636	2.5082521438598633
14	41.97363495826721	fix_post	2		12.0	12.0	2.5	/experiments/knapen_aot/videos/R_S_yt-MyL1VlXiZa4_25.mp4	0.0	104.91017198562622	0.10007786750793457
15	42.07371282577515	fix_pre	0		3.0	13.0	2.5	blank	1.0	105.01024985313416	0.025097131729125977
15	42.090518951416016	response	0	2		13.0	2.5	blank	1.0	105.02705597877502	
15	42.09880995750427	movie	1		301.0	13.0	2.5	blank	1.0	105.03534698486328	2.5084750652313232
15	44.607285022735596	fix_post	2		12.0	13.0	2.5	blank	1.0	107.5438220500946	0.09972977638244629
16	44.70701479911804	fix_pre	0		22.0	14.0	2.5	/experiments/knapen_aot/videos/R_S_production_ID_4584682.mp4	0.0	107.64355182647705	0.18332910537719727
16	44.88207983970642	response	0	2		14.0	2.5	/experiments/knapen_aot/videos/R_S_production_ID_4584682.mp4	0.0	107.81861686706543	
16	44.89034390449524	movie	1		165.0	14.0	2.5	/experiments/knapen_aot/videos/R_S_production_ID_4584682.mp4	0.0	107.82688093185425	2.5084269046783447
16	47.398770809173584	fix_post	2		12.0	14.0	2.5	/experiments/knapen_aot/videos/R_S_production_ID_4584682.mp4	0.0	110.33530783653259	0.10043501853942871
17	47.49920582771301	fix_pre	0		7.0	15.0	2.5	/experiments/knapen_aot/videos/R_S_pexels-polina-tankilevitch-8203088.mp4	0.0	110.43574285507202	0.05784010887145996
17	47.54889488220215	response	0	2		15.0	2.5	/experiments/knapen_aot/videos/R_S_pexels-polina-tankilevitch-8203088.mp4	0.0	110.48543190956116	
17	47.55704593658447	movie	1		162.0	15.0	2.5	/experiments/knapen_aot/videos/R_S_pexels-polina-tankilevitch-8203088.mp4	0.0	110.49358296394348	2.508373975753784
17	50.06541991233826	fix_post	2		12.0	15.0	2.5	/experiments/knapen_aot/videos/R_S_pexels-polina-tankilevitch-8203088.mp4	0.0	113.00195693969727	0.10040092468261719
17	50.140554904937744	response	2	2		15.0	2.5	/experiments/knapen_aot/videos/R_S_pexels-polina-tankilevitch-8203088.mp4	0.0	113.07709193229675	
18	50.165820837020874	fix_pre	0		106.0	16.0	2.5	/experiments/knapen_aot/videos/R_S_yt-wE0cEswyaaM_53.mp4	0.0	113.10235786437988	0.8828740119934082
18	51.040529012680054	response	0	2		16.0	2.5	/experiments/knapen_aot/videos/R_S_yt-wE0cEswyaaM_53.mp4	0.0	113.97706604003906	
18	51.04869484901428	movie	1		301.0	16.0	2.5	/experiments/knapen_aot/videos/R_S_yt-wE0cEswyaaM_53.mp4	0.0	113.98523187637329	2.50829815864563
18	53.55699300765991	fix_post	2		12.0	16.0	2.5	/experiments/knapen_aot/videos/R_S_yt-wE0cEswyaaM_53.mp4	0.0	116.49353003501892	0.10004186630249023
19	53.6570348739624	fix_pre	0		29.0	17.0	2.5	/experiments/knapen_aot/videos/R_S_yt--cAfxH1WnPo_3.mp4	0.0	116.59357190132141	0.2416820526123047
19	53.89054298400879	response	0	2		17.0	2.5	/experiments/knapen_aot/videos/R_S_yt--cAfxH1WnPo_3.mp4	0.0	116.8270800113678	
19	53.89871692657471	movie	1		301.0	17.0	2.5	/experiments/knapen_aot/videos/R_S_yt--cAfxH1WnPo_3.mp4	0.0	116.83525395393372	2.5083470344543457
19	56.40706396102905	fix_post	2		12.0	17.0	2.5	/experiments/knapen_aot/videos/R_S_yt--cAfxH1WnPo_3.mp4	0.0	119.34360098838806	0.09991288185119629
20	56.50697684288025	fix_pre	0		142.0	18.0	2.5	/experiments/knapen_aot/videos/R_S_yt-Nnt51ug6NF8_53.mp4	0.0	119.44351387023926	1.1833961009979248
20	57.67458486557007	response	0	2		18.0	2.5	/experiments/knapen_aot/videos/R_S_yt-Nnt51ug6NF8_53.mp4	0.0	120.61112189292908	
20	57.690372943878174	movie	1		301.0	18.0	2.5	/experiments/knapen_aot/videos/R_S_yt-Nnt51ug6NF8_53.mp4	0.0	120.62690997123718	2.5083260536193848
20	60.19869899749756	fix_post	2		12.0	18.0	2.5	/experiments/knapen_aot/videos/R_S_yt-Nnt51ug6NF8_53.mp4	0.0	123.13523602485657	0.09995698928833008
21	60.29865598678589	fix_pre	0		22.0	19.0	2.5	blank	1.0	123.2351930141449	0.18337702751159668
21	60.47377800941467	response	0	2		19.0	2.5	blank	1.0	123.41031503677368	
21	60.482033014297485	movie	1		301.0	19.0	2.5	blank	1.0	123.4185700416565	2.508269786834717
21	62.9903028011322	fix_post	2		12.0	19.0	2.5	blank	1.0	125.92683982849121	0.10005402565002441
22	63.09035682678223	fix_pre	0		17.0	20.0	2.5	/experiments/knapen_aot/videos/S_yt-vQGD-rJyMw4_166.mp4	0.0	126.02689385414124	0.1416020393371582
22	63.22382688522339	response	0	2		20.0	2.5	/experiments/knapen_aot/videos/S_yt-vQGD-rJyMw4_166.mp4	0.0	126.1603639125824	
22	63.231958866119385	movie	1		301.0	20.0	2.5	/experiments/knapen_aot/videos/S_yt-vQGD-rJyMw4_166.mp4	0.0	126.1684958934784	2.508342981338501
22	65.74030184745789	fix_post	2		12.0	20.0	2.5	/experiments/knapen_aot/videos/S_yt-vQGD-rJyMw4_166.mp4	0.0	128.6768388748169	0.10006403923034668
23	65.84036588668823	fix_pre	0		27.0	21.0	2.5	/experiments/knapen_aot/videos/R_S_pexels-sora-shimazaki-5925295.mp4	0.0	128.77690291404724	0.22497797012329102
23	66.05715894699097	response	0	2		21.0	2.5	/experiments/knapen_aot/videos/R_S_pexels-sora-shimazaki-5925295.mp4	0.0	128.99369597434998	
23	66.06534385681152	movie	1		165.0	21.0	2.5	/experiments/knapen_aot/videos/R_S_pexels-sora-shimazaki-5925295.mp4	0.0	129.00188088417053	2.5082361698150635
23	68.57358002662659	fix_post	2		12.0	21.0	2.5	/experiments/knapen_aot/videos/R_S_pexels-sora-shimazaki-5925295.mp4	0.0	131.5101170539856	0.09993577003479004
24	68.67351579666138	fix_pre	0		8.0	22.0	2.5	/experiments/knapen_aot/videos/R_S_pexels-ron-lach-8259631.mp4	0.0	131.61005282402039	0.06682515144348145
24	68.73208284378052	response	0	2		22.0	2.5	/experiments/knapen_aot/videos/R_S_pexels-ron-lach-8259631.mp4	0.0	131.66861987113953	
24	68.74034094810486	movie	1		190.0	22.0	2.5	/experiments/knapen_aot/videos/R_S_pexels-ron-lach-8259631.mp4	0.0	131.67687797546387	2.508267879486084
24	71.24860882759094	fix_post	2		12.0	22.0	2.5	/experiments/knapen_aot/videos/R_S_pexels-ron-lach-8259631.mp4	0.0	134.18514585494995	0.09995317459106445
25	71.348562002182	fix_pre	0		33.0	23.0	2.5	/experiments/knapen_aot/videos/R_S_yt-JTuopUgmg1w_101.mp4	0.0	134.28509902954102	0.27539491653442383
25	71.61533689498901	response	0	2		23.0	2.5	/experiments/knapen_aot/videos/R_S_yt-JTuopUgmg1w_101.mp4	0.0	134.55187392234802	
25	71.62395691871643	movie	1		301.0	23.0	2.5	/experiments/knapen_aot/videos/R_S_yt-JTuopUgmg1w_101.mp4	0.0	134.56049394607544	2.507967948913574
25	74.13192486763	fix_post	2		12.0	23.0	2.5	/experiments/knapen_aot/videos/R_S_yt-JTuopUgmg1w_101.mp4	0.0	137.068461894989	0.09996199607849121
26	74.2318868637085	fix_pre	0		7.0	24.0	2.5	/experiments/knapen_aot/videos/S_pexels-kindel-media-8164443.mp4	0.0	137.1684238910675	0.05865001678466797
26	74.28206300735474	response	0	2		24.0	2.5	/experiments/knapen_aot/videos/S_pexels-kindel-media-8164443.mp4	0.0	137.21860003471375	
26	74.29053688049316	movie	1		191.0	24.0	2.5	/experiments/knapen_aot/videos/S_pexels-kindel-media-8164443.mp4	0.0	137.22707390785217	2.5080389976501465
26	76.79857587814331	fix_post	2		12.0	24.0	2.5	/experiments/knapen_aot/videos/S_pexels-kindel-media-8164443.mp4	0.0	139.73511290550232	0.10000109672546387
27	76.89857697486877	fix_pre	0		24.0	25.0	2.5	/experiments/knapen_aot/videos/R_S_yt-2pRKCSgdXXU_30.mp4	0.0	139.83511400222778	0.1999669075012207
27	77.09037280082703	response	0	2		25.0	2.5	/experiments/knapen_aot/videos/R_S_yt-2pRKCSgdXXU_30.mp4	0.0	140.02690982818604	
27	77.09854388237	movie	1		301.0	25.0	2.5	/experiments/knapen_aot/videos/R_S_yt-2pRKCSgdXXU_30.mp4	0.0	140.035080909729	2.508341073989868
27	79.60688495635986	fix_post	2		12.0	25.0	2.5	/experiments/knapen_aot/videos/R_S_yt-2pRKCSgdXXU_30.mp4	0.0	142.54342198371887	0.10025787353515625
28	79.70714282989502	fix_pre	0		6.0	26.0	2.5	/experiments/knapen_aot/videos/S_yt-0n0uppNuUus_15.mp4	0.0	142.64367985725403	0.049851179122924805
28	79.74194097518921	response	0	2		26.0	2.5	/experiments/knapen_aot/videos/S_yt-0n0uppNuUus_15.mp4	0.0	142.67847800254822	
28	79.75699400901794	movie	1		301.0	26.0	2.5	/experiments/knapen_aot/videos/S_yt-0n0uppNuUus_15.mp4	0.0	142.69353103637695	2.5083649158477783
28	82.26535892486572	fix_post	2		12.0	26.0	2.5	/experiments/knapen_aot/videos/S_yt-0n0uppNuUus_15.mp4	0.0	145.20189595222473	0.09982490539550781
29	82.36518383026123	fix_pre	0		27.0	27.0	2.5	/experiments/knapen_aot/videos/R_S_yt-QJ2k6vA8aco_12.mp4	0.0	145.30172085762024	0.22501707077026367
29	82.57448291778564	response	0	2		27.0	2.5	/experiments/knapen_aot/videos/R_S_yt-QJ2k6vA8aco_12.mp4	0.0	145.51101994514465	
29	82.5902009010315	movie	1		301.0	27.0	2.5	/experiments/knapen_aot/videos/R_S_yt-QJ2k6vA8aco_12.mp4	0.0	145.5267379283905	2.5083489418029785
29	85.09854984283447	fix_post	2		12.0	27.0	2.5	/experiments/knapen_aot/videos/R_S_yt-QJ2k6vA8aco_12.mp4	0.0	148.03508687019348	0.10003495216369629
30	85.19858479499817	fix_pre	0		16.0	28.0	2.5	blank	1.0	148.13512182235718	0.13351202011108398
30	85.32369494438171	response	0	2		28.0	2.5	blank	1.0	148.26023197174072	
30	85.33209681510925	movie	1		301.0	28.0	2.5	blank	1.0	148.26863384246826	2.5081350803375244
30	87.84023189544678	fix_post	2		12.0	28.0	2.5	blank	1.0	150.7767689228058	0.0999910831451416
31	87.94022297859192	fix_pre	0		71.0	29.0	2.5	/experiments/knapen_aot/videos/S_comp_A083_C002_1130KZ_v04_SDR_PS_FINAL_20180725_SDR_2K_AVC.mp4	0.0	150.87676000595093	0.5915989875793457
31	88.52369093894958	response	0	2		29.0	2.5	/experiments/knapen_aot/videos/S_comp_A083_C002_1130KZ_v04_SDR_PS_FINAL_20180725_SDR_2K_AVC.mp4	0.0	151.4602279663086	
31	88.53182196617126	movie	1		166.0	29.0	2.5	/experiments/knapen_aot/videos/S_comp_A083_C002_1130KZ_v04_SDR_PS_FINAL_20180725_SDR_2K_AVC.mp4	0.0	151.46835899353027	2.5086159706115723
31	91.04043793678284	fix_post	2		12.0	29.0	2.5	/experiments/knapen_aot/videos/S_comp_A083_C002_1130KZ_v04_SDR_PS_FINAL_20180725_SDR_2K_AVC.mp4	0.0	153.97697496414185	0.09983396530151367
32	91.14027190208435	fix_pre	0		38.0	30.0	2.5	/experiments/knapen_aot/videos/R_S_production_ID_3761571.mp4	0.0	154.07680892944336	0.31679391860961914
32	91.44869184494019	response	0	2		30.0	2.5	/experiments/knapen_aot/videos/R_S_production_ID_3761571.mp4	0.0	154.3852288722992	
32	91.45706582069397	movie	1		169.0	30.0	2.5	/experiments/knapen_aot/videos/R_S_production_ID_3761571.mp4	0.0	154.39360284805298	2.5081331729888916
32	93.96519899368286	fix_post	2		12.0	30.0	2.5	/experiments/knapen_aot/videos/R_S_production_ID_3761571.mp4	0.0	156.90173602104187	0.10001897811889648
33	94.06521797180176	fix_pre	0		26.0	31.0	2.5	/experiments/knapen_aot/videos/S_yt-wrxk7fFkxHg_177.mp4	0.0	157.00175499916077	0.2166898250579834
33	94.2736828327179	response	0	2		31.0	2.5	/experiments/knapen_aot/videos/S_yt-wrxk7fFkxHg_177.mp4	0.0	157.2102198600769	
33	94.28190779685974	movie	1		301.0	31.0	2.5	/experiments/knapen_aot/videos/S_yt-wrxk7fFkxHg_177.mp4	0.0	157.21844482421875	2.5085020065307617
33	96.7904098033905	fix_post	2		12.0	31.0	2.5	/experiments/knapen_aot/videos/S_yt-wrxk7fFkxHg_177.mp4	0.0	159.7269468307495	0.09979104995727539
34	96.89020085334778	fix_pre	0		27.0	32.0	2.5	/experiments/knapen_aot/videos/R_S_yt-rPYBHkUEwwc_10.mp4	0.0	159.8267378807068	0.2249460220336914
34	97.107008934021	response	0	2		32.0	2.5	/experiments/knapen_aot/videos/R_S_yt-rPYBHkUEwwc_10.mp4	0.0	160.04354596138	
34	97.11514687538147	movie	1		301.0	32.0	2.5	/experiments/knapen_aot/videos/R_S_yt-rPYBHkUEwwc_10.mp4	0.0	160.05168390274048	2.508517026901245
34	99.62366390228271	fix_post	2		12.0	32.0	2.5	/experiments/knapen_aot/videos/R_S_yt-rPYBHkUEwwc_10.mp4	0.0	162.56020092964172	0.09984898567199707
35	99.72351288795471	fix_pre	0		22.0	33.0	2.5	blank	1.0	162.66004991531372	0.1833491325378418
35	99.89107298851013	response	0	2		33.0	2.5	blank	1.0	162.82761001586914	
35	99.90686202049255	movie	1		301.0	33.0	2.5	blank	1.0	162.84339904785156	2.5084869861602783
35	102.41534900665283	fix_post	2		12.0	33.0	2.5	blank	1.0	165.35188603401184	0.09980392456054688
36	102.51515293121338	fix_pre	0		41.0	34.0	2.5	/experiments/knapen_aot/videos/S_yt-tX3slAQb9yY_13.mp4	0.0	165.4516899585724	0.341655969619751
36	102.84855580329895	response	0	2		34.0	2.5	/experiments/knapen_aot/videos/S_yt-tX3slAQb9yY_13.mp4	0.0	165.78509283065796	
36	102.85680890083313	movie	1		301.0	34.0	2.5	/experiments/knapen_aot/videos/S_yt-tX3slAQb9yY_13.mp4	0.0	165.79334592819214	2.508363962173462
36	105.36517286300659	fix_post	2		12.0	34.0	2.5	/experiments/knapen_aot/videos/S_yt-tX3slAQb9yY_13.mp4	0.0	168.3017098903656	0.09998297691345215
37	105.46515583992004	fix_pre	0		23.0	35.0	2.5	/experiments/knapen_aot/videos/R_S_yt-yPl8LcgSMjo_32.mp4	0.0	168.40169286727905	0.19163918495178223
37	105.64859390258789	response	0	2		35.0	2.5	/experiments/knapen_aot/videos/R_S_yt-yPl8LcgSMjo_32.mp4	0.0	168.5851309299469	
37	105.65679502487183	movie	1		301.0	35.0	2.5	/experiments/knapen_aot/videos/R_S_yt-yPl8LcgSMjo_32.mp4	0.0	168.59333205223083	2.5084869861602783
37	108.1652820110321	fix_post	2		12.0	35.0	2.5	/experiments/knapen_aot/videos/R_S_yt-yPl8LcgSMjo_32.mp4	0.0	171.1018190383911	0.09987187385559082
38	108.2651538848877	fix_pre	0		6.0	36.0	2.5	/experiments/knapen_aot/videos/S_yt-yPl8LcgSMjo_32.mp4	0.0	171.2016909122467	0.050076961517333984
38	108.30715584754944	response	0	2		36.0	2.5	/experiments/knapen_aot/videos/S_yt-yPl8LcgSMjo_32.mp4	0.0	171.24369287490845	
38	108.31523084640503	movie	1		301.0	36.0	2.5	/experiments/knapen_aot/videos/S_yt-yPl8LcgSMjo_32.mp4	0.0	171.25176787376404	2.5082311630249023
38	110.82346200942993	fix_post	2		12.0	36.0	2.5	/experiments/knapen_aot/videos/S_yt-yPl8LcgSMjo_32.mp4	0.0	173.75999903678894	0.09999990463256836
39	110.9234619140625	fix_pre	0		6.0	37.0	2.5	/experiments/knapen_aot/videos/R_S_video_inspire_california_big-sur_landscape_054.1080-h264.mp4	0.0	173.8599989414215	0.05000710487365723
39	110.95906281471252	response	0	2		37.0	2.5	/experiments/knapen_aot/videos/R_S_video_inspire_california_big-sur_landscape_054.1080-h264.mp4	0.0	173.89559984207153	
39	110.97346901893616	movie	1		174.0	37.0	2.5	/experiments/knapen_aot/videos/R_S_video_inspire_california_big-sur_landscape_054.1080-h264.mp4	0.0	173.91000604629517	2.508330821990967
39	113.48179984092712	fix_post	2		12.0	37.0	2.5	/experiments/knapen_aot/videos/R_S_video_inspire_california_big-sur_landscape_054.1080-h264.mp4	0.0	176.41833686828613	0.10016202926635742
40	113.58196187019348	fix_pre	0		5.0	38.0	2.5	/experiments/knapen_aot/videos/R_S_yt-Uv0dt_-fWJU_40.mp4	0.0	176.5184988975525	0.04205894470214844
40	113.6153199672699	response	0	2		38.0	2.5	/experiments/knapen_aot/videos/R_S_yt-Uv0dt_-fWJU_40.mp4	0.0	176.5518569946289	
40	113.62402081489563	movie	1		301.0	38.0	2.5	/experiments/knapen_aot/videos/R_S_yt-Uv0dt_-fWJU_40.mp4	0.0	176.56055784225464	2.5076751708984375
40	116.13169598579407	fix_post	2		12.0	38.0	2.5	/experiments/knapen_aot/videos/R_S_yt-Uv0dt_-fWJU_40.mp4	0.0	179.06823301315308	0.10001492500305176
41	116.23171091079712	fix_pre	0		5.0	39.0	2.5	/experiments/knapen_aot/videos/R_S_yt-he_RSdeVinA_68.mp4	0.0	179.16824793815613	0.041708946228027344
41	116.25761198997498	response	0	2		39.0	2.5	/experiments/knapen_aot/videos/R_S_yt-he_RSdeVinA_68.mp4	0.0	179.19414901733398	
41	116.27341985702515	movie	1		301.0	39.0	2.5	/experiments/knapen_aot/videos/R_S_yt-he_RSdeVinA_68.mp4	0.0	179.20995688438416	2.5083069801330566
41	118.7817268371582	fix_post	2		12.0	39.0	2.5	/experiments/knapen_aot/videos/R_S_yt-he_RSdeVinA_68.mp4	0.0	181.7182638645172	0.10001516342163086
42	118.88174200057983	fix_pre	0		10.0	40.0	2.5	/experiments/knapen_aot/videos/S_yt-0lfSyC79n14_7.mp4	0.0	181.81827902793884	0.08343386650085449
42	118.95686388015747	response	0	2		40.0	2.5	/experiments/knapen_aot/videos/S_yt-0lfSyC79n14_7.mp4	0.0	181.89340090751648	
42	118.96517586708069	movie	1		301.0	40.0	2.5	/experiments/knapen_aot/videos/S_yt-0lfSyC79n14_7.mp4	0.0	181.9017128944397	2.5082430839538574
42	121.47341895103455	fix_post	2		12.0	40.0	2.5	/experiments/knapen_aot/videos/S_yt-0lfSyC79n14_7.mp4	0.0	184.40995597839355	0.09999895095825195
43	121.5734179019928	fix_pre	0		6.0	41.0	2.5	blank	1.0	184.5099549293518	0.050106048583984375
43	121.61535596847534	response	0	2		41.0	2.5	blank	1.0	184.55189299583435	
43	121.62352395057678	movie	1		301.0	41.0	2.5	blank	1.0	184.5600609779358	2.5082099437713623
43	124.13173389434814	fix_post	2		12.0	41.0	2.5	blank	1.0	187.06827092170715	0.10001301765441895
44	124.23174691200256	fix_pre	0		39.0	42.0	2.5	/experiments/knapen_aot/videos/S_yt-Nnt51ug6NF8_53.mp4	0.0	187.16828393936157	0.324908971786499
44	124.54850196838379	response	0	2		42.0	2.5	/experiments/knapen_aot/videos/S_yt-Nnt51ug6NF8_53.mp4	0.0	187.4850389957428	
44	124.55665588378906	movie	1		301.0	42.0	2.5	/experiments/knapen_aot/videos/S_yt-Nnt51ug6NF8_53.mp4	0.0	187.49319291114807	2.508388042449951
44	127.06504392623901	fix_post	2		12.0	42.0	2.5	/experiments/knapen_aot/videos/S_yt-Nnt51ug6NF8_53.mp4	0.0	190.00158095359802	0.10003209114074707
45	127.16507601737976	fix_pre	0		3.0	43.0	2.5	/experiments/knapen_aot/videos/S_yt-JTuopUgmg1w_101.mp4	0.0	190.10161304473877	0.025061845779418945
45	127.18182492256165	response	0	2		43.0	2.5	/experiments/knapen_aot/videos/S_yt-JTuopUgmg1w_101.mp4	0.0	190.11836194992065	
45	127.19013786315918	movie	1		301.0	43.0	2.5	/experiments/knapen_aot/videos/S_yt-JTuopUgmg1w_101.mp4	0.0	190.1266748905182	2.5083250999450684
45	129.69846296310425	fix_post	2		12.0	43.0	2.5	/experiments/knapen_aot/videos/S_yt-JTuopUgmg1w_101.mp4	0.0	192.63499999046326	0.09987092018127441
46	129.79833388328552	fix_pre	0		28.0	44.0	2.5	/experiments/knapen_aot/videos/S_production_ID_4325509.mp4	0.0	192.73487091064453	0.23331212997436523
46	130.02349281311035	response	0	2		44.0	2.5	/experiments/knapen_aot/videos/S_production_ID_4325509.mp4	0.0	192.96002984046936	
46	130.0316460132599	movie	1		211.0	44.0	2.5	/experiments/knapen_aot/videos/S_production_ID_4325509.mp4	0.0	192.9681830406189	2.508366823196411
46	132.5400128364563	fix_post	2		12.0	44.0	2.5	/experiments/knapen_aot/videos/S_production_ID_4325509.mp4	0.0	195.4765498638153	0.0999910831451416
47	132.64000391960144	fix_pre	0		60.0	45.0	2.5	/experiments/knapen_aot/videos/S_yt-1RVw8p6Dw2Q_20.mp4	0.0	195.57654094696045	0.49996399879455566
47	133.13184189796448	response	0	2		45.0	2.5	/experiments/knapen_aot/videos/S_yt-1RVw8p6Dw2Q_20.mp4	0.0	196.0683789253235	
47	133.139967918396	movie	1		301.0	45.0	2.5	/experiments/knapen_aot/videos/S_yt-1RVw8p6Dw2Q_20.mp4	0.0	196.076504945755	2.5083820819854736
47	135.64835000038147	fix_post	2		12.0	45.0	2.5	/experiments/knapen_aot/videos/S_yt-1RVw8p6Dw2Q_20.mp4	0.0	198.58488702774048	0.09999799728393555
48	135.7483479976654	fix_pre	0		35.0	46.0	2.5	/experiments/knapen_aot/videos/S_video-12.mp4	0.0	198.6848850250244	0.2915990352630615
48	136.03186702728271	response	0	2		46.0	2.5	/experiments/knapen_aot/videos/S_video-12.mp4	0.0	198.96840405464172	
48	136.03994703292847	movie	1		164.0	46.0	2.5	/experiments/knapen_aot/videos/S_video-12.mp4	0.0	198.97648406028748	2.508373975753784
48	138.54832100868225	fix_post	2		12.0	46.0	2.5	/experiments/knapen_aot/videos/S_video-12.mp4	0.0	201.48485803604126	0.09998583793640137
49	138.64830684661865	fix_pre	0		15.0	47.0	2.5	blank	1.0	201.58484387397766	0.12497997283935547
49	138.76507687568665	response	0	2		47.0	2.5	blank	1.0	201.70161390304565	
49	138.773286819458	movie	1		301.0	47.0	2.5	blank	1.0	201.70982384681702	2.508347988128662
49	141.28163480758667	fix_post	2		12.0	47.0	2.5	blank	1.0	204.21817183494568	0.09993505477905273
50	141.38156986236572	fix_pre	0		53.0	48.0	2.5	/experiments/knapen_aot/videos/R_S_production_ID_4153808.mp4	0.0	204.31810688972473	0.4417121410369873
50	141.80755996704102	response	0	2		48.0	2.5	/experiments/knapen_aot/videos/R_S_production_ID_4153808.mp4	0.0	204.74409699440002	
50	141.8232820034027	movie	1		197.0	48.0	2.5	/experiments/knapen_aot/videos/R_S_production_ID_4153808.mp4	0.0	204.75981903076172	2.5082879066467285
50	144.33156991004944	fix_post	2		12.0	48.0	2.5	/experiments/knapen_aot/videos/R_S_production_ID_4153808.mp4	0.0	207.26810693740845	0.1000359058380127
51	144.43160581588745	fix_pre	0		7.0	49.0	2.5	/experiments/knapen_aot/videos/R_S_yt-0MB_IYX1fgo_44.mp4	0.0	207.36814284324646	0.05829501152038574
51	144.4743390083313	response	0	2		49.0	2.5	/experiments/knapen_aot/videos/R_S_yt-0MB_IYX1fgo_44.mp4	0.0	207.4108760356903	
51	144.48990082740784	movie	1		301.0	49.0	2.5	/experiments/knapen_aot/videos/R_S_yt-0MB_IYX1fgo_44.mp4	0.0	207.42643785476685	2.508373975753784
51	146.99827480316162	fix_post	2		12.0	49.0	2.5	/experiments/knapen_aot/videos/R_S_yt-0MB_IYX1fgo_44.mp4	0.0	209.93481183052063	0.10005402565002441
52	147.09832882881165	fix_pre	0		41.0	50.0	2.5	/experiments/knapen_aot/videos/R_S_production_ID_4153808.mp4	0.0	210.03486585617065	0.34162211418151855
52	147.43171286582947	response	0	2		50.0	2.5	/experiments/knapen_aot/videos/R_S_production_ID_4153808.mp4	0.0	210.36824989318848	
52	147.43995094299316	movie	1		208.0	50.0	2.5	/experiments/knapen_aot/videos/R_S_production_ID_4153808.mp4	0.0	210.37648797035217	2.508333921432495
52	149.94828486442566	fix_post	2		12.0	50.0	2.5	/experiments/knapen_aot/videos/R_S_production_ID_4153808.mp4	0.0	212.88482189178467	0.09997701644897461
53	150.04826188087463	fix_pre	0		28.0	51.0	2.5	/experiments/knapen_aot/videos/R_S_yt-Ol4xuEA8xQc_776.mp4	0.0	212.98479890823364	0.23461604118347168
53	150.27340388298035	response	0	2		51.0	2.5	/experiments/knapen_aot/videos/R_S_yt-Ol4xuEA8xQc_776.mp4	0.0	213.20994091033936	
53	150.2828779220581	movie	1		300.0	51.0	2.5	/experiments/knapen_aot/videos/R_S_yt-Ol4xuEA8xQc_776.mp4	0.0	213.21941494941711	2.5070910453796387
53	152.78996896743774	fix_post	2		12.0	51.0	2.5	/experiments/knapen_aot/videos/R_S_yt-Ol4xuEA8xQc_776.mp4	0.0	215.72650599479675	0.09989404678344727
54	152.8898630142212	fix_pre	0		59.0	52.0	2.5	/experiments/knapen_aot/videos/R_S_yt-_6j2NXrB-zE_28.mp4	0.0	215.8264000415802	0.49173498153686523
54	153.37346982955933	response	0	2		52.0	2.5	/experiments/knapen_aot/videos/R_S_yt-_6j2NXrB-zE_28.mp4	0.0	216.31000685691833	
54	153.38159799575806	movie	1		301.0	52.0	2.5	/experiments/knapen_aot/videos/R_S_yt-_6j2NXrB-zE_28.mp4	0.0	216.31813502311707	2.5082828998565674
54	155.88988089561462	fix_post	2		12.0	52.0	2.5	/experiments/knapen_aot/videos/R_S_yt-_6j2NXrB-zE_28.mp4	0.0	218.82641792297363	0.10007405281066895
55	155.9899549484253	fix_pre	0		512.0	53.0	2.5	/experiments/knapen_aot/videos/R_S_yt-IC62JSYpq9w_71.mp4	0.0	218.9264919757843	4.2665228843688965
55	160.24833583831787	response	0	2		53.0	2.5	/experiments/knapen_aot/videos/R_S_yt-IC62JSYpq9w_71.mp4	0.0	223.18487286567688	
55	160.2564778327942	movie	1		301.0	53.0	2.5	/experiments/knapen_aot/videos/R_S_yt-IC62JSYpq9w_71.mp4	0.0	223.1930148601532	2.508392095565796
55	162.76486992835999	fix_post	2		12.0	53.0	2.5	/experiments/knapen_aot/videos/R_S_yt-IC62JSYpq9w_71.mp4	0.0	225.701406955719	0.09993696212768555
56	162.86480689048767	fix_pre	0		31.0	54.0	2.5	/experiments/knapen_aot/videos/S_yt-hHdxZ26SImA_17.mp4	0.0	225.80134391784668	0.25831103324890137
56	163.11503100395203	response	0	2		54.0	2.5	/experiments/knapen_aot/videos/S_yt-hHdxZ26SImA_17.mp4	0.0	226.05156803131104	
56	163.12311792373657	movie	1		301.0	54.0	2.5	/experiments/knapen_aot/videos/S_yt-hHdxZ26SImA_17.mp4	0.0	226.05965495109558	2.508388042449951
56	165.63150596618652	fix_post	2		12.0	54.0	2.5	/experiments/knapen_aot/videos/S_yt-hHdxZ26SImA_17.mp4	0.0	228.56804299354553	0.1000208854675293
57	165.73152685165405	fix_pre	0		23.0	55.0	2.5	/experiments/knapen_aot/videos/S_production_ID_4820325.mp4	0.0	228.66806387901306	0.19164395332336426
57	165.9074318408966	response	0	2		55.0	2.5	/experiments/knapen_aot/videos/S_production_ID_4820325.mp4	0.0	228.84396886825562	
57	165.92317080497742	movie	1		169.0	55.0	2.5	/experiments/knapen_aot/videos/S_production_ID_4820325.mp4	0.0	228.85970783233643	2.5083680152893066
57	168.43153882026672	fix_post	2		12.0	55.0	2.5	/experiments/knapen_aot/videos/S_production_ID_4820325.mp4	0.0	231.36807584762573	0.0999600887298584
58	168.53149890899658	fix_pre	0		9.0	56.0	2.5	blank	1.0	231.4680359363556	0.07500195503234863
58	168.59832787513733	response	0	2		56.0	2.5	blank	1.0	231.53486490249634	
58	168.60650086402893	movie	1		301.0	56.0	2.5	blank	1.0	231.54303789138794	2.5082521438598633
58	171.1147530078888	fix_post	2		12.0	56.0	2.5	blank	1.0	234.0512900352478	0.10005593299865723
59	171.21480894088745	fix_pre	0		74.0	57.0	2.5	/experiments/knapen_aot/videos/R_S_yt-4ouMuGUuPHI_193.mp4	0.0	234.15134596824646	0.6166419982910156
59	171.823312997818	response	0	2		57.0	2.5	/experiments/knapen_aot/videos/R_S_yt-4ouMuGUuPHI_193.mp4	0.0	234.759850025177	
59	171.83145093917847	movie	1		301.0	57.0	2.5	/experiments/knapen_aot/videos/R_S_yt-4ouMuGUuPHI_193.mp4	0.0	234.76798796653748	2.5083580017089844
59	174.33980894088745	fix_post	2		12.0	57.0	2.5	/experiments/knapen_aot/videos/R_S_yt-4ouMuGUuPHI_193.mp4	0.0	237.27634596824646	0.09998297691345215
60	174.4397919178009	fix_pre	0		6.0	58.0	2.5	/experiments/knapen_aot/videos/R_S_wc-dwTccI0TNwps_15.mp4	0.0	237.3763289451599	0.05135202407836914
60	174.4816598892212	response	0	2		58.0	2.5	/experiments/knapen_aot/videos/R_S_wc-dwTccI0TNwps_15.mp4	0.0	237.4181969165802	
60	174.49114394187927	movie	1		301.0	58.0	2.5	/experiments/knapen_aot/videos/R_S_wc-dwTccI0TNwps_15.mp4	0.0	237.42768096923828	2.5069260597229004
60	176.99807000160217	fix_post	2		12.0	58.0	2.5	/experiments/knapen_aot/videos/R_S_wc-dwTccI0TNwps_15.mp4	0.0	239.93460702896118	0.1000528335571289
61	177.0981228351593	fix_pre	0		22.0	59.0	2.5	/experiments/knapen_aot/videos/R_S_xq822dX6DDM_1.mp4	0.0	240.0346598625183	0.18446707725524902
61	177.27318787574768	response	0	2		59.0	2.5	/experiments/knapen_aot/videos/R_S_xq822dX6DDM_1.mp4	0.0	240.2097249031067	
61	177.28258991241455	movie	1		301.0	59.0	2.5	/experiments/knapen_aot/videos/R_S_xq822dX6DDM_1.mp4	0.0	240.21912693977356	2.5072529315948486
61	179.7898428440094	fix_post	2		12.0	59.0	2.5	/experiments/knapen_aot/videos/R_S_xq822dX6DDM_1.mp4	0.0	242.7263798713684	0.09996199607849121
62	179.8898048400879	fix_pre	0		11.0	60.0	2.5	/experiments/knapen_aot/videos/S_yt-QqSceHxY3d0_356.mp4	0.0	242.8263418674469	0.09163999557495117
62	179.973317861557	response	0	2		60.0	2.5	/experiments/knapen_aot/videos/S_yt-QqSceHxY3d0_356.mp4	0.0	242.90985488891602	
62	179.98144483566284	movie	1		301.0	60.0	2.5	/experiments/knapen_aot/videos/S_yt-QqSceHxY3d0_356.mp4	0.0	242.91798186302185	2.5083940029144287
62	182.48983883857727	fix_post	2		12.0	60.0	2.5	/experiments/knapen_aot/videos/S_yt-QqSceHxY3d0_356.mp4	0.0	245.42637586593628	0.0999901294708252
63	182.5898289680481	fix_pre	0		15.0	61.0	2.5	/experiments/knapen_aot/videos/S_xq822dX6DDM_1.mp4	0.0	245.5263659954071	0.12496089935302734
63	182.70658683776855	response	0	2		61.0	2.5	/experiments/knapen_aot/videos/S_xq822dX6DDM_1.mp4	0.0	245.64312386512756	
63	182.71478986740112	movie	1		301.0	61.0	2.5	/experiments/knapen_aot/videos/S_xq822dX6DDM_1.mp4	0.0	245.65132689476013	2.508357048034668
63	185.2231469154358	fix_post	2		12.0	61.0	2.5	/experiments/knapen_aot/videos/S_xq822dX6DDM_1.mp4	0.0	248.1596839427948	0.10009002685546875
64	185.32323694229126	fix_pre	0		4.0	62.0	2.5	blank	1.0	248.25977396965027	0.03328108787536621
64	185.3483338356018	response	0	2		62.0	2.5	blank	1.0	248.28487086296082	
64	185.35651803016663	movie	1		301.0	62.0	2.5	blank	1.0	248.29305505752563	2.508190870285034
64	187.86470890045166	fix_post	2		12.0	62.0	2.5	blank	1.0	250.80124592781067	0.10001301765441895
65	187.96472191810608	fix_pre	0		27.0	63.0	2.5	/experiments/knapen_aot/videos/R_S_yt-hMyqUMAbFAk_303.mp4	0.0	250.9012589454651	0.2250499725341797
65	188.18158388137817	response	0	2		63.0	2.5	/experiments/knapen_aot/videos/R_S_yt-hMyqUMAbFAk_303.mp4	0.0	251.11812090873718	
65	188.18977189064026	movie	1		301.0	63.0	2.5	/experiments/knapen_aot/videos/R_S_yt-hMyqUMAbFAk_303.mp4	0.0	251.12630891799927	2.5083229541778564
65	190.69809484481812	fix_post	2		12.0	63.0	2.5	/experiments/knapen_aot/videos/R_S_yt-hMyqUMAbFAk_303.mp4	0.0	253.63463187217712	0.09999704360961914
66	190.79809188842773	fix_pre	0		1.0	64.0	2.5	/experiments/knapen_aot/videos/S_yt-fA0nOetbOJY_580.mp4	0.0	253.73462891578674	0.008265018463134766
66	190.79104089736938	response	0	2		64.0	2.5	/experiments/knapen_aot/videos/S_yt-fA0nOetbOJY_580.mp4	0.0	253.7275779247284	
66	190.80635690689087	movie	1		301.0	64.0	2.5	/experiments/knapen_aot/videos/S_yt-fA0nOetbOJY_580.mp4	0.0	253.74289393424988	2.508294105529785
66	193.31465101242065	fix_post	2		12.0	64.0	2.5	/experiments/knapen_aot/videos/S_yt-fA0nOetbOJY_580.mp4	0.0	256.25118803977966	0.10006999969482422
67	193.41472101211548	fix_pre	0		1.0	65.0	2.5	/experiments/knapen_aot/videos/R_S_yt-ybH6uAiFbjc_273.mp4	0.0	256.3512580394745	0.008322000503540039
67	193.4077010154724	response	0	2		65.0	2.5	/experiments/knapen_aot/videos/R_S_yt-ybH6uAiFbjc_273.mp4	0.0	256.3442380428314	
67	193.42304301261902	movie	1		301.0	65.0	2.5	/experiments/knapen_aot/videos/R_S_yt-ybH6uAiFbjc_273.mp4	0.0	256.359580039978	2.5082969665527344
67	195.93133997917175	fix_post	2		12.0	65.0	2.5	/experiments/knapen_aot/videos/R_S_yt-ybH6uAiFbjc_273.mp4	0.0	258.86787700653076	0.1000518798828125
68	196.03139185905457	fix_pre	0		25.0	66.0	2.5	/experiments/knapen_aot/videos/S_yt-lv6mhnH7_g4_134.mp4	0.0	258.9679288864136	0.20934796333312988
68	196.23151993751526	response	0	2		66.0	2.5	/experiments/knapen_aot/videos/S_yt-lv6mhnH7_g4_134.mp4	0.0	259.16805696487427	
68	196.2407398223877	movie	1		301.0	66.0	2.5	/experiments/knapen_aot/videos/S_yt-lv6mhnH7_g4_134.mp4	0.0	259.1772768497467	2.5073421001434326
68	198.74808192253113	fix_post	2		12.0	66.0	2.5	/experiments/knapen_aot/videos/S_yt-lv6mhnH7_g4_134.mp4	0.0	261.68461894989014	0.09999990463256836
69	198.8480818271637	fix_pre	0		7.0	67.0	2.5	/experiments/knapen_aot/videos/S_S005_C015_SDR_2K_AVC.mp4	0.0	261.7846188545227	0.05942201614379883
69	198.89862489700317	response	0	2		67.0	2.5	/experiments/knapen_aot/videos/S_S005_C015_SDR_2K_AVC.mp4	0.0	261.8351619243622	
69	198.9075038433075	movie	1		169.0	67.0	2.5	/experiments/knapen_aot/videos/S_S005_C015_SDR_2K_AVC.mp4	0.0	261.8440408706665	2.5071420669555664
69	201.41464591026306	fix_post	2		12.0	67.0	2.5	/experiments/knapen_aot/videos/S_S005_C015_SDR_2K_AVC.mp4	0.0	264.35118293762207	0.10005998611450195
70	201.51470589637756	fix_pre	0		18.0	68.0	2.5	/experiments/knapen_aot/videos/R_S_yt-2pRKCSgdXXU_30.mp4	0.0	264.4512429237366	0.149946928024292
70	201.6565089225769	response	0	2		68.0	2.5	/experiments/knapen_aot/videos/R_S_yt-2pRKCSgdXXU_30.mp4	0.0	264.5930459499359	
70	201.66465282440186	movie	1		301.0	68.0	2.5	/experiments/knapen_aot/videos/R_S_yt-2pRKCSgdXXU_30.mp4	0.0	264.60118985176086	2.5083789825439453
70	204.12314200401306	response	1	2		68.0	2.5	/experiments/knapen_aot/videos/R_S_yt-2pRKCSgdXXU_30.mp4	0.0	267.05967903137207	
70	204.1730318069458	fix_post	2		12.0	68.0	2.5	/experiments/knapen_aot/videos/R_S_yt-2pRKCSgdXXU_30.mp4	0.0	267.1095688343048	0.09991121292114258
71	204.27294301986694	fix_pre	0		101.0	69.0	2.5	blank	1.0	267.20948004722595	0.8428008556365967
71	205.10650396347046	response	0	2		69.0	2.5	blank	1.0	268.04304099082947	
71	205.11574387550354	movie	1		301.0	69.0	2.5	blank	1.0	268.05228090286255	2.507282018661499
71	207.62302589416504	fix_post	2		12.0	69.0	2.5	blank	1.0	270.55956292152405	0.1000070571899414
72	207.72303295135498	fix_pre	0		33.0	70.0	2.5	/experiments/knapen_aot/videos/R_S_yt-Q4edV5qiqu0_578.mp4	0.0	270.659569978714	0.2749660015106201
72	207.9822130203247	response	0	2		70.0	2.5	/experiments/knapen_aot/videos/R_S_yt-Q4edV5qiqu0_578.mp4	0.0	270.9187500476837	
72	207.9979989528656	movie	1		301.0	70.0	2.5	/experiments/knapen_aot/videos/R_S_yt-Q4edV5qiqu0_578.mp4	0.0	270.9345359802246	2.508323907852173
72	210.50632286071777	fix_post	2		12.0	70.0	2.5	/experiments/knapen_aot/videos/R_S_yt-Q4edV5qiqu0_578.mp4	0.0	273.4428598880768	0.10000300407409668
73	210.60632586479187	fix_pre	0		30.0	71.0	2.5	/experiments/knapen_aot/videos/R_S_I003_C015_SDR_2K_AVC.mp4	0.0	273.5428628921509	0.24995207786560059
73	210.84810495376587	response	0	2		71.0	2.5	/experiments/knapen_aot/videos/R_S_I003_C015_SDR_2K_AVC.mp4	0.0	273.7846419811249	
73	210.85627794265747	movie	1		177.0	71.0	2.5	/experiments/knapen_aot/videos/R_S_I003_C015_SDR_2K_AVC.mp4	0.0	273.7928149700165	2.5083720684051514
73	213.36465001106262	fix_post	2		12.0	71.0	2.5	/experiments/knapen_aot/videos/R_S_I003_C015_SDR_2K_AVC.mp4	0.0	276.30118703842163	0.10000491142272949
74	213.46465492248535	fix_pre	0		28.0	72.0	2.5	/experiments/knapen_aot/videos/R_S_yt_R-JaY8f33fOCw_25.mp4	0.0	276.40119194984436	0.23427104949951172
74	213.68966102600098	response	0	2		72.0	2.5	/experiments/knapen_aot/videos/R_S_yt_R-JaY8f33fOCw_25.mp4	0.0	276.62619805336	
74	213.69892597198486	movie	1		301.0	72.0	2.5	/experiments/knapen_aot/videos/R_S_yt_R-JaY8f33fOCw_25.mp4	0.0	276.6354629993439	2.507354974746704
74	216.20628094673157	fix_post	2		12.0	72.0	2.5	/experiments/knapen_aot/videos/R_S_yt_R-JaY8f33fOCw_25.mp4	0.0	279.1428179740906	0.10001206398010254
75	216.30629301071167	fix_pre	0		15.0	73.0	2.5	/experiments/knapen_aot/videos/R_S_ILSVRC2015_train_00632002.mp4	0.0	279.2428300380707	0.12497901916503906
75	216.42308402061462	response	0	2		73.0	2.5	/experiments/knapen_aot/videos/R_S_ILSVRC2015_train_00632002.mp4	0.0	279.35962104797363	
75	216.4312720298767	movie	1		301.0	73.0	2.5	/experiments/knapen_aot/videos/R_S_ILSVRC2015_train_00632002.mp4	0.0	279.3678090572357	2.5083489418029785
75	218.9396209716797	fix_post	2		12.0	73.0	2.5	/experiments/knapen_aot/videos/R_S_ILSVRC2015_train_00632002.mp4	0.0	281.8761579990387	0.10000085830688477
76	219.03962182998657	fix_pre	0		8.0	74.0	2.5	/experiments/knapen_aot/videos/R_S_yt-7Fyu2vr7zbA_31.mp4	0.0	281.9761588573456	0.06666803359985352
76	219.09800696372986	response	0	2		74.0	2.5	/experiments/knapen_aot/videos/R_S_yt-7Fyu2vr7zbA_31.mp4	0.0	282.03454399108887	
76	219.10628986358643	movie	1		301.0	74.0	2.5	/experiments/knapen_aot/videos/R_S_yt-7Fyu2vr7zbA_31.mp4	0.0	282.04282689094543	2.50829815864563
76	221.61458802223206	fix_post	2		12.0	74.0	2.5	/experiments/knapen_aot/videos/R_S_yt-7Fyu2vr7zbA_31.mp4	0.0	284.55112504959106	0.09996581077575684
77	221.7145538330078	fix_pre	0		21.0	75.0	2.5	/experiments/knapen_aot/videos/R_S_yt-IX6uxR5DSKk_2.mp4	0.0	284.6510908603668	0.1750190258026123
77	221.88143396377563	response	0	2		75.0	2.5	/experiments/knapen_aot/videos/R_S_yt-IX6uxR5DSKk_2.mp4	0.0	284.81797099113464	
77	221.88957285881042	movie	1		301.0	75.0	2.5	/experiments/knapen_aot/videos/R_S_yt-IX6uxR5DSKk_2.mp4	0.0	284.82610988616943	2.508334159851074
77	224.3979070186615	fix_post	2		12.0	75.0	2.5	/experiments/knapen_aot/videos/R_S_yt-IX6uxR5DSKk_2.mp4	0.0	287.3344440460205	0.0999298095703125
78	224.4978368282318	fix_pre	0		24.0	76.0	2.5	/experiments/knapen_aot/videos/S_yt-r2jZ0zZrqzQ_45.mp4	0.0	287.4343738555908	0.2010941505432129
78	224.68214201927185	response	0	2		76.0	2.5	/experiments/knapen_aot/videos/S_yt-r2jZ0zZrqzQ_45.mp4	0.0	287.61867904663086	
78	224.69893097877502	movie	1		301.0	76.0	2.5	/experiments/knapen_aot/videos/S_yt-r2jZ0zZrqzQ_45.mp4	0.0	287.63546800613403	2.507258892059326
78	227.20618987083435	fix_post	2		12.0	76.0	2.5	/experiments/knapen_aot/videos/S_yt-r2jZ0zZrqzQ_45.mp4	0.0	290.14272689819336	0.10006999969482422
79	227.30625987052917	fix_pre	0		112.0	77.0	2.5	blank	1.0	290.2427968978882	0.9342269897460938
79	228.23137784004211	response	0	2		77.0	2.5	blank	1.0	291.1679148674011	
79	228.24048686027527	movie	1		301.0	77.0	2.5	blank	1.0	291.1770238876343	2.5074310302734375
79	230.7479178905487	fix_post	2		12.0	77.0	2.5	blank	1.0	293.6844549179077	0.10000991821289062
80	230.8479278087616	fix_pre	0		24.0	78.0	2.5	/experiments/knapen_aot/videos/R_S__9v_wUywaAA_35.mp4	0.0	293.7844648361206	0.1999821662902832
80	231.03966188430786	response	0	2		78.0	2.5	/experiments/knapen_aot/videos/R_S__9v_wUywaAA_35.mp4	0.0	293.97619891166687	
80	231.04790997505188	movie	1		301.0	78.0	2.5	/experiments/knapen_aot/videos/R_S__9v_wUywaAA_35.mp4	0.0	293.9844470024109	2.5083389282226562
80	233.55624890327454	fix_post	2		12.0	78.0	2.5	/experiments/knapen_aot/videos/R_S__9v_wUywaAA_35.mp4	0.0	296.49278593063354	0.09995508193969727
81	233.65620398521423	fix_pre	0		2.0	79.0	2.5	/experiments/knapen_aot/videos/R_S_yt-utYnOeoj2Rw_3.mp4	0.0	296.59274101257324	0.016665935516357422
81	233.66466689109802	response	0	2		79.0	2.5	/experiments/knapen_aot/videos/R_S_yt-utYnOeoj2Rw_3.mp4	0.0	296.60120391845703	
81	233.6728699207306	movie	1		301.0	79.0	2.5	/experiments/knapen_aot/videos/R_S_yt-utYnOeoj2Rw_3.mp4	0.0	296.6094069480896	2.5085439682006836
81	236.18141388893127	fix_post	2		12.0	79.0	2.5	/experiments/knapen_aot/videos/R_S_yt-utYnOeoj2Rw_3.mp4	0.0	299.1179509162903	0.09977507591247559
82	236.28118896484375	fix_pre	0		27.0	80.0	2.5	/experiments/knapen_aot/videos/R_S_yt-XtzmBXKYEWk_60.mp4	0.0	299.21772599220276	0.22496390342712402
82	236.4980390071869	response	0	2		80.0	2.5	/experiments/knapen_aot/videos/R_S_yt-XtzmBXKYEWk_60.mp4	0.0	299.4345760345459	
82	236.50615286827087	movie	1		301.0	80.0	2.5	/experiments/knapen_aot/videos/R_S_yt-XtzmBXKYEWk_60.mp4	0.0	299.4426898956299	2.508397102355957
82	239.01454997062683	fix_post	2		12.0	80.0	2.5	/experiments/knapen_aot/videos/R_S_yt-XtzmBXKYEWk_60.mp4	0.0	301.95108699798584	0.10082602500915527
83	239.115375995636	fix_pre	0		17.0	81.0	2.5	/experiments/knapen_aot/videos/R_S_production_ID_4499960.mp4	0.0	302.051913022995	0.1407918930053711
83	239.2480149269104	response	0	2		81.0	2.5	/experiments/knapen_aot/videos/R_S_production_ID_4499960.mp4	0.0	302.1845519542694	
83	239.25616788864136	movie	1		168.0	81.0	2.5	/experiments/knapen_aot/videos/R_S_production_ID_4499960.mp4	0.0	302.19270491600037	2.5083959102630615
83	241.76456379890442	fix_post	2		12.0	81.0	2.5	/experiments/knapen_aot/videos/R_S_production_ID_4499960.mp4	0.0	304.7011008262634	0.10093402862548828
84	241.8654978275299	fix_pre	0		29.0	82.0	2.5	/experiments/knapen_aot/videos/S_DV6V38rplag_215.mp4	0.0	304.8020348548889	0.24067997932434082
84	242.09806895256042	response	0	2		82.0	2.5	/experiments/knapen_aot/videos/S_DV6V38rplag_215.mp4	0.0	305.03460597991943	
84	242.10617780685425	movie	1		300.0	82.0	2.5	/experiments/knapen_aot/videos/S_DV6V38rplag_215.mp4	0.0	305.04271483421326	2.508331060409546
84	244.6145088672638	fix_post	2		12.0	82.0	2.5	/experiments/knapen_aot/videos/S_DV6V38rplag_215.mp4	0.0	307.5510458946228	0.10004210472106934
85	244.71455097198486	fix_pre	0		8.0	83.0	2.5	blank	1.0	307.6510879993439	0.0674288272857666
85	244.7730119228363	response	0	2		83.0	2.5	blank	1.0	307.7095489501953	
85	244.78197979927063	movie	1		301.0	83.0	2.5	blank	1.0	307.71851682662964	2.5075151920318604
85	247.2894949913025	fix_post	2		12.0	83.0	2.5	blank	1.0	310.2260320186615	0.10007381439208984
87	247.38956880569458	stim	0		289.0					310.3261058330536	2.4081780910491943
87	249.79220700263977	response	0	space						312.7287440299988	
