trial_nr	onset	event_type	phase	response	nr_frames	movie_index	movie_duration	movie_file	blank	onset_abs	duration
0	0.13195514678955078	stim	0		116.0					76.40387296676636	0.97176194190979
0	1.0943820476531982	response	0	space						77.36629986763	
1	1.1037170886993408	stim	0		121.0					77.37563490867615	1.0071980953216553
1	1.5942740440368652	response	0	space						77.86619186401367	
1	2.110915184020996	stim	1		120.0					78.3828330039978	1.0000998973846436
2	3.1110150814056396	fix_pre	0		251.0	0.0	2.5	/experiments/knapen_aot/videos/S_yt-CEQnXB0LxQU_278.mp4	0.0	79.38293290138245	2.091491937637329
2	5.194350004196167	response	0	space		0.0	2.5	/experiments/knapen_aot/videos/S_yt-CEQnXB0LxQU_278.mp4	0.0	81.46626782417297	
2	5.202507019042969	movie	1		300.0	0.0	2.5	/experiments/knapen_aot/videos/S_yt-CEQnXB0LxQU_278.mp4	0.0	81.47442483901978	2.508388042449951
2	7.71089506149292	fix_post	2		12.0	0.0	2.5	/experiments/knapen_aot/videos/S_yt-CEQnXB0LxQU_278.mp4	0.0	83.98281288146973	0.09997010231018066
3	7.810865163803101	fix_pre	0		79.0	1.0	2.5	/experiments/knapen_aot/videos/R_S_yt-kNZUFy3cbjQ_9.mp4	0.0	84.08278298377991	0.6608648300170898
3	8.464118957519531	response	0	2		1.0	2.5	/experiments/knapen_aot/videos/R_S_yt-kNZUFy3cbjQ_9.mp4	0.0	84.73603677749634	
3	8.47172999382019	movie	1		300.0	1.0	2.5	/experiments/knapen_aot/videos/R_S_yt-kNZUFy3cbjQ_9.mp4	0.0	84.743647813797	2.5057880878448486
3	10.977518081665039	fix_post	2		12.0	1.0	2.5	/experiments/knapen_aot/videos/R_S_yt-kNZUFy3cbjQ_9.mp4	0.0	87.24943590164185	0.10006403923034668
4	11.077582120895386	fix_pre	0		28.0	2.0	2.5	/experiments/knapen_aot/videos/R_S_yt-9EnchawJ3pA_90.mp4	0.0	87.34949994087219	0.23441791534423828
4	11.302610158920288	response	0	2		2.0	2.5	/experiments/knapen_aot/videos/R_S_yt-9EnchawJ3pA_90.mp4	0.0	87.5745279788971	
4	11.312000036239624	movie	1		300.0	2.0	2.5	/experiments/knapen_aot/videos/R_S_yt-9EnchawJ3pA_90.mp4	0.0	87.58391785621643	2.5072009563446045
4	13.819200992584229	fix_post	2		12.0	2.0	2.5	/experiments/knapen_aot/videos/R_S_yt-9EnchawJ3pA_90.mp4	0.0	90.09111881256104	0.10004401206970215
5	13.91924500465393	fix_pre	0		37.0	3.0	2.5	/experiments/knapen_aot/videos/S_ILSVRC2015_train_00042003.mp4	0.0	90.19116282463074	0.30941295623779297
5	14.219268083572388	response	0	2		3.0	2.5	/experiments/knapen_aot/videos/S_ILSVRC2015_train_00042003.mp4	0.0	90.4911859035492	
5	14.228657960891724	movie	1		301.0	3.0	2.5	/experiments/knapen_aot/videos/S_ILSVRC2015_train_00042003.mp4	0.0	90.50057578086853	2.5071861743927
5	16.735844135284424	fix_post	2		12.0	3.0	2.5	/experiments/knapen_aot/videos/S_ILSVRC2015_train_00042003.mp4	0.0	93.00776195526123	0.09998297691345215
6	16.835827112197876	fix_pre	0		120.0	4.0	2.5	/experiments/knapen_aot/videos/R_S_yt-dkBlyE3igk0_44.mp4	0.0	93.10774493217468	0.9999918937683105
6	17.820078134536743	response	0	2		4.0	2.5	/experiments/knapen_aot/videos/R_S_yt-dkBlyE3igk0_44.mp4	0.0	94.09199595451355	
6	17.835819005966187	movie	1		301.0	4.0	2.5	/experiments/knapen_aot/videos/R_S_yt-dkBlyE3igk0_44.mp4	0.0	94.107736825943	2.508411169052124
6	20.34423017501831	fix_post	2		12.0	4.0	2.5	/experiments/knapen_aot/videos/R_S_yt-dkBlyE3igk0_44.mp4	0.0	96.61614799499512	0.09995388984680176
7	20.444184064865112	fix_pre	0		126.0	5.0	2.5	blank	1.0	96.71610188484192	1.0498979091644287
7	21.485970973968506	response	0	2		5.0	2.5	blank	1.0	97.75788879394531	
7	21.49408197402954	movie	1		301.0	5.0	2.5	blank	1.0	97.76599979400635	2.5083820819854736
7	24.002464056015015	fix_post	2		12.0	5.0	2.5	blank	1.0	100.27438187599182	0.10004806518554688
8	24.10251212120056	fix_pre	0		56.0	6.0	2.5	/experiments/knapen_aot/videos/S_yt-q9kT_c9QjbQ_34.mp4	0.0	100.37442994117737	0.4665820598602295
8	24.560906171798706	response	0	2		6.0	2.5	/experiments/knapen_aot/videos/S_yt-q9kT_c9QjbQ_34.mp4	0.0	100.83282399177551	
8	24.56909418106079	movie	1		301.0	6.0	2.5	/experiments/knapen_aot/videos/S_yt-q9kT_c9QjbQ_34.mp4	0.0	100.8410120010376	2.508373975753784
8	27.077468156814575	fix_post	2		12.0	6.0	2.5	/experiments/knapen_aot/videos/S_yt-q9kT_c9QjbQ_34.mp4	0.0	103.34938597679138	0.09999895095825195
9	27.177467107772827	fix_pre	0		72.0	7.0	2.5	/experiments/knapen_aot/videos/R_S_yt-VbKGc8N_29.mp4	0.0	103.44938492774963	0.5999300479888916
9	27.7692129611969	response	0	2		7.0	2.5	/experiments/knapen_aot/videos/R_S_yt-VbKGc8N_29.mp4	0.0	104.0411307811737	
9	27.77739715576172	movie	1		299.0	7.0	2.5	/experiments/knapen_aot/videos/R_S_yt-VbKGc8N_29.mp4	0.0	104.04931497573853	2.50839900970459
9	30.28579616546631	fix_post	2		12.0	7.0	2.5	/experiments/knapen_aot/videos/R_S_yt-VbKGc8N_29.mp4	0.0	106.55771398544312	0.09998297691345215
10	30.38577914237976	fix_pre	0		43.0	8.0	2.5	/experiments/knapen_aot/videos/R_S_yt-y6JsUW0eSW8_32.mp4	0.0	106.65769696235657	0.3582768440246582
10	30.735926151275635	response	0	2		8.0	2.5	/experiments/knapen_aot/videos/R_S_yt-y6JsUW0eSW8_32.mp4	0.0	107.00784397125244	
10	30.74405598640442	movie	1		301.0	8.0	2.5	/experiments/knapen_aot/videos/R_S_yt-y6JsUW0eSW8_32.mp4	0.0	107.01597380638123	2.5083930492401123
10	33.25244903564453	fix_post	2		12.0	8.0	2.5	/experiments/knapen_aot/videos/R_S_yt-y6JsUW0eSW8_32.mp4	0.0	109.52436685562134	0.10003399848937988
11	33.35248303413391	fix_pre	0		43.0	9.0	2.5	/experiments/knapen_aot/videos/S_yt-Xs7TCzdnUJQ_79.mp4	0.0	109.62440085411072	0.3582890033721924
11	33.70257902145386	response	0	2		9.0	2.5	/experiments/knapen_aot/videos/S_yt-Xs7TCzdnUJQ_79.mp4	0.0	109.97449684143066	
11	33.7107720375061	movie	1		301.0	9.0	2.5	/experiments/knapen_aot/videos/S_yt-Xs7TCzdnUJQ_79.mp4	0.0	109.98268985748291	2.508341073989868
11	36.21911311149597	fix_post	2		12.0	9.0	2.5	/experiments/knapen_aot/videos/S_yt-Xs7TCzdnUJQ_79.mp4	0.0	112.49103093147278	0.1000070571899414
12	36.31912016868591	fix_pre	0		59.0	10.0	2.5	/experiments/knapen_aot/videos/R_S_yt-E8EDQCPbBeI_196.mp4	0.0	112.59103798866272	0.49268293380737305
12	36.80248308181763	response	0	2		10.0	2.5	/experiments/knapen_aot/videos/R_S_yt-E8EDQCPbBeI_196.mp4	0.0	113.07440090179443	
12	36.811803102493286	movie	1		300.0	10.0	2.5	/experiments/knapen_aot/videos/R_S_yt-E8EDQCPbBeI_196.mp4	0.0	113.08372092247009	2.5072810649871826
12	39.31908416748047	fix_post	2		12.0	10.0	2.5	/experiments/knapen_aot/videos/R_S_yt-E8EDQCPbBeI_196.mp4	0.0	115.59100198745728	0.09990501403808594
13	39.418989181518555	fix_pre	0		173.0	11.0	2.5	/experiments/knapen_aot/videos/S_Xq0a2BWE3zA_53.mp4	0.0	115.69090700149536	1.4417369365692139
13	40.85253405570984	response	0	2		11.0	2.5	/experiments/knapen_aot/videos/S_Xq0a2BWE3zA_53.mp4	0.0	117.12445187568665	
13	40.86072611808777	movie	1		301.0	11.0	2.5	/experiments/knapen_aot/videos/S_Xq0a2BWE3zA_53.mp4	0.0	117.13264393806458	2.5083470344543457
13	43.369073152542114	fix_post	2		12.0	11.0	2.5	/experiments/knapen_aot/videos/S_Xq0a2BWE3zA_53.mp4	0.0	119.64099097251892	0.09994101524353027
14	43.469014167785645	fix_pre	0		35.0	12.0	2.5	blank	1.0	119.74093198776245	0.2916429042816162
14	43.75251317024231	response	0	2		12.0	2.5	blank	1.0	120.02443099021912	
14	43.76065707206726	movie	1		301.0	12.0	2.5	blank	1.0	120.03257489204407	2.5083749294281006
14	46.26903200149536	fix_post	2		12.0	12.0	2.5	blank	1.0	122.54094982147217	0.09999299049377441
15	46.369024991989136	fix_pre	0		119.0	13.0	2.5	/experiments/knapen_aot/videos/R_S_yt-rlVzHENWufE_61.mp4	0.0	122.64094281196594	0.9916350841522217
15	47.35249614715576	response	0	2		13.0	2.5	/experiments/knapen_aot/videos/R_S_yt-rlVzHENWufE_61.mp4	0.0	123.62441396713257	
15	47.36066007614136	movie	1		299.0	13.0	2.5	/experiments/knapen_aot/videos/R_S_yt-rlVzHENWufE_61.mp4	0.0	123.63257789611816	2.508366107940674
15	49.86902618408203	fix_post	2		12.0	13.0	2.5	/experiments/knapen_aot/videos/R_S_yt-rlVzHENWufE_61.mp4	0.0	126.14094400405884	0.10000395774841309
16	49.969030141830444	fix_pre	0		35.0	14.0	2.5	/experiments/knapen_aot/videos/S_b2-2.mp4	0.0	126.24094796180725	0.2916598320007324
16	50.25247311592102	response	0	2		14.0	2.5	/experiments/knapen_aot/videos/S_b2-2.mp4	0.0	126.52439093589783	
16	50.26068997383118	movie	1		167.0	14.0	2.5	/experiments/knapen_aot/videos/S_b2-2.mp4	0.0	126.53260779380798	2.5082859992980957
16	52.76897597312927	fix_post	2		12.0	14.0	2.5	/experiments/knapen_aot/videos/S_b2-2.mp4	0.0	129.04089379310608	0.09995508193969727
17	52.86893105506897	fix_pre	0		46.0	15.0	2.5	/experiments/knapen_aot/videos/S_yt-yQrDeFlFmfM_138.mp4	0.0	129.14084887504578	0.38333702087402344
17	53.24411606788635	response	0	2		15.0	2.5	/experiments/knapen_aot/videos/S_yt-yQrDeFlFmfM_138.mp4	0.0	129.51603388786316	
17	53.25226807594299	movie	1		301.0	15.0	2.5	/experiments/knapen_aot/videos/S_yt-yQrDeFlFmfM_138.mp4	0.0	129.5241858959198	2.5084099769592285
17	55.76067805290222	fix_post	2		12.0	15.0	2.5	/experiments/knapen_aot/videos/S_yt-yQrDeFlFmfM_138.mp4	0.0	132.03259587287903	0.09997391700744629
18	55.86065196990967	fix_pre	0		70.0	16.0	2.5	/experiments/knapen_aot/videos/R_S_ILSVRC2015_train_00569006.mp4	0.0	132.13256978988647	0.5833489894866943
18	56.435930013656616	response	0	2		16.0	2.5	/experiments/knapen_aot/videos/R_S_ILSVRC2015_train_00569006.mp4	0.0	132.70784783363342	
18	56.44400095939636	movie	1		300.0	16.0	2.5	/experiments/knapen_aot/videos/R_S_ILSVRC2015_train_00569006.mp4	0.0	132.71591877937317	2.5083060264587402
18	58.9523069858551	fix_post	2		12.0	16.0	2.5	/experiments/knapen_aot/videos/R_S_ILSVRC2015_train_00569006.mp4	0.0	135.2242248058319	0.10002517700195312
19	59.052332162857056	fix_pre	0		27.0	17.0	2.5	/experiments/knapen_aot/videos/S_yt-LYnwnfi1JJ4_120.mp4	0.0	135.32424998283386	0.22497296333312988
19	59.269140005111694	response	0	2		17.0	2.5	/experiments/knapen_aot/videos/S_yt-LYnwnfi1JJ4_120.mp4	0.0	135.5410578250885	
19	59.277305126190186	movie	1		301.0	17.0	2.5	/experiments/knapen_aot/videos/S_yt-LYnwnfi1JJ4_120.mp4	0.0	135.549222946167	2.5083248615264893
19	61.785629987716675	fix_post	2		12.0	17.0	2.5	/experiments/knapen_aot/videos/S_yt-LYnwnfi1JJ4_120.mp4	0.0	138.05754780769348	0.10002517700195312
20	61.88565516471863	fix_pre	0		44.0	18.0	2.5	/experiments/knapen_aot/videos/R_S_production_ID_5146014.mp4	0.0	138.15757298469543	0.36663389205932617
20	62.23654818534851	response	0	2		18.0	2.5	/experiments/knapen_aot/videos/R_S_production_ID_5146014.mp4	0.0	138.50846600532532	
20	62.252289056777954	movie	1		167.0	18.0	2.5	/experiments/knapen_aot/videos/R_S_production_ID_5146014.mp4	0.0	138.52420687675476	2.5082879066467285
20	64.76057696342468	fix_post	2		12.0	18.0	2.5	/experiments/knapen_aot/videos/R_S_production_ID_5146014.mp4	0.0	141.0324947834015	0.1000981330871582
21	64.86067509651184	fix_pre	0		16.0	19.0	2.5	blank	1.0	141.13259291648865	0.13329291343688965
21	64.9857611656189	response	0	2		19.0	2.5	blank	1.0	141.2576789855957	
21	64.99396800994873	movie	1		301.0	19.0	2.5	blank	1.0	141.26588582992554	2.508358955383301
21	67.37732005119324	response	1	2		19.0	2.5	blank	1.0	143.64923787117004	
21	67.50232696533203	fix_post	2		12.0	19.0	2.5	blank	1.0	143.77424478530884	0.0999901294708252
22	67.60231709480286	fix_pre	0		199.0	20.0	2.5	/experiments/knapen_aot/videos/R_S_pexels-rodnae-productions-5544703.mp4	0.0	143.87423491477966	1.6583070755004883
22	69.2524061203003	response	0	2		20.0	2.5	/experiments/knapen_aot/videos/R_S_pexels-rodnae-productions-5544703.mp4	0.0	145.5243239402771	
22	69.26062417030334	movie	1		166.0	20.0	2.5	/experiments/knapen_aot/videos/R_S_pexels-rodnae-productions-5544703.mp4	0.0	145.53254199028015	2.508349895477295
22	71.76897406578064	fix_post	2		12.0	20.0	2.5	/experiments/knapen_aot/videos/R_S_pexels-rodnae-productions-5544703.mp4	0.0	148.04089188575745	0.09999608993530273
23	71.86897015571594	fix_pre	0		21.0	21.0	2.5	/experiments/knapen_aot/videos/S_yt-xSGPe0KemD4_384.mp4	0.0	148.14088797569275	0.1749889850616455
23	72.03575205802917	response	0	2		21.0	2.5	/experiments/knapen_aot/videos/S_yt-xSGPe0KemD4_384.mp4	0.0	148.30766987800598	
23	72.04395914077759	movie	1		301.0	21.0	2.5	/experiments/knapen_aot/videos/S_yt-xSGPe0KemD4_384.mp4	0.0	148.3158769607544	2.5083160400390625
23	74.55227518081665	fix_post	2		12.0	21.0	2.5	/experiments/knapen_aot/videos/S_yt-xSGPe0KemD4_384.mp4	0.0	150.82419300079346	0.09990882873535156
24	74.652184009552	fix_pre	0		11.0	22.0	2.5	/experiments/knapen_aot/videos/R_S_goAwcQiFu1Q_99.mp4	0.0	150.9241018295288	0.09165215492248535
24	74.73575901985168	response	0	2		22.0	2.5	/experiments/knapen_aot/videos/R_S_goAwcQiFu1Q_99.mp4	0.0	151.0076768398285	
24	74.74383616447449	movie	1		301.0	22.0	2.5	/experiments/knapen_aot/videos/R_S_goAwcQiFu1Q_99.mp4	0.0	151.0157539844513	2.5083799362182617
24	77.25221610069275	fix_post	2		12.0	22.0	2.5	/experiments/knapen_aot/videos/R_S_goAwcQiFu1Q_99.mp4	0.0	153.52413392066956	0.10096597671508789
25	77.35318207740784	fix_pre	0		44.0	23.0	2.5	/experiments/knapen_aot/videos/S_yt-rlEPywo5BEQ_36.mp4	0.0	153.62509989738464	0.3656949996948242
25	77.71066904067993	response	0	2		23.0	2.5	/experiments/knapen_aot/videos/S_yt-rlEPywo5BEQ_36.mp4	0.0	153.98258686065674	
25	77.71887707710266	movie	1		301.0	23.0	2.5	/experiments/knapen_aot/videos/S_yt-rlEPywo5BEQ_36.mp4	0.0	153.99079489707947	2.508363962173462
25	80.22724103927612	fix_post	2		12.0	23.0	2.5	/experiments/knapen_aot/videos/S_yt-rlEPywo5BEQ_36.mp4	0.0	156.49915885925293	0.09991693496704102
26	80.32715797424316	fix_pre	0		12.0	24.0	2.5	/experiments/knapen_aot/videos/S_FK_U009_C004_SDR_20191220_SDR_2K_AVC.mp4	0.0	156.59907579421997	0.10009503364562988
26	80.41895008087158	response	0	2		24.0	2.5	/experiments/knapen_aot/videos/S_FK_U009_C004_SDR_20191220_SDR_2K_AVC.mp4	0.0	156.6908679008484	
26	80.4272530078888	movie	1		164.0	24.0	2.5	/experiments/knapen_aot/videos/S_FK_U009_C004_SDR_20191220_SDR_2K_AVC.mp4	0.0	156.6991708278656	2.508284091949463
26	82.93553709983826	fix_post	2		12.0	24.0	2.5	/experiments/knapen_aot/videos/S_FK_U009_C004_SDR_20191220_SDR_2K_AVC.mp4	0.0	159.20745491981506	0.10002589225769043
27	83.03556299209595	fix_pre	0		14.0	25.0	2.5	/experiments/knapen_aot/videos/S_yt-vY49oIv_dWg_73.mp4	0.0	159.30748081207275	0.11655807495117188
27	83.14401197433472	response	0	2		25.0	2.5	/experiments/knapen_aot/videos/S_yt-vY49oIv_dWg_73.mp4	0.0	159.41592979431152	
27	83.15212106704712	movie	1		301.0	25.0	2.5	/experiments/knapen_aot/videos/S_yt-vY49oIv_dWg_73.mp4	0.0	159.42403888702393	2.5083670616149902
27	85.66048812866211	fix_post	2		12.0	25.0	2.5	/experiments/knapen_aot/videos/S_yt-vY49oIv_dWg_73.mp4	0.0	161.93240594863892	0.10007905960083008
28	85.76056718826294	fix_pre	0		6.0	26.0	2.5	blank	1.0	162.03248500823975	0.050781965255737305
28	85.80246996879578	response	0	2		26.0	2.5	blank	1.0	162.07438778877258	
28	85.81134915351868	movie	1		301.0	26.0	2.5	blank	1.0	162.08326697349548	2.5075228214263916
28	88.31887197494507	fix_post	2		12.0	26.0	2.5	blank	1.0	164.59078979492188	0.0999460220336914
29	88.41881799697876	fix_pre	0		87.0	27.0	2.5	/experiments/knapen_aot/videos/S_g201_TH_804_A001_8_SDR_20191031_SDR_2K_AVC.mp4	0.0	164.69073581695557	0.7257931232452393
29	89.13569116592407	response	0	2		27.0	2.5	/experiments/knapen_aot/videos/S_g201_TH_804_A001_8_SDR_20191031_SDR_2K_AVC.mp4	0.0	165.40760898590088	
29	89.144611120224	movie	1		166.0	27.0	2.5	/experiments/knapen_aot/videos/S_g201_TH_804_A001_8_SDR_20191031_SDR_2K_AVC.mp4	0.0	165.4165289402008	2.5075769424438477
29	91.65218806266785	fix_post	2		12.0	27.0	2.5	/experiments/knapen_aot/videos/S_g201_TH_804_A001_8_SDR_20191031_SDR_2K_AVC.mp4	0.0	167.92410588264465	0.09999203681945801
30	91.7521800994873	fix_pre	0		27.0	28.0	2.5	/experiments/knapen_aot/videos/R_S_production_ID_4997166.mp4	0.0	168.0240979194641	0.22571301460266113
30	91.96897006034851	response	0	2		28.0	2.5	/experiments/knapen_aot/videos/R_S_production_ID_4997166.mp4	0.0	168.24088788032532	
30	91.97789311408997	movie	1		170.0	28.0	2.5	/experiments/knapen_aot/videos/R_S_production_ID_4997166.mp4	0.0	168.24981093406677	2.5076379776000977
30	94.48553109169006	fix_post	2		12.0	28.0	2.5	/experiments/knapen_aot/videos/R_S_production_ID_4997166.mp4	0.0	170.75744891166687	0.10000395774841309
31	94.58553504943848	fix_pre	0		6.0	29.0	2.5	/experiments/knapen_aot/videos/R_S_yt-JtR6WZXT2kU_8.mp4	0.0	170.85745286941528	0.0499880313873291
31	94.62735295295715	response	0	2		29.0	2.5	/experiments/knapen_aot/videos/R_S_yt-JtR6WZXT2kU_8.mp4	0.0	170.89927077293396	
31	94.6355230808258	movie	1		301.0	29.0	2.5	/experiments/knapen_aot/videos/R_S_yt-JtR6WZXT2kU_8.mp4	0.0	170.9074409008026	2.508307933807373
31	97.14383101463318	fix_post	2		12.0	29.0	2.5	/experiments/knapen_aot/videos/R_S_yt-JtR6WZXT2kU_8.mp4	0.0	173.41574883460999	0.1000220775604248
32	97.2438530921936	fix_pre	0		36.0	30.0	2.5	/experiments/knapen_aot/videos/S_bing-www_dailymotion_com_video_x64hzm7_8.mp4	0.0	173.5157709121704	0.29988789558410645
32	97.53562617301941	response	0	2		30.0	2.5	/experiments/knapen_aot/videos/S_bing-www_dailymotion_com_video_x64hzm7_8.mp4	0.0	173.80754399299622	
32	97.54374098777771	movie	1		167.0	30.0	2.5	/experiments/knapen_aot/videos/S_bing-www_dailymotion_com_video_x64hzm7_8.mp4	0.0	173.81565880775452	2.508449077606201
32	100.05219006538391	fix_post	2		12.0	30.0	2.5	/experiments/knapen_aot/videos/S_bing-www_dailymotion_com_video_x64hzm7_8.mp4	0.0	176.32410788536072	0.09993195533752441
33	100.15212202072144	fix_pre	0		29.0	31.0	2.5	/experiments/knapen_aot/videos/S_yt-tX3slAQb9yY_13.mp4	0.0	176.42403984069824	0.2423861026763916
33	100.3855311870575	response	0	2		31.0	2.5	/experiments/knapen_aot/videos/S_yt-tX3slAQb9yY_13.mp4	0.0	176.6574490070343	
33	100.39450812339783	movie	1		301.0	31.0	2.5	/experiments/knapen_aot/videos/S_yt-tX3slAQb9yY_13.mp4	0.0	176.66642594337463	2.507685899734497
33	102.90219402313232	fix_post	2		12.0	31.0	2.5	/experiments/knapen_aot/videos/S_yt-tX3slAQb9yY_13.mp4	0.0	179.17411184310913	0.09990215301513672
34	103.00209617614746	fix_pre	0		37.0	32.0	2.5	/experiments/knapen_aot/videos/R_S_ILSVRC2015_train_00569006.mp4	0.0	179.27401399612427	0.30906200408935547
34	103.30216598510742	response	0	2		32.0	2.5	/experiments/knapen_aot/videos/R_S_ILSVRC2015_train_00569006.mp4	0.0	179.57408380508423	
34	103.31115818023682	movie	1		301.0	32.0	2.5	/experiments/knapen_aot/videos/R_S_ILSVRC2015_train_00569006.mp4	0.0	179.58307600021362	2.5076518058776855
34	105.8188099861145	fix_post	2		12.0	32.0	2.5	/experiments/knapen_aot/videos/R_S_ILSVRC2015_train_00569006.mp4	0.0	182.0907278060913	0.09991312026977539
35	105.91872310638428	fix_pre	0		255.0	33.0	2.5	/experiments/knapen_aot/videos/S_yt-x7NWmdlvVIQ_183.mp4	0.0	182.19064092636108	2.1249680519104004
35	108.03555512428284	response	0	2		33.0	2.5	/experiments/knapen_aot/videos/S_yt-x7NWmdlvVIQ_183.mp4	0.0	184.30747294425964	
35	108.04369115829468	movie	1		301.0	33.0	2.5	/experiments/knapen_aot/videos/S_yt-x7NWmdlvVIQ_183.mp4	0.0	184.31560897827148	2.5083940029144287
35	110.5520851612091	fix_post	2		12.0	33.0	2.5	/experiments/knapen_aot/videos/S_yt-x7NWmdlvVIQ_183.mp4	0.0	186.8240029811859	0.10004281997680664
36	110.65212798118591	fix_pre	0		31.0	34.0	2.5	/experiments/knapen_aot/videos/R_S_yt-Xs7TCzdnUJQ_79.mp4	0.0	186.92404580116272	0.25832319259643555
36	110.90222907066345	response	0	2		34.0	2.5	/experiments/knapen_aot/videos/R_S_yt-Xs7TCzdnUJQ_79.mp4	0.0	187.17414689064026	
36	110.91045117378235	movie	1		301.0	34.0	2.5	/experiments/knapen_aot/videos/R_S_yt-Xs7TCzdnUJQ_79.mp4	0.0	187.18236899375916	2.508340835571289
36	113.41879200935364	fix_post	2		12.0	34.0	2.5	/experiments/knapen_aot/videos/R_S_yt-Xs7TCzdnUJQ_79.mp4	0.0	189.69070982933044	0.0999441146850586
37	113.5187361240387	fix_pre	0		19.0	35.0	2.5	blank	1.0	189.7906539440155	0.15836405754089355
37	113.6688711643219	response	0	2		35.0	2.5	blank	1.0	189.9407889842987	
37	113.67710018157959	movie	1		301.0	35.0	2.5	blank	1.0	189.9490180015564	2.508279800415039
37	116.18537998199463	fix_post	2		12.0	35.0	2.5	blank	1.0	192.45729780197144	0.09996604919433594
38	116.28534603118896	fix_pre	0		88.0	36.0	2.5	/experiments/knapen_aot/videos/R_S_wc-b4Oquu3WQPRz_45.mp4	0.0	192.55726385116577	0.7339920997619629
38	117.01057195663452	response	0	2		36.0	2.5	/experiments/knapen_aot/videos/R_S_wc-b4Oquu3WQPRz_45.mp4	0.0	193.28248977661133	
38	117.01933813095093	movie	1		172.0	36.0	2.5	/experiments/knapen_aot/videos/R_S_wc-b4Oquu3WQPRz_45.mp4	0.0	193.29125595092773	2.5077219009399414
38	119.52706003189087	fix_post	2		12.0	36.0	2.5	/experiments/knapen_aot/videos/R_S_wc-b4Oquu3WQPRz_45.mp4	0.0	195.79897785186768	0.10000205039978027
39	119.62706208229065	fix_pre	0		9.0	37.0	2.5	/experiments/knapen_aot/videos/R_S_yt-AiXq1oDrEXI_123.mp4	0.0	195.89897990226746	0.07510495185852051
39	119.6940381526947	response	0	2		37.0	2.5	/experiments/knapen_aot/videos/R_S_yt-AiXq1oDrEXI_123.mp4	0.0	195.9659559726715	
39	119.70216703414917	movie	1		301.0	37.0	2.5	/experiments/knapen_aot/videos/R_S_yt-AiXq1oDrEXI_123.mp4	0.0	195.97408485412598	2.508219003677368
39	122.21038603782654	fix_post	2		12.0	37.0	2.5	/experiments/knapen_aot/videos/R_S_yt-AiXq1oDrEXI_123.mp4	0.0	198.48230385780334	0.0999460220336914
40	122.31033205986023	fix_pre	0		239.0	38.0	2.5	/experiments/knapen_aot/videos/S_yt-Wr5pSPApQDw_235.mp4	0.0	198.58224987983704	1.9917349815368652
40	124.29383516311646	response	0	2		38.0	2.5	/experiments/knapen_aot/videos/S_yt-Wr5pSPApQDw_235.mp4	0.0	200.56575298309326	
40	124.3020670413971	movie	1		301.0	38.0	2.5	/experiments/knapen_aot/videos/S_yt-Wr5pSPApQDw_235.mp4	0.0	200.5739848613739	2.508342981338501
40	126.8104100227356	fix_post	2		12.0	38.0	2.5	/experiments/knapen_aot/videos/S_yt-Wr5pSPApQDw_235.mp4	0.0	203.0823278427124	0.09999799728393555
41	126.91040802001953	fix_pre	0		43.0	39.0	2.5	/experiments/knapen_aot/videos/S_yt-YCjbGOPBQHw_131.mp4	0.0	203.18232583999634	0.3588869571685791
41	127.26051902770996	response	0	2		39.0	2.5	/experiments/knapen_aot/videos/S_yt-YCjbGOPBQHw_131.mp4	0.0	203.53243684768677	
41	127.26929497718811	movie	1		301.0	39.0	2.5	/experiments/knapen_aot/videos/S_yt-YCjbGOPBQHw_131.mp4	0.0	203.54121279716492	2.5077130794525146
41	129.77700805664062	fix_post	2		12.0	39.0	2.5	/experiments/knapen_aot/videos/S_yt-YCjbGOPBQHw_131.mp4	0.0	206.04892587661743	0.09997797012329102
42	129.87698602676392	fix_pre	0		41.0	40.0	2.5	/experiments/knapen_aot/videos/R_S_yt-hWXr5bv2_uA_48.mp4	0.0	206.14890384674072	0.34168195724487305
42	130.21044206619263	response	0	2		40.0	2.5	/experiments/knapen_aot/videos/R_S_yt-hWXr5bv2_uA_48.mp4	0.0	206.48235988616943	
42	130.2186679840088	movie	1		301.0	40.0	2.5	/experiments/knapen_aot/videos/R_S_yt-hWXr5bv2_uA_48.mp4	0.0	206.4905858039856	2.5083720684051514
42	132.72704005241394	fix_post	2		12.0	40.0	2.5	/experiments/knapen_aot/videos/R_S_yt-hWXr5bv2_uA_48.mp4	0.0	208.99895787239075	0.09997200965881348
43	132.82701206207275	fix_pre	0		22.0	41.0	2.5	blank	1.0	209.09892988204956	0.18327593803405762
43	133.00215601921082	response	0	2		41.0	2.5	blank	1.0	209.27407383918762	
43	133.0102880001068	movie	1		301.0	41.0	2.5	blank	1.0	209.28220582008362	2.508397102355957
43	135.51868510246277	fix_post	2		12.0	41.0	2.5	blank	1.0	211.79060292243958	0.09996294975280762
44	135.61864805221558	fix_pre	0		80.0	42.0	2.5	/experiments/knapen_aot/videos/S_I003_C011_SDR_2K_AVC.mp4	0.0	211.89056587219238	0.6666641235351562
44	136.2770791053772	response	0	2		42.0	2.5	/experiments/knapen_aot/videos/S_I003_C011_SDR_2K_AVC.mp4	0.0	212.548996925354	
44	136.28531217575073	movie	1		173.0	42.0	2.5	/experiments/knapen_aot/videos/S_I003_C011_SDR_2K_AVC.mp4	0.0	212.55722999572754	2.5083439350128174
44	138.79365611076355	fix_post	2		12.0	42.0	2.5	/experiments/knapen_aot/videos/S_I003_C011_SDR_2K_AVC.mp4	0.0	215.06557393074036	0.10001087188720703
45	138.89366698265076	fix_pre	0		23.0	43.0	2.5	/experiments/knapen_aot/videos/R_S_yt-m8HxO_-RRq0_127.mp4	0.0	215.16558480262756	0.1916351318359375
45	139.07707595825195	response	0	2		43.0	2.5	/experiments/knapen_aot/videos/R_S_yt-m8HxO_-RRq0_127.mp4	0.0	215.34899377822876	
45	139.0853021144867	movie	1		301.0	43.0	2.5	/experiments/knapen_aot/videos/R_S_yt-m8HxO_-RRq0_127.mp4	0.0	215.3572199344635	2.5082709789276123
45	141.5935730934143	fix_post	2		12.0	43.0	2.5	/experiments/knapen_aot/videos/R_S_yt-m8HxO_-RRq0_127.mp4	0.0	217.8654909133911	0.10007596015930176
46	141.6936490535736	fix_pre	0		54.0	44.0	2.5	/experiments/knapen_aot/videos/R_S_pexels-mikhail-nilov-8410084.mp4	0.0	217.96556687355042	0.45041990280151367
46	142.1354010105133	response	0	2		44.0	2.5	/experiments/knapen_aot/videos/R_S_pexels-mikhail-nilov-8410084.mp4	0.0	218.4073188304901	
46	142.14406895637512	movie	1		167.0	44.0	2.5	/experiments/knapen_aot/videos/R_S_pexels-mikhail-nilov-8410084.mp4	0.0	218.41598677635193	2.5080411434173584
46	144.65211009979248	fix_post	2		12.0	44.0	2.5	/experiments/knapen_aot/videos/R_S_pexels-mikhail-nilov-8410084.mp4	0.0	220.9240279197693	0.09992098808288574
47	144.75203108787537	fix_pre	0		10.0	45.0	2.5	/experiments/knapen_aot/videos/R_S_yt-7lULOC_rSE0_747.mp4	0.0	221.02394890785217	0.08344101905822754
47	144.82714009284973	response	0	2		45.0	2.5	/experiments/knapen_aot/videos/R_S_yt-7lULOC_rSE0_747.mp4	0.0	221.09905791282654	
47	144.8354721069336	movie	1		301.0	45.0	2.5	/experiments/knapen_aot/videos/R_S_yt-7lULOC_rSE0_747.mp4	0.0	221.1073899269104	2.508178949356079
47	147.34365105628967	fix_post	2		12.0	45.0	2.5	/experiments/knapen_aot/videos/R_S_yt-7lULOC_rSE0_747.mp4	0.0	223.61556887626648	0.09991908073425293
48	147.44357013702393	fix_pre	0		37.0	46.0	2.5	/experiments/knapen_aot/videos/S_comp_GL_G010_C006_PSNK_NOSUN_v12_SDR_PS_FINAL_20180709_SDR_2K_AVC.mp4	0.0	223.71548795700073	0.3083620071411133
48	147.7437560558319	response	0	2		46.0	2.5	/experiments/knapen_aot/videos/S_comp_GL_G010_C006_PSNK_NOSUN_v12_SDR_PS_FINAL_20180709_SDR_2K_AVC.mp4	0.0	224.01567387580872	
48	147.75193214416504	movie	1		166.0	46.0	2.5	/experiments/knapen_aot/videos/S_comp_GL_G010_C006_PSNK_NOSUN_v12_SDR_PS_FINAL_20180709_SDR_2K_AVC.mp4	0.0	224.02384996414185	2.5083608627319336
48	150.26029300689697	fix_post	2		12.0	46.0	2.5	/experiments/knapen_aot/videos/S_comp_GL_G010_C006_PSNK_NOSUN_v12_SDR_PS_FINAL_20180709_SDR_2K_AVC.mp4	0.0	226.53221082687378	0.09989714622497559
49	150.36019015312195	fix_pre	0		49.0	47.0	2.5	blank	1.0	226.63210797309875	0.40884900093078613
49	150.76038217544556	response	0	2		47.0	2.5	blank	1.0	227.03229999542236	
49	150.76903915405273	movie	1		301.0	47.0	2.5	blank	1.0	227.04095697402954	2.507858991622925
49	153.27689814567566	fix_post	2		12.0	47.0	2.5	blank	1.0	229.54881596565247	0.10001993179321289
50	153.37691807746887	fix_pre	0		31.0	48.0	2.5	/experiments/knapen_aot/videos/S_yt-rlVzHENWufE_61.mp4	0.0	229.64883589744568	0.25835204124450684
50	153.62701106071472	response	0	2		48.0	2.5	/experiments/knapen_aot/videos/S_yt-rlVzHENWufE_61.mp4	0.0	229.89892888069153	
50	153.63527011871338	movie	1		300.0	48.0	2.5	/experiments/knapen_aot/videos/S_yt-rlVzHENWufE_61.mp4	0.0	229.90718793869019	2.5083279609680176
50	156.1435980796814	fix_post	2		12.0	48.0	2.5	/experiments/knapen_aot/videos/S_yt-rlVzHENWufE_61.mp4	0.0	232.4155158996582	0.09999489784240723
51	156.2435929775238	fix_pre	0		48.0	49.0	2.5	/experiments/knapen_aot/videos/S_yt-Q5Mfl5NdT7g_3.mp4	0.0	232.5155107975006	0.400360107421875
51	156.63545417785645	response	0	2		49.0	2.5	/experiments/knapen_aot/videos/S_yt-Q5Mfl5NdT7g_3.mp4	0.0	232.90737199783325	
51	156.64395308494568	movie	1		301.0	49.0	2.5	/experiments/knapen_aot/videos/S_yt-Q5Mfl5NdT7g_3.mp4	0.0	232.91587090492249	2.5078980922698975
51	159.15185117721558	fix_post	2		12.0	49.0	2.5	/experiments/knapen_aot/videos/S_yt-Q5Mfl5NdT7g_3.mp4	0.0	235.42376899719238	0.09999394416809082
52	159.25184512138367	fix_pre	0		30.0	50.0	2.5	/experiments/knapen_aot/videos/R_S_yt-RO4mhuXBVrY_67.mp4	0.0	235.52376294136047	0.2500319480895996
52	159.49373316764832	response	0	2		50.0	2.5	/experiments/knapen_aot/videos/R_S_yt-RO4mhuXBVrY_67.mp4	0.0	235.76565098762512	
52	159.50187706947327	movie	1		301.0	50.0	2.5	/experiments/knapen_aot/videos/R_S_yt-RO4mhuXBVrY_67.mp4	0.0	235.77379488945007	2.5083329677581787
52	162.01021003723145	fix_post	2		12.0	50.0	2.5	/experiments/knapen_aot/videos/R_S_yt-RO4mhuXBVrY_67.mp4	0.0	238.28212785720825	0.09999704360961914
53	162.11020708084106	fix_pre	0		160.0	51.0	2.5	/experiments/knapen_aot/videos/S_video_inspire_california_catalina_00005.1080-h264.mp4	0.0	238.38212490081787	1.333301067352295
53	163.4353141784668	response	0	2		51.0	2.5	/experiments/knapen_aot/videos/S_video_inspire_california_catalina_00005.1080-h264.mp4	0.0	239.7072319984436	
53	163.44350814819336	movie	1		169.0	51.0	2.5	/experiments/knapen_aot/videos/S_video_inspire_california_catalina_00005.1080-h264.mp4	0.0	239.71542596817017	2.5082929134368896
53	165.95180106163025	fix_post	2		12.0	51.0	2.5	/experiments/knapen_aot/videos/S_video_inspire_california_catalina_00005.1080-h264.mp4	0.0	242.22371888160706	0.10013389587402344
54	166.05193495750427	fix_pre	0		44.0	52.0	2.5	/experiments/knapen_aot/videos/S_ILSVRC2015_train_00551000.mp4	0.0	242.32385277748108	0.36656904220581055
54	166.4027931690216	response	0	2		52.0	2.5	/experiments/knapen_aot/videos/S_ILSVRC2015_train_00551000.mp4	0.0	242.6747109889984	
54	166.41850399971008	movie	1		301.0	52.0	2.5	/experiments/knapen_aot/videos/S_ILSVRC2015_train_00551000.mp4	0.0	242.6904218196869	2.508342981338501
54	168.92684698104858	fix_post	2		12.0	52.0	2.5	/experiments/knapen_aot/videos/S_ILSVRC2015_train_00551000.mp4	0.0	245.1987648010254	0.10001516342163086
55	169.02686214447021	fix_pre	0		32.0	53.0	2.5	/experiments/knapen_aot/videos/R_S_ILSVRC2015_train_00587000.mp4	0.0	245.29877996444702	0.26666784286499023
55	169.28529405593872	response	0	2		53.0	2.5	/experiments/knapen_aot/videos/R_S_ILSVRC2015_train_00587000.mp4	0.0	245.55721187591553	
55	169.2935299873352	movie	1		301.0	53.0	2.5	/experiments/knapen_aot/videos/R_S_ILSVRC2015_train_00587000.mp4	0.0	245.565447807312	2.5083250999450684
55	171.80185508728027	fix_post	2		12.0	53.0	2.5	/experiments/knapen_aot/videos/R_S_ILSVRC2015_train_00587000.mp4	0.0	248.07377290725708	0.09999608993530273
56	171.90185117721558	fix_pre	0		191.0	54.0	2.5	blank	1.0	248.17376899719238	1.5916309356689453
56	173.48531699180603	response	0	2		54.0	2.5	blank	1.0	249.75723481178284	
56	173.49348211288452	movie	1		301.0	54.0	2.5	blank	1.0	249.76539993286133	2.508358955383301
56	176.00184106826782	fix_post	2		12.0	54.0	2.5	blank	1.0	252.27375888824463	0.09991002082824707
57	176.10175108909607	fix_pre	0		45.0	55.0	2.5	/experiments/knapen_aot/videos/S_yt-NLfzvAJgyJ4_120.mp4	0.0	252.37366890907288	0.3753468990325928
57	176.46850299835205	response	0	2		55.0	2.5	/experiments/knapen_aot/videos/S_yt-NLfzvAJgyJ4_120.mp4	0.0	252.74042081832886	
57	176.47709798812866	movie	1		301.0	55.0	2.5	/experiments/knapen_aot/videos/S_yt-NLfzvAJgyJ4_120.mp4	0.0	252.74901580810547	2.5080649852752686
57	178.98516297340393	fix_post	2		12.0	55.0	2.5	/experiments/knapen_aot/videos/S_yt-NLfzvAJgyJ4_120.mp4	0.0	255.25708079338074	0.09996700286865234
58	179.08512997627258	fix_pre	0		28.0	56.0	2.5	/experiments/knapen_aot/videos/R_S_yt-Wr5pSPApQDw_235.mp4	0.0	255.3570477962494	0.23330998420715332
58	179.3102400302887	response	0	2		56.0	2.5	/experiments/knapen_aot/videos/R_S_yt-Wr5pSPApQDw_235.mp4	0.0	255.5821578502655	
58	179.31843996047974	movie	1		301.0	56.0	2.5	/experiments/knapen_aot/videos/R_S_yt-Wr5pSPApQDw_235.mp4	0.0	255.59035778045654	2.5083651542663574
58	181.8268051147461	fix_post	2		12.0	56.0	2.5	/experiments/knapen_aot/videos/R_S_yt-Wr5pSPApQDw_235.mp4	0.0	258.0987229347229	0.09996986389160156
59	181.9267749786377	fix_pre	0		64.0	57.0	2.5	/experiments/knapen_aot/videos/S_OdxWh1oU8e8_1.mp4	0.0	258.1986927986145	0.5332992076873779
59	182.45195603370667	response	0	2		57.0	2.5	/experiments/knapen_aot/videos/S_OdxWh1oU8e8_1.mp4	0.0	258.7238738536835	
59	182.46007418632507	movie	1		301.0	57.0	2.5	/experiments/knapen_aot/videos/S_OdxWh1oU8e8_1.mp4	0.0	258.7319920063019	2.508373975753784
59	184.96844816207886	fix_post	2		12.0	57.0	2.5	/experiments/knapen_aot/videos/S_OdxWh1oU8e8_1.mp4	0.0	261.24036598205566	0.10000801086425781
60	185.06845617294312	fix_pre	0		376.0	58.0	2.5	/experiments/knapen_aot/videos/R_S_yt-4RKOPaRF42o_124.mp4	0.0	261.3403739929199	3.133305788040161
60	188.1935429573059	response	0	2		58.0	2.5	/experiments/knapen_aot/videos/R_S_yt-4RKOPaRF42o_124.mp4	0.0	264.4654607772827	
60	188.20176196098328	movie	1		297.0	58.0	2.5	/experiments/knapen_aot/videos/R_S_yt-4RKOPaRF42o_124.mp4	0.0	264.4736797809601	2.5083630084991455
60	190.71012496948242	fix_post	2		12.0	58.0	2.5	/experiments/knapen_aot/videos/R_S_yt-4RKOPaRF42o_124.mp4	0.0	266.98204278945923	0.1002190113067627
61	190.81034398078918	fix_pre	0		32.0	59.0	2.5	/experiments/knapen_aot/videos/S_ILSVRC2015_train_00569004.mp4	0.0	267.082261800766	0.26639604568481445
61	191.0686480998993	response	0	2		59.0	2.5	/experiments/knapen_aot/videos/S_ILSVRC2015_train_00569004.mp4	0.0	267.3405659198761	
61	191.076740026474	movie	1		301.0	59.0	2.5	/experiments/knapen_aot/videos/S_ILSVRC2015_train_00569004.mp4	0.0	267.3486578464508	2.508345127105713
61	193.5850851535797	fix_post	2		12.0	59.0	2.5	/experiments/knapen_aot/videos/S_ILSVRC2015_train_00569004.mp4	0.0	269.8570029735565	0.10022592544555664
62	193.68531107902527	fix_pre	0		26.0	60.0	2.5	/experiments/knapen_aot/videos/S_yt-5fZZrdwkFx0_28.mp4	0.0	269.9572288990021	0.21638894081115723
62	193.89354300498962	response	0	2		60.0	2.5	/experiments/knapen_aot/videos/S_yt-5fZZrdwkFx0_28.mp4	0.0	270.16546082496643	
62	193.90170001983643	movie	1		301.0	60.0	2.5	/experiments/knapen_aot/videos/S_yt-5fZZrdwkFx0_28.mp4	0.0	270.17361783981323	2.5083529949188232
62	196.41005301475525	fix_post	2		12.0	60.0	2.5	/experiments/knapen_aot/videos/S_yt-5fZZrdwkFx0_28.mp4	0.0	272.68197083473206	0.10002708435058594
63	196.51008009910583	fix_pre	0		120.0	61.0	2.5	blank	1.0	272.78199791908264	0.9999849796295166
63	197.50185704231262	response	0	2		61.0	2.5	blank	1.0	273.77377486228943	
63	197.51006507873535	movie	1		301.0	61.0	2.5	blank	1.0	273.78198289871216	2.508289098739624
63	200.01835417747498	fix_post	2		12.0	61.0	2.5	blank	1.0	276.2902719974518	0.10001277923583984
64	200.11836695671082	fix_pre	0		38.0	62.0	2.5	/experiments/knapen_aot/videos/S_yt-4RKOPaRF42o_124.mp4	0.0	276.3902847766876	0.3168032169342041
64	200.42683506011963	response	0	2		62.0	2.5	/experiments/knapen_aot/videos/S_yt-4RKOPaRF42o_124.mp4	0.0	276.69875288009644	
64	200.43517017364502	movie	1		301.0	62.0	2.5	/experiments/knapen_aot/videos/S_yt-4RKOPaRF42o_124.mp4	0.0	276.7070879936218	2.5082249641418457
64	202.94339513778687	fix_post	2		12.0	62.0	2.5	/experiments/knapen_aot/videos/S_yt-4RKOPaRF42o_124.mp4	0.0	279.2153129577637	0.09998297691345215
65	203.04337811470032	fix_pre	0		32.0	63.0	2.5	/experiments/knapen_aot/videos/R_S_yt-bOgChEHiroI_20.mp4	0.0	279.3152959346771	0.2668440341949463
65	203.3018651008606	response	0	2		63.0	2.5	/experiments/knapen_aot/videos/R_S_yt-bOgChEHiroI_20.mp4	0.0	279.5737829208374	
65	203.31022214889526	movie	1		299.0	63.0	2.5	/experiments/knapen_aot/videos/R_S_yt-bOgChEHiroI_20.mp4	0.0	279.58213996887207	2.508194923400879
65	205.81841707229614	fix_post	2		12.0	63.0	2.5	/experiments/knapen_aot/videos/R_S_yt-bOgChEHiroI_20.mp4	0.0	282.09033489227295	0.09992289543151855
66	205.91833996772766	fix_pre	0		30.0	64.0	2.5	/experiments/knapen_aot/videos/R_S_yt-HFiRYTnMZxE_338.mp4	0.0	282.19025778770447	0.250042200088501
66	206.1601619720459	response	0	2		64.0	2.5	/experiments/knapen_aot/videos/R_S_yt-HFiRYTnMZxE_338.mp4	0.0	282.4320797920227	
66	206.16838216781616	movie	1		301.0	64.0	2.5	/experiments/knapen_aot/videos/R_S_yt-HFiRYTnMZxE_338.mp4	0.0	282.44029998779297	2.5083608627319336
66	208.6767430305481	fix_post	2		12.0	64.0	2.5	/experiments/knapen_aot/videos/R_S_yt-HFiRYTnMZxE_338.mp4	0.0	284.9486608505249	0.09993195533752441
67	208.77667498588562	fix_pre	0		21.0	65.0	2.5	/experiments/knapen_aot/videos/R_S_yt-RHPOCG1mII0_138.mp4	0.0	285.0485928058624	0.17502617835998535
67	208.94350600242615	response	0	2		65.0	2.5	/experiments/knapen_aot/videos/R_S_yt-RHPOCG1mII0_138.mp4	0.0	285.21542382240295	
67	208.9517011642456	movie	1		301.0	65.0	2.5	/experiments/knapen_aot/videos/R_S_yt-RHPOCG1mII0_138.mp4	0.0	285.2236189842224	2.5083348751068115
67	211.46003603935242	fix_post	2		12.0	65.0	2.5	/experiments/knapen_aot/videos/R_S_yt-RHPOCG1mII0_138.mp4	0.0	287.7319538593292	0.10005497932434082
68	211.56009101867676	fix_pre	0		29.0	66.0	2.5	/experiments/knapen_aot/videos/R_S_ILSVRC2015_train_00067005.mp4	0.0	287.83200883865356	0.24158000946044922
68	211.79347109794617	response	0	2		66.0	2.5	/experiments/knapen_aot/videos/R_S_ILSVRC2015_train_00067005.mp4	0.0	288.065388917923	
68	211.8016710281372	movie	1		301.0	66.0	2.5	/experiments/knapen_aot/videos/R_S_ILSVRC2015_train_00067005.mp4	0.0	288.073588848114	2.5084331035614014
68	214.3101041316986	fix_post	2		12.0	66.0	2.5	/experiments/knapen_aot/videos/R_S_ILSVRC2015_train_00067005.mp4	0.0	290.5820219516754	0.09991192817687988
69	214.4100160598755	fix_pre	0		23.0	67.0	2.5	/experiments/knapen_aot/videos/S_ILSVRC2015_train_00042003.mp4	0.0	290.6819338798523	0.19176506996154785
69	214.5934419631958	response	0	2		67.0	2.5	/experiments/knapen_aot/videos/S_ILSVRC2015_train_00042003.mp4	0.0	290.8653597831726	
69	214.60178112983704	movie	1		301.0	67.0	2.5	/experiments/knapen_aot/videos/S_ILSVRC2015_train_00042003.mp4	0.0	290.87369894981384	2.5081348419189453
69	217.10991597175598	fix_post	2		12.0	67.0	2.5	/experiments/knapen_aot/videos/S_ILSVRC2015_train_00042003.mp4	0.0	293.3818337917328	0.10003304481506348
70	217.20994901657104	fix_pre	0		23.0	68.0	2.5	blank	1.0	293.48186683654785	0.19173216819763184
70	217.3934841156006	response	0	2		68.0	2.5	blank	1.0	293.6654019355774	
70	217.40168118476868	movie	1		301.0	68.0	2.5	blank	1.0	293.6735990047455	2.50833797454834
70	219.91001915931702	fix_post	2		12.0	68.0	2.5	blank	1.0	296.1819369792938	0.1000068187713623
71	220.01002597808838	fix_pre	0		49.0	69.0	2.5	/experiments/knapen_aot/videos/R_S_yt-LsCCAQ8BRO8_7.mp4	0.0	296.2819437980652	0.4083120822906494
71	220.41008305549622	response	0	2		69.0	2.5	/experiments/knapen_aot/videos/R_S_yt-LsCCAQ8BRO8_7.mp4	0.0	296.682000875473	
71	220.41833806037903	movie	1		301.0	69.0	2.5	/experiments/knapen_aot/videos/R_S_yt-LsCCAQ8BRO8_7.mp4	0.0	296.69025588035583	2.5083260536193848
71	222.9266641139984	fix_post	2		12.0	69.0	2.5	/experiments/knapen_aot/videos/R_S_yt-LsCCAQ8BRO8_7.mp4	0.0	299.1985819339752	0.09995889663696289
72	223.02662301063538	fix_pre	0		66.0	70.0	2.5	/experiments/knapen_aot/videos/S_yt-fryIS5Itzig_124.mp4	0.0	299.2985408306122	0.5499839782714844
72	223.5684039592743	response	0	2		70.0	2.5	/experiments/knapen_aot/videos/S_yt-fryIS5Itzig_124.mp4	0.0	299.8403217792511	
72	223.57660698890686	movie	1		301.0	70.0	2.5	/experiments/knapen_aot/videos/S_yt-fryIS5Itzig_124.mp4	0.0	299.84852480888367	2.508409023284912
72	226.08501601219177	fix_post	2		12.0	70.0	2.5	/experiments/knapen_aot/videos/S_yt-fryIS5Itzig_124.mp4	0.0	302.3569338321686	0.10001897811889648
73	226.18503499031067	fix_pre	0		36.0	71.0	2.5	/experiments/knapen_aot/videos/R_S_yt-VQtbKGzI9SE_431.mp4	0.0	302.4569528102875	0.29993700981140137
73	226.46937012672424	response	0	2		71.0	2.5	/experiments/knapen_aot/videos/R_S_yt-VQtbKGzI9SE_431.mp4	0.0	302.74128794670105	
73	226.48497200012207	movie	1		300.0	71.0	2.5	/experiments/knapen_aot/videos/R_S_yt-VQtbKGzI9SE_431.mp4	0.0	302.7568898200989	2.5082831382751465
73	228.99325513839722	fix_post	2		12.0	71.0	2.5	/experiments/knapen_aot/videos/R_S_yt-VQtbKGzI9SE_431.mp4	0.0	305.265172958374	0.10006093978881836
74	229.09331607818604	fix_pre	0		33.0	72.0	2.5	/experiments/knapen_aot/videos/S_pexels-cottonbro-5310858.mp4	0.0	305.36523389816284	0.2749300003051758
74	229.36009311676025	response	0	2		72.0	2.5	/experiments/knapen_aot/videos/S_pexels-cottonbro-5310858.mp4	0.0	305.63201093673706	
74	229.3682460784912	movie	1		166.0	72.0	2.5	/experiments/knapen_aot/videos/S_pexels-cottonbro-5310858.mp4	0.0	305.640163898468	2.508352041244507
74	231.87659811973572	fix_post	2		12.0	72.0	2.5	/experiments/knapen_aot/videos/S_pexels-cottonbro-5310858.mp4	0.0	308.1485159397125	0.09998798370361328
75	231.97658610343933	fix_pre	0		9.0	73.0	2.5	/experiments/knapen_aot/videos/S_ILSVRC2015_train_00251004.mp4	0.0	308.24850392341614	0.07641386985778809
75	232.04355001449585	response	0	2		73.0	2.5	/experiments/knapen_aot/videos/S_ILSVRC2015_train_00251004.mp4	0.0	308.31546783447266	
75	232.05299997329712	movie	1		301.0	73.0	2.5	/experiments/knapen_aot/videos/S_ILSVRC2015_train_00251004.mp4	0.0	308.3249177932739	2.5068650245666504
75	234.55986499786377	fix_post	2		12.0	73.0	2.5	/experiments/knapen_aot/videos/S_ILSVRC2015_train_00251004.mp4	0.0	310.8317828178406	0.10002303123474121
76	234.6598880290985	fix_pre	0		39.0	74.0	2.5	/experiments/knapen_aot/videos/S_yt-bOgChEHiroI_20.mp4	0.0	310.9318058490753	0.32498693466186523
76	234.97669410705566	response	0	2		74.0	2.5	/experiments/knapen_aot/videos/S_yt-bOgChEHiroI_20.mp4	0.0	311.24861192703247	
76	234.98487496376038	movie	1		301.0	74.0	2.5	/experiments/knapen_aot/videos/S_yt-bOgChEHiroI_20.mp4	0.0	311.2567927837372	2.508362054824829
76	237.4932370185852	fix_post	2		12.0	74.0	2.5	/experiments/knapen_aot/videos/S_yt-bOgChEHiroI_20.mp4	0.0	313.765154838562	0.10004496574401855
77	237.59328198432922	fix_pre	0		24.0	75.0	2.5	/experiments/knapen_aot/videos/S_yt-jbvXEFk2Gyw_12.mp4	0.0	313.86519980430603	0.1999821662902832
77	237.78498196601868	response	0	2		75.0	2.5	/experiments/knapen_aot/videos/S_yt-jbvXEFk2Gyw_12.mp4	0.0	314.0568997859955	
77	237.7932641506195	movie	1		301.0	75.0	2.5	/experiments/knapen_aot/videos/S_yt-jbvXEFk2Gyw_12.mp4	0.0	314.0651819705963	2.5084049701690674
77	240.30166912078857	fix_post	2		12.0	75.0	2.5	/experiments/knapen_aot/videos/S_yt-jbvXEFk2Gyw_12.mp4	0.0	316.5735869407654	0.09981894493103027
78	240.4014880657196	fix_pre	0		18.0	76.0	2.5	blank	1.0	316.6734058856964	0.1500530242919922
78	240.54343914985657	response	0	2		76.0	2.5	blank	1.0	316.8153569698334	
78	240.5515410900116	movie	1		301.0	76.0	2.5	blank	1.0	316.8234589099884	2.5083529949188232
78	243.05989408493042	fix_post	2		12.0	76.0	2.5	blank	1.0	319.3318119049072	0.10000491142272949
79	243.15989899635315	fix_pre	0		50.0	77.0	2.5	/experiments/knapen_aot/videos/R_S_yt-gC3my54_ChQ_58.mp4	0.0	319.43181681632996	0.4166240692138672
79	243.5682761669159	response	0	2		77.0	2.5	/experiments/knapen_aot/videos/R_S_yt-gC3my54_ChQ_58.mp4	0.0	319.8401939868927	
79	243.57652306556702	movie	1		301.0	77.0	2.5	/experiments/knapen_aot/videos/R_S_yt-gC3my54_ChQ_58.mp4	0.0	319.8484408855438	2.5082929134368896
79	246.0848159790039	fix_post	2		12.0	77.0	2.5	/experiments/knapen_aot/videos/R_S_yt-gC3my54_ChQ_58.mp4	0.0	322.3567337989807	0.10007810592651367
80	246.18489408493042	fix_pre	0		36.0	78.0	2.5	/experiments/knapen_aot/videos/R_S_production_ID_3927047.mp4	0.0	322.4568119049072	0.2999289035797119
80	246.47663807868958	response	0	2		78.0	2.5	/experiments/knapen_aot/videos/R_S_production_ID_3927047.mp4	0.0	322.7485558986664	
80	246.48482298851013	movie	1		179.0	78.0	2.5	/experiments/knapen_aot/videos/R_S_production_ID_3927047.mp4	0.0	322.75674080848694	2.5083281993865967
80	248.99315118789673	fix_post	2		12.0	78.0	2.5	/experiments/knapen_aot/videos/R_S_production_ID_3927047.mp4	0.0	325.26506900787354	0.10002589225769043
81	249.09317708015442	fix_pre	0		41.0	79.0	2.5	/experiments/knapen_aot/videos/R_S_yt-kYMffy4hTMo_107.mp4	0.0	325.3650949001312	0.3416578769683838
81	249.4266541004181	response	0	2		79.0	2.5	/experiments/knapen_aot/videos/R_S_yt-kYMffy4hTMo_107.mp4	0.0	325.6985719203949	
81	249.4348349571228	movie	1		301.0	79.0	2.5	/experiments/knapen_aot/videos/R_S_yt-kYMffy4hTMo_107.mp4	0.0	325.7067527770996	2.5083611011505127
81	251.94319605827332	fix_post	2		12.0	79.0	2.5	/experiments/knapen_aot/videos/R_S_yt-kYMffy4hTMo_107.mp4	0.0	328.2151138782501	0.09993696212768555
82	252.043133020401	fix_pre	0		198.0	80.0	2.5	/experiments/knapen_aot/videos/R_S_yt-uT4MXm0UBJM_64.mp4	0.0	328.3150508403778	1.6500129699707031
82	253.684956073761	response	0	2		80.0	2.5	/experiments/knapen_aot/videos/R_S_yt-uT4MXm0UBJM_64.mp4	0.0	329.9568738937378	
82	253.6931459903717	movie	1		298.0	80.0	2.5	/experiments/knapen_aot/videos/R_S_yt-uT4MXm0UBJM_64.mp4	0.0	329.9650638103485	2.5083630084991455
82	256.20150899887085	fix_post	2		12.0	80.0	2.5	/experiments/knapen_aot/videos/R_S_yt-uT4MXm0UBJM_64.mp4	0.0	332.47342681884766	0.09991598129272461
83	256.3014249801636	fix_pre	0		18.0	81.0	2.5	/experiments/knapen_aot/videos/R_S_ILSVRC2015_train_00569004.mp4	0.0	332.5733428001404	0.15004611015319824
83	256.44326400756836	response	0	2		81.0	2.5	/experiments/knapen_aot/videos/R_S_ILSVRC2015_train_00569004.mp4	0.0	332.71518182754517	
83	256.4514710903168	movie	1		301.0	81.0	2.5	/experiments/knapen_aot/videos/R_S_ILSVRC2015_train_00569004.mp4	0.0	332.7233889102936	2.5082790851593018
83	258.9597501754761	fix_post	2		12.0	81.0	2.5	/experiments/knapen_aot/videos/R_S_ILSVRC2015_train_00569004.mp4	0.0	335.2316679954529	0.10009193420410156
84	259.0598421096802	fix_pre	0		33.0	82.0	2.5	blank	1.0	335.331759929657	0.27497196197509766
84	259.3266191482544	response	0	2		82.0	2.5	blank	1.0	335.5985369682312	
84	259.3348140716553	movie	1		301.0	82.0	2.5	blank	1.0	335.6067318916321	2.5083770751953125
84	261.8431911468506	fix_post	2		12.0	82.0	2.5	blank	1.0	338.1151089668274	0.09988594055175781
85	261.94307708740234	fix_pre	0		28.0	83.0	2.5	/experiments/knapen_aot/videos/R_S_ILSVRC2015_train_00599000.mp4	0.0	338.21499490737915	0.23461198806762695
85	262.1683349609375	response	0	2		83.0	2.5	/experiments/knapen_aot/videos/R_S_ILSVRC2015_train_00599000.mp4	0.0	338.4402527809143	
85	262.17768907546997	movie	1		301.0	83.0	2.5	/experiments/knapen_aot/videos/R_S_ILSVRC2015_train_00599000.mp4	0.0	338.4496068954468	2.50710391998291
85	264.6847929954529	fix_post	2		12.0	83.0	2.5	/experiments/knapen_aot/videos/R_S_ILSVRC2015_train_00599000.mp4	0.0	340.9567108154297	0.09990406036376953
87	264.78469705581665	stim	0		314.0					341.05661487579346	2.622164011001587
87	264.9933190345764	response	0	2						341.2652368545532	
87	267.39860916137695	response	0	space						343.67052698135376	
