trial_nr	onset	event_type	phase	response	nr_frames	movie_index	movie_duration	movie_file	blank	onset_abs	duration
0	0.1294078826904297	stim	0		82.0					65.82000279426575	0.6807260513305664
0	0.7928071022033691	response	0	space						66.48340201377869	
1	0.8101339340209961	stim	0		121.0					66.50072884559631	1.0062119960784912
1	1.8163459300994873	stim	1		120.0					67.5069408416748	1.0002031326293945
1	2.0915029048919678	response	1	space						67.78209781646729	
1	2.5080690383911133	response	1	space						68.19866394996643	
2	2.816549062728882	fix_pre	0		38.0	0.0	2.5	/experiments/knapen_aot/videos/R_S_pexels-mart-production-7277934.mp4	0.0	68.5071439743042	0.31638503074645996
2	3.1247780323028564	response	0	space		0.0	2.5	/experiments/knapen_aot/videos/R_S_pexels-mart-production-7277934.mp4	0.0	68.81537294387817	
2	3.132934093475342	movie	1		164.0	0.0	2.5	/experiments/knapen_aot/videos/R_S_pexels-mart-production-7277934.mp4	0.0	68.82352900505066	2.5083839893341064
2	5.641318082809448	fix_post	2		12.0	0.0	2.5	/experiments/knapen_aot/videos/R_S_pexels-mart-production-7277934.mp4	0.0	71.33191299438477	0.09997081756591797
3	5.741288900375366	fix_pre	0		49.0	1.0	2.5	/experiments/knapen_aot/videos/R_S_yt-9Q7SZR0mgMA_155.mp4	0.0	71.43188381195068	0.40852999687194824
3	6.143282890319824	response	0	2		1.0	2.5	/experiments/knapen_aot/videos/R_S_yt-9Q7SZR0mgMA_155.mp4	0.0	71.83387780189514	
3	6.1498188972473145	movie	1		300.0	1.0	2.5	/experiments/knapen_aot/videos/R_S_yt-9Q7SZR0mgMA_155.mp4	0.0	71.84041380882263	2.508169174194336
3	8.65798807144165	fix_post	2		12.0	1.0	2.5	/experiments/knapen_aot/videos/R_S_yt-9Q7SZR0mgMA_155.mp4	0.0	74.34858298301697	0.0999917984008789
4	8.75797986984253	fix_pre	0		17.0	2.0	2.5	/experiments/knapen_aot/videos/R_S_yt-IyxCMODHSSE_29.mp4	0.0	74.44857478141785	0.1418590545654297
4	8.891445875167847	response	0	2		2.0	2.5	/experiments/knapen_aot/videos/R_S_yt-IyxCMODHSSE_29.mp4	0.0	74.58204078674316	
4	8.899838924407959	movie	1		301.0	2.0	2.5	/experiments/knapen_aot/videos/R_S_yt-IyxCMODHSSE_29.mp4	0.0	74.59043383598328	2.5081520080566406
4	11.4079909324646	fix_post	2		12.0	2.0	2.5	/experiments/knapen_aot/videos/R_S_yt-IyxCMODHSSE_29.mp4	0.0	77.09858584403992	0.09993696212768555
5	11.507927894592285	fix_pre	0		17.0	3.0	2.5	/experiments/knapen_aot/videos/S_Y003_C009_SDR_2K_AVC.mp4	0.0	77.1985228061676	0.14191412925720215
5	11.641354084014893	response	0	2		3.0	2.5	/experiments/knapen_aot/videos/S_Y003_C009_SDR_2K_AVC.mp4	0.0	77.33194899559021	
5	11.649842023849487	movie	1		170.0	3.0	2.5	/experiments/knapen_aot/videos/S_Y003_C009_SDR_2K_AVC.mp4	0.0	77.3404369354248	2.5081470012664795
5	14.157989025115967	fix_post	2		11.0	3.0	2.5	/experiments/knapen_aot/videos/S_Y003_C009_SDR_2K_AVC.mp4	0.0	79.84858393669128	0.09161496162414551
5	14.241456985473633	response	2	2		3.0	2.5	/experiments/knapen_aot/videos/S_Y003_C009_SDR_2K_AVC.mp4	0.0	79.93205189704895	
6	14.249603986740112	fix_pre	0		41.0	4.0	2.5	/experiments/knapen_aot/videos/S_video_inspire_california_vineyard_sierra-mar_sunrise_110.1080-h264.mp4	0.0	79.94019889831543	0.3416759967803955
6	14.583056926727295	response	0	2		4.0	2.5	/experiments/knapen_aot/videos/S_video_inspire_california_vineyard_sierra-mar_sunrise_110.1080-h264.mp4	0.0	80.27365183830261	
6	14.591279983520508	movie	1		166.0	4.0	2.5	/experiments/knapen_aot/videos/S_video_inspire_california_vineyard_sierra-mar_sunrise_110.1080-h264.mp4	0.0	80.28187489509583	2.5083279609680176
6	17.099607944488525	fix_post	2		12.0	4.0	2.5	/experiments/knapen_aot/videos/S_video_inspire_california_vineyard_sierra-mar_sunrise_110.1080-h264.mp4	0.0	82.79020285606384	0.10000896453857422
7	17.1996169090271	fix_pre	0		11.0	5.0	2.5	blank	1.0	82.89021182060242	0.09164309501647949
7	17.28304409980774	response	0	2		5.0	2.5	blank	1.0	82.97363901138306	
7	17.29126000404358	movie	1		301.0	5.0	2.5	blank	1.0	82.9818549156189	2.5083649158477783
7	19.799624919891357	fix_post	2		12.0	5.0	2.5	blank	1.0	85.49021983146667	0.10011911392211914
8	19.899744033813477	fix_pre	0		32.0	6.0	2.5	/experiments/knapen_aot/videos/R_S_BO_A012_C031_SDR_20190726_SDR_2K_AVC.mp4	0.0	85.5903389453888	0.26653385162353516
8	20.158010959625244	response	0	2		6.0	2.5	/experiments/knapen_aot/videos/R_S_BO_A012_C031_SDR_20190726_SDR_2K_AVC.mp4	0.0	85.84860587120056	
8	20.16627788543701	movie	1		164.0	6.0	2.5	/experiments/knapen_aot/videos/R_S_BO_A012_C031_SDR_20190726_SDR_2K_AVC.mp4	0.0	85.85687279701233	2.5083160400390625
8	22.674593925476074	fix_post	2		12.0	6.0	2.5	/experiments/knapen_aot/videos/R_S_BO_A012_C031_SDR_20190726_SDR_2K_AVC.mp4	0.0	88.36518883705139	0.1000969409942627
9	22.774690866470337	fix_pre	0		8.0	7.0	2.5	/experiments/knapen_aot/videos/R_S_yt-H3EadcgKySM_58.mp4	0.0	88.46528577804565	0.06657123565673828
9	22.833119869232178	response	0	2		7.0	2.5	/experiments/knapen_aot/videos/R_S_yt-H3EadcgKySM_58.mp4	0.0	88.5237147808075	
9	22.841262102127075	movie	1		298.0	7.0	2.5	/experiments/knapen_aot/videos/R_S_yt-H3EadcgKySM_58.mp4	0.0	88.53185701370239	2.508331775665283
9	25.34959387779236	fix_post	2		12.0	7.0	2.5	/experiments/knapen_aot/videos/R_S_yt-H3EadcgKySM_58.mp4	0.0	91.04018878936768	0.09998917579650879
10	25.449583053588867	fix_pre	0		19.0	8.0	2.5	/experiments/knapen_aot/videos/R_S_wc-6or3Gl2Fif0m_13.mp4	0.0	91.14017796516418	0.15837383270263672
10	25.599690914154053	response	0	2		8.0	2.5	/experiments/knapen_aot/videos/R_S_wc-6or3Gl2Fif0m_13.mp4	0.0	91.29028582572937	
10	25.607956886291504	movie	1		166.0	8.0	2.5	/experiments/knapen_aot/videos/R_S_wc-6or3Gl2Fif0m_13.mp4	0.0	91.29855179786682	2.5082271099090576
10	28.11618399620056	fix_post	2		12.0	8.0	2.5	/experiments/knapen_aot/videos/R_S_wc-6or3Gl2Fif0m_13.mp4	0.0	93.80677890777588	0.10004806518554688
11	28.21623206138611	fix_pre	0		11.0	9.0	2.5	/experiments/knapen_aot/videos/R_S_pexels-artem-podrez-5457692.mp4	0.0	93.90682697296143	0.09164285659790039
11	28.29965305328369	response	0	2		9.0	2.5	/experiments/knapen_aot/videos/R_S_pexels-artem-podrez-5457692.mp4	0.0	93.99024796485901	
11	28.30787491798401	movie	1		163.0	9.0	2.5	/experiments/knapen_aot/videos/R_S_pexels-artem-podrez-5457692.mp4	0.0	93.99846982955933	2.5084421634674072
11	30.816317081451416	fix_post	2		12.0	9.0	2.5	/experiments/knapen_aot/videos/R_S_pexels-artem-podrez-5457692.mp4	0.0	96.50691199302673	0.10002279281616211
12	30.916339874267578	fix_pre	0		2.0	10.0	2.5	/experiments/knapen_aot/videos/R_S_Y003_C009_SDR_2K_AVC.mp4	0.0	96.6069347858429	0.018020153045654297
12	30.918987035751343	response	0	2		10.0	2.5	/experiments/knapen_aot/videos/R_S_Y003_C009_SDR_2K_AVC.mp4	0.0	96.60958194732666	
12	30.934360027313232	movie	1		173.0	10.0	2.5	/experiments/knapen_aot/videos/R_S_Y003_C009_SDR_2K_AVC.mp4	0.0	96.62495493888855	2.5068960189819336
12	33.441256046295166	fix_post	2		12.0	10.0	2.5	/experiments/knapen_aot/videos/R_S_Y003_C009_SDR_2K_AVC.mp4	0.0	99.13185095787048	0.09996986389160156
13	33.54122591018677	fix_pre	0		8.0	11.0	2.5	/experiments/knapen_aot/videos/R_S_yt-NqyG4Ar2JWo_10.mp4	0.0	99.23182082176208	0.06670117378234863
13	33.59970688819885	response	0	2		11.0	2.5	/experiments/knapen_aot/videos/R_S_yt-NqyG4Ar2JWo_10.mp4	0.0	99.29030179977417	
13	33.607927083969116	movie	1		301.0	11.0	2.5	/experiments/knapen_aot/videos/R_S_yt-NqyG4Ar2JWo_10.mp4	0.0	99.29852199554443	2.508301019668579
13	36.116228103637695	fix_post	2		12.0	11.0	2.5	/experiments/knapen_aot/videos/R_S_yt-NqyG4Ar2JWo_10.mp4	0.0	101.80682301521301	0.10001182556152344
14	36.21623992919922	fix_pre	0		26.0	12.0	2.5	/experiments/knapen_aot/videos/R_S_yt-hOtj2y9VWrc_354.mp4	0.0	101.90683484077454	0.21660804748535156
14	36.424747943878174	response	0	2		12.0	2.5	/experiments/knapen_aot/videos/R_S_yt-hOtj2y9VWrc_354.mp4	0.0	102.11534285545349	
14	36.43284797668457	movie	1		301.0	12.0	2.5	/experiments/knapen_aot/videos/R_S_yt-hOtj2y9VWrc_354.mp4	0.0	102.12344288825989	2.5083959102630615
14	38.94124388694763	fix_post	2		12.0	12.0	2.5	/experiments/knapen_aot/videos/R_S_yt-hOtj2y9VWrc_354.mp4	0.0	104.63183879852295	0.09992098808288574
15	39.04116487503052	fix_pre	0		41.0	13.0	2.5	/experiments/knapen_aot/videos/R_S_yt-wIZprsJwxBM_298.mp4	0.0	104.73175978660583	0.34165310859680176
15	39.37464499473572	response	0	2		13.0	2.5	/experiments/knapen_aot/videos/R_S_yt-wIZprsJwxBM_298.mp4	0.0	105.06523990631104	
15	39.38281798362732	movie	1		301.0	13.0	2.5	/experiments/knapen_aot/videos/R_S_yt-wIZprsJwxBM_298.mp4	0.0	105.07341289520264	2.5084030628204346
15	41.891221046447754	fix_post	2		12.0	13.0	2.5	/experiments/knapen_aot/videos/R_S_yt-wIZprsJwxBM_298.mp4	0.0	107.58181595802307	0.09998297691345215
16	41.991204023361206	fix_pre	0		37.0	14.0	2.5	blank	1.0	107.68179893493652	0.30825185775756836
16	42.291332960128784	response	0	2		14.0	2.5	blank	1.0	107.9819278717041	
16	42.299455881118774	movie	1		301.0	14.0	2.5	blank	1.0	107.99005079269409	2.5083961486816406
16	44.807852029800415	fix_post	2		12.0	14.0	2.5	blank	1.0	110.49844694137573	0.09999704360961914
17	44.907849073410034	fix_pre	0		35.0	15.0	2.5	/experiments/knapen_aot/videos/S_yt-xNKgc8sFYvU_35.mp4	0.0	110.59844398498535	0.2916219234466553
17	45.19132709503174	response	0	2		15.0	2.5	/experiments/knapen_aot/videos/S_yt-xNKgc8sFYvU_35.mp4	0.0	110.88192200660706	
17	45.19947099685669	movie	1		298.0	15.0	2.5	/experiments/knapen_aot/videos/S_yt-xNKgc8sFYvU_35.mp4	0.0	110.890065908432	2.508289098739624
17	47.70776009559631	fix_post	2		12.0	15.0	2.5	/experiments/knapen_aot/videos/S_yt-xNKgc8sFYvU_35.mp4	0.0	113.39835500717163	0.1000669002532959
18	47.80782699584961	fix_pre	0		43.0	16.0	2.5	/experiments/knapen_aot/videos/R_S_yt-146gReE6xKw_379.mp4	0.0	113.49842190742493	0.35833096504211426
18	48.158087968826294	response	0	2		16.0	2.5	/experiments/knapen_aot/videos/R_S_yt-146gReE6xKw_379.mp4	0.0	113.84868288040161	
18	48.166157960891724	movie	1		301.0	16.0	2.5	/experiments/knapen_aot/videos/R_S_yt-146gReE6xKw_379.mp4	0.0	113.85675287246704	2.5082359313964844
18	50.67439389228821	fix_post	2		12.0	16.0	2.5	/experiments/knapen_aot/videos/R_S_yt-146gReE6xKw_379.mp4	0.0	116.36498880386353	0.10008502006530762
19	50.774478912353516	fix_pre	0		21.0	17.0	2.5	/experiments/knapen_aot/videos/S_yt-KV8X9IBWuJk_48.mp4	0.0	116.46507382392883	0.17494511604309082
19	50.93378806114197	response	0	2		17.0	2.5	/experiments/knapen_aot/videos/S_yt-KV8X9IBWuJk_48.mp4	0.0	116.62438297271729	
19	50.949424028396606	movie	1		301.0	17.0	2.5	/experiments/knapen_aot/videos/S_yt-KV8X9IBWuJk_48.mp4	0.0	116.64001893997192	2.5083799362182617
19	53.45780396461487	fix_post	2		12.0	17.0	2.5	/experiments/knapen_aot/videos/S_yt-KV8X9IBWuJk_48.mp4	0.0	119.14839887619019	0.100006103515625
20	53.55781006813049	fix_pre	0		33.0	18.0	2.5	/experiments/knapen_aot/videos/S_yt-1ruRqcfBMw0_21.mp4	0.0	119.24840497970581	0.27501583099365234
20	53.82456302642822	response	0	2		18.0	2.5	/experiments/knapen_aot/videos/S_yt-1ruRqcfBMw0_21.mp4	0.0	119.51515793800354	
20	53.832825899124146	movie	1		299.0	18.0	2.5	/experiments/knapen_aot/videos/S_yt-1ruRqcfBMw0_21.mp4	0.0	119.52342081069946	2.508324146270752
20	56.3411500453949	fix_post	2		12.0	18.0	2.5	/experiments/knapen_aot/videos/S_yt-1ruRqcfBMw0_21.mp4	0.0	122.03174495697021	0.10001683235168457
21	56.44116687774658	fix_pre	0		27.0	19.0	2.5	/experiments/knapen_aot/videos/R_S_ILSVRC2015_train_00423000.mp4	0.0	122.1317617893219	0.22494721412658691
21	56.65789794921875	response	0	2		19.0	2.5	/experiments/knapen_aot/videos/R_S_ILSVRC2015_train_00423000.mp4	0.0	122.34849286079407	
21	56.66611409187317	movie	1		301.0	19.0	2.5	/experiments/knapen_aot/videos/R_S_ILSVRC2015_train_00423000.mp4	0.0	122.35670900344849	2.5083417892456055
21	59.174455881118774	fix_post	2		12.0	19.0	2.5	/experiments/knapen_aot/videos/R_S_ILSVRC2015_train_00423000.mp4	0.0	124.86505079269409	0.10003900527954102
22	59.274494886398315	fix_pre	0		3.0	20.0	2.5	blank	1.0	124.96508979797363	0.025056123733520508
22	59.29130291938782	response	0	2		20.0	2.5	blank	1.0	124.98189783096313	
22	59.299551010131836	movie	1		301.0	20.0	2.5	blank	1.0	124.99014592170715	2.5082950592041016
22	61.80784606933594	fix_post	2		12.0	20.0	2.5	blank	1.0	127.49844098091125	0.09996795654296875
23	61.907814025878906	fix_pre	0		6.0	21.0	2.5	/experiments/knapen_aot/videos/R_S_yt-0Ut9QANGX20_35.mp4	0.0	127.59840893745422	0.0499570369720459
23	61.94968891143799	response	0	2		21.0	2.5	/experiments/knapen_aot/videos/R_S_yt-0Ut9QANGX20_35.mp4	0.0	127.6402838230133	
23	61.95777106285095	movie	1		301.0	21.0	2.5	/experiments/knapen_aot/videos/R_S_yt-0Ut9QANGX20_35.mp4	0.0	127.64836597442627	2.508373975753784
23	64.46614503860474	fix_post	2		12.0	21.0	2.5	/experiments/knapen_aot/videos/R_S_yt-0Ut9QANGX20_35.mp4	0.0	130.15673995018005	0.1000058650970459
23	64.54127097129822	response	2	2		21.0	2.5	/experiments/knapen_aot/videos/R_S_yt-0Ut9QANGX20_35.mp4	0.0	130.23186588287354	
24	64.56615090370178	fix_pre	0		24.0	22.0	2.5	/experiments/knapen_aot/videos/S_nvbAwZOKBS8_23.mp4	0.0	130.2567458152771	0.20124101638793945
24	64.75792789459229	response	0	2		22.0	2.5	/experiments/knapen_aot/videos/S_nvbAwZOKBS8_23.mp4	0.0	130.4485228061676	
24	64.76739192008972	movie	1		301.0	22.0	2.5	/experiments/knapen_aot/videos/S_nvbAwZOKBS8_23.mp4	0.0	130.45798683166504	2.5070900917053223
24	67.27448201179504	fix_post	2		12.0	22.0	2.5	/experiments/knapen_aot/videos/S_nvbAwZOKBS8_23.mp4	0.0	132.96507692337036	0.1000978946685791
25	67.37457990646362	fix_pre	0		48.0	23.0	2.5	/experiments/knapen_aot/videos/S_yt-dQRqGgpS9mE_288.mp4	0.0	133.06517481803894	0.39986205101013184
25	67.75878190994263	response	0	2		23.0	2.5	/experiments/knapen_aot/videos/S_yt-dQRqGgpS9mE_288.mp4	0.0	133.44937682151794	
25	67.77444195747375	movie	1		301.0	23.0	2.5	/experiments/knapen_aot/videos/S_yt-dQRqGgpS9mE_288.mp4	0.0	133.46503686904907	2.5083699226379395
25	70.2828118801117	fix_post	2		12.0	23.0	2.5	/experiments/knapen_aot/videos/S_yt-dQRqGgpS9mE_288.mp4	0.0	135.973406791687	0.09992504119873047
26	70.38273692131042	fix_pre	0		23.0	24.0	2.5	/experiments/knapen_aot/videos/S_yt-5rC42egLl5E_387.mp4	0.0	136.07333183288574	0.19169306755065918
26	70.56620788574219	response	0	2		24.0	2.5	/experiments/knapen_aot/videos/S_yt-5rC42egLl5E_387.mp4	0.0	136.2568027973175	
26	70.57442998886108	movie	1		300.0	24.0	2.5	/experiments/knapen_aot/videos/S_yt-5rC42egLl5E_387.mp4	0.0	136.2650249004364	2.5083539485931396
26	73.08278393745422	fix_post	2		12.0	24.0	2.5	/experiments/knapen_aot/videos/S_yt-5rC42egLl5E_387.mp4	0.0	138.77337884902954	0.10003495216369629
27	73.18281888961792	fix_pre	0		26.0	25.0	2.5	/experiments/knapen_aot/videos/S_yt-dQRqGgpS9mE_288.mp4	0.0	138.87341380119324	0.21660113334655762
27	73.39124989509583	response	0	2		25.0	2.5	/experiments/knapen_aot/videos/S_yt-dQRqGgpS9mE_288.mp4	0.0	139.08184480667114	
27	73.39942002296448	movie	1		301.0	25.0	2.5	/experiments/knapen_aot/videos/S_yt-dQRqGgpS9mE_288.mp4	0.0	139.0900149345398	2.5083608627319336
27	75.90778088569641	fix_post	2		12.0	25.0	2.5	/experiments/knapen_aot/videos/S_yt-dQRqGgpS9mE_288.mp4	0.0	141.59837579727173	0.09993505477905273
28	76.00771594047546	fix_pre	0		7.0	26.0	2.5	/experiments/knapen_aot/videos/R_S_pexels-c-technical-6344801.mp4	0.0	141.69831085205078	0.05837512016296387
28	76.05792593955994	response	0	2		26.0	2.5	/experiments/knapen_aot/videos/R_S_pexels-c-technical-6344801.mp4	0.0	141.74852085113525	
28	76.06609106063843	movie	1		201.0	26.0	2.5	/experiments/knapen_aot/videos/R_S_pexels-c-technical-6344801.mp4	0.0	141.75668597221375	2.5082650184631348
28	78.57435607910156	fix_post	2		12.0	26.0	2.5	/experiments/knapen_aot/videos/R_S_pexels-c-technical-6344801.mp4	0.0	144.26495099067688	0.10004901885986328
29	78.67440509796143	fix_pre	0		10.0	27.0	2.5	blank	1.0	144.36500000953674	0.0832979679107666
29	78.74952101707458	response	0	2		27.0	2.5	blank	1.0	144.4401159286499	
29	78.75770306587219	movie	1		301.0	27.0	2.5	blank	1.0	144.4482979774475	2.5083158016204834
29	81.26601886749268	fix_post	2		12.0	27.0	2.5	blank	1.0	146.956613779068	0.10006999969482422
30	81.3660888671875	fix_pre	0		30.0	28.0	2.5	/experiments/knapen_aot/videos/S_yt-R0gFQo85cAE_5.mp4	0.0	147.05668377876282	0.2499861717224121
30	81.6079158782959	response	0	2		28.0	2.5	/experiments/knapen_aot/videos/S_yt-R0gFQo85cAE_5.mp4	0.0	147.29851078987122	
30	81.61607503890991	movie	1		301.0	28.0	2.5	/experiments/knapen_aot/videos/S_yt-R0gFQo85cAE_5.mp4	0.0	147.30666995048523	2.5082669258117676
30	84.12434196472168	fix_post	2		12.0	28.0	2.5	/experiments/knapen_aot/videos/S_yt-R0gFQo85cAE_5.mp4	0.0	149.814936876297	0.10004210472106934
31	84.22438406944275	fix_pre	0		20.0	29.0	2.5	/experiments/knapen_aot/videos/S_yt-UBqUhu-GEVg_6.mp4	0.0	149.91497898101807	0.16782689094543457
31	84.38281297683716	response	0	2		29.0	2.5	/experiments/knapen_aot/videos/S_yt-UBqUhu-GEVg_6.mp4	0.0	150.07340788841248	
31	84.39221096038818	movie	1		301.0	29.0	2.5	/experiments/knapen_aot/videos/S_yt-UBqUhu-GEVg_6.mp4	0.0	150.0828058719635	2.507201910018921
31	86.8994128704071	fix_post	2		12.0	29.0	2.5	/experiments/knapen_aot/videos/S_yt-UBqUhu-GEVg_6.mp4	0.0	152.59000778198242	0.09993910789489746
32	86.999351978302	fix_pre	0		13.0	30.0	2.5	/experiments/knapen_aot/videos/S_comp_GMT060_117NC_363D_1034_AUSTRALIA_v35_SDR_PS_FINAL_20180731_SDR_2K_AVC.mp4	0.0	152.68994688987732	0.10834503173828125
32	87.09951996803284	response	0	2		30.0	2.5	/experiments/knapen_aot/videos/S_comp_GMT060_117NC_363D_1034_AUSTRALIA_v35_SDR_PS_FINAL_20180731_SDR_2K_AVC.mp4	0.0	152.79011487960815	
32	87.10769701004028	movie	1		165.0	30.0	2.5	/experiments/knapen_aot/videos/S_comp_GMT060_117NC_363D_1034_AUSTRALIA_v35_SDR_PS_FINAL_20180731_SDR_2K_AVC.mp4	0.0	152.7982919216156	2.5083770751953125
32	89.6160740852356	fix_post	2		12.0	30.0	2.5	/experiments/knapen_aot/videos/S_comp_GMT060_117NC_363D_1034_AUSTRALIA_v35_SDR_PS_FINAL_20180731_SDR_2K_AVC.mp4	0.0	155.3066689968109	0.09997987747192383
33	89.71605396270752	fix_pre	0		7.0	31.0	2.5	/experiments/knapen_aot/videos/R_S_yt-_WFwhcmbXXY_51.mp4	0.0	155.40664887428284	0.058318138122558594
33	89.76614904403687	response	0	2		31.0	2.5	/experiments/knapen_aot/videos/R_S_yt-_WFwhcmbXXY_51.mp4	0.0	155.45674395561218	
33	89.77437210083008	movie	1		301.0	31.0	2.5	/experiments/knapen_aot/videos/R_S_yt-_WFwhcmbXXY_51.mp4	0.0	155.4649670124054	2.5083179473876953
33	92.28269004821777	fix_post	2		12.0	31.0	2.5	/experiments/knapen_aot/videos/R_S_yt-_WFwhcmbXXY_51.mp4	0.0	157.9732849597931	0.10001587867736816
34	92.38270592689514	fix_pre	0		24.0	32.0	2.5	/experiments/knapen_aot/videos/S_ILSVRC2015_train_00632002.mp4	0.0	158.07330083847046	0.19994902610778809
34	92.57450890541077	response	0	2		32.0	2.5	/experiments/knapen_aot/videos/S_ILSVRC2015_train_00632002.mp4	0.0	158.26510381698608	
34	92.58265495300293	movie	1		301.0	32.0	2.5	/experiments/knapen_aot/videos/S_ILSVRC2015_train_00632002.mp4	0.0	158.27324986457825	2.5083699226379395
34	95.09102487564087	fix_post	2		12.0	32.0	2.5	/experiments/knapen_aot/videos/S_ILSVRC2015_train_00632002.mp4	0.0	160.7816197872162	0.09995913505554199
35	95.19098401069641	fix_pre	0		29.0	33.0	2.5	/experiments/knapen_aot/videos/R_S_yt-dESxu60Cl10_24.mp4	0.0	160.88157892227173	0.2427680492401123
35	95.42449307441711	response	0	2		33.0	2.5	/experiments/knapen_aot/videos/R_S_yt-dESxu60Cl10_24.mp4	0.0	161.11508798599243	
35	95.43375205993652	movie	1		300.0	33.0	2.5	/experiments/knapen_aot/videos/R_S_yt-dESxu60Cl10_24.mp4	0.0	161.12434697151184	2.5072379112243652
35	97.91616106033325	response	1	2		33.0	2.5	/experiments/knapen_aot/videos/R_S_yt-dESxu60Cl10_24.mp4	0.0	163.60675597190857	
35	97.94098997116089	fix_post	2		12.0	33.0	2.5	/experiments/knapen_aot/videos/R_S_yt-dESxu60Cl10_24.mp4	0.0	163.6315848827362	0.10002303123474121
36	98.04101300239563	fix_pre	0		65.0	34.0	2.5	blank	1.0	163.73160791397095	0.5416710376739502
36	98.5743989944458	response	0	2		34.0	2.5	blank	1.0	164.26499390602112	
36	98.58268404006958	movie	1		301.0	34.0	2.5	blank	1.0	164.2732789516449	2.5083069801330566
36	101.09099102020264	fix_post	2		12.0	34.0	2.5	blank	1.0	166.78158593177795	0.10001087188720703
37	101.19100189208984	fix_pre	0		14.0	35.0	2.5	/experiments/knapen_aot/videos/S_comp_DB_D008_C010_PSNK_v21_SDR_PS_20180914_F0F16157_SDR_2K_AVC.mp4	0.0	166.88159680366516	0.11773920059204102
37	101.29943108558655	response	0	2		35.0	2.5	/experiments/knapen_aot/videos/S_comp_DB_D008_C010_PSNK_v21_SDR_PS_20180914_F0F16157_SDR_2K_AVC.mp4	0.0	166.99002599716187	
37	101.30874109268188	movie	1		166.0	35.0	2.5	/experiments/knapen_aot/videos/S_comp_DB_D008_C010_PSNK_v21_SDR_PS_20180914_F0F16157_SDR_2K_AVC.mp4	0.0	166.9993360042572	2.5072319507598877
37	103.81597304344177	fix_post	2		12.0	35.0	2.5	/experiments/knapen_aot/videos/S_comp_DB_D008_C010_PSNK_v21_SDR_PS_20180914_F0F16157_SDR_2K_AVC.mp4	0.0	169.5065679550171	0.10002493858337402
37	103.85770988464355	response	2	2		35.0	2.5	/experiments/knapen_aot/videos/S_comp_DB_D008_C010_PSNK_v21_SDR_PS_20180914_F0F16157_SDR_2K_AVC.mp4	0.0	169.54830479621887	
38	103.91599798202515	fix_pre	0		74.0	36.0	2.5	/experiments/knapen_aot/videos/R_S__9v_wUywaAA_35.mp4	0.0	169.60659289360046	0.6166059970855713
38	104.52441787719727	response	0	2		36.0	2.5	/experiments/knapen_aot/videos/R_S__9v_wUywaAA_35.mp4	0.0	170.21501278877258	
38	104.53260397911072	movie	1		301.0	36.0	2.5	/experiments/knapen_aot/videos/R_S__9v_wUywaAA_35.mp4	0.0	170.22319889068604	2.5083279609680176
38	107.04093194007874	fix_post	2		12.0	36.0	2.5	/experiments/knapen_aot/videos/R_S__9v_wUywaAA_35.mp4	0.0	172.73152685165405	0.10001111030578613
39	107.14094305038452	fix_pre	0		25.0	37.0	2.5	/experiments/knapen_aot/videos/S_yt-xCh0LI9VKeI_28.mp4	0.0	172.83153796195984	0.20934200286865234
39	107.34108805656433	response	0	2		37.0	2.5	/experiments/knapen_aot/videos/S_yt-xCh0LI9VKeI_28.mp4	0.0	173.03168296813965	
39	107.35028505325317	movie	1		301.0	37.0	2.5	/experiments/knapen_aot/videos/S_yt-xCh0LI9VKeI_28.mp4	0.0	173.0408799648285	2.507236957550049
39	109.85752201080322	fix_post	2		12.0	37.0	2.5	/experiments/knapen_aot/videos/S_yt-xCh0LI9VKeI_28.mp4	0.0	175.54811692237854	0.10002899169921875
40	109.95755100250244	fix_pre	0		23.0	38.0	2.5	/experiments/knapen_aot/videos/R_S_yt-8y7Xhp2_2e0_168.mp4	0.0	175.64814591407776	0.191680908203125
40	110.14102101325989	response	0	2		38.0	2.5	/experiments/knapen_aot/videos/R_S_yt-8y7Xhp2_2e0_168.mp4	0.0	175.8316159248352	
40	110.14923191070557	movie	1		301.0	38.0	2.5	/experiments/knapen_aot/videos/R_S_yt-8y7Xhp2_2e0_168.mp4	0.0	175.83982682228088	2.5084099769592285
40	112.6576418876648	fix_post	2		12.0	38.0	2.5	/experiments/knapen_aot/videos/R_S_yt-8y7Xhp2_2e0_168.mp4	0.0	178.3482367992401	0.0999610424041748
41	112.75760293006897	fix_pre	0		20.0	39.0	2.5	/experiments/knapen_aot/videos/S_nvbAwZOKBS8_23.mp4	0.0	178.4481978416443	0.16661405563354492
41	112.91605806350708	response	0	2		39.0	2.5	/experiments/knapen_aot/videos/S_nvbAwZOKBS8_23.mp4	0.0	178.6066529750824	
41	112.92421698570251	movie	1		301.0	39.0	2.5	/experiments/knapen_aot/videos/S_nvbAwZOKBS8_23.mp4	0.0	178.61481189727783	2.508347988128662
41	115.43256497383118	fix_post	2		12.0	39.0	2.5	/experiments/knapen_aot/videos/S_nvbAwZOKBS8_23.mp4	0.0	181.1231598854065	0.0999751091003418
42	115.53254008293152	fix_pre	0		16.0	40.0	2.5	/experiments/knapen_aot/videos/R_S_comp_N008_C003_PS_v01_SDR_PS_20180925_SDR_2K_AVC.mp4	0.0	181.22313499450684	0.1332559585571289
42	115.65772795677185	response	0	2		40.0	2.5	/experiments/knapen_aot/videos/R_S_comp_N008_C003_PS_v01_SDR_PS_20180925_SDR_2K_AVC.mp4	0.0	181.34832286834717	
42	115.66579604148865	movie	1		167.0	40.0	2.5	/experiments/knapen_aot/videos/R_S_comp_N008_C003_PS_v01_SDR_PS_20180925_SDR_2K_AVC.mp4	0.0	181.35639095306396	2.5084240436553955
42	118.17422008514404	fix_post	2		12.0	40.0	2.5	/experiments/knapen_aot/videos/R_S_comp_N008_C003_PS_v01_SDR_PS_20180925_SDR_2K_AVC.mp4	0.0	183.86481499671936	0.10000801086425781
43	118.2742280960083	fix_pre	0		9.0	41.0	2.5	blank	1.0	183.96482300758362	0.0749659538269043
43	118.34095501899719	response	0	2		41.0	2.5	blank	1.0	184.0315499305725	
43	118.3491940498352	movie	1		301.0	41.0	2.5	blank	1.0	184.03978896141052	2.508344888687134
43	120.85753893852234	fix_post	2		12.0	41.0	2.5	blank	1.0	186.54813385009766	0.10000801086425781
44	120.9575469493866	fix_pre	0		28.0	42.0	2.5	/experiments/knapen_aot/videos/R_S_production_ID_5144823.mp4	0.0	186.6481418609619	0.23328208923339844
44	121.18256187438965	response	0	2		42.0	2.5	/experiments/knapen_aot/videos/R_S_production_ID_5144823.mp4	0.0	186.87315678596497	
44	121.19082903862	movie	1		166.0	42.0	2.5	/experiments/knapen_aot/videos/R_S_production_ID_5144823.mp4	0.0	186.8814239501953	2.5083179473876953
44	123.53262591362	response	1	2		42.0	2.5	/experiments/knapen_aot/videos/R_S_production_ID_5144823.mp4	0.0	189.2232208251953	
44	123.69914698600769	fix_post	2		12.0	42.0	2.5	/experiments/knapen_aot/videos/R_S_production_ID_5144823.mp4	0.0	189.389741897583	0.10001397132873535
45	123.79916095733643	fix_pre	0		6.0	43.0	2.5	/experiments/knapen_aot/videos/S_yt-sXy_bKQE-8U_7.mp4	0.0	189.48975586891174	0.051007986068725586
45	123.84099793434143	response	0	2		43.0	2.5	/experiments/knapen_aot/videos/S_yt-sXy_bKQE-8U_7.mp4	0.0	189.53159284591675	
45	123.85016894340515	movie	1		301.0	43.0	2.5	/experiments/knapen_aot/videos/S_yt-sXy_bKQE-8U_7.mp4	0.0	189.54076385498047	2.5073249340057373
45	126.35749387741089	fix_post	2		12.0	43.0	2.5	/experiments/knapen_aot/videos/S_yt-sXy_bKQE-8U_7.mp4	0.0	192.0480887889862	0.10017919540405273
46	126.45767307281494	fix_pre	0		33.0	44.0	2.5	/experiments/knapen_aot/videos/S_SE_A016_C009_SDR_20190717_SDR_2K_AVC.mp4	0.0	192.14826798439026	0.27483081817626953
46	126.72433090209961	response	0	2		44.0	2.5	/experiments/knapen_aot/videos/S_SE_A016_C009_SDR_20190717_SDR_2K_AVC.mp4	0.0	192.41492581367493	
46	126.73250389099121	movie	1		164.0	44.0	2.5	/experiments/knapen_aot/videos/S_SE_A016_C009_SDR_20190717_SDR_2K_AVC.mp4	0.0	192.42309880256653	2.508310079574585
46	129.2408139705658	fix_post	2		12.0	44.0	2.5	/experiments/knapen_aot/videos/S_SE_A016_C009_SDR_20190717_SDR_2K_AVC.mp4	0.0	194.9314088821411	0.09995508193969727
47	129.3407690525055	fix_pre	0		7.0	45.0	2.5	/experiments/knapen_aot/videos/R_S_comp_N008_C003_PS_v01_SDR_PS_20180925_SDR_2K_AVC.mp4	0.0	195.0313639640808	0.05835986137390137
47	129.39093494415283	response	0	2		45.0	2.5	/experiments/knapen_aot/videos/R_S_comp_N008_C003_PS_v01_SDR_PS_20180925_SDR_2K_AVC.mp4	0.0	195.08152985572815	
47	129.3991289138794	movie	1		164.0	45.0	2.5	/experiments/knapen_aot/videos/R_S_comp_N008_C003_PS_v01_SDR_PS_20180925_SDR_2K_AVC.mp4	0.0	195.0897238254547	2.508418083190918
47	131.9075469970703	fix_post	2		12.0	45.0	2.5	/experiments/knapen_aot/videos/R_S_comp_N008_C003_PS_v01_SDR_PS_20180925_SDR_2K_AVC.mp4	0.0	197.59814190864563	0.09991788864135742
48	132.00746488571167	fix_pre	0		11.0	46.0	2.5	/experiments/knapen_aot/videos/S_yt--cAfxH1WnPo_3.mp4	0.0	197.698059797287	0.09261703491210938
48	132.0909469127655	response	0	2		46.0	2.5	/experiments/knapen_aot/videos/S_yt--cAfxH1WnPo_3.mp4	0.0	197.78154182434082	
48	132.10008192062378	movie	1		301.0	46.0	2.5	/experiments/knapen_aot/videos/S_yt--cAfxH1WnPo_3.mp4	0.0	197.7906768321991	2.507344961166382
48	134.60742688179016	fix_post	2		12.0	46.0	2.5	/experiments/knapen_aot/videos/S_yt--cAfxH1WnPo_3.mp4	0.0	200.29802179336548	0.10000801086425781
49	134.70743489265442	fix_pre	0		35.0	47.0	2.5	/experiments/knapen_aot/videos/R_S_yt-XbigWWtnGL4_75.mp4	0.0	200.39802980422974	0.29175806045532227
49	134.99092388153076	response	0	2		47.0	2.5	/experiments/knapen_aot/videos/R_S_yt-XbigWWtnGL4_75.mp4	0.0	200.68151879310608	
49	134.99919295310974	movie	1		300.0	47.0	2.5	/experiments/knapen_aot/videos/R_S_yt-XbigWWtnGL4_75.mp4	0.0	200.68978786468506	2.508310079574585
49	137.50750303268433	fix_post	2		12.0	47.0	2.5	/experiments/knapen_aot/videos/R_S_yt-XbigWWtnGL4_75.mp4	0.0	203.19809794425964	0.09995293617248535
50	137.6074559688568	fix_pre	0		17.0	48.0	2.5	/experiments/knapen_aot/videos/S_ILSVRC2015_train_00469000.mp4	0.0	203.29805088043213	0.1416919231414795
50	137.73343706130981	response	0	2		48.0	2.5	/experiments/knapen_aot/videos/S_ILSVRC2015_train_00469000.mp4	0.0	203.42403197288513	
50	137.7491478919983	movie	1		301.0	48.0	2.5	/experiments/knapen_aot/videos/S_ILSVRC2015_train_00469000.mp4	0.0	203.4397428035736	2.508310079574585
50	140.25745797157288	fix_post	2		12.0	48.0	2.5	/experiments/knapen_aot/videos/S_ILSVRC2015_train_00469000.mp4	0.0	205.9480528831482	0.09990310668945312
51	140.35736107826233	fix_pre	0		18.0	49.0	2.5	blank	1.0	206.04795598983765	0.15003299713134766
51	140.49924302101135	response	0	2		49.0	2.5	blank	1.0	206.18983793258667	
51	140.50739407539368	movie	1		301.0	49.0	2.5	blank	1.0	206.197988986969	2.508443832397461
51	143.01583790779114	fix_post	2		12.0	49.0	2.5	blank	1.0	208.70643281936646	0.09994816780090332
52	143.11578607559204	fix_pre	0		39.0	50.0	2.5	/experiments/knapen_aot/videos/S_yt-wIZprsJwxBM_298.mp4	0.0	208.80638098716736	0.325056791305542
52	143.43250393867493	response	0	2		50.0	2.5	/experiments/knapen_aot/videos/S_yt-wIZprsJwxBM_298.mp4	0.0	209.12309885025024	
52	143.44084286689758	movie	1		301.0	50.0	2.5	/experiments/knapen_aot/videos/S_yt-wIZprsJwxBM_298.mp4	0.0	209.1314377784729	2.508294105529785
52	145.94913697242737	fix_post	2		12.0	50.0	2.5	/experiments/knapen_aot/videos/S_yt-wIZprsJwxBM_298.mp4	0.0	211.63973188400269	0.09998011589050293
53	146.04911708831787	fix_pre	0		26.0	51.0	2.5	/experiments/knapen_aot/videos/S_yt-UBqUhu-GEVg_6.mp4	0.0	211.7397119998932	0.21752381324768066
53	146.2576138973236	response	0	2		51.0	2.5	/experiments/knapen_aot/videos/S_yt-UBqUhu-GEVg_6.mp4	0.0	211.94820880889893	
53	146.26664090156555	movie	1		301.0	51.0	2.5	/experiments/knapen_aot/videos/S_yt-UBqUhu-GEVg_6.mp4	0.0	211.95723581314087	2.5075371265411377
53	148.7741780281067	fix_post	2		12.0	51.0	2.5	/experiments/knapen_aot/videos/S_yt-UBqUhu-GEVg_6.mp4	0.0	214.464772939682	0.09994292259216309
54	148.87412095069885	fix_pre	0		15.0	52.0	2.5	/experiments/knapen_aot/videos/S_yt-4oT-2eGhmUo_102.mp4	0.0	214.56471586227417	0.12498211860656738
54	148.99094009399414	response	0	2		52.0	2.5	/experiments/knapen_aot/videos/S_yt-4oT-2eGhmUo_102.mp4	0.0	214.68153500556946	
54	148.99910306930542	movie	1		297.0	52.0	2.5	/experiments/knapen_aot/videos/S_yt-4oT-2eGhmUo_102.mp4	0.0	214.68969798088074	2.5083529949188232
54	151.50745606422424	fix_post	2		12.0	52.0	2.5	/experiments/knapen_aot/videos/S_yt-4oT-2eGhmUo_102.mp4	0.0	217.19805097579956	0.09998893737792969
55	151.60744500160217	fix_pre	0		35.0	53.0	2.5	/experiments/knapen_aot/videos/R_S_yt-NLfzvAJgyJ4_120.mp4	0.0	217.2980399131775	0.2916429042816162
55	151.89103603363037	response	0	2		53.0	2.5	/experiments/knapen_aot/videos/R_S_yt-NLfzvAJgyJ4_120.mp4	0.0	217.5816309452057	
55	151.8990879058838	movie	1		301.0	53.0	2.5	/experiments/knapen_aot/videos/R_S_yt-NLfzvAJgyJ4_120.mp4	0.0	217.5896828174591	2.508287191390991
55	154.40737509727478	fix_post	2		12.0	53.0	2.5	/experiments/knapen_aot/videos/R_S_yt-NLfzvAJgyJ4_120.mp4	0.0	220.0979700088501	0.09998178482055664
56	154.50735688209534	fix_pre	0		20.0	54.0	2.5	blank	1.0	220.19795179367065	0.16669607162475586
56	154.66586089134216	response	0	2		54.0	2.5	blank	1.0	220.35645580291748	
56	154.6740529537201	movie	1		301.0	54.0	2.5	blank	1.0	220.3646478652954	2.508373975753784
56	157.18242692947388	fix_post	2		12.0	54.0	2.5	blank	1.0	222.8730218410492	0.0998849868774414
57	157.28231191635132	fix_pre	0		33.0	55.0	2.5	/experiments/knapen_aot/videos/R_S_yt-mWlx1SIXl5M_850.mp4	0.0	222.97290682792664	0.27582311630249023
57	157.5491909980774	response	0	2		55.0	2.5	/experiments/knapen_aot/videos/R_S_yt-mWlx1SIXl5M_850.mp4	0.0	223.2397859096527	
57	157.5581350326538	movie	1		301.0	55.0	2.5	/experiments/knapen_aot/videos/R_S_yt-mWlx1SIXl5M_850.mp4	0.0	223.24872994422913	2.507537841796875
57	157.64160108566284	response	1	2		55.0	2.5	/experiments/knapen_aot/videos/R_S_yt-mWlx1SIXl5M_850.mp4	0.0	223.33219599723816	
57	160.06567287445068	fix_post	2		12.0	55.0	2.5	/experiments/knapen_aot/videos/R_S_yt-mWlx1SIXl5M_850.mp4	0.0	225.756267786026	0.10003900527954102
58	160.16571187973022	fix_pre	0		33.0	56.0	2.5	/experiments/knapen_aot/videos/R_S_yt-FhnT_42bV7M_11.mp4	0.0	225.85630679130554	0.27499818801879883
58	160.4324450492859	response	0	2		56.0	2.5	/experiments/knapen_aot/videos/R_S_yt-FhnT_42bV7M_11.mp4	0.0	226.1230399608612	
58	160.44071006774902	movie	1		301.0	56.0	2.5	/experiments/knapen_aot/videos/R_S_yt-FhnT_42bV7M_11.mp4	0.0	226.13130497932434	2.5083818435668945
58	162.94909191131592	fix_post	2		12.0	56.0	2.5	/experiments/knapen_aot/videos/R_S_yt-FhnT_42bV7M_11.mp4	0.0	228.63968682289124	0.099884033203125
59	163.04897594451904	fix_pre	0		24.0	57.0	2.5	/experiments/knapen_aot/videos/R_S_yt-J1dw4AznwmQ_7.mp4	0.0	228.73957085609436	0.2000279426574707
59	163.24082899093628	response	0	2		57.0	2.5	/experiments/knapen_aot/videos/R_S_yt-J1dw4AznwmQ_7.mp4	0.0	228.9314239025116	
59	163.2490038871765	movie	1		301.0	57.0	2.5	/experiments/knapen_aot/videos/R_S_yt-J1dw4AznwmQ_7.mp4	0.0	228.93959879875183	2.508507013320923
59	165.75751090049744	fix_post	2		12.0	57.0	2.5	/experiments/knapen_aot/videos/R_S_yt-J1dw4AznwmQ_7.mp4	0.0	231.44810581207275	0.09988212585449219
60	165.85739302635193	fix_pre	0		21.0	58.0	2.5	/experiments/knapen_aot/videos/S_ILSVRC2015_train_00469000.mp4	0.0	231.54798793792725	0.17505788803100586
60	166.02417993545532	response	0	2		58.0	2.5	/experiments/knapen_aot/videos/S_ILSVRC2015_train_00469000.mp4	0.0	231.71477484703064	
60	166.03245091438293	movie	1		301.0	58.0	2.5	/experiments/knapen_aot/videos/S_ILSVRC2015_train_00469000.mp4	0.0	231.72304582595825	2.5083420276641846
60	168.54079294204712	fix_post	2		12.0	58.0	2.5	/experiments/knapen_aot/videos/S_ILSVRC2015_train_00469000.mp4	0.0	234.23138785362244	0.09991312026977539
61	168.6407060623169	fix_pre	0		10.0	59.0	2.5	/experiments/knapen_aot/videos/R_S_yt-AOP7QYQntPI_28.mp4	0.0	234.3313009738922	0.08404898643493652
61	168.71585392951965	response	0	2		59.0	2.5	/experiments/knapen_aot/videos/R_S_yt-AOP7QYQntPI_28.mp4	0.0	234.40644884109497	
61	168.72475504875183	movie	1		299.0	59.0	2.5	/experiments/knapen_aot/videos/R_S_yt-AOP7QYQntPI_28.mp4	0.0	234.41534996032715	2.5075340270996094
61	171.23228907585144	fix_post	2		12.0	59.0	2.5	/experiments/knapen_aot/videos/R_S_yt-AOP7QYQntPI_28.mp4	0.0	236.92288398742676	0.09999299049377441
62	171.33228206634521	fix_pre	0		19.0	60.0	2.5	/experiments/knapen_aot/videos/S_yt-3TF_RGo9cLs_541.mp4	0.0	237.02287697792053	0.15839290618896484
62	171.48246788978577	response	0	2		60.0	2.5	/experiments/knapen_aot/videos/S_yt-3TF_RGo9cLs_541.mp4	0.0	237.17306280136108	
62	171.49067497253418	movie	1		301.0	60.0	2.5	/experiments/knapen_aot/videos/S_yt-3TF_RGo9cLs_541.mp4	0.0	237.1812698841095	2.5083110332489014
62	173.99898600578308	fix_post	2		12.0	60.0	2.5	/experiments/knapen_aot/videos/S_yt-3TF_RGo9cLs_541.mp4	0.0	239.6895809173584	0.09994387626647949
63	174.09892988204956	fix_pre	0		31.0	61.0	2.5	blank	1.0	239.78952479362488	0.25835108757019043
63	174.3490948677063	response	0	2		61.0	2.5	blank	1.0	240.03968977928162	
63	174.35728096961975	movie	1		301.0	61.0	2.5	blank	1.0	240.04787588119507	2.5083320140838623
63	176.8656129837036	fix_post	2		12.0	61.0	2.5	blank	1.0	242.55620789527893	0.100006103515625
64	176.96561908721924	fix_pre	0		86.0	62.0	2.5	/experiments/knapen_aot/videos/S_yt-qiPhBL4lBr0_44.mp4	0.0	242.65621399879456	0.7173459529876709
64	177.67407608032227	response	0	2		62.0	2.5	/experiments/knapen_aot/videos/S_yt-qiPhBL4lBr0_44.mp4	0.0	243.36467099189758	
64	177.6829650402069	movie	1		301.0	62.0	2.5	/experiments/knapen_aot/videos/S_yt-qiPhBL4lBr0_44.mp4	0.0	243.37355995178223	2.5075879096984863
64	180.1905529499054	fix_post	2		12.0	62.0	2.5	/experiments/knapen_aot/videos/S_yt-qiPhBL4lBr0_44.mp4	0.0	245.8811478614807	0.10002613067626953
65	180.29057908058167	fix_pre	0		16.0	63.0	2.5	/experiments/knapen_aot/videos/S_yt-tX3slAQb9yY_13.mp4	0.0	245.98117399215698	0.1333909034729004
65	180.41580200195312	response	0	2		63.0	2.5	/experiments/knapen_aot/videos/S_yt-tX3slAQb9yY_13.mp4	0.0	246.10639691352844	
65	180.42396998405457	movie	1		301.0	63.0	2.5	/experiments/knapen_aot/videos/S_yt-tX3slAQb9yY_13.mp4	0.0	246.11456489562988	2.508378028869629
65	182.9323480129242	fix_post	2		12.0	63.0	2.5	/experiments/knapen_aot/videos/S_yt-tX3slAQb9yY_13.mp4	0.0	248.6229429244995	0.09996700286865234
66	183.03231501579285	fix_pre	0		11.0	64.0	2.5	/experiments/knapen_aot/videos/R_S_ILSVRC2015_train_00572001.mp4	0.0	248.72290992736816	0.09164190292358398
66	183.11574387550354	response	0	2		64.0	2.5	/experiments/knapen_aot/videos/R_S_ILSVRC2015_train_00572001.mp4	0.0	248.80633878707886	
66	183.12395691871643	movie	1		301.0	64.0	2.5	/experiments/knapen_aot/videos/R_S_ILSVRC2015_train_00572001.mp4	0.0	248.81455183029175	2.5082671642303467
66	185.63222408294678	fix_post	2		12.0	64.0	2.5	/experiments/knapen_aot/videos/R_S_ILSVRC2015_train_00572001.mp4	0.0	251.3228189945221	0.10007286071777344
67	185.73229694366455	fix_pre	0		29.0	65.0	2.5	/experiments/knapen_aot/videos/R_S_ILSVRC2015_train_00451000.mp4	0.0	251.42289185523987	0.24232006072998047
67	185.96565008163452	response	0	2		65.0	2.5	/experiments/knapen_aot/videos/R_S_ILSVRC2015_train_00451000.mp4	0.0	251.65624499320984	
67	185.97461700439453	movie	1		301.0	65.0	2.5	/experiments/knapen_aot/videos/R_S_ILSVRC2015_train_00451000.mp4	0.0	251.66521191596985	2.507643938064575
67	188.4822609424591	fix_post	2		12.0	65.0	2.5	/experiments/knapen_aot/videos/R_S_ILSVRC2015_train_00451000.mp4	0.0	254.17285585403442	0.09999299049377441
68	188.58225393295288	fix_pre	0		30.0	66.0	2.5	/experiments/knapen_aot/videos/S_yt-K0CzoUy_uIA_22.mp4	0.0	254.2728488445282	0.24993610382080078
68	188.82402896881104	response	0	2		66.0	2.5	/experiments/knapen_aot/videos/S_yt-K0CzoUy_uIA_22.mp4	0.0	254.51462388038635	
68	188.83219003677368	movie	1		301.0	66.0	2.5	/experiments/knapen_aot/videos/S_yt-K0CzoUy_uIA_22.mp4	0.0	254.522784948349	2.508405923843384
68	191.34059596061707	fix_post	2		12.0	66.0	2.5	/experiments/knapen_aot/videos/S_yt-K0CzoUy_uIA_22.mp4	0.0	257.0311908721924	0.10001111030578613
69	191.44060707092285	fix_pre	0		10.0	67.0	2.5	/experiments/knapen_aot/videos/S_yt-QQPv17nfR_E_2.mp4	0.0	257.13120198249817	0.08327579498291016
69	191.5157549381256	response	0	2		67.0	2.5	/experiments/knapen_aot/videos/S_yt-QQPv17nfR_E_2.mp4	0.0	257.2063498497009	
69	191.52388286590576	movie	1		301.0	67.0	2.5	/experiments/knapen_aot/videos/S_yt-QQPv17nfR_E_2.mp4	0.0	257.2144777774811	2.5083611011505127
69	193.9074249267578	response	1	2		67.0	2.5	/experiments/knapen_aot/videos/S_yt-QQPv17nfR_E_2.mp4	0.0	259.59801983833313	
69	194.03224396705627	fix_post	2		12.0	67.0	2.5	/experiments/knapen_aot/videos/S_yt-QQPv17nfR_E_2.mp4	0.0	259.7228388786316	0.09998703002929688
70	194.13223099708557	fix_pre	0		15.0	68.0	2.5	blank	1.0	259.8228259086609	0.12491106986999512
70	194.248939037323	response	0	2		68.0	2.5	blank	1.0	259.9395339488983	
70	194.25714206695557	movie	1		301.0	68.0	2.5	blank	1.0	259.9477369785309	2.508323907852173
70	196.76546597480774	fix_post	2		12.0	68.0	2.5	blank	1.0	262.45606088638306	0.10004091262817383
71	196.8655068874359	fix_pre	0		30.0	69.0	2.5	/experiments/knapen_aot/videos/S_IrGYVLkWeQs_9.mp4	0.0	262.55610179901123	0.2499830722808838
71	197.10733890533447	response	0	2		69.0	2.5	/experiments/knapen_aot/videos/S_IrGYVLkWeQs_9.mp4	0.0	262.7979338169098	
71	197.1154899597168	movie	1		301.0	69.0	2.5	/experiments/knapen_aot/videos/S_IrGYVLkWeQs_9.mp4	0.0	262.8060848712921	2.508302927017212
71	199.623792886734	fix_post	2		12.0	69.0	2.5	/experiments/knapen_aot/videos/S_IrGYVLkWeQs_9.mp4	0.0	265.3143877983093	0.10008120536804199
72	199.72387409210205	fix_pre	0		66.0	70.0	2.5	/experiments/knapen_aot/videos/R_S_yt-khmJAQuCRRE_119.mp4	0.0	265.41446900367737	0.5499827861785889
72	200.26557397842407	response	0	2		70.0	2.5	/experiments/knapen_aot/videos/R_S_yt-khmJAQuCRRE_119.mp4	0.0	265.9561688899994	
72	200.27385687828064	movie	1		301.0	70.0	2.5	/experiments/knapen_aot/videos/R_S_yt-khmJAQuCRRE_119.mp4	0.0	265.96445178985596	2.5083560943603516
72	202.782212972641	fix_post	2		12.0	70.0	2.5	/experiments/knapen_aot/videos/R_S_yt-khmJAQuCRRE_119.mp4	0.0	268.4728078842163	0.09996700286865234
73	202.88217997550964	fix_pre	0		8.0	71.0	2.5	/experiments/knapen_aot/videos/S_yt-dESxu60Cl10_24.mp4	0.0	268.57277488708496	0.0667109489440918
73	202.9407250881195	response	0	2		71.0	2.5	/experiments/knapen_aot/videos/S_yt-dESxu60Cl10_24.mp4	0.0	268.6313199996948	
73	202.94889092445374	movie	1		301.0	71.0	2.5	/experiments/knapen_aot/videos/S_yt-dESxu60Cl10_24.mp4	0.0	268.63948583602905	2.5083060264587402
73	205.45719695091248	fix_post	2		12.0	71.0	2.5	/experiments/knapen_aot/videos/S_yt-dESxu60Cl10_24.mp4	0.0	271.1477918624878	0.09994006156921387
74	205.5571370124817	fix_pre	0		14.0	72.0	2.5	/experiments/knapen_aot/videos/S_yt-khmJAQuCRRE_119.mp4	0.0	271.247731924057	0.11673307418823242
74	205.66569995880127	response	0	2		72.0	2.5	/experiments/knapen_aot/videos/S_yt-khmJAQuCRRE_119.mp4	0.0	271.3562948703766	
74	205.67387008666992	movie	1		301.0	72.0	2.5	/experiments/knapen_aot/videos/S_yt-khmJAQuCRRE_119.mp4	0.0	271.36446499824524	2.5083439350128174
74	208.18221402168274	fix_post	2		12.0	72.0	2.5	/experiments/knapen_aot/videos/S_yt-khmJAQuCRRE_119.mp4	0.0	273.87280893325806	0.09998893737792969
75	208.28220295906067	fix_pre	0		11.0	73.0	2.5	/experiments/knapen_aot/videos/S_ILSVRC2015_train_00485001.mp4	0.0	273.972797870636	0.09161996841430664
75	208.36568999290466	response	0	2		73.0	2.5	/experiments/knapen_aot/videos/S_ILSVRC2015_train_00485001.mp4	0.0	274.05628490448	
75	208.37382292747498	movie	1		301.0	73.0	2.5	/experiments/knapen_aot/videos/S_ILSVRC2015_train_00485001.mp4	0.0	274.0644178390503	2.5083601474761963
75	210.88218307495117	fix_post	2		12.0	73.0	2.5	/experiments/knapen_aot/videos/S_ILSVRC2015_train_00485001.mp4	0.0	276.5727779865265	0.09997701644897461
76	210.98216009140015	fix_pre	0		23.0	74.0	2.5	/experiments/knapen_aot/videos/R_S_yt-2CWrK9nbhTk_211.mp4	0.0	276.67275500297546	0.19162392616271973
76	211.16562008857727	response	0	2		74.0	2.5	/experiments/knapen_aot/videos/R_S_yt-2CWrK9nbhTk_211.mp4	0.0	276.8562150001526	
76	211.17378401756287	movie	1		301.0	74.0	2.5	/experiments/knapen_aot/videos/R_S_yt-2CWrK9nbhTk_211.mp4	0.0	276.8643789291382	2.5083730220794678
76	213.68215703964233	fix_post	2		12.0	74.0	2.5	/experiments/knapen_aot/videos/R_S_yt-2CWrK9nbhTk_211.mp4	0.0	279.37275195121765	0.0999748706817627
77	213.7821319103241	fix_pre	0		20.0	75.0	2.5	/experiments/knapen_aot/videos/S_ILSVRC2015_train_00595000.mp4	0.0	279.4727268218994	0.16664505004882812
77	213.9406270980835	response	0	2		75.0	2.5	/experiments/knapen_aot/videos/S_ILSVRC2015_train_00595000.mp4	0.0	279.6312220096588	
77	213.94877696037292	movie	1		300.0	75.0	2.5	/experiments/knapen_aot/videos/S_ILSVRC2015_train_00595000.mp4	0.0	279.63937187194824	2.508352041244507
77	216.45712900161743	fix_post	2		12.0	75.0	2.5	/experiments/knapen_aot/videos/S_ILSVRC2015_train_00595000.mp4	0.0	282.14772391319275	0.09997892379760742
78	216.55710792541504	fix_pre	0		12.0	76.0	2.5	blank	1.0	282.24770283699036	0.09999895095825195
78	216.6488790512085	response	0	2		76.0	2.5	blank	1.0	282.3394739627838	
78	216.6571068763733	movie	1		301.0	76.0	2.5	blank	1.0	282.3477017879486	2.508336067199707
78	219.165442943573	fix_post	2		12.0	76.0	2.5	blank	1.0	284.8560378551483	0.10001301765441895
79	219.26545596122742	fix_pre	0		50.0	77.0	2.5	/experiments/knapen_aot/videos/R_S_ILSVRC2015_train_00632002.mp4	0.0	284.95605087280273	0.4170811176300049
79	219.6739330291748	response	0	2		77.0	2.5	/experiments/knapen_aot/videos/R_S_ILSVRC2015_train_00632002.mp4	0.0	285.3645279407501	
79	219.68253707885742	movie	1		301.0	77.0	2.5	/experiments/knapen_aot/videos/R_S_ILSVRC2015_train_00632002.mp4	0.0	285.37313199043274	2.5079448223114014
79	222.19048190116882	fix_post	2		12.0	77.0	2.5	/experiments/knapen_aot/videos/R_S_ILSVRC2015_train_00632002.mp4	0.0	287.88107681274414	0.09995007514953613
80	222.29043197631836	fix_pre	0		8.0	78.0	2.5	/experiments/knapen_aot/videos/R_S_yt-8QCcmqaEMPI_16.mp4	0.0	287.9810268878937	0.06668901443481445
80	222.34905409812927	response	0	2		78.0	2.5	/experiments/knapen_aot/videos/R_S_yt-8QCcmqaEMPI_16.mp4	0.0	288.0396490097046	
80	222.35712099075317	movie	1		301.0	78.0	2.5	/experiments/knapen_aot/videos/R_S_yt-8QCcmqaEMPI_16.mp4	0.0	288.0477159023285	2.5082430839538574
80	224.7739338874817	response	1	2		78.0	2.5	/experiments/knapen_aot/videos/R_S_yt-8QCcmqaEMPI_16.mp4	0.0	290.464528799057	
80	224.86536407470703	fix_post	2		12.0	78.0	2.5	/experiments/knapen_aot/videos/R_S_yt-8QCcmqaEMPI_16.mp4	0.0	290.55595898628235	0.10003399848937988
81	224.9653980731964	fix_pre	0		20.0	79.0	2.5	/experiments/knapen_aot/videos/R_S_yt-gMqeZkpA_1Q_61.mp4	0.0	290.65599298477173	0.16666102409362793
81	225.12390398979187	response	0	2		79.0	2.5	/experiments/knapen_aot/videos/R_S_yt-gMqeZkpA_1Q_61.mp4	0.0	290.8144989013672	
81	225.13205909729004	movie	1		301.0	79.0	2.5	/experiments/knapen_aot/videos/R_S_yt-gMqeZkpA_1Q_61.mp4	0.0	290.82265400886536	2.508328914642334
81	227.64038801193237	fix_post	2		12.0	79.0	2.5	/experiments/knapen_aot/videos/R_S_yt-gMqeZkpA_1Q_61.mp4	0.0	293.3309829235077	0.09999990463256836
82	227.74038791656494	fix_pre	0		15.0	80.0	2.5	/experiments/knapen_aot/videos/S_comp_N008_C009_PS_v01_SDR_PS_20180925_SDR_2K_AVC.mp4	0.0	293.43098282814026	0.1250309944152832
82	227.85723495483398	response	0	2		80.0	2.5	/experiments/knapen_aot/videos/S_comp_N008_C009_PS_v01_SDR_PS_20180925_SDR_2K_AVC.mp4	0.0	293.5478298664093	
82	227.86541891098022	movie	1		167.0	80.0	2.5	/experiments/knapen_aot/videos/S_comp_N008_C009_PS_v01_SDR_PS_20180925_SDR_2K_AVC.mp4	0.0	293.55601382255554	2.508341073989868
82	230.09889888763428	response	1	2		80.0	2.5	/experiments/knapen_aot/videos/S_comp_N008_C009_PS_v01_SDR_PS_20180925_SDR_2K_AVC.mp4	0.0	295.7894937992096	
82	230.3737599849701	fix_post	2		12.0	80.0	2.5	/experiments/knapen_aot/videos/S_comp_N008_C009_PS_v01_SDR_PS_20180925_SDR_2K_AVC.mp4	0.0	296.0643548965454	0.09997105598449707
83	230.4737310409546	fix_pre	0		2.0	81.0	2.5	/experiments/knapen_aot/videos/R_S_yt--cAfxH1WnPo_3.mp4	0.0	296.1643259525299	0.016628026962280273
83	230.47632598876953	response	0	2		81.0	2.5	/experiments/knapen_aot/videos/R_S_yt--cAfxH1WnPo_3.mp4	0.0	296.16692090034485	
83	230.49035906791687	movie	1		301.0	81.0	2.5	/experiments/knapen_aot/videos/R_S_yt--cAfxH1WnPo_3.mp4	0.0	296.1809539794922	2.5083248615264893
83	232.99868392944336	fix_post	2		12.0	81.0	2.5	/experiments/knapen_aot/videos/R_S_yt--cAfxH1WnPo_3.mp4	0.0	298.6892788410187	0.1000511646270752
84	233.09873509407043	fix_pre	0		80.0	82.0	2.5	/experiments/knapen_aot/videos/R_S_video_inspire_texas_pecos_foggy-landscape_00018.1080-h264.mp4	0.0	298.78933000564575	0.6670598983764648
84	233.7572078704834	response	0	2		82.0	2.5	/experiments/knapen_aot/videos/R_S_video_inspire_texas_pecos_foggy-landscape_00018.1080-h264.mp4	0.0	299.4478027820587	
84	233.7657949924469	movie	1		170.0	82.0	2.5	/experiments/knapen_aot/videos/R_S_video_inspire_texas_pecos_foggy-landscape_00018.1080-h264.mp4	0.0	299.4563899040222	2.5080208778381348
84	236.27381587028503	fix_post	2		12.0	82.0	2.5	/experiments/knapen_aot/videos/R_S_video_inspire_texas_pecos_foggy-landscape_00018.1080-h264.mp4	0.0	301.96441078186035	0.09990310668945312
85	236.3737189769745	fix_pre	0		14.0	83.0	2.5	blank	1.0	302.0643138885498	0.11668610572814941
85	236.48219990730286	response	0	2		83.0	2.5	blank	1.0	302.1727948188782	
85	236.49040508270264	movie	1		301.0	83.0	2.5	blank	1.0	302.18099999427795	2.508281946182251
85	238.9986870288849	fix_post	2		12.0	83.0	2.5	blank	1.0	304.6892819404602	0.10041499137878418
87	239.09910202026367	stim	0		507.0					304.789696931839	4.224576950073242
87	239.36550903320312	response	0	2						305.05610394477844	
87	242.49385809898376	response	0	return						308.1844530105591	
87	243.3154730796814	response	0	space						309.0060679912567	
