trial_nr	onset	event_type	phase	response	nr_frames	movie_index	movie_duration	movie_file	blank	onset_abs	duration
0	0.12796688079833984	stim	0		356.0					76.83514595031738	2.964609146118164
0	3.0831449031829834	response	0	space						79.79032397270203	
1	3.092576026916504	stim	0		121.0					79.79975509643555	1.0073418617248535
1	4.099917888641357	stim	1		120.0					80.8070969581604	0.9997930526733398
1	4.48315691947937	response	1	space						81.19033598899841	
2	5.099710941314697	fix_pre	0		81.0	0.0	2.5	/experiments/knapen_aot/videos/S_yt-2i53vKte7SA_117.mp4	0.0	81.80689001083374	0.6749298572540283
2	5.766574859619141	response	0	2		0.0	2.5	/experiments/knapen_aot/videos/S_yt-2i53vKte7SA_117.mp4	0.0	82.47375392913818	
2	5.774640798568726	movie	1		300.0	0.0	2.5	/experiments/knapen_aot/videos/S_yt-2i53vKte7SA_117.mp4	0.0	82.48181986808777	2.508477210998535
2	8.28311800956726	fix_post	2		12.0	0.0	2.5	/experiments/knapen_aot/videos/S_yt-2i53vKte7SA_117.mp4	0.0	84.9902970790863	0.09988594055175781
3	8.383003950119019	fix_pre	0		118.0	1.0	2.5	/experiments/knapen_aot/videos/R_S_ILSVRC2015_train_00715000.mp4	0.0	85.09018301963806	0.9833199977874756
3	9.358080863952637	response	0	2		1.0	2.5	/experiments/knapen_aot/videos/R_S_ILSVRC2015_train_00715000.mp4	0.0	86.06525993347168	
3	9.366323947906494	movie	1		301.0	1.0	2.5	/experiments/knapen_aot/videos/R_S_ILSVRC2015_train_00715000.mp4	0.0	86.07350301742554	2.5083470344543457
3	11.87467098236084	fix_post	2		12.0	1.0	2.5	/experiments/knapen_aot/videos/R_S_ILSVRC2015_train_00715000.mp4	0.0	88.58185005187988	0.09996199607849121
4	11.974632978439331	fix_pre	0		176.0	2.0	2.5	/experiments/knapen_aot/videos/R_S_yt-MNo__ov96eI_22.mp4	0.0	88.68181204795837	1.4666268825531006
4	13.425522804260254	response	0	2		2.0	2.5	/experiments/knapen_aot/videos/R_S_yt-MNo__ov96eI_22.mp4	0.0	90.1327018737793	
4	13.441259860992432	movie	1		301.0	2.0	2.5	/experiments/knapen_aot/videos/R_S_yt-MNo__ov96eI_22.mp4	0.0	90.14843893051147	2.508371114730835
4	15.949630975723267	fix_post	2		12.0	2.0	2.5	/experiments/knapen_aot/videos/R_S_yt-MNo__ov96eI_22.mp4	0.0	92.65681004524231	0.10005497932434082
5	16.049685955047607	fix_pre	0		85.0	3.0	2.5	/experiments/knapen_aot/videos/S_pexels-pavel-danilyuk-8057714.mp4	0.0	92.75686502456665	0.7092609405517578
5	16.742244005203247	response	0	2		3.0	2.5	/experiments/knapen_aot/videos/S_pexels-pavel-danilyuk-8057714.mp4	0.0	93.44942307472229	
5	16.758946895599365	movie	1		165.0	3.0	2.5	/experiments/knapen_aot/videos/S_pexels-pavel-danilyuk-8057714.mp4	0.0	93.46612596511841	2.5073819160461426
5	19.266328811645508	fix_post	2		12.0	3.0	2.5	/experiments/knapen_aot/videos/S_pexels-pavel-danilyuk-8057714.mp4	0.0	95.97350788116455	0.10002398490905762
6	19.366352796554565	fix_pre	0		74.0	4.0	2.5	/experiments/knapen_aot/videos/R_S_yt-2i53vKte7SA_117.mp4	0.0	96.07353186607361	0.6165030002593994
6	19.974745988845825	response	0	2		4.0	2.5	/experiments/knapen_aot/videos/R_S_yt-2i53vKte7SA_117.mp4	0.0	96.68192505836487	
6	19.982855796813965	movie	1		301.0	4.0	2.5	/experiments/knapen_aot/videos/R_S_yt-2i53vKte7SA_117.mp4	0.0	96.69003486633301	2.5085480213165283
6	22.491403818130493	fix_post	2		12.0	4.0	2.5	/experiments/knapen_aot/videos/R_S_yt-2i53vKte7SA_117.mp4	0.0	99.19858288764954	0.09986615180969238
7	22.591269969940186	fix_pre	0		67.0	5.0	2.5	/experiments/knapen_aot/videos/S_yt-GOgS--rzmKQ_51.mp4	0.0	99.29844903945923	0.5583009719848633
7	23.141368865966797	response	0	2		5.0	2.5	/experiments/knapen_aot/videos/S_yt-GOgS--rzmKQ_51.mp4	0.0	99.84854793548584	
7	23.14957094192505	movie	1		301.0	5.0	2.5	/experiments/knapen_aot/videos/S_yt-GOgS--rzmKQ_51.mp4	0.0	99.85675001144409	2.508488893508911
7	25.65805983543396	fix_post	2		12.0	5.0	2.5	/experiments/knapen_aot/videos/S_yt-GOgS--rzmKQ_51.mp4	0.0	102.365238904953	0.09997105598449707
8	25.758030891418457	fix_pre	0		83.0	6.0	2.5	/experiments/knapen_aot/videos/R_S_yt-c5KPuyzO-50_4.mp4	0.0	102.4652099609375	0.6915779113769531
8	26.44141387939453	response	0	2		6.0	2.5	/experiments/knapen_aot/videos/R_S_yt-c5KPuyzO-50_4.mp4	0.0	103.14859294891357	
8	26.44960880279541	movie	1		301.0	6.0	2.5	/experiments/knapen_aot/videos/R_S_yt-c5KPuyzO-50_4.mp4	0.0	103.15678787231445	2.5087380409240723
8	28.958346843719482	fix_post	2		12.0	6.0	2.5	/experiments/knapen_aot/videos/R_S_yt-c5KPuyzO-50_4.mp4	0.0	105.66552591323853	0.09959602355957031
9	29.057942867279053	fix_pre	0		58.0	7.0	2.5	blank	1.0	105.7651219367981	0.483335018157959
9	29.53304886817932	response	0	2		7.0	2.5	blank	1.0	106.24022793769836	
9	29.54127788543701	movie	1		301.0	7.0	2.5	blank	1.0	106.24845695495605	2.5083439350128174
9	32.04962182044983	fix_post	2		12.0	7.0	2.5	blank	1.0	108.75680088996887	0.09993505477905273
10	32.14955687522888	fix_pre	0		23.0	8.0	2.5	/experiments/knapen_aot/videos/R_S_yt-j3Sk8ZnAiEA_32.mp4	0.0	108.85673594474792	0.19271612167358398
10	32.33304500579834	response	0	2		8.0	2.5	/experiments/knapen_aot/videos/R_S_yt-j3Sk8ZnAiEA_32.mp4	0.0	109.04022407531738	
10	32.342272996902466	movie	1		301.0	8.0	2.5	/experiments/knapen_aot/videos/R_S_yt-j3Sk8ZnAiEA_32.mp4	0.0	109.04945206642151	2.5072948932647705
10	34.849567890167236	fix_post	2		12.0	8.0	2.5	/experiments/knapen_aot/videos/R_S_yt-j3Sk8ZnAiEA_32.mp4	0.0	111.55674695968628	0.0999610424041748
11	34.94952893257141	fix_pre	0		52.0	9.0	2.5	/experiments/knapen_aot/videos/S_yt-bTcbsBET7gc_270.mp4	0.0	111.65670800209045	0.4344470500946045
11	35.37466502189636	response	0	2		9.0	2.5	/experiments/knapen_aot/videos/S_yt-bTcbsBET7gc_270.mp4	0.0	112.0818440914154	
11	35.383975982666016	movie	1		301.0	9.0	2.5	/experiments/knapen_aot/videos/S_yt-bTcbsBET7gc_270.mp4	0.0	112.09115505218506	2.5071909427642822
11	37.8911669254303	fix_post	2		12.0	9.0	2.5	/experiments/knapen_aot/videos/S_yt-bTcbsBET7gc_270.mp4	0.0	114.59834599494934	0.10009002685546875
12	37.99125695228577	fix_pre	0		33.0	10.0	2.5	/experiments/knapen_aot/videos/S_yt-g_CLzrCYHoc_7.mp4	0.0	114.69843602180481	0.27493906021118164
12	38.250463008880615	response	0	2		10.0	2.5	/experiments/knapen_aot/videos/S_yt-g_CLzrCYHoc_7.mp4	0.0	114.95764207839966	
12	38.26619601249695	movie	1		301.0	10.0	2.5	/experiments/knapen_aot/videos/S_yt-g_CLzrCYHoc_7.mp4	0.0	114.97337508201599	2.508344888687134
12	40.77454090118408	fix_post	2		12.0	10.0	2.5	/experiments/knapen_aot/videos/S_yt-g_CLzrCYHoc_7.mp4	0.0	117.48171997070312	0.1000359058380127
13	40.874576807022095	fix_pre	0		21.0	11.0	2.5	/experiments/knapen_aot/videos/R_S_yt-NFb0SUCeiro_158.mp4	0.0	117.58175587654114	0.17590999603271484
13	41.04137301445007	response	0	2		11.0	2.5	/experiments/knapen_aot/videos/R_S_yt-NFb0SUCeiro_158.mp4	0.0	117.74855208396912	
13	41.05048680305481	movie	1		301.0	11.0	2.5	/experiments/knapen_aot/videos/R_S_yt-NFb0SUCeiro_158.mp4	0.0	117.75766587257385	2.5073940753936768
13	43.557880878448486	fix_post	2		12.0	11.0	2.5	/experiments/knapen_aot/videos/R_S_yt-NFb0SUCeiro_158.mp4	0.0	120.26505994796753	0.09997296333312988
14	43.657853841781616	fix_pre	0		38.0	12.0	2.5	blank	1.0	120.36503291130066	0.3166160583496094
14	43.958762884140015	response	0	2		12.0	2.5	blank	1.0	120.66594195365906	
14	43.974469900131226	movie	1		301.0	12.0	2.5	blank	1.0	120.68164896965027	2.508371114730835
14	46.48284101486206	fix_post	2		12.0	12.0	2.5	blank	1.0	123.1900200843811	0.10003399848937988
15	46.58287501335144	fix_pre	0		36.0	13.0	2.5	/experiments/knapen_aot/videos/S_ILSVRC2015_train_00165009.mp4	0.0	123.29005408287048	0.3008589744567871
15	46.87457895278931	response	0	2		13.0	2.5	/experiments/knapen_aot/videos/S_ILSVRC2015_train_00165009.mp4	0.0	123.58175802230835	
15	46.88373398780823	movie	1		301.0	13.0	2.5	/experiments/knapen_aot/videos/S_ILSVRC2015_train_00165009.mp4	0.0	123.59091305732727	2.5074830055236816
15	49.39121699333191	fix_post	2		12.0	13.0	2.5	/experiments/knapen_aot/videos/S_ILSVRC2015_train_00165009.mp4	0.0	126.09839606285095	0.09996700286865234
16	49.49118399620056	fix_pre	0		19.0	14.0	2.5	/experiments/knapen_aot/videos/R_S_yt-xQilXyNKsBw_42.mp4	0.0	126.1983630657196	0.1582338809967041
16	49.64130687713623	response	0	2		14.0	2.5	/experiments/knapen_aot/videos/R_S_yt-xQilXyNKsBw_42.mp4	0.0	126.34848594665527	
16	49.649417877197266	movie	1		301.0	14.0	2.5	/experiments/knapen_aot/videos/R_S_yt-xQilXyNKsBw_42.mp4	0.0	126.35659694671631	2.5083420276641846
16	52.15775990486145	fix_post	2		12.0	14.0	2.5	/experiments/knapen_aot/videos/R_S_yt-xQilXyNKsBw_42.mp4	0.0	128.8649389743805	0.10016012191772461
17	52.257920026779175	fix_pre	0		10.0	15.0	2.5	/experiments/knapen_aot/videos/R_S_yt-v8e_DlCsP4w_10.mp4	0.0	128.96509909629822	0.0839998722076416
17	52.33291697502136	response	0	2		15.0	2.5	/experiments/knapen_aot/videos/R_S_yt-v8e_DlCsP4w_10.mp4	0.0	129.0400960445404	
17	52.341919898986816	movie	1		301.0	15.0	2.5	/experiments/knapen_aot/videos/R_S_yt-v8e_DlCsP4w_10.mp4	0.0	129.04909896850586	2.507559061050415
17	54.84947896003723	fix_post	2		12.0	15.0	2.5	/experiments/knapen_aot/videos/R_S_yt-v8e_DlCsP4w_10.mp4	0.0	131.55665802955627	0.0999760627746582
18	54.94945502281189	fix_pre	0		18.0	16.0	2.5	/experiments/knapen_aot/videos/S_yt-7Fyu2vr7zbA_31.mp4	0.0	131.65663409233093	0.14998292922973633
18	55.09126281738281	response	0	2		16.0	2.5	/experiments/knapen_aot/videos/S_yt-7Fyu2vr7zbA_31.mp4	0.0	131.79844188690186	
18	55.099437952041626	movie	1		301.0	16.0	2.5	/experiments/knapen_aot/videos/S_yt-7Fyu2vr7zbA_31.mp4	0.0	131.80661702156067	2.5083839893341064
18	57.60782194137573	fix_post	2		12.0	16.0	2.5	/experiments/knapen_aot/videos/S_yt-7Fyu2vr7zbA_31.mp4	0.0	134.31500101089478	0.09999203681945801
19	57.70781397819519	fix_pre	0		22.0	17.0	2.5	/experiments/knapen_aot/videos/S_pexels-koolshooters-7327401.mp4	0.0	134.41499304771423	0.18329596519470215
19	57.875428915023804	response	0	2		17.0	2.5	/experiments/knapen_aot/videos/S_pexels-koolshooters-7327401.mp4	0.0	134.58260798454285	
19	57.89110994338989	movie	1		168.0	17.0	2.5	/experiments/knapen_aot/videos/S_pexels-koolshooters-7327401.mp4	0.0	134.59828901290894	2.5083329677581787
19	60.39944291114807	fix_post	2		12.0	17.0	2.5	/experiments/knapen_aot/videos/S_pexels-koolshooters-7327401.mp4	0.0	137.10662198066711	0.0999898910522461
20	60.49943280220032	fix_pre	0		55.0	18.0	2.5	/experiments/knapen_aot/videos/S_yt-he_RSdeVinA_68.mp4	0.0	137.20661187171936	0.45827817916870117
20	60.94955897331238	response	0	2		18.0	2.5	/experiments/knapen_aot/videos/S_yt-he_RSdeVinA_68.mp4	0.0	137.65673804283142	
20	60.95771098136902	movie	1		301.0	18.0	2.5	/experiments/knapen_aot/videos/S_yt-he_RSdeVinA_68.mp4	0.0	137.66489005088806	2.5083889961242676
20	63.466099977493286	fix_post	2		12.0	18.0	2.5	/experiments/knapen_aot/videos/S_yt-he_RSdeVinA_68.mp4	0.0	140.17327904701233	0.10002994537353516
21	63.56612992286682	fix_pre	0		29.0	19.0	2.5	blank	1.0	140.27330899238586	0.24166297912597656
21	63.79949188232422	response	0	2		19.0	2.5	blank	1.0	140.50667095184326	
21	63.8077929019928	movie	1		301.0	19.0	2.5	blank	1.0	140.51497197151184	2.508316993713379
21	66.31610989570618	fix_post	2		12.0	19.0	2.5	blank	1.0	143.02328896522522	0.09995007514953613
22	66.41605997085571	fix_pre	0		40.0	20.0	2.5	/experiments/knapen_aot/videos/R_S_yt-XRQ_LSGGr3Y_712.mp4	0.0	143.12323904037476	0.3333008289337158
22	66.74122190475464	response	0	2		20.0	2.5	/experiments/knapen_aot/videos/R_S_yt-XRQ_LSGGr3Y_712.mp4	0.0	143.44840097427368	
22	66.74936079978943	movie	1		301.0	20.0	2.5	/experiments/knapen_aot/videos/R_S_yt-XRQ_LSGGr3Y_712.mp4	0.0	143.45653986930847	2.508327007293701
22	69.25768780708313	fix_post	2		12.0	20.0	2.5	/experiments/knapen_aot/videos/R_S_yt-XRQ_LSGGr3Y_712.mp4	0.0	145.96486687660217	0.10005617141723633
23	69.35774397850037	fix_pre	0		8.0	21.0	2.5	/experiments/knapen_aot/videos/S_yt-dqcUJzNOzbM_156.mp4	0.0	146.0649230480194	0.0673830509185791
23	69.41616296768188	response	0	2		21.0	2.5	/experiments/knapen_aot/videos/S_yt-dqcUJzNOzbM_156.mp4	0.0	146.12334203720093	
23	69.42512702941895	movie	1		300.0	21.0	2.5	/experiments/knapen_aot/videos/S_yt-dqcUJzNOzbM_156.mp4	0.0	146.132306098938	2.5076558589935303
23	71.93278288841248	fix_post	2		12.0	21.0	2.5	/experiments/knapen_aot/videos/S_yt-dqcUJzNOzbM_156.mp4	0.0	148.63996195793152	0.0999460220336914
24	72.03272891044617	fix_pre	0		51.0	22.0	2.5	/experiments/knapen_aot/videos/S_yt-OEY9O2MglQM_7.mp4	0.0	148.7399079799652	0.4250209331512451
24	72.44211483001709	response	0	2		22.0	2.5	/experiments/knapen_aot/videos/S_yt-OEY9O2MglQM_7.mp4	0.0	149.14929389953613	
24	72.45774984359741	movie	1		301.0	22.0	2.5	/experiments/knapen_aot/videos/S_yt-OEY9O2MglQM_7.mp4	0.0	149.16492891311646	2.5086581707000732
24	74.96640801429749	fix_post	2		12.0	22.0	2.5	/experiments/knapen_aot/videos/S_yt-OEY9O2MglQM_7.mp4	0.0	151.67358708381653	0.0997159481048584
25	75.06612396240234	fix_pre	0		24.0	23.0	2.5	/experiments/knapen_aot/videos/S_yt-G65z8p1YNhw_16.mp4	0.0	151.7733030319214	0.19988203048706055
25	75.2580668926239	response	0	2		23.0	2.5	/experiments/knapen_aot/videos/S_yt-G65z8p1YNhw_16.mp4	0.0	151.96524596214294	
25	75.2660059928894	movie	1		301.0	23.0	2.5	/experiments/knapen_aot/videos/S_yt-G65z8p1YNhw_16.mp4	0.0	151.97318506240845	2.508419990539551
25	77.77442598342896	fix_post	2		12.0	23.0	2.5	/experiments/knapen_aot/videos/S_yt-G65z8p1YNhw_16.mp4	0.0	154.481605052948	0.09999394416809082
26	77.87441992759705	fix_pre	0		19.0	24.0	2.5	/experiments/knapen_aot/videos/R_S_pexels-marcus-aurelius-6785014.mp4	0.0	154.5815989971161	0.15828704833984375
26	78.02454590797424	response	0	2		24.0	2.5	/experiments/knapen_aot/videos/R_S_pexels-marcus-aurelius-6785014.mp4	0.0	154.7317249774933	
26	78.03270697593689	movie	1		169.0	24.0	2.5	/experiments/knapen_aot/videos/R_S_pexels-marcus-aurelius-6785014.mp4	0.0	154.73988604545593	2.5083348751068115
26	80.5410418510437	fix_post	2		12.0	24.0	2.5	/experiments/knapen_aot/videos/R_S_pexels-marcus-aurelius-6785014.mp4	0.0	157.24822092056274	0.09997701644897461
27	80.64101886749268	fix_pre	0		4.0	25.0	2.5	/experiments/knapen_aot/videos/R_S_yt-XRQ_LSGGr3Y_712.mp4	0.0	157.34819793701172	0.03401613235473633
27	80.66616892814636	response	0	2		25.0	2.5	/experiments/knapen_aot/videos/R_S_yt-XRQ_LSGGr3Y_712.mp4	0.0	157.3733479976654	
27	80.67503499984741	movie	1		301.0	25.0	2.5	/experiments/knapen_aot/videos/R_S_yt-XRQ_LSGGr3Y_712.mp4	0.0	157.38221406936646	2.507622003555298
27	83.18265700340271	fix_post	2		12.0	25.0	2.5	/experiments/knapen_aot/videos/R_S_yt-XRQ_LSGGr3Y_712.mp4	0.0	159.88983607292175	0.09996390342712402
27	83.27442002296448	response	2	2		25.0	2.5	/experiments/knapen_aot/videos/R_S_yt-XRQ_LSGGr3Y_712.mp4	0.0	159.98159909248352	
28	83.28262090682983	fix_pre	0		143.0	26.0	2.5	/experiments/knapen_aot/videos/R_S_yt-HQQws1Lp_rQ_10.mp4	0.0	159.98979997634888	1.1916871070861816
28	84.46612596511841	response	0	2		26.0	2.5	/experiments/knapen_aot/videos/R_S_yt-HQQws1Lp_rQ_10.mp4	0.0	161.17330503463745	
28	84.47430801391602	movie	1		301.0	26.0	2.5	/experiments/knapen_aot/videos/R_S_yt-HQQws1Lp_rQ_10.mp4	0.0	161.18148708343506	2.5083398818969727
28	86.98264789581299	fix_post	2		12.0	26.0	2.5	/experiments/knapen_aot/videos/R_S_yt-HQQws1Lp_rQ_10.mp4	0.0	163.68982696533203	0.10001802444458008
29	87.08266592025757	fix_pre	0		18.0	27.0	2.5	/experiments/knapen_aot/videos/S_yt--a-d97T4Gak_75.mp4	0.0	163.7898449897766	0.14997005462646484
29	87.22443389892578	response	0	2		27.0	2.5	/experiments/knapen_aot/videos/S_yt--a-d97T4Gak_75.mp4	0.0	163.93161296844482	
29	87.23263597488403	movie	1		301.0	27.0	2.5	/experiments/knapen_aot/videos/S_yt--a-d97T4Gak_75.mp4	0.0	163.93981504440308	2.508309841156006
29	89.74094581604004	fix_post	2		12.0	27.0	2.5	/experiments/knapen_aot/videos/S_yt--a-d97T4Gak_75.mp4	0.0	166.44812488555908	0.100067138671875
30	89.84101295471191	fix_pre	0		49.0	28.0	2.5	blank	1.0	166.54819202423096	0.40828800201416016
30	90.24106693267822	response	0	2		28.0	2.5	blank	1.0	166.94824600219727	
30	90.24930095672607	movie	1		301.0	28.0	2.5	blank	1.0	166.95648002624512	2.5083980560302734
30	92.75769901275635	fix_post	2		12.0	28.0	2.5	blank	1.0	169.4648780822754	0.09996485710144043
31	92.85766386985779	fix_pre	0		25.0	29.0	2.5	/experiments/knapen_aot/videos/S_comp_LA_A011_C003_DGRN_LNFIX_STAB_v57_SDR_PS_20181002_SDR_2K_AVC.mp4	0.0	169.56484293937683	0.20833802223205566
31	93.05774998664856	response	0	2		29.0	2.5	/experiments/knapen_aot/videos/S_comp_LA_A011_C003_DGRN_LNFIX_STAB_v57_SDR_PS_20181002_SDR_2K_AVC.mp4	0.0	169.7649290561676	
31	93.06600189208984	movie	1		167.0	29.0	2.5	/experiments/knapen_aot/videos/S_comp_LA_A011_C003_DGRN_LNFIX_STAB_v57_SDR_PS_20181002_SDR_2K_AVC.mp4	0.0	169.7731809616089	2.5083141326904297
31	95.57431602478027	fix_post	2		12.0	29.0	2.5	/experiments/knapen_aot/videos/S_comp_LA_A011_C003_DGRN_LNFIX_STAB_v57_SDR_PS_20181002_SDR_2K_AVC.mp4	0.0	172.28149509429932	0.1000218391418457
32	95.67433786392212	fix_pre	0		50.0	30.0	2.5	/experiments/knapen_aot/videos/R_S_yt-33PKaLVxDC4_2703.mp4	0.0	172.38151693344116	0.4173130989074707
32	96.08277988433838	response	0	2		30.0	2.5	/experiments/knapen_aot/videos/R_S_yt-33PKaLVxDC4_2703.mp4	0.0	172.78995895385742	
32	96.09165096282959	movie	1		301.0	30.0	2.5	/experiments/knapen_aot/videos/R_S_yt-33PKaLVxDC4_2703.mp4	0.0	172.79883003234863	2.5076420307159424
32	98.59929299354553	fix_post	2		12.0	30.0	2.5	/experiments/knapen_aot/videos/R_S_yt-33PKaLVxDC4_2703.mp4	0.0	175.30647206306458	0.0999298095703125
33	98.69922280311584	fix_pre	0		40.0	31.0	2.5	/experiments/knapen_aot/videos/S_yt-fQgLKiz2tuM_14.mp4	0.0	175.4064018726349	0.33338308334350586
33	99.02440094947815	response	0	2		31.0	2.5	/experiments/knapen_aot/videos/S_yt-fQgLKiz2tuM_14.mp4	0.0	175.7315800189972	
33	99.03260588645935	movie	1		301.0	31.0	2.5	/experiments/knapen_aot/videos/S_yt-fQgLKiz2tuM_14.mp4	0.0	175.7397849559784	2.5083510875701904
33	101.54095697402954	fix_post	2		12.0	31.0	2.5	/experiments/knapen_aot/videos/S_yt-fQgLKiz2tuM_14.mp4	0.0	178.24813604354858	0.09997892379760742
34	101.64093589782715	fix_pre	0		192.0	32.0	2.5	/experiments/knapen_aot/videos/S_yt-2cwARrUMj40_67.mp4	0.0	178.3481149673462	1.5999228954315186
34	103.23274302482605	response	0	2		32.0	2.5	/experiments/knapen_aot/videos/S_yt-2cwARrUMj40_67.mp4	0.0	179.9399220943451	
34	103.24085879325867	movie	1		301.0	32.0	2.5	/experiments/knapen_aot/videos/S_yt-2cwARrUMj40_67.mp4	0.0	179.9480378627777	2.5083532333374023
34	105.74921202659607	fix_post	2		12.0	32.0	2.5	/experiments/knapen_aot/videos/S_yt-2cwARrUMj40_67.mp4	0.0	182.4563910961151	0.10004186630249023
35	105.84925389289856	fix_pre	0		58.0	33.0	2.5	blank	1.0	182.5564329624176	0.4832620620727539
35	106.32439184188843	response	0	2		33.0	2.5	blank	1.0	183.03157091140747	
35	106.33251595497131	movie	1		301.0	33.0	2.5	blank	1.0	183.03969502449036	2.5083789825439453
35	108.84089493751526	fix_post	2		12.0	33.0	2.5	blank	1.0	185.5480740070343	0.10002803802490234
36	108.94092297554016	fix_pre	0		39.0	34.0	2.5	/experiments/knapen_aot/videos/S_yt-6mRpmfIvdew_1435.mp4	0.0	185.6481020450592	0.32497596740722656
36	109.25760388374329	response	0	2		34.0	2.5	/experiments/knapen_aot/videos/S_yt-6mRpmfIvdew_1435.mp4	0.0	185.96478295326233	
36	109.26589894294739	movie	1		301.0	34.0	2.5	/experiments/knapen_aot/videos/S_yt-6mRpmfIvdew_1435.mp4	0.0	185.97307801246643	2.5083649158477783
36	111.77426385879517	fix_post	2		12.0	34.0	2.5	/experiments/knapen_aot/videos/S_yt-6mRpmfIvdew_1435.mp4	0.0	188.4814429283142	0.09998297691345215
37	111.87424683570862	fix_pre	0		50.0	35.0	2.5	/experiments/knapen_aot/videos/R_S_yt-fk-z6WCvjjA_3.mp4	0.0	188.58142590522766	0.41654515266418457
37	112.28263688087463	response	0	2		35.0	2.5	/experiments/knapen_aot/videos/R_S_yt-fk-z6WCvjjA_3.mp4	0.0	188.98981595039368	
37	112.2907919883728	movie	1		301.0	35.0	2.5	/experiments/knapen_aot/videos/R_S_yt-fk-z6WCvjjA_3.mp4	0.0	188.99797105789185	2.508572816848755
37	114.79936480522156	fix_post	2		12.0	35.0	2.5	/experiments/knapen_aot/videos/R_S_yt-fk-z6WCvjjA_3.mp4	0.0	191.5065438747406	0.09988713264465332
38	114.89925193786621	fix_pre	0		85.0	36.0	2.5	/experiments/knapen_aot/videos/R_S_yt-mQRzWCcKOR8_28.mp4	0.0	191.60643100738525	0.7082099914550781
38	115.59936594963074	response	0	2		36.0	2.5	/experiments/knapen_aot/videos/R_S_yt-mQRzWCcKOR8_28.mp4	0.0	192.30654501914978	
38	115.60746192932129	movie	1		301.0	36.0	2.5	/experiments/knapen_aot/videos/R_S_yt-mQRzWCcKOR8_28.mp4	0.0	192.31464099884033	2.508439064025879
38	118.11590099334717	fix_post	2		12.0	36.0	2.5	/experiments/knapen_aot/videos/R_S_yt-mQRzWCcKOR8_28.mp4	0.0	194.8230800628662	0.09999990463256836
39	118.21590089797974	fix_pre	0		30.0	37.0	2.5	/experiments/knapen_aot/videos/S_yt-2V2tq9-O_Nc_1669.mp4	0.0	194.92307996749878	0.2504439353942871
39	118.45764780044556	response	0	2		37.0	2.5	/experiments/knapen_aot/videos/S_yt-2V2tq9-O_Nc_1669.mp4	0.0	195.1648268699646	
39	118.46634483337402	movie	1		301.0	37.0	2.5	/experiments/knapen_aot/videos/S_yt-2V2tq9-O_Nc_1669.mp4	0.0	195.17352390289307	2.507845163345337
39	120.97418999671936	fix_post	2		12.0	37.0	2.5	/experiments/knapen_aot/videos/S_yt-2V2tq9-O_Nc_1669.mp4	0.0	197.6813690662384	0.10001087188720703
40	121.07420086860657	fix_pre	0		8.0	38.0	2.5	/experiments/knapen_aot/videos/S_ILSVRC2015_train_00479000.mp4	0.0	197.7813799381256	0.0666799545288086
40	121.13262796401978	response	0	2		38.0	2.5	/experiments/knapen_aot/videos/S_ILSVRC2015_train_00479000.mp4	0.0	197.83980703353882	
40	121.14088082313538	movie	1		301.0	38.0	2.5	/experiments/knapen_aot/videos/S_ILSVRC2015_train_00479000.mp4	0.0	197.84805989265442	2.50829815864563
40	123.649178981781	fix_post	2		12.0	38.0	2.5	/experiments/knapen_aot/videos/S_ILSVRC2015_train_00479000.mp4	0.0	200.35635805130005	0.1000058650970459
41	123.74918484687805	fix_pre	0		19.0	39.0	2.5	/experiments/knapen_aot/videos/R_S_yt-SkIJvj6KNOo_33.mp4	0.0	200.4563639163971	0.1583850383758545
41	123.89929294586182	response	0	2		39.0	2.5	/experiments/knapen_aot/videos/R_S_yt-SkIJvj6KNOo_33.mp4	0.0	200.60647201538086	
41	123.9075698852539	movie	1		301.0	39.0	2.5	/experiments/knapen_aot/videos/R_S_yt-SkIJvj6KNOo_33.mp4	0.0	200.61474895477295	2.5081961154937744
41	126.41576600074768	fix_post	2		12.0	39.0	2.5	/experiments/knapen_aot/videos/R_S_yt-SkIJvj6KNOo_33.mp4	0.0	203.12294507026672	0.10005784034729004
42	126.51582384109497	fix_pre	0		50.0	40.0	2.5	/experiments/knapen_aot/videos/S_yt-ObT9gF8E_tU_250.mp4	0.0	203.223002910614	0.41663098335266113
42	126.92437195777893	response	0	2		40.0	2.5	/experiments/knapen_aot/videos/S_yt-ObT9gF8E_tU_250.mp4	0.0	203.63155102729797	
42	126.93245482444763	movie	1		301.0	40.0	2.5	/experiments/knapen_aot/videos/S_yt-ObT9gF8E_tU_250.mp4	0.0	203.63963389396667	2.508310079574585
42	129.44076490402222	fix_post	2		12.0	40.0	2.5	/experiments/knapen_aot/videos/S_yt-ObT9gF8E_tU_250.mp4	0.0	206.14794397354126	0.10006189346313477
43	129.54082679748535	fix_pre	0		32.0	41.0	2.5	blank	1.0	206.2480058670044	0.2666890621185303
43	129.7992959022522	response	0	2		41.0	2.5	blank	1.0	206.50647497177124	
43	129.80751585960388	movie	1		301.0	41.0	2.5	blank	1.0	206.51469492912292	2.508249044418335
43	132.31576490402222	fix_post	2		12.0	41.0	2.5	blank	1.0	209.02294397354126	0.1000978946685791
44	132.4158627986908	fix_pre	0		28.0	42.0	2.5	/experiments/knapen_aot/videos/S_ILSVRC2015_train_00469000.mp4	0.0	209.12304186820984	0.23328304290771484
44	132.6409249305725	response	0	2		42.0	2.5	/experiments/knapen_aot/videos/S_ILSVRC2015_train_00469000.mp4	0.0	209.34810400009155	
44	132.6491458415985	movie	1		301.0	42.0	2.5	/experiments/knapen_aot/videos/S_ILSVRC2015_train_00469000.mp4	0.0	209.35632491111755	2.5083110332489014
44	135.1574568748474	fix_post	2		12.0	42.0	2.5	/experiments/knapen_aot/videos/S_ILSVRC2015_train_00469000.mp4	0.0	211.86463594436646	0.10025215148925781
45	135.25770902633667	fix_pre	0		27.0	43.0	2.5	/experiments/knapen_aot/videos/S_pexels-ron-lach-8071987.mp4	0.0	211.9648880958557	0.224761962890625
45	135.47425293922424	response	0	2		43.0	2.5	/experiments/knapen_aot/videos/S_pexels-ron-lach-8071987.mp4	0.0	212.1814320087433	
45	135.4824709892273	movie	1		205.0	43.0	2.5	/experiments/knapen_aot/videos/S_pexels-ron-lach-8071987.mp4	0.0	212.18965005874634	2.508314847946167
45	137.99078583717346	fix_post	2		12.0	43.0	2.5	/experiments/knapen_aot/videos/S_pexels-ron-lach-8071987.mp4	0.0	214.6979649066925	0.10036706924438477
46	138.09115290641785	fix_pre	0		2.0	44.0	2.5	/experiments/knapen_aot/videos/S_yt-kINZMjys3O4_112.mp4	0.0	214.7983319759369	0.016257047653198242
46	138.0992648601532	response	0	2		44.0	2.5	/experiments/knapen_aot/videos/S_yt-kINZMjys3O4_112.mp4	0.0	214.80644392967224	
46	138.10740995407104	movie	1		301.0	44.0	2.5	/experiments/knapen_aot/videos/S_yt-kINZMjys3O4_112.mp4	0.0	214.8145890235901	2.5083909034729004
46	140.61580085754395	fix_post	2		12.0	44.0	2.5	/experiments/knapen_aot/videos/S_yt-kINZMjys3O4_112.mp4	0.0	217.322979927063	0.09997010231018066
47	140.71577095985413	fix_pre	0		10.0	45.0	2.5	/experiments/knapen_aot/videos/S_pexels-c-technical-6753390_2.mp4	0.0	217.42295002937317	0.08368587493896484
47	140.7908809185028	response	0	2		45.0	2.5	/experiments/knapen_aot/videos/S_pexels-c-technical-6753390_2.mp4	0.0	217.49805998802185	
47	140.7994568347931	movie	1		197.0	45.0	2.5	/experiments/knapen_aot/videos/S_pexels-c-technical-6753390_2.mp4	0.0	217.50663590431213	2.508023977279663
47	143.30748081207275	fix_post	2		12.0	45.0	2.5	/experiments/knapen_aot/videos/S_pexels-c-technical-6753390_2.mp4	0.0	220.0146598815918	0.09997320175170898
48	143.40745401382446	fix_pre	0		10.0	46.0	2.5	/experiments/knapen_aot/videos/R_S_ILSVRC2015_train_00584001.mp4	0.0	220.1146330833435	0.08326482772827148
48	143.48258090019226	response	0	2		46.0	2.5	/experiments/knapen_aot/videos/R_S_ILSVRC2015_train_00584001.mp4	0.0	220.1897599697113	
48	143.49071884155273	movie	1		301.0	46.0	2.5	/experiments/knapen_aot/videos/R_S_ILSVRC2015_train_00584001.mp4	0.0	220.19789791107178	2.5084571838378906
48	145.99917602539062	fix_post	2		12.0	46.0	2.5	/experiments/knapen_aot/videos/R_S_ILSVRC2015_train_00584001.mp4	0.0	222.70635509490967	0.09995794296264648
49	146.09913396835327	fix_pre	0		20.0	47.0	2.5	blank	1.0	222.80631303787231	0.16664791107177734
49	146.25751399993896	response	0	2		47.0	2.5	blank	1.0	222.964693069458	
49	146.26578187942505	movie	1		301.0	47.0	2.5	blank	1.0	222.9729609489441	2.508331060409546
49	148.7741129398346	fix_post	2		12.0	47.0	2.5	blank	1.0	225.48129200935364	0.10002803802490234
50	148.8741409778595	fix_pre	0		23.0	48.0	2.5	/experiments/knapen_aot/videos/S_BO_A014_C023_SDR_20190717_F240F3709_SDR_2K_AVC.mp4	0.0	225.58132004737854	0.19158697128295898
50	149.05770802497864	response	0	2		48.0	2.5	/experiments/knapen_aot/videos/S_BO_A014_C023_SDR_20190717_F240F3709_SDR_2K_AVC.mp4	0.0	225.76488709449768	
50	149.06572794914246	movie	1		171.0	48.0	2.5	/experiments/knapen_aot/videos/S_BO_A014_C023_SDR_20190717_F240F3709_SDR_2K_AVC.mp4	0.0	225.7729070186615	2.508327007293701
50	151.57405495643616	fix_post	2		12.0	48.0	2.5	/experiments/knapen_aot/videos/S_BO_A014_C023_SDR_20190717_F240F3709_SDR_2K_AVC.mp4	0.0	228.2812340259552	0.10050296783447266
50	151.63244795799255	response	2	2		48.0	2.5	/experiments/knapen_aot/videos/S_BO_A014_C023_SDR_20190717_F240F3709_SDR_2K_AVC.mp4	0.0	228.3396270275116	
51	151.67455792427063	fix_pre	0		193.0	49.0	2.5	/experiments/knapen_aot/videos/R_S_yt-JpOBXV46TLE_124.mp4	0.0	228.38173699378967	1.6077730655670166
51	153.27415299415588	response	0	2		49.0	2.5	/experiments/knapen_aot/videos/R_S_yt-JpOBXV46TLE_124.mp4	0.0	229.98133206367493	
51	153.28233098983765	movie	1		301.0	49.0	2.5	/experiments/knapen_aot/videos/R_S_yt-JpOBXV46TLE_124.mp4	0.0	229.9895100593567	2.508391857147217
51	155.79072284698486	fix_post	2		12.0	49.0	2.5	/experiments/knapen_aot/videos/R_S_yt-JpOBXV46TLE_124.mp4	0.0	232.4979019165039	0.09996795654296875
52	155.89069080352783	fix_pre	0		43.0	50.0	2.5	/experiments/knapen_aot/videos/R_S_yt-KpOAdMtPGFs_17.mp4	0.0	232.59786987304688	0.358335018157959
52	156.2407488822937	response	0	2		50.0	2.5	/experiments/knapen_aot/videos/R_S_yt-KpOAdMtPGFs_17.mp4	0.0	232.94792795181274	
52	156.2490258216858	movie	1		301.0	50.0	2.5	/experiments/knapen_aot/videos/R_S_yt-KpOAdMtPGFs_17.mp4	0.0	232.95620489120483	2.5083811283111572
52	158.75740694999695	fix_post	2		12.0	50.0	2.5	/experiments/knapen_aot/videos/R_S_yt-KpOAdMtPGFs_17.mp4	0.0	235.464586019516	0.1001899242401123
53	158.85759687423706	fix_pre	0		284.0	51.0	2.5	/experiments/knapen_aot/videos/S_yt-7W50lcw5FCo_37.mp4	0.0	235.5647759437561	2.366313934326172
53	161.20831680297852	response	0	2		51.0	2.5	/experiments/knapen_aot/videos/S_yt-7W50lcw5FCo_37.mp4	0.0	237.91549587249756	
53	161.22391080856323	movie	1		301.0	51.0	2.5	/experiments/knapen_aot/videos/S_yt-7W50lcw5FCo_37.mp4	0.0	237.93108987808228	2.5085370540618896
53	163.73244786262512	fix_post	2		12.0	51.0	2.5	/experiments/knapen_aot/videos/S_yt-7W50lcw5FCo_37.mp4	0.0	240.43962693214417	0.09990215301513672
54	163.83235001564026	fix_pre	0		41.0	52.0	2.5	/experiments/knapen_aot/videos/S_wc-0SAXOWjdNVGC_8.mp4	0.0	240.5395290851593	0.34180593490600586
54	164.16573786735535	response	0	2		52.0	2.5	/experiments/knapen_aot/videos/S_wc-0SAXOWjdNVGC_8.mp4	0.0	240.8729169368744	
54	164.17415595054626	movie	1		164.0	52.0	2.5	/experiments/knapen_aot/videos/S_wc-0SAXOWjdNVGC_8.mp4	0.0	240.8813350200653	2.5081679821014404
54	166.6823239326477	fix_post	2		12.0	52.0	2.5	/experiments/knapen_aot/videos/S_wc-0SAXOWjdNVGC_8.mp4	0.0	243.38950300216675	0.1002349853515625
55	166.78255891799927	fix_pre	0		347.0	53.0	2.5	/experiments/knapen_aot/videos/S_yt-JpOBXV46TLE_124.mp4	0.0	243.4897379875183	2.891563892364502
55	169.6583127975464	response	0	2		53.0	2.5	/experiments/knapen_aot/videos/S_yt-JpOBXV46TLE_124.mp4	0.0	246.36549186706543	
55	169.67412281036377	movie	1		301.0	53.0	2.5	/experiments/knapen_aot/videos/S_yt-JpOBXV46TLE_124.mp4	0.0	246.3813018798828	2.5081701278686523
55	172.18229293823242	fix_post	2		12.0	53.0	2.5	/experiments/knapen_aot/videos/S_yt-JpOBXV46TLE_124.mp4	0.0	248.88947200775146	0.10004806518554688
56	172.28234100341797	fix_pre	0		29.0	54.0	2.5	blank	1.0	248.989520072937	0.24155282974243164
56	172.51570582389832	response	0	2		54.0	2.5	blank	1.0	249.22288489341736	
56	172.5238938331604	movie	1		301.0	54.0	2.5	blank	1.0	249.23107290267944	2.5083940029144287
56	175.03228783607483	fix_post	2		12.0	54.0	2.5	blank	1.0	251.73946690559387	0.10021710395812988
57	175.13250494003296	fix_pre	0		178.0	55.0	2.5	/experiments/knapen_aot/videos/R_S_yt-yXJr3FR2xrM_27.mp4	0.0	251.839684009552	1.4830889701843262
57	176.6073830127716	response	0	2		55.0	2.5	/experiments/knapen_aot/videos/R_S_yt-yXJr3FR2xrM_27.mp4	0.0	253.31456208229065	
57	176.61559391021729	movie	1		301.0	55.0	2.5	/experiments/knapen_aot/videos/R_S_yt-yXJr3FR2xrM_27.mp4	0.0	253.32277297973633	2.5083858966827393
57	179.12397980690002	fix_post	2		12.0	55.0	2.5	/experiments/knapen_aot/videos/R_S_yt-yXJr3FR2xrM_27.mp4	0.0	255.83115887641907	0.0999760627746582
58	179.22395586967468	fix_pre	0		94.0	56.0	2.5	/experiments/knapen_aot/videos/R_S_yt-V4Oosy-ZtGY_193.mp4	0.0	255.93113493919373	0.7834270000457764
58	179.99903297424316	response	0	2		56.0	2.5	/experiments/knapen_aot/videos/R_S_yt-V4Oosy-ZtGY_193.mp4	0.0	256.7062120437622	
58	180.00738286972046	movie	1		301.0	56.0	2.5	/experiments/knapen_aot/videos/R_S_yt-V4Oosy-ZtGY_193.mp4	0.0	256.7145619392395	2.5082099437713623
58	182.51559281349182	fix_post	2		12.0	56.0	2.5	/experiments/knapen_aot/videos/R_S_yt-V4Oosy-ZtGY_193.mp4	0.0	259.22277188301086	0.09998798370361328
59	182.61558079719543	fix_pre	0		35.0	57.0	2.5	/experiments/knapen_aot/videos/S_flickr-evananderica-2662125519_8.mp4	0.0	259.3227598667145	0.29161620140075684
59	182.89893984794617	response	0	2		57.0	2.5	/experiments/knapen_aot/videos/S_flickr-evananderica-2662125519_8.mp4	0.0	259.6061189174652	
59	182.9071969985962	movie	1		301.0	57.0	2.5	/experiments/knapen_aot/videos/S_flickr-evananderica-2662125519_8.mp4	0.0	259.61437606811523	2.508431911468506
59	185.4156289100647	fix_post	2		12.0	57.0	2.5	/experiments/knapen_aot/videos/S_flickr-evananderica-2662125519_8.mp4	0.0	262.12280797958374	0.09996604919433594
60	185.51559495925903	fix_pre	0		45.0	58.0	2.5	/experiments/knapen_aot/videos/R_S_yt-OTNdgakSIJE_97.mp4	0.0	262.2227740287781	0.37492799758911133
60	185.88234400749207	response	0	2		58.0	2.5	/experiments/knapen_aot/videos/R_S_yt-OTNdgakSIJE_97.mp4	0.0	262.5895230770111	
60	185.89052295684814	movie	1		301.0	58.0	2.5	/experiments/knapen_aot/videos/R_S_yt-OTNdgakSIJE_97.mp4	0.0	262.5977020263672	2.508450984954834
60	188.39897394180298	fix_post	2		12.0	58.0	2.5	/experiments/knapen_aot/videos/R_S_yt-OTNdgakSIJE_97.mp4	0.0	265.106153011322	0.10008788108825684
61	188.49906182289124	fix_pre	0		21.0	59.0	2.5	/experiments/knapen_aot/videos/R_S_ILSVRC2015_train_00379000.mp4	0.0	265.2062408924103	0.17489910125732422
61	188.66570401191711	response	0	2		59.0	2.5	/experiments/knapen_aot/videos/R_S_ILSVRC2015_train_00379000.mp4	0.0	265.37288308143616	
61	188.67396092414856	movie	1		301.0	59.0	2.5	/experiments/knapen_aot/videos/R_S_ILSVRC2015_train_00379000.mp4	0.0	265.3811399936676	2.5083060264587402
61	191.14058899879456	response	1	2		59.0	2.5	/experiments/knapen_aot/videos/R_S_ILSVRC2015_train_00379000.mp4	0.0	267.8477680683136	
61	191.1822669506073	fix_post	2		12.0	59.0	2.5	/experiments/knapen_aot/videos/R_S_ILSVRC2015_train_00379000.mp4	0.0	267.88944602012634	0.10007596015930176
62	191.2823429107666	fix_pre	0		64.0	60.0	2.5	/experiments/knapen_aot/videos/S_yt-h09NHEfoKb0_8.mp4	0.0	267.98952198028564	0.5332090854644775
62	191.80726385116577	response	0	2		60.0	2.5	/experiments/knapen_aot/videos/S_yt-h09NHEfoKb0_8.mp4	0.0	268.5144429206848	
62	191.81555199623108	movie	1		300.0	60.0	2.5	/experiments/knapen_aot/videos/S_yt-h09NHEfoKb0_8.mp4	0.0	268.5227310657501	2.5083048343658447
62	194.32385683059692	fix_post	2		12.0	60.0	2.5	/experiments/knapen_aot/videos/S_yt-h09NHEfoKb0_8.mp4	0.0	271.03103590011597	0.1001291275024414
63	194.42398595809937	fix_pre	0		49.0	61.0	2.5	blank	1.0	271.1311650276184	0.4082059860229492
63	194.81647396087646	response	0	2		61.0	2.5	blank	1.0	271.5236530303955	
63	194.83219194412231	movie	1		301.0	61.0	2.5	blank	1.0	271.53937101364136	2.5083959102630615
63	197.34058785438538	fix_post	2		12.0	61.0	2.5	blank	1.0	274.0477669239044	0.10003495216369629
64	197.44062280654907	fix_pre	0		107.0	62.0	2.5	/experiments/knapen_aot/videos/S_yt-NFb0SUCeiro_158.mp4	0.0	274.1478018760681	0.8915250301361084
64	198.31651401519775	response	0	2		62.0	2.5	/experiments/knapen_aot/videos/S_yt-NFb0SUCeiro_158.mp4	0.0	275.0236930847168	
64	198.33214783668518	movie	1		301.0	62.0	2.5	/experiments/knapen_aot/videos/S_yt-NFb0SUCeiro_158.mp4	0.0	275.0393269062042	2.508855104446411
64	200.8410029411316	fix_post	2		12.0	62.0	2.5	/experiments/knapen_aot/videos/S_yt-NFb0SUCeiro_158.mp4	0.0	277.54818201065063	0.09943699836730957
65	200.9404399394989	fix_pre	0		42.0	63.0	2.5	/experiments/knapen_aot/videos/R_S_yt-K_gHa2x2OQA_319.mp4	0.0	277.64761900901794	0.3499870300292969
65	201.28230786323547	response	0	2		63.0	2.5	/experiments/knapen_aot/videos/R_S_yt-K_gHa2x2OQA_319.mp4	0.0	277.9894869327545	
65	201.2904269695282	movie	1		301.0	63.0	2.5	/experiments/knapen_aot/videos/R_S_yt-K_gHa2x2OQA_319.mp4	0.0	277.99760603904724	2.508509874343872
65	203.79893684387207	fix_post	2		12.0	63.0	2.5	/experiments/knapen_aot/videos/R_S_yt-K_gHa2x2OQA_319.mp4	0.0	280.5061159133911	0.09991002082824707
66	203.89884686470032	fix_pre	0		55.0	64.0	2.5	/experiments/knapen_aot/videos/S_yt-B7ZRYVhfW2U_52.mp4	0.0	280.60602593421936	0.4582540988922119
66	204.34895491600037	response	0	2		64.0	2.5	/experiments/knapen_aot/videos/S_yt-B7ZRYVhfW2U_52.mp4	0.0	281.0561339855194	
66	204.35710096359253	movie	1		301.0	64.0	2.5	/experiments/knapen_aot/videos/S_yt-B7ZRYVhfW2U_52.mp4	0.0	281.0642800331116	2.5083658695220947
66	206.86546683311462	fix_post	2		12.0	64.0	2.5	/experiments/knapen_aot/videos/S_yt-B7ZRYVhfW2U_52.mp4	0.0	283.57264590263367	0.1000070571899414
67	206.96547389030457	fix_pre	0		103.0	65.0	2.5	/experiments/knapen_aot/videos/S_yt-SS7pSyb0_d0_32.mp4	0.0	283.6726529598236	0.8583309650421143
67	207.81555700302124	response	0	2		65.0	2.5	/experiments/knapen_aot/videos/S_yt-SS7pSyb0_d0_32.mp4	0.0	284.5227360725403	
67	207.82380485534668	movie	1		301.0	65.0	2.5	/experiments/knapen_aot/videos/S_yt-SS7pSyb0_d0_32.mp4	0.0	284.5309839248657	2.5084221363067627
67	210.33222699165344	fix_post	2		12.0	65.0	2.5	/experiments/knapen_aot/videos/S_yt-SS7pSyb0_d0_32.mp4	0.0	287.0394060611725	0.09994888305664062
68	210.43217587471008	fix_pre	0		199.0	66.0	2.5	/experiments/knapen_aot/videos/R_S_video_inspire_oregon_lone-ranch-beach_00001.1080-h264.mp4	0.0	287.1393549442291	1.6582880020141602
68	212.0823109149933	response	0	2		66.0	2.5	/experiments/knapen_aot/videos/R_S_video_inspire_oregon_lone-ranch-beach_00001.1080-h264.mp4	0.0	288.78948998451233	
68	212.09046387672424	movie	1		167.0	66.0	2.5	/experiments/knapen_aot/videos/R_S_video_inspire_oregon_lone-ranch-beach_00001.1080-h264.mp4	0.0	288.7976429462433	2.508366107940674
68	214.59882998466492	fix_post	2		12.0	66.0	2.5	/experiments/knapen_aot/videos/R_S_video_inspire_oregon_lone-ranch-beach_00001.1080-h264.mp4	0.0	291.30600905418396	0.09998893737792969
69	214.69881892204285	fix_pre	0		307.0	67.0	2.5	/experiments/knapen_aot/videos/S_yt-kkbtZP78JxQ_96.mp4	0.0	291.4059979915619	2.558271884918213
69	217.24889302253723	response	0	2		67.0	2.5	/experiments/knapen_aot/videos/S_yt-kkbtZP78JxQ_96.mp4	0.0	293.9560720920563	
69	217.25709080696106	movie	1		301.0	67.0	2.5	/experiments/knapen_aot/videos/S_yt-kkbtZP78JxQ_96.mp4	0.0	293.9642698764801	2.508371114730835
69	219.7654619216919	fix_post	2		12.0	67.0	2.5	/experiments/knapen_aot/videos/S_yt-kkbtZP78JxQ_96.mp4	0.0	296.47264099121094	0.1000359058380127
70	219.8654978275299	fix_pre	0		158.0	68.0	2.5	/experiments/knapen_aot/videos/S_yt-wrfAMDCg93Y_8.mp4	0.0	296.57267689704895	1.3165881633758545
70	221.16633081436157	response	0	2		68.0	2.5	/experiments/knapen_aot/videos/S_yt-wrfAMDCg93Y_8.mp4	0.0	297.8735098838806	
70	221.18208599090576	movie	1		301.0	68.0	2.5	/experiments/knapen_aot/videos/S_yt-wrfAMDCg93Y_8.mp4	0.0	297.8892650604248	2.5083208084106445
70	223.6904067993164	fix_post	2		12.0	68.0	2.5	/experiments/knapen_aot/videos/S_yt-wrfAMDCg93Y_8.mp4	0.0	300.39758586883545	0.09998822212219238
71	223.7903950214386	fix_pre	0		50.0	69.0	2.5	blank	1.0	300.49757409095764	0.41664695739746094
71	224.19877791404724	response	0	2		69.0	2.5	blank	1.0	300.9059569835663	
71	224.20704197883606	movie	1		301.0	69.0	2.5	blank	1.0	300.9142210483551	2.508452892303467
71	226.71549487113953	fix_post	2		12.0	69.0	2.5	blank	1.0	303.42267394065857	0.09991908073425293
72	226.81541395187378	fix_pre	0		23.0	70.0	2.5	/experiments/knapen_aot/videos/R_S_yt-zhQ32_OayBQ_39.mp4	0.0	303.5225930213928	0.1915910243988037
72	226.9988498687744	response	0	2		70.0	2.5	/experiments/knapen_aot/videos/R_S_yt-zhQ32_OayBQ_39.mp4	0.0	303.70602893829346	
72	227.00700497627258	movie	1		301.0	70.0	2.5	/experiments/knapen_aot/videos/R_S_yt-zhQ32_OayBQ_39.mp4	0.0	303.7141840457916	2.508401870727539
72	229.51540684700012	fix_post	2		12.0	70.0	2.5	/experiments/knapen_aot/videos/R_S_yt-zhQ32_OayBQ_39.mp4	0.0	306.22258591651917	0.09999418258666992
73	229.6154010295868	fix_pre	0		18.0	71.0	2.5	/experiments/knapen_aot/videos/S_yt-nQu-PAXBv2g_5.mp4	0.0	306.32258009910583	0.14989686012268066
73	229.75713086128235	response	0	2		71.0	2.5	/experiments/knapen_aot/videos/S_yt-nQu-PAXBv2g_5.mp4	0.0	306.4643099308014	
73	229.76529788970947	movie	1		301.0	71.0	2.5	/experiments/knapen_aot/videos/S_yt-nQu-PAXBv2g_5.mp4	0.0	306.4724769592285	2.5084280967712402
73	232.2737259864807	fix_post	2		12.0	71.0	2.5	/experiments/knapen_aot/videos/S_yt-nQu-PAXBv2g_5.mp4	0.0	308.98090505599976	0.10000395774841309
74	232.37372994422913	fix_pre	0		10.0	72.0	2.5	/experiments/knapen_aot/videos/R_S_ILSVRC2015_train_00518001.mp4	0.0	309.08090901374817	0.0832669734954834
74	232.44884991645813	response	0	2		72.0	2.5	/experiments/knapen_aot/videos/R_S_ILSVRC2015_train_00518001.mp4	0.0	309.1560289859772	
74	232.4569969177246	movie	1		301.0	72.0	2.5	/experiments/knapen_aot/videos/R_S_ILSVRC2015_train_00518001.mp4	0.0	309.16417598724365	2.50846791267395
74	234.96546483039856	fix_post	2		12.0	72.0	2.5	/experiments/knapen_aot/videos/R_S_ILSVRC2015_train_00518001.mp4	0.0	311.6726438999176	0.09994316101074219
75	235.0654079914093	fix_pre	0		20.0	73.0	2.5	/experiments/knapen_aot/videos/R_S_yt-kINZMjys3O4_112.mp4	0.0	311.77258706092834	0.16659784317016602
75	235.2237548828125	response	0	2		73.0	2.5	/experiments/knapen_aot/videos/R_S_yt-kINZMjys3O4_112.mp4	0.0	311.93093395233154	
75	235.23200583457947	movie	1		301.0	73.0	2.5	/experiments/knapen_aot/videos/R_S_yt-kINZMjys3O4_112.mp4	0.0	311.9391849040985	2.5083930492401123
75	237.74039888381958	fix_post	2		12.0	73.0	2.5	/experiments/knapen_aot/videos/R_S_yt-kINZMjys3O4_112.mp4	0.0	314.4475779533386	0.0999910831451416
76	237.84038996696472	fix_pre	0		35.0	74.0	2.5	/experiments/knapen_aot/videos/R_S_yt-lkpfs_4qAGE_50.mp4	0.0	314.54756903648376	0.29160189628601074
76	238.12371683120728	response	0	2		74.0	2.5	/experiments/knapen_aot/videos/R_S_yt-lkpfs_4qAGE_50.mp4	0.0	314.8308959007263	
76	238.13199186325073	movie	1		301.0	74.0	2.5	/experiments/knapen_aot/videos/R_S_yt-lkpfs_4qAGE_50.mp4	0.0	314.8391709327698	2.5083839893341064
76	240.64037585258484	fix_post	2		12.0	74.0	2.5	/experiments/knapen_aot/videos/R_S_yt-lkpfs_4qAGE_50.mp4	0.0	317.3475549221039	0.09991598129272461
77	240.74029183387756	fix_pre	0		178.0	75.0	2.5	/experiments/knapen_aot/videos/R_S_yt-TxU1H5A6BaQ_52.mp4	0.0	317.4474709033966	1.4832890033721924
77	242.21547889709473	response	0	2		75.0	2.5	/experiments/knapen_aot/videos/R_S_yt-TxU1H5A6BaQ_52.mp4	0.0	318.92265796661377	
77	242.22358083724976	movie	1		301.0	75.0	2.5	/experiments/knapen_aot/videos/R_S_yt-TxU1H5A6BaQ_52.mp4	0.0	318.9307599067688	2.508424997329712
77	244.73200583457947	fix_post	2		12.0	75.0	2.5	/experiments/knapen_aot/videos/R_S_yt-TxU1H5A6BaQ_52.mp4	0.0	321.4391849040985	0.09998416900634766
78	244.83199000358582	fix_pre	0		14.0	76.0	2.5	/experiments/knapen_aot/videos/S_ILSVRC2015_train_00551000.mp4	0.0	321.53916907310486	0.11660599708557129
78	244.94042897224426	response	0	2		76.0	2.5	/experiments/knapen_aot/videos/S_ILSVRC2015_train_00551000.mp4	0.0	321.6476080417633	
78	244.9485960006714	movie	1		301.0	76.0	2.5	/experiments/knapen_aot/videos/S_ILSVRC2015_train_00551000.mp4	0.0	321.65577507019043	2.508382797241211
78	247.4569787979126	fix_post	2		12.0	76.0	2.5	/experiments/knapen_aot/videos/S_ILSVRC2015_train_00551000.mp4	0.0	324.16415786743164	0.09997200965881348
79	247.5569508075714	fix_pre	0		9.0	77.0	2.5	blank	1.0	324.26412987709045	0.07497620582580566
79	247.6237668991089	response	0	2		77.0	2.5	blank	1.0	324.33094596862793	
79	247.63192701339722	movie	1		301.0	77.0	2.5	blank	1.0	324.33910608291626	2.5083348751068115
79	250.14026188850403	fix_post	2		12.0	77.0	2.5	blank	1.0	326.84744095802307	0.100067138671875
80	250.2403290271759	fix_pre	0		442.0	78.0	2.5	/experiments/knapen_aot/videos/R_S_ILSVRC2015_train_00469000.mp4	0.0	326.94750809669495	3.683377981185913
80	253.91541290283203	response	0	2		78.0	2.5	/experiments/knapen_aot/videos/R_S_ILSVRC2015_train_00469000.mp4	0.0	330.6225919723511	
80	253.92370700836182	movie	1		301.0	78.0	2.5	/experiments/knapen_aot/videos/R_S_ILSVRC2015_train_00469000.mp4	0.0	330.63088607788086	2.508262872695923
80	256.43196988105774	fix_post	2		12.0	78.0	2.5	/experiments/knapen_aot/videos/R_S_ILSVRC2015_train_00469000.mp4	0.0	333.1391489505768	0.09995603561401367
81	256.53192591667175	fix_pre	0		138.0	79.0	2.5	/experiments/knapen_aot/videos/S_yt-HRuCkU_kBoE_239.mp4	0.0	333.2391049861908	1.1499741077423096
81	257.6737108230591	response	0	2		79.0	2.5	/experiments/knapen_aot/videos/S_yt-HRuCkU_kBoE_239.mp4	0.0	334.3808898925781	
81	257.68190002441406	movie	1		301.0	79.0	2.5	/experiments/knapen_aot/videos/S_yt-HRuCkU_kBoE_239.mp4	0.0	334.3890790939331	2.5084168910980225
81	260.1903169155121	fix_post	2		12.0	79.0	2.5	/experiments/knapen_aot/videos/S_yt-HRuCkU_kBoE_239.mp4	0.0	336.8974959850311	0.10006308555603027
82	260.2903800010681	fix_pre	0		39.0	80.0	2.5	/experiments/knapen_aot/videos/S_flickr-reginahart-31964450591_23.mp4	0.0	336.99755907058716	0.3248419761657715
82	260.6070330142975	response	0	2		80.0	2.5	/experiments/knapen_aot/videos/S_flickr-reginahart-31964450591_23.mp4	0.0	337.3142120838165	
82	260.6152219772339	movie	1		169.0	80.0	2.5	/experiments/knapen_aot/videos/S_flickr-reginahart-31964450591_23.mp4	0.0	337.32240104675293	2.5083298683166504
82	263.12355184555054	fix_post	2		12.0	80.0	2.5	/experiments/knapen_aot/videos/S_flickr-reginahart-31964450591_23.mp4	0.0	339.8307309150696	0.10007095336914062
83	263.2236227989197	fix_pre	0		41.0	81.0	2.5	/experiments/knapen_aot/videos/S_yt-7VVzNnp36DM_62.mp4	0.0	339.9308018684387	0.3415961265563965
83	263.55703592300415	response	0	2		81.0	2.5	/experiments/knapen_aot/videos/S_yt-7VVzNnp36DM_62.mp4	0.0	340.2642149925232	
83	263.5652189254761	movie	1		301.0	81.0	2.5	/experiments/knapen_aot/videos/S_yt-7VVzNnp36DM_62.mp4	0.0	340.2723979949951	2.508378028869629
83	266.0735969543457	fix_post	2		12.0	81.0	2.5	/experiments/knapen_aot/videos/S_yt-7VVzNnp36DM_62.mp4	0.0	342.78077602386475	0.10008788108825684
84	266.17368483543396	fix_pre	0		18.0	82.0	2.5	blank	1.0	342.880863904953	0.14981818199157715
84	266.31528091430664	response	0	2		82.0	2.5	blank	1.0	343.0224599838257	
84	266.32350301742554	movie	1		301.0	82.0	2.5	blank	1.0	343.0306820869446	2.5086469650268555
84	268.8321499824524	fix_post	2		12.0	82.0	2.5	blank	1.0	345.53932905197144	0.09975886344909668
85	268.9319088459015	fix_pre	0		84.0	83.0	2.5	/experiments/knapen_aot/videos/S_ILSVRC2015_train_00638001.mp4	0.0	345.63908791542053	0.6998679637908936
85	269.6161048412323	response	0	2		83.0	2.5	/experiments/knapen_aot/videos/S_ILSVRC2015_train_00638001.mp4	0.0	346.32328391075134	
85	269.6317768096924	movie	1		301.0	83.0	2.5	/experiments/knapen_aot/videos/S_ILSVRC2015_train_00638001.mp4	0.0	346.3389558792114	2.5084471702575684
85	272.14022397994995	fix_post	2		12.0	83.0	2.5	/experiments/knapen_aot/videos/S_ILSVRC2015_train_00638001.mp4	0.0	348.847403049469	0.10001182556152344
87	272.2402358055115	stim	0		829.0					348.9474148750305	6.908225059509277
87	272.3663079738617	response	0	2						349.07348704338074	
87	273.3069670200348	response	0	2						350.01414608955383	
87	274.0485649108887	response	0	2						350.7557439804077	
87	274.7319610118866	response	0	2						351.43914008140564	
87	274.9569180011749	response	0	2						351.66409707069397	
87	276.9746778011322	response	0	2						353.68185687065125	
87	278.9985558986664	response	0	2						355.7057349681854	
87	279.14321780204773	response	0	space						355.8503968715668	
