trial_nr	onset	event_type	phase	response	nr_frames	movie_index	movie_duration	movie_file	blank	onset_abs	duration
0	0.1582319736480713	stim	0		40.0					107.67721390724182	0.3335568904876709
0	0.48361897468566895	response	0	space						108.00260090827942	
1	0.4917888641357422	stim	0		121.0					108.01077079772949	1.00819993019104
1	1.4999887943267822	stim	1		120.0					109.01897072792053	0.9996111392974854
1	2.1755290031433105	response	1	space						109.69451093673706	
2	2.4995999336242676	fix_pre	0		29.0	0.0	2.5	/experiments/knapen_aot/videos/R_S_ILSVRC2015_train_00595000.mp4	0.0	110.01858186721802	0.2416679859161377
2	2.733139991760254	response	0	space		0.0	2.5	/experiments/knapen_aot/videos/R_S_ILSVRC2015_train_00595000.mp4	0.0	110.252121925354	
2	2.7412679195404053	movie	1		300.0	0.0	2.5	/experiments/knapen_aot/videos/R_S_ILSVRC2015_train_00595000.mp4	0.0	110.26024985313416	2.5083119869232178
2	5.249579906463623	fix_post	2		12.0	0.0	2.5	/experiments/knapen_aot/videos/R_S_ILSVRC2015_train_00595000.mp4	0.0	112.76856184005737	0.10016202926635742
3	5.3497419357299805	fix_pre	0		53.0	1.0	2.5	/experiments/knapen_aot/videos/S_video_inspire_nevada_lasvegas_northstrip_021.1080-h264.mp4	0.0	112.86872386932373	0.44579505920410156
3	5.787834882736206	response	0	2		1.0	2.5	/experiments/knapen_aot/videos/S_video_inspire_nevada_lasvegas_northstrip_021.1080-h264.mp4	0.0	113.30681681632996	
3	5.795536994934082	movie	1		172.0	1.0	2.5	/experiments/knapen_aot/videos/S_video_inspire_nevada_lasvegas_northstrip_021.1080-h264.mp4	0.0	113.31451892852783	2.504063844680786
3	8.299600839614868	fix_post	2		12.0	1.0	2.5	/experiments/knapen_aot/videos/S_video_inspire_nevada_lasvegas_northstrip_021.1080-h264.mp4	0.0	115.81858277320862	0.1000661849975586
4	8.399667024612427	fix_pre	0		12.0	2.0	2.5	/experiments/knapen_aot/videos/R_S_yt-JGKdBO2Ldzo_93.mp4	0.0	115.91864895820618	0.09994387626647949
4	8.491325855255127	response	0	2		2.0	2.5	/experiments/knapen_aot/videos/R_S_yt-JGKdBO2Ldzo_93.mp4	0.0	116.01030778884888	
4	8.499610900878906	movie	1		301.0	2.0	2.5	/experiments/knapen_aot/videos/R_S_yt-JGKdBO2Ldzo_93.mp4	0.0	116.01859283447266	2.5082900524139404
4	11.007900953292847	fix_post	2		12.0	2.0	2.5	/experiments/knapen_aot/videos/R_S_yt-JGKdBO2Ldzo_93.mp4	0.0	118.5268828868866	0.10010194778442383
5	11.10800290107727	fix_pre	0		3.0	3.0	2.5	/experiments/knapen_aot/videos/R_S_yt-rlVzHENWufE_61.mp4	0.0	118.62698483467102	0.02492809295654297
5	11.124722003936768	response	0	2		3.0	2.5	/experiments/knapen_aot/videos/R_S_yt-rlVzHENWufE_61.mp4	0.0	118.64370393753052	
5	11.132930994033813	movie	1		301.0	3.0	2.5	/experiments/knapen_aot/videos/R_S_yt-rlVzHENWufE_61.mp4	0.0	118.65191292762756	2.508270025253296
5	13.64120101928711	fix_post	2		12.0	3.0	2.5	/experiments/knapen_aot/videos/R_S_yt-rlVzHENWufE_61.mp4	0.0	121.16018295288086	0.10002899169921875
6	13.741230010986328	fix_pre	0		5.0	4.0	2.5	/experiments/knapen_aot/videos/R_S_production_ID_5049072.mp4	0.0	121.26021194458008	0.041699886322021484
6	13.774858951568604	response	0	2		4.0	2.5	/experiments/knapen_aot/videos/R_S_production_ID_5049072.mp4	0.0	121.29384088516235	
6	13.78292989730835	movie	1		168.0	4.0	2.5	/experiments/knapen_aot/videos/R_S_production_ID_5049072.mp4	0.0	121.3019118309021	2.5083699226379395
6	16.29129981994629	fix_post	2		12.0	4.0	2.5	/experiments/knapen_aot/videos/R_S_production_ID_5049072.mp4	0.0	123.81028175354004	0.09994006156921387
7	16.391239881515503	fix_pre	0		8.0	5.0	2.5	/experiments/knapen_aot/videos/R_S_Pexels_Videos_2795731.mp4	0.0	123.91022181510925	0.06675291061401367
7	16.449978828430176	response	0	2		5.0	2.5	/experiments/knapen_aot/videos/R_S_Pexels_Videos_2795731.mp4	0.0	123.96896076202393	
7	16.457992792129517	movie	1		164.0	5.0	2.5	/experiments/knapen_aot/videos/R_S_Pexels_Videos_2795731.mp4	0.0	123.97697472572327	2.508226156234741
7	18.966218948364258	fix_post	2		12.0	5.0	2.5	/experiments/knapen_aot/videos/R_S_Pexels_Videos_2795731.mp4	0.0	126.48520088195801	0.1000220775604248
8	19.066241025924683	fix_pre	0		15.0	6.0	2.5	blank	1.0	126.58522295951843	0.12502193450927734
8	19.183000802993774	response	0	2		6.0	2.5	blank	1.0	126.70198273658752	
8	19.19126296043396	movie	1		301.0	6.0	2.5	blank	1.0	126.71024489402771	2.5082738399505615
8	21.69953680038452	fix_post	2		12.0	6.0	2.5	blank	1.0	129.21851873397827	0.09989809989929199
9	21.799434900283813	fix_pre	0		16.0	7.0	2.5	/experiments/knapen_aot/videos/R_S_production_ID_4997166.mp4	0.0	129.31841683387756	0.13344097137451172
9	21.924654006958008	response	0	2		7.0	2.5	/experiments/knapen_aot/videos/R_S_production_ID_4997166.mp4	0.0	129.44363594055176	
9	21.932875871658325	movie	1		171.0	7.0	2.5	/experiments/knapen_aot/videos/R_S_production_ID_4997166.mp4	0.0	129.45185780525208	2.5083470344543457
9	24.44122290611267	fix_post	2		12.0	7.0	2.5	/experiments/knapen_aot/videos/R_S_production_ID_4997166.mp4	0.0	131.96020483970642	0.09997391700744629
10	24.541196823120117	fix_pre	0		7.0	8.0	2.5	/experiments/knapen_aot/videos/S_wc-Mf8SQpviaD6D_17.mp4	0.0	132.06017875671387	0.059737205505371094
10	24.591502904891968	response	0	2		8.0	2.5	/experiments/knapen_aot/videos/S_wc-Mf8SQpviaD6D_17.mp4	0.0	132.11048483848572	
10	24.60093402862549	movie	1		169.0	8.0	2.5	/experiments/knapen_aot/videos/S_wc-Mf8SQpviaD6D_17.mp4	0.0	132.11991596221924	2.506995916366577
10	27.107929944992065	fix_post	2		12.0	8.0	2.5	/experiments/knapen_aot/videos/S_wc-Mf8SQpviaD6D_17.mp4	0.0	134.62691187858582	0.09996891021728516
11	27.20789885520935	fix_pre	0		12.0	9.0	2.5	/experiments/knapen_aot/videos/R_S_yt-kiEFK7bDssE_14.mp4	0.0	134.7268807888031	0.10135197639465332
11	27.29973602294922	response	0	2		9.0	2.5	/experiments/knapen_aot/videos/R_S_yt-kiEFK7bDssE_14.mp4	0.0	134.81871795654297	
11	27.309250831604004	movie	1		301.0	9.0	2.5	/experiments/knapen_aot/videos/R_S_yt-kiEFK7bDssE_14.mp4	0.0	134.82823276519775	2.5069739818573
11	29.816224813461304	fix_post	2		12.0	9.0	2.5	/experiments/knapen_aot/videos/R_S_yt-kiEFK7bDssE_14.mp4	0.0	137.33520674705505	0.10000205039978027
12	29.916226863861084	fix_pre	0		24.0	10.0	2.5	/experiments/knapen_aot/videos/R_S_yt-31WwM4UgsVI_322.mp4	0.0	137.43520879745483	0.1999809741973877
12	30.108030796051025	response	0	2		10.0	2.5	/experiments/knapen_aot/videos/R_S_yt-31WwM4UgsVI_322.mp4	0.0	137.62701272964478	
12	30.11620783805847	movie	1		301.0	10.0	2.5	/experiments/knapen_aot/videos/R_S_yt-31WwM4UgsVI_322.mp4	0.0	137.63518977165222	2.5083670616149902
12	32.62457489967346	fix_post	2		12.0	10.0	2.5	/experiments/knapen_aot/videos/R_S_yt-31WwM4UgsVI_322.mp4	0.0	140.1435568332672	0.09993195533752441
13	32.724506855010986	fix_pre	0		24.0	11.0	2.5	/experiments/knapen_aot/videos/S_g201_AK_A003_C014_SDR_20191113_SDR_2K_AVC.mp4	0.0	140.24348878860474	0.1999809741973877
13	32.916361808776855	response	0	2		11.0	2.5	/experiments/knapen_aot/videos/S_g201_AK_A003_C014_SDR_20191113_SDR_2K_AVC.mp4	0.0	140.4353437423706	
13	32.924487829208374	movie	1		165.0	11.0	2.5	/experiments/knapen_aot/videos/S_g201_AK_A003_C014_SDR_20191113_SDR_2K_AVC.mp4	0.0	140.44346976280212	2.5084049701690674
13	35.43289279937744	fix_post	2		12.0	11.0	2.5	/experiments/knapen_aot/videos/S_g201_AK_A003_C014_SDR_20191113_SDR_2K_AVC.mp4	0.0	142.9518747329712	0.09998822212219238
14	35.532881021499634	fix_pre	0		30.0	12.0	2.5	blank	1.0	143.05186295509338	0.24999785423278809
14	35.77465581893921	response	0	2		12.0	2.5	blank	1.0	143.29363775253296	
14	35.78287887573242	movie	1		301.0	12.0	2.5	blank	1.0	143.30186080932617	2.5083091259002686
14	38.29118800163269	fix_post	2		12.0	12.0	2.5	blank	1.0	145.81016993522644	0.09995293617248535
15	38.391140937805176	fix_pre	0		30.0	13.0	2.5	/experiments/knapen_aot/videos/R_S_comp_A007_C017_01156B_v02_SDR_PS_20180925_SDR_2K_AVC.mp4	0.0	145.91012287139893	0.2513549327850342
15	38.63300180435181	response	0	2		13.0	2.5	/experiments/knapen_aot/videos/R_S_comp_A007_C017_01156B_v02_SDR_PS_20180925_SDR_2K_AVC.mp4	0.0	146.15198373794556	
15	38.64249587059021	movie	1		168.0	13.0	2.5	/experiments/knapen_aot/videos/R_S_comp_A007_C017_01156B_v02_SDR_PS_20180925_SDR_2K_AVC.mp4	0.0	146.16147780418396	2.5070080757141113
15	41.14950394630432	fix_post	2		12.0	13.0	2.5	/experiments/knapen_aot/videos/R_S_comp_A007_C017_01156B_v02_SDR_PS_20180925_SDR_2K_AVC.mp4	0.0	148.66848587989807	0.0999748706817627
16	41.249478816986084	fix_pre	0		12.0	14.0	2.5	/experiments/knapen_aot/videos/S_yt-PK-Eip9wFr0_24.mp4	0.0	148.76846075057983	0.1000070571899414
16	41.34123682975769	response	0	2		14.0	2.5	/experiments/knapen_aot/videos/S_yt-PK-Eip9wFr0_24.mp4	0.0	148.86021876335144	
16	41.349485874176025	movie	1		301.0	14.0	2.5	/experiments/knapen_aot/videos/S_yt-PK-Eip9wFr0_24.mp4	0.0	148.86846780776978	2.508371114730835
16	43.85785698890686	fix_post	2		12.0	14.0	2.5	/experiments/knapen_aot/videos/S_yt-PK-Eip9wFr0_24.mp4	0.0	151.3768389225006	0.09996294975280762
17	43.95781993865967	fix_pre	0		6.0	15.0	2.5	/experiments/knapen_aot/videos/R_S_pexels-c-technical-5771610.mp4	0.0	151.47680187225342	0.050000905990600586
17	43.99966382980347	response	0	2		15.0	2.5	/experiments/knapen_aot/videos/R_S_pexels-c-technical-5771610.mp4	0.0	151.51864576339722	
17	44.00782084465027	movie	1		207.0	15.0	2.5	/experiments/knapen_aot/videos/R_S_pexels-c-technical-5771610.mp4	0.0	151.52680277824402	2.508368968963623
17	46.51618981361389	fix_post	2		12.0	15.0	2.5	/experiments/knapen_aot/videos/R_S_pexels-c-technical-5771610.mp4	0.0	154.03517174720764	0.09992313385009766
18	46.61611294746399	fix_pre	0		27.0	16.0	2.5	/experiments/knapen_aot/videos/S_yt-JGKdBO2Ldzo_93.mp4	0.0	154.13509488105774	0.22501802444458008
18	46.832971811294556	response	0	2		16.0	2.5	/experiments/knapen_aot/videos/S_yt-JGKdBO2Ldzo_93.mp4	0.0	154.3519537448883	
18	46.84113097190857	movie	1		301.0	16.0	2.5	/experiments/knapen_aot/videos/S_yt-JGKdBO2Ldzo_93.mp4	0.0	154.36011290550232	2.5084128379821777
18	49.34954380989075	fix_post	2		12.0	16.0	2.5	/experiments/knapen_aot/videos/S_yt-JGKdBO2Ldzo_93.mp4	0.0	156.8685257434845	0.09993600845336914
19	49.449479818344116	fix_pre	0		28.0	17.0	2.5	/experiments/knapen_aot/videos/S__6qAy77ODUI_175.mp4	0.0	156.96846175193787	0.2345750331878662
19	49.6745970249176	response	0	2		17.0	2.5	/experiments/knapen_aot/videos/S__6qAy77ODUI_175.mp4	0.0	157.19357895851135	
19	49.68405485153198	movie	1		301.0	17.0	2.5	/experiments/knapen_aot/videos/S__6qAy77ODUI_175.mp4	0.0	157.20303678512573	2.5070149898529053
19	52.19106984138489	fix_post	2		12.0	17.0	2.5	/experiments/knapen_aot/videos/S__6qAy77ODUI_175.mp4	0.0	159.71005177497864	0.10004901885986328
20	52.29111886024475	fix_pre	0		19.0	18.0	2.5	/experiments/knapen_aot/videos/R_S_yt-giRwl4yChlw_9.mp4	0.0	159.8101007938385	0.15827703475952148
20	52.44124102592468	response	0	2		18.0	2.5	/experiments/knapen_aot/videos/R_S_yt-giRwl4yChlw_9.mp4	0.0	159.96022295951843	
20	52.44939589500427	movie	1		301.0	18.0	2.5	/experiments/knapen_aot/videos/R_S_yt-giRwl4yChlw_9.mp4	0.0	159.96837782859802	2.508358955383301
20	54.95775485038757	fix_post	2		12.0	18.0	2.5	/experiments/knapen_aot/videos/R_S_yt-giRwl4yChlw_9.mp4	0.0	162.47673678398132	0.09995198249816895
21	55.05770683288574	fix_pre	0		58.0	19.0	2.5	/experiments/knapen_aot/videos/S_Pexels_Videos_2795731.mp4	0.0	162.5766887664795	0.4833180904388428
21	55.53288984298706	response	0	2		19.0	2.5	/experiments/knapen_aot/videos/S_Pexels_Videos_2795731.mp4	0.0	163.0518717765808	
21	55.541024923324585	movie	1		162.0	19.0	2.5	/experiments/knapen_aot/videos/S_Pexels_Videos_2795731.mp4	0.0	163.06000685691833	2.5084331035614014
21	58.049458026885986	fix_post	2		12.0	19.0	2.5	/experiments/knapen_aot/videos/S_Pexels_Videos_2795731.mp4	0.0	165.56843996047974	0.09992098808288574
22	58.14937901496887	fix_pre	0		36.0	20.0	2.5	blank	1.0	165.66836094856262	0.30002498626708984
22	58.441213846206665	response	0	2		20.0	2.5	blank	1.0	165.96019577980042	
22	58.44940400123596	movie	1		301.0	20.0	2.5	blank	1.0	165.9683859348297	2.5082738399505615
22	60.95767784118652	fix_post	2		12.0	20.0	2.5	blank	1.0	168.47665977478027	0.10124015808105469
23	61.05891799926758	fix_pre	0		25.0	21.0	2.5	/experiments/knapen_aot/videos/R_S_yt-UmLeGNcqouI_718.mp4	0.0	168.57789993286133	0.20830702781677246
23	61.25775599479675	response	0	2		21.0	2.5	/experiments/knapen_aot/videos/R_S_yt-UmLeGNcqouI_718.mp4	0.0	168.7767379283905	
23	61.26722502708435	movie	1		301.0	21.0	2.5	/experiments/knapen_aot/videos/R_S_yt-UmLeGNcqouI_718.mp4	0.0	168.7862069606781	2.5071449279785156
23	63.774369955062866	fix_post	2		12.0	21.0	2.5	/experiments/knapen_aot/videos/R_S_yt-UmLeGNcqouI_718.mp4	0.0	171.29335188865662	0.10001802444458008
24	63.874387979507446	fix_pre	0		17.0	22.0	2.5	/experiments/knapen_aot/videos/R_S_wc-ZZxbTv7oc5DQ_10.mp4	0.0	171.3933699131012	0.14163684844970703
24	64.00032591819763	response	0	2		22.0	2.5	/experiments/knapen_aot/videos/R_S_wc-ZZxbTv7oc5DQ_10.mp4	0.0	171.51930785179138	
24	64.01602482795715	movie	1		166.0	22.0	2.5	/experiments/knapen_aot/videos/R_S_wc-ZZxbTv7oc5DQ_10.mp4	0.0	171.5350067615509	2.508355140686035
24	66.52437996864319	fix_post	2		12.0	22.0	2.5	/experiments/knapen_aot/videos/R_S_wc-ZZxbTv7oc5DQ_10.mp4	0.0	174.04336190223694	0.09992694854736328
25	66.62430691719055	fix_pre	0		62.0	23.0	2.5	/experiments/knapen_aot/videos/S_yt-7W50lcw5FCo_37.mp4	0.0	174.1432888507843	0.5178449153900146
25	67.12519693374634	response	0	2		23.0	2.5	/experiments/knapen_aot/videos/S_yt-7W50lcw5FCo_37.mp4	0.0	174.6441788673401	
25	67.14215183258057	movie	1		301.0	23.0	2.5	/experiments/knapen_aot/videos/S_yt-7W50lcw5FCo_37.mp4	0.0	174.66113376617432	2.5072271823883057
25	69.64937901496887	fix_post	2		12.0	23.0	2.5	/experiments/knapen_aot/videos/S_yt-7W50lcw5FCo_37.mp4	0.0	177.16836094856262	0.09999680519104004
26	69.74937582015991	fix_pre	0		19.0	24.0	2.5	/experiments/knapen_aot/videos/S_yt-1UFhynm5g6Y_266.mp4	0.0	177.26835775375366	0.15832901000976562
26	69.8994619846344	response	0	2		24.0	2.5	/experiments/knapen_aot/videos/S_yt-1UFhynm5g6Y_266.mp4	0.0	177.41844391822815	
26	69.90770483016968	movie	1		301.0	24.0	2.5	/experiments/knapen_aot/videos/S_yt-1UFhynm5g6Y_266.mp4	0.0	177.42668676376343	2.5082809925079346
26	72.41598582267761	fix_post	2		12.0	24.0	2.5	/experiments/knapen_aot/videos/S_yt-1UFhynm5g6Y_266.mp4	0.0	179.93496775627136	0.09999299049377441
27	72.51597881317139	fix_pre	0		26.0	25.0	2.5	/experiments/knapen_aot/videos/S_yt-P001x88adE4_427.mp4	0.0	180.03496074676514	0.21663713455200195
27	72.72446894645691	response	0	2		25.0	2.5	/experiments/knapen_aot/videos/S_yt-P001x88adE4_427.mp4	0.0	180.24345088005066	
27	72.73261594772339	movie	1		301.0	25.0	2.5	/experiments/knapen_aot/videos/S_yt-P001x88adE4_427.mp4	0.0	180.25159788131714	2.508310079574585
27	75.24092602729797	fix_post	2		12.0	25.0	2.5	/experiments/knapen_aot/videos/S_yt-P001x88adE4_427.mp4	0.0	182.75990796089172	0.10004186630249023
28	75.34096789360046	fix_pre	0		22.0	26.0	2.5	blank	1.0	182.8599498271942	0.18333697319030762
28	75.50881791114807	response	0	2		26.0	2.5	blank	1.0	183.02779984474182	
28	75.52430486679077	movie	1		301.0	26.0	2.5	blank	1.0	183.04328680038452	2.5082790851593018
28	77.59943199157715	response	1	2		26.0	2.5	blank	1.0	185.1184139251709	
28	78.03258395195007	fix_post	2		12.0	26.0	2.5	blank	1.0	185.55156588554382	0.09994697570800781
29	78.13253092765808	fix_pre	0		22.0	27.0	2.5	/experiments/knapen_aot/videos/S_yt-cBCeq1NQgj0_1129.mp4	0.0	185.65151286125183	0.18342208862304688
29	78.30773401260376	response	0	2		27.0	2.5	/experiments/knapen_aot/videos/S_yt-cBCeq1NQgj0_1129.mp4	0.0	185.8267159461975	
29	78.31595301628113	movie	1		301.0	27.0	2.5	/experiments/knapen_aot/videos/S_yt-cBCeq1NQgj0_1129.mp4	0.0	185.83493494987488	2.50833797454834
29	80.82429099082947	fix_post	2		12.0	27.0	2.5	/experiments/knapen_aot/videos/S_yt-cBCeq1NQgj0_1129.mp4	0.0	188.34327292442322	0.09998488426208496
30	80.92427587509155	fix_pre	0		25.0	28.0	2.5	/experiments/knapen_aot/videos/S_yt-2i53vKte7SA_117.mp4	0.0	188.4432578086853	0.20834803581237793
30	81.12443685531616	response	0	2		28.0	2.5	/experiments/knapen_aot/videos/S_yt-2i53vKte7SA_117.mp4	0.0	188.6434187889099	
30	81.13262391090393	movie	1		300.0	28.0	2.5	/experiments/knapen_aot/videos/S_yt-2i53vKte7SA_117.mp4	0.0	188.65160584449768	2.508452892303467
30	83.6410768032074	fix_post	2		12.0	28.0	2.5	/experiments/knapen_aot/videos/S_yt-2i53vKte7SA_117.mp4	0.0	191.16005873680115	0.09999608993530273
31	83.7410728931427	fix_pre	0		28.0	29.0	2.5	/experiments/knapen_aot/videos/S_G009_C014_UHD_SDR_2K_AVC.mp4	0.0	191.26005482673645	0.23440790176391602
31	83.966068983078	response	0	2		29.0	2.5	/experiments/knapen_aot/videos/S_G009_C014_UHD_SDR_2K_AVC.mp4	0.0	191.48505091667175	
31	83.97548079490662	movie	1		175.0	29.0	2.5	/experiments/knapen_aot/videos/S_G009_C014_UHD_SDR_2K_AVC.mp4	0.0	191.49446272850037	2.5071921348571777
31	86.4826729297638	fix_post	2		12.0	29.0	2.5	/experiments/knapen_aot/videos/S_G009_C014_UHD_SDR_2K_AVC.mp4	0.0	194.00165486335754	0.1000208854675293
32	86.58269381523132	fix_pre	0		38.0	30.0	2.5	/experiments/knapen_aot/videos/S_yt-eczLsCTIyn0_553.mp4	0.0	194.10167574882507	0.3166160583496094
32	86.89104080200195	response	0	2		30.0	2.5	/experiments/knapen_aot/videos/S_yt-eczLsCTIyn0_553.mp4	0.0	194.4100227355957	
32	86.89930987358093	movie	1		298.0	30.0	2.5	/experiments/knapen_aot/videos/S_yt-eczLsCTIyn0_553.mp4	0.0	194.41829180717468	2.5083420276641846
32	89.40765190124512	fix_post	2		12.0	30.0	2.5	/experiments/knapen_aot/videos/S_yt-eczLsCTIyn0_553.mp4	0.0	196.92663383483887	0.09994292259216309
33	89.50759482383728	fix_pre	0		40.0	31.0	2.5	/experiments/knapen_aot/videos/S_yt-qsyDLtXcyHc_8.mp4	0.0	197.02657675743103	0.3333141803741455
33	89.83273887634277	response	0	2		31.0	2.5	/experiments/knapen_aot/videos/S_yt-qsyDLtXcyHc_8.mp4	0.0	197.35172080993652	
33	89.84090900421143	movie	1		301.0	31.0	2.5	/experiments/knapen_aot/videos/S_yt-qsyDLtXcyHc_8.mp4	0.0	197.35989093780518	2.508356809616089
33	92.34926581382751	fix_post	2		12.0	31.0	2.5	/experiments/knapen_aot/videos/S_yt-qsyDLtXcyHc_8.mp4	0.0	199.86824774742126	0.09998106956481934
34	92.44924688339233	fix_pre	0		16.0	32.0	2.5	/experiments/knapen_aot/videos/R_S_yt-jcuaf9iSEkI_169.mp4	0.0	199.96822881698608	0.13334012031555176
34	92.57434892654419	response	0	2		32.0	2.5	/experiments/knapen_aot/videos/R_S_yt-jcuaf9iSEkI_169.mp4	0.0	200.09333086013794	
34	92.58258700370789	movie	1		299.0	32.0	2.5	/experiments/knapen_aot/videos/R_S_yt-jcuaf9iSEkI_169.mp4	0.0	200.10156893730164	2.508279800415039
34	95.09086680412292	fix_post	2		12.0	32.0	2.5	/experiments/knapen_aot/videos/R_S_yt-jcuaf9iSEkI_169.mp4	0.0	202.60984873771667	0.09999299049377441
35	95.1908597946167	fix_pre	0		26.0	33.0	2.5	blank	1.0	202.70984172821045	0.21669220924377441
35	95.39935684204102	response	0	2		33.0	2.5	blank	1.0	202.91833877563477	
35	95.40755200386047	movie	1		301.0	33.0	2.5	blank	1.0	202.92653393745422	2.508347988128662
35	97.91589999198914	fix_post	2		12.0	33.0	2.5	blank	1.0	205.43488192558289	0.09993696212768555
36	98.01583695411682	fix_pre	0		25.0	34.0	2.5	/experiments/knapen_aot/videos/R_S_pexels-c-technical-5771610.mp4	0.0	205.53481888771057	0.20940303802490234
36	98.21599984169006	response	0	2		34.0	2.5	/experiments/knapen_aot/videos/R_S_pexels-c-technical-5771610.mp4	0.0	205.7349817752838	
36	98.22523999214172	movie	1		190.0	34.0	2.5	/experiments/knapen_aot/videos/R_S_pexels-c-technical-5771610.mp4	0.0	205.74422192573547	2.507256031036377
36	100.7324960231781	fix_post	2		12.0	34.0	2.5	/experiments/knapen_aot/videos/R_S_pexels-c-technical-5771610.mp4	0.0	208.25147795677185	0.1000669002532959
37	100.8325629234314	fix_pre	0		23.0	35.0	2.5	/experiments/knapen_aot/videos/S_ILSVRC2015_train_00165013.mp4	0.0	208.35154485702515	0.1915600299835205
37	101.0159649848938	response	0	2		35.0	2.5	/experiments/knapen_aot/videos/S_ILSVRC2015_train_00165013.mp4	0.0	208.53494691848755	
37	101.02412295341492	movie	1		301.0	35.0	2.5	/experiments/knapen_aot/videos/S_ILSVRC2015_train_00165013.mp4	0.0	208.54310488700867	2.508409023284912
37	103.53253197669983	fix_post	2		12.0	35.0	2.5	/experiments/knapen_aot/videos/S_ILSVRC2015_train_00165013.mp4	0.0	211.05151391029358	0.10000085830688477
38	103.63253283500671	fix_pre	0		7.0	36.0	2.5	/experiments/knapen_aot/videos/R_S_yt-7lULOC_rSE0_747.mp4	0.0	211.15151476860046	0.05836915969848633
38	103.68291902542114	response	0	2		36.0	2.5	/experiments/knapen_aot/videos/R_S_yt-7lULOC_rSE0_747.mp4	0.0	211.2019009590149	
38	103.6909019947052	movie	1		301.0	36.0	2.5	/experiments/knapen_aot/videos/R_S_yt-7lULOC_rSE0_747.mp4	0.0	211.20988392829895	2.5082969665527344
38	106.19919896125793	fix_post	2		12.0	36.0	2.5	/experiments/knapen_aot/videos/R_S_yt-7lULOC_rSE0_747.mp4	0.0	213.71818089485168	0.10001397132873535
39	106.29921293258667	fix_pre	0		8.0	37.0	2.5	/experiments/knapen_aot/videos/S_pexels-mikhail-nilov-8410063.mp4	0.0	213.81819486618042	0.06659889221191406
39	106.35764193534851	response	0	2		37.0	2.5	/experiments/knapen_aot/videos/S_pexels-mikhail-nilov-8410063.mp4	0.0	213.87662386894226	
39	106.36581182479858	movie	1		167.0	37.0	2.5	/experiments/knapen_aot/videos/S_pexels-mikhail-nilov-8410063.mp4	0.0	213.88479375839233	2.5083529949188232
39	108.87416481971741	fix_post	2		12.0	37.0	2.5	/experiments/knapen_aot/videos/S_pexels-mikhail-nilov-8410063.mp4	0.0	216.39314675331116	0.10003113746643066
40	108.97419595718384	fix_pre	0		9.0	38.0	2.5	/experiments/knapen_aot/videos/R_S_yt--DXkjCUzThU_413.mp4	0.0	216.4931778907776	0.0749359130859375
40	109.0410668849945	response	0	2		38.0	2.5	/experiments/knapen_aot/videos/R_S_yt--DXkjCUzThU_413.mp4	0.0	216.56004881858826	
40	109.04913187026978	movie	1		301.0	38.0	2.5	/experiments/knapen_aot/videos/R_S_yt--DXkjCUzThU_413.mp4	0.0	216.56811380386353	2.5083799362182617
40	111.55751180648804	fix_post	2		12.0	38.0	2.5	/experiments/knapen_aot/videos/R_S_yt--DXkjCUzThU_413.mp4	0.0	219.0764937400818	0.09999799728393555
41	111.65750980377197	fix_pre	0		6.0	39.0	2.5	/experiments/knapen_aot/videos/S_ILSVRC2015_train_00354001.mp4	0.0	219.17649173736572	0.05002617835998535
41	111.69953179359436	response	0	2		39.0	2.5	/experiments/knapen_aot/videos/S_ILSVRC2015_train_00354001.mp4	0.0	219.2185137271881	
41	111.70753598213196	movie	1		300.0	39.0	2.5	/experiments/knapen_aot/videos/S_ILSVRC2015_train_00354001.mp4	0.0	219.2265179157257	2.508251905441284
41	114.21578788757324	fix_post	2		12.0	39.0	2.5	/experiments/knapen_aot/videos/S_ILSVRC2015_train_00354001.mp4	0.0	221.734769821167	0.10000991821289062
42	114.31579780578613	fix_pre	0		23.0	40.0	2.5	/experiments/knapen_aot/videos/R_S_yt-jcuaf9iSEkI_169.mp4	0.0	221.83477973937988	0.19173812866210938
42	114.49929690361023	response	0	2		40.0	2.5	/experiments/knapen_aot/videos/R_S_yt-jcuaf9iSEkI_169.mp4	0.0	222.01827883720398	
42	114.50753593444824	movie	1		301.0	40.0	2.5	/experiments/knapen_aot/videos/R_S_yt-jcuaf9iSEkI_169.mp4	0.0	222.026517868042	2.508229970932007
42	117.01576590538025	fix_post	2		12.0	40.0	2.5	/experiments/knapen_aot/videos/R_S_yt-jcuaf9iSEkI_169.mp4	0.0	224.534747838974	0.09996294975280762
43	117.11572885513306	fix_pre	0		30.0	41.0	2.5	/experiments/knapen_aot/videos/R_S_yt-vacON8rxZaI_168.mp4	0.0	224.6347107887268	0.25007009506225586
43	117.35760998725891	response	0	2		41.0	2.5	/experiments/knapen_aot/videos/R_S_yt-vacON8rxZaI_168.mp4	0.0	224.87659192085266	
43	117.36579895019531	movie	1		301.0	41.0	2.5	/experiments/knapen_aot/videos/R_S_yt-vacON8rxZaI_168.mp4	0.0	224.88478088378906	2.508336067199707
43	119.87413501739502	fix_post	2		12.0	41.0	2.5	/experiments/knapen_aot/videos/R_S_yt-vacON8rxZaI_168.mp4	0.0	227.39311695098877	0.0999000072479248
44	119.97403502464294	fix_pre	0		18.0	42.0	2.5	blank	1.0	227.4930169582367	0.15011286735534668
44	120.11590886116028	response	0	2		42.0	2.5	blank	1.0	227.63489079475403	
44	120.12414789199829	movie	1		301.0	42.0	2.5	blank	1.0	227.64312982559204	2.5083041191101074
44	122.6324520111084	fix_post	2		12.0	42.0	2.5	blank	1.0	230.15143394470215	0.10020780563354492
45	122.73265981674194	fix_pre	0		53.0	43.0	2.5	/experiments/knapen_aot/videos/S_wc-_W9iefBXz8bi_23.mp4	0.0	230.2516417503357	0.4415140151977539
45	123.16595387458801	response	0	2		43.0	2.5	/experiments/knapen_aot/videos/S_wc-_W9iefBXz8bi_23.mp4	0.0	230.68493580818176	
45	123.1741738319397	movie	1		166.0	43.0	2.5	/experiments/knapen_aot/videos/S_wc-_W9iefBXz8bi_23.mp4	0.0	230.69315576553345	2.5082850456237793
45	125.68245887756348	fix_post	2		12.0	43.0	2.5	/experiments/knapen_aot/videos/S_wc-_W9iefBXz8bi_23.mp4	0.0	233.20144081115723	0.09996294975280762
46	125.78242182731628	fix_pre	0		15.0	44.0	2.5	/experiments/knapen_aot/videos/S_BO_A012_C031_SDR_20190726_SDR_2K_AVC.mp4	0.0	233.30140376091003	0.12503409385681152
46	125.8991858959198	response	0	2		44.0	2.5	/experiments/knapen_aot/videos/S_BO_A012_C031_SDR_20190726_SDR_2K_AVC.mp4	0.0	233.41816782951355	
46	125.9074559211731	movie	1		166.0	44.0	2.5	/experiments/knapen_aot/videos/S_BO_A012_C031_SDR_20190726_SDR_2K_AVC.mp4	0.0	233.42643785476685	2.5084190368652344
46	128.41587495803833	fix_post	2		12.0	44.0	2.5	/experiments/knapen_aot/videos/S_BO_A012_C031_SDR_20190726_SDR_2K_AVC.mp4	0.0	235.93485689163208	0.0999288558959961
47	128.51580381393433	fix_pre	0		7.0	45.0	2.5	/experiments/knapen_aot/videos/S_yt-ZtS7ZrJ_rtk_525.mp4	0.0	236.03478574752808	0.05833601951599121
47	128.55862593650818	response	0	2		45.0	2.5	/experiments/knapen_aot/videos/S_yt-ZtS7ZrJ_rtk_525.mp4	0.0	236.07760787010193	
47	128.57413983345032	movie	1		301.0	45.0	2.5	/experiments/knapen_aot/videos/S_yt-ZtS7ZrJ_rtk_525.mp4	0.0	236.09312176704407	2.5083391666412354
47	131.08247900009155	fix_post	2		12.0	45.0	2.5	/experiments/knapen_aot/videos/S_yt-ZtS7ZrJ_rtk_525.mp4	0.0	238.6014609336853	0.10085892677307129
48	131.18333792686462	fix_pre	0		25.0	46.0	2.5	/experiments/knapen_aot/videos/R_S_yt-hvuC_2YXsTQ_159.mp4	0.0	238.70231986045837	0.2082509994506836
48	131.3826699256897	response	0	2		46.0	2.5	/experiments/knapen_aot/videos/R_S_yt-hvuC_2YXsTQ_159.mp4	0.0	238.90165185928345	
48	131.3915889263153	movie	1		301.0	46.0	2.5	/experiments/knapen_aot/videos/R_S_yt-hvuC_2YXsTQ_159.mp4	0.0	238.91057085990906	2.5074830055236816
48	133.899071931839	fix_post	2		12.0	46.0	2.5	/experiments/knapen_aot/videos/R_S_yt-hvuC_2YXsTQ_159.mp4	0.0	241.41805386543274	0.10003995895385742
49	133.99911189079285	fix_pre	0		11.0	47.0	2.5	blank	1.0	241.5180938243866	0.09166598320007324
49	134.07501602172852	response	0	2		47.0	2.5	blank	1.0	241.59399795532227	
49	134.09077787399292	movie	1		301.0	47.0	2.5	blank	1.0	241.60975980758667	2.508341073989868
49	136.53253602981567	response	1	2		47.0	2.5	blank	1.0	244.05151796340942	
49	136.5991189479828	fix_post	2		12.0	47.0	2.5	blank	1.0	244.11810088157654	0.09991908073425293
50	136.69903802871704	fix_pre	0		23.0	48.0	2.5	/experiments/knapen_aot/videos/S_yt-yQrDeFlFmfM_138.mp4	0.0	244.2180199623108	0.1925339698791504
50	136.88251399993896	response	0	2		48.0	2.5	/experiments/knapen_aot/videos/S_yt-yQrDeFlFmfM_138.mp4	0.0	244.40149593353271	
50	136.8915719985962	movie	1		299.0	48.0	2.5	/experiments/knapen_aot/videos/S_yt-yQrDeFlFmfM_138.mp4	0.0	244.41055393218994	2.507498025894165
50	139.39907002449036	fix_post	2		12.0	48.0	2.5	/experiments/knapen_aot/videos/S_yt-yQrDeFlFmfM_138.mp4	0.0	246.9180519580841	0.10000085830688477
51	139.49907088279724	fix_pre	0		29.0	49.0	2.5	/experiments/knapen_aot/videos/S_yt-c5IgOXX8YZ0_24.mp4	0.0	247.018052816391	0.24161410331726074
51	139.73250699043274	response	0	2		49.0	2.5	/experiments/knapen_aot/videos/S_yt-c5IgOXX8YZ0_24.mp4	0.0	247.2514889240265	
51	139.7406849861145	movie	1		301.0	49.0	2.5	/experiments/knapen_aot/videos/S_yt-c5IgOXX8YZ0_24.mp4	0.0	247.25966691970825	2.5083539485931396
51	142.24903893470764	fix_post	2		12.0	49.0	2.5	/experiments/knapen_aot/videos/S_yt-c5IgOXX8YZ0_24.mp4	0.0	249.7680208683014	0.10001993179321289
52	142.34905886650085	fix_pre	0		26.0	50.0	2.5	/experiments/knapen_aot/videos/R_S_yt-JDHApyT5ngs_128.mp4	0.0	249.8680408000946	0.21664905548095703
52	142.55752086639404	response	0	2		50.0	2.5	/experiments/knapen_aot/videos/R_S_yt-JDHApyT5ngs_128.mp4	0.0	250.0765027999878	
52	142.5657079219818	movie	1		298.0	50.0	2.5	/experiments/knapen_aot/videos/R_S_yt-JDHApyT5ngs_128.mp4	0.0	250.08468985557556	2.508328914642334
52	145.07403683662415	fix_post	2		12.0	50.0	2.5	/experiments/knapen_aot/videos/R_S_yt-JDHApyT5ngs_128.mp4	0.0	252.5930187702179	0.09997200965881348
53	145.17400884628296	fix_pre	0		20.0	51.0	2.5	/experiments/knapen_aot/videos/S_wc-lItGMdwvEd_l_7.mp4	0.0	252.6929907798767	0.16668415069580078
53	145.33245491981506	response	0	2		51.0	2.5	/experiments/knapen_aot/videos/S_wc-lItGMdwvEd_l_7.mp4	0.0	252.8514368534088	
53	145.34069299697876	movie	1		162.0	51.0	2.5	/experiments/knapen_aot/videos/S_wc-lItGMdwvEd_l_7.mp4	0.0	252.8596749305725	2.50834584236145
53	147.8490388393402	fix_post	2		12.0	51.0	2.5	/experiments/knapen_aot/videos/S_wc-lItGMdwvEd_l_7.mp4	0.0	255.36802077293396	0.09991812705993652
54	147.94895696640015	fix_pre	0		37.0	52.0	2.5	/experiments/knapen_aot/videos/R_S_yt--vHa85DHvLU_31.mp4	0.0	255.4679388999939	0.3083498477935791
54	148.24911189079285	response	0	2		52.0	2.5	/experiments/knapen_aot/videos/R_S_yt--vHa85DHvLU_31.mp4	0.0	255.7680938243866	
54	148.25730681419373	movie	1		301.0	52.0	2.5	/experiments/knapen_aot/videos/R_S_yt--vHa85DHvLU_31.mp4	0.0	255.77628874778748	2.5083541870117188
54	150.76566100120544	fix_post	2		12.0	52.0	2.5	/experiments/knapen_aot/videos/R_S_yt--vHa85DHvLU_31.mp4	0.0	258.2846429347992	0.10002279281616211
55	150.8656837940216	fix_pre	0		9.0	53.0	2.5	/experiments/knapen_aot/videos/S_yt-lCb_efvJcdE_5.mp4	0.0	258.38466572761536	0.07494020462036133
55	150.9324939250946	response	0	2		53.0	2.5	/experiments/knapen_aot/videos/S_yt-lCb_efvJcdE_5.mp4	0.0	258.45147585868835	
55	150.94062399864197	movie	1		301.0	53.0	2.5	/experiments/knapen_aot/videos/S_yt-lCb_efvJcdE_5.mp4	0.0	258.4596059322357	2.50834584236145
55	153.44896984100342	fix_post	2		12.0	53.0	2.5	/experiments/knapen_aot/videos/S_yt-lCb_efvJcdE_5.mp4	0.0	260.96795177459717	0.10003304481506348
56	153.54900288581848	fix_pre	0		46.0	54.0	2.5	/experiments/knapen_aot/videos/R_S_yt-TNtO8RPd3iE_25.mp4	0.0	261.06798481941223	0.38403892517089844
56	153.924076795578	response	0	2		54.0	2.5	/experiments/knapen_aot/videos/R_S_yt-TNtO8RPd3iE_25.mp4	0.0	261.44305872917175	
56	153.93304181098938	movie	1		301.0	54.0	2.5	/experiments/knapen_aot/videos/R_S_yt-TNtO8RPd3iE_25.mp4	0.0	261.45202374458313	2.50760817527771
56	156.4406499862671	fix_post	2		12.0	54.0	2.5	/experiments/knapen_aot/videos/R_S_yt-TNtO8RPd3iE_25.mp4	0.0	263.95963191986084	0.0998849868774414
57	156.54053497314453	fix_pre	0		17.0	55.0	2.5	/experiments/knapen_aot/videos/R_S_yt-ycfVJyrFgB4_15.mp4	0.0	264.0595169067383	0.14246392250061035
57	156.67402386665344	response	0	2		55.0	2.5	/experiments/knapen_aot/videos/R_S_yt-ycfVJyrFgB4_15.mp4	0.0	264.1930058002472	
57	156.68299889564514	movie	1		298.0	55.0	2.5	/experiments/knapen_aot/videos/R_S_yt-ycfVJyrFgB4_15.mp4	0.0	264.2019808292389	2.507599115371704
57	159.19059801101685	fix_post	2		12.0	55.0	2.5	/experiments/knapen_aot/videos/R_S_yt-ycfVJyrFgB4_15.mp4	0.0	266.7095799446106	0.09993195533752441
58	159.29052996635437	fix_pre	0		27.0	56.0	2.5	blank	1.0	266.8095118999481	0.22580504417419434
58	159.5073800086975	response	0	2		56.0	2.5	blank	1.0	267.02636194229126	
58	159.51633501052856	movie	1		301.0	56.0	2.5	blank	1.0	267.0353169441223	2.507591962814331
58	162.0239269733429	fix_post	2		12.0	56.0	2.5	blank	1.0	269.54290890693665	0.10000300407409668
59	162.123929977417	fix_pre	0		32.0	57.0	2.5	/experiments/knapen_aot/videos/R_S_yt-ebylvieB_4g_16.mp4	0.0	269.64291191101074	0.26732683181762695
59	162.38228297233582	response	0	2		57.0	2.5	/experiments/knapen_aot/videos/R_S_yt-ebylvieB_4g_16.mp4	0.0	269.90126490592957	
59	162.39125680923462	movie	1		301.0	57.0	2.5	/experiments/knapen_aot/videos/R_S_yt-ebylvieB_4g_16.mp4	0.0	269.91023874282837	2.507641077041626
59	164.89889788627625	fix_post	2		12.0	57.0	2.5	/experiments/knapen_aot/videos/R_S_yt-ebylvieB_4g_16.mp4	0.0	272.41787981987	0.1000680923461914
60	164.99896597862244	fix_pre	0		8.0	58.0	2.5	/experiments/knapen_aot/videos/S_comp_A009_C001_010181A_v09_SDR_PS_FINAL_20180725_SDR_2K_AVC.mp4	0.0	272.5179479122162	0.0666358470916748
60	165.05739498138428	response	0	2		58.0	2.5	/experiments/knapen_aot/videos/S_comp_A009_C001_010181A_v09_SDR_PS_FINAL_20180725_SDR_2K_AVC.mp4	0.0	272.576376914978	
60	165.0656018257141	movie	1		167.0	58.0	2.5	/experiments/knapen_aot/videos/S_comp_A009_C001_010181A_v09_SDR_PS_FINAL_20180725_SDR_2K_AVC.mp4	0.0	272.58458375930786	2.5082790851593018
60	167.5738809108734	fix_post	2		12.0	58.0	2.5	/experiments/knapen_aot/videos/S_comp_A009_C001_010181A_v09_SDR_PS_FINAL_20180725_SDR_2K_AVC.mp4	0.0	275.09286284446716	0.10012388229370117
61	167.67400479316711	fix_pre	0		10.0	59.0	2.5	/experiments/knapen_aot/videos/S_comp_A009_C001_010181A_v09_SDR_PS_FINAL_20180725_SDR_2K_AVC.mp4	0.0	275.19298672676086	0.08325910568237305
61	167.7490849494934	response	0	2		59.0	2.5	/experiments/knapen_aot/videos/S_comp_A009_C001_010181A_v09_SDR_PS_FINAL_20180725_SDR_2K_AVC.mp4	0.0	275.26806688308716	
61	167.7572638988495	movie	1		166.0	59.0	2.5	/experiments/knapen_aot/videos/S_comp_A009_C001_010181A_v09_SDR_PS_FINAL_20180725_SDR_2K_AVC.mp4	0.0	275.27624583244324	2.5082919597625732
61	170.26555585861206	fix_post	2		12.0	59.0	2.5	/experiments/knapen_aot/videos/S_comp_A009_C001_010181A_v09_SDR_PS_FINAL_20180725_SDR_2K_AVC.mp4	0.0	277.7845377922058	0.10001111030578613
62	170.36556696891785	fix_pre	0		13.0	60.0	2.5	/experiments/knapen_aot/videos/S_ILSVRC2015_train_00682000.mp4	0.0	277.8845489025116	0.1089620590209961
62	170.46573400497437	response	0	2		60.0	2.5	/experiments/knapen_aot/videos/S_ILSVRC2015_train_00682000.mp4	0.0	277.9847159385681	
62	170.47452902793884	movie	1		301.0	60.0	2.5	/experiments/knapen_aot/videos/S_ILSVRC2015_train_00682000.mp4	0.0	277.9935109615326	2.5077059268951416
62	172.98223495483398	fix_post	2		12.0	60.0	2.5	/experiments/knapen_aot/videos/S_ILSVRC2015_train_00682000.mp4	0.0	280.50121688842773	0.10000491142272949
63	173.0822398662567	fix_pre	0		11.0	61.0	2.5	/experiments/knapen_aot/videos/S_yt-kXarkCFJLeg_46.mp4	0.0	280.60122179985046	0.09170103073120117
63	173.15835094451904	response	0	2		61.0	2.5	/experiments/knapen_aot/videos/S_yt-kXarkCFJLeg_46.mp4	0.0	280.6773328781128	
63	173.17394089698792	movie	1		301.0	61.0	2.5	/experiments/knapen_aot/videos/S_yt-kXarkCFJLeg_46.mp4	0.0	280.69292283058167	2.5083870887756348
63	175.68232798576355	fix_post	2		12.0	61.0	2.5	/experiments/knapen_aot/videos/S_yt-kXarkCFJLeg_46.mp4	0.0	283.2013099193573	0.09993886947631836
64	175.78226685523987	fix_pre	0		31.0	62.0	2.5	/experiments/knapen_aot/videos/R_S_yt-NQSCGMpo-p8_118.mp4	0.0	283.3012487888336	0.25827598571777344
64	176.0322380065918	response	0	2		62.0	2.5	/experiments/knapen_aot/videos/R_S_yt-NQSCGMpo-p8_118.mp4	0.0	283.55121994018555	
64	176.04054284095764	movie	1		300.0	62.0	2.5	/experiments/knapen_aot/videos/R_S_yt-NQSCGMpo-p8_118.mp4	0.0	283.5595247745514	2.508355140686035
64	178.54889798164368	fix_post	2		11.0	62.0	2.5	/experiments/knapen_aot/videos/R_S_yt-NQSCGMpo-p8_118.mp4	0.0	286.0678799152374	0.09224700927734375
64	178.63237285614014	response	2	2		62.0	2.5	/experiments/knapen_aot/videos/R_S_yt-NQSCGMpo-p8_118.mp4	0.0	286.1513547897339	
65	178.64114499092102	fix_pre	0		59.0	63.0	2.5	blank	1.0	286.16012692451477	0.49104785919189453
65	179.12411499023438	response	0	2		63.0	2.5	blank	1.0	286.6430969238281	
65	179.13219285011292	movie	1		301.0	63.0	2.5	blank	1.0	286.65117478370667	2.5083060264587402
65	181.64049887657166	fix_post	2		12.0	63.0	2.5	blank	1.0	289.1594808101654	0.10002708435058594
66	181.74052596092224	fix_pre	0		34.0	64.0	2.5	/experiments/knapen_aot/videos/S_yt-lfDIg8kaXhA_169.mp4	0.0	289.259507894516	0.2832789421081543
66	182.01571488380432	response	0	2		64.0	2.5	/experiments/knapen_aot/videos/S_yt-lfDIg8kaXhA_169.mp4	0.0	289.53469681739807	
66	182.0238049030304	movie	1		301.0	64.0	2.5	/experiments/knapen_aot/videos/S_yt-lfDIg8kaXhA_169.mp4	0.0	289.54278683662415	2.5083329677581787
66	184.53213787078857	fix_post	2		12.0	64.0	2.5	/experiments/knapen_aot/videos/S_yt-lfDIg8kaXhA_169.mp4	0.0	292.0511198043823	0.10012102127075195
67	184.63225889205933	fix_pre	0		33.0	65.0	2.5	/experiments/knapen_aot/videos/R_S_yt-ebajhZwlVJM_32.mp4	0.0	292.1512408256531	0.27495694160461426
67	184.89903593063354	response	0	2		65.0	2.5	/experiments/knapen_aot/videos/R_S_yt-ebajhZwlVJM_32.mp4	0.0	292.4180178642273	
67	184.90721583366394	movie	1		301.0	65.0	2.5	/experiments/knapen_aot/videos/R_S_yt-ebajhZwlVJM_32.mp4	0.0	292.4261977672577	2.5083560943603516
67	187.4155719280243	fix_post	2		12.0	65.0	2.5	/experiments/knapen_aot/videos/R_S_yt-ebajhZwlVJM_32.mp4	0.0	294.93455386161804	0.10045695304870605
68	187.516028881073	fix_pre	0		31.0	66.0	2.5	/experiments/knapen_aot/videos/R_S_yt-4-u4Fw_J_q8_45.mp4	0.0	295.03501081466675	0.2577779293060303
68	187.76572394371033	response	0	2		66.0	2.5	/experiments/knapen_aot/videos/R_S_yt-4-u4Fw_J_q8_45.mp4	0.0	295.2847058773041	
68	187.77380681037903	movie	1		301.0	66.0	2.5	/experiments/knapen_aot/videos/R_S_yt-4-u4Fw_J_q8_45.mp4	0.0	295.2927887439728	2.5083470344543457
68	190.28215384483337	fix_post	2		12.0	66.0	2.5	/experiments/knapen_aot/videos/R_S_yt-4-u4Fw_J_q8_45.mp4	0.0	297.8011357784271	0.10003495216369629
69	190.38218879699707	fix_pre	0		5.0	67.0	2.5	/experiments/knapen_aot/videos/S_pexels-mikhail-nilov-8410063_1.mp4	0.0	297.9011707305908	0.043572187423706055
69	190.4160590171814	response	0	2		67.0	2.5	/experiments/knapen_aot/videos/S_pexels-mikhail-nilov-8410063_1.mp4	0.0	297.93504095077515	
69	190.42576098442078	movie	1		166.0	67.0	2.5	/experiments/knapen_aot/videos/S_pexels-mikhail-nilov-8410063_1.mp4	0.0	297.9447429180145	2.5064449310302734
69	192.93220591545105	fix_post	2		12.0	67.0	2.5	/experiments/knapen_aot/videos/S_pexels-mikhail-nilov-8410063_1.mp4	0.0	300.4511878490448	0.0999898910522461
69	193.0239429473877	response	2	2		67.0	2.5	/experiments/knapen_aot/videos/S_pexels-mikhail-nilov-8410063_1.mp4	0.0	300.54292488098145	
70	193.0321958065033	fix_pre	0		39.0	68.0	2.5	/experiments/knapen_aot/videos/S_yt-ebylvieB_4g_16.mp4	0.0	300.55117774009705	0.3251330852508545
70	193.34893202781677	response	0	2		68.0	2.5	/experiments/knapen_aot/videos/S_yt-ebylvieB_4g_16.mp4	0.0	300.8679139614105	
70	193.35732889175415	movie	1		301.0	68.0	2.5	/experiments/knapen_aot/videos/S_yt-ebylvieB_4g_16.mp4	0.0	300.8763108253479	2.5082130432128906
70	195.86554193496704	fix_post	2		12.0	68.0	2.5	/experiments/knapen_aot/videos/S_yt-ebylvieB_4g_16.mp4	0.0	303.3845238685608	0.09997391700744629
71	195.9655158519745	fix_pre	0		47.0	69.0	2.5	/experiments/knapen_aot/videos/S_comp_A007_C017_01156B_v02_SDR_PS_20180925_SDR_2K_AVC.mp4	0.0	303.48449778556824	0.3916630744934082
71	196.341472864151	response	0	2		69.0	2.5	/experiments/knapen_aot/videos/S_comp_A007_C017_01156B_v02_SDR_PS_20180925_SDR_2K_AVC.mp4	0.0	303.86045479774475	
71	196.3571789264679	movie	1		169.0	69.0	2.5	/experiments/knapen_aot/videos/S_comp_A007_C017_01156B_v02_SDR_PS_20180925_SDR_2K_AVC.mp4	0.0	303.87616086006165	2.5083348751068115
71	198.8655138015747	fix_post	2		12.0	69.0	2.5	/experiments/knapen_aot/videos/S_comp_A007_C017_01156B_v02_SDR_PS_20180925_SDR_2K_AVC.mp4	0.0	306.38449573516846	0.09999608993530273
72	198.96550989151	fix_pre	0		31.0	70.0	2.5	blank	1.0	306.48449182510376	0.25890398025512695
72	199.2156319618225	response	0	2		70.0	2.5	blank	1.0	306.73461389541626	
72	199.22441387176514	movie	1		301.0	70.0	2.5	blank	1.0	306.7433958053589	2.5077550411224365
72	201.73216891288757	fix_post	2		12.0	70.0	2.5	blank	1.0	309.2511508464813	0.09998011589050293
73	201.83214902877808	fix_pre	0		29.0	71.0	2.5	/experiments/knapen_aot/videos/R_S_yt-1ruRqcfBMw0_21.mp4	0.0	309.3511309623718	0.2416679859161377
73	202.06561088562012	response	0	2		71.0	2.5	/experiments/knapen_aot/videos/R_S_yt-1ruRqcfBMw0_21.mp4	0.0	309.58459281921387	
73	202.0738170146942	movie	1		301.0	71.0	2.5	/experiments/knapen_aot/videos/R_S_yt-1ruRqcfBMw0_21.mp4	0.0	309.59279894828796	2.5083439350128174
73	204.58216094970703	fix_post	2		12.0	71.0	2.5	/experiments/knapen_aot/videos/R_S_yt-1ruRqcfBMw0_21.mp4	0.0	312.1011428833008	0.0999760627746582
74	204.6821370124817	fix_pre	0		28.0	72.0	2.5	/experiments/knapen_aot/videos/R_S_yt-VTNBCfQxnsk_59.mp4	0.0	312.20111894607544	0.23333382606506348
74	204.90724802017212	response	0	2		72.0	2.5	/experiments/knapen_aot/videos/R_S_yt-VTNBCfQxnsk_59.mp4	0.0	312.42622995376587	
74	204.91547083854675	movie	1		301.0	72.0	2.5	/experiments/knapen_aot/videos/R_S_yt-VTNBCfQxnsk_59.mp4	0.0	312.4344527721405	2.5083210468292236
74	207.42379188537598	fix_post	2		12.0	72.0	2.5	/experiments/knapen_aot/videos/R_S_yt-VTNBCfQxnsk_59.mp4	0.0	314.9427738189697	0.10000109672546387
75	207.52379298210144	fix_pre	0		39.0	73.0	2.5	/experiments/knapen_aot/videos/S_yt-hvuC_2YXsTQ_159.mp4	0.0	315.0427749156952	0.32540202140808105
75	207.84059596061707	response	0	2		73.0	2.5	/experiments/knapen_aot/videos/S_yt-hvuC_2YXsTQ_159.mp4	0.0	315.3595778942108	
75	207.84919500350952	movie	1		301.0	73.0	2.5	/experiments/knapen_aot/videos/S_yt-hvuC_2YXsTQ_159.mp4	0.0	315.36817693710327	2.5079329013824463
75	210.35712790489197	fix_post	2		12.0	73.0	2.5	/experiments/knapen_aot/videos/S_yt-hvuC_2YXsTQ_159.mp4	0.0	317.8761098384857	0.09996390342712402
76	210.4570918083191	fix_pre	0		22.0	74.0	2.5	/experiments/knapen_aot/videos/S_production_ID_4835060.mp4	0.0	317.97607374191284	0.1837320327758789
76	210.6246359348297	response	0	2		74.0	2.5	/experiments/knapen_aot/videos/S_production_ID_4835060.mp4	0.0	318.14361786842346	
76	210.64082384109497	movie	1		174.0	74.0	2.5	/experiments/knapen_aot/videos/S_production_ID_4835060.mp4	0.0	318.1598057746887	2.508017063140869
76	213.14884090423584	fix_post	2		12.0	74.0	2.5	/experiments/knapen_aot/videos/S_production_ID_4835060.mp4	0.0	320.6678228378296	0.09993195533752441
76	213.1655888557434	response	2	2		74.0	2.5	/experiments/knapen_aot/videos/S_production_ID_4835060.mp4	0.0	320.68457078933716	
77	213.24877285957336	fix_pre	0		35.0	75.0	2.5	/experiments/knapen_aot/videos/S_yt-1ruRqcfBMw0_21.mp4	0.0	320.7677547931671	0.2916390895843506
77	213.53218984603882	response	0	2		75.0	2.5	/experiments/knapen_aot/videos/S_yt-1ruRqcfBMw0_21.mp4	0.0	321.05117177963257	
77	213.54041194915771	movie	1		300.0	75.0	2.5	/experiments/knapen_aot/videos/S_yt-1ruRqcfBMw0_21.mp4	0.0	321.05939388275146	2.5083439350128174
77	216.04875588417053	fix_post	2		12.0	75.0	2.5	/experiments/knapen_aot/videos/S_yt-1ruRqcfBMw0_21.mp4	0.0	323.5677378177643	0.1000070571899414
78	216.14876294136047	fix_pre	0		15.0	76.0	2.5	/experiments/knapen_aot/videos/R_S_comp_A009_C001_010181A_v09_SDR_PS_FINAL_20180725_SDR_2K_AVC.mp4	0.0	323.6677448749542	0.1249699592590332
78	216.26559686660767	response	0	2		76.0	2.5	/experiments/knapen_aot/videos/R_S_comp_A009_C001_010181A_v09_SDR_PS_FINAL_20180725_SDR_2K_AVC.mp4	0.0	323.7845788002014	
78	216.2737329006195	movie	1		172.0	76.0	2.5	/experiments/knapen_aot/videos/R_S_comp_A009_C001_010181A_v09_SDR_PS_FINAL_20180725_SDR_2K_AVC.mp4	0.0	323.79271483421326	2.5082430839538574
78	218.78197598457336	fix_post	2		12.0	76.0	2.5	/experiments/knapen_aot/videos/R_S_comp_A009_C001_010181A_v09_SDR_PS_FINAL_20180725_SDR_2K_AVC.mp4	0.0	326.3009579181671	0.10008096694946289
79	218.88205695152283	fix_pre	0		11.0	77.0	2.5	blank	1.0	326.4010388851166	0.0920710563659668
79	218.96544885635376	response	0	2		77.0	2.5	blank	1.0	326.4844307899475	
79	218.9741280078888	movie	1		301.0	77.0	2.5	blank	1.0	326.49310994148254	2.507887840270996
79	221.4154818058014	response	1	2		77.0	2.5	blank	1.0	328.93446373939514	
79	221.4820158481598	fix_post	2		12.0	77.0	2.5	blank	1.0	329.00099778175354	0.10005402565002441
80	221.58206987380981	fix_pre	0		46.0	78.0	2.5	/experiments/knapen_aot/videos/R_S_yt-5AI_SyK5sg8_112.mp4	0.0	329.10105180740356	0.38324999809265137
80	221.95709800720215	response	0	2		78.0	2.5	/experiments/knapen_aot/videos/R_S_yt-5AI_SyK5sg8_112.mp4	0.0	329.4760799407959	
80	221.96531987190247	movie	1		301.0	78.0	2.5	/experiments/knapen_aot/videos/R_S_yt-5AI_SyK5sg8_112.mp4	0.0	329.4843018054962	2.5083670616149902
80	224.47368693351746	fix_post	2		12.0	78.0	2.5	/experiments/knapen_aot/videos/R_S_yt-5AI_SyK5sg8_112.mp4	0.0	331.9926688671112	0.09998703002929688
81	224.57367396354675	fix_pre	0		12.0	79.0	2.5	/experiments/knapen_aot/videos/S_yt-Fdv-V--QlR0_117.mp4	0.0	332.0926558971405	0.09998893737792969
81	224.66545987129211	response	0	2		79.0	2.5	/experiments/knapen_aot/videos/S_yt-Fdv-V--QlR0_117.mp4	0.0	332.18444180488586	
81	224.67366290092468	movie	1		299.0	79.0	2.5	/experiments/knapen_aot/videos/S_yt-Fdv-V--QlR0_117.mp4	0.0	332.19264483451843	2.508307933807373
81	227.18197083473206	fix_post	2		12.0	79.0	2.5	/experiments/knapen_aot/videos/S_yt-Fdv-V--QlR0_117.mp4	0.0	334.7009527683258	0.100006103515625
82	227.28197693824768	fix_pre	0		9.0	80.0	2.5	/experiments/knapen_aot/videos/S_yt-BiBS8EO5GPc_4.mp4	0.0	334.80095887184143	0.07498693466186523
82	227.34877681732178	response	0	2		80.0	2.5	/experiments/knapen_aot/videos/S_yt-BiBS8EO5GPc_4.mp4	0.0	334.8677587509155	
82	227.35696387290955	movie	1		301.0	80.0	2.5	/experiments/knapen_aot/videos/S_yt-BiBS8EO5GPc_4.mp4	0.0	334.8759458065033	2.508333921432495
82	229.86529779434204	fix_post	2		12.0	80.0	2.5	/experiments/knapen_aot/videos/S_yt-BiBS8EO5GPc_4.mp4	0.0	337.3842797279358	0.09998822212219238
83	229.96528601646423	fix_pre	0		23.0	81.0	2.5	/experiments/knapen_aot/videos/R_S_yt--Ou506YF3mY_106.mp4	0.0	337.484267950058	0.19165778160095215
83	230.14877891540527	response	0	2		81.0	2.5	/experiments/knapen_aot/videos/R_S_yt--Ou506YF3mY_106.mp4	0.0	337.667760848999	
83	230.15694379806519	movie	1		301.0	81.0	2.5	/experiments/knapen_aot/videos/R_S_yt--Ou506YF3mY_106.mp4	0.0	337.67592573165894	2.5084822177886963
83	232.66542601585388	fix_post	2		12.0	81.0	2.5	/experiments/knapen_aot/videos/R_S_yt--Ou506YF3mY_106.mp4	0.0	340.18440794944763	0.1002957820892334
84	232.76572179794312	fix_pre	0		33.0	82.0	2.5	/experiments/knapen_aot/videos/S_yt-LUIvP_NDWAs_45.mp4	0.0	340.28470373153687	0.27459001541137695
84	233.03210401535034	response	0	2		82.0	2.5	/experiments/knapen_aot/videos/S_yt-LUIvP_NDWAs_45.mp4	0.0	340.5510859489441	
84	233.0403118133545	movie	1		301.0	82.0	2.5	/experiments/knapen_aot/videos/S_yt-LUIvP_NDWAs_45.mp4	0.0	340.55929374694824	2.5083470344543457
84	235.54865884780884	fix_post	2		12.0	82.0	2.5	/experiments/knapen_aot/videos/S_yt-LUIvP_NDWAs_45.mp4	0.0	343.0676407814026	0.10000801086425781
85	235.6486668586731	fix_pre	0		13.0	83.0	2.5	blank	1.0	343.16764879226685	0.10828208923339844
85	235.74877190589905	response	0	2		83.0	2.5	blank	1.0	343.2677538394928	
85	235.7569489479065	movie	1		301.0	83.0	2.5	blank	1.0	343.27593088150024	2.5083940029144287
85	238.26534295082092	fix_post	2		12.0	83.0	2.5	blank	1.0	345.7843248844147	0.09989595413208008
87	238.365238904953	stim	0		169.0					345.88422083854675	1.408371925354004
87	238.90711879730225	response	0	2						346.426100730896	
87	239.76769495010376	response	0	space						347.2866768836975	
