trial_nr	onset	event_type	phase	response	nr_frames	movie_index	movie_duration	movie_file	blank	onset_abs	duration
0	0.13334107398986816	stim	0		67.0					85.23432803153992	0.5583038330078125
0	0.6763041019439697	response	0	space						85.77729105949402	
1	0.6916449069976807	stim	0		121.0					85.79263186454773	1.0078740119934082
1	1.6995189189910889	stim	1		120.0					86.80050587654114	1.0001180171966553
1	1.816467046737671	response	1	space						86.91745400428772	
2	2.699636936187744	fix_pre	0		9.0	0.0	2.5	/experiments/knapen_aot/videos/R_S_ILSVRC2015_train_00446000.mp4	0.0	87.8006238937378	0.07495713233947754
2	2.7664780616760254	response	0	space		0.0	2.5	/experiments/knapen_aot/videos/R_S_ILSVRC2015_train_00446000.mp4	0.0	87.86746501922607	
2	2.7745940685272217	movie	1		300.0	0.0	2.5	/experiments/knapen_aot/videos/R_S_ILSVRC2015_train_00446000.mp4	0.0	87.87558102607727	2.508375883102417
2	5.282969951629639	fix_post	2		12.0	0.0	2.5	/experiments/knapen_aot/videos/R_S_ILSVRC2015_train_00446000.mp4	0.0	90.38395690917969	0.09990715980529785
3	5.3828771114349365	fix_pre	0		36.0	1.0	2.5	/experiments/knapen_aot/videos/R_S_yt-3JApfnMu5cU_378.mp4	0.0	90.48386406898499	0.30002784729003906
3	5.672390937805176	response	0	2		1.0	2.5	/experiments/knapen_aot/videos/R_S_yt-3JApfnMu5cU_378.mp4	0.0	90.77337789535522	
3	5.682904958724976	movie	1		301.0	1.0	2.5	/experiments/knapen_aot/videos/R_S_yt-3JApfnMu5cU_378.mp4	0.0	90.78389191627502	2.508378028869629
3	8.191282987594604	fix_post	2		12.0	1.0	2.5	/experiments/knapen_aot/videos/R_S_yt-3JApfnMu5cU_378.mp4	0.0	93.29226994514465	0.09997296333312988
4	8.291255950927734	fix_pre	0		120.0	2.0	2.5	/experiments/knapen_aot/videos/R_S_yt-wz2opOBqClo_14.mp4	0.0	93.39224290847778	0.9999499320983887
4	9.2830069065094	response	0	2		2.0	2.5	/experiments/knapen_aot/videos/R_S_yt-wz2opOBqClo_14.mp4	0.0	94.38399386405945	
4	9.291205883026123	movie	1		301.0	2.0	2.5	/experiments/knapen_aot/videos/R_S_yt-wz2opOBqClo_14.mp4	0.0	94.39219284057617	2.508362054824829
4	11.799567937850952	fix_post	2		12.0	2.0	2.5	/experiments/knapen_aot/videos/R_S_yt-wz2opOBqClo_14.mp4	0.0	96.900554895401	0.09992313385009766
5	11.89949107170105	fix_pre	0		70.0	3.0	2.5	/experiments/knapen_aot/videos/R_S_yt-O6FS0xnF0CU_106.mp4	0.0	97.0004780292511	0.5834119319915771
5	12.474700927734375	response	0	2		3.0	2.5	/experiments/knapen_aot/videos/R_S_yt-O6FS0xnF0CU_106.mp4	0.0	97.57568788528442	
5	12.482903003692627	movie	1		301.0	3.0	2.5	/experiments/knapen_aot/videos/R_S_yt-O6FS0xnF0CU_106.mp4	0.0	97.58388996124268	2.5083389282226562
5	14.991241931915283	fix_post	2		12.0	3.0	2.5	/experiments/knapen_aot/videos/R_S_yt-O6FS0xnF0CU_106.mp4	0.0	100.09222888946533	0.0999760627746582
6	15.091217994689941	fix_pre	0		70.0	4.0	2.5	/experiments/knapen_aot/videos/R_S_yt-iO0efV_PV-k_102.mp4	0.0	100.19220495223999	0.5833189487457275
6	15.666443109512329	response	0	2		4.0	2.5	/experiments/knapen_aot/videos/R_S_yt-iO0efV_PV-k_102.mp4	0.0	100.76743006706238	
6	15.674536943435669	movie	1		301.0	4.0	2.5	/experiments/knapen_aot/videos/R_S_yt-iO0efV_PV-k_102.mp4	0.0	100.77552390098572	2.5083630084991455
6	18.182899951934814	fix_post	2		12.0	4.0	2.5	/experiments/knapen_aot/videos/R_S_yt-iO0efV_PV-k_102.mp4	0.0	103.28388690948486	0.099945068359375
7	18.28284502029419	fix_pre	0		83.0	5.0	2.5	blank	1.0	103.38383197784424	0.6917479038238525
7	18.958893060684204	response	0	2		5.0	2.5	blank	1.0	104.05988001823425	
7	18.974592924118042	movie	1		301.0	5.0	2.5	blank	1.0	104.07557988166809	2.508229970932007
7	21.48282289505005	fix_post	2		12.0	5.0	2.5	blank	1.0	106.5838098526001	0.1000521183013916
8	21.58287501335144	fix_pre	0		85.0	6.0	2.5	/experiments/knapen_aot/videos/R_S_ILSVRC2015_train_00556000.mp4	0.0	106.68386197090149	0.7083089351654053
8	22.283031940460205	response	0	2		6.0	2.5	/experiments/knapen_aot/videos/R_S_ILSVRC2015_train_00556000.mp4	0.0	107.38401889801025	
8	22.291183948516846	movie	1		301.0	6.0	2.5	/experiments/knapen_aot/videos/R_S_ILSVRC2015_train_00556000.mp4	0.0	107.3921709060669	2.5082290172576904
8	24.799412965774536	fix_post	2		12.0	6.0	2.5	/experiments/knapen_aot/videos/R_S_ILSVRC2015_train_00556000.mp4	0.0	109.90039992332458	0.10007905960083008
9	24.899492025375366	fix_pre	0		100.0	7.0	2.5	/experiments/knapen_aot/videos/S_yt-kAUL5o7i5mo_116.mp4	0.0	110.00047898292542	0.8332960605621338
9	25.724698066711426	response	0	2		7.0	2.5	/experiments/knapen_aot/videos/S_yt-kAUL5o7i5mo_116.mp4	0.0	110.82568502426147	
9	25.7327880859375	movie	1		301.0	7.0	2.5	/experiments/knapen_aot/videos/S_yt-kAUL5o7i5mo_116.mp4	0.0	110.83377504348755	2.508427858352661
9	28.24121594429016	fix_post	2		12.0	7.0	2.5	/experiments/knapen_aot/videos/S_yt-kAUL5o7i5mo_116.mp4	0.0	113.34220290184021	0.09999704360961914
10	28.34121298789978	fix_pre	0		82.0	8.0	2.5	/experiments/knapen_aot/videos/R_S_yt-2ftSsLqRQnA_84.mp4	0.0	113.44219994544983	0.6834840774536133
10	29.016273975372314	response	0	2		8.0	2.5	/experiments/knapen_aot/videos/R_S_yt-2ftSsLqRQnA_84.mp4	0.0	114.11726093292236	
10	29.024697065353394	movie	1		301.0	8.0	2.5	/experiments/knapen_aot/videos/R_S_yt-2ftSsLqRQnA_84.mp4	0.0	114.12568402290344	2.508085012435913
10	31.532782077789307	fix_post	2		12.0	8.0	2.5	/experiments/knapen_aot/videos/R_S_yt-2ftSsLqRQnA_84.mp4	0.0	116.63376903533936	0.09999585151672363
11	31.63277792930603	fix_pre	0		11.0	9.0	2.5	/experiments/knapen_aot/videos/S_yt-OdTWn1U1mO4_68.mp4	0.0	116.73376488685608	0.0916891098022461
11	31.71633505821228	response	0	2		9.0	2.5	/experiments/knapen_aot/videos/S_yt-OdTWn1U1mO4_68.mp4	0.0	116.81732201576233	
11	31.724467039108276	movie	1		300.0	9.0	2.5	/experiments/knapen_aot/videos/S_yt-OdTWn1U1mO4_68.mp4	0.0	116.82545399665833	2.5082778930664062
11	34.23274493217468	fix_post	2		12.0	9.0	2.5	/experiments/knapen_aot/videos/S_yt-OdTWn1U1mO4_68.mp4	0.0	119.33373188972473	0.10006999969482422
12	34.33281493186951	fix_pre	0		63.0	10.0	2.5	/experiments/knapen_aot/videos/S_G007_C004_UHD_SDR_2K_AVC.mp4	0.0	119.43380188941956	0.5249090194702148
12	34.849653005599976	response	0	2		10.0	2.5	/experiments/knapen_aot/videos/S_G007_C004_UHD_SDR_2K_AVC.mp4	0.0	119.95063996315002	
12	34.85772395133972	movie	1		170.0	10.0	2.5	/experiments/knapen_aot/videos/S_G007_C004_UHD_SDR_2K_AVC.mp4	0.0	119.95871090888977	2.5084340572357178
12	37.36615800857544	fix_post	2		12.0	10.0	2.5	/experiments/knapen_aot/videos/S_G007_C004_UHD_SDR_2K_AVC.mp4	0.0	122.46714496612549	0.09999799728393555
13	37.466156005859375	fix_pre	0		92.0	11.0	2.5	/experiments/knapen_aot/videos/R_S_yt-gaXgXGEanCk_140.mp4	0.0	122.56714296340942	0.7665579319000244
13	38.2245659828186	response	0	2		11.0	2.5	/experiments/knapen_aot/videos/R_S_yt-gaXgXGEanCk_140.mp4	0.0	123.32555294036865	
13	38.2327139377594	movie	1		301.0	11.0	2.5	/experiments/knapen_aot/videos/R_S_yt-gaXgXGEanCk_140.mp4	0.0	123.33370089530945	2.5084540843963623
13	40.74116802215576	fix_post	2		12.0	11.0	2.5	/experiments/knapen_aot/videos/R_S_yt-gaXgXGEanCk_140.mp4	0.0	125.84215497970581	0.0999748706817627
14	40.841142892837524	fix_pre	0		125.0	12.0	2.5	/experiments/knapen_aot/videos/S_yt-28ODBE9bVh0_44.mp4	0.0	125.94212985038757	1.0416231155395508
14	41.87458801269531	response	0	2		12.0	2.5	/experiments/knapen_aot/videos/S_yt-28ODBE9bVh0_44.mp4	0.0	126.97557497024536	
14	41.882766008377075	movie	1		301.0	12.0	2.5	/experiments/knapen_aot/videos/S_yt-28ODBE9bVh0_44.mp4	0.0	126.98375296592712	2.508275032043457
14	44.39104104042053	fix_post	2		12.0	12.0	2.5	/experiments/knapen_aot/videos/S_yt-28ODBE9bVh0_44.mp4	0.0	129.49202799797058	0.10007691383361816
15	44.49111795425415	fix_pre	0		21.0	13.0	2.5	/experiments/knapen_aot/videos/S_ILSVRC2015_train_00165011.mp4	0.0	129.5921049118042	0.17490601539611816
15	44.65786290168762	response	0	2		13.0	2.5	/experiments/knapen_aot/videos/S_ILSVRC2015_train_00165011.mp4	0.0	129.75884985923767	
15	44.66602396965027	movie	1		301.0	13.0	2.5	/experiments/knapen_aot/videos/S_ILSVRC2015_train_00165011.mp4	0.0	129.76701092720032	2.508350133895874
15	47.17437410354614	fix_post	2		12.0	13.0	2.5	/experiments/knapen_aot/videos/S_ILSVRC2015_train_00165011.mp4	0.0	132.2753610610962	0.10008978843688965
16	47.27446389198303	fix_pre	0		79.0	14.0	2.5	blank	1.0	132.37545084953308	0.6583101749420166
16	47.91709494590759	response	0	2		14.0	2.5	blank	1.0	133.01808190345764	
16	47.93277406692505	movie	1		301.0	14.0	2.5	blank	1.0	133.0337610244751	2.508323907852173
16	50.44109797477722	fix_post	2		12.0	14.0	2.5	blank	1.0	135.54208493232727	0.10000801086425781
17	50.54110598564148	fix_pre	0		68.0	15.0	2.5	/experiments/knapen_aot/videos/S_yt-7VVzNnp36DM_62.mp4	0.0	135.64209294319153	0.5665860176086426
17	51.09950304031372	response	0	2		15.0	2.5	/experiments/knapen_aot/videos/S_yt-7VVzNnp36DM_62.mp4	0.0	136.20048999786377	
17	51.10769200325012	movie	1		301.0	15.0	2.5	/experiments/knapen_aot/videos/S_yt-7VVzNnp36DM_62.mp4	0.0	136.20867896080017	2.5084309577941895
17	53.61612296104431	fix_post	2		12.0	15.0	2.5	/experiments/knapen_aot/videos/S_yt-7VVzNnp36DM_62.mp4	0.0	138.71710991859436	0.09993314743041992
18	53.71605610847473	fix_pre	0		130.0	16.0	2.5	/experiments/knapen_aot/videos/S_yt-EAMpitsjbbA_153.mp4	0.0	138.81704306602478	1.0833368301391602
18	54.79121804237366	response	0	2		16.0	2.5	/experiments/knapen_aot/videos/S_yt-EAMpitsjbbA_153.mp4	0.0	139.8922049999237	
18	54.79939293861389	movie	1		300.0	16.0	2.5	/experiments/knapen_aot/videos/S_yt-EAMpitsjbbA_153.mp4	0.0	139.90037989616394	2.50833797454834
18	57.30773091316223	fix_post	2		12.0	16.0	2.5	/experiments/knapen_aot/videos/S_yt-EAMpitsjbbA_153.mp4	0.0	142.40871787071228	0.09996914863586426
19	57.407700061798096	fix_pre	0		44.0	17.0	2.5	/experiments/knapen_aot/videos/R_S_yt-oVrkSsEpuvk_118.mp4	0.0	142.50868701934814	0.36669301986694336
19	57.76614999771118	response	0	2		17.0	2.5	/experiments/knapen_aot/videos/R_S_yt-oVrkSsEpuvk_118.mp4	0.0	142.86713695526123	
19	57.77439308166504	movie	1		301.0	17.0	2.5	/experiments/knapen_aot/videos/R_S_yt-oVrkSsEpuvk_118.mp4	0.0	142.8753800392151	2.5083088874816895
19	60.28270196914673	fix_post	2		12.0	17.0	2.5	/experiments/knapen_aot/videos/R_S_yt-oVrkSsEpuvk_118.mp4	0.0	145.38368892669678	0.09999608993530273
20	60.38269805908203	fix_pre	0		49.0	18.0	2.5	/experiments/knapen_aot/videos/R_S_yt-aSEKRE_FNaI_62.mp4	0.0	145.48368501663208	0.40833401679992676
20	60.78278994560242	response	0	2		18.0	2.5	/experiments/knapen_aot/videos/R_S_yt-aSEKRE_FNaI_62.mp4	0.0	145.88377690315247	
20	60.79103207588196	movie	1		301.0	18.0	2.5	/experiments/knapen_aot/videos/R_S_yt-aSEKRE_FNaI_62.mp4	0.0	145.892019033432	2.5082619190216064
20	63.299293994903564	fix_post	2		12.0	18.0	2.5	/experiments/knapen_aot/videos/R_S_yt-aSEKRE_FNaI_62.mp4	0.0	148.4002809524536	0.10001111030578613
21	63.39930510520935	fix_pre	0		144.0	19.0	2.5	/experiments/knapen_aot/videos/S_yt-7XDVHp75fu4_93.mp4	0.0	148.5002920627594	1.1999938488006592
21	64.59117197990417	response	0	2		19.0	2.5	/experiments/knapen_aot/videos/S_yt-7XDVHp75fu4_93.mp4	0.0	149.69215893745422	
21	64.59929895401001	movie	1		299.0	19.0	2.5	/experiments/knapen_aot/videos/S_yt-7XDVHp75fu4_93.mp4	0.0	149.70028591156006	2.5083279609680176
21	67.10762691497803	fix_post	2		12.0	19.0	2.5	/experiments/knapen_aot/videos/S_yt-7XDVHp75fu4_93.mp4	0.0	152.20861387252808	0.1000220775604248
22	67.20764899253845	fix_pre	0		39.0	20.0	2.5	blank	1.0	152.3086359500885	0.32598090171813965
22	67.52452206611633	response	0	2		20.0	2.5	blank	1.0	152.62550902366638	
22	67.53362989425659	movie	1		301.0	20.0	2.5	blank	1.0	152.63461685180664	2.5073142051696777
22	70.04094409942627	fix_post	2		12.0	20.0	2.5	blank	1.0	155.14193105697632	0.1000518798828125
23	70.14099597930908	fix_pre	0		73.0	21.0	2.5	/experiments/knapen_aot/videos/S_video-8.mp4	0.0	155.24198293685913	0.6083989143371582
23	70.74113893508911	response	0	2		21.0	2.5	/experiments/knapen_aot/videos/S_video-8.mp4	0.0	155.84212589263916	
23	70.74939489364624	movie	1		191.0	21.0	2.5	/experiments/knapen_aot/videos/S_video-8.mp4	0.0	155.8503818511963	2.508212089538574
23	73.25760698318481	fix_post	2		12.0	21.0	2.5	/experiments/knapen_aot/videos/S_video-8.mp4	0.0	158.35859394073486	0.09997391700744629
24	73.35758090019226	fix_pre	0		25.0	22.0	2.5	/experiments/knapen_aot/videos/S_gX_VbZnZO0k_13.mp4	0.0	158.4585678577423	0.20840120315551758
24	73.55773210525513	response	0	2		22.0	2.5	/experiments/knapen_aot/videos/S_gX_VbZnZO0k_13.mp4	0.0	158.65871906280518	
24	73.56598210334778	movie	1		301.0	22.0	2.5	/experiments/knapen_aot/videos/S_gX_VbZnZO0k_13.mp4	0.0	158.66696906089783	2.508314847946167
24	76.07429695129395	fix_post	2		12.0	22.0	2.5	/experiments/knapen_aot/videos/S_gX_VbZnZO0k_13.mp4	0.0	161.175283908844	0.10006904602050781
25	76.17436599731445	fix_pre	0		24.0	23.0	2.5	/experiments/knapen_aot/videos/R_S_ILSVRC2015_train_00451000.mp4	0.0	161.2753529548645	0.19989299774169922
25	76.36605095863342	response	0	2		23.0	2.5	/experiments/knapen_aot/videos/R_S_ILSVRC2015_train_00451000.mp4	0.0	161.46703791618347	
25	76.37425899505615	movie	1		301.0	23.0	2.5	/experiments/knapen_aot/videos/R_S_ILSVRC2015_train_00451000.mp4	0.0	161.4752459526062	2.5083370208740234
25	78.88259601593018	fix_post	2		12.0	23.0	2.5	/experiments/knapen_aot/videos/R_S_ILSVRC2015_train_00451000.mp4	0.0	163.98358297348022	0.09997892379760742
26	78.98257493972778	fix_pre	0		36.0	24.0	2.5	/experiments/knapen_aot/videos/S_yt-7XDVHp75fu4_93.mp4	0.0	164.08356189727783	0.3009500503540039
26	79.26693892478943	response	0	2		24.0	2.5	/experiments/knapen_aot/videos/S_yt-7XDVHp75fu4_93.mp4	0.0	164.36792588233948	
26	79.28352499008179	movie	1		299.0	24.0	2.5	/experiments/knapen_aot/videos/S_yt-7XDVHp75fu4_93.mp4	0.0	164.38451194763184	2.5074820518493652
26	81.79100704193115	fix_post	2		12.0	24.0	2.5	/experiments/knapen_aot/videos/S_yt-7XDVHp75fu4_93.mp4	0.0	166.8919939994812	0.09998798370361328
27	81.89099502563477	fix_pre	0		92.0	25.0	2.5	/experiments/knapen_aot/videos/S_yt-YlA-FPDylDE_100.mp4	0.0	166.99198198318481	0.7675149440765381
27	82.64939999580383	response	0	2		25.0	2.5	/experiments/knapen_aot/videos/S_yt-YlA-FPDylDE_100.mp4	0.0	167.75038695335388	
27	82.6585099697113	movie	1		301.0	25.0	2.5	/experiments/knapen_aot/videos/S_yt-YlA-FPDylDE_100.mp4	0.0	167.75949692726135	2.50748610496521
27	85.16599607467651	fix_post	2		12.0	25.0	2.5	/experiments/knapen_aot/videos/S_yt-YlA-FPDylDE_100.mp4	0.0	170.26698303222656	0.09997701644897461
28	85.26597309112549	fix_pre	0		38.0	26.0	2.5	blank	1.0	170.36696004867554	0.3166768550872803
28	85.56696796417236	response	0	2		26.0	2.5	blank	1.0	170.6679549217224	
28	85.58264994621277	movie	1		301.0	26.0	2.5	blank	1.0	170.68363690376282	2.508275032043457
28	88.09092497825623	fix_post	2		12.0	26.0	2.5	blank	1.0	173.19191193580627	0.10004210472106934
29	88.1909670829773	fix_pre	0		60.0	27.0	2.5	/experiments/knapen_aot/videos/S_ioSkDvwpEaU_35.mp4	0.0	173.29195404052734	0.4999849796295166
29	88.6751720905304	response	0	2		27.0	2.5	/experiments/knapen_aot/videos/S_ioSkDvwpEaU_35.mp4	0.0	173.77615904808044	
29	88.69095206260681	movie	1		301.0	27.0	2.5	/experiments/knapen_aot/videos/S_ioSkDvwpEaU_35.mp4	0.0	173.79193902015686	2.5083420276641846
29	91.199294090271	fix_post	2		12.0	27.0	2.5	/experiments/knapen_aot/videos/S_ioSkDvwpEaU_35.mp4	0.0	176.30028104782104	0.09996294975280762
30	91.2992570400238	fix_pre	0		35.0	28.0	2.5	/experiments/knapen_aot/videos/R_S_yt-hZxbKZ1WCVg_24.mp4	0.0	176.40024399757385	0.29165196418762207
30	91.58277797698975	response	0	2		28.0	2.5	/experiments/knapen_aot/videos/R_S_yt-hZxbKZ1WCVg_24.mp4	0.0	176.6837649345398	
30	91.59090900421143	movie	1		301.0	28.0	2.5	/experiments/knapen_aot/videos/R_S_yt-hZxbKZ1WCVg_24.mp4	0.0	176.69189596176147	2.508347988128662
30	94.09925699234009	fix_post	2		12.0	28.0	2.5	/experiments/knapen_aot/videos/R_S_yt-hZxbKZ1WCVg_24.mp4	0.0	179.20024394989014	0.100006103515625
31	94.19926309585571	fix_pre	0		20.0	29.0	2.5	/experiments/knapen_aot/videos/R_S_yt-OdTWn1U1mO4_68.mp4	0.0	179.30025005340576	0.1674818992614746
31	94.35769510269165	response	0	2		29.0	2.5	/experiments/knapen_aot/videos/R_S_yt-OdTWn1U1mO4_68.mp4	0.0	179.4586820602417	
31	94.36674499511719	movie	1		301.0	29.0	2.5	/experiments/knapen_aot/videos/R_S_yt-OdTWn1U1mO4_68.mp4	0.0	179.46773195266724	2.50752592086792
31	96.87427091598511	fix_post	2		12.0	29.0	2.5	/experiments/knapen_aot/videos/R_S_yt-OdTWn1U1mO4_68.mp4	0.0	181.97525787353516	0.09992814064025879
32	96.97419905662537	fix_pre	0		85.0	30.0	2.5	/experiments/knapen_aot/videos/R_S_yt-RKo978aBdzw_173.mp4	0.0	182.07518601417542	0.7083518505096436
32	97.67443799972534	response	0	2		30.0	2.5	/experiments/knapen_aot/videos/R_S_yt-RKo978aBdzw_173.mp4	0.0	182.7754249572754	
32	97.68255090713501	movie	1		301.0	30.0	2.5	/experiments/knapen_aot/videos/R_S_yt-RKo978aBdzw_173.mp4	0.0	182.78353786468506	2.5083000659942627
32	100.19085097312927	fix_post	2		12.0	30.0	2.5	/experiments/knapen_aot/videos/R_S_yt-RKo978aBdzw_173.mp4	0.0	185.29183793067932	0.09996700286865234
33	100.29081797599792	fix_pre	0		14.0	31.0	2.5	/experiments/knapen_aot/videos/R_S_nvbAwZOKBS8_23.mp4	0.0	185.39180493354797	0.11750006675720215
33	100.39930701255798	response	0	2		31.0	2.5	/experiments/knapen_aot/videos/R_S_nvbAwZOKBS8_23.mp4	0.0	185.50029397010803	
33	100.40831804275513	movie	1		301.0	31.0	2.5	/experiments/knapen_aot/videos/R_S_nvbAwZOKBS8_23.mp4	0.0	185.50930500030518	2.5075809955596924
33	102.91589903831482	fix_post	2		12.0	31.0	2.5	/experiments/knapen_aot/videos/R_S_nvbAwZOKBS8_23.mp4	0.0	188.01688599586487	0.09998393058776855
34	103.01588296890259	fix_pre	0		26.0	32.0	2.5	/experiments/knapen_aot/videos/S_yt-BW6jWEVbxxk_4.mp4	0.0	188.11686992645264	0.2166440486907959
34	103.22426390647888	response	0	2		32.0	2.5	/experiments/knapen_aot/videos/S_yt-BW6jWEVbxxk_4.mp4	0.0	188.32525086402893	
34	103.23252701759338	movie	1		301.0	32.0	2.5	/experiments/knapen_aot/videos/S_yt-BW6jWEVbxxk_4.mp4	0.0	188.33351397514343	2.5082969665527344
34	105.74082398414612	fix_post	2		12.0	32.0	2.5	/experiments/knapen_aot/videos/S_yt-BW6jWEVbxxk_4.mp4	0.0	190.84181094169617	0.09998202323913574
35	105.84080600738525	fix_pre	0		26.0	33.0	2.5	/experiments/knapen_aot/videos/R_S_ILSVRC2015_train_00572000.mp4	0.0	190.9417929649353	0.2167060375213623
35	106.04932308197021	response	0	2		33.0	2.5	/experiments/knapen_aot/videos/R_S_ILSVRC2015_train_00572000.mp4	0.0	191.15031003952026	
35	106.05751204490662	movie	1		301.0	33.0	2.5	/experiments/knapen_aot/videos/R_S_ILSVRC2015_train_00572000.mp4	0.0	191.15849900245667	2.508270025253296
35	108.56578207015991	fix_post	2		12.0	33.0	2.5	/experiments/knapen_aot/videos/R_S_ILSVRC2015_train_00572000.mp4	0.0	193.66676902770996	0.10004782676696777
36	108.66582989692688	fix_pre	0		28.0	34.0	2.5	blank	1.0	193.76681685447693	0.23323512077331543
36	108.89096593856812	response	0	2		34.0	2.5	blank	1.0	193.99195289611816	
36	108.8990650177002	movie	1		301.0	34.0	2.5	blank	1.0	194.00005197525024	2.508375883102417
36	111.40744090080261	fix_post	2		12.0	34.0	2.5	blank	1.0	196.50842785835266	0.10003304481506348
37	111.50747394561768	fix_pre	0		96.0	35.0	2.5	/experiments/knapen_aot/videos/S_yt-XtzmBXKYEWk_60.mp4	0.0	196.60846090316772	0.7999601364135742
37	112.29920196533203	response	0	2		35.0	2.5	/experiments/knapen_aot/videos/S_yt-XtzmBXKYEWk_60.mp4	0.0	197.40018892288208	
37	112.30743408203125	movie	1		300.0	35.0	2.5	/experiments/knapen_aot/videos/S_yt-XtzmBXKYEWk_60.mp4	0.0	197.4084210395813	2.5083389282226562
37	114.8157730102539	fix_post	2		12.0	35.0	2.5	/experiments/knapen_aot/videos/S_yt-XtzmBXKYEWk_60.mp4	0.0	199.91675996780396	0.10001492500305176
38	114.91578793525696	fix_pre	0		29.0	36.0	2.5	/experiments/knapen_aot/videos/R_S_yt-1ruRqcfBMw0_21.mp4	0.0	200.016774892807	0.242354154586792
38	115.14922308921814	response	0	2		36.0	2.5	/experiments/knapen_aot/videos/R_S_yt-1ruRqcfBMw0_21.mp4	0.0	200.2502100467682	
38	115.15814208984375	movie	1		301.0	36.0	2.5	/experiments/knapen_aot/videos/R_S_yt-1ruRqcfBMw0_21.mp4	0.0	200.2591290473938	2.5075910091400146
38	117.66573309898376	fix_post	2		12.0	36.0	2.5	/experiments/knapen_aot/videos/R_S_yt-1ruRqcfBMw0_21.mp4	0.0	202.7667200565338	0.10000991821289062
39	117.76574301719666	fix_pre	0		17.0	37.0	2.5	/experiments/knapen_aot/videos/S_ILSVRC2015_train_00569007.mp4	0.0	202.8667299747467	0.142441987991333
39	117.89926290512085	response	0	2		37.0	2.5	/experiments/knapen_aot/videos/S_ILSVRC2015_train_00569007.mp4	0.0	203.0002498626709	
39	117.90818500518799	movie	1		301.0	37.0	2.5	/experiments/knapen_aot/videos/S_ILSVRC2015_train_00569007.mp4	0.0	203.00917196273804	2.5075318813323975
39	120.41571688652039	fix_post	2		12.0	37.0	2.5	/experiments/knapen_aot/videos/S_ILSVRC2015_train_00569007.mp4	0.0	205.51670384407043	0.09997105598449707
40	120.51568794250488	fix_pre	0		102.0	38.0	2.5	/experiments/knapen_aot/videos/R_S_yt-fnE8kgUHUMI_64.mp4	0.0	205.61667490005493	0.850736141204834
40	121.35750699043274	response	0	2		38.0	2.5	/experiments/knapen_aot/videos/R_S_yt-fnE8kgUHUMI_64.mp4	0.0	206.4584939479828	
40	121.36642408370972	movie	1		298.0	38.0	2.5	/experiments/knapen_aot/videos/R_S_yt-fnE8kgUHUMI_64.mp4	0.0	206.46741104125977	2.507666826248169
40	123.87409090995789	fix_post	2		12.0	38.0	2.5	/experiments/knapen_aot/videos/R_S_yt-fnE8kgUHUMI_64.mp4	0.0	208.97507786750793	0.10009002685546875
41	123.97418093681335	fix_pre	0		28.0	39.0	2.5	/experiments/knapen_aot/videos/R_S_comp_A007_C017_01156B_v02_SDR_PS_20180925_SDR_2K_AVC.mp4	0.0	209.0751678943634	0.23325204849243164
41	124.19919395446777	response	0	2		39.0	2.5	/experiments/knapen_aot/videos/R_S_comp_A007_C017_01156B_v02_SDR_PS_20180925_SDR_2K_AVC.mp4	0.0	209.30018091201782	
41	124.20743298530579	movie	1		166.0	39.0	2.5	/experiments/knapen_aot/videos/R_S_comp_A007_C017_01156B_v02_SDR_PS_20180925_SDR_2K_AVC.mp4	0.0	209.30841994285583	2.5082900524139404
41	126.71572303771973	fix_post	2		12.0	39.0	2.5	/experiments/knapen_aot/videos/R_S_comp_A007_C017_01156B_v02_SDR_PS_20180925_SDR_2K_AVC.mp4	0.0	211.81670999526978	0.09997391700744629
42	126.81569695472717	fix_pre	0		38.0	40.0	2.5	blank	1.0	211.91668391227722	0.3166799545288086
42	127.12423706054688	response	0	2		40.0	2.5	blank	1.0	212.22522401809692	
42	127.13237690925598	movie	1		301.0	40.0	2.5	blank	1.0	212.23336386680603	2.508324146270752
42	129.64070105552673	fix_post	2		12.0	40.0	2.5	blank	1.0	214.74168801307678	0.09998393058776855
43	129.7406849861145	fix_pre	0		45.0	41.0	2.5	/experiments/knapen_aot/videos/R_S_yt-3JApfnMu5cU_378.mp4	0.0	214.84167194366455	0.3757779598236084
43	130.10745906829834	response	0	2		41.0	2.5	/experiments/knapen_aot/videos/R_S_yt-3JApfnMu5cU_378.mp4	0.0	215.2084460258484	
43	130.1164629459381	movie	1		301.0	41.0	2.5	/experiments/knapen_aot/videos/R_S_yt-3JApfnMu5cU_378.mp4	0.0	215.21744990348816	2.507634162902832
43	132.62409710884094	fix_post	2		12.0	41.0	2.5	/experiments/knapen_aot/videos/R_S_yt-3JApfnMu5cU_378.mp4	0.0	217.725084066391	0.09994077682495117
44	132.7240378856659	fix_pre	0		39.0	42.0	2.5	/experiments/knapen_aot/videos/S_yt-AKnqtBjARlM_118.mp4	0.0	217.82502484321594	0.32497620582580566
44	133.04084396362305	response	0	2		42.0	2.5	/experiments/knapen_aot/videos/S_yt-AKnqtBjARlM_118.mp4	0.0	218.1418309211731	
44	133.0490140914917	movie	1		301.0	42.0	2.5	/experiments/knapen_aot/videos/S_yt-AKnqtBjARlM_118.mp4	0.0	218.15000104904175	2.5083839893341064
44	135.5573980808258	fix_post	2		12.0	42.0	2.5	/experiments/knapen_aot/videos/S_yt-AKnqtBjARlM_118.mp4	0.0	220.65838503837585	0.09998393058776855
45	135.65738201141357	fix_pre	0		23.0	43.0	2.5	/experiments/knapen_aot/videos/S_yt-xrWo3lnbshw_80.mp4	0.0	220.75836896896362	0.191849946975708
45	135.84082102775574	response	0	2		43.0	2.5	/experiments/knapen_aot/videos/S_yt-xrWo3lnbshw_80.mp4	0.0	220.9418079853058	
45	135.84923195838928	movie	1		301.0	43.0	2.5	/experiments/knapen_aot/videos/S_yt-xrWo3lnbshw_80.mp4	0.0	220.95021891593933	2.5081639289855957
45	138.2325348854065	response	1	2		43.0	2.5	/experiments/knapen_aot/videos/S_yt-xrWo3lnbshw_80.mp4	0.0	223.33352184295654	
45	138.35739588737488	fix_post	2		12.0	43.0	2.5	/experiments/knapen_aot/videos/S_yt-xrWo3lnbshw_80.mp4	0.0	223.45838284492493	0.09998011589050293
46	138.45737600326538	fix_pre	0		137.0	44.0	2.5	/experiments/knapen_aot/videos/S_yt-TBY8F6UMnJQ_51.mp4	0.0	223.55836296081543	1.1416358947753906
46	139.59078001976013	response	0	2		44.0	2.5	/experiments/knapen_aot/videos/S_yt-TBY8F6UMnJQ_51.mp4	0.0	224.69176697731018	
46	139.59901189804077	movie	1		301.0	44.0	2.5	/experiments/knapen_aot/videos/S_yt-TBY8F6UMnJQ_51.mp4	0.0	224.69999885559082	2.5083680152893066
46	142.10737991333008	fix_post	2		12.0	44.0	2.5	/experiments/knapen_aot/videos/S_yt-TBY8F6UMnJQ_51.mp4	0.0	227.20836687088013	0.09998106956481934
47	142.2073609828949	fix_pre	0		13.0	45.0	2.5	/experiments/knapen_aot/videos/R_S_yt-oVrkSsEpuvk_118.mp4	0.0	227.30834794044495	0.10834312438964844
47	142.30740094184875	response	0	2		45.0	2.5	/experiments/knapen_aot/videos/R_S_yt-oVrkSsEpuvk_118.mp4	0.0	227.4083878993988	
47	142.31570410728455	movie	1		301.0	45.0	2.5	/experiments/knapen_aot/videos/R_S_yt-oVrkSsEpuvk_118.mp4	0.0	227.4166910648346	2.508342981338501
47	144.82404708862305	fix_post	2		12.0	45.0	2.5	/experiments/knapen_aot/videos/R_S_yt-oVrkSsEpuvk_118.mp4	0.0	229.9250340461731	0.09995698928833008
48	144.92400407791138	fix_pre	0		19.0	46.0	2.5	/experiments/knapen_aot/videos/R_S_production_ID_4765899.mp4	0.0	230.02499103546143	0.15831398963928223
48	145.0740990638733	response	0	2		46.0	2.5	/experiments/knapen_aot/videos/R_S_production_ID_4765899.mp4	0.0	230.17508602142334	
48	145.08231806755066	movie	1		176.0	46.0	2.5	/experiments/knapen_aot/videos/R_S_production_ID_4765899.mp4	0.0	230.1833050251007	2.5083630084991455
48	147.5906810760498	fix_post	2		12.0	46.0	2.5	/experiments/knapen_aot/videos/R_S_production_ID_4765899.mp4	0.0	232.69166803359985	0.09998202323913574
49	147.69066309928894	fix_pre	0		21.0	47.0	2.5	/experiments/knapen_aot/videos/R_S_production_ID_5119260.mp4	0.0	232.791650056839	0.1755228042602539
49	147.85742497444153	response	0	2		47.0	2.5	/experiments/knapen_aot/videos/R_S_production_ID_5119260.mp4	0.0	232.95841193199158	
49	147.8661859035492	movie	1		170.0	47.0	2.5	/experiments/knapen_aot/videos/R_S_production_ID_5119260.mp4	0.0	232.96717286109924	2.50769305229187
49	150.37387895584106	fix_post	2		12.0	47.0	2.5	/experiments/knapen_aot/videos/R_S_production_ID_5119260.mp4	0.0	235.4748659133911	0.10009598731994629
50	150.473974943161	fix_pre	0		12.0	48.0	2.5	blank	1.0	235.57496190071106	0.10049796104431152
50	150.56577491760254	response	0	2		48.0	2.5	blank	1.0	235.6667618751526	
50	150.57447290420532	movie	1		301.0	48.0	2.5	blank	1.0	235.67545986175537	2.507765054702759
50	153.08223795890808	fix_post	2		12.0	48.0	2.5	blank	1.0	238.18322491645813	0.10011100769042969
51	153.1823489665985	fix_pre	0		22.0	49.0	2.5	/experiments/knapen_aot/videos/R_S_pexels-vlada-karpovich-8044792.mp4	0.0	238.28333592414856	0.18381094932556152
51	153.35733890533447	response	0	2		49.0	2.5	/experiments/knapen_aot/videos/R_S_pexels-vlada-karpovich-8044792.mp4	0.0	238.45832586288452	
51	153.36615991592407	movie	1		165.0	49.0	2.5	/experiments/knapen_aot/videos/R_S_pexels-vlada-karpovich-8044792.mp4	0.0	238.46714687347412	2.5077550411224365
51	155.8739149570465	fix_post	2		12.0	49.0	2.5	/experiments/knapen_aot/videos/R_S_pexels-vlada-karpovich-8044792.mp4	0.0	240.97490191459656	0.1000509262084961
52	155.973965883255	fix_pre	0		11.0	50.0	2.5	/experiments/knapen_aot/videos/S_yt-lzXao6Reec4_14.mp4	0.0	241.07495284080505	0.09160399436950684
52	156.05738306045532	response	0	2		50.0	2.5	/experiments/knapen_aot/videos/S_yt-lzXao6Reec4_14.mp4	0.0	241.15837001800537	
52	156.0655698776245	movie	1		301.0	50.0	2.5	/experiments/knapen_aot/videos/S_yt-lzXao6Reec4_14.mp4	0.0	241.16655683517456	2.5083160400390625
52	158.57388591766357	fix_post	2		12.0	50.0	2.5	/experiments/knapen_aot/videos/S_yt-lzXao6Reec4_14.mp4	0.0	243.67487287521362	0.10001516342163086
53	158.6739010810852	fix_pre	0		29.0	51.0	2.5	/experiments/knapen_aot/videos/R_S_pexels-anastasia-shuraeva-601407_2.mp4	0.0	243.77488803863525	0.24166393280029297
53	158.9074831008911	response	0	2		51.0	2.5	/experiments/knapen_aot/videos/R_S_pexels-anastasia-shuraeva-601407_2.mp4	0.0	244.00847005844116	
53	158.9155650138855	movie	1		186.0	51.0	2.5	/experiments/knapen_aot/videos/R_S_pexels-anastasia-shuraeva-601407_2.mp4	0.0	244.01655197143555	2.5083250999450684
53	161.42389011383057	fix_post	2		12.0	51.0	2.5	/experiments/knapen_aot/videos/R_S_pexels-anastasia-shuraeva-601407_2.mp4	0.0	246.52487707138062	0.10002589225769043
54	161.52391600608826	fix_pre	0		95.0	52.0	2.5	/experiments/knapen_aot/videos/R_S_yt-wjBwgccZM5k_150.mp4	0.0	246.6249029636383	0.7917189598083496
54	162.30745697021484	response	0	2		52.0	2.5	/experiments/knapen_aot/videos/R_S_yt-wjBwgccZM5k_150.mp4	0.0	247.4084439277649	
54	162.3156349658966	movie	1		301.0	52.0	2.5	/experiments/knapen_aot/videos/R_S_yt-wjBwgccZM5k_150.mp4	0.0	247.41662192344666	2.5083119869232178
54	164.82394695281982	fix_post	2		12.0	52.0	2.5	/experiments/knapen_aot/videos/R_S_yt-wjBwgccZM5k_150.mp4	0.0	249.92493391036987	0.09999799728393555
55	164.92394495010376	fix_pre	0		23.0	53.0	2.5	/experiments/knapen_aot/videos/S_production_ID_5119260.mp4	0.0	250.0249319076538	0.1921069622039795
55	165.10746502876282	response	0	2		53.0	2.5	/experiments/knapen_aot/videos/S_production_ID_5119260.mp4	0.0	250.20845198631287	
55	165.11605191230774	movie	1		165.0	53.0	2.5	/experiments/knapen_aot/videos/S_production_ID_5119260.mp4	0.0	250.2170388698578	2.507883071899414
55	167.62393498420715	fix_post	2		12.0	53.0	2.5	/experiments/knapen_aot/videos/S_production_ID_5119260.mp4	0.0	252.7249219417572	0.09998893737792969
56	167.72392392158508	fix_pre	0		41.0	54.0	2.5	/experiments/knapen_aot/videos/R_S_yt-aSEKRE_FNaI_62.mp4	0.0	252.82491087913513	0.34163999557495117
56	168.05729293823242	response	0	2		54.0	2.5	/experiments/knapen_aot/videos/R_S_yt-aSEKRE_FNaI_62.mp4	0.0	253.15827989578247	
56	168.06556391716003	movie	1		301.0	54.0	2.5	/experiments/knapen_aot/videos/R_S_yt-aSEKRE_FNaI_62.mp4	0.0	253.16655087471008	2.5083529949188232
56	170.57391691207886	fix_post	2		12.0	54.0	2.5	/experiments/knapen_aot/videos/R_S_yt-aSEKRE_FNaI_62.mp4	0.0	255.6749038696289	0.09998106956481934
57	170.67389798164368	fix_pre	0		23.0	55.0	2.5	blank	1.0	255.77488493919373	0.19208312034606934
57	170.8572518825531	response	0	2		55.0	2.5	blank	1.0	255.95823884010315	
57	170.86598110198975	movie	1		301.0	55.0	2.5	blank	1.0	255.9669680595398	2.5078959465026855
57	173.37387704849243	fix_post	2		12.0	55.0	2.5	blank	1.0	258.4748640060425	0.1000678539276123
58	173.47394490242004	fix_pre	0		61.0	56.0	2.5	/experiments/knapen_aot/videos/R_S_yt-RKo978aBdzw_173.mp4	0.0	258.5749318599701	0.5082800388336182
58	173.9739968776703	response	0	2		56.0	2.5	/experiments/knapen_aot/videos/R_S_yt-RKo978aBdzw_173.mp4	0.0	259.07498383522034	
58	173.98222494125366	movie	1		298.0	56.0	2.5	/experiments/knapen_aot/videos/R_S_yt-RKo978aBdzw_173.mp4	0.0	259.0832118988037	2.5082850456237793
58	176.49050998687744	fix_post	2		12.0	56.0	2.5	/experiments/knapen_aot/videos/R_S_yt-RKo978aBdzw_173.mp4	0.0	261.5914969444275	0.10003089904785156
59	176.5905408859253	fix_pre	0		35.0	57.0	2.5	/experiments/knapen_aot/videos/S_wc-ikynRrpJVaWp_12.mp4	0.0	261.69152784347534	0.2917490005493164
59	176.8740429878235	response	0	2		57.0	2.5	/experiments/knapen_aot/videos/S_wc-ikynRrpJVaWp_12.mp4	0.0	261.97502994537354	
59	176.8822898864746	movie	1		166.0	57.0	2.5	/experiments/knapen_aot/videos/S_wc-ikynRrpJVaWp_12.mp4	0.0	261.98327684402466	2.5081911087036133
59	179.39048099517822	fix_post	2		12.0	57.0	2.5	/experiments/knapen_aot/videos/S_wc-ikynRrpJVaWp_12.mp4	0.0	264.49146795272827	0.09999704360961914
60	179.49047803878784	fix_pre	0		27.0	58.0	2.5	/experiments/knapen_aot/videos/S_yt-hZxbKZ1WCVg_24.mp4	0.0	264.5914649963379	0.24169707298278809
60	179.724191904068	response	0	2		58.0	2.5	/experiments/knapen_aot/videos/S_yt-hZxbKZ1WCVg_24.mp4	0.0	264.82517886161804	
60	179.73217511177063	movie	1		301.0	58.0	2.5	/experiments/knapen_aot/videos/S_yt-hZxbKZ1WCVg_24.mp4	0.0	264.8331620693207	2.5083558559417725
60	182.2405309677124	fix_post	2		12.0	58.0	2.5	/experiments/knapen_aot/videos/S_yt-hZxbKZ1WCVg_24.mp4	0.0	267.34151792526245	0.10000205039978027
61	182.34053301811218	fix_pre	0		29.0	59.0	2.5	/experiments/knapen_aot/videos/S_yt-4RKOPaRF42o_124.mp4	0.0	267.44151997566223	0.24161696434020996
61	182.5739688873291	response	0	2		59.0	2.5	/experiments/knapen_aot/videos/S_yt-4RKOPaRF42o_124.mp4	0.0	267.67495584487915	
61	182.5821499824524	movie	1		301.0	59.0	2.5	/experiments/knapen_aot/videos/S_yt-4RKOPaRF42o_124.mp4	0.0	267.68313694000244	2.508341073989868
61	185.09049105644226	fix_post	2		12.0	59.0	2.5	/experiments/knapen_aot/videos/S_yt-4RKOPaRF42o_124.mp4	0.0	270.1914780139923	0.10000801086425781
62	185.19049906730652	fix_pre	0		140.0	60.0	2.5	/experiments/knapen_aot/videos/S_pexels-c-technical-6763571.mp4	0.0	270.29148602485657	1.166651964187622
62	186.34897589683533	response	0	2		60.0	2.5	/experiments/knapen_aot/videos/S_pexels-c-technical-6763571.mp4	0.0	271.4499628543854	
62	186.35715103149414	movie	1		194.0	60.0	2.5	/experiments/knapen_aot/videos/S_pexels-c-technical-6763571.mp4	0.0	271.4581379890442	2.508362054824829
62	188.86551308631897	fix_post	2		12.0	60.0	2.5	/experiments/knapen_aot/videos/S_pexels-c-technical-6763571.mp4	0.0	273.966500043869	0.09993791580200195
63	188.96545100212097	fix_pre	0		34.0	61.0	2.5	/experiments/knapen_aot/videos/R_S_yt-mQESmS4uqRU_208.mp4	0.0	274.066437959671	0.2834150791168213
63	189.24101901054382	response	0	2		61.0	2.5	/experiments/knapen_aot/videos/R_S_yt-mQESmS4uqRU_208.mp4	0.0	274.3420059680939	
63	189.2488660812378	movie	1		301.0	61.0	2.5	/experiments/knapen_aot/videos/R_S_yt-mQESmS4uqRU_208.mp4	0.0	274.34985303878784	2.508213996887207
63	191.757080078125	fix_post	2		12.0	61.0	2.5	/experiments/knapen_aot/videos/R_S_yt-mQESmS4uqRU_208.mp4	0.0	276.85806703567505	0.09997987747192383
64	191.85705995559692	fix_pre	0		5.0	62.0	2.5	/experiments/knapen_aot/videos/R_S_ioSkDvwpEaU_35.mp4	0.0	276.958046913147	0.0434110164642334
64	191.8907289505005	response	0	2		62.0	2.5	/experiments/knapen_aot/videos/R_S_ioSkDvwpEaU_35.mp4	0.0	276.99171590805054	
64	191.90047097206116	movie	1		301.0	62.0	2.5	/experiments/knapen_aot/videos/R_S_ioSkDvwpEaU_35.mp4	0.0	277.0014579296112	2.5070340633392334
64	194.4075050354004	fix_post	2		12.0	62.0	2.5	/experiments/knapen_aot/videos/R_S_ioSkDvwpEaU_35.mp4	0.0	279.50849199295044	0.09961104393005371
65	194.50711607933044	fix_pre	0		71.0	63.0	2.5	blank	1.0	279.6081030368805	0.5916199684143066
65	195.0906059741974	response	0	2		63.0	2.5	blank	1.0	280.19159293174744	
65	195.09873604774475	movie	1		301.0	63.0	2.5	blank	1.0	280.1997230052948	2.5085229873657227
65	197.60725903511047	fix_post	2		12.0	63.0	2.5	blank	1.0	282.7082459926605	0.0998539924621582
66	197.70711302757263	fix_pre	0		22.0	64.0	2.5	/experiments/knapen_aot/videos/S_yt-HwGg4-zeWi8_364.mp4	0.0	282.8080999851227	0.1833350658416748
66	197.88222908973694	response	0	2		64.0	2.5	/experiments/knapen_aot/videos/S_yt-HwGg4-zeWi8_364.mp4	0.0	282.983216047287	
66	197.8904480934143	movie	1		300.0	64.0	2.5	/experiments/knapen_aot/videos/S_yt-HwGg4-zeWi8_364.mp4	0.0	282.99143505096436	2.5083048343658447
66	200.39875292778015	fix_post	2		12.0	64.0	2.5	/experiments/knapen_aot/videos/S_yt-HwGg4-zeWi8_364.mp4	0.0	285.4997398853302	0.09998607635498047
67	200.49873900413513	fix_pre	0		82.0	65.0	2.5	/experiments/knapen_aot/videos/S_yt-jzDaQD-g168_103.mp4	0.0	285.5997259616852	0.6832780838012695
67	201.1738429069519	response	0	2		65.0	2.5	/experiments/knapen_aot/videos/S_yt-jzDaQD-g168_103.mp4	0.0	286.27482986450195	
67	201.1820170879364	movie	1		301.0	65.0	2.5	/experiments/knapen_aot/videos/S_yt-jzDaQD-g168_103.mp4	0.0	286.28300404548645	2.50846791267395
67	203.69048500061035	fix_post	2		12.0	65.0	2.5	/experiments/knapen_aot/videos/S_yt-jzDaQD-g168_103.mp4	0.0	288.7914719581604	0.09997892379760742
68	203.79046392440796	fix_pre	0		17.0	66.0	2.5	/experiments/knapen_aot/videos/R_S_pexels-tima-miroshnichenko-5717005.mp4	0.0	288.891450881958	0.14155101776123047
68	203.91647005081177	response	0	2		66.0	2.5	/experiments/knapen_aot/videos/R_S_pexels-tima-miroshnichenko-5717005.mp4	0.0	289.0174570083618	
68	203.9320149421692	movie	1		171.0	66.0	2.5	/experiments/knapen_aot/videos/R_S_pexels-tima-miroshnichenko-5717005.mp4	0.0	289.03300189971924	2.5083680152893066
68	206.4403829574585	fix_post	2		12.0	66.0	2.5	/experiments/knapen_aot/videos/R_S_pexels-tima-miroshnichenko-5717005.mp4	0.0	291.54136991500854	0.10004806518554688
69	206.54043102264404	fix_pre	0		22.0	67.0	2.5	/experiments/knapen_aot/videos/R_S_yt-cokedWwwYYs_136.mp4	0.0	291.6414179801941	0.1832730770111084
69	206.7154529094696	response	0	2		67.0	2.5	/experiments/knapen_aot/videos/R_S_yt-cokedWwwYYs_136.mp4	0.0	291.81643986701965	
69	206.72370409965515	movie	1		301.0	67.0	2.5	/experiments/knapen_aot/videos/R_S_yt-cokedWwwYYs_136.mp4	0.0	291.8246910572052	2.508370876312256
69	209.2320749759674	fix_post	2		12.0	67.0	2.5	/experiments/knapen_aot/videos/R_S_yt-cokedWwwYYs_136.mp4	0.0	294.33306193351746	0.10001492500305176
70	209.33208990097046	fix_pre	0		10.0	68.0	2.5	/experiments/knapen_aot/videos/S_yt-gzjV6YoK6X0_3.mp4	0.0	294.4330768585205	0.08329200744628906
70	209.40721797943115	response	0	2		68.0	2.5	/experiments/knapen_aot/videos/S_yt-gzjV6YoK6X0_3.mp4	0.0	294.5082049369812	
70	209.41538190841675	movie	1		301.0	68.0	2.5	/experiments/knapen_aot/videos/S_yt-gzjV6YoK6X0_3.mp4	0.0	294.5163688659668	2.5083320140838623
70	211.9237139225006	fix_post	2		12.0	68.0	2.5	/experiments/knapen_aot/videos/S_yt-gzjV6YoK6X0_3.mp4	0.0	297.02470088005066	0.10001111030578613
71	212.0237250328064	fix_pre	0		6.0	69.0	2.5	/experiments/knapen_aot/videos/S_yt-AHbFln6blfE_36.mp4	0.0	297.12471199035645	0.050598859786987305
71	212.05880689620972	response	0	2		69.0	2.5	/experiments/knapen_aot/videos/S_yt-AHbFln6blfE_36.mp4	0.0	297.15979385375977	
71	212.07432389259338	movie	1		301.0	69.0	2.5	/experiments/knapen_aot/videos/S_yt-AHbFln6blfE_36.mp4	0.0	297.17531085014343	2.507723093032837
71	214.58204698562622	fix_post	2		12.0	69.0	2.5	/experiments/knapen_aot/videos/S_yt-AHbFln6blfE_36.mp4	0.0	299.68303394317627	0.10004997253417969
72	214.6820969581604	fix_pre	0		15.0	70.0	2.5	blank	1.0	299.78308391571045	0.1248941421508789
72	214.7988579273224	response	0	2		70.0	2.5	blank	1.0	299.89984488487244	
72	214.80699110031128	movie	1		301.0	70.0	2.5	blank	1.0	299.9079780578613	2.5084149837493896
72	217.31540608406067	fix_post	2		12.0	70.0	2.5	blank	1.0	302.4163930416107	0.09991788864135742
73	217.41532397270203	fix_pre	0		22.0	71.0	2.5	/experiments/knapen_aot/videos/R_S_yt-GfPep7IhZIU_47.mp4	0.0	302.5163109302521	0.183380126953125
73	217.5829210281372	response	0	2		71.0	2.5	/experiments/knapen_aot/videos/R_S_yt-GfPep7IhZIU_47.mp4	0.0	302.68390798568726	
73	217.59870409965515	movie	1		301.0	71.0	2.5	/experiments/knapen_aot/videos/R_S_yt-GfPep7IhZIU_47.mp4	0.0	302.6996910572052	2.5082969665527344
73	220.10700106620789	fix_post	2		12.0	71.0	2.5	/experiments/knapen_aot/videos/R_S_yt-GfPep7IhZIU_47.mp4	0.0	305.20798802375793	0.09997797012329102
74	220.20697903633118	fix_pre	0		1.0	72.0	2.5	/experiments/knapen_aot/videos/R_S_yt-8vm83GUgYxI_1.mp4	0.0	305.3079659938812	0.008355855941772461
74	220.20863103866577	response	0	2		72.0	2.5	/experiments/knapen_aot/videos/R_S_yt-8vm83GUgYxI_1.mp4	0.0	305.3096179962158	
74	220.21533489227295	movie	1		298.0	72.0	2.5	/experiments/knapen_aot/videos/R_S_yt-8vm83GUgYxI_1.mp4	0.0	305.316321849823	2.508316993713379
74	222.72365188598633	fix_post	2		12.0	72.0	2.5	/experiments/knapen_aot/videos/R_S_yt-8vm83GUgYxI_1.mp4	0.0	307.8246388435364	0.10012316703796387
75	222.8237750530243	fix_pre	0		11.0	73.0	2.5	/experiments/knapen_aot/videos/S_yt-yJmHtBFyhH4_15.mp4	0.0	307.92476201057434	0.09152102470397949
75	222.90716910362244	response	0	2		73.0	2.5	/experiments/knapen_aot/videos/S_yt-yJmHtBFyhH4_15.mp4	0.0	308.0081560611725	
75	222.91529607772827	movie	1		301.0	73.0	2.5	/experiments/knapen_aot/videos/S_yt-yJmHtBFyhH4_15.mp4	0.0	308.0162830352783	2.5083539485931396
75	225.4236500263214	fix_post	2		12.0	73.0	2.5	/experiments/knapen_aot/videos/S_yt-yJmHtBFyhH4_15.mp4	0.0	310.52463698387146	0.1000058650970459
76	225.52365589141846	fix_pre	0		32.0	74.0	2.5	/experiments/knapen_aot/videos/S_yt-EAMpitsjbbA_153.mp4	0.0	310.6246428489685	0.266599178314209
76	225.77451395988464	response	0	2		74.0	2.5	/experiments/knapen_aot/videos/S_yt-EAMpitsjbbA_153.mp4	0.0	310.8755009174347	
76	225.79025506973267	movie	1		301.0	74.0	2.5	/experiments/knapen_aot/videos/S_yt-EAMpitsjbbA_153.mp4	0.0	310.8912420272827	2.5084378719329834
76	228.29869294166565	fix_post	2		12.0	74.0	2.5	/experiments/knapen_aot/videos/S_yt-EAMpitsjbbA_153.mp4	0.0	313.3996798992157	0.09998297691345215
77	228.3986759185791	fix_pre	0		18.0	75.0	2.5	blank	1.0	313.49966287612915	0.14994215965270996
77	228.5404191017151	response	0	2		75.0	2.5	blank	1.0	313.64140605926514	
77	228.5486180782318	movie	1		301.0	75.0	2.5	blank	1.0	313.64960503578186	2.508327007293701
77	231.0569450855255	fix_post	2		12.0	75.0	2.5	blank	1.0	316.15793204307556	0.10016989707946777
78	231.15711498260498	fix_pre	0		27.0	76.0	2.5	/experiments/knapen_aot/videos/S_yt-3DM_SqT4RII_10.mp4	0.0	316.25810194015503	0.22482895851135254
78	231.37380599975586	response	0	2		76.0	2.5	/experiments/knapen_aot/videos/S_yt-3DM_SqT4RII_10.mp4	0.0	316.4747929573059	
78	231.38194394111633	movie	1		301.0	76.0	2.5	/experiments/knapen_aot/videos/S_yt-3DM_SqT4RII_10.mp4	0.0	316.4829308986664	2.508284091949463
78	233.8902280330658	fix_post	2		12.0	76.0	2.5	/experiments/knapen_aot/videos/S_yt-3DM_SqT4RII_10.mp4	0.0	318.99121499061584	0.10020089149475098
79	233.99042892456055	fix_pre	0		3.0	77.0	2.5	/experiments/knapen_aot/videos/R_S_pexels-mikhail-nilov-8410063_1.mp4	0.0	319.0914158821106	0.024886131286621094
79	234.00711488723755	response	0	2		77.0	2.5	/experiments/knapen_aot/videos/R_S_pexels-mikhail-nilov-8410063_1.mp4	0.0	319.1081018447876	
79	234.01531505584717	movie	1		167.0	77.0	2.5	/experiments/knapen_aot/videos/R_S_pexels-mikhail-nilov-8410063_1.mp4	0.0	319.1163020133972	2.5082998275756836
79	236.52361488342285	fix_post	2		12.0	77.0	2.5	/experiments/knapen_aot/videos/R_S_pexels-mikhail-nilov-8410063_1.mp4	0.0	321.6246018409729	0.09989118576049805
80	236.62350606918335	fix_pre	0		76.0	78.0	2.5	/experiments/knapen_aot/videos/S_yt-6aqg1P9YqR8_38.mp4	0.0	321.7244930267334	0.6334309577941895
80	237.24872088432312	response	0	2		78.0	2.5	/experiments/knapen_aot/videos/S_yt-6aqg1P9YqR8_38.mp4	0.0	322.34970784187317	
80	237.25693702697754	movie	1		301.0	78.0	2.5	/experiments/knapen_aot/videos/S_yt-6aqg1P9YqR8_38.mp4	0.0	322.3579239845276	2.5083210468292236
80	239.76525807380676	fix_post	2		12.0	78.0	2.5	/experiments/knapen_aot/videos/S_yt-6aqg1P9YqR8_38.mp4	0.0	324.8662450313568	0.10002899169921875
81	239.86528706550598	fix_pre	0		67.0	79.0	2.5	/experiments/knapen_aot/videos/R_S_yt-AKnqtBjARlM_118.mp4	0.0	324.96627402305603	0.5582919120788574
81	240.415344953537	response	0	2		79.0	2.5	/experiments/knapen_aot/videos/R_S_yt-AKnqtBjARlM_118.mp4	0.0	325.51633191108704	
81	240.42357897758484	movie	1		300.0	79.0	2.5	/experiments/knapen_aot/videos/R_S_yt-AKnqtBjARlM_118.mp4	0.0	325.5245659351349	2.5083460807800293
81	242.93192505836487	fix_post	2		12.0	79.0	2.5	/experiments/knapen_aot/videos/R_S_yt-AKnqtBjARlM_118.mp4	0.0	328.0329120159149	0.10010385513305664
82	243.03202891349792	fix_pre	0		57.0	80.0	2.5	/experiments/knapen_aot/videos/R_S_yt-nqRBIR8dFYc_328.mp4	0.0	328.133015871048	0.4748990535736084
82	243.49873995780945	response	0	2		80.0	2.5	/experiments/knapen_aot/videos/R_S_yt-nqRBIR8dFYc_328.mp4	0.0	328.5997269153595	
82	243.50692796707153	movie	1		301.0	80.0	2.5	/experiments/knapen_aot/videos/R_S_yt-nqRBIR8dFYc_328.mp4	0.0	328.6079149246216	2.5083439350128174
82	246.01527190208435	fix_post	2		12.0	80.0	2.5	/experiments/knapen_aot/videos/R_S_yt-nqRBIR8dFYc_328.mp4	0.0	331.1162588596344	0.10002803802490234
83	246.11529994010925	fix_pre	0		47.0	81.0	2.5	/experiments/knapen_aot/videos/R_S_ILSVRC2015_train_00762000.mp4	0.0	331.2162868976593	0.391772985458374
83	246.4986970424652	response	0	2		81.0	2.5	/experiments/knapen_aot/videos/R_S_ILSVRC2015_train_00762000.mp4	0.0	331.59968400001526	
83	246.50707292556763	movie	1		301.0	81.0	2.5	/experiments/knapen_aot/videos/R_S_ILSVRC2015_train_00762000.mp4	0.0	331.6080598831177	2.5081751346588135
83	249.01524806022644	fix_post	2		12.0	81.0	2.5	/experiments/knapen_aot/videos/R_S_ILSVRC2015_train_00762000.mp4	0.0	334.1162350177765	0.1000208854675293
84	249.11526894569397	fix_pre	0		21.0	82.0	2.5	blank	1.0	334.216255903244	0.17499208450317383
84	249.28205490112305	response	0	2		82.0	2.5	blank	1.0	334.3830418586731	
84	249.29026103019714	movie	1		301.0	82.0	2.5	blank	1.0	334.3912479877472	2.5082950592041016
84	251.79855608940125	fix_post	2		12.0	82.0	2.5	blank	1.0	336.8995430469513	0.09999299049377441
85	251.89854907989502	fix_pre	0		29.0	83.0	2.5	/experiments/knapen_aot/videos/R_S_yt-6aqg1P9YqR8_38.mp4	0.0	336.99953603744507	0.24158596992492676
85	252.12443709373474	response	0	2		83.0	2.5	/experiments/knapen_aot/videos/R_S_yt-6aqg1P9YqR8_38.mp4	0.0	337.2254240512848	
85	252.14013504981995	movie	1		301.0	83.0	2.5	/experiments/knapen_aot/videos/R_S_yt-6aqg1P9YqR8_38.mp4	0.0	337.24112200737	2.5083789825439453
85	254.6485140323639	fix_post	2		12.0	83.0	2.5	/experiments/knapen_aot/videos/R_S_yt-6aqg1P9YqR8_38.mp4	0.0	339.74950098991394	0.10001301765441895
87	254.7485270500183	stim	0		288.0					339.84951400756836	2.3999898433685303
87	254.95697808265686	response	0	2						340.0579650402069	
87	257.14095997810364	response	0	space						342.2419469356537	
