trial_nr	onset	event_type	phase	response	nr_frames	movie_index	movie_duration	movie_file	blank	onset_abs	duration
0	0.15591788291931152	stim	0		34.0					80.87410593032837	0.28360509872436523
0	0.4314589500427246	response	0	space						81.14964699745178	
1	0.43952298164367676	stim	0		121.0					81.15771102905273	1.007986068725586
1	1.047672986984253	response	0	space						81.76586103439331	
1	1.4475090503692627	stim	1		120.0					82.16569709777832	1.0000348091125488
1	1.5317490100860596	response	1	space						82.24993705749512	
1	1.9058918952941895	response	1	space						82.62407994270325	
1	2.3059239387512207	response	1	space						83.02411198616028	
2	2.4475438594818115	fix_pre	0		36.0	0.0	2.5	/experiments/knapen_aot/oldvideos/S_yt-t8NfuFA7OlM_26.mp4	0.0	83.16573190689087	0.2999551296234131
2	2.7393388748168945	response	0	space		0.0	2.5	/experiments/knapen_aot/oldvideos/S_yt-t8NfuFA7OlM_26.mp4	0.0	83.45752692222595	
2	2.7474989891052246	movie	1		300.0	0.0	2.5	/experiments/knapen_aot/oldvideos/S_yt-t8NfuFA7OlM_26.mp4	0.0	83.46568703651428	2.5084569454193115
2	5.255955934524536	fix_post	2		12.0	0.0	2.5	/experiments/knapen_aot/oldvideos/S_yt-t8NfuFA7OlM_26.mp4	0.0	85.9741439819336	0.09990096092224121
3	5.355856895446777	fix_pre	0		10.0	1.0	2.5	/experiments/knapen_aot/oldvideos/R_S_yt-7Ya-rGPO8cM_159.mp4	0.0	86.07404494285583	0.08824515342712402
3	5.435176849365234	response	0	4		1.0	2.5	/experiments/knapen_aot/oldvideos/R_S_yt-7Ya-rGPO8cM_159.mp4	0.0	86.15336489677429	
3	5.444102048873901	movie	1		293.0	1.0	2.5	/experiments/knapen_aot/oldvideos/R_S_yt-7Ya-rGPO8cM_159.mp4	0.0	86.16229009628296	2.5034048557281494
3	7.947506904602051	fix_post	2		12.0	1.0	2.5	/experiments/knapen_aot/oldvideos/R_S_yt-7Ya-rGPO8cM_159.mp4	0.0	88.66569495201111	0.10003805160522461
4	8.047544956207275	fix_pre	0		21.0	2.0	2.5	/experiments/knapen_aot/oldvideos/S_yt-9yxWUrtQJnw_11.mp4	0.0	88.76573300361633	0.17497897148132324
4	8.214345932006836	response	0	4		2.0	2.5	/experiments/knapen_aot/oldvideos/S_yt-9yxWUrtQJnw_11.mp4	0.0	88.9325339794159	
4	8.222523927688599	movie	1		301.0	2.0	2.5	/experiments/knapen_aot/oldvideos/S_yt-9yxWUrtQJnw_11.mp4	0.0	88.94071197509766	2.5083959102630615
4	10.73091983795166	fix_post	2		12.0	2.0	2.5	/experiments/knapen_aot/oldvideos/S_yt-9yxWUrtQJnw_11.mp4	0.0	91.44910788536072	0.09991312026977539
5	10.830832958221436	fix_pre	0		13.0	3.0	2.5	/experiments/knapen_aot/oldvideos/R_S_ILSVRC2015_train_00044004.mp4	0.0	91.5490210056305	0.10828995704650879
5	10.93101191520691	response	0	4		3.0	2.5	/experiments/knapen_aot/oldvideos/R_S_ILSVRC2015_train_00044004.mp4	0.0	91.64919996261597	
5	10.939122915267944	movie	1		300.0	3.0	2.5	/experiments/knapen_aot/oldvideos/R_S_ILSVRC2015_train_00044004.mp4	0.0	91.657310962677	2.508405923843384
5	13.447528839111328	fix_post	2		12.0	3.0	2.5	/experiments/knapen_aot/oldvideos/R_S_ILSVRC2015_train_00044004.mp4	0.0	94.16571688652039	0.10063719749450684
6	13.548166036605835	fix_pre	0		7.0	4.0	2.5	/experiments/knapen_aot/oldvideos/S_comp_H004_C007_PS_v02_SDR_PS_20180925_SDR_2K_AVC.mp4	0.0	94.26635408401489	0.05766582489013672
6	13.597564935684204	response	0	4		4.0	2.5	/experiments/knapen_aot/oldvideos/S_comp_H004_C007_PS_v02_SDR_PS_20180925_SDR_2K_AVC.mp4	0.0	94.31575298309326	
6	13.605831861495972	movie	1		170.0	4.0	2.5	/experiments/knapen_aot/oldvideos/S_comp_H004_C007_PS_v02_SDR_PS_20180925_SDR_2K_AVC.mp4	0.0	94.32401990890503	2.508305072784424
6	16.114136934280396	fix_post	2		12.0	4.0	2.5	/experiments/knapen_aot/oldvideos/S_comp_H004_C007_PS_v02_SDR_PS_20180925_SDR_2K_AVC.mp4	0.0	96.83232498168945	0.1006309986114502
7	16.214767932891846	fix_pre	0		8.0	5.0	2.5	blank	1.0	96.9329559803009	0.06604599952697754
7	16.272608041763306	response	0	2		5.0	2.5	blank	1.0	96.99079608917236	
7	16.280813932418823	movie	1		301.0	5.0	2.5	blank	1.0	96.99900197982788	2.5083401203155518
7	18.76425004005432	response	1	4		5.0	2.5	blank	1.0	99.48243808746338	
7	18.789154052734375	fix_post	2		12.0	5.0	2.5	blank	1.0	99.50734210014343	0.10007381439208984
8	18.889227867126465	fix_pre	0		13.0	6.0	2.5	/experiments/knapen_aot/oldvideos/S_yt-AOP7QYQntPI_28.mp4	0.0	99.60741591453552	0.10822105407714844
8	18.98914384841919	response	0	4		6.0	2.5	/experiments/knapen_aot/oldvideos/S_yt-AOP7QYQntPI_28.mp4	0.0	99.70733189582825	
8	18.997448921203613	movie	1		301.0	6.0	2.5	/experiments/knapen_aot/oldvideos/S_yt-AOP7QYQntPI_28.mp4	0.0	99.71563696861267	2.5083580017089844
8	20.350847959518433	response	1	4		6.0	2.5	/experiments/knapen_aot/oldvideos/S_yt-AOP7QYQntPI_28.mp4	0.0	101.06903600692749	
8	20.555975914001465	response	1	4		6.0	2.5	/experiments/knapen_aot/oldvideos/S_yt-AOP7QYQntPI_28.mp4	0.0	101.27416396141052	
8	20.717891931533813	response	1	4		6.0	2.5	/experiments/knapen_aot/oldvideos/S_yt-AOP7QYQntPI_28.mp4	0.0	101.43607997894287	
8	21.422549962997437	response	1	4		6.0	2.5	/experiments/knapen_aot/oldvideos/S_yt-AOP7QYQntPI_28.mp4	0.0	102.1407380104065	
8	21.505806922912598	fix_post	2		12.0	6.0	2.5	/experiments/knapen_aot/oldvideos/S_yt-AOP7QYQntPI_28.mp4	0.0	102.22399497032166	0.09994792938232422
9	21.605754852294922	fix_pre	0		9.0	7.0	2.5	/experiments/knapen_aot/oldvideos/R_S_yt-aSEKRE_FNaI_62.mp4	0.0	102.32394289970398	0.07497620582580566
9	21.672539949417114	response	0	4		7.0	2.5	/experiments/knapen_aot/oldvideos/R_S_yt-aSEKRE_FNaI_62.mp4	0.0	102.39072799682617	
9	21.680731058120728	movie	1		301.0	7.0	2.5	/experiments/knapen_aot/oldvideos/R_S_yt-aSEKRE_FNaI_62.mp4	0.0	102.39891910552979	2.508417844772339
9	24.189148902893066	fix_post	2		12.0	7.0	2.5	/experiments/knapen_aot/oldvideos/R_S_yt-aSEKRE_FNaI_62.mp4	0.0	104.90733695030212	0.09996795654296875
10	24.289116859436035	fix_pre	0		20.0	8.0	2.5	/experiments/knapen_aot/oldvideos/S_yt-foGMTdxewBI_43.mp4	0.0	105.00730490684509	0.1667490005493164
10	24.44747495651245	response	0	4		8.0	2.5	/experiments/knapen_aot/oldvideos/S_yt-foGMTdxewBI_43.mp4	0.0	105.16566300392151	
10	24.45586585998535	movie	1		301.0	8.0	2.5	/experiments/knapen_aot/oldvideos/S_yt-foGMTdxewBI_43.mp4	0.0	105.17405390739441	2.5082180500030518
10	26.964083909988403	fix_post	2		12.0	8.0	2.5	/experiments/knapen_aot/oldvideos/S_yt-foGMTdxewBI_43.mp4	0.0	107.68227195739746	0.10001993179321289
11	27.064103841781616	fix_pre	0		12.0	9.0	2.5	/experiments/knapen_aot/oldvideos/R_S_ILSVRC2015_train_00569006.mp4	0.0	107.78229188919067	0.09995102882385254
11	27.15587592124939	response	0	4		9.0	2.5	/experiments/knapen_aot/oldvideos/R_S_ILSVRC2015_train_00569006.mp4	0.0	107.87406396865845	
11	27.16405487060547	movie	1		301.0	9.0	2.5	/experiments/knapen_aot/oldvideos/R_S_ILSVRC2015_train_00569006.mp4	0.0	107.88224291801453	2.508419990539551
11	29.67247486114502	fix_post	2		12.0	9.0	2.5	/experiments/knapen_aot/oldvideos/R_S_ILSVRC2015_train_00569006.mp4	0.0	110.39066290855408	0.0999760627746582
12	29.772450923919678	fix_pre	0		19.0	10.0	2.5	/experiments/knapen_aot/oldvideos/S_yt-CeOZeB1LXwE_79.mp4	0.0	110.49063897132874	0.1582810878753662
12	29.922505855560303	response	0	4		10.0	2.5	/experiments/knapen_aot/oldvideos/S_yt-CeOZeB1LXwE_79.mp4	0.0	110.64069390296936	
12	29.930732011795044	movie	1		301.0	10.0	2.5	/experiments/knapen_aot/oldvideos/S_yt-CeOZeB1LXwE_79.mp4	0.0	110.6489200592041	2.508357048034668
12	32.43908905982971	fix_post	2		12.0	10.0	2.5	/experiments/knapen_aot/oldvideos/S_yt-CeOZeB1LXwE_79.mp4	0.0	113.15727710723877	0.10004591941833496
13	32.53913497924805	fix_pre	0		10.0	11.0	2.5	/experiments/knapen_aot/oldvideos/S_yt-jQrMcUCmAaM_44.mp4	0.0	113.2573230266571	0.083251953125
13	32.61422085762024	response	0	4		11.0	2.5	/experiments/knapen_aot/oldvideos/S_yt-jQrMcUCmAaM_44.mp4	0.0	113.3324089050293	
13	32.62238693237305	movie	1		301.0	11.0	2.5	/experiments/knapen_aot/oldvideos/S_yt-jQrMcUCmAaM_44.mp4	0.0	113.3405749797821	2.5083189010620117
13	34.88908290863037	response	1	4		11.0	2.5	/experiments/knapen_aot/oldvideos/S_yt-jQrMcUCmAaM_44.mp4	0.0	115.60727095603943	
13	35.05576491355896	response	1	4		11.0	2.5	/experiments/knapen_aot/oldvideos/S_yt-jQrMcUCmAaM_44.mp4	0.0	115.77395296096802	
13	35.13070583343506	fix_post	2		12.0	11.0	2.5	/experiments/knapen_aot/oldvideos/S_yt-jQrMcUCmAaM_44.mp4	0.0	115.84889388084412	0.10008502006530762
14	35.230790853500366	fix_pre	0		1.0	12.0	2.5	/experiments/knapen_aot/oldvideos/R_S_yt-GWO7FHN1Jb4_142.mp4	0.0	115.94897890090942	0.008161067962646484
14	35.2243869304657	response	0	4		12.0	2.5	/experiments/knapen_aot/oldvideos/R_S_yt-GWO7FHN1Jb4_142.mp4	0.0	115.94257497787476	
14	35.23895192146301	movie	1		301.0	12.0	2.5	/experiments/knapen_aot/oldvideos/R_S_yt-GWO7FHN1Jb4_142.mp4	0.0	115.95713996887207	2.5084779262542725
14	35.426416873931885	response	1	4		12.0	2.5	/experiments/knapen_aot/oldvideos/R_S_yt-GWO7FHN1Jb4_142.mp4	0.0	116.14460492134094	
14	35.60568594932556	response	1	4		12.0	2.5	/experiments/knapen_aot/oldvideos/R_S_yt-GWO7FHN1Jb4_142.mp4	0.0	116.32387399673462	
14	37.73070788383484	response	1	4		12.0	2.5	/experiments/knapen_aot/oldvideos/R_S_yt-GWO7FHN1Jb4_142.mp4	0.0	118.4488959312439	
14	37.747429847717285	fix_post	2		12.0	12.0	2.5	/experiments/knapen_aot/oldvideos/R_S_yt-GWO7FHN1Jb4_142.mp4	0.0	118.46561789512634	0.09991908073425293
15	37.84734892845154	fix_pre	0		11.0	13.0	2.5	blank	1.0	118.5655369758606	0.09171509742736816
15	37.93074893951416	response	0	4		13.0	2.5	blank	1.0	118.64893698692322	
15	37.939064025878906	movie	1		301.0	13.0	2.5	blank	1.0	118.65725207328796	2.508302927017212
15	40.44736695289612	fix_post	2		12.0	13.0	2.5	blank	1.0	121.16555500030518	0.09997200965881348
16	40.54733896255493	fix_pre	0		20.0	14.0	2.5	/experiments/knapen_aot/oldvideos/S_yt-Tt_LkR4iAt4_11.mp4	0.0	121.26552700996399	0.1670520305633545
16	40.70582604408264	response	0	4		14.0	2.5	/experiments/knapen_aot/oldvideos/S_yt-Tt_LkR4iAt4_11.mp4	0.0	121.4240140914917	
16	40.714390993118286	movie	1		301.0	14.0	2.5	/experiments/knapen_aot/oldvideos/S_yt-Tt_LkR4iAt4_11.mp4	0.0	121.43257904052734	2.5079760551452637
16	43.22236704826355	fix_post	2		12.0	14.0	2.5	/experiments/knapen_aot/oldvideos/S_yt-Tt_LkR4iAt4_11.mp4	0.0	123.94055509567261	0.0999748706817627
17	43.32234191894531	fix_pre	0		7.0	15.0	2.5	/experiments/knapen_aot/oldvideos/R_S_yt-2ftSsLqRQnA_84.mp4	0.0	124.04052996635437	0.058825016021728516
17	43.37237286567688	response	0	4		15.0	2.5	/experiments/knapen_aot/oldvideos/R_S_yt-2ftSsLqRQnA_84.mp4	0.0	124.09056091308594	
17	43.38116693496704	movie	1		301.0	15.0	2.5	/experiments/knapen_aot/oldvideos/R_S_yt-2ftSsLqRQnA_84.mp4	0.0	124.0993549823761	2.5078840255737305
17	45.71446394920349	response	1	4		15.0	2.5	/experiments/knapen_aot/oldvideos/R_S_yt-2ftSsLqRQnA_84.mp4	0.0	126.43265199661255	
17	45.88905096054077	fix_post	2		12.0	15.0	2.5	/experiments/knapen_aot/oldvideos/R_S_yt-2ftSsLqRQnA_84.mp4	0.0	126.60723900794983	0.10005807876586914
17	45.890641927719116	response	2	4		15.0	2.5	/experiments/knapen_aot/oldvideos/R_S_yt-2ftSsLqRQnA_84.mp4	0.0	126.60882997512817	
18	45.98910903930664	fix_pre	0		12.0	16.0	2.5	/experiments/knapen_aot/oldvideos/R_S_yt-XtzmBXKYEWk_60.mp4	0.0	126.7072970867157	0.10028696060180664
18	46.080742835998535	response	0	4		16.0	2.5	/experiments/knapen_aot/oldvideos/R_S_yt-XtzmBXKYEWk_60.mp4	0.0	126.79893088340759	
18	46.08939599990845	movie	1		301.0	16.0	2.5	/experiments/knapen_aot/oldvideos/R_S_yt-XtzmBXKYEWk_60.mp4	0.0	126.8075840473175	2.5079288482666016
18	48.57254600524902	response	1	4		16.0	2.5	/experiments/knapen_aot/oldvideos/R_S_yt-XtzmBXKYEWk_60.mp4	0.0	129.29073405265808	
18	48.59732484817505	fix_post	2		12.0	16.0	2.5	/experiments/knapen_aot/oldvideos/R_S_yt-XtzmBXKYEWk_60.mp4	0.0	129.3155128955841	0.10001611709594727
19	48.697340965270996	fix_pre	0		9.0	17.0	2.5	/experiments/knapen_aot/oldvideos/S_ILSVRC2015_train_00251004.mp4	0.0	129.41552901268005	0.07494401931762695
19	48.76402497291565	response	0	4		17.0	2.5	/experiments/knapen_aot/oldvideos/S_ILSVRC2015_train_00251004.mp4	0.0	129.4822130203247	
19	48.77228498458862	movie	1		301.0	17.0	2.5	/experiments/knapen_aot/oldvideos/S_ILSVRC2015_train_00251004.mp4	0.0	129.49047303199768	2.5083749294281006
19	51.19730806350708	response	1	4		17.0	2.5	/experiments/knapen_aot/oldvideos/S_ILSVRC2015_train_00251004.mp4	0.0	131.91549611091614	
19	51.280659914016724	fix_post	2		12.0	17.0	2.5	/experiments/knapen_aot/oldvideos/S_ILSVRC2015_train_00251004.mp4	0.0	131.99884796142578	0.10010600090026855
20	51.38076591491699	fix_pre	0		2.0	18.0	2.5	/experiments/knapen_aot/oldvideos/R_S_yt-O6FS0xnF0CU_106.mp4	0.0	132.09895396232605	0.01656508445739746
20	51.38904285430908	response	0	4		18.0	2.5	/experiments/knapen_aot/oldvideos/R_S_yt-O6FS0xnF0CU_106.mp4	0.0	132.10723090171814	
20	51.39733099937439	movie	1		301.0	18.0	2.5	/experiments/knapen_aot/oldvideos/R_S_yt-O6FS0xnF0CU_106.mp4	0.0	132.11551904678345	2.5083508491516113
20	51.555773973464966	response	1	4		18.0	2.5	/experiments/knapen_aot/oldvideos/R_S_yt-O6FS0xnF0CU_106.mp4	0.0	132.27396202087402	
20	51.71769094467163	response	1	4		18.0	2.5	/experiments/knapen_aot/oldvideos/R_S_yt-O6FS0xnF0CU_106.mp4	0.0	132.4358789920807	
20	53.905681848526	fix_post	2		12.0	18.0	2.5	/experiments/knapen_aot/oldvideos/R_S_yt-O6FS0xnF0CU_106.mp4	0.0	134.62386989593506	0.1007239818572998
20	53.96408486366272	response	2	4		18.0	2.5	/experiments/knapen_aot/oldvideos/R_S_yt-O6FS0xnF0CU_106.mp4	0.0	134.68227291107178	
21	54.0064058303833	fix_pre	0		15.0	19.0	2.5	blank	1.0	134.72459387779236	0.12471914291381836
21	54.12237882614136	response	0	4		19.0	2.5	blank	1.0	134.84056687355042	
21	54.13112497329712	movie	1		301.0	19.0	2.5	blank	1.0	134.84931302070618	2.5078768730163574
21	56.105746030807495	response	1	4		19.0	2.5	blank	1.0	136.82393407821655	
21	56.26405882835388	response	1	4		19.0	2.5	blank	1.0	136.98224687576294	
21	56.46403193473816	response	1	4		19.0	2.5	blank	1.0	137.18221998214722	
21	56.63900184631348	fix_post	2		12.0	19.0	2.5	blank	1.0	137.35718989372253	0.09998798370361328
21	56.64834403991699	response	2	4		19.0	2.5	blank	1.0	137.36653208732605	
22	56.73898983001709	fix_pre	0		11.0	20.0	2.5	/experiments/knapen_aot/oldvideos/R_S_yt-RlHmMGUjT9E_130.mp4	0.0	137.45717787742615	0.09162020683288574
22	56.822391986846924	response	0	4		20.0	2.5	/experiments/knapen_aot/oldvideos/R_S_yt-RlHmMGUjT9E_130.mp4	0.0	137.54058003425598	
22	56.830610036849976	movie	1		301.0	20.0	2.5	/experiments/knapen_aot/oldvideos/R_S_yt-RlHmMGUjT9E_130.mp4	0.0	137.54879808425903	2.508373975753784
22	57.01404905319214	response	1	4		20.0	2.5	/experiments/knapen_aot/oldvideos/R_S_yt-RlHmMGUjT9E_130.mp4	0.0	137.7322371006012	
22	59.33898401260376	fix_post	2		12.0	20.0	2.5	/experiments/knapen_aot/oldvideos/R_S_yt-RlHmMGUjT9E_130.mp4	0.0	140.05717206001282	0.10018801689147949
22	59.39738583564758	response	2	2		20.0	2.5	/experiments/knapen_aot/oldvideos/R_S_yt-RlHmMGUjT9E_130.mp4	0.0	140.11557388305664	
23	59.43917202949524	fix_pre	0		24.0	21.0	2.5	/experiments/knapen_aot/oldvideos/R_S_yt-Zn0YwrsCFOQ_44.mp4	0.0	140.1573600769043	0.19975686073303223
23	59.6307008266449	response	0	2		21.0	2.5	/experiments/knapen_aot/oldvideos/R_S_yt-Zn0YwrsCFOQ_44.mp4	0.0	140.34888887405396	
23	59.63892889022827	movie	1		301.0	21.0	2.5	/experiments/knapen_aot/oldvideos/R_S_yt-Zn0YwrsCFOQ_44.mp4	0.0	140.35711693763733	2.508358955383301
23	59.80918598175049	response	1	2		21.0	2.5	/experiments/knapen_aot/oldvideos/R_S_yt-Zn0YwrsCFOQ_44.mp4	0.0	140.52737402915955	
23	62.14728784561157	fix_post	2		12.0	21.0	2.5	/experiments/knapen_aot/oldvideos/R_S_yt-Zn0YwrsCFOQ_44.mp4	0.0	142.86547589302063	0.10004115104675293
24	62.247328996658325	fix_pre	0		7.0	22.0	2.5	/experiments/knapen_aot/oldvideos/R_S_yt-STL3ejY9u_Q_73.mp4	0.0	142.96551704406738	0.06437993049621582
24	62.29740500450134	response	0	4		22.0	2.5	/experiments/knapen_aot/oldvideos/R_S_yt-STL3ejY9u_Q_73.mp4	0.0	143.0155930519104	
24	62.31170892715454	movie	1		300.0	22.0	2.5	/experiments/knapen_aot/oldvideos/R_S_yt-STL3ejY9u_Q_73.mp4	0.0	143.0298969745636	2.502286911010742
24	64.33932089805603	response	1	4		22.0	2.5	/experiments/knapen_aot/oldvideos/R_S_yt-STL3ejY9u_Q_73.mp4	0.0	145.0575089454651	
24	64.54071998596191	response	1	4		22.0	2.5	/experiments/knapen_aot/oldvideos/R_S_yt-STL3ejY9u_Q_73.mp4	0.0	145.25890803337097	
24	64.70569705963135	response	1	4		22.0	2.5	/experiments/knapen_aot/oldvideos/R_S_yt-STL3ejY9u_Q_73.mp4	0.0	145.4238851070404	
24	64.81399583816528	fix_post	2		12.0	22.0	2.5	/experiments/knapen_aot/oldvideos/R_S_yt-STL3ejY9u_Q_73.mp4	0.0	145.53218388557434	0.09998917579650879
24	64.89743685722351	response	2	4		22.0	2.5	/experiments/knapen_aot/oldvideos/R_S_yt-STL3ejY9u_Q_73.mp4	0.0	145.61562490463257	
25	64.91398501396179	fix_pre	0		26.0	23.0	2.5	/experiments/knapen_aot/oldvideos/R_S_bing-vimeo_com_161378598_22.mp4	0.0	145.63217306137085	0.21704697608947754
25	65.12238502502441	response	0	4		23.0	2.5	/experiments/knapen_aot/oldvideos/R_S_bing-vimeo_com_161378598_22.mp4	0.0	145.84057307243347	
25	65.13103199005127	movie	1		166.0	23.0	2.5	/experiments/knapen_aot/oldvideos/R_S_bing-vimeo_com_161378598_22.mp4	0.0	145.84922003746033	2.5078959465026855
25	67.63892793655396	fix_post	2		12.0	23.0	2.5	/experiments/knapen_aot/oldvideos/R_S_bing-vimeo_com_161378598_22.mp4	0.0	148.357115983963	0.09999895095825195
25	67.73067784309387	response	2	4		23.0	2.5	/experiments/knapen_aot/oldvideos/R_S_bing-vimeo_com_161378598_22.mp4	0.0	148.44886589050293	
26	67.7389268875122	fix_pre	0		23.0	24.0	2.5	/experiments/knapen_aot/oldvideos/R_S_comp_H004_C007_PS_v02_SDR_PS_20180925_SDR_2K_AVC.mp4	0.0	148.45711493492126	0.19162607192993164
26	67.92236685752869	response	0	4		24.0	2.5	/experiments/knapen_aot/oldvideos/R_S_comp_H004_C007_PS_v02_SDR_PS_20180925_SDR_2K_AVC.mp4	0.0	148.64055490493774	
26	67.93055295944214	movie	1		167.0	24.0	2.5	/experiments/knapen_aot/oldvideos/R_S_comp_H004_C007_PS_v02_SDR_PS_20180925_SDR_2K_AVC.mp4	0.0	148.6487410068512	2.508384943008423
26	70.43893790245056	fix_post	2		12.0	24.0	2.5	/experiments/knapen_aot/oldvideos/R_S_comp_H004_C007_PS_v02_SDR_PS_20180925_SDR_2K_AVC.mp4	0.0	151.15712594985962	0.1000070571899414
27	70.5389449596405	fix_pre	0		3.0	25.0	2.5	/experiments/knapen_aot/oldvideos/S_yt-w_e3sxIzepA_27.mp4	0.0	151.25713300704956	0.024997949600219727
27	70.55576086044312	response	0	4		25.0	2.5	/experiments/knapen_aot/oldvideos/S_yt-w_e3sxIzepA_27.mp4	0.0	151.27394890785217	
27	70.56394290924072	movie	1		301.0	25.0	2.5	/experiments/knapen_aot/oldvideos/S_yt-w_e3sxIzepA_27.mp4	0.0	151.28213095664978	2.5083179473876953
27	72.930743932724	response	1	4		25.0	2.5	/experiments/knapen_aot/oldvideos/S_yt-w_e3sxIzepA_27.mp4	0.0	153.64893198013306	
27	73.07226085662842	fix_post	2		12.0	25.0	2.5	/experiments/knapen_aot/oldvideos/S_yt-w_e3sxIzepA_27.mp4	0.0	153.79044890403748	0.10023617744445801
27	73.13069701194763	response	2	4		25.0	2.5	/experiments/knapen_aot/oldvideos/S_yt-w_e3sxIzepA_27.mp4	0.0	153.8488850593567	
28	73.17249703407288	fix_pre	0		16.0	26.0	2.5	/experiments/knapen_aot/oldvideos/S_yt-1H8sfkZGZK8_3.mp4	0.0	153.89068508148193	0.13305401802062988
28	73.29731893539429	response	0	4		26.0	2.5	/experiments/knapen_aot/oldvideos/S_yt-1H8sfkZGZK8_3.mp4	0.0	154.01550698280334	
28	73.3055510520935	movie	1		301.0	26.0	2.5	/experiments/knapen_aot/oldvideos/S_yt-1H8sfkZGZK8_3.mp4	0.0	154.02373909950256	2.5083839893341064
28	75.81393504142761	fix_post	2		12.0	26.0	2.5	/experiments/knapen_aot/oldvideos/S_yt-1H8sfkZGZK8_3.mp4	0.0	156.53212308883667	0.0999758243560791
29	75.91391086578369	fix_pre	0		5.0	27.0	2.5	blank	1.0	156.63209891319275	0.041625022888183594
29	75.94738793373108	response	0	4		27.0	2.5	blank	1.0	156.66557598114014	
29	75.95553588867188	movie	1		301.0	27.0	2.5	blank	1.0	156.67372393608093	2.5083670616149902
29	76.13896894454956	response	1	4		27.0	2.5	blank	1.0	156.85715699195862	
29	78.22231388092041	response	1	4		27.0	2.5	blank	1.0	158.94050192832947	
29	78.42225384712219	response	1	4		27.0	2.5	blank	1.0	159.14044189453125	
29	78.46390295028687	fix_post	2		12.0	27.0	2.5	blank	1.0	159.18209099769592	0.0999898910522461
30	78.56389284133911	fix_pre	0		7.0	28.0	2.5	/experiments/knapen_aot/oldvideos/S_ILSVRC2015_train_00538001.mp4	0.0	159.28208088874817	0.0583040714263916
30	78.61395382881165	response	0	4		28.0	2.5	/experiments/knapen_aot/oldvideos/S_ILSVRC2015_train_00538001.mp4	0.0	159.3321418762207	
30	78.6221969127655	movie	1		301.0	28.0	2.5	/experiments/knapen_aot/oldvideos/S_ILSVRC2015_train_00538001.mp4	0.0	159.34038496017456	2.5083811283111572
30	78.797602891922	response	1	4		28.0	2.5	/experiments/knapen_aot/oldvideos/S_ILSVRC2015_train_00538001.mp4	0.0	159.51579093933105	
30	80.74900984764099	response	1	4		28.0	2.5	/experiments/knapen_aot/oldvideos/S_ILSVRC2015_train_00538001.mp4	0.0	161.46719789505005	
30	80.97498202323914	response	1	4		28.0	2.5	/experiments/knapen_aot/oldvideos/S_ILSVRC2015_train_00538001.mp4	0.0	161.6931700706482	
30	81.13057804107666	fix_post	2		12.0	28.0	2.5	/experiments/knapen_aot/oldvideos/S_ILSVRC2015_train_00538001.mp4	0.0	161.84876608848572	0.10000181198120117
30	81.18894505500793	response	2	4		28.0	2.5	/experiments/knapen_aot/oldvideos/S_ILSVRC2015_train_00538001.mp4	0.0	161.907133102417	
31	81.23057985305786	fix_pre	0		20.0	29.0	2.5	/experiments/knapen_aot/oldvideos/S_yt-RlHmMGUjT9E_130.mp4	0.0	161.94876790046692	0.16657209396362305
31	81.388995885849	response	0	4		29.0	2.5	/experiments/knapen_aot/oldvideos/S_yt-RlHmMGUjT9E_130.mp4	0.0	162.10718393325806	
31	81.39715194702148	movie	1		301.0	29.0	2.5	/experiments/knapen_aot/oldvideos/S_yt-RlHmMGUjT9E_130.mp4	0.0	162.11533999443054	2.5084691047668457
31	83.27237606048584	response	1	4		29.0	2.5	/experiments/knapen_aot/oldvideos/S_yt-RlHmMGUjT9E_130.mp4	0.0	163.9905641078949	
31	83.49888491630554	response	1	4		29.0	2.5	/experiments/knapen_aot/oldvideos/S_yt-RlHmMGUjT9E_130.mp4	0.0	164.2170729637146	
31	83.70067286491394	response	1	4		29.0	2.5	/experiments/knapen_aot/oldvideos/S_yt-RlHmMGUjT9E_130.mp4	0.0	164.418860912323	
31	83.8806140422821	response	1	4		29.0	2.5	/experiments/knapen_aot/oldvideos/S_yt-RlHmMGUjT9E_130.mp4	0.0	164.59880208969116	
31	83.90562105178833	fix_post	2		12.0	29.0	2.5	/experiments/knapen_aot/oldvideos/S_yt-RlHmMGUjT9E_130.mp4	0.0	164.6238090991974	0.10025978088378906
32	84.00588083267212	fix_pre	0		7.0	30.0	2.5	/experiments/knapen_aot/oldvideos/R_S_yt-EuyfT0PuOoQ_91.mp4	0.0	164.72406888008118	0.05794215202331543
32	84.05552983283997	response	0	4		30.0	2.5	/experiments/knapen_aot/oldvideos/R_S_yt-EuyfT0PuOoQ_91.mp4	0.0	164.77371788024902	
32	84.06382298469543	movie	1		301.0	30.0	2.5	/experiments/knapen_aot/oldvideos/R_S_yt-EuyfT0PuOoQ_91.mp4	0.0	164.7820110321045	2.508363962173462
32	86.5721869468689	fix_post	2		12.0	30.0	2.5	/experiments/knapen_aot/oldvideos/R_S_yt-EuyfT0PuOoQ_91.mp4	0.0	167.29037499427795	0.1002960205078125
33	86.67248296737671	fix_pre	0		9.0	31.0	2.5	/experiments/knapen_aot/oldvideos/S_yt-2ftSsLqRQnA_84.mp4	0.0	167.39067101478577	0.07462596893310547
33	86.738942861557	response	0	4		31.0	2.5	/experiments/knapen_aot/oldvideos/S_yt-2ftSsLqRQnA_84.mp4	0.0	167.45713090896606	
33	86.74710893630981	movie	1		301.0	31.0	2.5	/experiments/knapen_aot/oldvideos/S_yt-2ftSsLqRQnA_84.mp4	0.0	167.46529698371887	2.508366107940674
33	89.25547504425049	fix_post	2		12.0	31.0	2.5	/experiments/knapen_aot/oldvideos/S_yt-2ftSsLqRQnA_84.mp4	0.0	169.97366309165955	0.09997391700744629
34	89.35544896125793	fix_pre	0		15.0	32.0	2.5	/experiments/knapen_aot/oldvideos/S_yt-3DM_SqT4RII_10.mp4	0.0	170.073637008667	0.1249239444732666
34	89.47229504585266	response	0	4		32.0	2.5	/experiments/knapen_aot/oldvideos/S_yt-3DM_SqT4RII_10.mp4	0.0	170.19048309326172	
34	89.4803729057312	movie	1		301.0	32.0	2.5	/experiments/knapen_aot/oldvideos/S_yt-3DM_SqT4RII_10.mp4	0.0	170.19856095314026	2.5083460807800293
34	91.98871898651123	fix_post	2		12.0	32.0	2.5	/experiments/knapen_aot/oldvideos/S_yt-3DM_SqT4RII_10.mp4	0.0	172.7069070339203	0.1003260612487793
35	92.08904504776001	fix_pre	0		19.0	33.0	2.5	blank	1.0	172.80723309516907	0.15797686576843262
35	92.23890686035156	response	0	4		33.0	2.5	blank	1.0	172.95709490776062	
35	92.24702191352844	movie	1		301.0	33.0	2.5	blank	1.0	172.9652099609375	2.5083770751953125
35	94.75539898872375	fix_post	2		12.0	33.0	2.5	blank	1.0	175.4735870361328	0.10008597373962402
36	94.85548496246338	fix_pre	0		25.0	34.0	2.5	/experiments/knapen_aot/oldvideos/R_S_yt-hMyqUMAbFAk_303.mp4	0.0	175.57367300987244	0.2082829475402832
36	95.0480170249939	response	0	4		34.0	2.5	/experiments/knapen_aot/oldvideos/R_S_yt-hMyqUMAbFAk_303.mp4	0.0	175.76620507240295	
36	95.06376791000366	movie	1		300.0	34.0	2.5	/experiments/knapen_aot/oldvideos/R_S_yt-hMyqUMAbFAk_303.mp4	0.0	175.78195595741272	2.5000391006469727
36	97.55558586120605	response	1	4		34.0	2.5	/experiments/knapen_aot/oldvideos/R_S_yt-hMyqUMAbFAk_303.mp4	0.0	178.2737739086151	
36	97.56380701065063	fix_post	2		13.0	34.0	2.5	/experiments/knapen_aot/oldvideos/R_S_yt-hMyqUMAbFAk_303.mp4	0.0	178.2819950580597	0.10849285125732422
37	97.67229986190796	fix_pre	0		15.0	35.0	2.5	/experiments/knapen_aot/oldvideos/R_S_b3TCugtX0h0_108.mp4	0.0	178.39048790931702	0.1249701976776123
37	97.78889489173889	response	0	4		35.0	2.5	/experiments/knapen_aot/oldvideos/R_S_b3TCugtX0h0_108.mp4	0.0	178.50708293914795	
37	97.79727005958557	movie	1		301.0	35.0	2.5	/experiments/knapen_aot/oldvideos/R_S_b3TCugtX0h0_108.mp4	0.0	178.51545810699463	2.508185863494873
37	100.30545592308044	fix_post	2		12.0	35.0	2.5	/experiments/knapen_aot/oldvideos/R_S_b3TCugtX0h0_108.mp4	0.0	181.0236439704895	0.10000205039978027
38	100.40545797348022	fix_pre	0		4.0	36.0	2.5	/experiments/knapen_aot/oldvideos/R_S_yt-JVhfcpV7OaY_71.mp4	0.0	181.12364602088928	0.03332805633544922
38	100.43058586120605	response	0	4		36.0	2.5	/experiments/knapen_aot/oldvideos/R_S_yt-JVhfcpV7OaY_71.mp4	0.0	181.1487739086151	
38	100.43878602981567	movie	1		301.0	36.0	2.5	/experiments/knapen_aot/oldvideos/R_S_yt-JVhfcpV7OaY_71.mp4	0.0	181.15697407722473	2.508453845977783
38	100.68885588645935	response	1	4		36.0	2.5	/experiments/knapen_aot/oldvideos/R_S_yt-JVhfcpV7OaY_71.mp4	0.0	181.4070439338684	
38	102.94723987579346	fix_post	2		12.0	36.0	2.5	/experiments/knapen_aot/oldvideos/R_S_yt-JVhfcpV7OaY_71.mp4	0.0	183.66542792320251	0.10006499290466309
39	103.04730486869812	fix_pre	0		10.0	37.0	2.5	/experiments/knapen_aot/oldvideos/S_yt-AOP7QYQntPI_28.mp4	0.0	183.76549291610718	0.08324313163757324
39	103.1222710609436	response	0	4		37.0	2.5	/experiments/knapen_aot/oldvideos/S_yt-AOP7QYQntPI_28.mp4	0.0	183.84045910835266	
39	103.1305480003357	movie	1		301.0	37.0	2.5	/experiments/knapen_aot/oldvideos/S_yt-AOP7QYQntPI_28.mp4	0.0	183.84873604774475	2.508219003677368
39	105.63876700401306	fix_post	2		12.0	37.0	2.5	/experiments/knapen_aot/oldvideos/S_yt-AOP7QYQntPI_28.mp4	0.0	186.35695505142212	0.09998893737792969
40	105.73875594139099	fix_pre	0		6.0	38.0	2.5	/experiments/knapen_aot/oldvideos/S_video_inspire_texas_pecos_foggy-landscape_00018.1080-h264.mp4	0.0	186.45694398880005	0.05001997947692871
40	105.78055787086487	response	0	4		38.0	2.5	/experiments/knapen_aot/oldvideos/S_video_inspire_texas_pecos_foggy-landscape_00018.1080-h264.mp4	0.0	186.49874591827393	
40	105.78877592086792	movie	1		167.0	38.0	2.5	/experiments/knapen_aot/oldvideos/S_video_inspire_texas_pecos_foggy-landscape_00018.1080-h264.mp4	0.0	186.50696396827698	2.5082879066467285
40	108.29706382751465	fix_post	2		12.0	38.0	2.5	/experiments/knapen_aot/oldvideos/S_video_inspire_texas_pecos_foggy-landscape_00018.1080-h264.mp4	0.0	189.0152518749237	0.09993410110473633
40	108.32214999198914	response	2	4		38.0	2.5	/experiments/knapen_aot/oldvideos/S_video_inspire_texas_pecos_foggy-landscape_00018.1080-h264.mp4	0.0	189.0403380393982	
41	108.39699792861938	fix_pre	0		20.0	39.0	2.5	/experiments/knapen_aot/oldvideos/R_S_yt-LUIvP_NDWAs_45.mp4	0.0	189.11518597602844	0.16671395301818848
41	108.55546593666077	response	0	4		39.0	2.5	/experiments/knapen_aot/oldvideos/R_S_yt-LUIvP_NDWAs_45.mp4	0.0	189.27365398406982	
41	108.56371188163757	movie	1		301.0	39.0	2.5	/experiments/knapen_aot/oldvideos/R_S_yt-LUIvP_NDWAs_45.mp4	0.0	189.28189992904663	2.5083510875701904
41	111.07206296920776	fix_post	2		12.0	39.0	2.5	/experiments/knapen_aot/oldvideos/R_S_yt-LUIvP_NDWAs_45.mp4	0.0	191.79025101661682	0.10014200210571289
42	111.17220497131348	fix_pre	0		4.0	40.0	2.5	/experiments/knapen_aot/oldvideos/R_S_yt-l6WPyKg_3is_154.mp4	0.0	191.89039301872253	0.03316998481750488
42	111.19008994102478	response	0	4		40.0	2.5	/experiments/knapen_aot/oldvideos/R_S_yt-l6WPyKg_3is_154.mp4	0.0	191.90827798843384	
42	111.20537495613098	movie	1		301.0	40.0	2.5	/experiments/knapen_aot/oldvideos/R_S_yt-l6WPyKg_3is_154.mp4	0.0	191.92356300354004	2.508415937423706
42	111.38881087303162	response	1	4		40.0	2.5	/experiments/knapen_aot/oldvideos/R_S_yt-l6WPyKg_3is_154.mp4	0.0	192.10699892044067	
42	113.71379089355469	fix_post	2		12.0	40.0	2.5	/experiments/knapen_aot/oldvideos/R_S_yt-l6WPyKg_3is_154.mp4	0.0	194.43197894096375	0.09989809989929199
43	113.81368899345398	fix_pre	0		347.0	41.0	2.5	/experiments/knapen_aot/oldvideos/S_ILSVRC2015_train_00565000.mp4	0.0	194.53187704086304	2.8916049003601074
43	116.69710898399353	response	0	2		41.0	2.5	/experiments/knapen_aot/oldvideos/S_ILSVRC2015_train_00565000.mp4	0.0	197.4152970314026	
43	116.70529389381409	movie	1		301.0	41.0	2.5	/experiments/knapen_aot/oldvideos/S_ILSVRC2015_train_00565000.mp4	0.0	197.42348194122314	2.508514165878296
43	119.21380805969238	fix_post	2		12.0	41.0	2.5	/experiments/knapen_aot/oldvideos/S_ILSVRC2015_train_00565000.mp4	0.0	199.93199610710144	0.09991788864135742
43	119.30540704727173	response	2	2		41.0	2.5	/experiments/knapen_aot/oldvideos/S_ILSVRC2015_train_00565000.mp4	0.0	200.0235950946808	
44	119.31372594833374	fix_pre	0		22.0	42.0	2.5	blank	1.0	200.0319139957428	0.18324494361877441
44	119.48875904083252	response	0	2		42.0	2.5	blank	1.0	200.20694708824158	
44	119.49697089195251	movie	1		301.0	42.0	2.5	blank	1.0	200.21515893936157	2.508470058441162
44	122.00544095039368	fix_post	2		12.0	42.0	2.5	blank	1.0	202.72362899780273	0.09987211227416992
45	122.10531306266785	fix_pre	0		20.0	43.0	2.5	/experiments/knapen_aot/oldvideos/S_bing-vimeo_com_161378598_22.mp4	0.0	202.8235011100769	0.16662096977233887
45	122.26373195648193	response	0	2		43.0	2.5	/experiments/knapen_aot/oldvideos/S_bing-vimeo_com_161378598_22.mp4	0.0	202.981920003891	
45	122.27193403244019	movie	1		166.0	43.0	2.5	/experiments/knapen_aot/oldvideos/S_bing-vimeo_com_161378598_22.mp4	0.0	202.99012207984924	2.5085740089416504
45	122.50556087493896	response	1	2		43.0	2.5	/experiments/knapen_aot/oldvideos/S_bing-vimeo_com_161378598_22.mp4	0.0	203.22374892234802	
45	124.33878803253174	response	1	2		43.0	2.5	/experiments/knapen_aot/oldvideos/S_bing-vimeo_com_161378598_22.mp4	0.0	205.0569760799408	
45	124.48879289627075	response	1	2		43.0	2.5	/experiments/knapen_aot/oldvideos/S_bing-vimeo_com_161378598_22.mp4	0.0	205.2069809436798	
45	124.69701290130615	response	1	2		43.0	2.5	/experiments/knapen_aot/oldvideos/S_bing-vimeo_com_161378598_22.mp4	0.0	205.4152009487152	
45	124.78050804138184	fix_post	2		12.0	43.0	2.5	/experiments/knapen_aot/oldvideos/S_bing-vimeo_com_161378598_22.mp4	0.0	205.4986960887909	0.09996199607849121
46	124.88047003746033	fix_pre	0		7.0	44.0	2.5	/experiments/knapen_aot/oldvideos/R_S_yt-t-wpKypNysg_27.mp4	0.0	205.59865808486938	0.05815291404724121
46	124.93042182922363	response	0	2		44.0	2.5	/experiments/knapen_aot/oldvideos/R_S_yt-t-wpKypNysg_27.mp4	0.0	205.6486098766327	
46	124.93862295150757	movie	1		301.0	44.0	2.5	/experiments/knapen_aot/oldvideos/R_S_yt-t-wpKypNysg_27.mp4	0.0	205.65681099891663	2.5083820819854736
46	127.44700503349304	fix_post	2		12.0	44.0	2.5	/experiments/knapen_aot/oldvideos/R_S_yt-t-wpKypNysg_27.mp4	0.0	208.1651930809021	0.10023188591003418
47	127.54723691940308	fix_pre	0		238.0	45.0	2.5	/experiments/knapen_aot/oldvideos/S_yt-foGMTdxewBI_43.mp4	0.0	208.26542496681213	1.9830410480499268
47	129.5221128463745	response	0	2		45.0	2.5	/experiments/knapen_aot/oldvideos/S_yt-foGMTdxewBI_43.mp4	0.0	210.24030089378357	
47	129.530277967453	movie	1		301.0	45.0	2.5	/experiments/knapen_aot/oldvideos/S_yt-foGMTdxewBI_43.mp4	0.0	210.24846601486206	2.508436918258667
47	132.03871488571167	fix_post	2		12.0	45.0	2.5	/experiments/knapen_aot/oldvideos/S_yt-foGMTdxewBI_43.mp4	0.0	212.75690293312073	0.09985208511352539
48	132.1385669708252	fix_pre	0		14.0	46.0	2.5	/experiments/knapen_aot/oldvideos/R_S_yt-jUGt_Byqczw_599.mp4	0.0	212.85675501823425	0.1166999340057373
48	132.24702787399292	response	0	2		46.0	2.5	/experiments/knapen_aot/oldvideos/R_S_yt-jUGt_Byqczw_599.mp4	0.0	212.96521592140198	
48	132.25526690483093	movie	1		301.0	46.0	2.5	/experiments/knapen_aot/oldvideos/R_S_yt-jUGt_Byqczw_599.mp4	0.0	212.97345495224	2.508563995361328
48	134.76383090019226	fix_post	2		12.0	46.0	2.5	/experiments/knapen_aot/oldvideos/R_S_yt-jUGt_Byqczw_599.mp4	0.0	215.48201894760132	0.09979009628295898
49	134.86362099647522	fix_pre	0		5.0	47.0	2.5	/experiments/knapen_aot/oldvideos/S_ILSVRC2015_test_00001002.mp4	0.0	215.58180904388428	0.04165291786193848
49	134.89706993103027	response	0	2		47.0	2.5	/experiments/knapen_aot/oldvideos/S_ILSVRC2015_test_00001002.mp4	0.0	215.61525797843933	
49	134.90527391433716	movie	1		301.0	47.0	2.5	/experiments/knapen_aot/oldvideos/S_ILSVRC2015_test_00001002.mp4	0.0	215.62346196174622	2.509761095046997
49	137.4054398536682	response	1	2		47.0	2.5	/experiments/knapen_aot/oldvideos/S_ILSVRC2015_test_00001002.mp4	0.0	218.12362790107727	
49	137.41503500938416	fix_post	2		12.0	47.0	2.5	/experiments/knapen_aot/oldvideos/S_ILSVRC2015_test_00001002.mp4	0.0	218.1332230567932	0.09853196144104004
50	137.5135669708252	fix_pre	0		6.0	48.0	2.5	/experiments/knapen_aot/oldvideos/R_S_comp_LA_A006_C004_v01_SDR_FINAL_PS_20180730_SDR_2K_AVC.mp4	0.0	218.23175501823425	0.05000901222229004
50	137.54793405532837	response	0	2		48.0	2.5	/experiments/knapen_aot/oldvideos/R_S_comp_LA_A006_C004_v01_SDR_FINAL_PS_20180730_SDR_2K_AVC.mp4	0.0	218.26612210273743	
50	137.56357598304749	movie	1		167.0	48.0	2.5	/experiments/knapen_aot/oldvideos/R_S_comp_LA_A006_C004_v01_SDR_FINAL_PS_20180730_SDR_2K_AVC.mp4	0.0	218.28176403045654	2.508419990539551
50	139.38758993148804	response	1	2		48.0	2.5	/experiments/knapen_aot/oldvideos/R_S_comp_LA_A006_C004_v01_SDR_FINAL_PS_20180730_SDR_2K_AVC.mp4	0.0	220.1057779788971	
50	139.58868288993835	response	1	2		48.0	2.5	/experiments/knapen_aot/oldvideos/R_S_comp_LA_A006_C004_v01_SDR_FINAL_PS_20180730_SDR_2K_AVC.mp4	0.0	220.3068709373474	
50	139.77080988883972	response	1	2		48.0	2.5	/experiments/knapen_aot/oldvideos/R_S_comp_LA_A006_C004_v01_SDR_FINAL_PS_20180730_SDR_2K_AVC.mp4	0.0	220.48899793624878	
50	139.9719958305359	response	1	2		48.0	2.5	/experiments/knapen_aot/oldvideos/R_S_comp_LA_A006_C004_v01_SDR_FINAL_PS_20180730_SDR_2K_AVC.mp4	0.0	220.69018387794495	
50	140.07199597358704	fix_post	2		12.0	48.0	2.5	/experiments/knapen_aot/oldvideos/R_S_comp_LA_A006_C004_v01_SDR_FINAL_PS_20180730_SDR_2K_AVC.mp4	0.0	220.7901840209961	0.09990191459655762
51	140.1718978881836	fix_pre	0		2.0	49.0	2.5	blank	1.0	220.89008593559265	0.01670694351196289
51	140.1803319454193	response	0	2		49.0	2.5	blank	1.0	220.89851999282837	
51	140.18860483169556	movie	1		301.0	49.0	2.5	blank	1.0	220.90679287910461	2.5082972049713135
51	142.57197403907776	response	1	2		49.0	2.5	blank	1.0	223.29016208648682	
51	142.69690203666687	fix_post	2		12.0	49.0	2.5	blank	1.0	223.41509008407593	0.09996986389160156
51	142.7303318977356	response	2	2		49.0	2.5	blank	1.0	223.44851994514465	
52	142.79687190055847	fix_pre	0		18.0	50.0	2.5	/experiments/knapen_aot/oldvideos/S_yt-xqjVM0Vj4mI_161.mp4	0.0	223.51505994796753	0.15001606941223145
52	142.93863701820374	response	0	2		50.0	2.5	/experiments/knapen_aot/oldvideos/S_yt-xqjVM0Vj4mI_161.mp4	0.0	223.6568250656128	
52	142.9468879699707	movie	1		301.0	50.0	2.5	/experiments/knapen_aot/oldvideos/S_yt-xqjVM0Vj4mI_161.mp4	0.0	223.66507601737976	2.5083608627319336
52	143.13355588912964	response	1	2		50.0	2.5	/experiments/knapen_aot/oldvideos/S_yt-xqjVM0Vj4mI_161.mp4	0.0	223.8517439365387	
52	145.45524883270264	fix_post	2		12.0	50.0	2.5	/experiments/knapen_aot/oldvideos/S_yt-xqjVM0Vj4mI_161.mp4	0.0	226.1734368801117	0.0999751091003418
52	145.5144488811493	response	2	4		50.0	2.5	/experiments/knapen_aot/oldvideos/S_yt-xqjVM0Vj4mI_161.mp4	0.0	226.23263692855835	
53	145.55522394180298	fix_pre	0		15.0	51.0	2.5	/experiments/knapen_aot/oldvideos/S_yt-26obL-Z5obg_131.mp4	0.0	226.27341198921204	0.12497496604919434
53	145.6719479560852	response	0	4		51.0	2.5	/experiments/knapen_aot/oldvideos/S_yt-26obL-Z5obg_131.mp4	0.0	226.39013600349426	
53	145.68019890785217	movie	1		301.0	51.0	2.5	/experiments/knapen_aot/oldvideos/S_yt-26obL-Z5obg_131.mp4	0.0	226.39838695526123	2.5085201263427734
53	147.86680698394775	response	1	4		51.0	2.5	/experiments/knapen_aot/oldvideos/S_yt-26obL-Z5obg_131.mp4	0.0	228.5849950313568	
53	148.05740785598755	response	1	4		51.0	2.5	/experiments/knapen_aot/oldvideos/S_yt-26obL-Z5obg_131.mp4	0.0	228.7755959033966	
53	148.18871903419495	fix_post	2		12.0	51.0	2.5	/experiments/knapen_aot/oldvideos/S_yt-26obL-Z5obg_131.mp4	0.0	228.906907081604	0.09982681274414062
53	148.23871088027954	response	2	4		51.0	2.5	/experiments/knapen_aot/oldvideos/S_yt-26obL-Z5obg_131.mp4	0.0	228.9568989276886	
54	148.2885458469391	fix_pre	0		13.0	52.0	2.5	/experiments/knapen_aot/oldvideos/S_yt-BW6jWEVbxxk_4.mp4	0.0	229.00673389434814	0.10831904411315918
54	148.38856196403503	response	0	4		52.0	2.5	/experiments/knapen_aot/oldvideos/S_yt-BW6jWEVbxxk_4.mp4	0.0	229.1067500114441	
54	148.39686489105225	movie	1		301.0	52.0	2.5	/experiments/knapen_aot/oldvideos/S_yt-BW6jWEVbxxk_4.mp4	0.0	229.1150529384613	2.508341073989868
54	148.60538697242737	response	1	4		52.0	2.5	/experiments/knapen_aot/oldvideos/S_yt-BW6jWEVbxxk_4.mp4	0.0	229.32357501983643	
54	148.86356592178345	response	1	4		52.0	2.5	/experiments/knapen_aot/oldvideos/S_yt-BW6jWEVbxxk_4.mp4	0.0	229.5817539691925	
54	150.87204790115356	response	1	2		52.0	2.5	/experiments/knapen_aot/oldvideos/S_yt-BW6jWEVbxxk_4.mp4	0.0	231.59023594856262	
54	150.90520596504211	fix_post	2		12.0	52.0	2.5	/experiments/knapen_aot/oldvideos/S_yt-BW6jWEVbxxk_4.mp4	0.0	231.62339401245117	0.10004687309265137
55	151.00525283813477	fix_pre	0		13.0	53.0	2.5	/experiments/knapen_aot/oldvideos/R_S_JApTAOdfunE_1251.mp4	0.0	231.72344088554382	0.10820913314819336
55	151.1052770614624	response	0	2		53.0	2.5	/experiments/knapen_aot/oldvideos/R_S_JApTAOdfunE_1251.mp4	0.0	231.82346510887146	
55	151.11346197128296	movie	1		301.0	53.0	2.5	/experiments/knapen_aot/oldvideos/R_S_JApTAOdfunE_1251.mp4	0.0	231.83165001869202	2.50839900970459
55	151.2841248512268	response	1	2		53.0	2.5	/experiments/knapen_aot/oldvideos/R_S_JApTAOdfunE_1251.mp4	0.0	232.00231289863586	
55	153.62186098098755	fix_post	2		12.0	53.0	2.5	/experiments/knapen_aot/oldvideos/R_S_JApTAOdfunE_1251.mp4	0.0	234.3400490283966	0.1000208854675293
55	153.71359300613403	response	2	4		53.0	2.5	/experiments/knapen_aot/oldvideos/R_S_JApTAOdfunE_1251.mp4	0.0	234.4317810535431	
56	153.72188186645508	fix_pre	0		22.0	54.0	2.5	/experiments/knapen_aot/oldvideos/R_S_pexels-koolshooters-7691440.mp4	0.0	234.44006991386414	0.18331098556518555
56	153.89696192741394	response	0	4		54.0	2.5	/experiments/knapen_aot/oldvideos/R_S_pexels-koolshooters-7691440.mp4	0.0	234.615149974823	
56	153.90519285202026	movie	1		165.0	54.0	2.5	/experiments/knapen_aot/oldvideos/R_S_pexels-koolshooters-7691440.mp4	0.0	234.62338089942932	2.5083119869232178
56	154.07983088493347	response	1	4		54.0	2.5	/experiments/knapen_aot/oldvideos/R_S_pexels-koolshooters-7691440.mp4	0.0	234.79801893234253	
56	154.2627329826355	response	1	4		54.0	2.5	/experiments/knapen_aot/oldvideos/R_S_pexels-koolshooters-7691440.mp4	0.0	234.98092103004456	
56	156.18575191497803	response	1	2		54.0	2.5	/experiments/knapen_aot/oldvideos/R_S_pexels-koolshooters-7691440.mp4	0.0	236.90393996238708	
56	156.41350483894348	fix_post	2		12.0	54.0	2.5	/experiments/knapen_aot/oldvideos/R_S_pexels-koolshooters-7691440.mp4	0.0	237.13169288635254	0.10003304481506348
56	156.44696593284607	response	2	2		54.0	2.5	/experiments/knapen_aot/oldvideos/R_S_pexels-koolshooters-7691440.mp4	0.0	237.16515398025513	
57	156.51353788375854	fix_pre	0		15.0	55.0	2.5	blank	1.0	237.2317259311676	0.12491106986999512
57	156.6302900314331	response	0	2		55.0	2.5	blank	1.0	237.34847807884216	
57	156.63844895362854	movie	1		301.0	55.0	2.5	blank	1.0	237.3566370010376	2.5083110332489014
57	156.82182383537292	response	1	2		55.0	2.5	blank	1.0	237.54001188278198	
57	159.14675998687744	fix_post	2		11.0	55.0	2.5	blank	1.0	239.8649480342865	0.09165096282958984
57	159.23024702072144	response	2	4		55.0	2.5	blank	1.0	239.9484350681305	
58	159.23841094970703	fix_pre	0		22.0	56.0	2.5	/experiments/knapen_aot/oldvideos/R_S_yt-XpM1Jtwlvvk_42.mp4	0.0	239.9565989971161	0.18334603309631348
58	159.4135639667511	response	0	4		56.0	2.5	/experiments/knapen_aot/oldvideos/R_S_yt-XpM1Jtwlvvk_42.mp4	0.0	240.13175201416016	
58	159.42175698280334	movie	1		301.0	56.0	2.5	/experiments/knapen_aot/oldvideos/R_S_yt-XpM1Jtwlvvk_42.mp4	0.0	240.1399450302124	2.508391857147217
58	161.688570022583	response	1	2		56.0	2.5	/experiments/knapen_aot/oldvideos/R_S_yt-XpM1Jtwlvvk_42.mp4	0.0	242.40675806999207	
58	161.89683389663696	response	1	2		56.0	2.5	/experiments/knapen_aot/oldvideos/R_S_yt-XpM1Jtwlvvk_42.mp4	0.0	242.61502194404602	
58	161.93014883995056	fix_post	2		12.0	56.0	2.5	/experiments/knapen_aot/oldvideos/R_S_yt-XpM1Jtwlvvk_42.mp4	0.0	242.64833688735962	0.10004615783691406
59	162.03019499778748	fix_pre	0		37.0	57.0	2.5	/experiments/knapen_aot/oldvideos/S_yt-GWOOQZ19-oU_331.mp4	0.0	242.74838304519653	0.3082430362701416
59	162.33021593093872	response	0	2		57.0	2.5	/experiments/knapen_aot/oldvideos/S_yt-GWOOQZ19-oU_331.mp4	0.0	243.04840397834778	
59	162.33843803405762	movie	1		301.0	57.0	2.5	/experiments/knapen_aot/oldvideos/S_yt-GWOOQZ19-oU_331.mp4	0.0	243.05662608146667	2.5083529949188232
59	164.1648828983307	response	1	4		57.0	2.5	/experiments/knapen_aot/oldvideos/S_yt-GWOOQZ19-oU_331.mp4	0.0	244.88307094573975	
59	164.40517497062683	response	1	4		57.0	2.5	/experiments/knapen_aot/oldvideos/S_yt-GWOOQZ19-oU_331.mp4	0.0	245.1233630180359	
59	164.596941947937	response	1	4		57.0	2.5	/experiments/knapen_aot/oldvideos/S_yt-GWOOQZ19-oU_331.mp4	0.0	245.31512999534607	
59	164.78858494758606	response	1	4		57.0	2.5	/experiments/knapen_aot/oldvideos/S_yt-GWOOQZ19-oU_331.mp4	0.0	245.50677299499512	
59	164.84679102897644	fix_post	2		12.0	57.0	2.5	/experiments/knapen_aot/oldvideos/S_yt-GWOOQZ19-oU_331.mp4	0.0	245.5649790763855	0.10003995895385742
60	164.9468309879303	fix_pre	0		2.0	58.0	2.5	/experiments/knapen_aot/oldvideos/R_S_production_ID_4584682.mp4	0.0	245.66501903533936	0.016664981842041016
60	164.95676183700562	response	0	4		58.0	2.5	/experiments/knapen_aot/oldvideos/R_S_production_ID_4584682.mp4	0.0	245.67494988441467	
60	164.96349596977234	movie	1		167.0	58.0	2.5	/experiments/knapen_aot/oldvideos/R_S_production_ID_4584682.mp4	0.0	245.6816840171814	2.508358955383301
60	165.1636290550232	response	1	4		58.0	2.5	/experiments/knapen_aot/oldvideos/R_S_production_ID_4584682.mp4	0.0	245.88181710243225	
60	167.34691786766052	response	1	4		58.0	2.5	/experiments/knapen_aot/oldvideos/R_S_production_ID_4584682.mp4	0.0	248.06510591506958	
60	167.47185492515564	fix_post	2		12.0	58.0	2.5	/experiments/knapen_aot/oldvideos/R_S_production_ID_4584682.mp4	0.0	248.1900429725647	0.10019397735595703
60	167.52184200286865	response	2	4		58.0	2.5	/experiments/knapen_aot/oldvideos/R_S_production_ID_4584682.mp4	0.0	248.2400300502777	
61	167.5720489025116	fix_pre	0		19.0	59.0	2.5	/experiments/knapen_aot/oldvideos/R_S_ILSVRC2015_train_00682003.mp4	0.0	248.29023694992065	0.15805602073669434
61	167.72180104255676	response	0	4		59.0	2.5	/experiments/knapen_aot/oldvideos/R_S_ILSVRC2015_train_00682003.mp4	0.0	248.43998908996582	
61	167.7301049232483	movie	1		300.0	59.0	2.5	/experiments/knapen_aot/oldvideos/R_S_ILSVRC2015_train_00682003.mp4	0.0	248.44829297065735	2.50004506111145
61	170.03022503852844	response	1	4		59.0	2.5	/experiments/knapen_aot/oldvideos/R_S_ILSVRC2015_train_00682003.mp4	0.0	250.7484130859375	
61	170.2218680381775	response	1	4		59.0	2.5	/experiments/knapen_aot/oldvideos/R_S_ILSVRC2015_train_00682003.mp4	0.0	250.94005608558655	
61	170.23014998435974	fix_post	2		13.0	59.0	2.5	/experiments/knapen_aot/oldvideos/R_S_ILSVRC2015_train_00682003.mp4	0.0	250.9483380317688	0.10829496383666992
62	170.3384449481964	fix_pre	0		7.0	60.0	2.5	/experiments/knapen_aot/oldvideos/R_S_ILSVRC2015_test_00001002.mp4	0.0	251.05663299560547	0.05836606025695801
62	170.38858103752136	response	0	4		60.0	2.5	/experiments/knapen_aot/oldvideos/R_S_ILSVRC2015_test_00001002.mp4	0.0	251.10676908493042	
62	170.39681100845337	movie	1		301.0	60.0	2.5	/experiments/knapen_aot/oldvideos/R_S_ILSVRC2015_test_00001002.mp4	0.0	251.11499905586243	2.5082809925079346
62	172.43020486831665	response	1	4		60.0	2.5	/experiments/knapen_aot/oldvideos/R_S_ILSVRC2015_test_00001002.mp4	0.0	253.1483929157257	
62	172.65517497062683	response	1	4		60.0	2.5	/experiments/knapen_aot/oldvideos/R_S_ILSVRC2015_test_00001002.mp4	0.0	253.3733630180359	
62	172.83022093772888	response	1	4		60.0	2.5	/experiments/knapen_aot/oldvideos/R_S_ILSVRC2015_test_00001002.mp4	0.0	253.54840898513794	
62	172.9050920009613	fix_post	2		12.0	60.0	2.5	/experiments/knapen_aot/oldvideos/R_S_ILSVRC2015_test_00001002.mp4	0.0	253.62328004837036	0.10003995895385742
63	173.00513195991516	fix_pre	0		3.0	61.0	2.5	/experiments/knapen_aot/oldvideos/R_S_ILSVRC2015_train_00569007.mp4	0.0	253.72332000732422	0.025090932846069336
63	173.0218949317932	response	0	4		61.0	2.5	/experiments/knapen_aot/oldvideos/R_S_ILSVRC2015_train_00569007.mp4	0.0	253.74008297920227	
63	173.03022289276123	movie	1		301.0	61.0	2.5	/experiments/knapen_aot/oldvideos/R_S_ILSVRC2015_train_00569007.mp4	0.0	253.7484109401703	2.5082149505615234
63	173.2834849357605	response	1	4		61.0	2.5	/experiments/knapen_aot/oldvideos/R_S_ILSVRC2015_train_00569007.mp4	0.0	254.00167298316956	
63	175.45520091056824	response	1	4		61.0	2.5	/experiments/knapen_aot/oldvideos/R_S_ILSVRC2015_train_00569007.mp4	0.0	256.1733889579773	
63	175.53843784332275	fix_post	2		12.0	61.0	2.5	/experiments/knapen_aot/oldvideos/R_S_ILSVRC2015_train_00569007.mp4	0.0	256.2566258907318	0.09993815422058105
64	175.63837599754333	fix_pre	0		1.0	62.0	2.5	blank	1.0	256.3565640449524	0.008432865142822266
64	175.64057397842407	response	0	4		62.0	2.5	blank	1.0	256.35876202583313	
64	175.64680886268616	movie	1		301.0	62.0	2.5	blank	1.0	256.3649969100952	2.5083119869232178
64	175.8051838874817	response	1	4		62.0	2.5	blank	1.0	256.52337193489075	
64	178.15512084960938	fix_post	2		12.0	62.0	2.5	blank	1.0	258.87330889701843	0.10000205039978027
65	178.25512290000916	fix_pre	0		7.0	63.0	2.5	/experiments/knapen_aot/oldvideos/S_yt-GWO7FHN1Jb4_142.mp4	0.0	258.9733109474182	0.05825614929199219
65	178.30518889427185	response	0	4		63.0	2.5	/experiments/knapen_aot/oldvideos/S_yt-GWO7FHN1Jb4_142.mp4	0.0	259.0233769416809	
65	178.31337904930115	movie	1		301.0	63.0	2.5	/experiments/knapen_aot/oldvideos/S_yt-GWO7FHN1Jb4_142.mp4	0.0	259.0315670967102	2.508394956588745
65	178.48017501831055	response	1	4		63.0	2.5	/experiments/knapen_aot/oldvideos/S_yt-GWO7FHN1Jb4_142.mp4	0.0	259.1983630657196	
65	180.6232500076294	response	1	4		63.0	2.5	/experiments/knapen_aot/oldvideos/S_yt-GWO7FHN1Jb4_142.mp4	0.0	261.34143805503845	
65	180.8135118484497	response	1	4		63.0	2.5	/experiments/knapen_aot/oldvideos/S_yt-GWO7FHN1Jb4_142.mp4	0.0	261.53169989585876	
65	180.8217740058899	fix_post	2		12.0	63.0	2.5	/experiments/knapen_aot/oldvideos/S_yt-GWO7FHN1Jb4_142.mp4	0.0	261.53996205329895	0.10003495216369629
66	180.9218089580536	fix_pre	0		10.0	64.0	2.5	/experiments/knapen_aot/oldvideos/S_zAKvYNtmhuc_772.mp4	0.0	261.63999700546265	0.08322405815124512
66	180.99684500694275	response	0	4		64.0	2.5	/experiments/knapen_aot/oldvideos/S_zAKvYNtmhuc_772.mp4	0.0	261.7150330543518	
66	181.00503301620483	movie	1		301.0	64.0	2.5	/experiments/knapen_aot/oldvideos/S_zAKvYNtmhuc_772.mp4	0.0	261.7232210636139	2.5083789825439453
66	183.51341199874878	fix_post	2		12.0	64.0	2.5	/experiments/knapen_aot/oldvideos/S_zAKvYNtmhuc_772.mp4	0.0	264.23160004615784	0.10002803802490234
67	183.61344003677368	fix_pre	0		1.0	65.0	2.5	/experiments/knapen_aot/oldvideos/S_yt-O6FS0xnF0CU_106.mp4	0.0	264.33162808418274	0.00946187973022461
67	183.6153118610382	response	0	4		65.0	2.5	/experiments/knapen_aot/oldvideos/S_yt-O6FS0xnF0CU_106.mp4	0.0	264.33349990844727	
67	183.6229019165039	movie	1		301.0	65.0	2.5	/experiments/knapen_aot/oldvideos/S_yt-O6FS0xnF0CU_106.mp4	0.0	264.34108996391296	2.5071849822998047
67	183.83133697509766	response	1	4		65.0	2.5	/experiments/knapen_aot/oldvideos/S_yt-O6FS0xnF0CU_106.mp4	0.0	264.5495250225067	
67	186.1300868988037	fix_post	2		12.0	65.0	2.5	/experiments/knapen_aot/oldvideos/S_yt-O6FS0xnF0CU_106.mp4	0.0	266.84827494621277	0.09998106956481934
67	186.18928599357605	response	2	4		65.0	2.5	/experiments/knapen_aot/oldvideos/S_yt-O6FS0xnF0CU_106.mp4	0.0	266.9074740409851	
68	186.23006796836853	fix_pre	0		22.0	66.0	2.5	/experiments/knapen_aot/oldvideos/R_S_pexels-kindel-media-8165572.mp4	0.0	266.9482560157776	0.18480896949768066
68	186.40515995025635	response	0	4		66.0	2.5	/experiments/knapen_aot/oldvideos/R_S_pexels-kindel-media-8165572.mp4	0.0	267.1233479976654	
68	186.4148769378662	movie	1		170.0	66.0	2.5	/experiments/knapen_aot/oldvideos/R_S_pexels-kindel-media-8165572.mp4	0.0	267.13306498527527	2.506895065307617
68	186.63782787322998	response	1	4		66.0	2.5	/experiments/knapen_aot/oldvideos/R_S_pexels-kindel-media-8165572.mp4	0.0	267.35601592063904	
68	188.24689197540283	response	1	4		66.0	2.5	/experiments/knapen_aot/oldvideos/R_S_pexels-kindel-media-8165572.mp4	0.0	268.9650800228119	
68	188.44690585136414	response	1	4		66.0	2.5	/experiments/knapen_aot/oldvideos/R_S_pexels-kindel-media-8165572.mp4	0.0	269.1650938987732	
68	188.63719582557678	response	1	4		66.0	2.5	/experiments/knapen_aot/oldvideos/R_S_pexels-kindel-media-8165572.mp4	0.0	269.35538387298584	
68	188.8467960357666	response	1	4		66.0	2.5	/experiments/knapen_aot/oldvideos/R_S_pexels-kindel-media-8165572.mp4	0.0	269.56498408317566	
68	188.92177200317383	fix_post	2		12.0	66.0	2.5	/experiments/knapen_aot/oldvideos/R_S_pexels-kindel-media-8165572.mp4	0.0	269.6399600505829	0.09997987747192383
69	189.02175188064575	fix_pre	0		1.0	67.0	2.5	/experiments/knapen_aot/oldvideos/S_yt-7Ya-rGPO8cM_159.mp4	0.0	269.7399399280548	0.010833978652954102
69	189.02357006072998	response	0	4		67.0	2.5	/experiments/knapen_aot/oldvideos/S_yt-7Ya-rGPO8cM_159.mp4	0.0	269.74175810813904	
69	189.0325858592987	movie	1		301.0	67.0	2.5	/experiments/knapen_aot/oldvideos/S_yt-7Ya-rGPO8cM_159.mp4	0.0	269.75077390670776	2.505836009979248
69	191.0301399230957	response	1	4		67.0	2.5	/experiments/knapen_aot/oldvideos/S_yt-7Ya-rGPO8cM_159.mp4	0.0	271.74832797050476	
69	191.26347184181213	response	1	4		67.0	2.5	/experiments/knapen_aot/oldvideos/S_yt-7Ya-rGPO8cM_159.mp4	0.0	271.9816598892212	
69	191.45516204833984	response	1	4		67.0	2.5	/experiments/knapen_aot/oldvideos/S_yt-7Ya-rGPO8cM_159.mp4	0.0	272.1733500957489	
69	191.53842186927795	fix_post	2		12.0	67.0	2.5	/experiments/knapen_aot/oldvideos/S_yt-7Ya-rGPO8cM_159.mp4	0.0	272.256609916687	0.09994912147521973
70	191.63837099075317	fix_pre	0		3.0	68.0	2.5	/experiments/knapen_aot/oldvideos/S_yt-cokedWwwYYs_136.mp4	0.0	272.35655903816223	0.02611684799194336
70	191.6551229953766	response	0	4		68.0	2.5	/experiments/knapen_aot/oldvideos/S_yt-cokedWwwYYs_136.mp4	0.0	272.37331104278564	
70	191.66448783874512	movie	1		301.0	68.0	2.5	/experiments/knapen_aot/oldvideos/S_yt-cokedWwwYYs_136.mp4	0.0	272.3826758861542	2.507249116897583
70	194.1717369556427	fix_post	2		12.0	68.0	2.5	/experiments/knapen_aot/oldvideos/S_yt-cokedWwwYYs_136.mp4	0.0	274.88992500305176	0.10020089149475098
71	194.27193784713745	fix_pre	0		28.0	69.0	2.5	/experiments/knapen_aot/oldvideos/S_yt-JVhfcpV7OaY_71.mp4	0.0	274.9901258945465	0.23309707641601562
71	194.49687886238098	response	0	4		69.0	2.5	/experiments/knapen_aot/oldvideos/S_yt-JVhfcpV7OaY_71.mp4	0.0	275.21506690979004	
71	194.50503492355347	movie	1		301.0	69.0	2.5	/experiments/knapen_aot/oldvideos/S_yt-JVhfcpV7OaY_71.mp4	0.0	275.2232229709625	2.5084009170532227
71	197.0134358406067	fix_post	2		12.0	69.0	2.5	/experiments/knapen_aot/oldvideos/S_yt-JVhfcpV7OaY_71.mp4	0.0	277.73162388801575	0.09993219375610352
72	197.1133680343628	fix_pre	0		8.0	70.0	2.5	blank	1.0	277.83155608177185	0.06667685508728027
72	197.16420793533325	response	0	4		70.0	2.5	blank	1.0	277.8823959827423	
72	197.18004488945007	movie	1		301.0	70.0	2.5	blank	1.0	277.89823293685913	2.508350133895874
72	197.35510683059692	response	1	4		70.0	2.5	blank	1.0	278.073294878006	
72	199.68839502334595	fix_post	2		12.0	70.0	2.5	blank	1.0	280.406583070755	0.0999598503112793
73	199.78835487365723	fix_pre	0		6.0	71.0	2.5	/experiments/knapen_aot/oldvideos/R_S_yt-uSHBdUi8_V0_24.mp4	0.0	280.5065429210663	0.0499730110168457
73	199.83013796806335	response	0	4		71.0	2.5	/experiments/knapen_aot/oldvideos/R_S_yt-uSHBdUi8_V0_24.mp4	0.0	280.5483260154724	
73	199.83832788467407	movie	1		301.0	71.0	2.5	/experiments/knapen_aot/oldvideos/R_S_yt-uSHBdUi8_V0_24.mp4	0.0	280.55651593208313	2.5084240436553955
73	200.06367683410645	response	1	4		71.0	2.5	/experiments/knapen_aot/oldvideos/R_S_yt-uSHBdUi8_V0_24.mp4	0.0	280.7818648815155	
73	202.34675192832947	fix_post	2		12.0	71.0	2.5	/experiments/knapen_aot/oldvideos/R_S_yt-uSHBdUi8_V0_24.mp4	0.0	283.0649399757385	0.09989690780639648
74	202.44664883613586	fix_pre	0		9.0	72.0	2.5	/experiments/knapen_aot/oldvideos/R_S_bing-www_yahoo_com_entertainment_anastasia-karanikolaou-chantel-jeffries-discuss-182400502_html_9.mp4	0.0	283.1648368835449	0.07495713233947754
74	202.51347398757935	response	0	4		72.0	2.5	/experiments/knapen_aot/oldvideos/R_S_bing-www_yahoo_com_entertainment_anastasia-karanikolaou-chantel-jeffries-discuss-182400502_html_9.mp4	0.0	283.2316620349884	
74	202.52160596847534	movie	1		164.0	72.0	2.5	/experiments/knapen_aot/oldvideos/R_S_bing-www_yahoo_com_entertainment_anastasia-karanikolaou-chantel-jeffries-discuss-182400502_html_9.mp4	0.0	283.2397940158844	2.508594036102295
74	202.6966049671173	response	1	4		72.0	2.5	/experiments/knapen_aot/oldvideos/R_S_bing-www_yahoo_com_entertainment_anastasia-karanikolaou-chantel-jeffries-discuss-182400502_html_9.mp4	0.0	283.41479301452637	
74	205.03020000457764	fix_post	2		12.0	72.0	2.5	/experiments/knapen_aot/oldvideos/R_S_bing-www_yahoo_com_entertainment_anastasia-karanikolaou-chantel-jeffries-discuss-182400502_html_9.mp4	0.0	285.7483880519867	0.09979391098022461
75	205.12999391555786	fix_pre	0		5.0	73.0	2.5	/experiments/knapen_aot/oldvideos/R_S_yt-0xzYSBvVfYM_197.mp4	0.0	285.8481819629669	0.04166603088378906
75	205.1634750366211	response	0	4		73.0	2.5	/experiments/knapen_aot/oldvideos/R_S_yt-0xzYSBvVfYM_197.mp4	0.0	285.88166308403015	
75	205.17165994644165	movie	1		301.0	73.0	2.5	/experiments/knapen_aot/oldvideos/R_S_yt-0xzYSBvVfYM_197.mp4	0.0	285.8898479938507	2.5083510875701904
75	207.68001103401184	fix_post	2		12.0	73.0	2.5	/experiments/knapen_aot/oldvideos/R_S_yt-0xzYSBvVfYM_197.mp4	0.0	288.3981990814209	0.10000991821289062
76	207.78002095222473	fix_pre	0		26.0	74.0	2.5	/experiments/knapen_aot/oldvideos/R_S_yt-V35ubrbe8gA_86.mp4	0.0	288.4982089996338	0.21764206886291504
76	207.98839402198792	response	0	4		74.0	2.5	/experiments/knapen_aot/oldvideos/R_S_yt-V35ubrbe8gA_86.mp4	0.0	288.706582069397	
76	207.99766302108765	movie	1		301.0	74.0	2.5	/experiments/knapen_aot/oldvideos/R_S_yt-V35ubrbe8gA_86.mp4	0.0	288.7158510684967	2.5073318481445312
76	209.61663389205933	response	1	4		74.0	2.5	/experiments/knapen_aot/oldvideos/R_S_yt-V35ubrbe8gA_86.mp4	0.0	290.3348219394684	
76	209.83847999572754	response	1	4		74.0	2.5	/experiments/knapen_aot/oldvideos/R_S_yt-V35ubrbe8gA_86.mp4	0.0	290.5566680431366	
76	210.01673197746277	response	1	4		74.0	2.5	/experiments/knapen_aot/oldvideos/R_S_yt-V35ubrbe8gA_86.mp4	0.0	290.7349200248718	
76	210.21667098999023	response	1	4		74.0	2.5	/experiments/knapen_aot/oldvideos/R_S_yt-V35ubrbe8gA_86.mp4	0.0	290.9348590373993	
76	210.50499486923218	fix_post	2		12.0	74.0	2.5	/experiments/knapen_aot/oldvideos/R_S_yt-V35ubrbe8gA_86.mp4	0.0	291.22318291664124	0.10010313987731934
76	210.49783492088318	response	2	4		74.0	2.5	/experiments/knapen_aot/oldvideos/R_S_yt-V35ubrbe8gA_86.mp4	0.0	291.21602296829224	
77	210.6050980091095	fix_pre	0		16.0	75.0	2.5	blank	1.0	291.32328605651855	0.13329005241394043
77	210.73004388809204	response	0	4		75.0	2.5	blank	1.0	291.4482319355011	
77	210.73838806152344	movie	1		301.0	75.0	2.5	blank	1.0	291.4565761089325	2.508220911026001
77	212.56339597702026	response	1	4		75.0	2.5	blank	1.0	293.2815840244293	
77	212.80501103401184	response	1	4		75.0	2.5	blank	1.0	293.5231990814209	
77	212.99671483039856	response	1	4		75.0	2.5	blank	1.0	293.7149028778076	
77	213.1716799736023	response	1	4		75.0	2.5	blank	1.0	293.88986802101135	
77	213.24660897254944	fix_post	2		12.0	75.0	2.5	blank	1.0	293.9647970199585	0.10004806518554688
78	213.34665703773499	fix_pre	0		5.0	76.0	2.5	/experiments/knapen_aot/oldvideos/S_yt-PYHK810V_n8_1375.mp4	0.0	294.06484508514404	0.041638851165771484
78	213.37283492088318	response	0	4		76.0	2.5	/experiments/knapen_aot/oldvideos/S_yt-PYHK810V_n8_1375.mp4	0.0	294.09102296829224	
78	213.38829588890076	movie	1		301.0	76.0	2.5	/experiments/knapen_aot/oldvideos/S_yt-PYHK810V_n8_1375.mp4	0.0	294.1064839363098	2.5085480213165283
78	215.52166485786438	response	1	4		76.0	2.5	/experiments/knapen_aot/oldvideos/S_yt-PYHK810V_n8_1375.mp4	0.0	296.23985290527344	
78	215.70596289634705	response	1	4		76.0	2.5	/experiments/knapen_aot/oldvideos/S_yt-PYHK810V_n8_1375.mp4	0.0	296.4241509437561	
78	215.89684391021729	fix_post	2		12.0	76.0	2.5	/experiments/knapen_aot/oldvideos/S_yt-PYHK810V_n8_1375.mp4	0.0	296.61503195762634	0.09973692893981934
78	215.90499997138977	response	2	4		76.0	2.5	/experiments/knapen_aot/oldvideos/S_yt-PYHK810V_n8_1375.mp4	0.0	296.6231880187988	
79	215.9965808391571	fix_pre	0		12.0	77.0	2.5	/experiments/knapen_aot/oldvideos/R_S_yt-GjFQxAklviE_25.mp4	0.0	296.71476888656616	0.10000801086425781
79	216.0807979106903	response	0	4		77.0	2.5	/experiments/knapen_aot/oldvideos/R_S_yt-GjFQxAklviE_25.mp4	0.0	296.79898595809937	
79	216.09658885002136	movie	1		301.0	77.0	2.5	/experiments/knapen_aot/oldvideos/R_S_yt-GjFQxAklviE_25.mp4	0.0	296.8147768974304	2.5083541870117188
79	216.2633888721466	response	1	4		77.0	2.5	/experiments/knapen_aot/oldvideos/R_S_yt-GjFQxAklviE_25.mp4	0.0	296.98157691955566	
79	218.60494303703308	fix_post	2		12.0	77.0	2.5	/experiments/knapen_aot/oldvideos/R_S_yt-GjFQxAklviE_25.mp4	0.0	299.32313108444214	0.09999394416809082
80	218.70493698120117	fix_pre	0		7.0	78.0	2.5	/experiments/knapen_aot/oldvideos/S_yt-_BvMLZo0MG0_1226.mp4	0.0	299.42312502861023	0.058320045471191406
80	218.75503396987915	response	0	4		78.0	2.5	/experiments/knapen_aot/oldvideos/S_yt-_BvMLZo0MG0_1226.mp4	0.0	299.4732220172882	
80	218.76325702667236	movie	1		301.0	78.0	2.5	/experiments/knapen_aot/oldvideos/S_yt-_BvMLZo0MG0_1226.mp4	0.0	299.4814450740814	2.5083060264587402
80	220.4177439212799	response	1	4		78.0	2.5	/experiments/knapen_aot/oldvideos/S_yt-_BvMLZo0MG0_1226.mp4	0.0	301.13593196868896	
80	220.63841199874878	response	1	4		78.0	2.5	/experiments/knapen_aot/oldvideos/S_yt-_BvMLZo0MG0_1226.mp4	0.0	301.35660004615784	
80	220.84665894508362	response	1	4		78.0	2.5	/experiments/knapen_aot/oldvideos/S_yt-_BvMLZo0MG0_1226.mp4	0.0	301.5648469924927	
80	221.0551209449768	response	1	4		78.0	2.5	/experiments/knapen_aot/oldvideos/S_yt-_BvMLZo0MG0_1226.mp4	0.0	301.77330899238586	
80	221.24685096740723	response	1	4		78.0	2.5	/experiments/knapen_aot/oldvideos/S_yt-_BvMLZo0MG0_1226.mp4	0.0	301.9650390148163	
80	221.2715630531311	fix_post	2		12.0	78.0	2.5	/experiments/knapen_aot/oldvideos/S_yt-_BvMLZo0MG0_1226.mp4	0.0	301.98975110054016	0.10003900527954102
81	221.37160205841064	fix_pre	0		10.0	79.0	2.5	/experiments/knapen_aot/oldvideos/R_S_yt-TSSPDwAQLXs_158.mp4	0.0	302.0897901058197	0.0841817855834961
81	221.44669198989868	response	0	4		79.0	2.5	/experiments/knapen_aot/oldvideos/R_S_yt-TSSPDwAQLXs_158.mp4	0.0	302.16488003730774	
81	221.45578384399414	movie	1		301.0	79.0	2.5	/experiments/knapen_aot/oldvideos/R_S_yt-TSSPDwAQLXs_158.mp4	0.0	302.1739718914032	2.5074641704559326
81	223.28919005393982	response	1	4		79.0	2.5	/experiments/knapen_aot/oldvideos/R_S_yt-TSSPDwAQLXs_158.mp4	0.0	304.0073781013489	
81	223.48014497756958	response	1	4		79.0	2.5	/experiments/knapen_aot/oldvideos/R_S_yt-TSSPDwAQLXs_158.mp4	0.0	304.19833302497864	
81	223.69159698486328	response	1	4		79.0	2.5	/experiments/knapen_aot/oldvideos/R_S_yt-TSSPDwAQLXs_158.mp4	0.0	304.40978503227234	
81	223.92167901992798	response	1	4		79.0	2.5	/experiments/knapen_aot/oldvideos/R_S_yt-TSSPDwAQLXs_158.mp4	0.0	304.63986706733704	
81	223.96324801445007	fix_post	2		12.0	79.0	2.5	/experiments/knapen_aot/oldvideos/R_S_yt-TSSPDwAQLXs_158.mp4	0.0	304.68143606185913	0.10000896453857422
82	224.06325697898865	fix_pre	0		28.0	80.0	2.5	/experiments/knapen_aot/oldvideos/R_S_ILSVRC2015_train_00497001.mp4	0.0	304.7814450263977	0.23331999778747559
82	224.28836703300476	response	0	4		80.0	2.5	/experiments/knapen_aot/oldvideos/R_S_ILSVRC2015_train_00497001.mp4	0.0	305.0065550804138	
82	224.29657697677612	movie	1		301.0	80.0	2.5	/experiments/knapen_aot/oldvideos/R_S_ILSVRC2015_train_00497001.mp4	0.0	305.0147650241852	2.508328914642334
82	226.80490589141846	fix_post	2		12.0	80.0	2.5	/experiments/knapen_aot/oldvideos/R_S_ILSVRC2015_train_00497001.mp4	0.0	307.5230939388275	0.10233807563781738
82	226.89674186706543	response	2	4		80.0	2.5	/experiments/knapen_aot/oldvideos/R_S_ILSVRC2015_train_00497001.mp4	0.0	307.6149299144745	
83	226.90724396705627	fix_pre	0		39.0	81.0	2.5	/experiments/knapen_aot/oldvideos/S_yt-iKe-0YNR5Eo_164.mp4	0.0	307.62543201446533	0.32262301445007324
83	227.22166299819946	response	0	4		81.0	2.5	/experiments/knapen_aot/oldvideos/S_yt-iKe-0YNR5Eo_164.mp4	0.0	307.9398510456085	
83	227.22986698150635	movie	1		301.0	81.0	2.5	/experiments/knapen_aot/oldvideos/S_yt-iKe-0YNR5Eo_164.mp4	0.0	307.9480550289154	2.508375883102417
83	229.73824286460876	fix_post	2		12.0	81.0	2.5	/experiments/knapen_aot/oldvideos/S_yt-iKe-0YNR5Eo_164.mp4	0.0	310.4564309120178	0.10002803802490234
84	229.83827090263367	fix_pre	0		6.0	82.0	2.5	/experiments/knapen_aot/oldvideos/R_S_b3TCugtX0h0_108.mp4	0.0	310.5564589500427	0.04993104934692383
84	229.88003492355347	response	0	4		82.0	2.5	/experiments/knapen_aot/oldvideos/R_S_b3TCugtX0h0_108.mp4	0.0	310.5982229709625	
84	229.8882019519806	movie	1		301.0	82.0	2.5	/experiments/knapen_aot/oldvideos/R_S_b3TCugtX0h0_108.mp4	0.0	310.60638999938965	2.5083680152893066
84	231.86565804481506	response	1	4		82.0	2.5	/experiments/knapen_aot/oldvideos/R_S_b3TCugtX0h0_108.mp4	0.0	312.5838460922241	
84	232.09668588638306	response	1	4		82.0	2.5	/experiments/knapen_aot/oldvideos/R_S_b3TCugtX0h0_108.mp4	0.0	312.8148739337921	
84	232.3049499988556	response	1	4		82.0	2.5	/experiments/knapen_aot/oldvideos/R_S_b3TCugtX0h0_108.mp4	0.0	313.02313804626465	
84	232.3965699672699	fix_post	2		12.0	82.0	2.5	/experiments/knapen_aot/oldvideos/R_S_b3TCugtX0h0_108.mp4	0.0	313.11475801467896	0.09998202323913574
85	232.49655199050903	fix_pre	0		22.0	83.0	2.5	blank	1.0	313.2147400379181	0.1833329200744629
85	232.67166900634766	response	0	4		83.0	2.5	blank	1.0	313.3898570537567	
85	232.6798849105835	movie	1		301.0	83.0	2.5	blank	1.0	313.39807295799255	2.508368968963623
85	235.18825387954712	fix_post	2		12.0	83.0	2.5	blank	1.0	315.9064419269562	0.10106897354125977
87	235.28932285308838	stim	0		124.0					316.00751090049744	1.034419059753418
87	235.43936395645142	response	0	4						316.1575520038605	
87	236.3154480457306	response	0	space						317.03363609313965	
