trial_nr	onset	event_type	phase	response	nr_frames	movie_index	movie_duration	movie_file	blank	onset_abs	duration
0	0.15833687782287598	stim	0		3255.0					98.88460087776184	27.24225115776062
0	18.870739936828613	response	0	2						117.59700393676758	
0	22.08395791053772	response	0	2						120.81022191047668	
0	23.950650930404663	response	0	4						122.67691493034363	
0	24.97979187965393	response	0	return						123.7060558795929	
0	26.02572202682495	response	0	return						124.75198602676392	
0	27.391298055648804	response	0	space						126.11756205558777	
1	27.400588035583496	stim	0		121.0					126.12685203552246	1.0073258876800537
1	28.40791392326355	stim	1		120.0					127.13417792320251	0.999993085861206
2	29.407907009124756	fix_pre	0		225.0	0.0	2.5	/experiments/knapen_aot/videos/R_S_yt-K_gHa2x2OQA_319.mp4	0.0	128.13417100906372	1.8749558925628662
2	31.27642798423767	response	0	2		0.0	2.5	/experiments/knapen_aot/videos/R_S_yt-K_gHa2x2OQA_319.mp4	0.0	130.00269198417664	
2	31.282862901687622	movie	1		298.0	0.0	2.5	/experiments/knapen_aot/videos/R_S_yt-K_gHa2x2OQA_319.mp4	0.0	130.0091269016266	2.508362054824829
2	33.79122495651245	fix_post	2		12.0	0.0	2.5	/experiments/knapen_aot/videos/R_S_yt-K_gHa2x2OQA_319.mp4	0.0	132.51748895645142	0.0999751091003418
3	33.89120006561279	fix_pre	0		834.0	1.0	2.5	/experiments/knapen_aot/videos/R_S_ILSVRC2015_train_00479000.mp4	0.0	132.61746406555176	6.953456878662109
3	40.835901975631714	response	0	space		1.0	2.5	/experiments/knapen_aot/videos/R_S_ILSVRC2015_train_00479000.mp4	0.0	139.56216597557068	
3	40.8446569442749	movie	1		295.0	1.0	2.5	/experiments/knapen_aot/videos/R_S_ILSVRC2015_train_00479000.mp4	0.0	139.57092094421387	2.504823923110962
3	43.349480867385864	fix_post	2		12.0	1.0	2.5	/experiments/knapen_aot/videos/R_S_ILSVRC2015_train_00479000.mp4	0.0	142.07574486732483	0.1001131534576416
4	43.449594020843506	fix_pre	0		454.0	2.0	2.5	/experiments/knapen_aot/videos/S_yt-aSEKRE_FNaI_62.mp4	0.0	142.17585802078247	3.783874034881592
4	47.22938895225525	response	0	2		2.0	2.5	/experiments/knapen_aot/videos/S_yt-aSEKRE_FNaI_62.mp4	0.0	145.9556529521942	
4	47.2334680557251	movie	1		298.0	2.0	2.5	/experiments/knapen_aot/videos/S_yt-aSEKRE_FNaI_62.mp4	0.0	145.95973205566406	2.5076589584350586
4	49.741127014160156	fix_post	2		12.0	2.0	2.5	/experiments/knapen_aot/videos/S_yt-aSEKRE_FNaI_62.mp4	0.0	148.46739101409912	0.10005998611450195
5	49.84118700027466	fix_pre	0		173.0	3.0	2.5	/experiments/knapen_aot/videos/S_bing-www_yahoo_com_entertainment_anastasia-karanikolaou-chantel-jeffries-discuss-182400502_html_9.mp4	0.0	148.56745100021362	1.441575050354004
5	51.27458906173706	response	0	2		3.0	2.5	/experiments/knapen_aot/videos/S_bing-www_yahoo_com_entertainment_anastasia-karanikolaou-chantel-jeffries-discuss-182400502_html_9.mp4	0.0	150.00085306167603	
5	51.28276205062866	movie	1		160.0	3.0	2.5	/experiments/knapen_aot/videos/S_bing-www_yahoo_com_entertainment_anastasia-karanikolaou-chantel-jeffries-discuss-182400502_html_9.mp4	0.0	150.00902605056763	2.508269786834717
5	53.79103183746338	fix_post	2		12.0	3.0	2.5	/experiments/knapen_aot/videos/S_bing-www_yahoo_com_entertainment_anastasia-karanikolaou-chantel-jeffries-discuss-182400502_html_9.mp4	0.0	152.51729583740234	0.10007715225219727
6	53.891108989715576	fix_pre	0		33.0	4.0	2.5	/experiments/knapen_aot/videos/R_S_yt-pB9w3AA-woE_37.mp4	0.0	152.61737298965454	0.27492690086364746
6	54.157856941223145	response	0	2		4.0	2.5	/experiments/knapen_aot/videos/R_S_yt-pB9w3AA-woE_37.mp4	0.0	152.8841209411621	
6	54.166035890579224	movie	1		301.0	4.0	2.5	/experiments/knapen_aot/videos/R_S_yt-pB9w3AA-woE_37.mp4	0.0	152.8922998905182	2.50839900970459
6	56.67443490028381	fix_post	2		12.0	4.0	2.5	/experiments/knapen_aot/videos/R_S_yt-pB9w3AA-woE_37.mp4	0.0	155.40069890022278	0.09987711906433105
7	56.774312019348145	fix_pre	0		45.0	5.0	2.5	blank	1.0	155.5005760192871	0.37573695182800293
7	57.14116406440735	response	0	2		5.0	2.5	blank	1.0	155.8674280643463	
7	57.15004897117615	movie	1		301.0	5.0	2.5	blank	1.0	155.8763129711151	2.5078110694885254
7	59.65786004066467	fix_post	2		12.0	5.0	2.5	blank	1.0	158.38412404060364	0.09986186027526855
8	59.75772190093994	fix_pre	0		796.0	6.0	2.5	/experiments/knapen_aot/videos/R_S_ILSVRC2015_train_00715000.mp4	0.0	158.4839859008789	6.633311986923218
8	66.38281798362732	response	0	2		6.0	2.5	/experiments/knapen_aot/videos/R_S_ILSVRC2015_train_00715000.mp4	0.0	165.10908198356628	
8	66.39103388786316	movie	1		301.0	6.0	2.5	/experiments/knapen_aot/videos/R_S_ILSVRC2015_train_00715000.mp4	0.0	165.11729788780212	2.5083200931549072
8	68.89935398101807	fix_post	2		12.0	6.0	2.5	/experiments/knapen_aot/videos/R_S_ILSVRC2015_train_00715000.mp4	0.0	167.62561798095703	0.10004806518554688
9	68.99940204620361	fix_pre	0		155.0	7.0	2.5	/experiments/knapen_aot/videos/R_S_yt-zhQ32_OayBQ_39.mp4	0.0	167.72566604614258	1.291585922241211
9	70.28283190727234	response	0	2		7.0	2.5	/experiments/knapen_aot/videos/R_S_yt-zhQ32_OayBQ_39.mp4	0.0	169.0090959072113	
9	70.29098796844482	movie	1		301.0	7.0	2.5	/experiments/knapen_aot/videos/R_S_yt-zhQ32_OayBQ_39.mp4	0.0	169.0172519683838	2.508413076400757
9	72.79940104484558	fix_post	2		12.0	7.0	2.5	/experiments/knapen_aot/videos/R_S_yt-zhQ32_OayBQ_39.mp4	0.0	171.52566504478455	0.09986495971679688
10	72.89926600456238	fix_pre	0		151.0	8.0	2.5	/experiments/knapen_aot/videos/R_S_yt-6mRpmfIvdew_1435.mp4	0.0	171.62553000450134	1.2584419250488281
10	74.1494128704071	response	0	2		8.0	2.5	/experiments/knapen_aot/videos/R_S_yt-6mRpmfIvdew_1435.mp4	0.0	172.87567687034607	
10	74.1577079296112	movie	1		301.0	8.0	2.5	/experiments/knapen_aot/videos/R_S_yt-6mRpmfIvdew_1435.mp4	0.0	172.88397192955017	2.5082831382751465
10	76.66599106788635	fix_post	2		12.0	8.0	2.5	/experiments/knapen_aot/videos/R_S_yt-6mRpmfIvdew_1435.mp4	0.0	175.39225506782532	0.10009384155273438
11	76.76608490943909	fix_pre	0		186.0	9.0	2.5	/experiments/knapen_aot/videos/R_S_pexels-artem-podrez-5457692.mp4	0.0	175.49234890937805	1.5504260063171387
11	78.30779695510864	response	0	2		9.0	2.5	/experiments/knapen_aot/videos/R_S_pexels-artem-podrez-5457692.mp4	0.0	177.0340609550476	
11	78.31651091575623	movie	1		161.0	9.0	2.5	/experiments/knapen_aot/videos/R_S_pexels-artem-podrez-5457692.mp4	0.0	177.0427749156952	2.507823944091797
11	80.82433485984802	fix_post	2		12.0	9.0	2.5	/experiments/knapen_aot/videos/R_S_pexels-artem-podrez-5457692.mp4	0.0	179.550598859787	0.09997820854187012
12	80.92431306838989	fix_pre	0		136.0	10.0	2.5	/experiments/knapen_aot/videos/S_yt-K_gHa2x2OQA_319.mp4	0.0	179.65057706832886	1.1333777904510498
12	82.04192996025085	response	0	2		10.0	2.5	/experiments/knapen_aot/videos/S_yt-K_gHa2x2OQA_319.mp4	0.0	180.76819396018982	
12	82.05769085884094	movie	1		301.0	10.0	2.5	/experiments/knapen_aot/videos/S_yt-K_gHa2x2OQA_319.mp4	0.0	180.7839548587799	2.508315086364746
12	84.56600594520569	fix_post	2		12.0	10.0	2.5	/experiments/knapen_aot/videos/S_yt-K_gHa2x2OQA_319.mp4	0.0	183.29226994514465	0.10001397132873535
13	84.66601991653442	fix_pre	0		160.0	11.0	2.5	/experiments/knapen_aot/videos/R_S_yt-o_CT2MjZ9fA_216.mp4	0.0	183.3922839164734	1.3332171440124512
13	85.9835410118103	response	0	2		11.0	2.5	/experiments/knapen_aot/videos/R_S_yt-o_CT2MjZ9fA_216.mp4	0.0	184.70980501174927	
13	85.99923706054688	movie	1		301.0	11.0	2.5	/experiments/knapen_aot/videos/R_S_yt-o_CT2MjZ9fA_216.mp4	0.0	184.72550106048584	2.5083649158477783
13	88.50760197639465	fix_post	2		12.0	11.0	2.5	/experiments/knapen_aot/videos/R_S_yt-o_CT2MjZ9fA_216.mp4	0.0	187.23386597633362	0.10006308555603027
14	88.60766506195068	fix_pre	0		106.0	12.0	2.5	/experiments/knapen_aot/videos/S_yt-dO0OuozAgt0_225.mp4	0.0	187.33392906188965	0.8832437992095947
14	89.48271584510803	response	0	2		12.0	2.5	/experiments/knapen_aot/videos/S_yt-dO0OuozAgt0_225.mp4	0.0	188.208979845047	
14	89.49090886116028	movie	1		301.0	12.0	2.5	/experiments/knapen_aot/videos/S_yt-dO0OuozAgt0_225.mp4	0.0	188.21717286109924	2.508362054824829
14	91.99927091598511	fix_post	2		12.0	12.0	2.5	/experiments/knapen_aot/videos/S_yt-dO0OuozAgt0_225.mp4	0.0	190.72553491592407	0.09987401962280273
15	92.09914493560791	fix_pre	0		98.0	13.0	2.5	blank	1.0	190.82540893554688	0.8169140815734863
15	92.90768885612488	response	0	2		13.0	2.5	blank	1.0	191.63395285606384	
15	92.9160590171814	movie	1		301.0	13.0	2.5	blank	1.0	191.64232301712036	2.5081698894500732
15	95.42422890663147	fix_post	2		12.0	13.0	2.5	blank	1.0	194.15049290657043	0.10043001174926758
16	95.52465891838074	fix_pre	0		159.0	14.0	2.5	/experiments/knapen_aot/videos/S_yt-tEzCpMrjOHs_24.mp4	0.0	194.2509229183197	1.3245570659637451
16	96.8335280418396	response	0	2		14.0	2.5	/experiments/knapen_aot/videos/S_yt-tEzCpMrjOHs_24.mp4	0.0	195.55979204177856	
16	96.84921598434448	movie	1		301.0	14.0	2.5	/experiments/knapen_aot/videos/S_yt-tEzCpMrjOHs_24.mp4	0.0	195.57547998428345	2.5083789825439453
16	99.35759496688843	fix_post	2		12.0	14.0	2.5	/experiments/knapen_aot/videos/S_yt-tEzCpMrjOHs_24.mp4	0.0	198.0838589668274	0.09995388984680176
17	99.45754885673523	fix_pre	0		77.0	15.0	2.5	/experiments/knapen_aot/videos/S_yt-mQRzWCcKOR8_28.mp4	0.0	198.1838128566742	0.6416311264038086
17	100.09099698066711	response	0	2		15.0	2.5	/experiments/knapen_aot/videos/S_yt-mQRzWCcKOR8_28.mp4	0.0	198.81726098060608	
17	100.09917998313904	movie	1		301.0	15.0	2.5	/experiments/knapen_aot/videos/S_yt-mQRzWCcKOR8_28.mp4	0.0	198.825443983078	2.5083608627319336
17	102.60754084587097	fix_post	2		12.0	15.0	2.5	/experiments/knapen_aot/videos/S_yt-mQRzWCcKOR8_28.mp4	0.0	201.33380484580994	0.09999203681945801
18	102.70753288269043	fix_pre	0		120.0	16.0	2.5	/experiments/knapen_aot/videos/R_S_ILSVRC2015_train_00689000.mp4	0.0	201.4337968826294	0.9999911785125732
18	103.69930386543274	response	0	2		16.0	2.5	/experiments/knapen_aot/videos/R_S_ILSVRC2015_train_00689000.mp4	0.0	202.4255678653717	
18	103.707524061203	movie	1		301.0	16.0	2.5	/experiments/knapen_aot/videos/R_S_ILSVRC2015_train_00689000.mp4	0.0	202.43378806114197	2.5083208084106445
18	106.21584486961365	fix_post	2		12.0	16.0	2.5	/experiments/knapen_aot/videos/R_S_ILSVRC2015_train_00689000.mp4	0.0	204.9421088695526	0.10037612915039062
19	106.31622099876404	fix_pre	0		92.0	17.0	2.5	/experiments/knapen_aot/videos/R_S_yt-LQrnLKP5tiQ_48.mp4	0.0	205.042484998703	0.7661950588226318
19	107.07426595687866	response	0	2		17.0	2.5	/experiments/knapen_aot/videos/R_S_yt-LQrnLKP5tiQ_48.mp4	0.0	205.80052995681763	
19	107.08241605758667	movie	1		301.0	17.0	2.5	/experiments/knapen_aot/videos/R_S_yt-LQrnLKP5tiQ_48.mp4	0.0	205.80868005752563	2.508391857147217
19	109.59080791473389	fix_post	2		12.0	17.0	2.5	/experiments/knapen_aot/videos/R_S_yt-LQrnLKP5tiQ_48.mp4	0.0	208.31707191467285	0.10039210319519043
20	109.69120001792908	fix_pre	0		133.0	18.0	2.5	/experiments/knapen_aot/videos/S_ILSVRC2015_train_00638001.mp4	0.0	208.41746401786804	1.107961893081665
20	110.79096794128418	response	0	2		18.0	2.5	/experiments/knapen_aot/videos/S_ILSVRC2015_train_00638001.mp4	0.0	209.51723194122314	
20	110.79916191101074	movie	1		301.0	18.0	2.5	/experiments/knapen_aot/videos/S_ILSVRC2015_train_00638001.mp4	0.0	209.5254259109497	2.508327007293701
20	113.30748891830444	fix_post	2		12.0	18.0	2.5	/experiments/knapen_aot/videos/S_ILSVRC2015_train_00638001.mp4	0.0	212.0337529182434	0.10006403923034668
21	113.40755295753479	fix_pre	0		71.0	19.0	2.5	blank	1.0	212.13381695747375	0.5915939807891846
21	113.99097084999084	response	0	2		19.0	2.5	blank	1.0	212.7172348499298	
21	113.99914693832397	movie	1		301.0	19.0	2.5	blank	1.0	212.72541093826294	2.5083110332489014
21	116.50745797157288	fix_post	2		12.0	19.0	2.5	blank	1.0	215.23372197151184	0.10034799575805664
22	116.60780596733093	fix_pre	0		174.0	20.0	2.5	/experiments/knapen_aot/videos/R_S_yt-G65z8p1YNhw_16.mp4	0.0	215.3340699672699	1.4495980739593506
22	118.04927802085876	response	0	2		20.0	2.5	/experiments/knapen_aot/videos/R_S_yt-G65z8p1YNhw_16.mp4	0.0	216.77554202079773	
22	118.05740404129028	movie	1		301.0	20.0	2.5	/experiments/knapen_aot/videos/R_S_yt-G65z8p1YNhw_16.mp4	0.0	216.78366804122925	2.508375883102417
22	120.5657799243927	fix_post	2		12.0	20.0	2.5	/experiments/knapen_aot/videos/R_S_yt-G65z8p1YNhw_16.mp4	0.0	219.29204392433167	0.10001111030578613
23	120.66579103469849	fix_pre	0		141.0	21.0	2.5	/experiments/knapen_aot/videos/S_Pexels_Videos_2795731.mp4	0.0	219.39205503463745	1.1749858856201172
23	121.83253693580627	response	0	2		21.0	2.5	/experiments/knapen_aot/videos/S_Pexels_Videos_2795731.mp4	0.0	220.55880093574524	
23	121.8407769203186	movie	1		165.0	21.0	2.5	/experiments/knapen_aot/videos/S_Pexels_Videos_2795731.mp4	0.0	220.56704092025757	2.508327007293701
23	124.3491039276123	fix_post	2		12.0	21.0	2.5	/experiments/knapen_aot/videos/S_Pexels_Videos_2795731.mp4	0.0	223.07536792755127	0.10002803802490234
24	124.4491319656372	fix_pre	0		159.0	22.0	2.5	/experiments/knapen_aot/videos/S_yt-CRw9-cCQqbg_332.mp4	0.0	223.17539596557617	1.3252999782562256
24	125.76599597930908	response	0	2		22.0	2.5	/experiments/knapen_aot/videos/S_yt-CRw9-cCQqbg_332.mp4	0.0	224.49225997924805	
24	125.77443194389343	movie	1		301.0	22.0	2.5	/experiments/knapen_aot/videos/S_yt-CRw9-cCQqbg_332.mp4	0.0	224.5006959438324	2.5080199241638184
24	128.28245186805725	fix_post	2		12.0	22.0	2.5	/experiments/knapen_aot/videos/S_yt-CRw9-cCQqbg_332.mp4	0.0	227.00871586799622	0.1000370979309082
25	128.38248896598816	fix_pre	0		127.0	23.0	2.5	/experiments/knapen_aot/videos/R_S_yt-jYSri2JVUqo_1036.mp4	0.0	227.10875296592712	1.0585029125213623
25	129.43258500099182	response	0	2		23.0	2.5	/experiments/knapen_aot/videos/R_S_yt-jYSri2JVUqo_1036.mp4	0.0	228.1588490009308	
25	129.44099187850952	movie	1		301.0	23.0	2.5	/experiments/knapen_aot/videos/R_S_yt-jYSri2JVUqo_1036.mp4	0.0	228.1672558784485	2.5081071853637695
25	131.9490990638733	fix_post	2		12.0	23.0	2.5	/experiments/knapen_aot/videos/R_S_yt-jYSri2JVUqo_1036.mp4	0.0	230.67536306381226	0.1000218391418457
26	132.04912090301514	fix_pre	0		111.0	24.0	2.5	/experiments/knapen_aot/videos/R_S_yt-33PKaLVxDC4_2703.mp4	0.0	230.7753849029541	0.9249000549316406
26	132.9658830165863	response	0	2		24.0	2.5	/experiments/knapen_aot/videos/R_S_yt-33PKaLVxDC4_2703.mp4	0.0	231.69214701652527	
26	132.97402095794678	movie	1		301.0	24.0	2.5	/experiments/knapen_aot/videos/R_S_yt-33PKaLVxDC4_2703.mp4	0.0	231.70028495788574	2.5085949897766113
26	135.4826159477234	fix_post	2		12.0	24.0	2.5	/experiments/knapen_aot/videos/R_S_yt-33PKaLVxDC4_2703.mp4	0.0	234.20887994766235	0.09975695610046387
27	135.58237290382385	fix_pre	0		108.0	25.0	2.5	/experiments/knapen_aot/videos/R_S_comp_LA_A005_C009_PSNK_ALT_v09_SDR_PS_201809134_SDR_2K_AVC.mp4	0.0	234.30863690376282	0.9002029895782471
27	136.47421789169312	response	0	2		25.0	2.5	/experiments/knapen_aot/videos/R_S_comp_LA_A005_C009_PSNK_ALT_v09_SDR_PS_201809134_SDR_2K_AVC.mp4	0.0	235.20048189163208	
27	136.4825758934021	movie	1		169.0	25.0	2.5	/experiments/knapen_aot/videos/R_S_comp_LA_A005_C009_PSNK_ALT_v09_SDR_PS_201809134_SDR_2K_AVC.mp4	0.0	235.20883989334106	2.5081191062927246
27	138.99069499969482	fix_post	2		12.0	25.0	2.5	/experiments/knapen_aot/videos/R_S_comp_LA_A005_C009_PSNK_ALT_v09_SDR_PS_201809134_SDR_2K_AVC.mp4	0.0	237.7169589996338	0.09997701644897461
28	139.0906720161438	fix_pre	0		9.0	26.0	2.5	blank	1.0	237.81693601608276	0.07498693466186523
28	139.1575620174408	response	0	2		26.0	2.5	blank	1.0	237.88382601737976	
28	139.16565895080566	movie	1		301.0	26.0	2.5	blank	1.0	237.89192295074463	2.5083909034729004
28	141.67404985427856	fix_post	2		12.0	26.0	2.5	blank	1.0	240.40031385421753	0.10018420219421387
29	141.77423405647278	fix_pre	0		35.0	27.0	2.5	/experiments/knapen_aot/videos/R_S_yt-XtzmBXKYEWk_60.mp4	0.0	240.50049805641174	0.29166078567504883
29	142.05735301971436	response	0	2		27.0	2.5	/experiments/knapen_aot/videos/R_S_yt-XtzmBXKYEWk_60.mp4	0.0	240.78361701965332	
29	142.06589484214783	movie	1		301.0	27.0	2.5	/experiments/knapen_aot/videos/R_S_yt-XtzmBXKYEWk_60.mp4	0.0	240.7921588420868	2.5081541538238525
29	144.57404899597168	fix_post	2		12.0	27.0	2.5	/experiments/knapen_aot/videos/R_S_yt-XtzmBXKYEWk_60.mp4	0.0	243.30031299591064	0.09998703002929688
30	144.67403602600098	fix_pre	0		24.0	28.0	2.5	/experiments/knapen_aot/videos/R_S_yt-7Fyu2vr7zbA_31.mp4	0.0	243.40030002593994	0.19997096061706543
30	144.86580085754395	response	0	2		28.0	2.5	/experiments/knapen_aot/videos/R_S_yt-7Fyu2vr7zbA_31.mp4	0.0	243.5920648574829	
30	144.87400698661804	movie	1		301.0	28.0	2.5	/experiments/knapen_aot/videos/R_S_yt-7Fyu2vr7zbA_31.mp4	0.0	243.600270986557	2.5083138942718506
30	147.3823208808899	fix_post	2		12.0	28.0	2.5	/experiments/knapen_aot/videos/R_S_yt-7Fyu2vr7zbA_31.mp4	0.0	246.10858488082886	0.10016512870788574
31	147.48248600959778	fix_pre	0		59.0	29.0	2.5	/experiments/knapen_aot/videos/R_S_yt-nQu-PAXBv2g_5.mp4	0.0	246.20875000953674	0.49143290519714355
31	147.95820784568787	response	0	2		29.0	2.5	/experiments/knapen_aot/videos/R_S_yt-nQu-PAXBv2g_5.mp4	0.0	246.68447184562683	
31	147.97391891479492	movie	1		301.0	29.0	2.5	/experiments/knapen_aot/videos/R_S_yt-nQu-PAXBv2g_5.mp4	0.0	246.7001829147339	2.5086190700531006
31	150.48253798484802	fix_post	2		12.0	29.0	2.5	/experiments/knapen_aot/videos/R_S_yt-nQu-PAXBv2g_5.mp4	0.0	249.208801984787	0.09982705116271973
32	150.58236503601074	fix_pre	0		96.0	30.0	2.5	/experiments/knapen_aot/videos/R_S_yt-g_CLzrCYHoc_7.mp4	0.0	249.3086290359497	0.7998578548431396
32	151.3741819858551	response	0	2		30.0	2.5	/experiments/knapen_aot/videos/R_S_yt-g_CLzrCYHoc_7.mp4	0.0	250.10044598579407	
32	151.38222289085388	movie	1		301.0	30.0	2.5	/experiments/knapen_aot/videos/R_S_yt-g_CLzrCYHoc_7.mp4	0.0	250.10848689079285	2.5083930492401123
32	153.890615940094	fix_post	2		12.0	30.0	2.5	/experiments/knapen_aot/videos/R_S_yt-g_CLzrCYHoc_7.mp4	0.0	252.61687994003296	0.10007405281066895
33	153.99068999290466	fix_pre	0		64.0	31.0	2.5	/experiments/knapen_aot/videos/R_S_ILSVRC2015_train_00404003.mp4	0.0	252.71695399284363	0.5334699153900146
33	154.51570796966553	response	0	2		31.0	2.5	/experiments/knapen_aot/videos/R_S_ILSVRC2015_train_00404003.mp4	0.0	253.2419719696045	
33	154.52415990829468	movie	1		301.0	31.0	2.5	/experiments/knapen_aot/videos/R_S_ILSVRC2015_train_00404003.mp4	0.0	253.25042390823364	2.5081679821014404
33	157.03232789039612	fix_post	2		12.0	31.0	2.5	/experiments/knapen_aot/videos/R_S_ILSVRC2015_train_00404003.mp4	0.0	255.75859189033508	0.09997296333312988
34	157.13230085372925	fix_pre	0		43.0	32.0	2.5	/experiments/knapen_aot/videos/R_S_ILSVRC2015_train_00323000.mp4	0.0	255.8585648536682	0.35837817192077637
34	157.48239588737488	response	0	2		32.0	2.5	/experiments/knapen_aot/videos/R_S_ILSVRC2015_train_00323000.mp4	0.0	256.20865988731384	
34	157.49067902565002	movie	1		301.0	32.0	2.5	/experiments/knapen_aot/videos/R_S_ILSVRC2015_train_00323000.mp4	0.0	256.216943025589	2.5083718299865723
34	159.9990508556366	fix_post	2		12.0	32.0	2.5	/experiments/knapen_aot/videos/R_S_ILSVRC2015_train_00323000.mp4	0.0	258.72531485557556	0.1000370979309082
35	160.0990879535675	fix_pre	0		56.0	33.0	2.5	/experiments/knapen_aot/videos/S_comp_LW_L001_C006_PSNK_DENOISE_v02_SDR_PS_FINAL_20180709_SDR_2K_AVC.mp4	0.0	258.82535195350647	0.4666600227355957
35	160.5575029850006	response	0	2		33.0	2.5	/experiments/knapen_aot/videos/S_comp_LW_L001_C006_PSNK_DENOISE_v02_SDR_PS_FINAL_20180709_SDR_2K_AVC.mp4	0.0	259.2837669849396	
35	160.5657479763031	movie	1		163.0	33.0	2.5	/experiments/knapen_aot/videos/S_comp_LW_L001_C006_PSNK_DENOISE_v02_SDR_PS_FINAL_20180709_SDR_2K_AVC.mp4	0.0	259.29201197624207	2.5082130432128906
35	163.073961019516	fix_post	2		12.0	33.0	2.5	/experiments/knapen_aot/videos/S_comp_LW_L001_C006_PSNK_DENOISE_v02_SDR_PS_FINAL_20180709_SDR_2K_AVC.mp4	0.0	261.80022501945496	0.10003995895385742
36	163.17400097846985	fix_pre	0		70.0	34.0	2.5	blank	1.0	261.9002649784088	0.5845510959625244
36	163.74909591674805	response	0	2		34.0	2.5	blank	1.0	262.475359916687	
36	163.75855207443237	movie	1		301.0	34.0	2.5	blank	1.0	262.48481607437134	2.5070009231567383
36	166.2655529975891	fix_post	2		12.0	34.0	2.5	blank	1.0	264.9918169975281	0.10000205039978027
37	166.3655550479889	fix_pre	0		48.0	35.0	2.5	/experiments/knapen_aot/videos/S_yt-OTNdgakSIJE_97.mp4	0.0	265.09181904792786	0.4000740051269531
37	166.75743794441223	response	0	2		35.0	2.5	/experiments/knapen_aot/videos/S_yt-OTNdgakSIJE_97.mp4	0.0	265.4837019443512	
37	166.76562905311584	movie	1		301.0	35.0	2.5	/experiments/knapen_aot/videos/S_yt-OTNdgakSIJE_97.mp4	0.0	265.4918930530548	2.508453845977783
37	169.27408289909363	fix_post	2		12.0	35.0	2.5	/experiments/knapen_aot/videos/S_yt-OTNdgakSIJE_97.mp4	0.0	268.0003468990326	0.09986615180969238
38	169.37394905090332	fix_pre	0		34.0	36.0	2.5	/experiments/knapen_aot/videos/R_S_yt-9Ow95khYa_M_91.mp4	0.0	268.1002130508423	0.283275842666626
38	169.6489758491516	response	0	2		36.0	2.5	/experiments/knapen_aot/videos/R_S_yt-9Ow95khYa_M_91.mp4	0.0	268.3752398490906	
38	169.65722489356995	movie	1		301.0	36.0	2.5	/experiments/knapen_aot/videos/R_S_yt-9Ow95khYa_M_91.mp4	0.0	268.3834888935089	2.5084099769592285
38	172.16563487052917	fix_post	2		12.0	36.0	2.5	/experiments/knapen_aot/videos/R_S_yt-9Ow95khYa_M_91.mp4	0.0	270.89189887046814	0.09999299049377441
39	172.26562786102295	fix_pre	0		155.0	37.0	2.5	/experiments/knapen_aot/videos/R_S_yt-tEzCpMrjOHs_24.mp4	0.0	270.9918918609619	1.2915639877319336
39	173.54906797409058	response	0	2		37.0	2.5	/experiments/knapen_aot/videos/R_S_yt-tEzCpMrjOHs_24.mp4	0.0	272.27533197402954	
39	173.55719184875488	movie	1		301.0	37.0	2.5	/experiments/knapen_aot/videos/R_S_yt-tEzCpMrjOHs_24.mp4	0.0	272.28345584869385	2.5084710121154785
39	176.06566286087036	fix_post	2		12.0	37.0	2.5	/experiments/knapen_aot/videos/R_S_yt-tEzCpMrjOHs_24.mp4	0.0	274.7919268608093	0.09995198249816895
40	176.16561484336853	fix_pre	0		55.0	38.0	2.5	/experiments/knapen_aot/videos/R_S_yt-he_RSdeVinA_68.mp4	0.0	274.8918788433075	0.458280086517334
40	176.61570286750793	response	0	2		38.0	2.5	/experiments/knapen_aot/videos/R_S_yt-he_RSdeVinA_68.mp4	0.0	275.3419668674469	
40	176.62389492988586	movie	1		301.0	38.0	2.5	/experiments/knapen_aot/videos/R_S_yt-he_RSdeVinA_68.mp4	0.0	275.35015892982483	2.508394956588745
40	179.1322898864746	fix_post	2		12.0	38.0	2.5	/experiments/knapen_aot/videos/R_S_yt-he_RSdeVinA_68.mp4	0.0	277.8585538864136	0.09993410110473633
41	179.23222398757935	fix_pre	0		66.0	39.0	2.5	/experiments/knapen_aot/videos/S_yt-wE0cEswyaaM_53.mp4	0.0	277.9584879875183	0.5499858856201172
41	179.77403593063354	response	0	2		39.0	2.5	/experiments/knapen_aot/videos/S_yt-wE0cEswyaaM_53.mp4	0.0	278.5002999305725	
41	179.78220987319946	movie	1		301.0	39.0	2.5	/experiments/knapen_aot/videos/S_yt-wE0cEswyaaM_53.mp4	0.0	278.5084738731384	2.5083391666412354
41	182.2905490398407	fix_post	2		12.0	39.0	2.5	/experiments/knapen_aot/videos/S_yt-wE0cEswyaaM_53.mp4	0.0	281.01681303977966	0.09999489784240723
42	182.3905439376831	fix_pre	0		46.0	40.0	2.5	/experiments/knapen_aot/videos/R_S_wc-0SAXOWjdNVGC_8.mp4	0.0	281.11680793762207	0.38332104682922363
42	182.76568293571472	response	0	2		40.0	2.5	/experiments/knapen_aot/videos/R_S_wc-0SAXOWjdNVGC_8.mp4	0.0	281.4919469356537	
42	182.77386498451233	movie	1		164.0	40.0	2.5	/experiments/knapen_aot/videos/R_S_wc-0SAXOWjdNVGC_8.mp4	0.0	281.5001289844513	2.5083320140838623
42	185.2821969985962	fix_post	2		12.0	40.0	2.5	/experiments/knapen_aot/videos/R_S_wc-0SAXOWjdNVGC_8.mp4	0.0	284.00846099853516	0.1000070571899414
43	185.38220405578613	fix_pre	0		61.0	41.0	2.5	blank	1.0	284.1084680557251	0.5082798004150391
43	185.88236093521118	response	0	2		41.0	2.5	blank	1.0	284.60862493515015	
43	185.89048385620117	movie	1		301.0	41.0	2.5	blank	1.0	284.61674785614014	2.508404016494751
43	188.39888787269592	fix_post	2		12.0	41.0	2.5	blank	1.0	287.1251518726349	0.09990906715393066
44	188.49879693984985	fix_pre	0		45.0	42.0	2.5	/experiments/knapen_aot/videos/S_yt-QD74nNliDvI_10.mp4	0.0	287.2250609397888	0.37502193450927734
44	188.86559796333313	response	0	2		42.0	2.5	/experiments/knapen_aot/videos/S_yt-QD74nNliDvI_10.mp4	0.0	287.5918619632721	
44	188.87381887435913	movie	1		301.0	42.0	2.5	/experiments/knapen_aot/videos/S_yt-QD74nNliDvI_10.mp4	0.0	287.6000828742981	2.5083820819854736
44	191.3822009563446	fix_post	2		12.0	42.0	2.5	/experiments/knapen_aot/videos/S_yt-QD74nNliDvI_10.mp4	0.0	290.10846495628357	0.09997200965881348
45	191.48217296600342	fix_pre	0		111.0	43.0	2.5	/experiments/knapen_aot/videos/R_S_yt-0d5TkclKWVA_146.mp4	0.0	290.2084369659424	0.9249920845031738
45	192.39895296096802	response	0	2		43.0	2.5	/experiments/knapen_aot/videos/R_S_yt-0d5TkclKWVA_146.mp4	0.0	291.125216960907	
45	192.4071650505066	movie	1		301.0	43.0	2.5	/experiments/knapen_aot/videos/R_S_yt-0d5TkclKWVA_146.mp4	0.0	291.13342905044556	2.5083370208740234
45	194.91550207138062	fix_post	2		12.0	43.0	2.5	/experiments/knapen_aot/videos/R_S_yt-0d5TkclKWVA_146.mp4	0.0	293.6417660713196	0.09997797012329102
46	195.0154800415039	fix_pre	0		106.0	44.0	2.5	/experiments/knapen_aot/videos/R_S_pexels-mikhail-nilov-8410084.mp4	0.0	293.74174404144287	0.8832738399505615
46	195.89063906669617	response	0	2		44.0	2.5	/experiments/knapen_aot/videos/R_S_pexels-mikhail-nilov-8410084.mp4	0.0	294.61690306663513	
46	195.89875388145447	movie	1		165.0	44.0	2.5	/experiments/knapen_aot/videos/R_S_pexels-mikhail-nilov-8410084.mp4	0.0	294.62501788139343	2.5086140632629395
46	198.4073679447174	fix_post	2		12.0	44.0	2.5	/experiments/knapen_aot/videos/R_S_pexels-mikhail-nilov-8410084.mp4	0.0	297.1336319446564	0.09983205795288086
47	198.5072000026703	fix_pre	0		75.0	45.0	2.5	/experiments/knapen_aot/videos/R_S_yt-6mRpmfIvdew_1435.mp4	0.0	297.23346400260925	0.6249508857727051
47	199.1164209842682	response	0	2		45.0	2.5	/experiments/knapen_aot/videos/R_S_yt-6mRpmfIvdew_1435.mp4	0.0	297.84268498420715	
47	199.132150888443	movie	1		301.0	45.0	2.5	/experiments/knapen_aot/videos/R_S_yt-6mRpmfIvdew_1435.mp4	0.0	297.85841488838196	2.508355140686035
47	201.64050602912903	fix_post	2		12.0	45.0	2.5	/experiments/knapen_aot/videos/R_S_yt-6mRpmfIvdew_1435.mp4	0.0	300.366770029068	0.09999585151672363
48	201.74050188064575	fix_pre	0		45.0	46.0	2.5	/experiments/knapen_aot/videos/S_ILSVRC2015_train_00518001.mp4	0.0	300.4667658805847	0.3749871253967285
48	202.10733199119568	response	0	2		46.0	2.5	/experiments/knapen_aot/videos/S_ILSVRC2015_train_00518001.mp4	0.0	300.83359599113464	
48	202.11548900604248	movie	1		301.0	46.0	2.5	/experiments/knapen_aot/videos/S_ILSVRC2015_train_00518001.mp4	0.0	300.84175300598145	2.5083160400390625
48	204.62380504608154	fix_post	2		12.0	46.0	2.5	/experiments/knapen_aot/videos/S_ILSVRC2015_train_00518001.mp4	0.0	303.3500690460205	0.10000491142272949
49	204.72380995750427	fix_pre	0		40.0	47.0	2.5	/experiments/knapen_aot/videos/S_yt-Dlk44AGz-xM_37.mp4	0.0	303.45007395744324	0.33456897735595703
49	205.04892206192017	response	0	2		47.0	2.5	/experiments/knapen_aot/videos/S_yt-Dlk44AGz-xM_37.mp4	0.0	303.77518606185913	
49	205.05837893486023	movie	1		301.0	47.0	2.5	/experiments/knapen_aot/videos/S_yt-Dlk44AGz-xM_37.mp4	0.0	303.7846429347992	2.5070691108703613
49	207.5654480457306	fix_post	2		12.0	47.0	2.5	/experiments/knapen_aot/videos/S_yt-Dlk44AGz-xM_37.mp4	0.0	306.29171204566956	0.09999799728393555
50	207.66544604301453	fix_pre	0		135.0	48.0	2.5	/experiments/knapen_aot/videos/S_yt-KpOAdMtPGFs_17.mp4	0.0	306.3917100429535	1.124997854232788
50	208.78226399421692	response	0	2		48.0	2.5	/experiments/knapen_aot/videos/S_yt-KpOAdMtPGFs_17.mp4	0.0	307.5085279941559	
50	208.79044389724731	movie	1		301.0	48.0	2.5	/experiments/knapen_aot/videos/S_yt-KpOAdMtPGFs_17.mp4	0.0	307.5167078971863	2.508350133895874
50	211.2987940311432	fix_post	2		12.0	48.0	2.5	/experiments/knapen_aot/videos/S_yt-KpOAdMtPGFs_17.mp4	0.0	310.02505803108215	0.09994387626647949
51	211.39873790740967	fix_pre	0		73.0	49.0	2.5	blank	1.0	310.12500190734863	0.6083450317382812
51	211.99892497062683	response	0	2		49.0	2.5	blank	1.0	310.7251889705658	
51	212.00708293914795	movie	1		301.0	49.0	2.5	blank	1.0	310.7333469390869	2.5082640647888184
51	214.51534700393677	fix_post	2		12.0	49.0	2.5	blank	1.0	313.24161100387573	0.10002994537353516
52	214.6153769493103	fix_pre	0		399.0	50.0	2.5	/experiments/knapen_aot/videos/R_S_yt-4r-oovk9JWg_85.mp4	0.0	313.34164094924927	3.3249518871307373
52	217.93220901489258	response	0	2		50.0	2.5	/experiments/knapen_aot/videos/R_S_yt-4r-oovk9JWg_85.mp4	0.0	316.65847301483154	
52	217.94032883644104	movie	1		301.0	50.0	2.5	/experiments/knapen_aot/videos/R_S_yt-4r-oovk9JWg_85.mp4	0.0	316.66659283638	2.5084052085876465
52	220.4487340450287	fix_post	2		12.0	50.0	2.5	/experiments/knapen_aot/videos/R_S_yt-4r-oovk9JWg_85.mp4	0.0	319.17499804496765	0.10001587867736816
53	220.54874992370605	fix_pre	0		33.0	51.0	2.5	/experiments/knapen_aot/videos/R_S_yt-7VVzNnp36DM_62.mp4	0.0	319.275013923645	0.2749321460723877
53	220.81545686721802	response	0	2		51.0	2.5	/experiments/knapen_aot/videos/R_S_yt-7VVzNnp36DM_62.mp4	0.0	319.541720867157	
53	220.82368206977844	movie	1		301.0	51.0	2.5	/experiments/knapen_aot/videos/R_S_yt-7VVzNnp36DM_62.mp4	0.0	319.5499460697174	2.5083978176116943
53	223.33207988739014	fix_post	2		12.0	51.0	2.5	/experiments/knapen_aot/videos/R_S_yt-7VVzNnp36DM_62.mp4	0.0	322.0583438873291	0.09998512268066406
54	223.4320650100708	fix_pre	0		27.0	52.0	2.5	/experiments/knapen_aot/videos/S_bing-www_break_com_video_like-a-cat-catching-a-fly-3131008_12.mp4	0.0	322.15832901000977	0.22491788864135742
54	223.64885187149048	response	0	2		52.0	2.5	/experiments/knapen_aot/videos/S_bing-www_break_com_video_like-a-cat-catching-a-fly-3131008_12.mp4	0.0	322.37511587142944	
54	223.65698289871216	movie	1		301.0	52.0	2.5	/experiments/knapen_aot/videos/S_bing-www_break_com_video_like-a-cat-catching-a-fly-3131008_12.mp4	0.0	322.3832468986511	2.5083940029144287
54	226.1653769016266	fix_post	2		12.0	52.0	2.5	/experiments/knapen_aot/videos/S_bing-www_break_com_video_like-a-cat-catching-a-fly-3131008_12.mp4	0.0	324.89164090156555	0.10000300407409668
55	226.26537990570068	fix_pre	0		44.0	53.0	2.5	/experiments/knapen_aot/videos/S_yt-j3Sk8ZnAiEA_32.mp4	0.0	324.99164390563965	0.36664915084838867
55	226.62381792068481	response	0	2		53.0	2.5	/experiments/knapen_aot/videos/S_yt-j3Sk8ZnAiEA_32.mp4	0.0	325.3500819206238	
55	226.63202905654907	movie	1		301.0	53.0	2.5	/experiments/knapen_aot/videos/S_yt-j3Sk8ZnAiEA_32.mp4	0.0	325.35829305648804	2.5083348751068115
55	229.14036393165588	fix_post	2		12.0	53.0	2.5	/experiments/knapen_aot/videos/S_yt-j3Sk8ZnAiEA_32.mp4	0.0	327.86662793159485	0.09990096092224121
56	229.24026489257812	fix_pre	0		67.0	54.0	2.5	/experiments/knapen_aot/videos/R_S_yt-22c5eZ1UNME_76.mp4	0.0	327.9665288925171	0.5583829879760742
56	229.79044604301453	response	0	2		54.0	2.5	/experiments/knapen_aot/videos/R_S_yt-22c5eZ1UNME_76.mp4	0.0	328.5167100429535	
56	229.7986478805542	movie	1		301.0	54.0	2.5	/experiments/knapen_aot/videos/R_S_yt-22c5eZ1UNME_76.mp4	0.0	328.52491188049316	2.5085651874542236
56	232.30721306800842	fix_post	2		12.0	54.0	2.5	/experiments/knapen_aot/videos/R_S_yt-22c5eZ1UNME_76.mp4	0.0	331.0334770679474	0.09982180595397949
57	232.4070348739624	fix_pre	0		44.0	55.0	2.5	blank	1.0	331.13329887390137	0.36660003662109375
57	232.7654709815979	response	0	2		55.0	2.5	blank	1.0	331.49173498153687	
57	232.7736349105835	movie	1		301.0	55.0	2.5	blank	1.0	331.49989891052246	2.5083799362182617
57	235.28201484680176	fix_post	2		12.0	55.0	2.5	blank	1.0	334.0082788467407	0.10001802444458008
58	235.38203287124634	fix_pre	0		63.0	56.0	2.5	/experiments/knapen_aot/videos/R_S_ILSVRC2015_train_00405001.mp4	0.0	334.1082968711853	0.5249171257019043
58	235.89882493019104	response	0	2		56.0	2.5	/experiments/knapen_aot/videos/R_S_ILSVRC2015_train_00405001.mp4	0.0	334.62508893013	
58	235.90694999694824	movie	1		301.0	56.0	2.5	/experiments/knapen_aot/videos/R_S_ILSVRC2015_train_00405001.mp4	0.0	334.6332139968872	2.508312940597534
58	238.41526293754578	fix_post	2		12.0	56.0	2.5	/experiments/knapen_aot/videos/R_S_ILSVRC2015_train_00405001.mp4	0.0	337.14152693748474	0.10018801689147949
59	238.51545095443726	fix_pre	0		41.0	57.0	2.5	/experiments/knapen_aot/videos/R_S_ILSVRC2015_train_00563000.mp4	0.0	337.2417149543762	0.34153294563293457
59	238.8487298488617	response	0	2		57.0	2.5	/experiments/knapen_aot/videos/R_S_ILSVRC2015_train_00563000.mp4	0.0	337.57499384880066	
59	238.8569839000702	movie	1		301.0	57.0	2.5	/experiments/knapen_aot/videos/R_S_ILSVRC2015_train_00563000.mp4	0.0	337.58324790000916	2.508315086364746
59	241.36529898643494	fix_post	2		12.0	57.0	2.5	/experiments/knapen_aot/videos/R_S_ILSVRC2015_train_00563000.mp4	0.0	340.0915629863739	0.10003304481506348
60	241.46533203125	fix_pre	0		28.0	58.0	2.5	/experiments/knapen_aot/videos/R_S_yt-jUGt_Byqczw_599.mp4	0.0	340.19159603118896	0.23325800895690918
60	241.69049501419067	response	0	2		58.0	2.5	/experiments/knapen_aot/videos/R_S_yt-jUGt_Byqczw_599.mp4	0.0	340.41675901412964	
60	241.6985900402069	movie	1		301.0	58.0	2.5	/experiments/knapen_aot/videos/R_S_yt-jUGt_Byqczw_599.mp4	0.0	340.4248540401459	2.5088109970092773
60	244.2074010372162	fix_post	2		12.0	58.0	2.5	/experiments/knapen_aot/videos/R_S_yt-jUGt_Byqczw_599.mp4	0.0	342.93366503715515	0.09961295127868652
61	244.30701398849487	fix_pre	0		108.0	59.0	2.5	/experiments/knapen_aot/videos/S_xTlFOCRvy68_1564.mp4	0.0	343.03327798843384	0.8999130725860596
61	245.19874000549316	response	0	2		59.0	2.5	/experiments/knapen_aot/videos/S_xTlFOCRvy68_1564.mp4	0.0	343.92500400543213	
61	245.20692706108093	movie	1		301.0	59.0	2.5	/experiments/knapen_aot/videos/S_xTlFOCRvy68_1564.mp4	0.0	343.9331910610199	2.5083978176116943
61	247.71532487869263	fix_post	2		12.0	59.0	2.5	/experiments/knapen_aot/videos/S_xTlFOCRvy68_1564.mp4	0.0	346.4415888786316	0.1000070571899414
62	247.81533193588257	fix_pre	0		59.0	60.0	2.5	/experiments/knapen_aot/videos/R_S_video_inspire_oregon_lone-ranch-beach_00001.1080-h264.mp4	0.0	346.54159593582153	0.49270105361938477
62	248.29873204231262	response	0	2		60.0	2.5	/experiments/knapen_aot/videos/R_S_video_inspire_oregon_lone-ranch-beach_00001.1080-h264.mp4	0.0	347.0249960422516	
62	248.30803298950195	movie	1		165.0	60.0	2.5	/experiments/knapen_aot/videos/R_S_video_inspire_oregon_lone-ranch-beach_00001.1080-h264.mp4	0.0	347.0342969894409	2.507236957550049
62	250.815269947052	fix_post	2		12.0	60.0	2.5	/experiments/knapen_aot/videos/R_S_video_inspire_oregon_lone-ranch-beach_00001.1080-h264.mp4	0.0	349.54153394699097	0.09998798370361328
63	250.91525793075562	fix_pre	0		197.0	61.0	2.5	/experiments/knapen_aot/videos/S_yt-I9uf7kAccFA_229.mp4	0.0	349.6415219306946	1.6429951190948486
63	252.54873085021973	response	0	2		61.0	2.5	/experiments/knapen_aot/videos/S_yt-I9uf7kAccFA_229.mp4	0.0	351.2749948501587	
63	252.55825304985046	movie	1		301.0	61.0	2.5	/experiments/knapen_aot/videos/S_yt-I9uf7kAccFA_229.mp4	0.0	351.28451704978943	2.5070059299468994
63	255.06525897979736	fix_post	2		12.0	61.0	2.5	/experiments/knapen_aot/videos/S_yt-I9uf7kAccFA_229.mp4	0.0	353.7915229797363	0.09993195533752441
64	255.1651909351349	fix_pre	0		68.0	62.0	2.5	/experiments/knapen_aot/videos/R_S_yt-G65z8p1YNhw_16.mp4	0.0	353.89145493507385	0.5666730403900146
64	255.72374296188354	response	0	2		62.0	2.5	/experiments/knapen_aot/videos/R_S_yt-G65z8p1YNhw_16.mp4	0.0	354.4500069618225	
64	255.7318639755249	movie	1		301.0	62.0	2.5	/experiments/knapen_aot/videos/R_S_yt-G65z8p1YNhw_16.mp4	0.0	354.45812797546387	2.5083460807800293
64	258.24021005630493	fix_post	2		12.0	62.0	2.5	/experiments/knapen_aot/videos/R_S_yt-G65z8p1YNhw_16.mp4	0.0	356.9664740562439	0.10004186630249023
65	258.3402519226074	fix_pre	0		58.0	63.0	2.5	blank	1.0	357.0665159225464	0.48326802253723145
65	258.81535506248474	response	0	2		63.0	2.5	blank	1.0	357.5416190624237	
65	258.82351994514465	movie	1		301.0	63.0	2.5	blank	1.0	357.5497839450836	2.5084519386291504
65	261.3319718837738	fix_post	2		12.0	63.0	2.5	blank	1.0	360.05823588371277	0.09996914863586426
66	261.43194103240967	fix_pre	0		162.0	64.0	2.5	/experiments/knapen_aot/videos/R_S_BO_A014_C023_SDR_20190717_F240F3709_SDR_2K_AVC.mp4	0.0	360.15820503234863	1.3498849868774414
66	262.76626086235046	response	0	2		64.0	2.5	/experiments/knapen_aot/videos/R_S_BO_A014_C023_SDR_20190717_F240F3709_SDR_2K_AVC.mp4	0.0	361.49252486228943	
66	262.7818260192871	movie	1		166.0	64.0	2.5	/experiments/knapen_aot/videos/R_S_BO_A014_C023_SDR_20190717_F240F3709_SDR_2K_AVC.mp4	0.0	361.5080900192261	2.508476972579956
66	265.29030299186707	fix_post	2		12.0	64.0	2.5	/experiments/knapen_aot/videos/R_S_BO_A014_C023_SDR_20190717_F240F3709_SDR_2K_AVC.mp4	0.0	364.01656699180603	0.09990096092224121
67	265.3902039527893	fix_pre	0		27.0	65.0	2.5	/experiments/knapen_aot/videos/R_S_yt-dqcUJzNOzbM_156.mp4	0.0	364.11646795272827	0.22509288787841797
67	265.59947395324707	response	0	2		65.0	2.5	/experiments/knapen_aot/videos/R_S_yt-dqcUJzNOzbM_156.mp4	0.0	364.32573795318604	
67	265.6152968406677	movie	1		301.0	65.0	2.5	/experiments/knapen_aot/videos/R_S_yt-dqcUJzNOzbM_156.mp4	0.0	364.3415608406067	2.5082411766052246
67	268.12353801727295	fix_post	2		12.0	65.0	2.5	/experiments/knapen_aot/videos/R_S_yt-dqcUJzNOzbM_156.mp4	0.0	366.8498020172119	0.09996700286865234
68	268.2235050201416	fix_pre	0		57.0	66.0	2.5	/experiments/knapen_aot/videos/S_yt-33PKaLVxDC4_2703.mp4	0.0	366.94976902008057	0.47492194175720215
68	268.69025707244873	response	0	2		66.0	2.5	/experiments/knapen_aot/videos/S_yt-33PKaLVxDC4_2703.mp4	0.0	367.4165210723877	
68	268.6984269618988	movie	1		301.0	66.0	2.5	/experiments/knapen_aot/videos/S_yt-33PKaLVxDC4_2703.mp4	0.0	367.42469096183777	2.5084381103515625
68	271.20686507225037	fix_post	2		12.0	66.0	2.5	/experiments/knapen_aot/videos/S_yt-33PKaLVxDC4_2703.mp4	0.0	369.93312907218933	0.0999917984008789
69	271.30685687065125	fix_pre	0		45.0	67.0	2.5	/experiments/knapen_aot/videos/R_S_ILSVRC2015_test_00004002.mp4	0.0	370.0331208705902	0.37591004371643066
69	271.6736400127411	response	0	2		67.0	2.5	/experiments/knapen_aot/videos/R_S_ILSVRC2015_test_00004002.mp4	0.0	370.39990401268005	
69	271.6827669143677	movie	1		301.0	67.0	2.5	/experiments/knapen_aot/videos/R_S_ILSVRC2015_test_00004002.mp4	0.0	370.40903091430664	2.5074260234832764
69	274.19019293785095	fix_post	2		12.0	67.0	2.5	/experiments/knapen_aot/videos/R_S_ILSVRC2015_test_00004002.mp4	0.0	372.9164569377899	0.09996509552001953
70	274.290158033371	fix_pre	0		36.0	68.0	2.5	blank	1.0	373.01642203330994	0.2999889850616455
70	274.58194398880005	response	0	2		68.0	2.5	blank	1.0	373.308207988739	
70	274.5901470184326	movie	1		301.0	68.0	2.5	blank	1.0	373.3164110183716	2.508452892303467
70	277.0985999107361	fix_post	2		12.0	68.0	2.5	blank	1.0	375.82486391067505	0.09990096092224121
71	277.1985008716583	fix_pre	0		28.0	69.0	2.5	/experiments/knapen_aot/videos/S_yt-35i8UeYXjGw_47.mp4	0.0	375.9247648715973	0.23418307304382324
71	277.41606092453003	response	0	2		69.0	2.5	/experiments/knapen_aot/videos/S_yt-35i8UeYXjGw_47.mp4	0.0	376.142324924469	
71	277.43268394470215	movie	1		301.0	69.0	2.5	/experiments/knapen_aot/videos/S_yt-35i8UeYXjGw_47.mp4	0.0	376.1589479446411	2.5074639320373535
71	279.9401478767395	fix_post	2		12.0	69.0	2.5	/experiments/knapen_aot/videos/S_yt-35i8UeYXjGw_47.mp4	0.0	378.66641187667847	0.09996199607849121
72	280.040109872818	fix_pre	0		54.0	70.0	2.5	/experiments/knapen_aot/videos/R_S_ILSVRC2015_train_00587000.mp4	0.0	378.76637387275696	0.44998598098754883
72	280.48197197914124	response	0	2		70.0	2.5	/experiments/knapen_aot/videos/R_S_ILSVRC2015_train_00587000.mp4	0.0	379.2082359790802	
72	280.49009585380554	movie	1		301.0	70.0	2.5	/experiments/knapen_aot/videos/R_S_ILSVRC2015_train_00587000.mp4	0.0	379.2163598537445	2.5083820819854736
72	282.998477935791	fix_post	2		12.0	70.0	2.5	/experiments/knapen_aot/videos/R_S_ILSVRC2015_train_00587000.mp4	0.0	381.72474193573	0.10033702850341797
73	283.09881496429443	fix_pre	0		49.0	71.0	2.5	/experiments/knapen_aot/videos/S_ILSVRC2015_train_00363000.mp4	0.0	381.8250789642334	0.40796589851379395
73	283.4985249042511	response	0	2		71.0	2.5	/experiments/knapen_aot/videos/S_ILSVRC2015_train_00363000.mp4	0.0	382.22478890419006	
73	283.5067808628082	movie	1		301.0	71.0	2.5	/experiments/knapen_aot/videos/S_ILSVRC2015_train_00363000.mp4	0.0	382.2330448627472	2.508378028869629
73	286.01515889167786	fix_post	2		12.0	71.0	2.5	/experiments/knapen_aot/videos/S_ILSVRC2015_train_00363000.mp4	0.0	384.7414228916168	0.10003399848937988
74	286.11519289016724	fix_pre	0		27.0	72.0	2.5	/experiments/knapen_aot/videos/R_S_ILSVRC2015_train_00447000.mp4	0.0	384.8414568901062	0.22481513023376465
74	286.33185505867004	response	0	2		72.0	2.5	/experiments/knapen_aot/videos/R_S_ILSVRC2015_train_00447000.mp4	0.0	385.058119058609	
74	286.340008020401	movie	1		301.0	72.0	2.5	/experiments/knapen_aot/videos/R_S_ILSVRC2015_train_00447000.mp4	0.0	385.06627202033997	2.5083868503570557
74	288.84839487075806	fix_post	2		12.0	72.0	2.5	/experiments/knapen_aot/videos/R_S_ILSVRC2015_train_00447000.mp4	0.0	387.574658870697	0.10001611709594727
75	288.948410987854	fix_pre	0		54.0	73.0	2.5	/experiments/knapen_aot/videos/S_yt-28ODBE9bVh0_44.mp4	0.0	387.67467498779297	0.4499518871307373
75	289.39022994041443	response	0	2		73.0	2.5	/experiments/knapen_aot/videos/S_yt-28ODBE9bVh0_44.mp4	0.0	388.1164939403534	
75	289.39836287498474	movie	1		301.0	73.0	2.5	/experiments/knapen_aot/videos/S_yt-28ODBE9bVh0_44.mp4	0.0	388.1246268749237	2.5083911418914795
75	291.9067540168762	fix_post	2		12.0	73.0	2.5	/experiments/knapen_aot/videos/S_yt-28ODBE9bVh0_44.mp4	0.0	390.6330180168152	0.09999990463256836
76	292.0067539215088	fix_pre	0		89.0	74.0	2.5	/experiments/knapen_aot/videos/R_S_pexels-ron-lach-8071987.mp4	0.0	390.73301792144775	0.7416150569915771
76	292.7402858734131	response	0	2		74.0	2.5	/experiments/knapen_aot/videos/R_S_pexels-ron-lach-8071987.mp4	0.0	391.46654987335205	
76	292.74836897850037	movie	1		195.0	74.0	2.5	/experiments/knapen_aot/videos/R_S_pexels-ron-lach-8071987.mp4	0.0	391.47463297843933	2.5083608627319336
76	295.2567298412323	fix_post	2		12.0	74.0	2.5	/experiments/knapen_aot/videos/R_S_pexels-ron-lach-8071987.mp4	0.0	393.98299384117126	0.099945068359375
77	295.3566749095917	fix_pre	0		72.0	75.0	2.5	blank	1.0	394.08293890953064	0.6000480651855469
77	295.9485249519348	response	0	2		75.0	2.5	blank	1.0	394.6747889518738	
77	295.9567229747772	movie	1		301.0	75.0	2.5	blank	1.0	394.6829869747162	2.5083699226379395
77	298.46509289741516	fix_post	2		12.0	75.0	2.5	blank	1.0	397.1913568973541	0.09996199607849121
78	298.56505489349365	fix_pre	0		46.0	76.0	2.5	/experiments/knapen_aot/videos/S_yt-v9WGfC67DPk_50.mp4	0.0	397.2913188934326	0.3832740783691406
78	298.9401948451996	response	0	2		76.0	2.5	/experiments/knapen_aot/videos/S_yt-v9WGfC67DPk_50.mp4	0.0	397.66645884513855	
78	298.9483289718628	movie	1		301.0	76.0	2.5	/experiments/knapen_aot/videos/S_yt-v9WGfC67DPk_50.mp4	0.0	397.67459297180176	2.5084640979766846
78	301.4567930698395	fix_post	2		12.0	76.0	2.5	/experiments/knapen_aot/videos/S_yt-v9WGfC67DPk_50.mp4	0.0	400.18305706977844	0.09991192817687988
79	301.55670499801636	fix_pre	0		139.0	77.0	2.5	/experiments/knapen_aot/videos/R_S_ILSVRC2015_train_00578000.mp4	0.0	400.2829689979553	1.15830397605896
79	302.7068338394165	response	0	2		77.0	2.5	/experiments/knapen_aot/videos/R_S_ILSVRC2015_train_00578000.mp4	0.0	401.43309783935547	
79	302.7150089740753	movie	1		301.0	77.0	2.5	/experiments/knapen_aot/videos/R_S_ILSVRC2015_train_00578000.mp4	0.0	401.4412729740143	2.5083370208740234
79	305.22334599494934	fix_post	2		12.0	77.0	2.5	/experiments/knapen_aot/videos/R_S_ILSVRC2015_train_00578000.mp4	0.0	403.9496099948883	0.10001707077026367
80	305.3233630657196	fix_pre	0		46.0	78.0	2.5	/experiments/knapen_aot/videos/R_S_ILSVRC2015_train_00704000.mp4	0.0	404.04962706565857	0.3832218647003174
80	305.69848799705505	response	0	2		78.0	2.5	/experiments/knapen_aot/videos/R_S_ILSVRC2015_train_00704000.mp4	0.0	404.424751996994	
80	305.7065849304199	movie	1		301.0	78.0	2.5	/experiments/knapen_aot/videos/R_S_ILSVRC2015_train_00704000.mp4	0.0	404.4328489303589	2.508378028869629
80	308.21496295928955	fix_post	2		12.0	78.0	2.5	/experiments/knapen_aot/videos/R_S_ILSVRC2015_train_00704000.mp4	0.0	406.9412269592285	0.10027098655700684
81	308.31523394584656	fix_pre	0		37.0	79.0	2.5	/experiments/knapen_aot/videos/S_ILSVRC2015_train_00689000.mp4	0.0	407.0414979457855	0.30806493759155273
81	308.60754895210266	response	0	2		79.0	2.5	/experiments/knapen_aot/videos/S_ILSVRC2015_train_00689000.mp4	0.0	407.3338129520416	
81	308.6232988834381	movie	1		301.0	79.0	2.5	/experiments/knapen_aot/videos/S_ILSVRC2015_train_00689000.mp4	0.0	407.3495628833771	2.5083460807800293
81	311.13164496421814	fix_post	2		12.0	79.0	2.5	/experiments/knapen_aot/videos/S_ILSVRC2015_train_00689000.mp4	0.0	409.8579089641571	0.10013794898986816
82	311.231782913208	fix_pre	0		72.0	80.0	2.5	/experiments/knapen_aot/videos/R_S_yt-KQq7vTlXUiQ_173.mp4	0.0	409.958046913147	0.5998971462249756
82	311.8234369754791	response	0	2		80.0	2.5	/experiments/knapen_aot/videos/R_S_yt-KQq7vTlXUiQ_173.mp4	0.0	410.5497009754181	
82	311.831680059433	movie	1		301.0	80.0	2.5	/experiments/knapen_aot/videos/R_S_yt-KQq7vTlXUiQ_173.mp4	0.0	410.55794405937195	2.5086629390716553
82	314.34034299850464	fix_post	2		12.0	80.0	2.5	/experiments/knapen_aot/videos/R_S_yt-KQq7vTlXUiQ_173.mp4	0.0	413.0666069984436	0.09968900680541992
83	314.44003200531006	fix_pre	0		88.0	81.0	2.5	/experiments/knapen_aot/videos/S_OdxWh1oU8e8_1.mp4	0.0	413.166296005249	0.7332420349121094
83	315.16511392593384	response	0	2		81.0	2.5	/experiments/knapen_aot/videos/S_OdxWh1oU8e8_1.mp4	0.0	413.8913779258728	
83	315.17327404022217	movie	1		301.0	81.0	2.5	/experiments/knapen_aot/videos/S_OdxWh1oU8e8_1.mp4	0.0	413.89953804016113	2.5083069801330566
83	317.6815810203552	fix_post	2		12.0	81.0	2.5	/experiments/knapen_aot/videos/S_OdxWh1oU8e8_1.mp4	0.0	416.4078450202942	0.10010194778442383
84	317.78168296813965	fix_pre	0		75.0	82.0	2.5	/experiments/knapen_aot/videos/S_yt-2cwARrUMj40_67.mp4	0.0	416.5079469680786	0.6249430179595947
84	318.39832186698914	response	0	2		82.0	2.5	/experiments/knapen_aot/videos/S_yt-2cwARrUMj40_67.mp4	0.0	417.1245858669281	
84	318.40662598609924	movie	1		301.0	82.0	2.5	/experiments/knapen_aot/videos/S_yt-2cwARrUMj40_67.mp4	0.0	417.1328899860382	2.5084080696105957
84	320.91503405570984	fix_post	2		12.0	82.0	2.5	/experiments/knapen_aot/videos/S_yt-2cwARrUMj40_67.mp4	0.0	419.6412980556488	0.10002899169921875
85	321.01506304740906	fix_pre	0		121.0	83.0	2.5	blank	1.0	419.741327047348	1.0081629753112793
85	322.01506900787354	response	0	2		83.0	2.5	blank	1.0	420.7413330078125	
85	322.02322602272034	movie	1		301.0	83.0	2.5	blank	1.0	420.7494900226593	2.508591890335083
85	324.5318179130554	fix_post	2		12.0	83.0	2.5	blank	1.0	423.2580819129944	0.09980392456054688
87	324.63162183761597	stim	0		1457.0					423.35788583755493	12.14167308807373
87	325.25667905807495	response	0	2						423.9829430580139	
87	327.62334084510803	response	0	2						426.349604845047	
87	329.60681104660034	response	0	2						428.3330750465393	
87	330.2649049758911	response	0	2						428.9911689758301	
87	330.49002599716187	response	0	2						429.21628999710083	
87	330.64838790893555	response	0	2						429.3746519088745	
87	334.1565589904785	response	0	2						432.8828229904175	
87	336.76247787475586	response	0	space						435.4887418746948	
