trial_nr	onset	event_type	phase	response	nr_frames	movie_index	movie_duration	movie_file	blank	onset_abs	duration
0	0.1563420295715332	stim	0		46.0					96.18538498878479	0.38534998893737793
0	0.5316579341888428	response	0	space						96.5607008934021	
1	0.5416920185089111	stim	0		121.0					96.57073497772217	1.00608491897583
1	1.5477769374847412	stim	1		120.0					97.576819896698	1.000697135925293
1	1.7145659923553467	response	1	space						97.7436089515686	
1	2.5396111011505127	response	1	space						98.56865406036377	
2	2.548474073410034	fix_pre	0		61.0	0.0	2.5	/experiments/knapen_aot/videos/S_yt-1UFhynm5g6Y_266.mp4	0.0	98.57751703262329	0.5076098442077637
2	3.0478289127349854	response	0	space		0.0	2.5	/experiments/knapen_aot/videos/S_yt-1UFhynm5g6Y_266.mp4	0.0	99.07687187194824	
2	3.056083917617798	movie	1		300.0	0.0	2.5	/experiments/knapen_aot/videos/S_yt-1UFhynm5g6Y_266.mp4	0.0	99.08512687683105	2.508345127105713
2	5.564429044723511	fix_post	2		12.0	0.0	2.5	/experiments/knapen_aot/videos/S_yt-1UFhynm5g6Y_266.mp4	0.0	101.59347200393677	0.09999489784240723
3	5.664423942565918	fix_pre	0		148.0	1.0	2.5	/experiments/knapen_aot/videos/S_wc-rs31_SV1Opy__6.mp4	0.0	101.69346690177917	1.2332980632781982
3	6.892802953720093	response	0	4		1.0	2.5	/experiments/knapen_aot/videos/S_wc-rs31_SV1Opy__6.mp4	0.0	102.92184591293335	
3	6.897722005844116	movie	1		161.0	1.0	2.5	/experiments/knapen_aot/videos/S_wc-rs31_SV1Opy__6.mp4	0.0	102.92676496505737	2.50832200050354
3	9.406044006347656	fix_post	2		12.0	1.0	2.5	/experiments/knapen_aot/videos/S_wc-rs31_SV1Opy__6.mp4	0.0	105.43508696556091	0.10003399848937988
4	9.506078004837036	fix_pre	0		37.0	2.0	2.5	/experiments/knapen_aot/videos/S_ILSVRC2015_train_00417000.mp4	0.0	105.5351209640503	0.30832910537719727
4	9.806215047836304	response	0	4		2.0	2.5	/experiments/knapen_aot/videos/S_ILSVRC2015_train_00417000.mp4	0.0	105.83525800704956	
4	9.814407110214233	movie	1		301.0	2.0	2.5	/experiments/knapen_aot/videos/S_ILSVRC2015_train_00417000.mp4	0.0	105.84345006942749	2.5082969665527344
4	12.322704076766968	fix_post	2		12.0	2.0	2.5	/experiments/knapen_aot/videos/S_ILSVRC2015_train_00417000.mp4	0.0	108.35174703598022	0.10003399848937988
5	12.422738075256348	fix_pre	0		33.0	3.0	2.5	/experiments/knapen_aot/videos/S_yt-7WYXuBHeorw_188.mp4	0.0	108.4517810344696	0.2749810218811035
5	12.68952488899231	response	0	4		3.0	2.5	/experiments/knapen_aot/videos/S_yt-7WYXuBHeorw_188.mp4	0.0	108.71856784820557	
5	12.697719097137451	movie	1		301.0	3.0	2.5	/experiments/knapen_aot/videos/S_yt-7WYXuBHeorw_188.mp4	0.0	108.72676205635071	2.5083279609680176
5	15.206047058105469	fix_post	2		12.0	3.0	2.5	/experiments/knapen_aot/videos/S_yt-7WYXuBHeorw_188.mp4	0.0	111.23509001731873	0.0999758243560791
6	15.306022882461548	fix_pre	0		64.0	4.0	2.5	/experiments/knapen_aot/videos/R_S_ILSVRC2015_train_00165012.mp4	0.0	111.3350658416748	0.533839225769043
6	15.831315994262695	response	0	4		4.0	2.5	/experiments/knapen_aot/videos/R_S_ILSVRC2015_train_00165012.mp4	0.0	111.86035895347595	
6	15.83986210823059	movie	1		301.0	4.0	2.5	/experiments/knapen_aot/videos/R_S_ILSVRC2015_train_00165012.mp4	0.0	111.86890506744385	2.507755994796753
6	18.347618103027344	fix_post	2		12.0	4.0	2.5	/experiments/knapen_aot/videos/R_S_ILSVRC2015_train_00165012.mp4	0.0	114.3766610622406	0.10001087188720703
7	18.44762897491455	fix_pre	0		321.0	5.0	2.5	blank	1.0	114.47667193412781	2.6749520301818848
7	21.114383935928345	response	0	4		5.0	2.5	blank	1.0	117.1434268951416	
7	21.122581005096436	movie	1		301.0	5.0	2.5	blank	1.0	117.15162396430969	2.508445978164673
7	23.63102698326111	fix_post	2		12.0	5.0	2.5	blank	1.0	119.66006994247437	0.10000109672546387
8	23.731028079986572	fix_pre	0		37.0	6.0	2.5	/experiments/knapen_aot/videos/R_S_yt-OTNdgakSIJE_97.mp4	0.0	119.76007103919983	0.30831289291381836
8	24.031105995178223	response	0	4		6.0	2.5	/experiments/knapen_aot/videos/R_S_yt-OTNdgakSIJE_97.mp4	0.0	120.06014895439148	
8	24.03934097290039	movie	1		301.0	6.0	2.5	/experiments/knapen_aot/videos/R_S_yt-OTNdgakSIJE_97.mp4	0.0	120.06838393211365	2.5083229541778564
8	26.547663927078247	fix_post	2		12.0	6.0	2.5	/experiments/knapen_aot/videos/R_S_yt-OTNdgakSIJE_97.mp4	0.0	122.5767068862915	0.09995102882385254
9	26.6476149559021	fix_pre	0		61.0	7.0	2.5	/experiments/knapen_aot/videos/S_yt-Wr5pSPApQDw_235.mp4	0.0	122.67665791511536	0.5083420276641846
9	27.147797107696533	response	0	4		7.0	2.5	/experiments/knapen_aot/videos/S_yt-Wr5pSPApQDw_235.mp4	0.0	123.17684006690979	
9	27.155956983566284	movie	1		301.0	7.0	2.5	/experiments/knapen_aot/videos/S_yt-Wr5pSPApQDw_235.mp4	0.0	123.18499994277954	2.5083320140838623
9	29.664288997650146	fix_post	2		12.0	7.0	2.5	/experiments/knapen_aot/videos/S_yt-Wr5pSPApQDw_235.mp4	0.0	125.6933319568634	0.09995508193969727
10	29.764244079589844	fix_pre	0		159.0	8.0	2.5	/experiments/knapen_aot/videos/S_production_ID_5139371.mp4	0.0	125.7932870388031	1.3254499435424805
10	31.081037998199463	response	0	4		8.0	2.5	/experiments/knapen_aot/videos/S_production_ID_5139371.mp4	0.0	127.11008095741272	
10	31.089694023132324	movie	1		162.0	8.0	2.5	/experiments/knapen_aot/videos/S_production_ID_5139371.mp4	0.0	127.11873698234558	2.5079479217529297
10	33.597641944885254	fix_post	2		12.0	8.0	2.5	/experiments/knapen_aot/videos/S_production_ID_5139371.mp4	0.0	129.6266849040985	0.09996414184570312
11	33.69760608673096	fix_pre	0		34.0	9.0	2.5	/experiments/knapen_aot/videos/S_pexels-c-technical-6763571.mp4	0.0	129.7266490459442	0.2833058834075928
11	33.97267198562622	response	0	4		9.0	2.5	/experiments/knapen_aot/videos/S_pexels-c-technical-6763571.mp4	0.0	130.00171494483948	
11	33.98091197013855	movie	1		209.0	9.0	2.5	/experiments/knapen_aot/videos/S_pexels-c-technical-6763571.mp4	0.0	130.0099549293518	2.5084171295166016
11	36.48932909965515	fix_post	2		12.0	9.0	2.5	/experiments/knapen_aot/videos/S_pexels-c-technical-6763571.mp4	0.0	132.5183720588684	0.1003727912902832
12	36.589701890945435	fix_pre	0		237.0	10.0	2.5	/experiments/knapen_aot/videos/R_S_gX_VbZnZO0k_13.mp4	0.0	132.6187448501587	1.9745361804962158
12	38.556087017059326	response	0	4		10.0	2.5	/experiments/knapen_aot/videos/R_S_gX_VbZnZO0k_13.mp4	0.0	134.58512997627258	
12	38.56423807144165	movie	1		298.0	10.0	2.5	/experiments/knapen_aot/videos/R_S_gX_VbZnZO0k_13.mp4	0.0	134.5932810306549	2.508327007293701
12	41.07256507873535	fix_post	2		12.0	10.0	2.5	/experiments/knapen_aot/videos/R_S_gX_VbZnZO0k_13.mp4	0.0	137.1016080379486	0.10038495063781738
13	41.17295002937317	fix_pre	0		113.0	11.0	2.5	/experiments/knapen_aot/videos/R_S_yt-kYMffy4hTMo_107.mp4	0.0	137.20199298858643	0.9412250518798828
13	42.098581075668335	response	0	4		11.0	2.5	/experiments/knapen_aot/videos/R_S_yt-kYMffy4hTMo_107.mp4	0.0	138.1276240348816	
13	42.11417508125305	movie	1		301.0	11.0	2.5	/experiments/knapen_aot/videos/R_S_yt-kYMffy4hTMo_107.mp4	0.0	138.1432180404663	2.5085129737854004
13	44.62268805503845	fix_post	2		12.0	11.0	2.5	/experiments/knapen_aot/videos/R_S_yt-kYMffy4hTMo_107.mp4	0.0	140.6517310142517	0.09984397888183594
14	44.72253203392029	fix_pre	0		34.0	12.0	2.5	blank	1.0	140.75157499313354	0.28374195098876953
14	44.99767208099365	response	0	4		12.0	2.5	blank	1.0	141.0267150402069	
14	45.00627398490906	movie	1		301.0	12.0	2.5	blank	1.0	141.03531694412231	2.5079479217529297
14	47.51422190666199	fix_post	2		12.0	12.0	2.5	blank	1.0	143.54326486587524	0.09988117218017578
15	47.61410307884216	fix_pre	0		27.0	13.0	2.5	/experiments/knapen_aot/videos/S_yt-x6tYi0lRGqU_114.mp4	0.0	143.64314603805542	0.22543883323669434
15	47.830907106399536	response	0	4		13.0	2.5	/experiments/knapen_aot/videos/S_yt-x6tYi0lRGqU_114.mp4	0.0	143.8599500656128	
15	47.83954191207886	movie	1		301.0	13.0	2.5	/experiments/knapen_aot/videos/S_yt-x6tYi0lRGqU_114.mp4	0.0	143.86858487129211	2.507970094680786
15	50.347512006759644	fix_post	2		12.0	13.0	2.5	/experiments/knapen_aot/videos/S_yt-x6tYi0lRGqU_114.mp4	0.0	146.3765549659729	0.10001993179321289
16	50.447531938552856	fix_pre	0		24.0	14.0	2.5	/experiments/knapen_aot/videos/R_S_yt-xSGPe0KemD4_384.mp4	0.0	146.4765748977661	0.19996094703674316
16	50.63932991027832	response	0	4		14.0	2.5	/experiments/knapen_aot/videos/R_S_yt-xSGPe0KemD4_384.mp4	0.0	146.66837286949158	
16	50.6474928855896	movie	1		301.0	14.0	2.5	/experiments/knapen_aot/videos/R_S_yt-xSGPe0KemD4_384.mp4	0.0	146.67653584480286	2.5083611011505127
16	53.15585398674011	fix_post	2		12.0	14.0	2.5	/experiments/knapen_aot/videos/R_S_yt-xSGPe0KemD4_384.mp4	0.0	149.18489694595337	0.10029292106628418
17	53.2561469078064	fix_pre	0		73.0	15.0	2.5	/experiments/knapen_aot/videos/S_yt-25xuzTBhwPk_109.mp4	0.0	149.28518986701965	0.6079211235046387
17	53.85592293739319	response	0	4		15.0	2.5	/experiments/knapen_aot/videos/S_yt-25xuzTBhwPk_109.mp4	0.0	149.88496589660645	
17	53.864068031311035	movie	1		298.0	15.0	2.5	/experiments/knapen_aot/videos/S_yt-25xuzTBhwPk_109.mp4	0.0	149.8931109905243	2.508362054824829
17	56.372430086135864	fix_post	2		12.0	15.0	2.5	/experiments/knapen_aot/videos/S_yt-25xuzTBhwPk_109.mp4	0.0	152.40147304534912	0.10007190704345703
18	56.47250199317932	fix_pre	0		59.0	16.0	2.5	/experiments/knapen_aot/videos/R_S_ILSVRC2015_train_00415003.mp4	0.0	152.50154495239258	0.4919559955596924
18	56.95596194267273	response	0	4		16.0	2.5	/experiments/knapen_aot/videos/R_S_ILSVRC2015_train_00415003.mp4	0.0	152.985004901886	
18	56.964457988739014	movie	1		301.0	16.0	2.5	/experiments/knapen_aot/videos/R_S_ILSVRC2015_train_00415003.mp4	0.0	152.99350094795227	2.507981061935425
18	59.47243905067444	fix_post	2		12.0	16.0	2.5	/experiments/knapen_aot/videos/R_S_ILSVRC2015_train_00415003.mp4	0.0	155.5014820098877	0.10004782676696777
19	59.572486877441406	fix_pre	0		24.0	17.0	2.5	/experiments/knapen_aot/videos/S_yt-RVoC19C420Y_27.mp4	0.0	155.60152983665466	0.1999521255493164
19	59.76424789428711	response	0	4		17.0	2.5	/experiments/knapen_aot/videos/S_yt-RVoC19C420Y_27.mp4	0.0	155.79329085350037	
19	59.77243900299072	movie	1		301.0	17.0	2.5	/experiments/knapen_aot/videos/S_yt-RVoC19C420Y_27.mp4	0.0	155.80148196220398	2.508301019668579
19	62.2807400226593	fix_post	2		12.0	17.0	2.5	/experiments/knapen_aot/videos/S_yt-RVoC19C420Y_27.mp4	0.0	158.30978298187256	0.10036492347717285
20	62.381104946136475	fix_pre	0		265.0	18.0	2.5	/experiments/knapen_aot/videos/S_yt-O6FS0xnF0CU_106.mp4	0.0	158.41014790534973	2.2082080841064453
20	64.57333898544312	response	0	4		18.0	2.5	/experiments/knapen_aot/videos/S_yt-O6FS0xnF0CU_106.mp4	0.0	160.60238194465637	
20	64.58931303024292	movie	1		300.0	18.0	2.5	/experiments/knapen_aot/videos/S_yt-O6FS0xnF0CU_106.mp4	0.0	160.61835598945618	2.5080909729003906
20	67.09740400314331	fix_post	2		12.0	18.0	2.5	/experiments/knapen_aot/videos/S_yt-O6FS0xnF0CU_106.mp4	0.0	163.12644696235657	0.10002803802490234
21	67.19743204116821	fix_pre	0		27.0	19.0	2.5	/experiments/knapen_aot/videos/S_pexels-c-technical-6763571.mp4	0.0	163.22647500038147	0.22521305084228516
21	67.41417193412781	response	0	4		19.0	2.5	/experiments/knapen_aot/videos/S_pexels-c-technical-6763571.mp4	0.0	163.44321489334106	
21	67.4226450920105	movie	1		203.0	19.0	2.5	/experiments/knapen_aot/videos/S_pexels-c-technical-6763571.mp4	0.0	163.45168805122375	2.508173942565918
21	69.93081903457642	fix_post	2		12.0	19.0	2.5	/experiments/knapen_aot/videos/S_pexels-c-technical-6763571.mp4	0.0	165.95986199378967	0.09999489784240723
22	70.03081393241882	fix_pre	0		55.0	20.0	2.5	/experiments/knapen_aot/videos/R_S_yt-wz2opOBqClo_14.mp4	0.0	166.05985689163208	0.45827698707580566
22	70.48095488548279	response	0	4		20.0	2.5	/experiments/knapen_aot/videos/R_S_yt-wz2opOBqClo_14.mp4	0.0	166.50999784469604	
22	70.48909091949463	movie	1		301.0	20.0	2.5	/experiments/knapen_aot/videos/R_S_yt-wz2opOBqClo_14.mp4	0.0	166.51813387870789	2.508363962173462
22	72.99745488166809	fix_post	2		12.0	20.0	2.5	/experiments/knapen_aot/videos/R_S_yt-wz2opOBqClo_14.mp4	0.0	169.02649784088135	0.09999918937683105
23	73.09745407104492	fix_pre	0		133.0	21.0	2.5	blank	1.0	169.12649703025818	1.1083118915557861
23	74.19758987426758	response	0	4		21.0	2.5	blank	1.0	170.22663283348083	
23	74.20576596260071	movie	1		301.0	21.0	2.5	blank	1.0	170.23480892181396	2.5085389614105225
23	76.71430492401123	fix_post	2		12.0	21.0	2.5	blank	1.0	172.7433478832245	0.09975695610046387
24	76.8140618801117	fix_pre	0		30.0	22.0	2.5	/experiments/knapen_aot/videos/R_S_yt-zpoIiHGRm5k_296.mp4	0.0	172.84310483932495	0.25005602836608887
24	77.05591797828674	response	0	4		22.0	2.5	/experiments/knapen_aot/videos/R_S_yt-zpoIiHGRm5k_296.mp4	0.0	173.0849609375	
24	77.06411790847778	movie	1		301.0	22.0	2.5	/experiments/knapen_aot/videos/R_S_yt-zpoIiHGRm5k_296.mp4	0.0	173.09316086769104	2.5082931518554688
24	79.57241106033325	fix_post	2		12.0	22.0	2.5	/experiments/knapen_aot/videos/R_S_yt-zpoIiHGRm5k_296.mp4	0.0	175.6014540195465	0.10016298294067383
25	79.67257404327393	fix_pre	0		26.0	23.0	2.5	/experiments/knapen_aot/videos/S_wc-rs31_SV1Opy__6.mp4	0.0	175.70161700248718	0.21647405624389648
25	79.8809130191803	response	0	4		23.0	2.5	/experiments/knapen_aot/videos/S_wc-rs31_SV1Opy__6.mp4	0.0	175.90995597839355	
25	79.88904809951782	movie	1		161.0	23.0	2.5	/experiments/knapen_aot/videos/S_wc-rs31_SV1Opy__6.mp4	0.0	175.91809105873108	2.5082669258117676
25	82.39731502532959	fix_post	2		12.0	23.0	2.5	/experiments/knapen_aot/videos/S_wc-rs31_SV1Opy__6.mp4	0.0	178.42635798454285	0.10007905960083008
26	82.49739408493042	fix_pre	0		31.0	24.0	2.5	/experiments/knapen_aot/videos/R_S_yt--DXkjCUzThU_413.mp4	0.0	178.52643704414368	0.2584869861602783
26	82.74756407737732	response	0	4		24.0	2.5	/experiments/knapen_aot/videos/R_S_yt--DXkjCUzThU_413.mp4	0.0	178.77660703659058	
26	82.7558810710907	movie	1		300.0	24.0	2.5	/experiments/knapen_aot/videos/R_S_yt--DXkjCUzThU_413.mp4	0.0	178.78492403030396	2.5081849098205566
26	85.26406598091125	fix_post	2		12.0	24.0	2.5	/experiments/knapen_aot/videos/R_S_yt--DXkjCUzThU_413.mp4	0.0	181.2931089401245	0.09999394416809082
27	85.36405992507935	fix_pre	0		21.0	25.0	2.5	/experiments/knapen_aot/videos/S_comp_A114_C001_0305OT_v10_SDR_FINAL_22062018_SDR_2K_AVC.mp4	0.0	181.3931028842926	0.17497611045837402
27	85.53088307380676	response	0	4		25.0	2.5	/experiments/knapen_aot/videos/S_comp_A114_C001_0305OT_v10_SDR_FINAL_22062018_SDR_2K_AVC.mp4	0.0	181.55992603302002	
27	85.53903603553772	movie	1		163.0	25.0	2.5	/experiments/knapen_aot/videos/S_comp_A114_C001_0305OT_v10_SDR_FINAL_22062018_SDR_2K_AVC.mp4	0.0	181.56807899475098	2.5084149837493896
27	88.04745101928711	fix_post	2		12.0	25.0	2.5	/experiments/knapen_aot/videos/S_comp_A114_C001_0305OT_v10_SDR_FINAL_22062018_SDR_2K_AVC.mp4	0.0	184.07649397850037	0.09990501403808594
28	88.1473560333252	fix_pre	0		148.0	26.0	2.5	blank	1.0	184.17639899253845	1.2335078716278076
28	89.37249708175659	response	0	4		26.0	2.5	blank	1.0	185.40154004096985	
28	89.380863904953	movie	1		301.0	26.0	2.5	blank	1.0	185.40990686416626	2.5080690383911133
28	91.88893294334412	fix_post	2		12.0	26.0	2.5	blank	1.0	187.91797590255737	0.0999610424041748
29	91.98889398574829	fix_pre	0		49.0	27.0	2.5	/experiments/knapen_aot/videos/S_ILSVRC2015_train_00417000.mp4	0.0	188.01793694496155	0.4084150791168213
29	92.38915300369263	response	0	4		27.0	2.5	/experiments/knapen_aot/videos/S_ILSVRC2015_train_00417000.mp4	0.0	188.41819596290588	
29	92.39730906486511	movie	1		301.0	27.0	2.5	/experiments/knapen_aot/videos/S_ILSVRC2015_train_00417000.mp4	0.0	188.42635202407837	2.5083649158477783
29	94.90567398071289	fix_post	2		12.0	27.0	2.5	/experiments/knapen_aot/videos/S_ILSVRC2015_train_00417000.mp4	0.0	190.93471693992615	0.10006308555603027
30	95.00573706626892	fix_pre	0		120.0	28.0	2.5	/experiments/knapen_aot/videos/R_S_ILSVRC2015_train_00278004.mp4	0.0	191.03478002548218	0.9999909400939941
30	95.99745798110962	response	0	4		28.0	2.5	/experiments/knapen_aot/videos/R_S_ILSVRC2015_train_00278004.mp4	0.0	192.02650094032288	
30	96.00572800636292	movie	1		301.0	28.0	2.5	/experiments/knapen_aot/videos/R_S_ILSVRC2015_train_00278004.mp4	0.0	192.03477096557617	2.5081470012664795
30	98.5138750076294	fix_post	2		12.0	28.0	2.5	/experiments/knapen_aot/videos/R_S_ILSVRC2015_train_00278004.mp4	0.0	194.54291796684265	0.1000370979309082
31	98.6139121055603	fix_pre	0		39.0	29.0	2.5	/experiments/knapen_aot/videos/R_S_-IkGMlLHrOI_108.mp4	0.0	194.64295506477356	0.32500576972961426
31	98.93077087402344	response	0	4		29.0	2.5	/experiments/knapen_aot/videos/R_S_-IkGMlLHrOI_108.mp4	0.0	194.9598138332367	
31	98.93891787528992	movie	1		301.0	29.0	2.5	/experiments/knapen_aot/videos/R_S_-IkGMlLHrOI_108.mp4	0.0	194.96796083450317	2.5083751678466797
31	101.4472930431366	fix_post	2		12.0	29.0	2.5	/experiments/knapen_aot/videos/R_S_-IkGMlLHrOI_108.mp4	0.0	197.47633600234985	0.1000528335571289
32	101.54734587669373	fix_pre	0		31.0	30.0	2.5	/experiments/knapen_aot/videos/S_yt-kYMffy4hTMo_107.mp4	0.0	197.57638883590698	0.25828123092651367
32	101.78987288475037	response	0	4		30.0	2.5	/experiments/knapen_aot/videos/S_yt-kYMffy4hTMo_107.mp4	0.0	197.81891584396362	
32	101.80562710762024	movie	1		300.0	30.0	2.5	/experiments/knapen_aot/videos/S_yt-kYMffy4hTMo_107.mp4	0.0	197.8346700668335	2.5082948207855225
32	104.31392192840576	fix_post	2		12.0	30.0	2.5	/experiments/knapen_aot/videos/S_yt-kYMffy4hTMo_107.mp4	0.0	200.34296488761902	0.09991312026977539
33	104.41383504867554	fix_pre	0		49.0	31.0	2.5	/experiments/knapen_aot/videos/R_S_yt-7Fyu2vr7zbA_31.mp4	0.0	200.4428780078888	0.40839290618896484
33	104.8139979839325	response	0	4		31.0	2.5	/experiments/knapen_aot/videos/R_S_yt-7Fyu2vr7zbA_31.mp4	0.0	200.84304094314575	
33	104.8222279548645	movie	1		301.0	31.0	2.5	/experiments/knapen_aot/videos/R_S_yt-7Fyu2vr7zbA_31.mp4	0.0	200.85127091407776	2.5083279609680176
33	107.33055591583252	fix_post	2		12.0	31.0	2.5	/experiments/knapen_aot/videos/R_S_yt-7Fyu2vr7zbA_31.mp4	0.0	203.35959887504578	0.10004711151123047
34	107.43060302734375	fix_pre	0		113.0	32.0	2.5	/experiments/knapen_aot/videos/R_S_ILSVRC2015_train_00405001.mp4	0.0	203.459645986557	0.9415960311889648
34	108.3639919757843	response	0	4		32.0	2.5	/experiments/knapen_aot/videos/R_S_ILSVRC2015_train_00405001.mp4	0.0	204.39303493499756	
34	108.37219905853271	movie	1		301.0	32.0	2.5	/experiments/knapen_aot/videos/R_S_ILSVRC2015_train_00405001.mp4	0.0	204.40124201774597	2.508401870727539
34	110.88060092926025	fix_post	2		12.0	32.0	2.5	/experiments/knapen_aot/videos/R_S_ILSVRC2015_train_00405001.mp4	0.0	206.9096438884735	0.09999203681945801
35	110.98059296607971	fix_pre	0		29.0	33.0	2.5	blank	1.0	207.00963592529297	0.24163603782653809
35	111.21400094032288	response	0	4		33.0	2.5	blank	1.0	207.24304389953613	
35	111.22222900390625	movie	1		301.0	33.0	2.5	blank	1.0	207.2512719631195	2.5083320140838623
35	113.73056101799011	fix_post	2		12.0	33.0	2.5	blank	1.0	209.75960397720337	0.10006093978881836
36	113.83062195777893	fix_pre	0		89.0	34.0	2.5	/experiments/knapen_aot/videos/S_yt-WhQMF3WM0Ig_29.mp4	0.0	209.8596649169922	0.7415709495544434
36	114.56404399871826	response	0	4		34.0	2.5	/experiments/knapen_aot/videos/S_yt-WhQMF3WM0Ig_29.mp4	0.0	210.59308695793152	
36	114.57219290733337	movie	1		301.0	34.0	2.5	/experiments/knapen_aot/videos/S_yt-WhQMF3WM0Ig_29.mp4	0.0	210.60123586654663	2.5084149837493896
36	117.08060789108276	fix_post	2		12.0	34.0	2.5	/experiments/knapen_aot/videos/S_yt-WhQMF3WM0Ig_29.mp4	0.0	213.10965085029602	0.09992814064025879
37	117.18053603172302	fix_pre	0		25.0	35.0	2.5	/experiments/knapen_aot/videos/S_yt-SgiTZNjCPCo_19.mp4	0.0	213.20957899093628	0.20826196670532227
37	117.38068890571594	response	0	4		35.0	2.5	/experiments/knapen_aot/videos/S_yt-SgiTZNjCPCo_19.mp4	0.0	213.4097318649292	
37	117.38879799842834	movie	1		301.0	35.0	2.5	/experiments/knapen_aot/videos/S_yt-SgiTZNjCPCo_19.mp4	0.0	213.4178409576416	2.508380889892578
37	119.89717888832092	fix_post	2		12.0	35.0	2.5	/experiments/knapen_aot/videos/S_yt-SgiTZNjCPCo_19.mp4	0.0	215.92622184753418	0.09997010231018066
38	119.9971489906311	fix_pre	0		101.0	36.0	2.5	/experiments/knapen_aot/videos/R_S_pexels-pavel-danilyuk-8057714.mp4	0.0	216.02619194984436	0.8416481018066406
38	120.83066987991333	response	0	4		36.0	2.5	/experiments/knapen_aot/videos/R_S_pexels-pavel-danilyuk-8057714.mp4	0.0	216.8597128391266	
38	120.83879709243774	movie	1		167.0	36.0	2.5	/experiments/knapen_aot/videos/R_S_pexels-pavel-danilyuk-8057714.mp4	0.0	216.867840051651	2.5082828998565674
38	123.34707999229431	fix_post	2		12.0	36.0	2.5	/experiments/knapen_aot/videos/R_S_pexels-pavel-danilyuk-8057714.mp4	0.0	219.37612295150757	0.10010504722595215
39	123.44718503952026	fix_pre	0		37.0	37.0	2.5	/experiments/knapen_aot/videos/S_yt-a9bnYU0Gnxg_59.mp4	0.0	219.47622799873352	0.3083078861236572
39	123.73976492881775	response	0	4		37.0	2.5	/experiments/knapen_aot/videos/S_yt-a9bnYU0Gnxg_59.mp4	0.0	219.768807888031	
39	123.75549292564392	movie	1		301.0	37.0	2.5	/experiments/knapen_aot/videos/S_yt-a9bnYU0Gnxg_59.mp4	0.0	219.78453588485718	2.508547067642212
39	126.26403999328613	fix_post	2		12.0	37.0	2.5	/experiments/knapen_aot/videos/S_yt-a9bnYU0Gnxg_59.mp4	0.0	222.2930829524994	0.09979701042175293
40	126.36383700370789	fix_pre	0		29.0	38.0	2.5	/experiments/knapen_aot/videos/S_ILSVRC2015_train_00704000.mp4	0.0	222.39287996292114	0.2416379451751709
40	126.59726095199585	response	0	4		38.0	2.5	/experiments/knapen_aot/videos/S_ILSVRC2015_train_00704000.mp4	0.0	222.6263039112091	
40	126.60547494888306	movie	1		301.0	38.0	2.5	/experiments/knapen_aot/videos/S_ILSVRC2015_train_00704000.mp4	0.0	222.6345179080963	2.5083439350128174
40	129.11381888389587	fix_post	2		12.0	38.0	2.5	/experiments/knapen_aot/videos/S_ILSVRC2015_train_00704000.mp4	0.0	225.14286184310913	0.09999799728393555
41	129.2138168811798	fix_pre	0		202.0	39.0	2.5	/experiments/knapen_aot/videos/R_S_yt-Dwgpjoikt84_71.mp4	0.0	225.24285984039307	1.6832280158996582
41	130.88893699645996	response	0	4		39.0	2.5	/experiments/knapen_aot/videos/R_S_yt-Dwgpjoikt84_71.mp4	0.0	226.91797995567322	
41	130.89704489707947	movie	1		301.0	39.0	2.5	/experiments/knapen_aot/videos/R_S_yt-Dwgpjoikt84_71.mp4	0.0	226.92608785629272	2.508450984954834
41	133.4054958820343	fix_post	2		12.0	39.0	2.5	/experiments/knapen_aot/videos/R_S_yt-Dwgpjoikt84_71.mp4	0.0	229.43453884124756	0.09998416900634766
42	133.50548005104065	fix_pre	0		81.0	40.0	2.5	/experiments/knapen_aot/videos/S_bing-www_dailymotion_com_video_x64hzm7_8.mp4	0.0	229.5345230102539	0.6749868392944336
42	134.17231607437134	response	0	4		40.0	2.5	/experiments/knapen_aot/videos/S_bing-www_dailymotion_com_video_x64hzm7_8.mp4	0.0	230.2013590335846	
42	134.18046689033508	movie	1		164.0	40.0	2.5	/experiments/knapen_aot/videos/S_bing-www_dailymotion_com_video_x64hzm7_8.mp4	0.0	230.20950984954834	2.5083730220794678
42	136.68883991241455	fix_post	2		12.0	40.0	2.5	/experiments/knapen_aot/videos/S_bing-www_dailymotion_com_video_x64hzm7_8.mp4	0.0	232.7178828716278	0.0999610424041748
43	136.78880095481873	fix_pre	0		127.0	41.0	2.5	blank	1.0	232.81784391403198	1.0582599639892578
43	137.83894395828247	response	0	4		41.0	2.5	blank	1.0	233.86798691749573	
43	137.84706091880798	movie	1		301.0	41.0	2.5	blank	1.0	233.87610387802124	2.5083770751953125
43	140.3554379940033	fix_post	2		12.0	41.0	2.5	blank	1.0	236.38448095321655	0.09998202323913574
44	140.45542001724243	fix_pre	0		34.0	42.0	2.5	/experiments/knapen_aot/videos/S_yt-YMI27rk5qUQ_117.mp4	0.0	236.4844629764557	0.2832958698272705
44	140.73055005073547	response	0	4		42.0	2.5	/experiments/knapen_aot/videos/S_yt-YMI27rk5qUQ_117.mp4	0.0	236.75959300994873	
44	140.7387158870697	movie	1		301.0	42.0	2.5	/experiments/knapen_aot/videos/S_yt-YMI27rk5qUQ_117.mp4	0.0	236.76775884628296	2.508352041244507
44	143.2470679283142	fix_post	2		12.0	42.0	2.5	/experiments/knapen_aot/videos/S_yt-YMI27rk5qUQ_117.mp4	0.0	239.27611088752747	0.10001516342163086
45	143.34708309173584	fix_pre	0		18.0	43.0	2.5	/experiments/knapen_aot/videos/S_yt-4x2eUikn9rw_212.mp4	0.0	239.3761260509491	0.15118885040283203
45	143.4888470172882	response	0	4		43.0	2.5	/experiments/knapen_aot/videos/S_yt-4x2eUikn9rw_212.mp4	0.0	239.51788997650146	
45	143.49827194213867	movie	1		301.0	43.0	2.5	/experiments/knapen_aot/videos/S_yt-4x2eUikn9rw_212.mp4	0.0	239.52731490135193	2.5071539878845215
45	146.0054259300232	fix_post	2		12.0	43.0	2.5	/experiments/knapen_aot/videos/S_yt-4x2eUikn9rw_212.mp4	0.0	242.03446888923645	0.09996294975280762
46	146.105388879776	fix_pre	0		177.0	44.0	2.5	/experiments/knapen_aot/videos/S_yt-GOgS--rzmKQ_51.mp4	0.0	242.13443183898926	1.4762160778045654
46	147.57222604751587	response	0	4		44.0	2.5	/experiments/knapen_aot/videos/S_yt-GOgS--rzmKQ_51.mp4	0.0	243.60126900672913	
46	147.58160495758057	movie	1		301.0	44.0	2.5	/experiments/knapen_aot/videos/S_yt-GOgS--rzmKQ_51.mp4	0.0	243.61064791679382	2.5070910453796387
46	150.0886960029602	fix_post	2		12.0	44.0	2.5	/experiments/knapen_aot/videos/S_yt-GOgS--rzmKQ_51.mp4	0.0	246.11773896217346	0.10005307197570801
47	150.1887490749359	fix_pre	0		25.0	45.0	2.5	/experiments/knapen_aot/videos/S_ILSVRC2015_train_00404003.mp4	0.0	246.21779203414917	0.20829081535339355
47	150.3888430595398	response	0	4		45.0	2.5	/experiments/knapen_aot/videos/S_ILSVRC2015_train_00404003.mp4	0.0	246.41788601875305	
47	150.3970398902893	movie	1		297.0	45.0	2.5	/experiments/knapen_aot/videos/S_ILSVRC2015_train_00404003.mp4	0.0	246.42608284950256	2.5084071159362793
47	152.9054470062256	fix_post	2		12.0	45.0	2.5	/experiments/knapen_aot/videos/S_ILSVRC2015_train_00404003.mp4	0.0	248.93448996543884	0.09998488426208496
48	153.00543189048767	fix_pre	0		174.0	46.0	2.5	/experiments/knapen_aot/videos/R_S_BO_A014_C023_SDR_20190717_F240F3709_SDR_2K_AVC.mp4	0.0	249.03447484970093	1.4511120319366455
48	154.44718599319458	response	0	4		46.0	2.5	/experiments/knapen_aot/videos/R_S_BO_A014_C023_SDR_20190717_F240F3709_SDR_2K_AVC.mp4	0.0	250.47622895240784	
48	154.45654392242432	movie	1		168.0	46.0	2.5	/experiments/knapen_aot/videos/R_S_BO_A014_C023_SDR_20190717_F240F3709_SDR_2K_AVC.mp4	0.0	250.48558688163757	2.5071401596069336
48	156.96368408203125	fix_post	2		12.0	46.0	2.5	/experiments/knapen_aot/videos/R_S_BO_A014_C023_SDR_20190717_F240F3709_SDR_2K_AVC.mp4	0.0	252.9927270412445	0.0999608039855957
49	157.06364488601685	fix_pre	0		28.0	47.0	2.5	blank	1.0	253.0926878452301	0.23332905769348145
49	157.28883504867554	response	0	4		47.0	2.5	blank	1.0	253.3178780078888	
49	157.29697394371033	movie	1		301.0	47.0	2.5	blank	1.0	253.32601690292358	2.508363962173462
49	159.8053379058838	fix_post	2		12.0	47.0	2.5	blank	1.0	255.83438086509705	0.10002398490905762
50	159.90536189079285	fix_pre	0		138.0	48.0	2.5	/experiments/knapen_aot/videos/S_ILSVRC2015_train_00415003.mp4	0.0	255.9344048500061	1.1499412059783936
50	161.04716205596924	response	0	4		48.0	2.5	/experiments/knapen_aot/videos/S_ILSVRC2015_train_00415003.mp4	0.0	257.0762050151825	
50	161.05530309677124	movie	1		301.0	48.0	2.5	/experiments/knapen_aot/videos/S_ILSVRC2015_train_00415003.mp4	0.0	257.0843460559845	2.5083909034729004
50	163.56369400024414	fix_post	2		12.0	48.0	2.5	/experiments/knapen_aot/videos/S_ILSVRC2015_train_00415003.mp4	0.0	259.5927369594574	0.09998106956481934
51	163.66367506980896	fix_pre	0		20.0	49.0	2.5	/experiments/knapen_aot/videos/S_yt-IC62JSYpq9w_71.mp4	0.0	259.6927180290222	0.16663503646850586
51	163.81460905075073	response	0	4		49.0	2.5	/experiments/knapen_aot/videos/S_yt-IC62JSYpq9w_71.mp4	0.0	259.843652009964	
51	163.83031010627747	movie	1		301.0	49.0	2.5	/experiments/knapen_aot/videos/S_yt-IC62JSYpq9w_71.mp4	0.0	259.8593530654907	2.508307933807373
51	166.33861804008484	fix_post	2		12.0	49.0	2.5	/experiments/knapen_aot/videos/S_yt-IC62JSYpq9w_71.mp4	0.0	262.3676609992981	0.1000969409942627
52	166.4387149810791	fix_pre	0		90.0	50.0	2.5	/experiments/knapen_aot/videos/R_S_wc-PX_MIe5L43_3_16.mp4	0.0	262.46775794029236	0.7499580383300781
52	167.1805260181427	response	0	4		50.0	2.5	/experiments/knapen_aot/videos/R_S_wc-PX_MIe5L43_3_16.mp4	0.0	263.20956897735596	
52	167.18867301940918	movie	1		299.0	50.0	2.5	/experiments/knapen_aot/videos/R_S_wc-PX_MIe5L43_3_16.mp4	0.0	263.21771597862244	2.5082669258117676
52	169.69693994522095	fix_post	2		12.0	50.0	2.5	/experiments/knapen_aot/videos/R_S_wc-PX_MIe5L43_3_16.mp4	0.0	265.7259829044342	0.09999704360961914
53	169.79693698883057	fix_pre	0		193.0	51.0	2.5	/experiments/knapen_aot/videos/R_S_yt-bshHX6vWLtA_84.mp4	0.0	265.8259799480438	1.6083269119262695
53	171.39708304405212	response	0	4		51.0	2.5	/experiments/knapen_aot/videos/R_S_yt-bshHX6vWLtA_84.mp4	0.0	267.4261260032654	
53	171.40526390075684	movie	1		301.0	51.0	2.5	/experiments/knapen_aot/videos/R_S_yt-bshHX6vWLtA_84.mp4	0.0	267.4343068599701	2.508341073989868
53	173.9136049747467	fix_post	2		12.0	51.0	2.5	/experiments/knapen_aot/videos/R_S_yt-bshHX6vWLtA_84.mp4	0.0	269.94264793395996	0.09998798370361328
54	174.01359295845032	fix_pre	0		43.0	52.0	2.5	/experiments/knapen_aot/videos/R_S_yt-hOtj2y9VWrc_354.mp4	0.0	270.0426359176636	0.35938596725463867
54	174.3562400341034	response	0	4		52.0	2.5	/experiments/knapen_aot/videos/R_S_yt-hOtj2y9VWrc_354.mp4	0.0	270.38528299331665	
54	174.37297892570496	movie	1		301.0	52.0	2.5	/experiments/knapen_aot/videos/R_S_yt-hOtj2y9VWrc_354.mp4	0.0	270.4020218849182	2.507270097732544
54	176.8802490234375	fix_post	2		12.0	52.0	2.5	/experiments/knapen_aot/videos/R_S_yt-hOtj2y9VWrc_354.mp4	0.0	272.90929198265076	0.10000491142272949
55	176.98025393486023	fix_pre	0		73.0	53.0	2.5	/experiments/knapen_aot/videos/S_yt-AOP7QYQntPI_28.mp4	0.0	273.0092968940735	0.6083340644836426
55	177.58034205436707	response	0	4		53.0	2.5	/experiments/knapen_aot/videos/S_yt-AOP7QYQntPI_28.mp4	0.0	273.6093850135803	
55	177.58858799934387	movie	1		301.0	53.0	2.5	/experiments/knapen_aot/videos/S_yt-AOP7QYQntPI_28.mp4	0.0	273.61763095855713	2.5083539485931396
55	180.096941947937	fix_post	2		12.0	53.0	2.5	/experiments/knapen_aot/videos/S_yt-AOP7QYQntPI_28.mp4	0.0	276.12598490715027	0.10001301765441895
56	180.19695496559143	fix_pre	0		21.0	54.0	2.5	blank	1.0	276.2259979248047	0.1749720573425293
56	180.36371207237244	response	0	4		54.0	2.5	blank	1.0	276.3927550315857	
56	180.37192702293396	movie	1		301.0	54.0	2.5	blank	1.0	276.4009699821472	2.508293867111206
56	182.49702405929565	response	1	4		54.0	2.5	blank	1.0	278.5260670185089	
56	182.88022089004517	fix_post	2		12.0	54.0	2.5	blank	1.0	278.9092638492584	0.10006308555603027
57	182.9802839756012	fix_pre	0		65.0	55.0	2.5	/experiments/knapen_aot/videos/R_S_yt-fryIS5Itzig_124.mp4	0.0	279.00932693481445	0.5416219234466553
57	183.5136959552765	response	0	4		55.0	2.5	/experiments/knapen_aot/videos/R_S_yt-fryIS5Itzig_124.mp4	0.0	279.54273891448975	
57	183.52190589904785	movie	1		301.0	55.0	2.5	/experiments/knapen_aot/videos/R_S_yt-fryIS5Itzig_124.mp4	0.0	279.5509488582611	2.5082740783691406
57	186.030179977417	fix_post	2		12.0	55.0	2.5	/experiments/knapen_aot/videos/R_S_yt-fryIS5Itzig_124.mp4	0.0	282.05922293663025	0.10012292861938477
58	186.13030290603638	fix_pre	0		39.0	56.0	2.5	/experiments/knapen_aot/videos/S_ILSVRC2015_train_00682007.mp4	0.0	282.15934586524963	0.32594799995422363
58	186.44707489013672	response	0	4		56.0	2.5	/experiments/knapen_aot/videos/S_ILSVRC2015_train_00682007.mp4	0.0	282.47611784935	
58	186.4562509059906	movie	1		301.0	56.0	2.5	/experiments/knapen_aot/videos/S_ILSVRC2015_train_00682007.mp4	0.0	282.48529386520386	2.5073189735412598
58	188.96356987953186	fix_post	2		12.0	56.0	2.5	/experiments/knapen_aot/videos/S_ILSVRC2015_train_00682007.mp4	0.0	284.9926128387451	0.09998011589050293
59	189.06354999542236	fix_pre	0		57.0	57.0	2.5	/experiments/knapen_aot/videos/S_yt-zh2yLr-o_8A_953.mp4	0.0	285.0925929546356	0.47596001625061035
59	189.5303430557251	response	0	4		57.0	2.5	/experiments/knapen_aot/videos/S_yt-zh2yLr-o_8A_953.mp4	0.0	285.55938601493835	
59	189.53951001167297	movie	1		300.0	57.0	2.5	/experiments/knapen_aot/videos/S_yt-zh2yLr-o_8A_953.mp4	0.0	285.56855297088623	2.5073659420013428
59	192.04687595367432	fix_post	2		12.0	57.0	2.5	/experiments/knapen_aot/videos/S_yt-zh2yLr-o_8A_953.mp4	0.0	288.0759189128876	0.09999799728393555
60	192.14687395095825	fix_pre	0		183.0	58.0	2.5	/experiments/knapen_aot/videos/S_yt-sGckFFOLO30_164.mp4	0.0	288.1759169101715	1.5249900817871094
60	193.6636519432068	response	0	4		58.0	2.5	/experiments/knapen_aot/videos/S_yt-sGckFFOLO30_164.mp4	0.0	289.69269490242004	
60	193.67186403274536	movie	1		301.0	58.0	2.5	/experiments/knapen_aot/videos/S_yt-sGckFFOLO30_164.mp4	0.0	289.7009069919586	2.508336067199707
60	196.18020009994507	fix_post	2		12.0	58.0	2.5	/experiments/knapen_aot/videos/S_yt-sGckFFOLO30_164.mp4	0.0	292.2092430591583	0.0999298095703125
61	196.28012990951538	fix_pre	0		46.0	59.0	2.5	/experiments/knapen_aot/videos/R_S_yt-LQrnLKP5tiQ_48.mp4	0.0	292.30917286872864	0.38430309295654297
61	196.65543699264526	response	0	4		59.0	2.5	/experiments/knapen_aot/videos/R_S_yt-LQrnLKP5tiQ_48.mp4	0.0	292.6844799518585	
61	196.66443300247192	movie	1		301.0	59.0	2.5	/experiments/knapen_aot/videos/R_S_yt-LQrnLKP5tiQ_48.mp4	0.0	292.6934759616852	2.507417917251587
61	199.1718509197235	fix_post	2		12.0	59.0	2.5	/experiments/knapen_aot/videos/R_S_yt-LQrnLKP5tiQ_48.mp4	0.0	295.20089387893677	0.09995698928833008
62	199.27180790901184	fix_pre	0		48.0	60.0	2.5	/experiments/knapen_aot/videos/R_S_flickr-51283549@N02-23064904264_16.mp4	0.0	295.3008508682251	0.3999800682067871
62	199.6635799407959	response	0	4		60.0	2.5	/experiments/knapen_aot/videos/R_S_flickr-51283549@N02-23064904264_16.mp4	0.0	295.69262290000916	
62	199.67178797721863	movie	1		163.0	60.0	2.5	/experiments/knapen_aot/videos/R_S_flickr-51283549@N02-23064904264_16.mp4	0.0	295.7008309364319	2.50838303565979
62	202.18017101287842	fix_post	2		12.0	60.0	2.5	/experiments/knapen_aot/videos/R_S_flickr-51283549@N02-23064904264_16.mp4	0.0	298.2092139720917	0.10001802444458008
63	202.280189037323	fix_pre	0		159.0	61.0	2.5	/experiments/knapen_aot/videos/R_S_yt-IC62JSYpq9w_71.mp4	0.0	298.30923199653625	1.32492995262146
63	203.59693694114685	response	0	4		61.0	2.5	/experiments/knapen_aot/videos/R_S_yt-IC62JSYpq9w_71.mp4	0.0	299.6259799003601	
63	203.60511898994446	movie	1		301.0	61.0	2.5	/experiments/knapen_aot/videos/R_S_yt-IC62JSYpq9w_71.mp4	0.0	299.6341619491577	2.5083510875701904
63	206.11347007751465	fix_post	2		12.0	61.0	2.5	/experiments/knapen_aot/videos/R_S_yt-IC62JSYpq9w_71.mp4	0.0	302.1425130367279	0.10001683235168457
64	206.21348690986633	fix_pre	0		23.0	62.0	2.5	/experiments/knapen_aot/videos/R_S_yt-TSSPDwAQLXs_158.mp4	0.0	302.2425298690796	0.1915900707244873
64	206.3969440460205	response	0	4		62.0	2.5	/experiments/knapen_aot/videos/R_S_yt-TSSPDwAQLXs_158.mp4	0.0	302.42598700523376	
64	206.40507698059082	movie	1		301.0	62.0	2.5	/experiments/knapen_aot/videos/R_S_yt-TSSPDwAQLXs_158.mp4	0.0	302.4341199398041	2.5083580017089844
64	208.9134349822998	fix_post	2		12.0	62.0	2.5	/experiments/knapen_aot/videos/R_S_yt-TSSPDwAQLXs_158.mp4	0.0	304.94247794151306	0.10000991821289062
65	209.0134449005127	fix_pre	0		91.0	63.0	2.5	blank	1.0	305.04248785972595	0.758289098739624
65	209.76363706588745	response	0	4		63.0	2.5	blank	1.0	305.7926800251007	
65	209.77173399925232	movie	1		301.0	63.0	2.5	blank	1.0	305.8007769584656	2.508284091949463
65	212.28001809120178	fix_post	2		12.0	63.0	2.5	blank	1.0	308.30906105041504	0.10004591941833496
66	212.38006401062012	fix_pre	0		33.0	64.0	2.5	/experiments/knapen_aot/videos/R_S_yt-aiWUhl8MCto_71.mp4	0.0	308.4091069698334	0.27502989768981934
66	212.6469020843506	response	0	4		64.0	2.5	/experiments/knapen_aot/videos/R_S_yt-aiWUhl8MCto_71.mp4	0.0	308.67594504356384	
66	212.65509390830994	movie	1		301.0	64.0	2.5	/experiments/knapen_aot/videos/R_S_yt-aiWUhl8MCto_71.mp4	0.0	308.6841368675232	2.5083730220794678
66	215.1634669303894	fix_post	2		12.0	64.0	2.5	/experiments/knapen_aot/videos/R_S_yt-aiWUhl8MCto_71.mp4	0.0	311.19250988960266	0.0999441146850586
67	215.26341104507446	fix_pre	0		52.0	65.0	2.5	/experiments/knapen_aot/videos/R_S_yt-14tjqjjjAEI_15.mp4	0.0	311.2924540042877	0.4333510398864746
67	215.68848204612732	response	0	4		65.0	2.5	/experiments/knapen_aot/videos/R_S_yt-14tjqjjjAEI_15.mp4	0.0	311.7175250053406	
67	215.69676208496094	movie	1		301.0	65.0	2.5	/experiments/knapen_aot/videos/R_S_yt-14tjqjjjAEI_15.mp4	0.0	311.7258050441742	2.508316993713379
67	218.20507907867432	fix_post	2		12.0	65.0	2.5	/experiments/knapen_aot/videos/R_S_yt-14tjqjjjAEI_15.mp4	0.0	314.2341220378876	0.09995293617248535
68	218.3050320148468	fix_pre	0		88.0	66.0	2.5	/experiments/knapen_aot/videos/R_S_yt-UmLeGNcqouI_718.mp4	0.0	314.33407497406006	0.734199047088623
68	219.03020191192627	response	0	4		66.0	2.5	/experiments/knapen_aot/videos/R_S_yt-UmLeGNcqouI_718.mp4	0.0	315.0592448711395	
68	219.03923106193542	movie	1		301.0	66.0	2.5	/experiments/knapen_aot/videos/R_S_yt-UmLeGNcqouI_718.mp4	0.0	315.0682740211487	2.5075149536132812
68	221.5467460155487	fix_post	2		12.0	66.0	2.5	/experiments/knapen_aot/videos/R_S_yt-UmLeGNcqouI_718.mp4	0.0	317.57578897476196	0.10001492500305176
69	221.64676094055176	fix_pre	0		56.0	67.0	2.5	/experiments/knapen_aot/videos/R_S_wc-rs31_SV1Opy__6.mp4	0.0	317.675803899765	0.4666330814361572
69	222.1052370071411	response	0	4		67.0	2.5	/experiments/knapen_aot/videos/R_S_wc-rs31_SV1Opy__6.mp4	0.0	318.13427996635437	
69	222.11339402198792	movie	1		162.0	67.0	2.5	/experiments/knapen_aot/videos/R_S_wc-rs31_SV1Opy__6.mp4	0.0	318.1424369812012	2.508328914642334
69	224.62172293663025	fix_post	2		12.0	67.0	2.5	/experiments/knapen_aot/videos/R_S_wc-rs31_SV1Opy__6.mp4	0.0	320.6507658958435	0.10000109672546387
70	224.7217240333557	fix_pre	0		23.0	68.0	2.5	blank	1.0	320.75076699256897	0.19250202178955078
70	224.90511989593506	response	0	4		68.0	2.5	blank	1.0	320.9341628551483	
70	224.91422605514526	movie	1		301.0	68.0	2.5	blank	1.0	320.9432690143585	2.5074639320373535
70	227.42168998718262	fix_post	2		12.0	68.0	2.5	blank	1.0	323.4507329463959	0.09997892379760742
71	227.52166891098022	fix_pre	0		62.0	69.0	2.5	/experiments/knapen_aot/videos/S_pexels-cottonbro-6789231.mp4	0.0	323.5507118701935	0.5174481868743896
71	228.0301320552826	response	0	4		69.0	2.5	/experiments/knapen_aot/videos/S_pexels-cottonbro-6789231.mp4	0.0	324.05917501449585	
71	228.03911709785461	movie	1		211.0	69.0	2.5	/experiments/knapen_aot/videos/S_pexels-cottonbro-6789231.mp4	0.0	324.06816005706787	2.5076279640197754
71	230.5467450618744	fix_post	2		12.0	69.0	2.5	/experiments/knapen_aot/videos/S_pexels-cottonbro-6789231.mp4	0.0	326.57578802108765	0.09990501403808594
72	230.64665007591248	fix_pre	0		61.0	70.0	2.5	/experiments/knapen_aot/videos/R_S_yt-Wr5pSPApQDw_235.mp4	0.0	326.67569303512573	0.5083780288696289
72	231.14677095413208	response	0	4		70.0	2.5	/experiments/knapen_aot/videos/R_S_yt-Wr5pSPApQDw_235.mp4	0.0	327.17581391334534	
72	231.1550281047821	movie	1		298.0	70.0	2.5	/experiments/knapen_aot/videos/R_S_yt-Wr5pSPApQDw_235.mp4	0.0	327.18407106399536	2.508312940597534
72	233.66334104537964	fix_post	2		12.0	70.0	2.5	/experiments/knapen_aot/videos/R_S_yt-Wr5pSPApQDw_235.mp4	0.0	329.6923840045929	0.10000085830688477
73	233.76334190368652	fix_pre	0		45.0	71.0	2.5	/experiments/knapen_aot/videos/S_yt-2CWrK9nbhTk_211.mp4	0.0	329.7923848628998	0.3749580383300781
73	234.13016510009766	response	0	4		71.0	2.5	/experiments/knapen_aot/videos/S_yt-2CWrK9nbhTk_211.mp4	0.0	330.1592080593109	
73	234.1382999420166	movie	1		301.0	71.0	2.5	/experiments/knapen_aot/videos/S_yt-2CWrK9nbhTk_211.mp4	0.0	330.16734290122986	2.508341073989868
73	236.64664101600647	fix_post	2		12.0	71.0	2.5	/experiments/knapen_aot/videos/S_yt-2CWrK9nbhTk_211.mp4	0.0	332.6756839752197	0.10004496574401855
74	236.7466859817505	fix_pre	0		52.0	72.0	2.5	/experiments/knapen_aot/videos/S_yt-hOtj2y9VWrc_354.mp4	0.0	332.77572894096375	0.43328309059143066
74	237.17178297042847	response	0	4		72.0	2.5	/experiments/knapen_aot/videos/S_yt-hOtj2y9VWrc_354.mp4	0.0	333.2008259296417	
74	237.17996907234192	movie	1		301.0	72.0	2.5	/experiments/knapen_aot/videos/S_yt-hOtj2y9VWrc_354.mp4	0.0	333.2090120315552	2.508368968963623
74	239.68833804130554	fix_post	2		12.0	72.0	2.5	/experiments/knapen_aot/videos/S_yt-hOtj2y9VWrc_354.mp4	0.0	335.7173810005188	0.10001802444458008
75	239.78835606575012	fix_pre	0		70.0	73.0	2.5	/experiments/knapen_aot/videos/R_S_yt-wrxk7fFkxHg_177.mp4	0.0	335.8173990249634	0.584022045135498
75	240.36347007751465	response	0	4		73.0	2.5	/experiments/knapen_aot/videos/R_S_yt-wrxk7fFkxHg_177.mp4	0.0	336.3925130367279	
75	240.37237811088562	movie	1		301.0	73.0	2.5	/experiments/knapen_aot/videos/R_S_yt-wrxk7fFkxHg_177.mp4	0.0	336.4014210700989	2.5076489448547363
75	242.88002705574036	fix_post	2		12.0	73.0	2.5	/experiments/knapen_aot/videos/R_S_yt-wrxk7fFkxHg_177.mp4	0.0	338.9090700149536	0.10002803802490234
76	242.98005509376526	fix_pre	0		15.0	74.0	2.5	/experiments/knapen_aot/videos/S_pexels-mikael-blomkvist-8689852.mp4	0.0	339.0090980529785	0.12481999397277832
76	243.09674191474915	response	0	4		74.0	2.5	/experiments/knapen_aot/videos/S_pexels-mikael-blomkvist-8689852.mp4	0.0	339.1257848739624	
76	243.10487508773804	movie	1		164.0	74.0	2.5	/experiments/knapen_aot/videos/S_pexels-mikael-blomkvist-8689852.mp4	0.0	339.1339180469513	2.5084187984466553
76	245.6132938861847	fix_post	2		12.0	74.0	2.5	/experiments/knapen_aot/videos/S_pexels-mikael-blomkvist-8689852.mp4	0.0	341.64233684539795	0.09994912147521973
77	245.7132430076599	fix_pre	0		281.0	75.0	2.5	blank	1.0	341.74228596687317	2.3417110443115234
77	248.0467710494995	response	0	4		75.0	2.5	blank	1.0	344.07581400871277	
77	248.05495405197144	movie	1		301.0	75.0	2.5	blank	1.0	344.0839970111847	2.508296012878418
77	250.56325006484985	fix_post	2		12.0	75.0	2.5	blank	1.0	346.5922930240631	0.09997296333312988
78	250.66322302818298	fix_pre	0		116.0	76.0	2.5	/experiments/knapen_aot/videos/S_yt-feTWuKPZA_k_34.mp4	0.0	346.69226598739624	0.9666500091552734
78	251.6217908859253	response	0	4		76.0	2.5	/experiments/knapen_aot/videos/S_yt-feTWuKPZA_k_34.mp4	0.0	347.65083384513855	
78	251.62987303733826	movie	1		301.0	76.0	2.5	/experiments/knapen_aot/videos/S_yt-feTWuKPZA_k_34.mp4	0.0	347.6589159965515	2.508409023284912
78	254.13828206062317	fix_post	2		12.0	76.0	2.5	/experiments/knapen_aot/videos/S_yt-feTWuKPZA_k_34.mp4	0.0	350.1673250198364	0.09995698928833008
79	254.2382390499115	fix_pre	0		46.0	77.0	2.5	/experiments/knapen_aot/videos/S_comp_CH_C002_C005_PSNK_v05_SDR_PS_FINAL_20180709_SDR_2K_AVC.mp4	0.0	350.26728200912476	0.3839688301086426
79	254.61335492134094	response	0	4		77.0	2.5	/experiments/knapen_aot/videos/S_comp_CH_C002_C005_PSNK_v05_SDR_PS_FINAL_20180709_SDR_2K_AVC.mp4	0.0	350.6423978805542	
79	254.62220788002014	movie	1		175.0	77.0	2.5	/experiments/knapen_aot/videos/S_comp_CH_C002_C005_PSNK_v05_SDR_PS_FINAL_20180709_SDR_2K_AVC.mp4	0.0	350.6512508392334	2.507599115371704
79	257.12980699539185	fix_post	2		12.0	77.0	2.5	/experiments/knapen_aot/videos/S_comp_CH_C002_C005_PSNK_v05_SDR_PS_FINAL_20180709_SDR_2K_AVC.mp4	0.0	353.1588499546051	0.10011792182922363
80	257.22992491722107	fix_pre	0		55.0	78.0	2.5	/experiments/knapen_aot/videos/S_yt-Gam0NeyyG8w_22.mp4	0.0	353.2589678764343	0.45832204818725586
80	257.6800630092621	response	0	4		78.0	2.5	/experiments/knapen_aot/videos/S_yt-Gam0NeyyG8w_22.mp4	0.0	353.70910596847534	
80	257.6882469654083	movie	1		301.0	78.0	2.5	/experiments/knapen_aot/videos/S_yt-Gam0NeyyG8w_22.mp4	0.0	353.7172899246216	2.5083420276641846
80	260.1965889930725	fix_post	2		12.0	78.0	2.5	/experiments/knapen_aot/videos/S_yt-Gam0NeyyG8w_22.mp4	0.0	356.22563195228577	0.09995603561401367
81	260.2965450286865	fix_pre	0		43.0	79.0	2.5	/experiments/knapen_aot/videos/S_yt-GBt59U0KUR0_6.mp4	0.0	356.3255879878998	0.35832786560058594
81	260.6468040943146	response	0	4		79.0	2.5	/experiments/knapen_aot/videos/S_yt-GBt59U0KUR0_6.mp4	0.0	356.67584705352783	
81	260.6548728942871	movie	1		301.0	79.0	2.5	/experiments/knapen_aot/videos/S_yt-GBt59U0KUR0_6.mp4	0.0	356.68391585350037	2.5083000659942627
81	263.1631729602814	fix_post	2		12.0	79.0	2.5	/experiments/knapen_aot/videos/S_yt-GBt59U0KUR0_6.mp4	0.0	359.19221591949463	0.10005712509155273
82	263.2632300853729	fix_pre	0		185.0	80.0	2.5	/experiments/knapen_aot/videos/R_S_yt-Dwgpjoikt84_71.mp4	0.0	359.2922730445862	1.5416069030761719
82	264.7966709136963	response	0	4		80.0	2.5	/experiments/knapen_aot/videos/R_S_yt-Dwgpjoikt84_71.mp4	0.0	360.82571387290955	
82	264.8048369884491	movie	1		301.0	80.0	2.5	/experiments/knapen_aot/videos/R_S_yt-Dwgpjoikt84_71.mp4	0.0	360.83387994766235	2.5083210468292236
82	267.3131580352783	fix_post	2		12.0	80.0	2.5	/experiments/knapen_aot/videos/R_S_yt-Dwgpjoikt84_71.mp4	0.0	363.3422009944916	0.10000801086425781
83	267.4131660461426	fix_pre	0		22.0	81.0	2.5	/experiments/knapen_aot/videos/S_pexels-pavel-danilyuk-8057714.mp4	0.0	363.44220900535583	0.18339204788208008
83	267.5882999897003	response	0	4		81.0	2.5	/experiments/knapen_aot/videos/S_pexels-pavel-danilyuk-8057714.mp4	0.0	363.6173429489136	
83	267.59655809402466	movie	1		169.0	81.0	2.5	/experiments/knapen_aot/videos/S_pexels-pavel-danilyuk-8057714.mp4	0.0	363.6256010532379	2.5082998275756836
83	270.10485792160034	fix_post	2		12.0	81.0	2.5	/experiments/knapen_aot/videos/S_pexels-pavel-danilyuk-8057714.mp4	0.0	366.1339008808136	0.0999910831451416
84	270.2048490047455	fix_pre	0		94.0	82.0	2.5	/experiments/knapen_aot/videos/R_S_ILSVRC2015_train_00743001.mp4	0.0	366.23389196395874	0.7832601070404053
84	270.97999596595764	response	0	4		82.0	2.5	/experiments/knapen_aot/videos/R_S_ILSVRC2015_train_00743001.mp4	0.0	367.0090389251709	
84	270.9881091117859	movie	1		301.0	82.0	2.5	/experiments/knapen_aot/videos/R_S_ILSVRC2015_train_00743001.mp4	0.0	367.01715207099915	2.5083348751068115
84	273.4964439868927	fix_post	2		12.0	82.0	2.5	/experiments/knapen_aot/videos/R_S_ILSVRC2015_train_00743001.mp4	0.0	369.52548694610596	0.10003304481506348
85	273.59647703170776	fix_pre	0		14.0	83.0	2.5	blank	1.0	369.625519990921	0.1167449951171875
85	273.7049798965454	response	0	4		83.0	2.5	blank	1.0	369.73402285575867	
85	273.71322202682495	movie	1		301.0	83.0	2.5	blank	1.0	369.7422649860382	2.508305072784424
85	276.2215270996094	fix_post	2		12.0	83.0	2.5	blank	1.0	372.25057005882263	0.09988284111022949
87	276.3214099407196	stim	0		194.0					372.35045289993286	1.6200900077819824
87	276.5716390609741	response	0	4						372.6006820201874	
87	277.93464398384094	response	0	space						373.9636869430542	
