trial_nr	onset	event_type	phase	response	nr_frames	movie_index	movie_duration	movie_file	blank	onset_abs	duration
0	0.1261129379272461	stim	0		120.0					242.5590419769287	0.9998781681060791
0	1.117630958557129	response	0	space						243.5505599975586	
1	1.1259911060333252	stim	0		121.0					243.5589201450348	1.0069198608398438
1	1.8829169273376465	response	0	space						244.3158459663391	
1	2.132910966873169	stim	1		120.0					244.56584000587463	1.0000090599060059
2	3.132920026779175	fix_pre	0		9.0	0.0	2.5	/experiments/knapen_aot/videos/S_yt-7e6Z9QQieAk_183.mp4	0.0	245.56584906578064	0.07611894607543945
2	3.199613094329834	response	0	space		0.0	2.5	/experiments/knapen_aot/videos/S_yt-7e6Z9QQieAk_183.mp4	0.0	245.6325421333313	
2	3.2090389728546143	movie	1		301.0	0.0	2.5	/experiments/knapen_aot/videos/S_yt-7e6Z9QQieAk_183.mp4	0.0	245.64196801185608	2.5071310997009277
2	5.716170072555542	fix_post	2		12.0	0.0	2.5	/experiments/knapen_aot/videos/S_yt-7e6Z9QQieAk_183.mp4	0.0	248.149099111557	0.10000896453857422
3	5.816179037094116	fix_pre	0		112.0	1.0	2.5	/experiments/knapen_aot/videos/S_yt-s5YONFy3vb4_46.mp4	0.0	248.24910807609558	0.9344708919525146
3	6.745593070983887	response	0	2		1.0	2.5	/experiments/knapen_aot/videos/S_yt-s5YONFy3vb4_46.mp4	0.0	249.17852210998535	
3	6.750649929046631	movie	1		300.0	1.0	2.5	/experiments/knapen_aot/videos/S_yt-s5YONFy3vb4_46.mp4	0.0	249.1835789680481	2.5072171688079834
3	9.257867097854614	fix_post	2		12.0	1.0	2.5	/experiments/knapen_aot/videos/S_yt-s5YONFy3vb4_46.mp4	0.0	251.69079613685608	0.09998583793640137
4	9.357852935791016	fix_pre	0		86.0	2.0	2.5	/experiments/knapen_aot/videos/R_S_yt-26009GpQuUg_3.mp4	0.0	251.79078197479248	0.7165751457214355
4	10.066288948059082	response	0	2		2.0	2.5	/experiments/knapen_aot/videos/R_S_yt-26009GpQuUg_3.mp4	0.0	252.49921798706055	
4	10.074428081512451	movie	1		301.0	2.0	2.5	/experiments/knapen_aot/videos/R_S_yt-26009GpQuUg_3.mp4	0.0	252.50735712051392	2.50839900970459
4	12.582827091217041	fix_post	2		12.0	2.0	2.5	/experiments/knapen_aot/videos/R_S_yt-26009GpQuUg_3.mp4	0.0	255.0157561302185	0.09999704360961914
5	12.68282413482666	fix_pre	0		57.0	3.0	2.5	/experiments/knapen_aot/videos/S_yt-Tt_LkR4iAt4_11.mp4	0.0	255.11575317382812	0.47500181198120117
5	13.149611949920654	response	0	2		3.0	2.5	/experiments/knapen_aot/videos/S_yt-Tt_LkR4iAt4_11.mp4	0.0	255.58254098892212	
5	13.157825946807861	movie	1		301.0	3.0	2.5	/experiments/knapen_aot/videos/S_yt-Tt_LkR4iAt4_11.mp4	0.0	255.59075498580933	2.5083301067352295
5	15.66615605354309	fix_post	2		12.0	3.0	2.5	/experiments/knapen_aot/videos/S_yt-Tt_LkR4iAt4_11.mp4	0.0	258.09908509254456	0.10000109672546387
6	15.766157150268555	fix_pre	0		32.0	4.0	2.5	/experiments/knapen_aot/videos/R_S_yt-rPYBHkUEwwc_10.mp4	0.0	258.19908618927	0.26665782928466797
6	16.02466893196106	response	0	2		4.0	2.5	/experiments/knapen_aot/videos/R_S_yt-rPYBHkUEwwc_10.mp4	0.0	258.4575979709625	
6	16.032814979553223	movie	1		301.0	4.0	2.5	/experiments/knapen_aot/videos/R_S_yt-rPYBHkUEwwc_10.mp4	0.0	258.4657440185547	2.5083489418029785
6	18.5411639213562	fix_post	2		12.0	4.0	2.5	/experiments/knapen_aot/videos/R_S_yt-rPYBHkUEwwc_10.mp4	0.0	260.97409296035767	0.10001802444458008
7	18.64118194580078	fix_pre	0		30.0	5.0	2.5	/experiments/knapen_aot/videos/S_yt-6xXEMHBQ08A_28.mp4	0.0	261.07411098480225	0.2499849796295166
7	18.882966995239258	response	0	2		5.0	2.5	/experiments/knapen_aot/videos/S_yt-6xXEMHBQ08A_28.mp4	0.0	261.3158960342407	
7	18.891166925430298	movie	1		301.0	5.0	2.5	/experiments/knapen_aot/videos/S_yt-6xXEMHBQ08A_28.mp4	0.0	261.32409596443176	2.5084140300750732
7	21.39958095550537	fix_post	2		12.0	5.0	2.5	/experiments/knapen_aot/videos/S_yt-6xXEMHBQ08A_28.mp4	0.0	263.83250999450684	0.10003399848937988
8	21.49961495399475	fix_pre	0		196.0	6.0	2.5	blank	1.0	263.9325439929962	1.6331579685211182
8	23.124516010284424	response	0	2		6.0	2.5	blank	1.0	265.5574450492859	
8	23.13277292251587	movie	1		301.0	6.0	2.5	blank	1.0	265.56570196151733	2.508355140686035
8	25.641128063201904	fix_post	2		12.0	6.0	2.5	blank	1.0	268.07405710220337	0.10004186630249023
9	25.741169929504395	fix_pre	0		154.0	7.0	2.5	/experiments/knapen_aot/videos/R_S_yt-ayx4rU9bJrU_179.mp4	0.0	268.17409896850586	1.2832159996032715
9	27.016139030456543	response	0	2		7.0	2.5	/experiments/knapen_aot/videos/R_S_yt-ayx4rU9bJrU_179.mp4	0.0	269.449068069458	
9	27.024385929107666	movie	1		300.0	7.0	2.5	/experiments/knapen_aot/videos/R_S_yt-ayx4rU9bJrU_179.mp4	0.0	269.45731496810913	2.5084102153778076
9	29.532796144485474	fix_post	2		12.0	7.0	2.5	/experiments/knapen_aot/videos/R_S_yt-ayx4rU9bJrU_179.mp4	0.0	271.96572518348694	0.10000085830688477
10	29.63279700279236	fix_pre	0		48.0	8.0	2.5	/experiments/knapen_aot/videos/R_S_yt-7v3kHYBe7-E_8.mp4	0.0	272.0657260417938	0.3999600410461426
10	30.024562120437622	response	0	2		8.0	2.5	/experiments/knapen_aot/videos/R_S_yt-7v3kHYBe7-E_8.mp4	0.0	272.4574911594391	
10	30.0327570438385	movie	1		301.0	8.0	2.5	/experiments/knapen_aot/videos/R_S_yt-7v3kHYBe7-E_8.mp4	0.0	272.46568608283997	2.5083529949188232
10	32.541110038757324	fix_post	2		12.0	8.0	2.5	/experiments/knapen_aot/videos/R_S_yt-7v3kHYBe7-E_8.mp4	0.0	274.9740390777588	0.10000896453857422
11	32.6411190032959	fix_pre	0		168.0	9.0	2.5	/experiments/knapen_aot/videos/S_yt-XPRNMelf5Fs_235.mp4	0.0	275.07404804229736	1.4009830951690674
11	34.03285598754883	response	0	2		9.0	2.5	/experiments/knapen_aot/videos/S_yt-XPRNMelf5Fs_235.mp4	0.0	276.4657850265503	
11	34.042102098464966	movie	1		301.0	9.0	2.5	/experiments/knapen_aot/videos/S_yt-XPRNMelf5Fs_235.mp4	0.0	276.47503113746643	2.5073249340057373
11	36.5494270324707	fix_post	2		12.0	9.0	2.5	/experiments/knapen_aot/videos/S_yt-XPRNMelf5Fs_235.mp4	0.0	278.98235607147217	0.10005402565002441
12	36.64948105812073	fix_pre	0		29.0	10.0	2.5	/experiments/knapen_aot/videos/S_ILSVRC2015_train_00495000.mp4	0.0	279.0824100971222	0.24158501625061035
12	36.8828809261322	response	0	2		10.0	2.5	/experiments/knapen_aot/videos/S_ILSVRC2015_train_00495000.mp4	0.0	279.31580996513367	
12	36.89106607437134	movie	1		300.0	10.0	2.5	/experiments/knapen_aot/videos/S_ILSVRC2015_train_00495000.mp4	0.0	279.3239951133728	2.5083649158477783
12	39.399430990219116	fix_post	2		12.0	10.0	2.5	/experiments/knapen_aot/videos/S_ILSVRC2015_train_00495000.mp4	0.0	281.8323600292206	0.09995913505554199
13	39.49939012527466	fix_pre	0		30.0	11.0	2.5	/experiments/knapen_aot/videos/R_S_yt-Rsfo57AlpLA_332.mp4	0.0	281.9323191642761	0.25093984603881836
13	39.741151094436646	response	0	2		11.0	2.5	/experiments/knapen_aot/videos/R_S_yt-Rsfo57AlpLA_332.mp4	0.0	282.1740801334381	
13	39.75032997131348	movie	1		301.0	11.0	2.5	/experiments/knapen_aot/videos/R_S_yt-Rsfo57AlpLA_332.mp4	0.0	282.18325901031494	2.5073440074920654
13	42.25767397880554	fix_post	2		12.0	11.0	2.5	/experiments/knapen_aot/videos/R_S_yt-Rsfo57AlpLA_332.mp4	0.0	284.690603017807	0.10003399848937988
14	42.35770797729492	fix_pre	0		204.0	12.0	2.5	/experiments/knapen_aot/videos/R_S_yt-HwEfWfFJhRo_73.mp4	0.0	284.7906370162964	1.6999471187591553
14	44.04965305328369	response	0	2		12.0	2.5	/experiments/knapen_aot/videos/R_S_yt-HwEfWfFJhRo_73.mp4	0.0	286.48258209228516	
14	44.05765509605408	movie	1		301.0	12.0	2.5	/experiments/knapen_aot/videos/R_S_yt-HwEfWfFJhRo_73.mp4	0.0	286.49058413505554	2.5084240436553955
14	46.56607913970947	fix_post	2		12.0	12.0	2.5	/experiments/knapen_aot/videos/R_S_yt-HwEfWfFJhRo_73.mp4	0.0	288.99900817871094	0.09997677803039551
15	46.66605591773987	fix_pre	0		72.0	13.0	2.5	/experiments/knapen_aot/videos/R_S_yt-bwSRV1Vr21s_435.mp4	0.0	289.09898495674133	0.5999500751495361
15	47.25044107437134	response	0	2		13.0	2.5	/experiments/knapen_aot/videos/R_S_yt-bwSRV1Vr21s_435.mp4	0.0	289.6833701133728	
15	47.266005992889404	movie	1		299.0	13.0	2.5	/experiments/knapen_aot/videos/R_S_yt-bwSRV1Vr21s_435.mp4	0.0	289.69893503189087	2.5083539485931396
15	49.774359941482544	fix_post	2		12.0	13.0	2.5	/experiments/knapen_aot/videos/R_S_yt-bwSRV1Vr21s_435.mp4	0.0	292.207288980484	0.09993720054626465
16	49.87429714202881	fix_pre	0		169.0	14.0	2.5	blank	1.0	292.3072261810303	1.4083178043365479
16	51.27442812919617	response	0	2		14.0	2.5	blank	1.0	293.70735716819763	
16	51.282614946365356	movie	1		301.0	14.0	2.5	blank	1.0	293.7155439853668	2.508392095565796
16	53.79100704193115	fix_post	2		12.0	14.0	2.5	blank	1.0	296.2239360809326	0.09997296333312988
17	53.89098000526428	fix_pre	0		40.0	15.0	2.5	/experiments/knapen_aot/videos/S_yt-mJzkLd3Mr_c_35.mp4	0.0	296.32390904426575	0.3333089351654053
17	54.21606993675232	response	0	2		15.0	2.5	/experiments/knapen_aot/videos/S_yt-mJzkLd3Mr_c_35.mp4	0.0	296.6489989757538	
17	54.22428894042969	movie	1		300.0	15.0	2.5	/experiments/knapen_aot/videos/S_yt-mJzkLd3Mr_c_35.mp4	0.0	296.65721797943115	2.5083541870117188
17	56.732643127441406	fix_post	2		12.0	15.0	2.5	/experiments/knapen_aot/videos/S_yt-mJzkLd3Mr_c_35.mp4	0.0	299.16557216644287	0.1000208854675293
18	56.832664012908936	fix_pre	0		143.0	16.0	2.5	/experiments/knapen_aot/videos/S_ILSVRC2015_train_00411000.mp4	0.0	299.2655930519104	1.1916260719299316
18	58.016063928604126	response	0	2		16.0	2.5	/experiments/knapen_aot/videos/S_ILSVRC2015_train_00411000.mp4	0.0	300.4489929676056	
18	58.02429008483887	movie	1		301.0	16.0	2.5	/experiments/knapen_aot/videos/S_ILSVRC2015_train_00411000.mp4	0.0	300.45721912384033	2.5083818435668945
18	60.53267192840576	fix_post	2		12.0	16.0	2.5	/experiments/knapen_aot/videos/S_ILSVRC2015_train_00411000.mp4	0.0	302.9656009674072	0.09995603561401367
19	60.632627964019775	fix_pre	0		61.0	17.0	2.5	/experiments/knapen_aot/videos/R_S_pexels-cottonbro-5780808.mp4	0.0	303.06555700302124	0.5082991123199463
19	61.13268709182739	response	0	2		17.0	2.5	/experiments/knapen_aot/videos/R_S_pexels-cottonbro-5780808.mp4	0.0	303.56561613082886	
19	61.14092707633972	movie	1		164.0	17.0	2.5	/experiments/knapen_aot/videos/R_S_pexels-cottonbro-5780808.mp4	0.0	303.5738561153412	2.508344888687134
19	63.649271965026855	fix_post	2		12.0	17.0	2.5	/experiments/knapen_aot/videos/R_S_pexels-cottonbro-5780808.mp4	0.0	306.0822010040283	0.10002708435058594
20	63.74929904937744	fix_pre	0		82.0	18.0	2.5	/experiments/knapen_aot/videos/S_yt-NFb0SUCeiro_158.mp4	0.0	306.1822280883789	0.6832499504089355
20	64.42444014549255	response	0	2		18.0	2.5	/experiments/knapen_aot/videos/S_yt-NFb0SUCeiro_158.mp4	0.0	306.857369184494	
20	64.43254899978638	movie	1		300.0	18.0	2.5	/experiments/knapen_aot/videos/S_yt-NFb0SUCeiro_158.mp4	0.0	306.86547803878784	2.508281946182251
20	66.94083094596863	fix_post	2		12.0	18.0	2.5	/experiments/knapen_aot/videos/S_yt-NFb0SUCeiro_158.mp4	0.0	309.3737599849701	0.10011816024780273
21	67.04094910621643	fix_pre	0		85.0	19.0	2.5	/experiments/knapen_aot/videos/S_yt-XBAU3cq0rZs_150.mp4	0.0	309.4738781452179	0.7091379165649414
21	67.7410340309143	response	0	2		19.0	2.5	/experiments/knapen_aot/videos/S_yt-XBAU3cq0rZs_150.mp4	0.0	310.17396306991577	
21	67.75008702278137	movie	1		301.0	19.0	2.5	/experiments/knapen_aot/videos/S_yt-XBAU3cq0rZs_150.mp4	0.0	310.18301606178284	2.5074100494384766
21	70.25749707221985	fix_post	2		12.0	19.0	2.5	/experiments/knapen_aot/videos/S_yt-XBAU3cq0rZs_150.mp4	0.0	312.6904261112213	0.10007190704345703
22	70.3575689792633	fix_pre	0		86.0	20.0	2.5	/experiments/knapen_aot/videos/S_yt-pO5SVq-9EhU_114.mp4	0.0	312.79049801826477	0.7166600227355957
22	71.06597709655762	response	0	2		20.0	2.5	/experiments/knapen_aot/videos/S_yt-pO5SVq-9EhU_114.mp4	0.0	313.4989061355591	
22	71.0742290019989	movie	1		301.0	20.0	2.5	/experiments/knapen_aot/videos/S_yt-pO5SVq-9EhU_114.mp4	0.0	313.50715804100037	2.5083110332489014
22	73.5825400352478	fix_post	2		12.0	20.0	2.5	/experiments/knapen_aot/videos/S_yt-pO5SVq-9EhU_114.mp4	0.0	316.01546907424927	0.1000070571899414
23	73.68254709243774	fix_pre	0		61.0	21.0	2.5	blank	1.0	316.1154761314392	0.5083069801330566
23	74.18266105651855	response	0	2		21.0	2.5	blank	1.0	316.61559009552	
23	74.1908540725708	movie	1		301.0	21.0	2.5	blank	1.0	316.62378311157227	2.5085089206695557
23	75.77430701255798	response	1	2		21.0	2.5	blank	1.0	318.20723605155945	
23	76.69936299324036	fix_post	2		12.0	21.0	2.5	blank	1.0	319.1322920322418	0.09985113143920898
24	76.79921412467957	fix_pre	0		21.0	22.0	2.5	/experiments/knapen_aot/videos/R_S_yt-VrEuTDQxtD0_226.mp4	0.0	319.23214316368103	0.17498993873596191
24	76.965989112854	response	0	2		22.0	2.5	/experiments/knapen_aot/videos/R_S_yt-VrEuTDQxtD0_226.mp4	0.0	319.39891815185547	
24	76.97420406341553	movie	1		301.0	22.0	2.5	/experiments/knapen_aot/videos/R_S_yt-VrEuTDQxtD0_226.mp4	0.0	319.407133102417	2.508357048034668
24	79.4825611114502	fix_post	2		12.0	22.0	2.5	/experiments/knapen_aot/videos/R_S_yt-VrEuTDQxtD0_226.mp4	0.0	321.91549015045166	0.0999000072479248
25	79.58246111869812	fix_pre	0		70.0	23.0	2.5	/experiments/knapen_aot/videos/R_S_ILSVRC2015_train_00303005.mp4	0.0	322.0153901576996	0.5841770172119141
25	80.15764594078064	response	0	2		23.0	2.5	/experiments/knapen_aot/videos/R_S_ILSVRC2015_train_00303005.mp4	0.0	322.5905749797821	
25	80.16663813591003	movie	1		301.0	23.0	2.5	/experiments/knapen_aot/videos/R_S_ILSVRC2015_train_00303005.mp4	0.0	322.5995671749115	2.5075910091400146
25	82.67422914505005	fix_post	2		12.0	23.0	2.5	/experiments/knapen_aot/videos/R_S_ILSVRC2015_train_00303005.mp4	0.0	325.1071581840515	0.09994888305664062
26	82.77417802810669	fix_pre	0		222.0	24.0	2.5	/experiments/knapen_aot/videos/S_yt-ZwnliF0525U_95.mp4	0.0	325.20710706710815	1.850740909576416
26	84.61595296859741	response	0	2		24.0	2.5	/experiments/knapen_aot/videos/S_yt-ZwnliF0525U_95.mp4	0.0	327.0488820075989	
26	84.6249189376831	movie	1		301.0	24.0	2.5	/experiments/knapen_aot/videos/S_yt-ZwnliF0525U_95.mp4	0.0	327.05784797668457	2.5075390338897705
26	87.13245797157288	fix_post	2		12.0	24.0	2.5	/experiments/knapen_aot/videos/S_yt-ZwnliF0525U_95.mp4	0.0	329.56538701057434	0.10006117820739746
27	87.23251914978027	fix_pre	0		50.0	25.0	2.5	/experiments/knapen_aot/videos/S_WCwb-DeQOSg_85.mp4	0.0	329.66544818878174	0.41664695739746094
27	87.64092206954956	response	0	2		25.0	2.5	/experiments/knapen_aot/videos/S_WCwb-DeQOSg_85.mp4	0.0	330.073851108551	
27	87.64916610717773	movie	1		301.0	25.0	2.5	/experiments/knapen_aot/videos/S_WCwb-DeQOSg_85.mp4	0.0	330.0820951461792	2.508352041244507
27	90.15751814842224	fix_post	2		12.0	25.0	2.5	/experiments/knapen_aot/videos/S_WCwb-DeQOSg_85.mp4	0.0	332.5904471874237	0.0999908447265625
28	90.2575089931488	fix_pre	0		191.0	26.0	2.5	/experiments/knapen_aot/videos/R_S_yt-VrEuTDQxtD0_226.mp4	0.0	332.69043803215027	1.591602087020874
28	91.84089207649231	response	0	2		26.0	2.5	/experiments/knapen_aot/videos/R_S_yt-VrEuTDQxtD0_226.mp4	0.0	334.2738211154938	
28	91.84911108016968	movie	1		301.0	26.0	2.5	/experiments/knapen_aot/videos/R_S_yt-VrEuTDQxtD0_226.mp4	0.0	334.28204011917114	2.508378028869629
28	94.3574891090393	fix_post	2		12.0	26.0	2.5	/experiments/knapen_aot/videos/R_S_yt-VrEuTDQxtD0_226.mp4	0.0	336.79041814804077	0.099884033203125
29	94.45737314224243	fix_pre	0		35.0	27.0	2.5	/experiments/knapen_aot/videos/R_S_yt-316ecr1BT84_44.mp4	0.0	336.8903021812439	0.29245996475219727
29	94.74093103408813	response	0	2		27.0	2.5	/experiments/knapen_aot/videos/R_S_yt-316ecr1BT84_44.mp4	0.0	337.1738600730896	
29	94.74983310699463	movie	1		301.0	27.0	2.5	/experiments/knapen_aot/videos/R_S_yt-316ecr1BT84_44.mp4	0.0	337.1827621459961	2.5076420307159424
29	97.25747513771057	fix_post	2		12.0	27.0	2.5	/experiments/knapen_aot/videos/R_S_yt-316ecr1BT84_44.mp4	0.0	339.69040417671204	0.0999898910522461
30	97.35746502876282	fix_pre	0		117.0	28.0	2.5	blank	1.0	339.7903940677643	0.9756879806518555
30	98.32425713539124	response	0	2		28.0	2.5	blank	1.0	340.7571861743927	
30	98.33315300941467	movie	1		301.0	28.0	2.5	blank	1.0	340.76608204841614	2.507636070251465
30	100.84078907966614	fix_post	2		12.0	28.0	2.5	blank	1.0	343.2737181186676	0.09993195533752441
31	100.94072103500366	fix_pre	0		39.0	29.0	2.5	/experiments/knapen_aot/videos/R_S_yt-uSHBdUi8_V0_24.mp4	0.0	343.3736500740051	0.3250730037689209
31	101.25758814811707	response	0	2		29.0	2.5	/experiments/knapen_aot/videos/R_S_yt-uSHBdUi8_V0_24.mp4	0.0	343.69051718711853	
31	101.26579403877258	movie	1		298.0	29.0	2.5	/experiments/knapen_aot/videos/R_S_yt-uSHBdUi8_V0_24.mp4	0.0	343.69872307777405	2.5083770751953125
31	103.7741711139679	fix_post	2		12.0	29.0	2.5	/experiments/knapen_aot/videos/R_S_yt-uSHBdUi8_V0_24.mp4	0.0	346.20710015296936	0.09998583793640137
32	103.8741569519043	fix_pre	0		18.0	30.0	2.5	/experiments/knapen_aot/videos/S_yt-Ev39pXXfr1Y_152.mp4	0.0	346.30708599090576	0.14999914169311523
32	104.00838804244995	response	0	2		30.0	2.5	/experiments/knapen_aot/videos/S_yt-Ev39pXXfr1Y_152.mp4	0.0	346.4413170814514	
32	104.02415609359741	movie	1		301.0	30.0	2.5	/experiments/knapen_aot/videos/S_yt-Ev39pXXfr1Y_152.mp4	0.0	346.4570851325989	2.5083069801330566
32	106.53246307373047	fix_post	2		12.0	30.0	2.5	/experiments/knapen_aot/videos/S_yt-Ev39pXXfr1Y_152.mp4	0.0	348.96539211273193	0.10001587867736816
33	106.63247895240784	fix_pre	0		168.0	31.0	2.5	/experiments/knapen_aot/videos/R_S_yt-XY1n_Oze1kQ_9.mp4	0.0	349.0654079914093	1.3999130725860596
33	108.02419996261597	response	0	2		31.0	2.5	/experiments/knapen_aot/videos/R_S_yt-XY1n_Oze1kQ_9.mp4	0.0	350.45712900161743	
33	108.0323920249939	movie	1		301.0	31.0	2.5	/experiments/knapen_aot/videos/R_S_yt-XY1n_Oze1kQ_9.mp4	0.0	350.46532106399536	2.508388042449951
33	110.54078006744385	fix_post	2		12.0	31.0	2.5	/experiments/knapen_aot/videos/R_S_yt-XY1n_Oze1kQ_9.mp4	0.0	352.9737091064453	0.0999910831451416
34	110.64077115058899	fix_pre	0		23.0	32.0	2.5	/experiments/knapen_aot/videos/R_S_yt-iHmshS63rBc_329.mp4	0.0	353.07370018959045	0.19227385520935059
34	110.82421493530273	response	0	2		32.0	2.5	/experiments/knapen_aot/videos/R_S_yt-iHmshS63rBc_329.mp4	0.0	353.2571439743042	
34	110.83304500579834	movie	1		300.0	32.0	2.5	/experiments/knapen_aot/videos/R_S_yt-iHmshS63rBc_329.mp4	0.0	353.2659740447998	2.507683038711548
34	113.34072804450989	fix_post	2		12.0	32.0	2.5	/experiments/knapen_aot/videos/R_S_yt-iHmshS63rBc_329.mp4	0.0	355.77365708351135	0.10003995895385742
35	113.44076800346375	fix_pre	0		18.0	33.0	2.5	/experiments/knapen_aot/videos/R_S_yt-K_gHa2x2OQA_319.mp4	0.0	355.8736970424652	0.1499769687652588
35	113.58256411552429	response	0	2		33.0	2.5	/experiments/knapen_aot/videos/R_S_yt-K_gHa2x2OQA_319.mp4	0.0	356.01549315452576	
35	113.590744972229	movie	1		301.0	33.0	2.5	/experiments/knapen_aot/videos/R_S_yt-K_gHa2x2OQA_319.mp4	0.0	356.02367401123047	2.508347988128662
35	116.09909296035767	fix_post	2		12.0	33.0	2.5	/experiments/knapen_aot/videos/R_S_yt-K_gHa2x2OQA_319.mp4	0.0	358.53202199935913	0.0999751091003418
36	116.19906806945801	fix_pre	0		100.0	34.0	2.5	blank	1.0	358.6319971084595	0.8333649635314941
36	117.02416491508484	response	0	2		34.0	2.5	blank	1.0	359.4570939540863	
36	117.0324330329895	movie	1		301.0	34.0	2.5	blank	1.0	359.46536207199097	2.5082650184631348
36	119.54069805145264	fix_post	2		12.0	34.0	2.5	blank	1.0	361.9736270904541	0.09996199607849121
37	119.64066004753113	fix_pre	0		73.0	35.0	2.5	/experiments/knapen_aot/videos/R_S_yt-YeT4acsbqok_210.mp4	0.0	362.0735890865326	0.608875036239624
37	120.24081611633301	response	0	2		35.0	2.5	/experiments/knapen_aot/videos/R_S_yt-YeT4acsbqok_210.mp4	0.0	362.6737451553345	
37	120.24953508377075	movie	1		301.0	35.0	2.5	/experiments/knapen_aot/videos/R_S_yt-YeT4acsbqok_210.mp4	0.0	362.6824641227722	2.50785493850708
37	122.75739002227783	fix_post	2		12.0	35.0	2.5	/experiments/knapen_aot/videos/R_S_yt-YeT4acsbqok_210.mp4	0.0	365.1903190612793	0.09995698928833008
38	122.85734701156616	fix_pre	0		58.0	36.0	2.5	/experiments/knapen_aot/videos/R_S_yt-IC62JSYpq9w_71.mp4	0.0	365.2902760505676	0.4833030700683594
38	123.33243799209595	response	0	2		36.0	2.5	/experiments/knapen_aot/videos/R_S_yt-IC62JSYpq9w_71.mp4	0.0	365.7653670310974	
38	123.34065008163452	movie	1		301.0	36.0	2.5	/experiments/knapen_aot/videos/R_S_yt-IC62JSYpq9w_71.mp4	0.0	365.773579120636	2.5083608627319336
38	125.84901094436646	fix_post	2		12.0	36.0	2.5	/experiments/knapen_aot/videos/R_S_yt-IC62JSYpq9w_71.mp4	0.0	368.2819399833679	0.09997701644897461
39	125.94898796081543	fix_pre	0		229.0	37.0	2.5	/experiments/knapen_aot/videos/R_S_ILSVRC2015_train_00743005.mp4	0.0	368.3819169998169	1.9083101749420166
39	127.8491530418396	response	0	2		37.0	2.5	/experiments/knapen_aot/videos/R_S_ILSVRC2015_train_00743005.mp4	0.0	370.28208208084106	
39	127.85729813575745	movie	1		301.0	37.0	2.5	/experiments/knapen_aot/videos/R_S_ILSVRC2015_train_00743005.mp4	0.0	370.2902271747589	2.508316993713379
39	130.36561512947083	fix_post	2		12.0	37.0	2.5	/experiments/knapen_aot/videos/R_S_ILSVRC2015_train_00743005.mp4	0.0	372.7985441684723	0.10008502006530762
40	130.46570014953613	fix_pre	0		264.0	38.0	2.5	/experiments/knapen_aot/videos/R_S_production_ID_4124475.mp4	0.0	372.8986291885376	2.200408935546875
40	132.65747499465942	response	0	2		38.0	2.5	/experiments/knapen_aot/videos/R_S_production_ID_4124475.mp4	0.0	375.0904040336609	
40	132.666109085083	movie	1		173.0	38.0	2.5	/experiments/knapen_aot/videos/R_S_production_ID_4124475.mp4	0.0	375.0990381240845	2.5078959465026855
40	135.1740050315857	fix_post	2		12.0	38.0	2.5	/experiments/knapen_aot/videos/R_S_production_ID_4124475.mp4	0.0	377.60693407058716	0.09999394416809082
41	135.27399897575378	fix_pre	0		148.0	39.0	2.5	/experiments/knapen_aot/videos/S_ILSVRC2015_train_00441000.mp4	0.0	377.70692801475525	1.233232021331787
41	136.49906706809998	response	0	2		39.0	2.5	/experiments/knapen_aot/videos/S_ILSVRC2015_train_00441000.mp4	0.0	378.93199610710144	
41	136.50723099708557	movie	1		301.0	39.0	2.5	/experiments/knapen_aot/videos/S_ILSVRC2015_train_00441000.mp4	0.0	378.94016003608704	2.5083279609680176
41	139.0155589580536	fix_post	2		12.0	39.0	2.5	/experiments/knapen_aot/videos/S_ILSVRC2015_train_00441000.mp4	0.0	381.44848799705505	0.10006117820739746
42	139.115620136261	fix_pre	0		45.0	40.0	2.5	blank	1.0	381.54854917526245	0.37494993209838867
42	139.4824149608612	response	0	2		40.0	2.5	blank	1.0	381.91534399986267	
42	139.49057006835938	movie	1		301.0	40.0	2.5	blank	1.0	381.92349910736084	2.5083868503570557
42	141.2240080833435	response	1	2		40.0	2.5	blank	1.0	383.65693712234497	
42	141.99895691871643	fix_post	2		12.0	40.0	2.5	blank	1.0	384.4318859577179	0.09998917579650879
43	142.09894609451294	fix_pre	0		43.0	41.0	2.5	/experiments/knapen_aot/videos/R_S_yt-AOP7QYQntPI_28.mp4	0.0	384.5318751335144	0.3587770462036133
43	142.44904899597168	response	0	2		41.0	2.5	/experiments/knapen_aot/videos/R_S_yt-AOP7QYQntPI_28.mp4	0.0	384.88197803497314	
43	142.45772314071655	movie	1		301.0	41.0	2.5	/experiments/knapen_aot/videos/R_S_yt-AOP7QYQntPI_28.mp4	0.0	384.890652179718	2.507887840270996
43	144.96561098098755	fix_post	2		12.0	41.0	2.5	/experiments/knapen_aot/videos/R_S_yt-AOP7QYQntPI_28.mp4	0.0	387.398540019989	0.10002708435058594
44	145.06563806533813	fix_pre	0		97.0	42.0	2.5	/experiments/knapen_aot/videos/S_ILSVRC2015_train_00457000.mp4	0.0	387.4985671043396	0.8087379932403564
44	145.86572098731995	response	0	2		42.0	2.5	/experiments/knapen_aot/videos/S_ILSVRC2015_train_00457000.mp4	0.0	388.2986500263214	
44	145.8743760585785	movie	1		297.0	42.0	2.5	/experiments/knapen_aot/videos/S_ILSVRC2015_train_00457000.mp4	0.0	388.30730509757996	2.507888078689575
44	148.38226413726807	fix_post	2		12.0	42.0	2.5	/experiments/knapen_aot/videos/S_ILSVRC2015_train_00457000.mp4	0.0	390.81519317626953	0.09997987747192383
45	148.48224401474	fix_pre	0		135.0	43.0	2.5	/experiments/knapen_aot/videos/S_ILSVRC2015_train_00423000.mp4	0.0	390.91517305374146	1.1249489784240723
45	149.59900093078613	response	0	2		43.0	2.5	/experiments/knapen_aot/videos/S_ILSVRC2015_train_00423000.mp4	0.0	392.0319299697876	
45	149.60719299316406	movie	1		301.0	43.0	2.5	/experiments/knapen_aot/videos/S_ILSVRC2015_train_00423000.mp4	0.0	392.0401220321655	2.508296012878418
45	152.11548900604248	fix_post	2		12.0	43.0	2.5	/experiments/knapen_aot/videos/S_ILSVRC2015_train_00423000.mp4	0.0	394.54841804504395	0.10008692741394043
46	152.21557593345642	fix_pre	0		245.0	44.0	2.5	/experiments/knapen_aot/videos/R_S_bing-www_dailymotion_com_video_x64hzm7_8.mp4	0.0	394.6485049724579	2.0416371822357178
46	154.24904704093933	response	0	2		44.0	2.5	/experiments/knapen_aot/videos/R_S_bing-www_dailymotion_com_video_x64hzm7_8.mp4	0.0	396.6819760799408	
46	154.25721311569214	movie	1		165.0	44.0	2.5	/experiments/knapen_aot/videos/R_S_bing-www_dailymotion_com_video_x64hzm7_8.mp4	0.0	396.6901421546936	2.508392810821533
46	156.76560592651367	fix_post	2		12.0	44.0	2.5	/experiments/knapen_aot/videos/R_S_bing-www_dailymotion_com_video_x64hzm7_8.mp4	0.0	399.19853496551514	0.09999299049377441
47	156.86559891700745	fix_pre	0		29.0	45.0	2.5	/experiments/knapen_aot/videos/S_yt-VrEuTDQxtD0_226.mp4	0.0	399.2985279560089	0.24162721633911133
47	157.09896898269653	response	0	2		45.0	2.5	/experiments/knapen_aot/videos/S_yt-VrEuTDQxtD0_226.mp4	0.0	399.531898021698	
47	157.10722613334656	movie	1		301.0	45.0	2.5	/experiments/knapen_aot/videos/S_yt-VrEuTDQxtD0_226.mp4	0.0	399.540155172348	2.508330821990967
47	159.61555695533752	fix_post	2		12.0	45.0	2.5	/experiments/knapen_aot/videos/S_yt-VrEuTDQxtD0_226.mp4	0.0	402.048485994339	0.10004210472106934
48	159.7155990600586	fix_pre	0		214.0	46.0	2.5	/experiments/knapen_aot/videos/R_S_yt-rPYBHkUEwwc_10.mp4	0.0	402.14852809906006	1.7836010456085205
48	161.48314309120178	response	0	2		46.0	2.5	/experiments/knapen_aot/videos/R_S_yt-rPYBHkUEwwc_10.mp4	0.0	403.91607213020325	
48	161.49920010566711	movie	1		301.0	46.0	2.5	/experiments/knapen_aot/videos/R_S_yt-rPYBHkUEwwc_10.mp4	0.0	403.9321291446686	2.5079479217529297
48	164.00714802742004	fix_post	2		12.0	46.0	2.5	/experiments/knapen_aot/videos/R_S_yt-rPYBHkUEwwc_10.mp4	0.0	406.4400770664215	0.10003304481506348
49	164.1071810722351	fix_pre	0		39.0	47.0	2.5	/experiments/knapen_aot/videos/R_S_yt-V4Oosy-ZtGY_193.mp4	0.0	406.5401101112366	0.3249969482421875
49	164.42394495010376	response	0	2		47.0	2.5	/experiments/knapen_aot/videos/R_S_yt-V4Oosy-ZtGY_193.mp4	0.0	406.8568739891052	
49	164.4321780204773	movie	1		300.0	47.0	2.5	/experiments/knapen_aot/videos/R_S_yt-V4Oosy-ZtGY_193.mp4	0.0	406.86510705947876	2.5082221031188965
49	166.9404001235962	fix_post	2		12.0	47.0	2.5	/experiments/knapen_aot/videos/R_S_yt-V4Oosy-ZtGY_193.mp4	0.0	409.37332916259766	0.10044980049133301
50	167.04084992408752	fix_pre	0		138.0	48.0	2.5	/experiments/knapen_aot/videos/S_yt-e_eOzV7qMZo_374.mp4	0.0	409.473778963089	1.1496021747589111
50	168.18228197097778	response	0	2		48.0	2.5	/experiments/knapen_aot/videos/S_yt-e_eOzV7qMZo_374.mp4	0.0	410.61521100997925	
50	168.19045209884644	movie	1		301.0	48.0	2.5	/experiments/knapen_aot/videos/S_yt-e_eOzV7qMZo_374.mp4	0.0	410.6233811378479	2.5083320140838623
50	170.6987841129303	fix_post	2		12.0	48.0	2.5	/experiments/knapen_aot/videos/S_yt-e_eOzV7qMZo_374.mp4	0.0	413.13171315193176	0.10003185272216797
51	170.79881596565247	fix_pre	0		47.0	49.0	2.5	blank	1.0	413.23174500465393	0.39160895347595215
51	171.1822259426117	response	0	2		49.0	2.5	blank	1.0	413.61515498161316	
51	171.19042491912842	movie	1		301.0	49.0	2.5	blank	1.0	413.6233539581299	2.5083961486816406
51	173.69882106781006	fix_post	2		12.0	49.0	2.5	blank	1.0	416.1317501068115	0.09996795654296875
52	173.79878902435303	fix_pre	0		45.0	50.0	2.5	/experiments/knapen_aot/videos/R_S_yt-YFl_NAWBFAw_166.mp4	0.0	416.2317180633545	0.37497591972351074
52	174.16555905342102	response	0	2		50.0	2.5	/experiments/knapen_aot/videos/R_S_yt-YFl_NAWBFAw_166.mp4	0.0	416.5984880924225	
52	174.17376494407654	movie	1		301.0	50.0	2.5	/experiments/knapen_aot/videos/R_S_yt-YFl_NAWBFAw_166.mp4	0.0	416.606693983078	2.5083541870117188
52	176.68211913108826	fix_post	2		12.0	50.0	2.5	/experiments/knapen_aot/videos/R_S_yt-YFl_NAWBFAw_166.mp4	0.0	419.1150481700897	0.0999000072479248
53	176.78201913833618	fix_pre	0		103.0	51.0	2.5	/experiments/knapen_aot/videos/R_S_flickr-53807584@N00-5566422012_16.mp4	0.0	419.21494817733765	0.8584167957305908
53	177.6321051120758	response	0	2		51.0	2.5	/experiments/knapen_aot/videos/R_S_flickr-53807584@N00-5566422012_16.mp4	0.0	420.06503415107727	
53	177.64043593406677	movie	1		301.0	51.0	2.5	/experiments/knapen_aot/videos/R_S_flickr-53807584@N00-5566422012_16.mp4	0.0	420.07336497306824	2.5083580017089844
53	180.14879393577576	fix_post	2		12.0	51.0	2.5	/experiments/knapen_aot/videos/R_S_flickr-53807584@N00-5566422012_16.mp4	0.0	422.5817229747772	0.10022997856140137
54	180.24902391433716	fix_pre	0		56.0	52.0	2.5	/experiments/knapen_aot/videos/R_S_yt-mJzkLd3Mr_c_35.mp4	0.0	422.6819529533386	0.46639323234558105
54	180.70719504356384	response	0	2		52.0	2.5	/experiments/knapen_aot/videos/R_S_yt-mJzkLd3Mr_c_35.mp4	0.0	423.1401240825653	
54	180.71541714668274	movie	1		301.0	52.0	2.5	/experiments/knapen_aot/videos/R_S_yt-mJzkLd3Mr_c_35.mp4	0.0	423.1483461856842	2.5083677768707275
54	183.22378492355347	fix_post	2		12.0	52.0	2.5	/experiments/knapen_aot/videos/R_S_yt-mJzkLd3Mr_c_35.mp4	0.0	425.65671396255493	0.09991312026977539
55	183.32369804382324	fix_pre	0		64.0	53.0	2.5	/experiments/knapen_aot/videos/R_S_yt-hHdxZ26SImA_17.mp4	0.0	425.7566270828247	0.5333600044250488
55	183.84891295433044	response	0	2		53.0	2.5	/experiments/knapen_aot/videos/R_S_yt-hHdxZ26SImA_17.mp4	0.0	426.2818419933319	
55	183.8570580482483	movie	1		301.0	53.0	2.5	/experiments/knapen_aot/videos/R_S_yt-hHdxZ26SImA_17.mp4	0.0	426.28998708724976	2.5082719326019287
55	186.36532998085022	fix_post	2		12.0	53.0	2.5	/experiments/knapen_aot/videos/R_S_yt-hHdxZ26SImA_17.mp4	0.0	428.7982590198517	0.10010910034179688
56	186.46543908119202	fix_pre	0		201.0	54.0	2.5	/experiments/knapen_aot/videos/S_comp_DB_D001_C001_PSNK_v06_SDR_PS_20180824_SDR_2K_AVC.mp4	0.0	428.8983681201935	1.6749060153961182
56	188.1321530342102	response	0	2		54.0	2.5	/experiments/knapen_aot/videos/S_comp_DB_D001_C001_PSNK_v06_SDR_PS_20180824_SDR_2K_AVC.mp4	0.0	430.56508207321167	
56	188.14034509658813	movie	1		166.0	54.0	2.5	/experiments/knapen_aot/videos/S_comp_DB_D001_C001_PSNK_v06_SDR_PS_20180824_SDR_2K_AVC.mp4	0.0	430.5732741355896	2.508419990539551
56	190.64876508712769	fix_post	2		12.0	54.0	2.5	/experiments/knapen_aot/videos/S_comp_DB_D001_C001_PSNK_v06_SDR_PS_20180824_SDR_2K_AVC.mp4	0.0	433.08169412612915	0.10023283958435059
57	190.74899792671204	fix_pre	0		48.0	55.0	2.5	/experiments/knapen_aot/videos/R_S_ILSVRC2015_train_00689000.mp4	0.0	433.1819269657135	0.39972519874572754
57	191.1406490802765	response	0	2		55.0	2.5	/experiments/knapen_aot/videos/R_S_ILSVRC2015_train_00689000.mp4	0.0	433.57357811927795	
57	191.14872312545776	movie	1		301.0	55.0	2.5	/experiments/knapen_aot/videos/R_S_ILSVRC2015_train_00689000.mp4	0.0	433.58165216445923	2.508368968963623
57	193.6570920944214	fix_post	2		12.0	55.0	2.5	/experiments/knapen_aot/videos/R_S_ILSVRC2015_train_00689000.mp4	0.0	436.09002113342285	0.09999489784240723
58	193.7570869922638	fix_pre	0		71.0	56.0	2.5	blank	1.0	436.19001603126526	0.5916531085968018
58	194.34051203727722	response	0	2		56.0	2.5	blank	1.0	436.7734410762787	
58	194.3487401008606	movie	1		301.0	56.0	2.5	blank	1.0	436.78166913986206	2.5083529949188232
58	196.85709309577942	fix_post	2		12.0	56.0	2.5	blank	1.0	439.2900221347809	0.10018682479858398
59	196.957279920578	fix_pre	0		54.0	57.0	2.5	/experiments/knapen_aot/videos/S_yt-QqSceHxY3d0_356.mp4	0.0	439.39020895957947	0.4497640132904053
59	197.39880514144897	response	0	2		57.0	2.5	/experiments/knapen_aot/videos/S_yt-QqSceHxY3d0_356.mp4	0.0	439.83173418045044	
59	197.4070439338684	movie	1		301.0	57.0	2.5	/experiments/knapen_aot/videos/S_yt-QqSceHxY3d0_356.mp4	0.0	439.8399729728699	2.508540153503418
59	199.91558408737183	fix_post	2		12.0	57.0	2.5	/experiments/knapen_aot/videos/S_yt-QqSceHxY3d0_356.mp4	0.0	442.3485131263733	0.09975504875183105
60	200.01533913612366	fix_pre	0		160.0	58.0	2.5	/experiments/knapen_aot/videos/S_yt-QqSceHxY3d0_356.mp4	0.0	442.4482681751251	1.3333499431610107
60	201.34050107002258	response	0	2		58.0	2.5	/experiments/knapen_aot/videos/S_yt-QqSceHxY3d0_356.mp4	0.0	443.77343010902405	
60	201.34868907928467	movie	1		299.0	58.0	2.5	/experiments/knapen_aot/videos/S_yt-QqSceHxY3d0_356.mp4	0.0	443.78161811828613	2.5082778930664062
60	203.85696697235107	fix_post	2		12.0	58.0	2.5	/experiments/knapen_aot/videos/S_yt-QqSceHxY3d0_356.mp4	0.0	446.28989601135254	0.10022997856140137
61	203.95719695091248	fix_pre	0		31.0	59.0	2.5	/experiments/knapen_aot/videos/R_S_yt-GWlwb2QsxIA_48.mp4	0.0	446.39012598991394	0.2581651210784912
61	204.20717406272888	response	0	2		59.0	2.5	/experiments/knapen_aot/videos/R_S_yt-GWlwb2QsxIA_48.mp4	0.0	446.64010310173035	
61	204.21536207199097	movie	1		301.0	59.0	2.5	/experiments/knapen_aot/videos/R_S_yt-GWlwb2QsxIA_48.mp4	0.0	446.64829111099243	2.508301019668579
61	206.72366309165955	fix_post	2		12.0	59.0	2.5	/experiments/knapen_aot/videos/R_S_yt-GWlwb2QsxIA_48.mp4	0.0	449.156592130661	0.10006284713745117
62	206.823725938797	fix_pre	0		65.0	60.0	2.5	/experiments/knapen_aot/videos/S_yt-wVMhACNFF-M_154.mp4	0.0	449.25665497779846	0.5416111946105957
62	207.3571379184723	response	0	2		60.0	2.5	/experiments/knapen_aot/videos/S_yt-wVMhACNFF-M_154.mp4	0.0	449.79006695747375	
62	207.3653371334076	movie	1		301.0	60.0	2.5	/experiments/knapen_aot/videos/S_yt-wVMhACNFF-M_154.mp4	0.0	449.79826617240906	2.5084519386291504
62	209.87378907203674	fix_post	2		12.0	60.0	2.5	/experiments/knapen_aot/videos/S_yt-wVMhACNFF-M_154.mp4	0.0	452.3067181110382	0.09989190101623535
63	209.97368097305298	fix_pre	0		164.0	61.0	2.5	/experiments/knapen_aot/videos/R_S_yt-XPRNMelf5Fs_235.mp4	0.0	452.40661001205444	1.3666491508483887
63	211.33223009109497	response	0	2		61.0	2.5	/experiments/knapen_aot/videos/R_S_yt-XPRNMelf5Fs_235.mp4	0.0	453.76515913009644	
63	211.34033012390137	movie	1		301.0	61.0	2.5	/experiments/knapen_aot/videos/R_S_yt-XPRNMelf5Fs_235.mp4	0.0	453.77325916290283	2.5082948207855225
63	213.8486249446869	fix_post	2		12.0	61.0	2.5	/experiments/knapen_aot/videos/R_S_yt-XPRNMelf5Fs_235.mp4	0.0	456.28155398368835	0.10005712509155273
64	213.94868206977844	fix_pre	0		153.0	62.0	2.5	blank	1.0	456.3816111087799	1.2749738693237305
64	215.20787596702576	response	0	2		62.0	2.5	blank	1.0	457.6408050060272	
64	215.22365593910217	movie	1		300.0	62.0	2.5	blank	1.0	457.65658497810364	2.500110149383545
64	217.71540904045105	response	1	2		62.0	2.5	blank	1.0	460.1483380794525	
64	217.72376608848572	fix_post	2		13.0	62.0	2.5	blank	1.0	460.1566951274872	0.108306884765625
65	217.83207297325134	fix_pre	0		47.0	63.0	2.5	/experiments/knapen_aot/videos/S_yt-y-boY803u9A_12.mp4	0.0	460.2650020122528	0.39154696464538574
65	218.2154381275177	response	0	2		63.0	2.5	/experiments/knapen_aot/videos/S_yt-y-boY803u9A_12.mp4	0.0	460.64836716651917	
65	218.22361993789673	movie	1		300.0	63.0	2.5	/experiments/knapen_aot/videos/S_yt-y-boY803u9A_12.mp4	0.0	460.6565489768982	2.508350133895874
65	220.7319700717926	fix_post	2		12.0	63.0	2.5	/experiments/knapen_aot/videos/S_yt-y-boY803u9A_12.mp4	0.0	463.16489911079407	0.10006403923034668
66	220.83203411102295	fix_pre	0		37.0	64.0	2.5	/experiments/knapen_aot/videos/R_S_ILSVRC2015_train_00423000.mp4	0.0	463.2649631500244	0.3082900047302246
66	221.13207411766052	response	0	2		64.0	2.5	/experiments/knapen_aot/videos/R_S_ILSVRC2015_train_00423000.mp4	0.0	463.565003156662	
66	221.14032411575317	movie	1		301.0	64.0	2.5	/experiments/knapen_aot/videos/R_S_ILSVRC2015_train_00423000.mp4	0.0	463.57325315475464	2.5081958770751953
66	223.64851999282837	fix_post	2		12.0	64.0	2.5	/experiments/knapen_aot/videos/R_S_ILSVRC2015_train_00423000.mp4	0.0	466.08144903182983	0.10008406639099121
67	223.74860405921936	fix_pre	0		102.0	65.0	2.5	/experiments/knapen_aot/videos/S_wc-oyG6AjP_W2EL_15.mp4	0.0	466.1815330982208	0.8499329090118408
67	224.59038996696472	response	0	2		65.0	2.5	/experiments/knapen_aot/videos/S_wc-oyG6AjP_W2EL_15.mp4	0.0	467.0233190059662	
67	224.5985369682312	movie	1		301.0	65.0	2.5	/experiments/knapen_aot/videos/S_wc-oyG6AjP_W2EL_15.mp4	0.0	467.03146600723267	2.5083441734313965
67	227.1068811416626	fix_post	2		12.0	65.0	2.5	/experiments/knapen_aot/videos/S_wc-oyG6AjP_W2EL_15.mp4	0.0	469.53981018066406	0.10001993179321289
68	227.2069010734558	fix_pre	0		193.0	66.0	2.5	/experiments/knapen_aot/videos/S_yt-YeT4acsbqok_210.mp4	0.0	469.6398301124573	1.6082370281219482
68	228.80700492858887	response	0	2		66.0	2.5	/experiments/knapen_aot/videos/S_yt-YeT4acsbqok_210.mp4	0.0	471.23993396759033	
68	228.81513810157776	movie	1		301.0	66.0	2.5	/experiments/knapen_aot/videos/S_yt-YeT4acsbqok_210.mp4	0.0	471.2480671405792	2.5084128379821777
68	231.32355093955994	fix_post	2		12.0	66.0	2.5	/experiments/knapen_aot/videos/S_yt-YeT4acsbqok_210.mp4	0.0	473.7564799785614	0.10002803802490234
69	231.42357897758484	fix_pre	0		313.0	67.0	2.5	/experiments/knapen_aot/videos/R_S_bing-www_dailymotion_com_video_x64c56w_164.mp4	0.0	473.8565080165863	2.608222007751465
69	234.02359414100647	response	0	2		67.0	2.5	/experiments/knapen_aot/videos/R_S_bing-www_dailymotion_com_video_x64c56w_164.mp4	0.0	476.45652318000793	
69	234.0318009853363	movie	1		164.0	67.0	2.5	/experiments/knapen_aot/videos/R_S_bing-www_dailymotion_com_video_x64c56w_164.mp4	0.0	476.46473002433777	2.5083861351013184
69	236.54018712043762	fix_post	2		12.0	67.0	2.5	/experiments/knapen_aot/videos/R_S_bing-www_dailymotion_com_video_x64c56w_164.mp4	0.0	478.9731161594391	0.1000058650970459
70	236.64019298553467	fix_pre	0		120.0	68.0	2.5	/experiments/knapen_aot/videos/R_S_ILSVRC2015_train_00569002.mp4	0.0	479.07312202453613	1.0000121593475342
70	237.63190007209778	response	0	2		68.0	2.5	/experiments/knapen_aot/videos/R_S_ILSVRC2015_train_00569002.mp4	0.0	480.06482911109924	
70	237.6402051448822	movie	1		301.0	68.0	2.5	/experiments/knapen_aot/videos/R_S_ILSVRC2015_train_00569002.mp4	0.0	480.07313418388367	2.5082859992980957
70	240.1484911441803	fix_post	2		12.0	68.0	2.5	/experiments/knapen_aot/videos/R_S_ILSVRC2015_train_00569002.mp4	0.0	482.58142018318176	0.10000777244567871
71	240.24849891662598	fix_pre	0		121.0	69.0	2.5	blank	1.0	482.68142795562744	1.0083441734313965
71	241.24861311912537	response	0	2		69.0	2.5	blank	1.0	483.68154215812683	
71	241.25684309005737	movie	1		301.0	69.0	2.5	blank	1.0	483.68977212905884	2.508352041244507
71	243.76519513130188	fix_post	2		12.0	69.0	2.5	blank	1.0	486.19812417030334	0.09999489784240723
72	243.8651900291443	fix_pre	0		27.0	70.0	2.5	/experiments/knapen_aot/videos/S_yt-RKo978aBdzw_173.mp4	0.0	486.29811906814575	0.2249889373779297
72	244.0819160938263	response	0	2		70.0	2.5	/experiments/knapen_aot/videos/S_yt-RKo978aBdzw_173.mp4	0.0	486.51484513282776	
72	244.09017896652222	movie	1		301.0	70.0	2.5	/experiments/knapen_aot/videos/S_yt-RKo978aBdzw_173.mp4	0.0	486.5231080055237	2.508296012878418
72	246.59847497940063	fix_post	2		12.0	70.0	2.5	/experiments/knapen_aot/videos/S_yt-RKo978aBdzw_173.mp4	0.0	489.0314040184021	0.09993600845336914
73	246.698410987854	fix_pre	0		190.0	71.0	2.5	/experiments/knapen_aot/videos/S_yt-1RVw8p6Dw2Q_20.mp4	0.0	489.13134002685547	1.5833499431610107
73	248.27362608909607	response	0	2		71.0	2.5	/experiments/knapen_aot/videos/S_yt-1RVw8p6Dw2Q_20.mp4	0.0	490.70655512809753	
73	248.28176093101501	movie	1		301.0	71.0	2.5	/experiments/knapen_aot/videos/S_yt-1RVw8p6Dw2Q_20.mp4	0.0	490.7146899700165	2.5083770751953125
73	250.79013800621033	fix_post	2		12.0	71.0	2.5	/experiments/knapen_aot/videos/S_yt-1RVw8p6Dw2Q_20.mp4	0.0	493.2230670452118	0.10002493858337402
74	250.8901629447937	fix_pre	0		77.0	72.0	2.5	/experiments/knapen_aot/videos/R_S_yt-iO0efV_PV-k_102.mp4	0.0	493.32309198379517	0.6429259777069092
74	251.52356791496277	response	0	2		72.0	2.5	/experiments/knapen_aot/videos/R_S_yt-iO0efV_PV-k_102.mp4	0.0	493.95649695396423	
74	251.5330889225006	movie	1		301.0	72.0	2.5	/experiments/knapen_aot/videos/R_S_yt-iO0efV_PV-k_102.mp4	0.0	493.9660179615021	2.507042169570923
74	254.04013109207153	fix_post	2		12.0	72.0	2.5	/experiments/knapen_aot/videos/R_S_yt-iO0efV_PV-k_102.mp4	0.0	496.473060131073	0.10000300407409668
75	254.14013409614563	fix_pre	0		232.0	73.0	2.5	/experiments/knapen_aot/videos/S_yt-ZYrQIw9VUok_111.mp4	0.0	496.5730631351471	1.9332988262176514
75	256.06518602371216	response	0	2		73.0	2.5	/experiments/knapen_aot/videos/S_yt-ZYrQIw9VUok_111.mp4	0.0	498.4981150627136	
75	256.0734329223633	movie	1		301.0	73.0	2.5	/experiments/knapen_aot/videos/S_yt-ZYrQIw9VUok_111.mp4	0.0	498.50636196136475	2.5083491802215576
75	258.58178210258484	fix_post	2		12.0	73.0	2.5	/experiments/knapen_aot/videos/S_yt-ZYrQIw9VUok_111.mp4	0.0	501.0147111415863	0.09993886947631836
76	258.68172097206116	fix_pre	0		191.0	74.0	2.5	/experiments/knapen_aot/videos/R_S_yt-SgiTZNjCPCo_19.mp4	0.0	501.1146500110626	1.5916850566864014
76	260.2652270793915	response	0	2		74.0	2.5	/experiments/knapen_aot/videos/R_S_yt-SgiTZNjCPCo_19.mp4	0.0	502.69815611839294	
76	260.27340602874756	movie	1		301.0	74.0	2.5	/experiments/knapen_aot/videos/R_S_yt-SgiTZNjCPCo_19.mp4	0.0	502.706335067749	2.508413076400757
76	262.7818191051483	fix_post	2		12.0	74.0	2.5	/experiments/knapen_aot/videos/R_S_yt-SgiTZNjCPCo_19.mp4	0.0	505.2147481441498	0.09988784790039062
77	262.8817069530487	fix_pre	0		164.0	75.0	2.5	/experiments/knapen_aot/videos/S_yt-9T99N7Cvi_o_112.mp4	0.0	505.31463599205017	1.366671085357666
77	264.2401809692383	response	0	2		75.0	2.5	/experiments/knapen_aot/videos/S_yt-9T99N7Cvi_o_112.mp4	0.0	506.67311000823975	
77	264.2483780384064	movie	1		301.0	75.0	2.5	/experiments/knapen_aot/videos/S_yt-9T99N7Cvi_o_112.mp4	0.0	506.68130707740784	2.5084500312805176
77	266.7568280696869	fix_post	2		12.0	75.0	2.5	/experiments/knapen_aot/videos/S_yt-9T99N7Cvi_o_112.mp4	0.0	509.18975710868835	0.09989595413208008
78	266.85672402381897	fix_pre	0		223.0	76.0	2.5	blank	1.0	509.28965306282043	1.8583409786224365
78	268.70682191848755	response	0	2		76.0	2.5	blank	1.0	511.139750957489	
78	268.7150650024414	movie	1		301.0	76.0	2.5	blank	1.0	511.14799404144287	2.5083041191101074
78	271.2233691215515	fix_post	2		12.0	76.0	2.5	blank	1.0	513.656298160553	0.09991097450256348
79	271.3232800960541	fix_pre	0		138.0	77.0	2.5	/experiments/knapen_aot/videos/S_I003_C008_SDR_2K_AVC.mp4	0.0	513.7562091350555	1.1500868797302246
79	272.4651789665222	response	0	2		77.0	2.5	/experiments/knapen_aot/videos/S_I003_C008_SDR_2K_AVC.mp4	0.0	514.8981080055237	
79	272.4733669757843	movie	1		168.0	77.0	2.5	/experiments/knapen_aot/videos/S_I003_C008_SDR_2K_AVC.mp4	0.0	514.9062960147858	2.5083510875701904
79	274.9817180633545	fix_post	2		12.0	77.0	2.5	/experiments/knapen_aot/videos/S_I003_C008_SDR_2K_AVC.mp4	0.0	517.414647102356	0.1206519603729248
80	275.1023700237274	fix_pre	0		166.0	78.0	2.5	/experiments/knapen_aot/videos/R_S_bing-www_dailymotion_com_video_x64hzm7_8.mp4	0.0	517.5352990627289	1.388819932937622
80	276.4818251132965	response	0	2		78.0	2.5	/experiments/knapen_aot/videos/R_S_bing-www_dailymotion_com_video_x64hzm7_8.mp4	0.0	518.914754152298	
80	276.49118995666504	movie	1		167.0	78.0	2.5	/experiments/knapen_aot/videos/R_S_bing-www_dailymotion_com_video_x64hzm7_8.mp4	0.0	518.9241189956665	2.507328987121582
80	278.9985189437866	fix_post	2		12.0	78.0	2.5	/experiments/knapen_aot/videos/R_S_bing-www_dailymotion_com_video_x64hzm7_8.mp4	0.0	521.4314479827881	0.09986019134521484
81	279.09837913513184	fix_pre	0		13.0	79.0	2.5	/experiments/knapen_aot/videos/R_S_yt-be7r-ha8BpA_1045.mp4	0.0	521.5313081741333	0.1082909107208252
81	279.19850993156433	response	0	2		79.0	2.5	/experiments/knapen_aot/videos/R_S_yt-be7r-ha8BpA_1045.mp4	0.0	521.6314389705658	
81	279.20667004585266	movie	1		301.0	79.0	2.5	/experiments/knapen_aot/videos/R_S_yt-be7r-ha8BpA_1045.mp4	0.0	521.6395990848541	2.508347988128662
81	281.7150180339813	fix_post	2		12.0	79.0	2.5	/experiments/knapen_aot/videos/R_S_yt-be7r-ha8BpA_1045.mp4	0.0	524.1479470729828	0.10003399848937988
82	281.8150520324707	fix_pre	0		27.0	80.0	2.5	/experiments/knapen_aot/videos/S_yt-rY_ra5Tb9XU_51.mp4	0.0	524.2479810714722	0.22496509552001953
82	282.0318250656128	response	0	2		80.0	2.5	/experiments/knapen_aot/videos/S_yt-rY_ra5Tb9XU_51.mp4	0.0	524.4647541046143	
82	282.0400171279907	movie	1		301.0	80.0	2.5	/experiments/knapen_aot/videos/S_yt-rY_ra5Tb9XU_51.mp4	0.0	524.4729461669922	2.508335828781128
82	284.54835295677185	fix_post	2		12.0	80.0	2.5	/experiments/knapen_aot/videos/S_yt-rY_ra5Tb9XU_51.mp4	0.0	526.9812819957733	0.09997296333312988
83	284.648325920105	fix_pre	0		39.0	81.0	2.5	/experiments/knapen_aot/videos/R_S_b4-3.mp4	0.0	527.0812549591064	0.32503700256347656
83	284.96514201164246	response	0	2		81.0	2.5	/experiments/knapen_aot/videos/R_S_b4-3.mp4	0.0	527.3980710506439	
83	284.97336292266846	movie	1		164.0	81.0	2.5	/experiments/knapen_aot/videos/R_S_b4-3.mp4	0.0	527.4062919616699	2.5083301067352295
83	287.4816930294037	fix_post	2		12.0	81.0	2.5	/experiments/knapen_aot/videos/R_S_b4-3.mp4	0.0	529.9146220684052	0.09994792938232422
84	287.581640958786	fix_pre	0		23.0	82.0	2.5	/experiments/knapen_aot/videos/S_ILSVRC2015_train_00594001.mp4	0.0	530.0145699977875	0.19170498847961426
84	287.7650821208954	response	0	2		82.0	2.5	/experiments/knapen_aot/videos/S_ILSVRC2015_train_00594001.mp4	0.0	530.1980111598969	
84	287.7733459472656	movie	1		301.0	82.0	2.5	/experiments/knapen_aot/videos/S_ILSVRC2015_train_00594001.mp4	0.0	530.2062749862671	2.508352041244507
84	290.28169798851013	fix_post	2		12.0	82.0	2.5	/experiments/knapen_aot/videos/S_ILSVRC2015_train_00594001.mp4	0.0	532.7146270275116	0.09993696212768555
85	290.3816349506378	fix_pre	0		41.0	83.0	2.5	blank	1.0	532.8145639896393	0.3418099880218506
85	290.715115070343	response	0	2		83.0	2.5	blank	1.0	533.1480441093445	
85	290.72344493865967	movie	1		301.0	83.0	2.5	blank	1.0	533.1563739776611	2.50817608833313
85	293.2316210269928	fix_post	2		12.0	83.0	2.5	blank	1.0	535.6645500659943	0.0999460220336914
87	293.3315670490265	stim	0		210.0					535.764496088028	1.7501039505004883
87	293.5483911037445	response	0	2						535.981320142746	
87	295.07433700561523	response	0	space						537.5072660446167	
