trial_nr	onset	event_type	phase	response	nr_frames	movie_index	movie_duration	movie_file	blank	onset_abs	duration
0	0.13692092895507812	stim	0		56.0					102.09254574775696	0.4651830196380615
0	0.5921568870544434	response	0	space						102.54778170585632	
1	0.6021039485931396	stim	0		121.0					102.55772876739502	1.006274938583374
1	1.0750219821929932	response	0	space						103.03064680099487	
1	1.3752667903900146	response	0	space						103.3308916091919	
1	1.6083788871765137	stim	1		120.0					103.5640037059784	0.9995551109313965
1	1.709143877029419	response	1	space						103.6647686958313	
1	2.5088438987731934	response	1	space						104.46446871757507	
2	2.60793399810791	fix_pre	0		37.0	0.0	2.5	/experiments/knapen_aot/videos/R_S_yt-be7r-ha8BpA_1045.mp4	0.0	104.56355881690979	0.3083169460296631
2	2.9080278873443604	response	0	space		0.0	2.5	/experiments/knapen_aot/videos/R_S_yt-be7r-ha8BpA_1045.mp4	0.0	104.86365270614624	
2	2.9162509441375732	movie	1		301.0	0.0	2.5	/experiments/knapen_aot/videos/R_S_yt-be7r-ha8BpA_1045.mp4	0.0	104.87187576293945	2.5082550048828125
2	5.424505949020386	fix_post	2		12.0	0.0	2.5	/experiments/knapen_aot/videos/R_S_yt-be7r-ha8BpA_1045.mp4	0.0	107.38013076782227	0.1000359058380127
3	5.524541854858398	fix_pre	0		81.0	1.0	2.5	/experiments/knapen_aot/videos/S_ILSVRC2015_train_00044004.mp4	0.0	107.48016667366028	0.6749579906463623
3	6.193185806274414	response	0	2		1.0	2.5	/experiments/knapen_aot/videos/S_ILSVRC2015_train_00044004.mp4	0.0	108.1488106250763	
3	6.199499845504761	movie	1		301.0	1.0	2.5	/experiments/knapen_aot/videos/S_ILSVRC2015_train_00044004.mp4	0.0	108.15512466430664	2.5083930492401123
3	8.707892894744873	fix_post	2		12.0	1.0	2.5	/experiments/knapen_aot/videos/S_ILSVRC2015_train_00044004.mp4	0.0	110.66351771354675	0.10000801086425781
4	8.80790090560913	fix_pre	0		99.0	2.0	2.5	/experiments/knapen_aot/videos/R_S_yt-hOtj2y9VWrc_354.mp4	0.0	110.76352572441101	0.8249340057373047
4	9.624724864959717	response	0	2		2.0	2.5	/experiments/knapen_aot/videos/R_S_yt-hOtj2y9VWrc_354.mp4	0.0	111.5803496837616	
4	9.632834911346436	movie	1		297.0	2.0	2.5	/experiments/knapen_aot/videos/R_S_yt-hOtj2y9VWrc_354.mp4	0.0	111.58845973014832	2.5084779262542725
4	12.141312837600708	fix_post	2		12.0	2.0	2.5	/experiments/knapen_aot/videos/R_S_yt-hOtj2y9VWrc_354.mp4	0.0	114.09693765640259	0.09985709190368652
5	12.241169929504395	fix_pre	0		111.0	3.0	2.5	/experiments/knapen_aot/videos/S_yt-fja6A_3ys_w_116.mp4	0.0	114.19679474830627	0.9249858856201172
5	13.1580069065094	response	0	2		3.0	2.5	/experiments/knapen_aot/videos/S_yt-fja6A_3ys_w_116.mp4	0.0	115.11363172531128	
5	13.166155815124512	movie	1		301.0	3.0	2.5	/experiments/knapen_aot/videos/S_yt-fja6A_3ys_w_116.mp4	0.0	115.12178063392639	2.508341073989868
5	15.67449688911438	fix_post	2		12.0	3.0	2.5	/experiments/knapen_aot/videos/S_yt-fja6A_3ys_w_116.mp4	0.0	117.63012170791626	0.09997797012329102
6	15.774474859237671	fix_pre	0		95.0	4.0	2.5	/experiments/knapen_aot/videos/R_S_yt-fymgyhmYnMI_76.mp4	0.0	117.73009967803955	0.792431116104126
6	16.558013916015625	response	0	2		4.0	2.5	/experiments/knapen_aot/videos/R_S_yt-fymgyhmYnMI_76.mp4	0.0	118.5136387348175	
6	16.566905975341797	movie	1		301.0	4.0	2.5	/experiments/knapen_aot/videos/R_S_yt-fymgyhmYnMI_76.mp4	0.0	118.52253079414368	2.507598876953125
6	19.074504852294922	fix_post	2		12.0	4.0	2.5	/experiments/knapen_aot/videos/R_S_yt-fymgyhmYnMI_76.mp4	0.0	121.0301296710968	0.09998297691345215
7	19.174487829208374	fix_pre	0		104.0	5.0	2.5	/experiments/knapen_aot/videos/S_yt-lADkWM79teI_18.mp4	0.0	121.13011264801025	0.8666200637817383
7	20.033029794692993	response	0	2		5.0	2.5	/experiments/knapen_aot/videos/S_yt-lADkWM79teI_18.mp4	0.0	121.98865461349487	
7	20.041107892990112	movie	1		300.0	5.0	2.5	/experiments/knapen_aot/videos/S_yt-lADkWM79teI_18.mp4	0.0	121.99673271179199	2.5083770751953125
7	22.549484968185425	fix_post	2		12.0	5.0	2.5	/experiments/knapen_aot/videos/S_yt-lADkWM79teI_18.mp4	0.0	124.5051097869873	0.10072803497314453
8	22.65021300315857	fix_pre	0		86.0	6.0	2.5	blank	1.0	124.60583782196045	0.7158749103546143
8	23.357942819595337	response	0	2		6.0	2.5	blank	1.0	125.31356763839722	
8	23.366087913513184	movie	1		301.0	6.0	2.5	blank	1.0	125.32171273231506	2.5083539485931396
8	25.874441862106323	fix_post	2		12.0	6.0	2.5	blank	1.0	127.8300666809082	0.10004615783691406
9	25.974488019943237	fix_pre	0		96.0	7.0	2.5	/experiments/knapen_aot/videos/S_production_ID_5119260.mp4	0.0	127.93011283874512	0.8006229400634766
9	26.766223907470703	response	0	2		7.0	2.5	/experiments/knapen_aot/videos/S_production_ID_5119260.mp4	0.0	128.72184872627258	
9	26.775110960006714	movie	1		166.0	7.0	2.5	/experiments/knapen_aot/videos/S_production_ID_5119260.mp4	0.0	128.7307357788086	2.50764799118042
9	29.282758951187134	fix_post	2		12.0	7.0	2.5	/experiments/knapen_aot/videos/S_production_ID_5119260.mp4	0.0	131.238383769989	0.10009598731994629
10	29.38285493850708	fix_pre	0		101.0	8.0	2.5	/experiments/knapen_aot/videos/S_yt-Pinnv3-3GFU_452.mp4	0.0	131.33847975730896	0.8415670394897461
10	30.216279983520508	response	0	2		8.0	2.5	/experiments/knapen_aot/videos/S_yt-Pinnv3-3GFU_452.mp4	0.0	132.1719048023224	
10	30.224421977996826	movie	1		301.0	8.0	2.5	/experiments/knapen_aot/videos/S_yt-Pinnv3-3GFU_452.mp4	0.0	132.1800467967987	2.5083489418029785
10	32.732770919799805	fix_post	2		12.0	8.0	2.5	/experiments/knapen_aot/videos/S_yt-Pinnv3-3GFU_452.mp4	0.0	134.68839573860168	0.09994101524353027
11	32.832711935043335	fix_pre	0		95.0	9.0	2.5	/experiments/knapen_aot/videos/S_ILSVRC2015_test_00004002.mp4	0.0	134.78833675384521	0.7917070388793945
11	33.61624479293823	response	0	2		9.0	2.5	/experiments/knapen_aot/videos/S_ILSVRC2015_test_00004002.mp4	0.0	135.5718696117401	
11	33.62441897392273	movie	1		301.0	9.0	2.5	/experiments/knapen_aot/videos/S_ILSVRC2015_test_00004002.mp4	0.0	135.5800437927246	2.508430004119873
11	36.1328489780426	fix_post	2		12.0	9.0	2.5	/experiments/knapen_aot/videos/S_ILSVRC2015_test_00004002.mp4	0.0	138.08847379684448	0.09996986389160156
12	36.232818841934204	fix_pre	0		72.0	10.0	2.5	/experiments/knapen_aot/videos/R_S_yt-RNPFV7lgAvE_362.mp4	0.0	138.18844366073608	0.599931001663208
12	36.82457494735718	response	0	2		10.0	2.5	/experiments/knapen_aot/videos/R_S_yt-RNPFV7lgAvE_362.mp4	0.0	138.78019976615906	
12	36.83274984359741	movie	1		300.0	10.0	2.5	/experiments/knapen_aot/videos/R_S_yt-RNPFV7lgAvE_362.mp4	0.0	138.7883746623993	2.5083320140838623
12	39.341081857681274	fix_post	2		12.0	10.0	2.5	/experiments/knapen_aot/videos/R_S_yt-RNPFV7lgAvE_362.mp4	0.0	141.29670667648315	0.10009598731994629
13	39.44117784500122	fix_pre	0		79.0	11.0	2.5	/experiments/knapen_aot/videos/R_S_yt-bZfmqTZ-d2k_112.mp4	0.0	141.3968026638031	0.6582109928131104
13	40.0912139415741	response	0	2		11.0	2.5	/experiments/knapen_aot/videos/R_S_yt-bZfmqTZ-d2k_112.mp4	0.0	142.04683876037598	
13	40.09938883781433	movie	1		301.0	11.0	2.5	/experiments/knapen_aot/videos/R_S_yt-bZfmqTZ-d2k_112.mp4	0.0	142.0550136566162	2.50832200050354
13	42.60771083831787	fix_post	2		12.0	11.0	2.5	/experiments/knapen_aot/videos/R_S_yt-bZfmqTZ-d2k_112.mp4	0.0	144.56333565711975	0.0999290943145752
14	42.707639932632446	fix_pre	0		72.0	12.0	2.5	/experiments/knapen_aot/videos/S_yt-8N5UuN5WQcY_72.mp4	0.0	144.66326475143433	0.6001009941101074
14	43.29953193664551	response	0	2		12.0	2.5	/experiments/knapen_aot/videos/S_yt-8N5UuN5WQcY_72.mp4	0.0	145.2551567554474	
14	43.307740926742554	movie	1		300.0	12.0	2.5	/experiments/knapen_aot/videos/S_yt-8N5UuN5WQcY_72.mp4	0.0	145.26336574554443	2.5083720684051514
14	45.816112995147705	fix_post	2		12.0	12.0	2.5	/experiments/knapen_aot/videos/S_yt-8N5UuN5WQcY_72.mp4	0.0	147.77173781394958	0.09999394416809082
15	45.916106939315796	fix_pre	0		85.0	13.0	2.5	blank	1.0	147.87173175811768	0.7082240581512451
15	46.61616396903992	response	0	2		13.0	2.5	blank	1.0	148.5717887878418	
15	46.62433099746704	movie	1		301.0	13.0	2.5	blank	1.0	148.57995581626892	2.508405923843384
15	49.132736921310425	fix_post	2		12.0	13.0	2.5	blank	1.0	151.0883617401123	0.10059189796447754
16	49.2333288192749	fix_pre	0		103.0	14.0	2.5	/experiments/knapen_aot/videos/S_comp_A351_C001_v06_SDR_PS_20180725_SDR_2K_AVC.mp4	0.0	151.18895363807678	0.8577771186828613
16	50.082902908325195	response	0	2		14.0	2.5	/experiments/knapen_aot/videos/S_comp_A351_C001_v06_SDR_PS_20180725_SDR_2K_AVC.mp4	0.0	152.03852772712708	
16	50.091105937957764	movie	1		163.0	14.0	2.5	/experiments/knapen_aot/videos/S_comp_A351_C001_v06_SDR_PS_20180725_SDR_2K_AVC.mp4	0.0	152.04673075675964	2.5082590579986572
16	52.59936499595642	fix_post	2		12.0	14.0	2.5	/experiments/knapen_aot/videos/S_comp_A351_C001_v06_SDR_PS_20180725_SDR_2K_AVC.mp4	0.0	154.5549898147583	0.10006880760192871
17	52.69943380355835	fix_pre	0		108.0	15.0	2.5	/experiments/knapen_aot/videos/S_yt-RHPOCG1mII0_138.mp4	0.0	154.65505862236023	0.8999521732330322
17	53.59121584892273	response	0	2		15.0	2.5	/experiments/knapen_aot/videos/S_yt-RHPOCG1mII0_138.mp4	0.0	155.5468406677246	
17	53.59938597679138	movie	1		301.0	15.0	2.5	/experiments/knapen_aot/videos/S_yt-RHPOCG1mII0_138.mp4	0.0	155.55501079559326	2.508335828781128
17	56.10772180557251	fix_post	2		12.0	15.0	2.5	/experiments/knapen_aot/videos/S_yt-RHPOCG1mII0_138.mp4	0.0	158.0633466243744	0.10003304481506348
18	56.20775485038757	fix_pre	0		95.0	16.0	2.5	/experiments/knapen_aot/videos/S_yt-IXMtF998XFY_547.mp4	0.0	158.16337966918945	0.7915899753570557
18	56.99123001098633	response	0	2		16.0	2.5	/experiments/knapen_aot/videos/S_yt-IXMtF998XFY_547.mp4	0.0	158.9468548297882	
18	56.99934482574463	movie	1		301.0	16.0	2.5	/experiments/knapen_aot/videos/S_yt-IXMtF998XFY_547.mp4	0.0	158.9549696445465	2.508329153060913
18	59.50767397880554	fix_post	2		12.0	16.0	2.5	/experiments/knapen_aot/videos/S_yt-IXMtF998XFY_547.mp4	0.0	161.46329879760742	0.10055184364318848
19	59.60822582244873	fix_pre	0		117.0	17.0	2.5	/experiments/knapen_aot/videos/R_S_yt-J_FnFAl1uL0_143.mp4	0.0	161.5638506412506	0.9744510650634766
19	60.57457685470581	response	0	2		17.0	2.5	/experiments/knapen_aot/videos/R_S_yt-J_FnFAl1uL0_143.mp4	0.0	162.5302016735077	
19	60.58267688751221	movie	1		301.0	17.0	2.5	/experiments/knapen_aot/videos/R_S_yt-J_FnFAl1uL0_143.mp4	0.0	162.5383017063141	2.508350133895874
19	63.09102702140808	fix_post	2		12.0	17.0	2.5	/experiments/knapen_aot/videos/R_S_yt-J_FnFAl1uL0_143.mp4	0.0	165.04665184020996	0.0999917984008789
20	63.19101881980896	fix_pre	0		94.0	18.0	2.5	/experiments/knapen_aot/videos/S_yt-4r-oovk9JWg_85.mp4	0.0	165.14664363861084	0.7832880020141602
20	63.96615481376648	response	0	2		18.0	2.5	/experiments/knapen_aot/videos/S_yt-4r-oovk9JWg_85.mp4	0.0	165.92177963256836	
20	63.97430682182312	movie	1		301.0	18.0	2.5	/experiments/knapen_aot/videos/S_yt-4r-oovk9JWg_85.mp4	0.0	165.929931640625	2.508371114730835
20	66.48267793655396	fix_post	2		12.0	18.0	2.5	/experiments/knapen_aot/videos/S_yt-4r-oovk9JWg_85.mp4	0.0	168.43830275535583	0.10002803802490234
21	66.58270597457886	fix_pre	0		116.0	19.0	2.5	blank	1.0	168.53833079338074	0.9666218757629395
21	67.54114389419556	response	0	2		19.0	2.5	blank	1.0	169.49676871299744	
21	67.5493278503418	movie	1		301.0	19.0	2.5	blank	1.0	169.50495266914368	2.5083630084991455
21	70.05769085884094	fix_post	2		12.0	19.0	2.5	blank	1.0	172.01331567764282	0.10001301765441895
22	70.15770387649536	fix_pre	0		54.0	20.0	2.5	/experiments/knapen_aot/videos/R_S_production_ID_4101309.mp4	0.0	172.11332869529724	0.45042896270751953
22	70.59190702438354	response	0	2		20.0	2.5	/experiments/knapen_aot/videos/R_S_production_ID_4101309.mp4	0.0	172.54753184318542	
22	70.60813283920288	movie	1		189.0	20.0	2.5	/experiments/knapen_aot/videos/R_S_production_ID_4101309.mp4	0.0	172.56375765800476	2.507833957672119
22	73.115966796875	fix_post	2		12.0	20.0	2.5	/experiments/knapen_aot/videos/R_S_production_ID_4101309.mp4	0.0	175.07159161567688	0.10002899169921875
23	73.21599578857422	fix_pre	0		85.0	21.0	2.5	/experiments/knapen_aot/videos/R_S_yt-J_FnFAl1uL0_143.mp4	0.0	175.1716206073761	0.7083020210266113
23	73.91611981391907	response	0	2		21.0	2.5	/experiments/knapen_aot/videos/R_S_yt-J_FnFAl1uL0_143.mp4	0.0	175.87174463272095	
23	73.92429780960083	movie	1		301.0	21.0	2.5	/experiments/knapen_aot/videos/R_S_yt-J_FnFAl1uL0_143.mp4	0.0	175.8799226284027	2.5083160400390625
23	76.43261384963989	fix_post	2		12.0	21.0	2.5	/experiments/knapen_aot/videos/R_S_yt-J_FnFAl1uL0_143.mp4	0.0	178.38823866844177	0.10004210472106934
24	76.53265595436096	fix_pre	0		81.0	22.0	2.5	/experiments/knapen_aot/videos/R_S_ILSVRC2015_train_00278004.mp4	0.0	178.48828077316284	0.674968957901001
24	77.19191694259644	response	0	2		22.0	2.5	/experiments/knapen_aot/videos/R_S_ILSVRC2015_train_00278004.mp4	0.0	179.14754176139832	
24	77.20762491226196	movie	1		301.0	22.0	2.5	/experiments/knapen_aot/videos/R_S_ILSVRC2015_train_00278004.mp4	0.0	179.16324973106384	2.508347988128662
24	79.71597290039062	fix_post	2		12.0	22.0	2.5	/experiments/knapen_aot/videos/R_S_ILSVRC2015_train_00278004.mp4	0.0	181.6715977191925	0.09999990463256836
25	79.8159728050232	fix_pre	0		80.0	23.0	2.5	/experiments/knapen_aot/videos/S_yt-h8wy6x6oytA_25.mp4	0.0	181.77159762382507	0.6669940948486328
25	80.47437691688538	response	0	2		23.0	2.5	/experiments/knapen_aot/videos/S_yt-h8wy6x6oytA_25.mp4	0.0	182.43000173568726	
25	80.48296689987183	movie	1		301.0	23.0	2.5	/experiments/knapen_aot/videos/S_yt-h8wy6x6oytA_25.mp4	0.0	182.4385917186737	2.507862091064453
25	82.99082899093628	fix_post	2		12.0	23.0	2.5	/experiments/knapen_aot/videos/S_yt-h8wy6x6oytA_25.mp4	0.0	184.94645380973816	0.10006284713745117
26	83.09089183807373	fix_pre	0		87.0	24.0	2.5	/experiments/knapen_aot/videos/S_yt-n6aLw10f2Yw_317.mp4	0.0	185.0465166568756	0.7253930568695068
26	83.80789279937744	response	0	2		24.0	2.5	/experiments/knapen_aot/videos/S_yt-n6aLw10f2Yw_317.mp4	0.0	185.76351761817932	
26	83.81628489494324	movie	1		301.0	24.0	2.5	/experiments/knapen_aot/videos/S_yt-n6aLw10f2Yw_317.mp4	0.0	185.77190971374512	2.507888078689575
26	86.32417297363281	fix_post	2		12.0	24.0	2.5	/experiments/knapen_aot/videos/S_yt-n6aLw10f2Yw_317.mp4	0.0	188.2797977924347	0.10008502006530762
27	86.42425799369812	fix_pre	0		97.0	25.0	2.5	/experiments/knapen_aot/videos/S_pexels-mikhail-nilov-8410063_1.mp4	0.0	188.3798828125	0.8086328506469727
27	87.22438383102417	response	0	2		25.0	2.5	/experiments/knapen_aot/videos/S_pexels-mikhail-nilov-8410063_1.mp4	0.0	189.18000864982605	
27	87.23289084434509	movie	1		162.0	25.0	2.5	/experiments/knapen_aot/videos/S_pexels-mikhail-nilov-8410063_1.mp4	0.0	189.18851566314697	2.508068084716797
27	89.74095892906189	fix_post	2		12.0	25.0	2.5	/experiments/knapen_aot/videos/S_pexels-mikhail-nilov-8410063_1.mp4	0.0	191.69658374786377	0.09994292259216309
28	89.84090185165405	fix_pre	0		30.0	26.0	2.5	/experiments/knapen_aot/videos/R_S_yt-T7RmOAme5dU_213.mp4	0.0	191.79652667045593	0.24997615814208984
28	90.08263993263245	response	0	2		26.0	2.5	/experiments/knapen_aot/videos/R_S_yt-T7RmOAme5dU_213.mp4	0.0	192.03826475143433	
28	90.09087800979614	movie	1		301.0	26.0	2.5	/experiments/knapen_aot/videos/R_S_yt-T7RmOAme5dU_213.mp4	0.0	192.04650282859802	2.508342981338501
28	92.59922099113464	fix_post	2		12.0	26.0	2.5	/experiments/knapen_aot/videos/R_S_yt-T7RmOAme5dU_213.mp4	0.0	194.55484580993652	0.09990096092224121
29	92.69912195205688	fix_pre	0		74.0	27.0	2.5	/experiments/knapen_aot/videos/S_yt-jy7rAnpu0u8_128.mp4	0.0	194.65474677085876	0.6170608997344971
29	93.30761981010437	response	0	2		27.0	2.5	/experiments/knapen_aot/videos/S_yt-jy7rAnpu0u8_128.mp4	0.0	195.26324462890625	
29	93.31618285179138	movie	1		301.0	27.0	2.5	/experiments/knapen_aot/videos/S_yt-jy7rAnpu0u8_128.mp4	0.0	195.27180767059326	2.5079989433288574
29	95.82418179512024	fix_post	2		12.0	27.0	2.5	/experiments/knapen_aot/videos/S_yt-jy7rAnpu0u8_128.mp4	0.0	197.77980661392212	0.10003304481506348
30	95.9242148399353	fix_pre	0		65.0	28.0	2.5	blank	1.0	197.87983965873718	0.5416100025177002
30	96.45765686035156	response	0	2		28.0	2.5	blank	1.0	198.41328167915344	
30	96.465824842453	movie	1		301.0	28.0	2.5	blank	1.0	198.42144966125488	2.508334159851074
30	98.97415900230408	fix_post	2		12.0	28.0	2.5	blank	1.0	200.92978382110596	0.10001182556152344
31	99.0741708278656	fix_pre	0		123.0	29.0	2.5	/experiments/knapen_aot/videos/S_yt-P8vJa4YVcGU_488.mp4	0.0	201.02979564666748	1.0249691009521484
31	100.09097790718079	response	0	2		29.0	2.5	/experiments/knapen_aot/videos/S_yt-P8vJa4YVcGU_488.mp4	0.0	202.04660272598267	
31	100.09913992881775	movie	1		301.0	29.0	2.5	/experiments/knapen_aot/videos/S_yt-P8vJa4YVcGU_488.mp4	0.0	202.05476474761963	2.508635997772217
31	102.60777592658997	fix_post	2		12.0	29.0	2.5	/experiments/knapen_aot/videos/S_yt-P8vJa4YVcGU_488.mp4	0.0	204.56340074539185	0.0997159481048584
32	102.70749187469482	fix_pre	0		80.0	30.0	2.5	/experiments/knapen_aot/videos/S_wc-AyT9mzwZsu0T_14.mp4	0.0	204.6631166934967	0.6665761470794678
32	103.36598181724548	response	0	2		30.0	2.5	/experiments/knapen_aot/videos/S_wc-AyT9mzwZsu0T_14.mp4	0.0	205.32160663604736	
32	103.37406802177429	movie	1		161.0	30.0	2.5	/experiments/knapen_aot/videos/S_wc-AyT9mzwZsu0T_14.mp4	0.0	205.32969284057617	2.5084218978881836
32	105.88248991966248	fix_post	2		12.0	30.0	2.5	/experiments/knapen_aot/videos/S_wc-AyT9mzwZsu0T_14.mp4	0.0	207.83811473846436	0.10027503967285156
33	105.98276495933533	fix_pre	0		74.0	31.0	2.5	/experiments/knapen_aot/videos/S_yt-OdTWn1U1mO4_68.mp4	0.0	207.9383897781372	0.6163568496704102
33	106.59095883369446	response	0	2		31.0	2.5	/experiments/knapen_aot/videos/S_yt-OdTWn1U1mO4_68.mp4	0.0	208.54658365249634	
33	106.59912180900574	movie	1		301.0	31.0	2.5	/experiments/knapen_aot/videos/S_yt-OdTWn1U1mO4_68.mp4	0.0	208.55474662780762	2.508342981338501
33	109.10746479034424	fix_post	2		12.0	31.0	2.5	/experiments/knapen_aot/videos/S_yt-OdTWn1U1mO4_68.mp4	0.0	211.06308960914612	0.10001921653747559
34	109.20748400688171	fix_pre	0		103.0	32.0	2.5	/experiments/knapen_aot/videos/S_ILSVRC2015_train_00574004.mp4	0.0	211.1631088256836	0.8584928512573242
34	110.05010080337524	response	0	2		32.0	2.5	/experiments/knapen_aot/videos/S_ILSVRC2015_train_00574004.mp4	0.0	212.00572562217712	
34	110.06597685813904	movie	1		301.0	32.0	2.5	/experiments/knapen_aot/videos/S_ILSVRC2015_train_00574004.mp4	0.0	212.02160167694092	2.508125066757202
34	112.57410192489624	fix_post	2		12.0	32.0	2.5	/experiments/knapen_aot/videos/S_ILSVRC2015_train_00574004.mp4	0.0	214.52972674369812	0.10003900527954102
35	112.67414093017578	fix_pre	0		97.0	33.0	2.5	/experiments/knapen_aot/videos/S_ILSVRC2015_train_00743000.mp4	0.0	214.62976574897766	0.8085370063781738
35	113.46674680709839	response	0	2		33.0	2.5	/experiments/knapen_aot/videos/S_ILSVRC2015_train_00743000.mp4	0.0	215.42237162590027	
35	113.48267793655396	movie	1		298.0	33.0	2.5	/experiments/knapen_aot/videos/S_ILSVRC2015_train_00743000.mp4	0.0	215.43830275535583	2.5081169605255127
35	115.99079489707947	fix_post	2		12.0	33.0	2.5	/experiments/knapen_aot/videos/S_ILSVRC2015_train_00743000.mp4	0.0	217.94641971588135	0.09991598129272461
36	116.09071087837219	fix_pre	0		112.0	34.0	2.5	/experiments/knapen_aot/videos/R_S_yt-7Z6Kmp0n7L8_145.mp4	0.0	218.04633569717407	0.9335141181945801
36	117.01591897010803	response	0	2		34.0	2.5	/experiments/knapen_aot/videos/R_S_yt-7Z6Kmp0n7L8_145.mp4	0.0	218.9715437889099	
36	117.02422499656677	movie	1		301.0	34.0	2.5	/experiments/knapen_aot/videos/R_S_yt-7Z6Kmp0n7L8_145.mp4	0.0	218.97984981536865	2.508178949356079
36	119.53240394592285	fix_post	2		12.0	34.0	2.5	/experiments/knapen_aot/videos/R_S_yt-7Z6Kmp0n7L8_145.mp4	0.0	221.48802876472473	0.1000058650970459
37	119.6324098110199	fix_pre	0		83.0	35.0	2.5	blank	1.0	221.58803462982178	0.6916260719299316
37	120.31589794158936	response	0	2		35.0	2.5	blank	1.0	222.27152276039124	
37	120.32403588294983	movie	1		301.0	35.0	2.5	blank	1.0	222.2796607017517	2.5083940029144287
37	122.83242988586426	fix_post	2		12.0	35.0	2.5	blank	1.0	224.78805470466614	0.09996795654296875
38	122.93239784240723	fix_pre	0		101.0	36.0	2.5	/experiments/knapen_aot/videos/S_production_ID_5119260.mp4	0.0	224.8880226612091	0.8418240547180176
38	123.76590394973755	response	0	2		36.0	2.5	/experiments/knapen_aot/videos/S_production_ID_5119260.mp4	0.0	225.72152876853943	
38	123.77422189712524	movie	1		165.0	36.0	2.5	/experiments/knapen_aot/videos/S_production_ID_5119260.mp4	0.0	225.72984671592712	2.508183002471924
38	126.28240489959717	fix_post	2		12.0	36.0	2.5	/experiments/knapen_aot/videos/S_production_ID_5119260.mp4	0.0	228.23802971839905	0.10008811950683594
39	126.382493019104	fix_pre	0		70.0	37.0	2.5	/experiments/knapen_aot/videos/R_S_yt-OFnDCbW9Ebo_31.mp4	0.0	228.33811783790588	0.5832648277282715
39	126.9575629234314	response	0	2		37.0	2.5	/experiments/knapen_aot/videos/R_S_yt-OFnDCbW9Ebo_31.mp4	0.0	228.91318774223328	
39	126.96575784683228	movie	1		301.0	37.0	2.5	/experiments/knapen_aot/videos/R_S_yt-OFnDCbW9Ebo_31.mp4	0.0	228.92138266563416	2.5083041191101074
39	129.47406196594238	fix_post	2		12.0	37.0	2.5	/experiments/knapen_aot/videos/R_S_yt-OFnDCbW9Ebo_31.mp4	0.0	231.42968678474426	0.0999898910522461
40	129.57405185699463	fix_pre	0		59.0	38.0	2.5	/experiments/knapen_aot/videos/S_yt-AbJBxqEYoMg_27.mp4	0.0	231.5296766757965	0.49179601669311523
40	130.05753183364868	response	0	2		38.0	2.5	/experiments/knapen_aot/videos/S_yt-AbJBxqEYoMg_27.mp4	0.0	232.01315665245056	
40	130.06584787368774	movie	1		301.0	38.0	2.5	/experiments/knapen_aot/videos/S_yt-AbJBxqEYoMg_27.mp4	0.0	232.02147269248962	2.508212089538574
40	132.57405996322632	fix_post	2		12.0	38.0	2.5	/experiments/knapen_aot/videos/S_yt-AbJBxqEYoMg_27.mp4	0.0	234.5296847820282	0.09994101524353027
41	132.67400097846985	fix_pre	0		79.0	39.0	2.5	/experiments/knapen_aot/videos/S_production_ID_4325516.mp4	0.0	234.62962579727173	0.6582918167114258
41	133.32419991493225	response	0	2		39.0	2.5	/experiments/knapen_aot/videos/S_production_ID_4325516.mp4	0.0	235.27982473373413	
41	133.33229279518127	movie	1		194.0	39.0	2.5	/experiments/knapen_aot/videos/S_production_ID_4325516.mp4	0.0	235.28791761398315	2.508446216583252
41	135.84073901176453	fix_post	2		12.0	39.0	2.5	/experiments/knapen_aot/videos/S_production_ID_4325516.mp4	0.0	237.7963638305664	0.10010695457458496
42	135.9408459663391	fix_pre	0		97.0	40.0	2.5	/experiments/knapen_aot/videos/S_yt-EKPrSw5xF7k_112.mp4	0.0	237.896470785141	0.8082048892974854
42	136.7407579421997	response	0	2		40.0	2.5	/experiments/knapen_aot/videos/S_yt-EKPrSw5xF7k_112.mp4	0.0	238.6963827610016	
42	136.7490508556366	movie	1		301.0	40.0	2.5	/experiments/knapen_aot/videos/S_yt-EKPrSw5xF7k_112.mp4	0.0	238.70467567443848	2.5083000659942627
42	139.25735092163086	fix_post	2		12.0	40.0	2.5	/experiments/knapen_aot/videos/S_yt-EKPrSw5xF7k_112.mp4	0.0	241.21297574043274	0.10009193420410156
43	139.35744285583496	fix_pre	0		87.0	41.0	2.5	blank	1.0	241.31306767463684	0.7249031066894531
43	140.0741798877716	response	0	2		41.0	2.5	blank	1.0	242.0298047065735	
43	140.0823459625244	movie	1		301.0	41.0	2.5	blank	1.0	242.0379707813263	2.508328914642334
43	142.59067487716675	fix_post	2		12.0	41.0	2.5	blank	1.0	244.54629969596863	0.10036897659301758
44	142.69104385375977	fix_pre	0		111.0	42.0	2.5	/experiments/knapen_aot/videos/S_video-9.mp4	0.0	244.64666867256165	0.9245851039886475
44	143.60751390457153	response	0	2		42.0	2.5	/experiments/knapen_aot/videos/S_video-9.mp4	0.0	245.5631387233734	
44	143.6156289577484	movie	1		198.0	42.0	2.5	/experiments/knapen_aot/videos/S_video-9.mp4	0.0	245.5712537765503	2.5082578659057617
44	146.12388682365417	fix_post	2		12.0	42.0	2.5	/experiments/knapen_aot/videos/S_video-9.mp4	0.0	248.07951164245605	0.10014009475708008
45	146.22402691841125	fix_pre	0		86.0	43.0	2.5	/experiments/knapen_aot/videos/R_S_yt-6vkiJedss6g_5.mp4	0.0	248.17965173721313	0.7166860103607178
45	146.9324278831482	response	0	2		43.0	2.5	/experiments/knapen_aot/videos/R_S_yt-6vkiJedss6g_5.mp4	0.0	248.88805270195007	
45	146.94071292877197	movie	1		301.0	43.0	2.5	/experiments/knapen_aot/videos/R_S_yt-6vkiJedss6g_5.mp4	0.0	248.89633774757385	2.508275032043457
45	149.44898796081543	fix_post	2		12.0	43.0	2.5	/experiments/knapen_aot/videos/R_S_yt-6vkiJedss6g_5.mp4	0.0	251.4046127796173	0.10001492500305176
46	149.54900288581848	fix_pre	0		90.0	44.0	2.5	/experiments/knapen_aot/videos/S_ILSVRC2015_train_00654000.mp4	0.0	251.50462770462036	0.7499649524688721
46	150.29081892967224	response	0	2		44.0	2.5	/experiments/knapen_aot/videos/S_ILSVRC2015_train_00654000.mp4	0.0	252.24644374847412	
46	150.29896783828735	movie	1		301.0	44.0	2.5	/experiments/knapen_aot/videos/S_ILSVRC2015_train_00654000.mp4	0.0	252.25459265708923	2.508378028869629
46	152.80734586715698	fix_post	2		12.0	44.0	2.5	/experiments/knapen_aot/videos/S_ILSVRC2015_train_00654000.mp4	0.0	254.76297068595886	0.10000801086425781
47	152.90735387802124	fix_pre	0		116.0	45.0	2.5	/experiments/knapen_aot/videos/S_yt-8vm83GUgYxI_1.mp4	0.0	254.86297869682312	0.9665961265563965
47	153.8659999370575	response	0	2		45.0	2.5	/experiments/knapen_aot/videos/S_yt-8vm83GUgYxI_1.mp4	0.0	255.82162475585938	
47	153.87395000457764	movie	1		301.0	45.0	2.5	/experiments/knapen_aot/videos/S_yt-8vm83GUgYxI_1.mp4	0.0	255.82957482337952	2.5082709789276123
47	156.38222098350525	fix_post	2		12.0	45.0	2.5	/experiments/knapen_aot/videos/S_yt-8vm83GUgYxI_1.mp4	0.0	258.33784580230713	0.10006284713745117
48	156.4822838306427	fix_pre	0		77.0	46.0	2.5	/experiments/knapen_aot/videos/S_yt-r2jZ0zZrqzQ_45.mp4	0.0	258.4379086494446	0.6416101455688477
48	157.1157989501953	response	0	2		46.0	2.5	/experiments/knapen_aot/videos/S_yt-r2jZ0zZrqzQ_45.mp4	0.0	259.0714237689972	
48	157.12389397621155	movie	1		301.0	46.0	2.5	/experiments/knapen_aot/videos/S_yt-r2jZ0zZrqzQ_45.mp4	0.0	259.0795187950134	2.5083320140838623
48	159.6322259902954	fix_post	2		12.0	46.0	2.5	/experiments/knapen_aot/videos/S_yt-r2jZ0zZrqzQ_45.mp4	0.0	261.5878508090973	0.0999748706817627
49	159.73220086097717	fix_pre	0		62.0	47.0	2.5	/experiments/knapen_aot/videos/S_ILSVRC2015_train_00324001.mp4	0.0	261.68782567977905	0.5166749954223633
49	160.2407488822937	response	0	2		47.0	2.5	/experiments/knapen_aot/videos/S_ILSVRC2015_train_00324001.mp4	0.0	262.1963737010956	
49	160.24887585639954	movie	1		301.0	47.0	2.5	/experiments/knapen_aot/videos/S_ILSVRC2015_train_00324001.mp4	0.0	262.2045006752014	2.5083539485931396
49	162.75722980499268	fix_post	2		12.0	47.0	2.5	/experiments/knapen_aot/videos/S_ILSVRC2015_train_00324001.mp4	0.0	264.71285462379456	0.10000300407409668
50	162.85723280906677	fix_pre	0		111.0	48.0	2.5	blank	1.0	264.81285762786865	0.9250311851501465
50	163.7740797996521	response	0	2		48.0	2.5	blank	1.0	265.729704618454	
50	163.78226399421692	movie	1		301.0	48.0	2.5	blank	1.0	265.7378888130188	2.508340835571289
50	166.2906048297882	fix_post	2		12.0	48.0	2.5	blank	1.0	268.2462296485901	0.09998703002929688
51	166.3905918598175	fix_pre	0		93.0	49.0	2.5	/experiments/knapen_aot/videos/S_yt-RlHmMGUjT9E_130.mp4	0.0	268.3462166786194	0.7749700546264648
51	167.15739583969116	response	0	2		49.0	2.5	/experiments/knapen_aot/videos/S_yt-RlHmMGUjT9E_130.mp4	0.0	269.11302065849304	
51	167.16556191444397	movie	1		300.0	49.0	2.5	/experiments/knapen_aot/videos/S_yt-RlHmMGUjT9E_130.mp4	0.0	269.12118673324585	2.5083820819854736
51	169.67394399642944	fix_post	2		12.0	49.0	2.5	/experiments/knapen_aot/videos/S_yt-RlHmMGUjT9E_130.mp4	0.0	271.6295688152313	0.09998488426208496
52	169.77392888069153	fix_pre	0		76.0	50.0	2.5	/experiments/knapen_aot/videos/S_yt-CRw9-cCQqbg_332.mp4	0.0	271.7295536994934	0.6333150863647461
52	170.39909482002258	response	0	2		50.0	2.5	/experiments/knapen_aot/videos/S_yt-CRw9-cCQqbg_332.mp4	0.0	272.35471963882446	
52	170.40724396705627	movie	1		301.0	50.0	2.5	/experiments/knapen_aot/videos/S_yt-CRw9-cCQqbg_332.mp4	0.0	272.36286878585815	2.508316993713379
52	172.91556096076965	fix_post	2		12.0	50.0	2.5	/experiments/knapen_aot/videos/S_yt-CRw9-cCQqbg_332.mp4	0.0	274.87118577957153	0.09999895095825195
53	173.0155599117279	fix_pre	0		68.0	51.0	2.5	/experiments/knapen_aot/videos/S_yt-bhiGMKSAz2g_370.mp4	0.0	274.9711847305298	0.5666110515594482
53	173.5741469860077	response	0	2		51.0	2.5	/experiments/knapen_aot/videos/S_yt-bhiGMKSAz2g_370.mp4	0.0	275.52977180480957	
53	173.58217096328735	movie	1		301.0	51.0	2.5	/experiments/knapen_aot/videos/S_yt-bhiGMKSAz2g_370.mp4	0.0	275.53779578208923	2.5083420276641846
53	176.09051299095154	fix_post	2		12.0	51.0	2.5	/experiments/knapen_aot/videos/S_yt-bhiGMKSAz2g_370.mp4	0.0	278.0461378097534	0.10004782676696777
54	176.1905608177185	fix_pre	0		63.0	52.0	2.5	/experiments/knapen_aot/videos/R_S_yt-9pUeQix6EW8_7.mp4	0.0	278.1461856365204	0.5249450206756592
54	176.7073438167572	response	0	2		52.0	2.5	/experiments/knapen_aot/videos/R_S_yt-9pUeQix6EW8_7.mp4	0.0	278.6629686355591	
54	176.71550583839417	movie	1		300.0	52.0	2.5	/experiments/knapen_aot/videos/R_S_yt-9pUeQix6EW8_7.mp4	0.0	278.67113065719604	2.508378028869629
54	179.2238838672638	fix_post	2		12.0	52.0	2.5	/experiments/knapen_aot/videos/R_S_yt-9pUeQix6EW8_7.mp4	0.0	281.1795086860657	0.09996199607849121
55	179.32384586334229	fix_pre	0		65.0	53.0	2.5	/experiments/knapen_aot/videos/R_S_ILSVRC2015_train_00661001.mp4	0.0	281.27947068214417	0.5416200160980225
55	179.8573558330536	response	0	2		53.0	2.5	/experiments/knapen_aot/videos/R_S_ILSVRC2015_train_00661001.mp4	0.0	281.81298065185547	
55	179.8654658794403	movie	1		301.0	53.0	2.5	/experiments/knapen_aot/videos/R_S_ILSVRC2015_train_00661001.mp4	0.0	281.8210906982422	2.508268117904663
55	182.37373399734497	fix_post	2		12.0	53.0	2.5	/experiments/knapen_aot/videos/R_S_ILSVRC2015_train_00661001.mp4	0.0	284.32935881614685	0.10003781318664551
56	182.47377181053162	fix_pre	0		88.0	54.0	2.5	/experiments/knapen_aot/videos/S_production_ID_5182928.mp4	0.0	284.4293966293335	0.733410120010376
56	183.19897985458374	response	0	2		54.0	2.5	/experiments/knapen_aot/videos/S_production_ID_5182928.mp4	0.0	285.1546046733856	
56	183.207181930542	movie	1		168.0	54.0	2.5	/experiments/knapen_aot/videos/S_production_ID_5182928.mp4	0.0	285.1628067493439	2.5083000659942627
56	185.71548199653625	fix_post	2		12.0	54.0	2.5	/experiments/knapen_aot/videos/S_production_ID_5182928.mp4	0.0	287.67110681533813	0.10003781318664551
57	185.8155198097229	fix_pre	0		60.0	55.0	2.5	blank	1.0	287.7711446285248	0.49994516372680664
57	186.30741000175476	response	0	2		55.0	2.5	blank	1.0	288.26303482055664	
57	186.3154649734497	movie	1		301.0	55.0	2.5	blank	1.0	288.2710897922516	2.5083088874816895
57	188.8237738609314	fix_post	2		12.0	55.0	2.5	blank	1.0	290.7793986797333	0.10006093978881836
58	188.92383480072021	fix_pre	0		63.0	56.0	2.5	/experiments/knapen_aot/videos/R_S_ILSVRC2015_train_00324002.mp4	0.0	290.8794596195221	0.5249571800231934
58	189.44059300422668	response	0	2		56.0	2.5	/experiments/knapen_aot/videos/R_S_ILSVRC2015_train_00324002.mp4	0.0	291.39621782302856	
58	189.4487919807434	movie	1		301.0	56.0	2.5	/experiments/knapen_aot/videos/R_S_ILSVRC2015_train_00324002.mp4	0.0	291.4044167995453	2.5083119869232178
58	191.95710396766663	fix_post	2		12.0	56.0	2.5	/experiments/knapen_aot/videos/R_S_ILSVRC2015_train_00324002.mp4	0.0	293.9127287864685	0.10003495216369629
59	192.05713891983032	fix_pre	0		65.0	57.0	2.5	/experiments/knapen_aot/videos/S_yt-4r-oovk9JWg_85.mp4	0.0	294.0127637386322	0.5428180694580078
59	192.59062790870667	response	0	2		57.0	2.5	/experiments/knapen_aot/videos/S_yt-4r-oovk9JWg_85.mp4	0.0	294.54625272750854	
59	192.59995698928833	movie	1		301.0	57.0	2.5	/experiments/knapen_aot/videos/S_yt-4r-oovk9JWg_85.mp4	0.0	294.5555818080902	2.5072100162506104
59	195.10716700553894	fix_post	2		12.0	57.0	2.5	/experiments/knapen_aot/videos/S_yt-4r-oovk9JWg_85.mp4	0.0	297.0627918243408	0.0999908447265625
60	195.2071578502655	fix_pre	0		83.0	58.0	2.5	/experiments/knapen_aot/videos/S_yt-sIXdPhfS67U_203.mp4	0.0	297.1627826690674	0.6916329860687256
60	195.89065885543823	response	0	2		58.0	2.5	/experiments/knapen_aot/videos/S_yt-sIXdPhfS67U_203.mp4	0.0	297.8462836742401	
60	195.89879083633423	movie	1		301.0	58.0	2.5	/experiments/knapen_aot/videos/S_yt-sIXdPhfS67U_203.mp4	0.0	297.8544156551361	2.5083260536193848
60	198.4071168899536	fix_post	2		12.0	58.0	2.5	/experiments/knapen_aot/videos/S_yt-sIXdPhfS67U_203.mp4	0.0	300.3627417087555	0.09998202323913574
61	198.50709891319275	fix_pre	0		85.0	59.0	2.5	/experiments/knapen_aot/videos/R_S_yt-wrfAMDCg93Y_8.mp4	0.0	300.46272373199463	0.7082469463348389
61	199.2073109149933	response	0	2		59.0	2.5	/experiments/knapen_aot/videos/R_S_yt-wrfAMDCg93Y_8.mp4	0.0	301.16293573379517	
61	199.2153458595276	movie	1		301.0	59.0	2.5	/experiments/knapen_aot/videos/R_S_yt-wrfAMDCg93Y_8.mp4	0.0	301.17097067832947	2.508358955383301
61	201.7237048149109	fix_post	2		12.0	59.0	2.5	/experiments/knapen_aot/videos/R_S_yt-wrfAMDCg93Y_8.mp4	0.0	303.67932963371277	0.10004019737243652
62	201.82374501228333	fix_pre	0		89.0	60.0	2.5	/experiments/knapen_aot/videos/R_S_yt-sIXdPhfS67U_203.mp4	0.0	303.7793698310852	0.7415969371795654
62	202.55723690986633	response	0	2		60.0	2.5	/experiments/knapen_aot/videos/R_S_yt-sIXdPhfS67U_203.mp4	0.0	304.5128617286682	
62	202.5653419494629	movie	1		301.0	60.0	2.5	/experiments/knapen_aot/videos/R_S_yt-sIXdPhfS67U_203.mp4	0.0	304.52096676826477	2.508513927459717
62	205.0738558769226	fix_post	2		12.0	60.0	2.5	/experiments/knapen_aot/videos/R_S_yt-sIXdPhfS67U_203.mp4	0.0	307.0294806957245	0.09991812705993652
63	205.17377400398254	fix_pre	0		69.0	61.0	2.5	/experiments/knapen_aot/videos/R_S_yt-SgiTZNjCPCo_19.mp4	0.0	307.1293988227844	0.5749728679656982
63	205.74055790901184	response	0	2		61.0	2.5	/experiments/knapen_aot/videos/R_S_yt-SgiTZNjCPCo_19.mp4	0.0	307.6961827278137	
63	205.74874687194824	movie	1		301.0	61.0	2.5	/experiments/knapen_aot/videos/R_S_yt-SgiTZNjCPCo_19.mp4	0.0	307.7043716907501	2.508424997329712
63	208.25717186927795	fix_post	2		12.0	61.0	2.5	/experiments/knapen_aot/videos/R_S_yt-SgiTZNjCPCo_19.mp4	0.0	310.21279668807983	0.09996509552001953
64	208.35713696479797	fix_pre	0		96.0	62.0	2.5	/experiments/knapen_aot/videos/R_S_ILSVRC2015_train_00654000.mp4	0.0	310.31276178359985	0.8000328540802002
64	209.1489279270172	response	0	2		62.0	2.5	/experiments/knapen_aot/videos/R_S_ILSVRC2015_train_00654000.mp4	0.0	311.1045527458191	
64	209.15716981887817	movie	1		301.0	62.0	2.5	/experiments/knapen_aot/videos/R_S_ILSVRC2015_train_00654000.mp4	0.0	311.11279463768005	2.5082650184631348
64	211.6654348373413	fix_post	2		12.0	62.0	2.5	/experiments/knapen_aot/videos/R_S_ILSVRC2015_train_00654000.mp4	0.0	313.6210596561432	0.10000896453857422
65	211.76544380187988	fix_pre	0		82.0	63.0	2.5	blank	1.0	313.72106862068176	0.6833231449127197
65	212.44056701660156	response	0	2		63.0	2.5	blank	1.0	314.39619183540344	
65	212.4487669467926	movie	1		301.0	63.0	2.5	blank	1.0	314.4043917655945	2.5083489418029785
65	214.95711588859558	fix_post	2		12.0	63.0	2.5	blank	1.0	316.91274070739746	0.09992098808288574
66	215.05703687667847	fix_pre	0		83.0	64.0	2.5	/experiments/knapen_aot/videos/S_yt-YFl_NAWBFAw_166.mp4	0.0	317.01266169548035	0.6917009353637695
66	215.74050283432007	response	0	2		64.0	2.5	/experiments/knapen_aot/videos/S_yt-YFl_NAWBFAw_166.mp4	0.0	317.69612765312195	
66	215.74873781204224	movie	1		301.0	64.0	2.5	/experiments/knapen_aot/videos/S_yt-YFl_NAWBFAw_166.mp4	0.0	317.7043626308441	2.508277177810669
66	218.2570149898529	fix_post	2		12.0	64.0	2.5	/experiments/knapen_aot/videos/S_yt-YFl_NAWBFAw_166.mp4	0.0	320.2126398086548	0.10004091262817383
67	218.35705590248108	fix_pre	0		66.0	65.0	2.5	/experiments/knapen_aot/videos/S_yt-FsylDeYfcxU_24.mp4	0.0	320.31268072128296	0.5499279499053955
67	218.89885902404785	response	0	2		65.0	2.5	/experiments/knapen_aot/videos/S_yt-FsylDeYfcxU_24.mp4	0.0	320.85448384284973	
67	218.90698385238647	movie	1		301.0	65.0	2.5	/experiments/knapen_aot/videos/S_yt-FsylDeYfcxU_24.mp4	0.0	320.86260867118835	2.5084011554718018
67	221.41538500785828	fix_post	2		12.0	65.0	2.5	/experiments/knapen_aot/videos/S_yt-FsylDeYfcxU_24.mp4	0.0	323.37100982666016	0.09996581077575684
68	221.51535081863403	fix_pre	0		216.0	66.0	2.5	/experiments/knapen_aot/videos/R_S_ILSVRC2015_train_00594000.mp4	0.0	323.4709756374359	1.7999470233917236
68	223.30717396736145	response	0	2		66.0	2.5	/experiments/knapen_aot/videos/R_S_ILSVRC2015_train_00594000.mp4	0.0	325.26279878616333	
68	223.31529784202576	movie	1		301.0	66.0	2.5	/experiments/knapen_aot/videos/R_S_ILSVRC2015_train_00594000.mp4	0.0	325.27092266082764	2.5084259510040283
68	225.82372379302979	fix_post	2		12.0	66.0	2.5	/experiments/knapen_aot/videos/R_S_ILSVRC2015_train_00594000.mp4	0.0	327.77934861183167	0.09999513626098633
69	225.92371892929077	fix_pre	0		114.0	67.0	2.5	/experiments/knapen_aot/videos/S_yt-bwSRV1Vr21s_435.mp4	0.0	327.87934374809265	0.949958086013794
69	226.86550283432007	response	0	2		67.0	2.5	/experiments/knapen_aot/videos/S_yt-bwSRV1Vr21s_435.mp4	0.0	328.82112765312195	
69	226.87367701530457	movie	1		301.0	67.0	2.5	/experiments/knapen_aot/videos/S_yt-bwSRV1Vr21s_435.mp4	0.0	328.82930183410645	2.5083649158477783
69	229.38204193115234	fix_post	2		12.0	67.0	2.5	/experiments/knapen_aot/videos/S_yt-bwSRV1Vr21s_435.mp4	0.0	331.3376667499542	0.10000205039978027
70	229.48204398155212	fix_pre	0		88.0	68.0	2.5	/experiments/knapen_aot/videos/S_pexels-rodnae-productions-5544703.mp4	0.0	331.437668800354	0.7333190441131592
70	230.20720601081848	response	0	2		68.0	2.5	/experiments/knapen_aot/videos/S_pexels-rodnae-productions-5544703.mp4	0.0	332.16283082962036	
70	230.21536302566528	movie	1		164.0	68.0	2.5	/experiments/knapen_aot/videos/S_pexels-rodnae-productions-5544703.mp4	0.0	332.17098784446716	2.5083248615264893
70	232.72368788719177	fix_post	2		12.0	68.0	2.5	/experiments/knapen_aot/videos/S_pexels-rodnae-productions-5544703.mp4	0.0	334.67931270599365	0.09997296333312988
71	232.8236608505249	fix_pre	0		107.0	69.0	2.5	/experiments/knapen_aot/videos/S_ILSVRC2015_train_00324001.mp4	0.0	334.7792856693268	0.8917350769042969
71	233.70712995529175	response	0	2		69.0	2.5	/experiments/knapen_aot/videos/S_ILSVRC2015_train_00324001.mp4	0.0	335.6627547740936	
71	233.7153959274292	movie	1		301.0	69.0	2.5	/experiments/knapen_aot/videos/S_ILSVRC2015_train_00324001.mp4	0.0	335.6710207462311	2.5083000659942627
71	236.22369599342346	fix_post	2		12.0	69.0	2.5	/experiments/knapen_aot/videos/S_ILSVRC2015_train_00324001.mp4	0.0	338.17932081222534	0.09981799125671387
72	236.32351398468018	fix_pre	0		84.0	70.0	2.5	blank	1.0	338.27913880348206	0.7000889778137207
72	237.01540088653564	response	0	2		70.0	2.5	blank	1.0	338.9710257053375	
72	237.0236029624939	movie	1		301.0	70.0	2.5	blank	1.0	338.9792277812958	2.5083348751068115
72	239.5319378376007	fix_post	2		12.0	70.0	2.5	blank	1.0	341.4875626564026	0.10001897811889648
73	239.6319568157196	fix_pre	0		259.0	71.0	2.5	/experiments/knapen_aot/videos/R_S_yt-FzMLLmcD1mE_19.mp4	0.0	341.5875816345215	2.1583101749420166
73	241.78207087516785	response	0	2		71.0	2.5	/experiments/knapen_aot/videos/R_S_yt-FzMLLmcD1mE_19.mp4	0.0	343.7376956939697	
73	241.79026699066162	movie	1		300.0	71.0	2.5	/experiments/knapen_aot/videos/R_S_yt-FzMLLmcD1mE_19.mp4	0.0	343.7458918094635	2.508387804031372
73	244.298654794693	fix_post	2		12.0	71.0	2.5	/experiments/knapen_aot/videos/R_S_yt-FzMLLmcD1mE_19.mp4	0.0	346.2542796134949	0.1000220775604248
74	244.39867687225342	fix_pre	0		72.0	72.0	2.5	/experiments/knapen_aot/videos/R_S_pexels-laker-5793000.mp4	0.0	346.3543016910553	0.5999829769134521
74	244.9904158115387	response	0	2		72.0	2.5	/experiments/knapen_aot/videos/R_S_pexels-laker-5793000.mp4	0.0	346.9460406303406	
74	244.99865984916687	movie	1		164.0	72.0	2.5	/experiments/knapen_aot/videos/R_S_pexels-laker-5793000.mp4	0.0	346.95428466796875	2.5083179473876953
74	247.50697779655457	fix_post	2		12.0	72.0	2.5	/experiments/knapen_aot/videos/R_S_pexels-laker-5793000.mp4	0.0	349.46260261535645	0.09998607635498047
75	247.60696387290955	fix_pre	0		71.0	73.0	2.5	/experiments/knapen_aot/videos/R_S_yt-kXarkCFJLeg_46.mp4	0.0	349.5625886917114	0.5915629863739014
75	248.19180488586426	response	0	2		73.0	2.5	/experiments/knapen_aot/videos/R_S_yt-kXarkCFJLeg_46.mp4	0.0	350.14742970466614	
75	248.19852685928345	movie	1		301.0	73.0	2.5	/experiments/knapen_aot/videos/R_S_yt-kXarkCFJLeg_46.mp4	0.0	350.1541516780853	2.5084080696105957
75	250.70693492889404	fix_post	2		12.0	73.0	2.5	/experiments/knapen_aot/videos/R_S_yt-kXarkCFJLeg_46.mp4	0.0	352.6625597476959	0.09996199607849121
76	250.80689692497253	fix_pre	0		75.0	74.0	2.5	/experiments/knapen_aot/videos/R_S_production_ID_4101242.mp4	0.0	352.7625217437744	0.625885009765625
76	251.42363691329956	response	0	2		74.0	2.5	/experiments/knapen_aot/videos/R_S_production_ID_4101242.mp4	0.0	353.37926173210144	
76	251.43278193473816	movie	1		190.0	74.0	2.5	/experiments/knapen_aot/videos/R_S_production_ID_4101242.mp4	0.0	353.38840675354004	2.5074639320373535
76	253.9402458667755	fix_post	2		12.0	74.0	2.5	/experiments/knapen_aot/videos/R_S_production_ID_4101242.mp4	0.0	355.8958706855774	0.09999704360961914
77	254.04024291038513	fix_pre	0		90.0	75.0	2.5	blank	1.0	355.995867729187	0.7500391006469727
77	254.7820279598236	response	0	2		75.0	2.5	blank	1.0	356.7376527786255	
77	254.7902820110321	movie	1		301.0	75.0	2.5	blank	1.0	356.745906829834	2.5083518028259277
77	257.29863381385803	fix_post	2		12.0	75.0	2.5	blank	1.0	359.2542586326599	0.09990310668945312
78	257.3985369205475	fix_pre	0		85.0	76.0	2.5	/experiments/knapen_aot/videos/R_S_Pz_NXxhQCJc_70.mp4	0.0	359.35416173934937	0.7083480358123779
78	258.09866881370544	response	0	2		76.0	2.5	/experiments/knapen_aot/videos/R_S_Pz_NXxhQCJc_70.mp4	0.0	360.0542936325073	
78	258.10688495635986	movie	1		301.0	76.0	2.5	/experiments/knapen_aot/videos/R_S_Pz_NXxhQCJc_70.mp4	0.0	360.06250977516174	2.5083248615264893
78	260.61520981788635	fix_post	2		12.0	76.0	2.5	/experiments/knapen_aot/videos/R_S_Pz_NXxhQCJc_70.mp4	0.0	362.57083463668823	0.0999610424041748
79	260.7151708602905	fix_pre	0		98.0	77.0	2.5	/experiments/knapen_aot/videos/S_comp_L010_C006_PS_v01_SDR_PS_20180925_SDR_2K_AVC.mp4	0.0	362.6707956790924	0.8167459964752197
79	261.52366495132446	response	0	2		77.0	2.5	/experiments/knapen_aot/videos/S_comp_L010_C006_PS_v01_SDR_PS_20180925_SDR_2K_AVC.mp4	0.0	363.47928977012634	
79	261.53191685676575	movie	1		160.0	77.0	2.5	/experiments/knapen_aot/videos/S_comp_L010_C006_PS_v01_SDR_PS_20180925_SDR_2K_AVC.mp4	0.0	363.4875416755676	2.508291006088257
79	264.040207862854	fix_post	2		12.0	77.0	2.5	/experiments/knapen_aot/videos/S_comp_L010_C006_PS_v01_SDR_PS_20180925_SDR_2K_AVC.mp4	0.0	365.9958326816559	0.10000395774841309
80	264.1402118206024	fix_pre	0		102.0	78.0	2.5	/experiments/knapen_aot/videos/R_S_ILSVRC2015_train_00324002.mp4	0.0	366.0958366394043	0.8499171733856201
80	264.9744198322296	response	0	2		78.0	2.5	/experiments/knapen_aot/videos/R_S_ILSVRC2015_train_00324002.mp4	0.0	366.9300446510315	
80	264.99012899398804	movie	1		301.0	78.0	2.5	/experiments/knapen_aot/videos/R_S_ILSVRC2015_train_00324002.mp4	0.0	366.9457538127899	2.5083658695220947
80	267.49849486351013	fix_post	2		12.0	78.0	2.5	/experiments/knapen_aot/videos/R_S_ILSVRC2015_train_00324002.mp4	0.0	369.454119682312	0.10000205039978027
81	267.5984969139099	fix_pre	0		51.0	79.0	2.5	/experiments/knapen_aot/videos/R_S_production_ID_4510883.mp4	0.0	369.5541217327118	0.4250071048736572
81	268.00782895088196	response	0	2		79.0	2.5	/experiments/knapen_aot/videos/R_S_production_ID_4510883.mp4	0.0	369.96345376968384	
81	268.02350401878357	movie	1		166.0	79.0	2.5	/experiments/knapen_aot/videos/R_S_production_ID_4510883.mp4	0.0	369.97912883758545	2.5083727836608887
81	270.53187680244446	fix_post	2		12.0	79.0	2.5	/experiments/knapen_aot/videos/R_S_production_ID_4510883.mp4	0.0	372.48750162124634	0.09984016418457031
82	270.631716966629	fix_pre	0		106.0	80.0	2.5	/experiments/knapen_aot/videos/R_S_ILSVRC2015_train_00369002.mp4	0.0	372.5873417854309	0.884213924407959
82	271.5069878101349	response	0	2		80.0	2.5	/experiments/knapen_aot/videos/R_S_ILSVRC2015_train_00369002.mp4	0.0	373.46261262893677	
82	271.515930891037	movie	1		300.0	80.0	2.5	/experiments/knapen_aot/videos/R_S_ILSVRC2015_train_00369002.mp4	0.0	373.47155570983887	2.5075199604034424
82	274.02345085144043	fix_post	2		12.0	80.0	2.5	/experiments/knapen_aot/videos/R_S_ILSVRC2015_train_00369002.mp4	0.0	375.9790756702423	0.10004711151123047
83	274.12349796295166	fix_pre	0		67.0	81.0	2.5	/experiments/knapen_aot/videos/S_production_ID_5182928.mp4	0.0	376.07912278175354	0.5591168403625488
83	274.67364501953125	response	0	2		81.0	2.5	/experiments/knapen_aot/videos/S_production_ID_5182928.mp4	0.0	376.62926983833313	
83	274.6826148033142	movie	1		172.0	81.0	2.5	/experiments/knapen_aot/videos/S_production_ID_5182928.mp4	0.0	376.6382396221161	2.5075550079345703
83	277.1901698112488	fix_post	2		12.0	81.0	2.5	/experiments/knapen_aot/videos/S_production_ID_5182928.mp4	0.0	379.14579463005066	0.0999610424041748
84	277.29013085365295	fix_pre	0		93.0	82.0	2.5	/experiments/knapen_aot/videos/R_S_yt-7lULOC_rSE0_747.mp4	0.0	379.24575567245483	0.7749741077423096
84	278.05698680877686	response	0	2		82.0	2.5	/experiments/knapen_aot/videos/R_S_yt-7lULOC_rSE0_747.mp4	0.0	380.01261162757874	
84	278.06510496139526	movie	1		301.0	82.0	2.5	/experiments/knapen_aot/videos/R_S_yt-7lULOC_rSE0_747.mp4	0.0	380.02072978019714	2.508357048034668
84	280.57346200942993	fix_post	2		12.0	82.0	2.5	/experiments/knapen_aot/videos/R_S_yt-7lULOC_rSE0_747.mp4	0.0	382.5290868282318	0.0999908447265625
85	280.6734528541565	fix_pre	0		82.0	83.0	2.5	blank	1.0	382.6290776729584	0.6916589736938477
85	281.3568968772888	response	0	2		83.0	2.5	blank	1.0	383.3125216960907	
85	281.36511182785034	movie	1		301.0	83.0	2.5	blank	1.0	383.3207366466522	2.508362054824829
85	283.87347388267517	fix_post	2		12.0	83.0	2.5	blank	1.0	385.82909870147705	0.10084795951843262
87	283.9743218421936	stim	0		311.0					385.9299466609955	2.590723991394043
87	286.5576260089874	response	0	space						388.5132508277893	
