trial_nr	onset	event_type	phase	response	nr_frames	movie_index	movie_duration	movie_file	blank	onset_abs	duration
0	0.12777113914489746	stim	0		16.0					151.93944692611694	0.1323840618133545
0	0.24998211860656738	response	0	space						152.0616579055786	
1	0.26015520095825195	stim	0		121.0					152.0718309879303	1.0066850185394287
1	0.8001151084899902	response	0	space						152.61179089546204	
1	1.1166050434112549	response	0	space						152.9282808303833	
1	1.2668402194976807	stim	1		120.0					153.07851600646973	0.9994828701019287
1	1.5585219860076904	response	1	space						153.37019777297974	
1	1.8329930305480957	response	1	space						153.64466881752014	
1	2.091325044631958	response	1	space						153.903000831604	
1	2.1923069953918457	response	1	4						154.0039827823639	
2	2.2663230895996094	fix_pre	0		13.0	0.0	2.5	/experiments/knapen_aot/videos/S_yt-kA0ybjmoiMc_284.mp4	0.0	154.07799887657166	0.10827803611755371
2	2.367030143737793	response	0	space		0.0	2.5	/experiments/knapen_aot/videos/S_yt-kA0ybjmoiMc_284.mp4	0.0	154.17870593070984	
2	2.374601125717163	movie	1		300.0	0.0	2.5	/experiments/knapen_aot/videos/S_yt-kA0ybjmoiMc_284.mp4	0.0	154.1862769126892	2.508419990539551
2	3.0894811153411865	response	1	4		0.0	2.5	/experiments/knapen_aot/videos/S_yt-kA0ybjmoiMc_284.mp4	0.0	154.90115690231323	
2	3.8012189865112305	response	1	4		0.0	2.5	/experiments/knapen_aot/videos/S_yt-kA0ybjmoiMc_284.mp4	0.0	155.61289477348328	
2	4.3580121994018555	response	1	4		0.0	2.5	/experiments/knapen_aot/videos/S_yt-kA0ybjmoiMc_284.mp4	0.0	156.1696879863739	
2	4.883021116256714	fix_post	2		12.0	0.0	2.5	/experiments/knapen_aot/videos/S_yt-kA0ybjmoiMc_284.mp4	0.0	156.69469690322876	0.09995508193969727
3	4.982976198196411	fix_pre	0		24.0	1.0	2.5	/experiments/knapen_aot/videos/R_S_pexels-cottonbro-6788024.mp4	0.0	156.79465198516846	0.19995999336242676
3	5.174661159515381	response	0	4		1.0	2.5	/experiments/knapen_aot/videos/R_S_pexels-cottonbro-6788024.mp4	0.0	156.98633694648743	
3	5.182936191558838	movie	1		195.0	1.0	2.5	/experiments/knapen_aot/videos/R_S_pexels-cottonbro-6788024.mp4	0.0	156.99461197853088	2.5083060264587402
3	7.691242218017578	fix_post	2		12.0	1.0	2.5	/experiments/knapen_aot/videos/R_S_pexels-cottonbro-6788024.mp4	0.0	159.50291800498962	0.10002899169921875
4	7.791271209716797	fix_pre	0		20.0	2.0	2.5	/experiments/knapen_aot/videos/R_S_production_ID_4325509.mp4	0.0	159.60294699668884	0.16664695739746094
4	7.949790000915527	response	0	4		2.0	2.5	/experiments/knapen_aot/videos/R_S_production_ID_4325509.mp4	0.0	159.76146578788757	
4	7.957918167114258	movie	1		210.0	2.0	2.5	/experiments/knapen_aot/videos/R_S_production_ID_4325509.mp4	0.0	159.7695939540863	2.508347988128662
4	10.46626615524292	fix_post	2		12.0	2.0	2.5	/experiments/knapen_aot/videos/R_S_production_ID_4325509.mp4	0.0	162.27794194221497	0.10001397132873535
5	10.566280126571655	fix_pre	0		5.0	3.0	2.5	/experiments/knapen_aot/videos/S_yt-w_e3sxIzepA_27.mp4	0.0	162.3779559135437	0.041612863540649414
5	10.599748134613037	response	0	4		3.0	2.5	/experiments/knapen_aot/videos/S_yt-w_e3sxIzepA_27.mp4	0.0	162.41142392158508	
5	10.607892990112305	movie	1		301.0	3.0	2.5	/experiments/knapen_aot/videos/S_yt-w_e3sxIzepA_27.mp4	0.0	162.41956877708435	2.508289098739624
5	13.116182088851929	fix_post	2		12.0	3.0	2.5	/experiments/knapen_aot/videos/S_yt-w_e3sxIzepA_27.mp4	0.0	164.92785787582397	0.10004401206970215
6	13.21622610092163	fix_pre	0		6.0	4.0	2.5	/experiments/knapen_aot/videos/S_pexels-roman-odintsov-8233166.mp4	0.0	165.02790188789368	0.050019025802612305
6	13.258050203323364	response	0	4		4.0	2.5	/experiments/knapen_aot/videos/S_pexels-roman-odintsov-8233166.mp4	0.0	165.0697259902954	
6	13.266245126724243	movie	1		214.0	4.0	2.5	/experiments/knapen_aot/videos/S_pexels-roman-odintsov-8233166.mp4	0.0	165.0779209136963	2.508380889892578
6	15.774626016616821	fix_post	2		12.0	4.0	2.5	/experiments/knapen_aot/videos/S_pexels-roman-odintsov-8233166.mp4	0.0	167.58630180358887	0.10013413429260254
7	15.874760150909424	fix_pre	0		38.0	5.0	2.5	/experiments/knapen_aot/videos/R_S_video_inspire_nevada_lasvegas_northstrip_021.1080-h264.mp4	0.0	167.68643593788147	0.3164100646972656
7	16.183029174804688	response	0	4		5.0	2.5	/experiments/knapen_aot/videos/R_S_video_inspire_nevada_lasvegas_northstrip_021.1080-h264.mp4	0.0	167.99470496177673	
7	16.19117021560669	movie	1		169.0	5.0	2.5	/experiments/knapen_aot/videos/R_S_video_inspire_nevada_lasvegas_northstrip_021.1080-h264.mp4	0.0	168.00284600257874	2.508455991744995
7	18.699626207351685	fix_post	2		12.0	5.0	2.5	/experiments/knapen_aot/videos/R_S_video_inspire_nevada_lasvegas_northstrip_021.1080-h264.mp4	0.0	170.51130199432373	0.09992289543151855
8	18.799549102783203	fix_pre	0		10.0	6.0	2.5	/experiments/knapen_aot/videos/R_S_flickr-csgzs-8144064966_10.mp4	0.0	170.61122488975525	0.08336400985717773
8	18.87458300590515	response	0	4		6.0	2.5	/experiments/knapen_aot/videos/R_S_flickr-csgzs-8144064966_10.mp4	0.0	170.6862587928772	
8	18.88291311264038	movie	1		301.0	6.0	2.5	/experiments/knapen_aot/videos/R_S_flickr-csgzs-8144064966_10.mp4	0.0	170.69458889961243	2.5083038806915283
8	21.39121699333191	fix_post	2		12.0	6.0	2.5	/experiments/knapen_aot/videos/R_S_flickr-csgzs-8144064966_10.mp4	0.0	173.20289278030396	0.10000801086425781
9	21.491225004196167	fix_pre	0		13.0	7.0	2.5	blank	1.0	173.3029007911682	0.1082911491394043
9	21.59132409095764	response	0	4		7.0	2.5	blank	1.0	173.4029998779297	
9	21.59951615333557	movie	1		301.0	7.0	2.5	blank	1.0	173.41119194030762	2.5083868503570557
9	22.391271114349365	response	1	4		7.0	2.5	blank	1.0	174.2029469013214	
9	24.107903003692627	fix_post	2		12.0	7.0	2.5	blank	1.0	175.91957879066467	0.0999441146850586
10	24.207847118377686	fix_pre	0		87.0	8.0	2.5	/experiments/knapen_aot/videos/R_S_yt-QD74nNliDvI_10.mp4	0.0	176.01952290534973	0.7249410152435303
10	24.924593210220337	response	0	4		8.0	2.5	/experiments/knapen_aot/videos/R_S_yt-QD74nNliDvI_10.mp4	0.0	176.73626899719238	
10	24.932788133621216	movie	1		301.0	8.0	2.5	/experiments/knapen_aot/videos/R_S_yt-QD74nNliDvI_10.mp4	0.0	176.74446392059326	2.508420944213867
10	27.441209077835083	fix_post	2		12.0	8.0	2.5	/experiments/knapen_aot/videos/R_S_yt-QD74nNliDvI_10.mp4	0.0	179.25288486480713	0.09998512268066406
11	27.541194200515747	fix_pre	0		148.0	9.0	2.5	/experiments/knapen_aot/videos/S_S006_C007_SDR_2K_AVC.mp4	0.0	179.3528699874878	1.233238935470581
11	28.75878119468689	response	0	4		9.0	2.5	/experiments/knapen_aot/videos/S_S006_C007_SDR_2K_AVC.mp4	0.0	180.57045698165894	
11	28.774433135986328	movie	1		164.0	9.0	2.5	/experiments/knapen_aot/videos/S_S006_C007_SDR_2K_AVC.mp4	0.0	180.58610892295837	2.508420944213867
11	31.282854080200195	fix_post	2		12.0	9.0	2.5	/experiments/knapen_aot/videos/S_S006_C007_SDR_2K_AVC.mp4	0.0	183.09452986717224	0.09995508193969727
12	31.382809162139893	fix_pre	0		39.0	10.0	2.5	/experiments/knapen_aot/videos/R_S_yt-XtzmBXKYEWk_60.mp4	0.0	183.19448494911194	0.3249168395996094
12	31.69960117340088	response	0	4		10.0	2.5	/experiments/knapen_aot/videos/R_S_yt-XtzmBXKYEWk_60.mp4	0.0	183.51127696037292	
12	31.707726001739502	movie	1		301.0	10.0	2.5	/experiments/knapen_aot/videos/R_S_yt-XtzmBXKYEWk_60.mp4	0.0	183.51940178871155	2.508545160293579
12	34.21627116203308	fix_post	2		12.0	10.0	2.5	/experiments/knapen_aot/videos/R_S_yt-XtzmBXKYEWk_60.mp4	0.0	186.02794694900513	0.09990382194519043
13	34.31617498397827	fix_pre	0		43.0	11.0	2.5	/experiments/knapen_aot/videos/R_S_Y009_C015_SDR_2K_AVC.mp4	0.0	186.12785077095032	0.35826706886291504
13	34.66627216339111	response	0	4		11.0	2.5	/experiments/knapen_aot/videos/R_S_Y009_C015_SDR_2K_AVC.mp4	0.0	186.47794795036316	
13	34.67444205284119	movie	1		173.0	11.0	2.5	/experiments/knapen_aot/videos/R_S_Y009_C015_SDR_2K_AVC.mp4	0.0	186.48611783981323	2.508406162261963
13	37.18284821510315	fix_post	2		12.0	11.0	2.5	/experiments/knapen_aot/videos/R_S_Y009_C015_SDR_2K_AVC.mp4	0.0	188.9945240020752	0.0999898910522461
14	37.282838106155396	fix_pre	0		115.0	12.0	2.5	/experiments/knapen_aot/videos/S_yt-jzDaQD-g168_103.mp4	0.0	189.09451389312744	0.9582850933074951
14	38.23290514945984	response	0	4		12.0	2.5	/experiments/knapen_aot/videos/S_yt-jzDaQD-g168_103.mp4	0.0	190.04458093643188	
14	38.24112319946289	movie	1		301.0	12.0	2.5	/experiments/knapen_aot/videos/S_yt-jzDaQD-g168_103.mp4	0.0	190.05279898643494	2.5084009170532227
14	40.74952411651611	fix_post	2		12.0	12.0	2.5	/experiments/knapen_aot/videos/S_yt-jzDaQD-g168_103.mp4	0.0	192.56119990348816	0.09997105598449707
15	40.84949517250061	fix_pre	0		156.0	13.0	2.5	blank	1.0	192.66117095947266	1.299966812133789
15	42.14129018783569	response	0	4		13.0	2.5	blank	1.0	193.95296597480774	
15	42.1494619846344	movie	1		301.0	13.0	2.5	blank	1.0	193.96113777160645	2.5083420276641846
15	44.657804012298584	fix_post	2		12.0	13.0	2.5	blank	1.0	196.46947979927063	0.10000109672546387
16	44.75780510902405	fix_pre	0		16.0	14.0	2.5	/experiments/knapen_aot/videos/R_S_WCwb-DeQOSg_85.mp4	0.0	196.5694808959961	0.13329601287841797
16	44.88285803794861	response	0	4		14.0	2.5	/experiments/knapen_aot/videos/R_S_WCwb-DeQOSg_85.mp4	0.0	196.69453382492065	
16	44.891101121902466	movie	1		301.0	14.0	2.5	/experiments/knapen_aot/videos/R_S_WCwb-DeQOSg_85.mp4	0.0	196.7027769088745	2.508331060409546
16	47.39943218231201	fix_post	2		12.0	14.0	2.5	/experiments/knapen_aot/videos/R_S_WCwb-DeQOSg_85.mp4	0.0	199.21110796928406	0.10004401206970215
17	47.499476194381714	fix_pre	0		59.0	15.0	2.5	/experiments/knapen_aot/videos/R_S_production_ID_5144824.mp4	0.0	199.31115198135376	0.49160194396972656
17	47.97537398338318	response	0	4		15.0	2.5	/experiments/knapen_aot/videos/R_S_production_ID_5144824.mp4	0.0	199.78704977035522	
17	47.99107813835144	movie	1		164.0	15.0	2.5	/experiments/knapen_aot/videos/R_S_production_ID_5144824.mp4	0.0	199.8027539253235	2.5083460807800293
17	50.49942421913147	fix_post	2		12.0	15.0	2.5	/experiments/knapen_aot/videos/R_S_production_ID_5144824.mp4	0.0	202.31110000610352	0.09998679161071777
18	50.59941101074219	fix_pre	0		11.0	16.0	2.5	/experiments/knapen_aot/videos/R_S_yt-xvIZtEVkebk_462.mp4	0.0	202.41108679771423	0.09162020683288574
18	50.682849168777466	response	0	4		16.0	2.5	/experiments/knapen_aot/videos/R_S_yt-xvIZtEVkebk_462.mp4	0.0	202.4945249557495	
18	50.69103121757507	movie	1		301.0	16.0	2.5	/experiments/knapen_aot/videos/R_S_yt-xvIZtEVkebk_462.mp4	0.0	202.50270700454712	2.5084288120269775
18	53.19946002960205	fix_post	2		12.0	16.0	2.5	/experiments/knapen_aot/videos/R_S_yt-xvIZtEVkebk_462.mp4	0.0	205.0111358165741	0.09993100166320801
19	53.29939103126526	fix_pre	0		32.0	17.0	2.5	/experiments/knapen_aot/videos/R_S_production_ID_4325585.mp4	0.0	205.1110668182373	0.2666971683502197
19	53.55786108970642	response	0	4		17.0	2.5	/experiments/knapen_aot/videos/R_S_production_ID_4325585.mp4	0.0	205.36953687667847	
19	53.56608819961548	movie	1		191.0	17.0	2.5	/experiments/knapen_aot/videos/R_S_production_ID_4325585.mp4	0.0	205.37776398658752	2.5083649158477783
19	54.029927015304565	response	1	4		17.0	2.5	/experiments/knapen_aot/videos/R_S_production_ID_4325585.mp4	0.0	205.8416028022766	
19	56.07445311546326	fix_post	2		12.0	17.0	2.5	/experiments/knapen_aot/videos/R_S_production_ID_4325585.mp4	0.0	207.8861289024353	0.10011100769042969
20	56.17456412315369	fix_pre	0		52.0	18.0	2.5	/experiments/knapen_aot/videos/S_yt-lGQ3wMI5-Yg_140.mp4	0.0	207.98623991012573	0.4331679344177246
20	56.599552154541016	response	0	4		18.0	2.5	/experiments/knapen_aot/videos/S_yt-lGQ3wMI5-Yg_140.mp4	0.0	208.41122794151306	
20	56.60773205757141	movie	1		301.0	18.0	2.5	/experiments/knapen_aot/videos/S_yt-lGQ3wMI5-Yg_140.mp4	0.0	208.41940784454346	2.5085580348968506
20	59.11629009246826	fix_post	2		12.0	18.0	2.5	/experiments/knapen_aot/videos/S_yt-lGQ3wMI5-Yg_140.mp4	0.0	210.9279658794403	0.0997929573059082
21	59.21608304977417	fix_pre	0		331.0	19.0	2.5	/experiments/knapen_aot/videos/S_yt-yQrDeFlFmfM_138.mp4	0.0	211.02775883674622	2.758188009262085
21	61.96606922149658	response	0	4		19.0	2.5	/experiments/knapen_aot/videos/S_yt-yQrDeFlFmfM_138.mp4	0.0	213.77774500846863	
21	61.974271059036255	movie	1		301.0	19.0	2.5	/experiments/knapen_aot/videos/S_yt-yQrDeFlFmfM_138.mp4	0.0	213.7859468460083	2.508449077606201
21	64.48272013664246	fix_post	2		12.0	19.0	2.5	/experiments/knapen_aot/videos/S_yt-yQrDeFlFmfM_138.mp4	0.0	216.2943959236145	0.09997391700744629
22	64.5826940536499	fix_pre	0		102.0	20.0	2.5	blank	1.0	216.39436984062195	0.8499910831451416
22	65.42441701889038	response	0	4		20.0	2.5	blank	1.0	217.23609280586243	
22	65.43268513679504	movie	1		301.0	20.0	2.5	blank	1.0	217.2443609237671	2.508336067199707
22	67.94102120399475	fix_post	2		12.0	20.0	2.5	blank	1.0	219.7526969909668	0.09990787506103516
23	68.04092907905579	fix_pre	0		362.0	21.0	2.5	/experiments/knapen_aot/videos/R_S_bing-www_dailymotion_com_video_x64hzm7_8.mp4	0.0	219.85260486602783	3.01664400100708
23	71.0493791103363	response	0	4		21.0	2.5	/experiments/knapen_aot/videos/R_S_bing-www_dailymotion_com_video_x64hzm7_8.mp4	0.0	222.86105489730835	
23	71.05757308006287	movie	1		171.0	21.0	2.5	/experiments/knapen_aot/videos/R_S_bing-www_dailymotion_com_video_x64hzm7_8.mp4	0.0	222.8692488670349	2.508604049682617
23	73.56617712974548	fix_post	2		12.0	21.0	2.5	/experiments/knapen_aot/videos/R_S_bing-www_dailymotion_com_video_x64hzm7_8.mp4	0.0	225.37785291671753	0.09974789619445801
24	73.66592502593994	fix_pre	0		33.0	22.0	2.5	/experiments/knapen_aot/videos/S_yt-eLQydFSMGCU_75.mp4	0.0	225.477600812912	0.27495312690734863
24	73.9327700138092	response	0	4		22.0	2.5	/experiments/knapen_aot/videos/S_yt-eLQydFSMGCU_75.mp4	0.0	225.74444580078125	
24	73.94087815284729	movie	1		301.0	22.0	2.5	/experiments/knapen_aot/videos/S_yt-eLQydFSMGCU_75.mp4	0.0	225.75255393981934	2.5084228515625
24	76.44930100440979	fix_post	2		12.0	22.0	2.5	/experiments/knapen_aot/videos/S_yt-eLQydFSMGCU_75.mp4	0.0	228.26097679138184	0.10001015663146973
25	76.54931116104126	fix_pre	0		101.0	23.0	2.5	/experiments/knapen_aot/videos/S_pexels-roman-odintsov-8233166.mp4	0.0	228.3609869480133	0.8415958881378174
25	77.38282704353333	response	0	4		23.0	2.5	/experiments/knapen_aot/videos/S_pexels-roman-odintsov-8233166.mp4	0.0	229.19450283050537	
25	77.39090704917908	movie	1		207.0	23.0	2.5	/experiments/knapen_aot/videos/S_pexels-roman-odintsov-8233166.mp4	0.0	229.20258283615112	2.5083229541778564
25	79.89923000335693	fix_post	2		12.0	23.0	2.5	/experiments/knapen_aot/videos/S_pexels-roman-odintsov-8233166.mp4	0.0	231.71090579032898	0.10022902488708496
26	79.99945902824402	fix_pre	0		15.0	24.0	2.5	/experiments/knapen_aot/videos/R_S_ILSVRC2015_train_00743005.mp4	0.0	231.81113481521606	0.12482500076293945
26	80.11599516868591	response	0	4		24.0	2.5	/experiments/knapen_aot/videos/R_S_ILSVRC2015_train_00743005.mp4	0.0	231.92767095565796	
26	80.12428402900696	movie	1		300.0	24.0	2.5	/experiments/knapen_aot/videos/R_S_ILSVRC2015_train_00743005.mp4	0.0	231.935959815979	2.508366107940674
26	81.00879120826721	response	1	4		24.0	2.5	/experiments/knapen_aot/videos/R_S_ILSVRC2015_train_00743005.mp4	0.0	232.82046699523926	
26	82.63265013694763	fix_post	2		12.0	24.0	2.5	/experiments/knapen_aot/videos/R_S_ILSVRC2015_train_00743005.mp4	0.0	234.44432592391968	0.0999610424041748
27	82.7326111793518	fix_pre	0		154.0	25.0	2.5	/experiments/knapen_aot/videos/S_yt-FMIevUic_XY_50.mp4	0.0	234.54428696632385	1.2832589149475098
27	84.00770807266235	response	0	4		25.0	2.5	/experiments/knapen_aot/videos/S_yt-FMIevUic_XY_50.mp4	0.0	235.8193838596344	
27	84.01587009429932	movie	1		301.0	25.0	2.5	/experiments/knapen_aot/videos/S_yt-FMIevUic_XY_50.mp4	0.0	235.82754588127136	2.508402109146118
27	86.52427220344543	fix_post	2		12.0	25.0	2.5	/experiments/knapen_aot/videos/S_yt-FMIevUic_XY_50.mp4	0.0	238.33594799041748	0.10000085830688477
28	86.62427306175232	fix_pre	0		13.0	26.0	2.5	/experiments/knapen_aot/videos/R_S_yt-N1EsjM9gD5Q_21.mp4	0.0	238.43594884872437	0.10829305648803711
28	86.72438621520996	response	0	4		26.0	2.5	/experiments/knapen_aot/videos/R_S_yt-N1EsjM9gD5Q_21.mp4	0.0	238.536062002182	
28	86.73256611824036	movie	1		301.0	26.0	2.5	/experiments/knapen_aot/videos/R_S_yt-N1EsjM9gD5Q_21.mp4	0.0	238.5442419052124	2.5085580348968506
28	89.2411241531372	fix_post	2		12.0	26.0	2.5	/experiments/knapen_aot/videos/R_S_yt-N1EsjM9gD5Q_21.mp4	0.0	241.05279994010925	0.09976887702941895
29	89.34089303016663	fix_pre	0		22.0	27.0	2.5	blank	1.0	241.15256881713867	0.18330717086791992
29	89.51602005958557	response	0	4		27.0	2.5	blank	1.0	241.32769584655762	
29	89.52420020103455	movie	1		301.0	27.0	2.5	blank	1.0	241.3358759880066	2.5084879398345947
29	92.03268814086914	fix_post	2		12.0	27.0	2.5	blank	1.0	243.8443639278412	0.09981203079223633
30	92.13250017166138	fix_pre	0		63.0	28.0	2.5	/experiments/knapen_aot/videos/S_yt-HwEfWfFJhRo_73.mp4	0.0	243.94417595863342	0.5250959396362305
30	92.64936709403992	response	0	4		28.0	2.5	/experiments/knapen_aot/videos/S_yt-HwEfWfFJhRo_73.mp4	0.0	244.46104288101196	
30	92.65759611129761	movie	1		301.0	28.0	2.5	/experiments/knapen_aot/videos/S_yt-HwEfWfFJhRo_73.mp4	0.0	244.46927189826965	2.508289098739624
30	95.16588521003723	fix_post	2		12.0	28.0	2.5	/experiments/knapen_aot/videos/S_yt-HwEfWfFJhRo_73.mp4	0.0	246.97756099700928	0.10000491142272949
31	95.26589012145996	fix_pre	0		27.0	29.0	2.5	/experiments/knapen_aot/videos/S_comp_LW_L001_C006_PSNK_DENOISE_v02_SDR_PS_FINAL_20180709_SDR_2K_AVC.mp4	0.0	247.077565908432	0.22503399848937988
31	95.4827241897583	response	0	4		29.0	2.5	/experiments/knapen_aot/videos/S_comp_LW_L001_C006_PSNK_DENOISE_v02_SDR_PS_FINAL_20180709_SDR_2K_AVC.mp4	0.0	247.29439997673035	
31	95.49092411994934	movie	1		163.0	29.0	2.5	/experiments/knapen_aot/videos/S_comp_LW_L001_C006_PSNK_DENOISE_v02_SDR_PS_FINAL_20180709_SDR_2K_AVC.mp4	0.0	247.3025999069214	2.5085039138793945
31	97.99942803382874	fix_post	2		12.0	29.0	2.5	/experiments/knapen_aot/videos/S_comp_LW_L001_C006_PSNK_DENOISE_v02_SDR_PS_FINAL_20180709_SDR_2K_AVC.mp4	0.0	249.81110382080078	0.09978699684143066
32	98.09921503067017	fix_pre	0		26.0	30.0	2.5	/experiments/knapen_aot/videos/R_S_yt-2IxVZeiSv3g_28.mp4	0.0	249.9108908176422	0.2166140079498291
32	98.30771017074585	response	0	4		30.0	2.5	/experiments/knapen_aot/videos/R_S_yt-2IxVZeiSv3g_28.mp4	0.0	250.1193859577179	
32	98.31582903862	movie	1		301.0	30.0	2.5	/experiments/knapen_aot/videos/R_S_yt-2IxVZeiSv3g_28.mp4	0.0	250.12750482559204	2.5083510875701904
32	100.82418012619019	fix_post	2		12.0	30.0	2.5	/experiments/knapen_aot/videos/R_S_yt-2IxVZeiSv3g_28.mp4	0.0	252.63585591316223	0.10001492500305176
33	100.92419505119324	fix_pre	0		38.0	31.0	2.5	/experiments/knapen_aot/videos/R_S_comp_GMT060_117NC_363D_1034_AUSTRALIA_v35_SDR_PS_FINAL_20180731_SDR_2K_AVC.mp4	0.0	252.73587083816528	0.3166470527648926
33	101.2326271533966	response	0	4		31.0	2.5	/experiments/knapen_aot/videos/R_S_comp_GMT060_117NC_363D_1034_AUSTRALIA_v35_SDR_PS_FINAL_20180731_SDR_2K_AVC.mp4	0.0	253.04430294036865	
33	101.24084210395813	movie	1		165.0	31.0	2.5	/experiments/knapen_aot/videos/R_S_comp_GMT060_117NC_363D_1034_AUSTRALIA_v35_SDR_PS_FINAL_20180731_SDR_2K_AVC.mp4	0.0	253.05251789093018	2.5083980560302734
33	103.7492401599884	fix_post	2		12.0	31.0	2.5	/experiments/knapen_aot/videos/R_S_comp_GMT060_117NC_363D_1034_AUSTRALIA_v35_SDR_PS_FINAL_20180731_SDR_2K_AVC.mp4	0.0	255.56091594696045	0.09989690780639648
34	103.8491370677948	fix_pre	0		17.0	32.0	2.5	/experiments/knapen_aot/videos/S_yt-7XDVHp75fu4_93.mp4	0.0	255.66081285476685	0.1416490077972412
34	103.98265218734741	response	0	4		32.0	2.5	/experiments/knapen_aot/videos/S_yt-7XDVHp75fu4_93.mp4	0.0	255.79432797431946	
34	103.99078607559204	movie	1		301.0	32.0	2.5	/experiments/knapen_aot/videos/S_yt-7XDVHp75fu4_93.mp4	0.0	255.8024618625641	2.508754014968872
34	106.17515802383423	response	1	4		32.0	2.5	/experiments/knapen_aot/videos/S_yt-7XDVHp75fu4_93.mp4	0.0	257.9868338108063	
34	106.49954009056091	fix_post	2		12.0	32.0	2.5	/experiments/knapen_aot/videos/S_yt-7XDVHp75fu4_93.mp4	0.0	258.31121587753296	0.09962892532348633
35	106.5991690158844	fix_pre	0		40.0	33.0	2.5	/experiments/knapen_aot/videos/R_S_yt-JtR6WZXT2kU_8.mp4	0.0	258.41084480285645	0.3333420753479004
35	106.92431402206421	response	0	4		33.0	2.5	/experiments/knapen_aot/videos/R_S_yt-JtR6WZXT2kU_8.mp4	0.0	258.73598980903625	
35	106.9325110912323	movie	1		301.0	33.0	2.5	/experiments/knapen_aot/videos/R_S_yt-JtR6WZXT2kU_8.mp4	0.0	258.74418687820435	2.5084080696105957
35	109.4409191608429	fix_post	2		12.0	33.0	2.5	/experiments/knapen_aot/videos/R_S_yt-JtR6WZXT2kU_8.mp4	0.0	261.25259494781494	0.09991693496704102
36	109.54083609580994	fix_pre	0		33.0	34.0	2.5	blank	1.0	261.352511882782	0.2749459743499756
36	109.80758118629456	response	0	4		34.0	2.5	blank	1.0	261.6192569732666	
36	109.81578207015991	movie	1		301.0	34.0	2.5	blank	1.0	261.62745785713196	2.508450984954834
36	111.67419815063477	response	1	4		34.0	2.5	blank	1.0	263.4858739376068	
36	112.32423305511475	fix_post	2		12.0	34.0	2.5	blank	1.0	264.1359088420868	0.10015201568603516
37	112.42438507080078	fix_pre	0		23.0	35.0	2.5	/experiments/knapen_aot/videos/S_yt-y6zr69M0yHI_76.mp4	0.0	264.2360608577728	0.19139695167541504
37	112.60753202438354	response	0	4		35.0	2.5	/experiments/knapen_aot/videos/S_yt-y6zr69M0yHI_76.mp4	0.0	264.4192078113556	
37	112.6157820224762	movie	1		301.0	35.0	2.5	/experiments/knapen_aot/videos/S_yt-y6zr69M0yHI_76.mp4	0.0	264.42745780944824	2.5083670616149902
37	115.12414908409119	fix_post	2		12.0	35.0	2.5	/experiments/knapen_aot/videos/S_yt-y6zr69M0yHI_76.mp4	0.0	266.93582487106323	0.10002613067626953
38	115.22417521476746	fix_pre	0		30.0	36.0	2.5	/experiments/knapen_aot/videos/R_S_yt-n_eO-7KedAE_21.mp4	0.0	267.0358510017395	0.2499067783355713
38	115.46582317352295	response	0	4		36.0	2.5	/experiments/knapen_aot/videos/R_S_yt-n_eO-7KedAE_21.mp4	0.0	267.277498960495	
38	115.47408199310303	movie	1		301.0	36.0	2.5	/experiments/knapen_aot/videos/R_S_yt-n_eO-7KedAE_21.mp4	0.0	267.2857577800751	2.5083770751953125
38	117.98245906829834	fix_post	2		12.0	36.0	2.5	/experiments/knapen_aot/videos/R_S_yt-n_eO-7KedAE_21.mp4	0.0	269.7941348552704	0.10001397132873535
39	118.08247303962708	fix_pre	0		9.0	37.0	2.5	/experiments/knapen_aot/videos/R_S_ILSVRC2015_train_00572000.mp4	0.0	269.8941488265991	0.07493400573730469
39	118.1492850780487	response	0	4		37.0	2.5	/experiments/knapen_aot/videos/R_S_ILSVRC2015_train_00572000.mp4	0.0	269.96096086502075	
39	118.15740704536438	movie	1		301.0	37.0	2.5	/experiments/knapen_aot/videos/R_S_ILSVRC2015_train_00572000.mp4	0.0	269.9690828323364	2.50839900970459
39	120.66580605506897	fix_post	2		12.0	37.0	2.5	/experiments/knapen_aot/videos/R_S_ILSVRC2015_train_00572000.mp4	0.0	272.477481842041	0.09992408752441406
40	120.76573014259338	fix_pre	0		27.0	38.0	2.5	/experiments/knapen_aot/videos/R_S_yt-tX5U0Lyo6Gs_376.mp4	0.0	272.57740592956543	0.22498202323913574
40	120.9826250076294	response	0	4		38.0	2.5	/experiments/knapen_aot/videos/R_S_yt-tX5U0Lyo6Gs_376.mp4	0.0	272.79430079460144	
40	120.99071216583252	movie	1		301.0	38.0	2.5	/experiments/knapen_aot/videos/R_S_yt-tX5U0Lyo6Gs_376.mp4	0.0	272.80238795280457	2.5083539485931396
40	123.49906611442566	fix_post	2		12.0	38.0	2.5	/experiments/knapen_aot/videos/R_S_yt-tX5U0Lyo6Gs_376.mp4	0.0	275.3107419013977	0.1000828742980957
41	123.59914898872375	fix_pre	0		27.0	39.0	2.5	/experiments/knapen_aot/videos/S_comp_GMT060_117NC_363D_1034_AUSTRALIA_v35_SDR_PS_FINAL_20180731_SDR_2K_AVC.mp4	0.0	275.4108247756958	0.2248680591583252
41	123.81586718559265	response	0	4		39.0	2.5	/experiments/knapen_aot/videos/S_comp_GMT060_117NC_363D_1034_AUSTRALIA_v35_SDR_PS_FINAL_20180731_SDR_2K_AVC.mp4	0.0	275.6275429725647	
41	123.82401704788208	movie	1		164.0	39.0	2.5	/experiments/knapen_aot/videos/S_comp_GMT060_117NC_363D_1034_AUSTRALIA_v35_SDR_PS_FINAL_20180731_SDR_2K_AVC.mp4	0.0	275.6356928348541	2.508402109146118
41	126.3324191570282	fix_post	2		12.0	39.0	2.5	/experiments/knapen_aot/videos/S_comp_GMT060_117NC_363D_1034_AUSTRALIA_v35_SDR_PS_FINAL_20180731_SDR_2K_AVC.mp4	0.0	278.14409494400024	0.10001587867736816
42	126.43243503570557	fix_pre	0		11.0	40.0	2.5	/experiments/knapen_aot/videos/R_S_Y009_C015_SDR_2K_AVC.mp4	0.0	278.2441108226776	0.0916280746459961
42	126.51587700843811	response	0	4		40.0	2.5	/experiments/knapen_aot/videos/R_S_Y009_C015_SDR_2K_AVC.mp4	0.0	278.32755279541016	
42	126.52406311035156	movie	1		200.0	40.0	2.5	/experiments/knapen_aot/videos/R_S_Y009_C015_SDR_2K_AVC.mp4	0.0	278.3357388973236	2.5082929134368896
42	129.03235602378845	fix_post	2		12.0	40.0	2.5	/experiments/knapen_aot/videos/R_S_Y009_C015_SDR_2K_AVC.mp4	0.0	280.8440318107605	0.10009312629699707
43	129.13244915008545	fix_pre	0		19.0	41.0	2.5	/experiments/knapen_aot/videos/R_S_Pexels_Videos_278654_1.mp4	0.0	280.9441249370575	0.15823793411254883
43	129.28257203102112	response	0	4		41.0	2.5	/experiments/knapen_aot/videos/R_S_Pexels_Videos_278654_1.mp4	0.0	281.09424781799316	
43	129.290687084198	movie	1		166.0	41.0	2.5	/experiments/knapen_aot/videos/R_S_Pexels_Videos_278654_1.mp4	0.0	281.10236287117004	2.5083770751953125
43	131.7990641593933	fix_post	2		12.0	41.0	2.5	/experiments/knapen_aot/videos/R_S_Pexels_Videos_278654_1.mp4	0.0	283.61073994636536	0.09999895095825195
44	131.89906311035156	fix_pre	0		36.0	42.0	2.5	blank	1.0	283.7107388973236	0.29999494552612305
44	132.19084000587463	response	0	4		42.0	2.5	blank	1.0	284.0025157928467	
44	132.19905805587769	movie	1		301.0	42.0	2.5	blank	1.0	284.01073384284973	2.508327007293701
44	134.7073850631714	fix_post	2		12.0	42.0	2.5	blank	1.0	286.51906085014343	0.10000801086425781
45	134.80739307403564	fix_pre	0		66.0	43.0	2.5	/experiments/knapen_aot/videos/R_S_yt-n_eO-7KedAE_21.mp4	0.0	286.6190688610077	0.5499129295349121
45	135.34923911094666	response	0	4		43.0	2.5	/experiments/knapen_aot/videos/R_S_yt-n_eO-7KedAE_21.mp4	0.0	287.1609148979187	
45	135.35730600357056	movie	1		301.0	43.0	2.5	/experiments/knapen_aot/videos/R_S_yt-n_eO-7KedAE_21.mp4	0.0	287.1689817905426	2.5082921981811523
45	137.8655982017517	fix_post	2		12.0	43.0	2.5	/experiments/knapen_aot/videos/R_S_yt-n_eO-7KedAE_21.mp4	0.0	289.67727398872375	0.10008883476257324
46	137.96568703651428	fix_pre	0		42.0	44.0	2.5	/experiments/knapen_aot/videos/S_production_ID_4707837.mp4	0.0	289.7773628234863	0.3499469757080078
46	138.30752110481262	response	0	4		44.0	2.5	/experiments/knapen_aot/videos/S_production_ID_4707837.mp4	0.0	290.11919689178467	
46	138.3156340122223	movie	1		168.0	44.0	2.5	/experiments/knapen_aot/videos/S_production_ID_4707837.mp4	0.0	290.12730979919434	2.508608102798462
46	140.82424211502075	fix_post	2		12.0	44.0	2.5	/experiments/knapen_aot/videos/S_production_ID_4707837.mp4	0.0	292.6359179019928	0.09983301162719727
47	140.92407512664795	fix_pre	0		43.0	45.0	2.5	/experiments/knapen_aot/videos/S_yt-Fm97IY0Z2LU_79.mp4	0.0	292.73575091362	0.35822296142578125
47	141.27413415908813	response	0	4		45.0	2.5	/experiments/knapen_aot/videos/S_yt-Fm97IY0Z2LU_79.mp4	0.0	293.0858099460602	
47	141.28229808807373	movie	1		301.0	45.0	2.5	/experiments/knapen_aot/videos/S_yt-Fm97IY0Z2LU_79.mp4	0.0	293.0939738750458	2.5084331035614014
47	143.79073119163513	fix_post	2		12.0	45.0	2.5	/experiments/knapen_aot/videos/S_yt-Fm97IY0Z2LU_79.mp4	0.0	295.6024069786072	0.09997200965881348
48	143.89070320129395	fix_pre	0		38.0	46.0	2.5	/experiments/knapen_aot/videos/R_S_yt-_BvMLZo0MG0_1226.mp4	0.0	295.702378988266	0.31654787063598633
48	144.19909501075745	response	0	4		46.0	2.5	/experiments/knapen_aot/videos/R_S_yt-_BvMLZo0MG0_1226.mp4	0.0	296.0107707977295	
48	144.20725107192993	movie	1		301.0	46.0	2.5	/experiments/knapen_aot/videos/R_S_yt-_BvMLZo0MG0_1226.mp4	0.0	296.018926858902	2.508531093597412
48	146.71578216552734	fix_post	2		12.0	46.0	2.5	/experiments/knapen_aot/videos/R_S_yt-_BvMLZo0MG0_1226.mp4	0.0	298.5274579524994	0.09990382194519043
49	146.81568598747253	fix_pre	0		27.0	47.0	2.5	blank	1.0	298.6273617744446	0.22502422332763672
49	147.03239107131958	response	0	4		47.0	2.5	blank	1.0	298.8440668582916	
49	147.04071021080017	movie	1		301.0	47.0	2.5	blank	1.0	298.8523859977722	2.508288860321045
49	149.54899907112122	fix_post	2		12.0	47.0	2.5	blank	1.0	301.36067485809326	0.09993505477905273
50	149.64893412590027	fix_pre	0		29.0	48.0	2.5	/experiments/knapen_aot/videos/S_yt-waWM9vAfsIw_116.mp4	0.0	301.4606099128723	0.24168086051940918
50	149.8824610710144	response	0	4		48.0	2.5	/experiments/knapen_aot/videos/S_yt-waWM9vAfsIw_116.mp4	0.0	301.69413685798645	
50	149.89061498641968	movie	1		301.0	48.0	2.5	/experiments/knapen_aot/videos/S_yt-waWM9vAfsIw_116.mp4	0.0	301.7022907733917	2.508388042449951
50	152.39900302886963	fix_post	2		12.0	48.0	2.5	/experiments/knapen_aot/videos/S_yt-waWM9vAfsIw_116.mp4	0.0	304.2106788158417	0.10005903244018555
51	152.49906206130981	fix_pre	0		34.0	49.0	2.5	/experiments/knapen_aot/videos/R_S_yt-0aHV3uU8xFY_75.mp4	0.0	304.31073784828186	0.28323912620544434
51	152.77404499053955	response	0	4		49.0	2.5	/experiments/knapen_aot/videos/R_S_yt-0aHV3uU8xFY_75.mp4	0.0	304.5857207775116	
51	152.78230118751526	movie	1		301.0	49.0	2.5	/experiments/knapen_aot/videos/R_S_yt-0aHV3uU8xFY_75.mp4	0.0	304.5939769744873	2.508558988571167
51	155.29086017608643	fix_post	2		12.0	49.0	2.5	/experiments/knapen_aot/videos/R_S_yt-0aHV3uU8xFY_75.mp4	0.0	307.1025359630585	0.09980392456054688
52	155.39066410064697	fix_pre	0		62.0	50.0	2.5	/experiments/knapen_aot/videos/S_Pexels_Videos_2795171.mp4	0.0	307.202339887619	0.5166521072387695
52	155.8991470336914	response	0	4		50.0	2.5	/experiments/knapen_aot/videos/S_Pexels_Videos_2795171.mp4	0.0	307.71082282066345	
52	155.90731620788574	movie	1		165.0	50.0	2.5	/experiments/knapen_aot/videos/S_Pexels_Videos_2795171.mp4	0.0	307.7189919948578	2.508366823196411
52	158.2240731716156	response	1	4		50.0	2.5	/experiments/knapen_aot/videos/S_Pexels_Videos_2795171.mp4	0.0	310.03574895858765	
52	158.41568303108215	fix_post	2		12.0	50.0	2.5	/experiments/knapen_aot/videos/S_Pexels_Videos_2795171.mp4	0.0	310.2273588180542	0.09997415542602539
53	158.51565718650818	fix_pre	0		62.0	51.0	2.5	/experiments/knapen_aot/videos/S_yt-cgYmOmMzn98_103.mp4	0.0	310.3273329734802	0.5166068077087402
53	159.02406811714172	response	0	4		51.0	2.5	/experiments/knapen_aot/videos/S_yt-cgYmOmMzn98_103.mp4	0.0	310.83574390411377	
53	159.03226399421692	movie	1		301.0	51.0	2.5	/experiments/knapen_aot/videos/S_yt-cgYmOmMzn98_103.mp4	0.0	310.84393978118896	2.5083351135253906
53	161.5405991077423	fix_post	2		12.0	51.0	2.5	/experiments/knapen_aot/videos/S_yt-cgYmOmMzn98_103.mp4	0.0	313.35227489471436	0.1000370979309082
54	161.64063620567322	fix_pre	0		32.0	52.0	2.5	/experiments/knapen_aot/videos/S_yt-qBPDvSQD0XY_5.mp4	0.0	313.45231199264526	0.26662588119506836
54	161.89910411834717	response	0	4		52.0	2.5	/experiments/knapen_aot/videos/S_yt-qBPDvSQD0XY_5.mp4	0.0	313.7107799053192	
54	161.9072620868683	movie	1		301.0	52.0	2.5	/experiments/knapen_aot/videos/S_yt-qBPDvSQD0XY_5.mp4	0.0	313.71893787384033	2.50833797454834
54	164.41560006141663	fix_post	2		12.0	52.0	2.5	/experiments/knapen_aot/videos/S_yt-qBPDvSQD0XY_5.mp4	0.0	316.2272758483887	0.09999704360961914
55	164.51559710502625	fix_pre	0		165.0	53.0	2.5	/experiments/knapen_aot/videos/S_yt-w_e3sxIzepA_27.mp4	0.0	316.3272728919983	1.3749949932098389
55	165.88233017921448	response	0	4		53.0	2.5	/experiments/knapen_aot/videos/S_yt-w_e3sxIzepA_27.mp4	0.0	317.6940059661865	
55	165.89059209823608	movie	1		301.0	53.0	2.5	/experiments/knapen_aot/videos/S_yt-w_e3sxIzepA_27.mp4	0.0	317.70226788520813	2.5083460807800293
55	168.3989381790161	fix_post	2		12.0	53.0	2.5	/experiments/knapen_aot/videos/S_yt-w_e3sxIzepA_27.mp4	0.0	320.21061396598816	0.10015487670898438
56	168.4990930557251	fix_pre	0		23.0	54.0	2.5	/experiments/knapen_aot/videos/S_FZ0hLmjCR0s_26.mp4	0.0	320.31076884269714	0.19145703315734863
56	168.6824381351471	response	0	4		54.0	2.5	/experiments/knapen_aot/videos/S_FZ0hLmjCR0s_26.mp4	0.0	320.49411392211914	
56	168.69055008888245	movie	1		301.0	54.0	2.5	/experiments/knapen_aot/videos/S_FZ0hLmjCR0s_26.mp4	0.0	320.5022258758545	2.5083401203155518
56	171.198890209198	fix_post	2		12.0	54.0	2.5	/experiments/knapen_aot/videos/S_FZ0hLmjCR0s_26.mp4	0.0	323.01056599617004	0.09999394416809082
57	171.2988841533661	fix_pre	0		30.0	55.0	2.5	/experiments/knapen_aot/videos/S_production_ID_4428752.mp4	0.0	323.11055994033813	0.25060486793518066
57	171.5406470298767	response	0	4		55.0	2.5	/experiments/knapen_aot/videos/S_production_ID_4428752.mp4	0.0	323.35232281684875	
57	171.54948902130127	movie	1		163.0	55.0	2.5	/experiments/knapen_aot/videos/S_production_ID_4428752.mp4	0.0	323.3611648082733	2.5077550411224365
57	174.0572440624237	fix_post	2		12.0	55.0	2.5	/experiments/knapen_aot/videos/S_production_ID_4428752.mp4	0.0	325.86891984939575	0.10001015663146973
58	174.15725421905518	fix_pre	0		31.0	56.0	2.5	blank	1.0	325.9689300060272	0.2583439350128174
58	174.40728116035461	response	0	4		56.0	2.5	blank	1.0	326.21895694732666	
58	174.415598154068	movie	1		301.0	56.0	2.5	blank	1.0	326.22727394104004	2.5082929134368896
58	176.92389106750488	fix_post	2		12.0	56.0	2.5	blank	1.0	328.73556685447693	0.09993410110473633
59	177.02382516860962	fix_pre	0		38.0	57.0	2.5	/experiments/knapen_aot/videos/R_S_yt-iAQ98zgVlds_97.mp4	0.0	328.83550095558167	0.31722497940063477
59	177.3322491645813	response	0	4		57.0	2.5	/experiments/knapen_aot/videos/R_S_yt-iAQ98zgVlds_97.mp4	0.0	329.14392495155334	
59	177.34105014801025	movie	1		301.0	57.0	2.5	/experiments/knapen_aot/videos/R_S_yt-iAQ98zgVlds_97.mp4	0.0	329.1527259349823	2.507807970046997
59	179.84885811805725	fix_post	2		12.0	57.0	2.5	/experiments/knapen_aot/videos/R_S_yt-iAQ98zgVlds_97.mp4	0.0	331.6605339050293	0.09999608993530273
60	179.94885420799255	fix_pre	0		55.0	58.0	2.5	/experiments/knapen_aot/videos/R_S_ahJft-G235A_122.mp4	0.0	331.7605299949646	0.45828986167907715
60	180.3989851474762	response	0	4		58.0	2.5	/experiments/knapen_aot/videos/R_S_ahJft-G235A_122.mp4	0.0	332.21066093444824	
60	180.40714406967163	movie	1		301.0	58.0	2.5	/experiments/knapen_aot/videos/R_S_ahJft-G235A_122.mp4	0.0	332.2188198566437	2.5083720684051514
60	182.67450714111328	response	1	4		58.0	2.5	/experiments/knapen_aot/videos/R_S_ahJft-G235A_122.mp4	0.0	334.4861829280853	
60	182.91551613807678	fix_post	2		12.0	58.0	2.5	/experiments/knapen_aot/videos/R_S_ahJft-G235A_122.mp4	0.0	334.7271919250488	0.0999910831451416
61	183.01550722122192	fix_pre	0		29.0	59.0	2.5	/experiments/knapen_aot/videos/S_flickr-csgzs-8144064966_10.mp4	0.0	334.82718300819397	0.24213290214538574
61	183.2489631175995	response	0	4		59.0	2.5	/experiments/knapen_aot/videos/S_flickr-csgzs-8144064966_10.mp4	0.0	335.06063890457153	
61	183.2576401233673	movie	1		301.0	59.0	2.5	/experiments/knapen_aot/videos/S_flickr-csgzs-8144064966_10.mp4	0.0	335.06931591033936	2.50780987739563
61	185.76545000076294	fix_post	2		12.0	59.0	2.5	/experiments/knapen_aot/videos/S_flickr-csgzs-8144064966_10.mp4	0.0	337.577125787735	0.10008811950683594
62	185.86553812026978	fix_pre	0		41.0	60.0	2.5	/experiments/knapen_aot/videos/S_yt-bQRBtP9zkms_111.mp4	0.0	337.6772139072418	0.34161996841430664
62	186.199059009552	response	0	4		60.0	2.5	/experiments/knapen_aot/videos/S_yt-bQRBtP9zkms_111.mp4	0.0	338.01073479652405	
62	186.20715808868408	movie	1		299.0	60.0	2.5	/experiments/knapen_aot/videos/S_yt-bQRBtP9zkms_111.mp4	0.0	338.0188338756561	2.508371114730835
62	188.71552920341492	fix_post	2		12.0	60.0	2.5	/experiments/knapen_aot/videos/S_yt-bQRBtP9zkms_111.mp4	0.0	340.52720499038696	0.10016584396362305
63	188.81569504737854	fix_pre	0		48.0	61.0	2.5	/experiments/knapen_aot/videos/S_yt-hdZEAsVBEEM_19.mp4	0.0	340.6273708343506	0.4003570079803467
63	189.20725512504578	response	0	4		61.0	2.5	/experiments/knapen_aot/videos/S_yt-hdZEAsVBEEM_19.mp4	0.0	341.0189309120178	
63	189.2160520553589	movie	1		301.0	61.0	2.5	/experiments/knapen_aot/videos/S_yt-hdZEAsVBEEM_19.mp4	0.0	341.02772784233093	2.5077590942382812
63	191.72381114959717	fix_post	2		12.0	61.0	2.5	/experiments/knapen_aot/videos/S_yt-hdZEAsVBEEM_19.mp4	0.0	343.5354869365692	0.10006284713745117
63	191.7739450931549	response	2	4		61.0	2.5	/experiments/knapen_aot/videos/S_yt-hdZEAsVBEEM_19.mp4	0.0	343.58562088012695	
64	191.82387399673462	fix_pre	0		214.0	62.0	2.5	blank	1.0	343.63554978370667	1.7832062244415283
64	193.5989441871643	response	0	4		62.0	2.5	blank	1.0	345.41061997413635	
64	193.60708022117615	movie	1		301.0	62.0	2.5	blank	1.0	345.4187560081482	2.508370876312256
64	196.1154510974884	fix_post	2		12.0	62.0	2.5	blank	1.0	347.92712688446045	0.10052800178527832
65	196.21597909927368	fix_pre	0		36.0	63.0	2.5	/experiments/knapen_aot/videos/S_yt-nqRBIR8dFYc_328.mp4	0.0	348.0276548862457	0.2994050979614258
65	196.50723600387573	response	0	4		63.0	2.5	/experiments/knapen_aot/videos/S_yt-nqRBIR8dFYc_328.mp4	0.0	348.3189117908478	
65	196.5153841972351	movie	1		301.0	63.0	2.5	/experiments/knapen_aot/videos/S_yt-nqRBIR8dFYc_328.mp4	0.0	348.32705998420715	2.508443832397461
65	199.02382802963257	fix_post	2		12.0	63.0	2.5	/experiments/knapen_aot/videos/S_yt-nqRBIR8dFYc_328.mp4	0.0	350.8355038166046	0.10014200210571289
66	199.12397003173828	fix_pre	0		39.0	64.0	2.5	/experiments/knapen_aot/videos/S_yt-lazG9z4VQAw_99.mp4	0.0	350.9356458187103	0.324753999710083
66	199.44054508209229	response	0	4		64.0	2.5	/experiments/knapen_aot/videos/S_yt-lazG9z4VQAw_99.mp4	0.0	351.25222086906433	
66	199.44872403144836	movie	1		301.0	64.0	2.5	/experiments/knapen_aot/videos/S_yt-lazG9z4VQAw_99.mp4	0.0	351.2603998184204	2.5083529949188232
66	201.9570770263672	fix_post	2		12.0	64.0	2.5	/experiments/knapen_aot/videos/S_yt-lazG9z4VQAw_99.mp4	0.0	353.76875281333923	0.10000205039978027
67	202.05707907676697	fix_pre	0		31.0	65.0	2.5	/experiments/knapen_aot/videos/R_S_comp_GL_G010_C006_PSNK_NOSUN_v12_SDR_PS_FINAL_20180709_SDR_2K_AVC.mp4	0.0	353.868754863739	0.2584190368652344
67	202.30716919898987	response	0	4		65.0	2.5	/experiments/knapen_aot/videos/R_S_comp_GL_G010_C006_PSNK_NOSUN_v12_SDR_PS_FINAL_20180709_SDR_2K_AVC.mp4	0.0	354.1188449859619	
67	202.3154981136322	movie	1		166.0	65.0	2.5	/experiments/knapen_aot/videos/R_S_comp_GL_G010_C006_PSNK_NOSUN_v12_SDR_PS_FINAL_20180709_SDR_2K_AVC.mp4	0.0	354.12717390060425	2.508236885070801
67	204.25596714019775	response	1	4		65.0	2.5	/experiments/knapen_aot/videos/R_S_comp_GL_G010_C006_PSNK_NOSUN_v12_SDR_PS_FINAL_20180709_SDR_2K_AVC.mp4	0.0	356.0676429271698	
67	204.823734998703	fix_post	2		12.0	65.0	2.5	/experiments/knapen_aot/videos/R_S_comp_GL_G010_C006_PSNK_NOSUN_v12_SDR_PS_FINAL_20180709_SDR_2K_AVC.mp4	0.0	356.63541078567505	0.10002303123474121
68	204.92375802993774	fix_pre	0		10.0	66.0	2.5	/experiments/knapen_aot/videos/R_S_yt-NuZy8Rjk4d0_156.mp4	0.0	356.7354338169098	0.08367800712585449
68	204.99872517585754	response	0	4		66.0	2.5	/experiments/knapen_aot/videos/R_S_yt-NuZy8Rjk4d0_156.mp4	0.0	356.8104009628296	
68	205.0074360370636	movie	1		301.0	66.0	2.5	/experiments/knapen_aot/videos/R_S_yt-NuZy8Rjk4d0_156.mp4	0.0	356.81911182403564	2.508178949356079
68	205.61561107635498	response	1	4		66.0	2.5	/experiments/knapen_aot/videos/R_S_yt-NuZy8Rjk4d0_156.mp4	0.0	357.427286863327	
68	207.51561498641968	fix_post	2		12.0	66.0	2.5	/experiments/knapen_aot/videos/R_S_yt-NuZy8Rjk4d0_156.mp4	0.0	359.3272907733917	0.09986519813537598
69	207.61548018455505	fix_pre	0		91.0	67.0	2.5	/experiments/knapen_aot/videos/S_yt-0aHV3uU8xFY_75.mp4	0.0	359.4271559715271	0.7582089900970459
69	208.3655970096588	response	0	4		67.0	2.5	/experiments/knapen_aot/videos/S_yt-0aHV3uU8xFY_75.mp4	0.0	360.17727279663086	
69	208.3736891746521	movie	1		301.0	67.0	2.5	/experiments/knapen_aot/videos/S_yt-0aHV3uU8xFY_75.mp4	0.0	360.18536496162415	2.5083470344543457
69	210.88203620910645	fix_post	2		12.0	67.0	2.5	/experiments/knapen_aot/videos/S_yt-0aHV3uU8xFY_75.mp4	0.0	362.6937119960785	0.10002779960632324
70	210.98206400871277	fix_pre	0		40.0	68.0	2.5	/experiments/knapen_aot/videos/R_S_yt-BLmwmX-mni8_1030.mp4	0.0	362.7937397956848	0.33326101303100586
70	211.30716109275818	response	0	4		68.0	2.5	/experiments/knapen_aot/videos/R_S_yt-BLmwmX-mni8_1030.mp4	0.0	363.1188368797302	
70	211.31532502174377	movie	1		301.0	68.0	2.5	/experiments/knapen_aot/videos/R_S_yt-BLmwmX-mni8_1030.mp4	0.0	363.1270008087158	2.508488178253174
70	211.78549599647522	response	1	4		68.0	2.5	/experiments/knapen_aot/videos/R_S_yt-BLmwmX-mni8_1030.mp4	0.0	363.59717178344727	
70	213.82381319999695	fix_post	2		12.0	68.0	2.5	/experiments/knapen_aot/videos/R_S_yt-BLmwmX-mni8_1030.mp4	0.0	365.635488986969	0.09990692138671875
71	213.92372012138367	fix_pre	0		69.0	69.0	2.5	/experiments/knapen_aot/videos/S_yt-mWlx1SIXl5M_850.mp4	0.0	365.7353959083557	0.5749399662017822
71	214.49039816856384	response	0	4		69.0	2.5	/experiments/knapen_aot/videos/S_yt-mWlx1SIXl5M_850.mp4	0.0	366.3020739555359	
71	214.49866008758545	movie	1		301.0	69.0	2.5	/experiments/knapen_aot/videos/S_yt-mWlx1SIXl5M_850.mp4	0.0	366.3103358745575	2.5084569454193115
71	217.00711703300476	fix_post	2		12.0	69.0	2.5	/experiments/knapen_aot/videos/S_yt-mWlx1SIXl5M_850.mp4	0.0	368.8187928199768	0.09997200965881348
72	217.10708904266357	fix_pre	0		60.0	70.0	2.5	blank	1.0	368.9187648296356	0.49986910820007324
72	217.5987491607666	response	0	4		70.0	2.5	blank	1.0	369.41042494773865	
72	217.60695815086365	movie	1		301.0	70.0	2.5	blank	1.0	369.4186339378357	2.508404016494751
72	218.98210215568542	response	1	4		70.0	2.5	blank	1.0	370.79377794265747	
72	219.607017993927	response	1	4		70.0	2.5	blank	1.0	371.41869378089905	
72	220.1153621673584	fix_post	2		12.0	70.0	2.5	blank	1.0	371.92703795433044	0.10012388229370117
73	220.2154860496521	fix_pre	0		27.0	71.0	2.5	/experiments/knapen_aot/videos/R_S_yt-qBPDvSQD0XY_5.mp4	0.0	372.02716183662415	0.2248680591583252
73	220.4321141242981	response	0	4		71.0	2.5	/experiments/knapen_aot/videos/R_S_yt-qBPDvSQD0XY_5.mp4	0.0	372.24378991127014	
73	220.44035410881042	movie	1		301.0	71.0	2.5	/experiments/knapen_aot/videos/R_S_yt-qBPDvSQD0XY_5.mp4	0.0	372.25202989578247	2.5083730220794678
73	222.52765202522278	response	1	4		71.0	2.5	/experiments/knapen_aot/videos/R_S_yt-qBPDvSQD0XY_5.mp4	0.0	374.3393278121948	
73	222.9487271308899	fix_post	2		12.0	71.0	2.5	/experiments/knapen_aot/videos/R_S_yt-qBPDvSQD0XY_5.mp4	0.0	374.76040291786194	0.10033988952636719
74	223.04906702041626	fix_pre	0		34.0	72.0	2.5	/experiments/knapen_aot/videos/S_yt-yQrDeFlFmfM_138.mp4	0.0	374.8607428073883	0.2829861640930176
74	223.31633400917053	response	0	4		72.0	2.5	/experiments/knapen_aot/videos/S_yt-yQrDeFlFmfM_138.mp4	0.0	375.1280097961426	
74	223.33205318450928	movie	1		301.0	72.0	2.5	/experiments/knapen_aot/videos/S_yt-yQrDeFlFmfM_138.mp4	0.0	375.1437289714813	2.5083768367767334
74	225.840430021286	fix_post	2		12.0	72.0	2.5	/experiments/knapen_aot/videos/S_yt-yQrDeFlFmfM_138.mp4	0.0	377.65210580825806	0.09990406036376953
75	225.94033408164978	fix_pre	0		34.0	73.0	2.5	/experiments/knapen_aot/videos/R_S_ILSVRC2015_train_00595000.mp4	0.0	377.7520098686218	0.2832350730895996
75	226.21542620658875	response	0	4		73.0	2.5	/experiments/knapen_aot/videos/R_S_ILSVRC2015_train_00595000.mp4	0.0	378.0271019935608	
75	226.22356915473938	movie	1		301.0	73.0	2.5	/experiments/knapen_aot/videos/R_S_ILSVRC2015_train_00595000.mp4	0.0	378.0352449417114	2.5083489418029785
75	227.89887118339539	response	1	4		73.0	2.5	/experiments/knapen_aot/videos/R_S_ILSVRC2015_train_00595000.mp4	0.0	379.71054697036743	
75	228.73191809654236	fix_post	2		12.0	73.0	2.5	/experiments/knapen_aot/videos/R_S_ILSVRC2015_train_00595000.mp4	0.0	380.5435938835144	0.10007095336914062
76	228.8319890499115	fix_pre	0		22.0	74.0	2.5	/experiments/knapen_aot/videos/R_S_yt-vQ-rd-1gwH4_238.mp4	0.0	380.64366483688354	0.18331098556518555
76	229.00696420669556	response	0	4		74.0	2.5	/experiments/knapen_aot/videos/R_S_yt-vQ-rd-1gwH4_238.mp4	0.0	380.8186399936676	
76	229.01530003547668	movie	1		301.0	74.0	2.5	/experiments/knapen_aot/videos/R_S_yt-vQ-rd-1gwH4_238.mp4	0.0	380.82697582244873	2.5084030628204346
76	231.52370309829712	fix_post	2		12.0	74.0	2.5	/experiments/knapen_aot/videos/R_S_yt-vQ-rd-1gwH4_238.mp4	0.0	383.33537888526917	0.10019397735595703
77	231.62389707565308	fix_pre	0		15.0	75.0	2.5	/experiments/knapen_aot/videos/R_S_yt-K-iCphzt_RE_17.mp4	0.0	383.4355728626251	0.12473392486572266
77	231.74044609069824	response	0	4		75.0	2.5	/experiments/knapen_aot/videos/R_S_yt-K-iCphzt_RE_17.mp4	0.0	383.5521218776703	
77	231.7486310005188	movie	1		301.0	75.0	2.5	/experiments/knapen_aot/videos/R_S_yt-K-iCphzt_RE_17.mp4	0.0	383.56030678749084	2.5083210468292236
77	232.75736904144287	response	1	4		75.0	2.5	/experiments/knapen_aot/videos/R_S_yt-K-iCphzt_RE_17.mp4	0.0	384.5690448284149	
77	234.25695204734802	fix_post	2		12.0	75.0	2.5	/experiments/knapen_aot/videos/R_S_yt-K-iCphzt_RE_17.mp4	0.0	386.06862783432007	0.09997797012329102
78	234.3569300174713	fix_pre	0		20.0	76.0	2.5	/experiments/knapen_aot/videos/R_S_yt-yQrDeFlFmfM_138.mp4	0.0	386.16860580444336	0.16666102409362793
78	234.50781106948853	response	0	4		76.0	2.5	/experiments/knapen_aot/videos/R_S_yt-yQrDeFlFmfM_138.mp4	0.0	386.31948685646057	
78	234.52359104156494	movie	1		301.0	76.0	2.5	/experiments/knapen_aot/videos/R_S_yt-yQrDeFlFmfM_138.mp4	0.0	386.335266828537	2.5083069801330566
78	237.031898021698	fix_post	2		12.0	76.0	2.5	/experiments/knapen_aot/videos/R_S_yt-yQrDeFlFmfM_138.mp4	0.0	388.84357380867004	0.10033798217773438
79	237.13223600387573	fix_pre	0		6.0	77.0	2.5	blank	1.0	388.9439117908478	0.049697160720825195
79	237.17372703552246	response	0	4		77.0	2.5	blank	1.0	388.9854028224945	
79	237.18193316459656	movie	1		301.0	77.0	2.5	blank	1.0	388.9936089515686	2.5083088874816895
79	238.04865908622742	response	1	4		77.0	2.5	blank	1.0	389.86033487319946	
79	239.69024205207825	fix_post	2		12.0	77.0	2.5	blank	1.0	391.5019178390503	0.10010409355163574
80	239.79034614562988	fix_pre	0		8.0	78.0	2.5	/experiments/knapen_aot/videos/S_yt-0aHV3uU8xFY_75.mp4	0.0	391.60202193260193	0.06658601760864258
80	239.84868907928467	response	0	4		78.0	2.5	/experiments/knapen_aot/videos/S_yt-0aHV3uU8xFY_75.mp4	0.0	391.6603648662567	
80	239.85693216323853	movie	1		301.0	78.0	2.5	/experiments/knapen_aot/videos/S_yt-0aHV3uU8xFY_75.mp4	0.0	391.66860795021057	2.508307933807373
80	241.8270881175995	response	1	4		78.0	2.5	/experiments/knapen_aot/videos/S_yt-0aHV3uU8xFY_75.mp4	0.0	393.63876390457153	
80	242.3652400970459	fix_post	2		12.0	78.0	2.5	/experiments/knapen_aot/videos/S_yt-0aHV3uU8xFY_75.mp4	0.0	394.17691588401794	0.10004305839538574
80	242.44028115272522	response	2	4		78.0	2.5	/experiments/knapen_aot/videos/S_yt-0aHV3uU8xFY_75.mp4	0.0	394.25195693969727	
81	242.46528315544128	fix_pre	0		382.0	79.0	2.5	/experiments/knapen_aot/videos/R_S_yt-2IxVZeiSv3g_28.mp4	0.0	394.27695894241333	3.1832399368286133
81	245.64031100273132	response	0	4		79.0	2.5	/experiments/knapen_aot/videos/R_S_yt-2IxVZeiSv3g_28.mp4	0.0	397.45198678970337	
81	245.6485230922699	movie	1		301.0	79.0	2.5	/experiments/knapen_aot/videos/R_S_yt-2IxVZeiSv3g_28.mp4	0.0	397.46019887924194	2.508333921432495
81	248.1568570137024	fix_post	2		12.0	79.0	2.5	/experiments/knapen_aot/videos/R_S_yt-2IxVZeiSv3g_28.mp4	0.0	399.96853280067444	0.10026097297668457
82	248.25711798667908	fix_pre	0		10.0	80.0	2.5	/experiments/knapen_aot/videos/R_S_yt-316ecr1BT84_44.mp4	0.0	400.0687937736511	0.08319616317749023
82	248.3244571685791	response	0	4		80.0	2.5	/experiments/knapen_aot/videos/R_S_yt-316ecr1BT84_44.mp4	0.0	400.13613295555115	
82	248.34031414985657	movie	1		301.0	80.0	2.5	/experiments/knapen_aot/videos/R_S_yt-316ecr1BT84_44.mp4	0.0	400.1519899368286	2.5082650184631348
82	250.6742901802063	response	1	4		80.0	2.5	/experiments/knapen_aot/videos/R_S_yt-316ecr1BT84_44.mp4	0.0	402.48596596717834	
82	250.8485791683197	fix_post	2		12.0	80.0	2.5	/experiments/knapen_aot/videos/R_S_yt-316ecr1BT84_44.mp4	0.0	402.66025495529175	0.1000068187713623
83	250.94858598709106	fix_pre	0		334.0	81.0	2.5	/experiments/knapen_aot/videos/R_S_yt-4RKOPaRF42o_124.mp4	0.0	402.7602617740631	2.783231019973755
83	253.72369503974915	response	0	4		81.0	2.5	/experiments/knapen_aot/videos/R_S_yt-4RKOPaRF42o_124.mp4	0.0	405.5353708267212	
83	253.73181700706482	movie	1		301.0	81.0	2.5	/experiments/knapen_aot/videos/R_S_yt-4RKOPaRF42o_124.mp4	0.0	405.54349279403687	2.508310079574585
83	256.2401270866394	fix_post	2		12.0	81.0	2.5	/experiments/knapen_aot/videos/R_S_yt-4RKOPaRF42o_124.mp4	0.0	408.05180287361145	0.10024404525756836
84	256.340371131897	fix_pre	0		32.0	82.0	2.5	blank	1.0	408.152046918869	0.2663838863372803
84	256.5986649990082	response	0	4		82.0	2.5	blank	1.0	408.4103407859802	
84	256.60675501823425	movie	1		301.0	82.0	2.5	blank	1.0	408.4184308052063	2.5084340572357178
84	259.11518907546997	fix_post	2		12.0	82.0	2.5	blank	1.0	410.926864862442	0.10015392303466797
85	259.21534299850464	fix_pre	0		146.0	83.0	2.5	/experiments/knapen_aot/videos/S_bing-www_dailymotion_com_video_x64hzm7_8.mp4	0.0	411.0270187854767	1.216500997543335
85	260.42367720603943	response	0	4		83.0	2.5	/experiments/knapen_aot/videos/S_bing-www_dailymotion_com_video_x64hzm7_8.mp4	0.0	412.2353529930115	
85	260.431843996048	movie	1		196.0	83.0	2.5	/experiments/knapen_aot/videos/S_bing-www_dailymotion_com_video_x64hzm7_8.mp4	0.0	412.24351978302	2.5083301067352295
85	262.9401741027832	fix_post	2		12.0	83.0	2.5	/experiments/knapen_aot/videos/S_bing-www_dailymotion_com_video_x64hzm7_8.mp4	0.0	414.75184988975525	0.09998488426208496
87	263.0401589870453	stim	0		67.0					414.85183477401733	0.5583460330963135
87	263.5878210067749	response	0	space						415.39949679374695	
