trial_nr	onset	event_type	phase	response	nr_frames	movie_index	movie_duration	movie_file	blank	onset_abs	duration
0	0.16299104690551758	stim	0		38.0					54.52466607093811	0.3202359676361084
0	0.47571492195129395	response	0	space						54.83738994598389	
1	0.483227014541626	stim	0		121.0					54.84490203857422	1.0082619190216064
1	1.371258020401001	response	0	4						55.732933044433594	
1	1.4914889335632324	stim	1		120.0					55.853163957595825	0.99971604347229
1	1.7171690464019775	response	1	space						56.07884407043457	
1	2.1837680339813232	response	1	space						56.545443058013916	
2	2.4912049770355225	fix_pre	0		29.0	0.0	2.5	/experiments/knapen_aot/videos/S_yt-zlbtESb7Fcw_28.mp4	0.0	56.852880001068115	0.24169206619262695
2	2.7247300148010254	response	0	space		0.0	2.5	/experiments/knapen_aot/videos/S_yt-zlbtESb7Fcw_28.mp4	0.0	57.08640503883362	
2	2.7328970432281494	movie	1		301.0	0.0	2.5	/experiments/knapen_aot/videos/S_yt-zlbtESb7Fcw_28.mp4	0.0	57.09457206726074	2.5082919597625732
2	5.241189002990723	fix_post	2		12.0	0.0	2.5	/experiments/knapen_aot/videos/S_yt-zlbtESb7Fcw_28.mp4	0.0	59.602864027023315	0.10007405281066895
3	5.341263055801392	fix_pre	0		14.0	1.0	2.5	/experiments/knapen_aot/videos/S_ILSVRC2015_train_00001009.mp4	0.0	59.702938079833984	0.12012887001037598
3	5.446913003921509	response	0	4		1.0	2.5	/experiments/knapen_aot/videos/S_ILSVRC2015_train_00001009.mp4	0.0	59.8085880279541	
3	5.461391925811768	movie	1		294.0	1.0	2.5	/experiments/knapen_aot/videos/S_ILSVRC2015_train_00001009.mp4	0.0	59.82306694984436	2.5048439502716064
3	7.966235876083374	fix_post	2		12.0	1.0	2.5	/experiments/knapen_aot/videos/S_ILSVRC2015_train_00001009.mp4	0.0	62.32791090011597	0.10001111030578613
4	8.06624698638916	fix_pre	0		93.0	2.0	2.5	/experiments/knapen_aot/videos/R_S_yt-452RKqKIeRU_16.mp4	0.0	62.42792201042175	0.7749578952789307
4	8.832995891571045	response	0	4		2.0	2.5	/experiments/knapen_aot/videos/R_S_yt-452RKqKIeRU_16.mp4	0.0	63.19467091560364	
4	8.84120488166809	movie	1		301.0	2.0	2.5	/experiments/knapen_aot/videos/R_S_yt-452RKqKIeRU_16.mp4	0.0	63.202879905700684	2.5083601474761963
4	11.349565029144287	fix_post	2		12.0	2.0	2.5	/experiments/knapen_aot/videos/R_S_yt-452RKqKIeRU_16.mp4	0.0	65.71124005317688	0.09991693496704102
5	11.449481964111328	fix_pre	0		21.0	3.0	2.5	/experiments/knapen_aot/videos/S_ILSVRC2015_train_00373001.mp4	0.0	65.81115698814392	0.17508602142333984
5	11.616216897964478	response	0	4		3.0	2.5	/experiments/knapen_aot/videos/S_ILSVRC2015_train_00373001.mp4	0.0	65.97789192199707	
5	11.624567985534668	movie	1		301.0	3.0	2.5	/experiments/knapen_aot/videos/S_ILSVRC2015_train_00373001.mp4	0.0	65.98624300956726	2.5082650184631348
5	14.132833003997803	fix_post	2		12.0	3.0	2.5	/experiments/knapen_aot/videos/S_ILSVRC2015_train_00373001.mp4	0.0	68.4945080280304	0.09998488426208496
6	14.232817888259888	fix_pre	0		19.0	4.0	2.5	/experiments/knapen_aot/videos/S_yt-bQRBtP9zkms_111.mp4	0.0	68.59449291229248	0.1589221954345703
6	14.38300895690918	response	0	4		4.0	2.5	/experiments/knapen_aot/videos/S_yt-bQRBtP9zkms_111.mp4	0.0	68.74468398094177	
6	14.391740083694458	movie	1		301.0	4.0	2.5	/experiments/knapen_aot/videos/S_yt-bQRBtP9zkms_111.mp4	0.0	68.75341510772705	2.5078258514404297
6	16.899565935134888	fix_post	2		12.0	4.0	2.5	/experiments/knapen_aot/videos/S_yt-bQRBtP9zkms_111.mp4	0.0	71.26124095916748	0.0999150276184082
7	16.999480962753296	fix_pre	0		34.0	5.0	2.5	/experiments/knapen_aot/videos/S_yt-Tt_LkR4iAt4_11.mp4	0.0	71.36115598678589	0.28335094451904297
7	17.274606943130493	response	0	4		5.0	2.5	/experiments/knapen_aot/videos/S_yt-Tt_LkR4iAt4_11.mp4	0.0	71.63628196716309	
7	17.28283190727234	movie	1		301.0	5.0	2.5	/experiments/knapen_aot/videos/S_yt-Tt_LkR4iAt4_11.mp4	0.0	71.64450693130493	2.5083999633789062
7	19.791231870651245	fix_post	2		12.0	5.0	2.5	/experiments/knapen_aot/videos/S_yt-Tt_LkR4iAt4_11.mp4	0.0	74.15290689468384	0.1000211238861084
8	19.891252994537354	fix_pre	0		199.0	6.0	2.5	/experiments/knapen_aot/videos/R_S_yt--UhwpukdyBg_51.mp4	0.0	74.25292801856995	1.6582489013671875
8	21.54135298728943	response	0	4		6.0	2.5	/experiments/knapen_aot/videos/R_S_yt--UhwpukdyBg_51.mp4	0.0	75.90302801132202	
8	21.54950189590454	movie	1		301.0	6.0	2.5	/experiments/knapen_aot/videos/R_S_yt--UhwpukdyBg_51.mp4	0.0	75.91117691993713	2.508284091949463
8	24.057785987854004	fix_post	2		12.0	6.0	2.5	/experiments/knapen_aot/videos/R_S_yt--UhwpukdyBg_51.mp4	0.0	78.4194610118866	0.10008692741394043
9	24.157872915267944	fix_pre	0		22.0	7.0	2.5	blank	1.0	78.51954793930054	0.1833209991455078
9	24.332937002182007	response	0	4		7.0	2.5	blank	1.0	78.6946120262146	
9	24.341193914413452	movie	1		301.0	7.0	2.5	blank	1.0	78.70286893844604	2.508392095565796
9	26.849586009979248	fix_post	2		12.0	7.0	2.5	blank	1.0	81.21126103401184	0.09995698928833008
10	26.949542999267578	fix_pre	0		73.0	8.0	2.5	/experiments/knapen_aot/videos/R_S_yt--jzScB82vKI_212.mp4	0.0	81.31121802330017	0.6086490154266357
10	27.549561977386475	response	0	4		8.0	2.5	/experiments/knapen_aot/videos/R_S_yt--jzScB82vKI_212.mp4	0.0	81.91123700141907	
10	27.558192014694214	movie	1		300.0	8.0	2.5	/experiments/knapen_aot/videos/R_S_yt--jzScB82vKI_212.mp4	0.0	81.9198670387268	2.507948875427246
10	30.06614089012146	fix_post	2		12.0	8.0	2.5	/experiments/knapen_aot/videos/R_S_yt--jzScB82vKI_212.mp4	0.0	84.42781591415405	0.09997105598449707
11	30.166111946105957	fix_pre	0		30.0	9.0	2.5	/experiments/knapen_aot/videos/R_S_yt-yPl8LcgSMjo_32.mp4	0.0	84.52778697013855	0.2500150203704834
11	30.408002853393555	response	0	4		9.0	2.5	/experiments/knapen_aot/videos/R_S_yt-yPl8LcgSMjo_32.mp4	0.0	84.76967787742615	
11	30.41612696647644	movie	1		301.0	9.0	2.5	/experiments/knapen_aot/videos/R_S_yt-yPl8LcgSMjo_32.mp4	0.0	84.77780199050903	2.5083539485931396
11	32.92448091506958	fix_post	2		12.0	9.0	2.5	/experiments/knapen_aot/videos/R_S_yt-yPl8LcgSMjo_32.mp4	0.0	87.28615593910217	0.10001206398010254
12	33.02449297904968	fix_pre	0		197.0	10.0	2.5	/experiments/knapen_aot/videos/S_yt-MyL1VlXiZa4_25.mp4	0.0	87.38616800308228	1.6416029930114746
12	34.65792894363403	response	0	4		10.0	2.5	/experiments/knapen_aot/videos/S_yt-MyL1VlXiZa4_25.mp4	0.0	89.01960396766663	
12	34.66609597206116	movie	1		298.0	10.0	2.5	/experiments/knapen_aot/videos/S_yt-MyL1VlXiZa4_25.mp4	0.0	89.02777099609375	2.5084099769592285
12	37.174505949020386	fix_post	2		12.0	10.0	2.5	/experiments/knapen_aot/videos/S_yt-MyL1VlXiZa4_25.mp4	0.0	91.53618097305298	0.10008597373962402
13	37.27459192276001	fix_pre	0		47.0	11.0	2.5	/experiments/knapen_aot/videos/R_S_comp_A050_C004_1027V8_v16_SDR_FINAL_20180706_SDR_2K_AVC.mp4	0.0	91.6362669467926	0.3915281295776367
13	37.65798807144165	response	0	4		11.0	2.5	/experiments/knapen_aot/videos/R_S_comp_A050_C004_1027V8_v16_SDR_FINAL_20180706_SDR_2K_AVC.mp4	0.0	92.01966309547424	
13	37.66612005233765	movie	1		169.0	11.0	2.5	/experiments/knapen_aot/videos/R_S_comp_A050_C004_1027V8_v16_SDR_FINAL_20180706_SDR_2K_AVC.mp4	0.0	92.02779507637024	2.508391857147217
13	40.17451190948486	fix_post	2		12.0	11.0	2.5	/experiments/knapen_aot/videos/R_S_comp_A050_C004_1027V8_v16_SDR_FINAL_20180706_SDR_2K_AVC.mp4	0.0	94.53618693351746	0.09997701644897461
14	40.27448892593384	fix_pre	0		161.0	12.0	2.5	/experiments/knapen_aot/videos/R_S_yt-5AI_SyK5sg8_112.mp4	0.0	94.63616394996643	1.3416569232940674
14	41.60793495178223	response	0	4		12.0	2.5	/experiments/knapen_aot/videos/R_S_yt-5AI_SyK5sg8_112.mp4	0.0	95.96960997581482	
14	41.616145849227905	movie	1		301.0	12.0	2.5	/experiments/knapen_aot/videos/R_S_yt-5AI_SyK5sg8_112.mp4	0.0	95.9778208732605	2.5083281993865967
14	44.1244740486145	fix_post	2		12.0	12.0	2.5	/experiments/knapen_aot/videos/R_S_yt-5AI_SyK5sg8_112.mp4	0.0	98.4861490726471	0.10033702850341797
15	44.22481107711792	fix_pre	0		32.0	13.0	2.5	/experiments/knapen_aot/videos/S_pexels-roman-odintsov-8233166.mp4	0.0	98.58648610115051	0.2663078308105469
15	44.48296904563904	response	0	4		13.0	2.5	/experiments/knapen_aot/videos/S_pexels-roman-odintsov-8233166.mp4	0.0	98.84464406967163	
15	44.49111890792847	movie	1		207.0	13.0	2.5	/experiments/knapen_aot/videos/S_pexels-roman-odintsov-8233166.mp4	0.0	98.85279393196106	2.5083301067352295
15	46.999449014663696	fix_post	2		12.0	13.0	2.5	/experiments/knapen_aot/videos/S_pexels-roman-odintsov-8233166.mp4	0.0	101.36112403869629	0.10033583641052246
16	47.09978485107422	fix_pre	0		191.0	14.0	2.5	blank	1.0	101.46145987510681	1.5913081169128418
16	48.68288803100586	response	0	4		14.0	2.5	blank	1.0	103.04456305503845	
16	48.69109296798706	movie	1		301.0	14.0	2.5	blank	1.0	103.05276799201965	2.5083539485931396
16	51.1994469165802	fix_post	2		12.0	14.0	2.5	blank	1.0	105.5611219406128	0.09993410110473633
17	51.29938101768494	fix_pre	0		117.0	15.0	2.5	/experiments/knapen_aot/videos/R_S_yt-7Fyu2vr7zbA_31.mp4	0.0	105.66105604171753	0.9750299453735352
17	52.26624298095703	response	0	4		15.0	2.5	/experiments/knapen_aot/videos/R_S_yt-7Fyu2vr7zbA_31.mp4	0.0	106.62791800498962	
17	52.27441096305847	movie	1		300.0	15.0	2.5	/experiments/knapen_aot/videos/R_S_yt-7Fyu2vr7zbA_31.mp4	0.0	106.63608598709106	2.5082919597625732
17	54.782702922821045	fix_post	2		12.0	15.0	2.5	/experiments/knapen_aot/videos/R_S_yt-7Fyu2vr7zbA_31.mp4	0.0	109.14437794685364	0.09998798370361328
18	54.88269090652466	fix_pre	0		15.0	16.0	2.5	/experiments/knapen_aot/videos/S_yt-fk-z6WCvjjA_3.mp4	0.0	109.24436593055725	0.12503409385681152
18	54.99944591522217	response	0	4		16.0	2.5	/experiments/knapen_aot/videos/S_yt-fk-z6WCvjjA_3.mp4	0.0	109.36112093925476	
18	55.00772500038147	movie	1		301.0	16.0	2.5	/experiments/knapen_aot/videos/S_yt-fk-z6WCvjjA_3.mp4	0.0	109.36940002441406	2.508249044418335
18	57.515974044799805	fix_post	2		12.0	16.0	2.5	/experiments/knapen_aot/videos/S_yt-fk-z6WCvjjA_3.mp4	0.0	111.8776490688324	0.09995794296264648
19	57.61593198776245	fix_pre	0		45.0	17.0	2.5	/experiments/knapen_aot/videos/R_S_yt-vjed5qyKqZw_1.mp4	0.0	111.97760701179504	0.3751060962677002
19	57.98278188705444	response	0	4		17.0	2.5	/experiments/knapen_aot/videos/R_S_yt-vjed5qyKqZw_1.mp4	0.0	112.34445691108704	
19	57.99103808403015	movie	1		301.0	17.0	2.5	/experiments/knapen_aot/videos/R_S_yt-vjed5qyKqZw_1.mp4	0.0	112.35271310806274	2.5082919597625732
19	60.499330043792725	fix_post	2		12.0	17.0	2.5	/experiments/knapen_aot/videos/R_S_yt-vjed5qyKqZw_1.mp4	0.0	114.86100506782532	0.10027885437011719
20	60.59960889816284	fix_pre	0		124.0	18.0	2.5	/experiments/knapen_aot/videos/S_pexels-cottonbro-9499408.mp4	0.0	114.96128392219543	1.0330321788787842
20	61.624475955963135	response	0	4		18.0	2.5	/experiments/knapen_aot/videos/S_pexels-cottonbro-9499408.mp4	0.0	115.98615097999573	
20	61.632641077041626	movie	1		183.0	18.0	2.5	/experiments/knapen_aot/videos/S_pexels-cottonbro-9499408.mp4	0.0	115.99431610107422	2.508558988571167
20	64.1412000656128	fix_post	2		12.0	18.0	2.5	/experiments/knapen_aot/videos/S_pexels-cottonbro-9499408.mp4	0.0	118.50287508964539	0.09978795051574707
21	64.24098801612854	fix_pre	0		41.0	19.0	2.5	/experiments/knapen_aot/videos/S_yt-wEbfIR14zZ8_7.mp4	0.0	118.60266304016113	0.34158992767333984
21	64.57447290420532	response	0	4		19.0	2.5	/experiments/knapen_aot/videos/S_yt-wEbfIR14zZ8_7.mp4	0.0	118.93614792823792	
21	64.58257794380188	movie	1		301.0	19.0	2.5	/experiments/knapen_aot/videos/S_yt-wEbfIR14zZ8_7.mp4	0.0	118.94425296783447	2.508297920227051
21	67.09087586402893	fix_post	2		12.0	19.0	2.5	/experiments/knapen_aot/videos/S_yt-wEbfIR14zZ8_7.mp4	0.0	121.45255088806152	0.10005617141723633
22	67.19093203544617	fix_pre	0		21.0	20.0	2.5	blank	1.0	121.55260705947876	0.17496490478515625
22	67.35023999214172	response	0	4		20.0	2.5	blank	1.0	121.71191501617432	
22	67.36589694023132	movie	1		301.0	20.0	2.5	blank	1.0	121.72757196426392	2.508394956588745
22	69.37439584732056	response	1	4		20.0	2.5	blank	1.0	123.73607087135315	
22	69.87429189682007	fix_post	2		12.0	20.0	2.5	blank	1.0	124.23596692085266	0.10019898414611816
23	69.97449088096619	fix_pre	0		150.0	21.0	2.5	/experiments/knapen_aot/videos/S_yt-2i53vKte7SA_117.mp4	0.0	124.33616590499878	1.2581181526184082
23	71.20853590965271	response	0	4		21.0	2.5	/experiments/knapen_aot/videos/S_yt-2i53vKte7SA_117.mp4	0.0	125.5702109336853	
23	71.2326090335846	movie	1		300.0	21.0	2.5	/experiments/knapen_aot/videos/S_yt-2i53vKte7SA_117.mp4	0.0	125.59428405761719	2.500032901763916
23	73.73264193534851	fix_post	2		12.0	21.0	2.5	/experiments/knapen_aot/videos/S_yt-2i53vKte7SA_117.mp4	0.0	128.0943169593811	0.09997105598449707
24	73.83261299133301	fix_pre	0		49.0	22.0	2.5	/experiments/knapen_aot/videos/R_S_yt-XbigWWtnGL4_75.mp4	0.0	128.1942880153656	0.40833091735839844
24	74.23277688026428	response	0	4		22.0	2.5	/experiments/knapen_aot/videos/R_S_yt-XbigWWtnGL4_75.mp4	0.0	128.59445190429688	
24	74.2409439086914	movie	1		301.0	22.0	2.5	/experiments/knapen_aot/videos/R_S_yt-XbigWWtnGL4_75.mp4	0.0	128.602618932724	2.508347988128662
24	76.74929189682007	fix_post	2		12.0	22.0	2.5	/experiments/knapen_aot/videos/R_S_yt-XbigWWtnGL4_75.mp4	0.0	131.11096692085266	0.10018301010131836
25	76.84947490692139	fix_pre	0		18.0	23.0	2.5	/experiments/knapen_aot/videos/S_comp_A007_C017_01156B_v02_SDR_PS_20180925_SDR_2K_AVC.mp4	0.0	131.21114993095398	0.1497969627380371
25	76.99103593826294	response	0	4		23.0	2.5	/experiments/knapen_aot/videos/S_comp_A007_C017_01156B_v02_SDR_PS_20180925_SDR_2K_AVC.mp4	0.0	131.35271096229553	
25	76.99927186965942	movie	1		161.0	23.0	2.5	/experiments/knapen_aot/videos/S_comp_A007_C017_01156B_v02_SDR_PS_20180925_SDR_2K_AVC.mp4	0.0	131.36094689369202	2.5083529949188232
25	79.50762486457825	fix_post	2		12.0	23.0	2.5	/experiments/knapen_aot/videos/S_comp_A007_C017_01156B_v02_SDR_PS_20180925_SDR_2K_AVC.mp4	0.0	133.86929988861084	0.09994316101074219
26	79.60756802558899	fix_pre	0		25.0	24.0	2.5	/experiments/knapen_aot/videos/R_S_production_ID_5020960.mp4	0.0	133.96924304962158	0.2083430290222168
26	79.80770802497864	response	0	4		24.0	2.5	/experiments/knapen_aot/videos/R_S_production_ID_5020960.mp4	0.0	134.16938304901123	
26	79.8159110546112	movie	1		202.0	24.0	2.5	/experiments/knapen_aot/videos/R_S_production_ID_5020960.mp4	0.0	134.1775860786438	2.5082969665527344
26	82.32420802116394	fix_post	2		12.0	24.0	2.5	/experiments/knapen_aot/videos/R_S_production_ID_5020960.mp4	0.0	136.68588304519653	0.09999799728393555
27	82.42420601844788	fix_pre	0		24.0	25.0	2.5	/experiments/knapen_aot/videos/R_S_yt-JVhfcpV7OaY_71.mp4	0.0	136.78588104248047	0.1999979019165039
27	82.61605191230774	response	0	4		25.0	2.5	/experiments/knapen_aot/videos/R_S_yt-JVhfcpV7OaY_71.mp4	0.0	136.97772693634033	
27	82.62420392036438	movie	1		301.0	25.0	2.5	/experiments/knapen_aot/videos/R_S_yt-JVhfcpV7OaY_71.mp4	0.0	136.98587894439697	2.5084171295166016
27	85.13262104988098	fix_post	2		12.0	25.0	2.5	/experiments/knapen_aot/videos/R_S_yt-JVhfcpV7OaY_71.mp4	0.0	139.49429607391357	0.0999460220336914
28	85.23256707191467	fix_pre	0		147.0	26.0	2.5	/experiments/knapen_aot/videos/R_S_pexels-tima-miroshnichenko-5717005.mp4	0.0	139.59424209594727	1.2249369621276855
28	86.44940090179443	response	0	4		26.0	2.5	/experiments/knapen_aot/videos/R_S_pexels-tima-miroshnichenko-5717005.mp4	0.0	140.81107592582703	
28	86.45750403404236	movie	1		164.0	26.0	2.5	/experiments/knapen_aot/videos/R_S_pexels-tima-miroshnichenko-5717005.mp4	0.0	140.81917905807495	2.5084149837493896
28	88.96591901779175	fix_post	2		12.0	26.0	2.5	/experiments/knapen_aot/videos/R_S_pexels-tima-miroshnichenko-5717005.mp4	0.0	143.32759404182434	0.09997797012329102
29	89.06589698791504	fix_pre	0		23.0	27.0	2.5	blank	1.0	143.42757201194763	0.1917428970336914
29	89.24936199188232	response	0	4		27.0	2.5	blank	1.0	143.61103701591492	
29	89.25763988494873	movie	1		301.0	27.0	2.5	blank	1.0	143.61931490898132	2.5082991123199463
29	91.76593899726868	fix_post	2		12.0	27.0	2.5	blank	1.0	146.12761402130127	0.09985208511352539
30	91.8657910823822	fix_pre	0		70.0	28.0	2.5	/experiments/knapen_aot/videos/R_S_ILSVRC2015_train_00743000.mp4	0.0	146.2274661064148	0.5834329128265381
30	92.44106101989746	response	0	4		28.0	2.5	/experiments/knapen_aot/videos/R_S_ILSVRC2015_train_00743000.mp4	0.0	146.80273604393005	
30	92.44922399520874	movie	1		300.0	28.0	2.5	/experiments/knapen_aot/videos/R_S_ILSVRC2015_train_00743000.mp4	0.0	146.81089901924133	2.5084168910980225
30	94.95764088630676	fix_post	2		12.0	28.0	2.5	/experiments/knapen_aot/videos/R_S_ILSVRC2015_train_00743000.mp4	0.0	149.31931591033936	0.09997415542602539
31	95.05761504173279	fix_pre	0		21.0	29.0	2.5	/experiments/knapen_aot/videos/R_S_yt-BLmwmX-mni8_56.mp4	0.0	149.41929006576538	0.17492389678955078
31	95.22433304786682	response	0	4		29.0	2.5	/experiments/knapen_aot/videos/R_S_yt-BLmwmX-mni8_56.mp4	0.0	149.5860080718994	
31	95.23253893852234	movie	1		301.0	29.0	2.5	/experiments/knapen_aot/videos/R_S_yt-BLmwmX-mni8_56.mp4	0.0	149.59421396255493	2.50838303565979
31	97.74092197418213	fix_post	2		12.0	29.0	2.5	/experiments/knapen_aot/videos/R_S_yt-BLmwmX-mni8_56.mp4	0.0	152.10259699821472	0.09997200965881348
32	97.84089398384094	fix_pre	0		18.0	30.0	2.5	/experiments/knapen_aot/videos/S_yt-BrepyEWKrPQ_20.mp4	0.0	152.20256900787354	0.14996099472045898
32	97.97517204284668	response	0	4		30.0	2.5	/experiments/knapen_aot/videos/S_yt-BrepyEWKrPQ_20.mp4	0.0	152.33684706687927	
32	97.9908549785614	movie	1		298.0	30.0	2.5	/experiments/knapen_aot/videos/S_yt-BrepyEWKrPQ_20.mp4	0.0	152.352530002594	2.5083470344543457
32	100.49920201301575	fix_post	2		12.0	30.0	2.5	/experiments/knapen_aot/videos/S_yt-BrepyEWKrPQ_20.mp4	0.0	154.86087703704834	0.1000218391418457
33	100.59922385215759	fix_pre	0		45.0	31.0	2.5	/experiments/knapen_aot/videos/S_yt-0MB_IYX1fgo_44.mp4	0.0	154.96089887619019	0.3749840259552002
33	100.96600008010864	response	0	4		31.0	2.5	/experiments/knapen_aot/videos/S_yt-0MB_IYX1fgo_44.mp4	0.0	155.32767510414124	
33	100.9742078781128	movie	1		301.0	31.0	2.5	/experiments/knapen_aot/videos/S_yt-0MB_IYX1fgo_44.mp4	0.0	155.33588290214539	2.508305072784424
33	103.48251295089722	fix_post	2		12.0	31.0	2.5	/experiments/knapen_aot/videos/S_yt-0MB_IYX1fgo_44.mp4	0.0	157.8441879749298	0.10002803802490234
34	103.58254098892212	fix_pre	0		82.0	32.0	2.5	/experiments/knapen_aot/videos/S_pexels-polina-tankilevitch-8203088.mp4	0.0	157.9442160129547	0.6832618713378906
34	104.25766205787659	response	0	4		32.0	2.5	/experiments/knapen_aot/videos/S_pexels-polina-tankilevitch-8203088.mp4	0.0	158.61933708190918	
34	104.26580286026001	movie	1		163.0	32.0	2.5	/experiments/knapen_aot/videos/S_pexels-polina-tankilevitch-8203088.mp4	0.0	158.6274778842926	2.5083680152893066
34	106.77417087554932	fix_post	2		12.0	32.0	2.5	/experiments/knapen_aot/videos/S_pexels-polina-tankilevitch-8203088.mp4	0.0	161.1358458995819	0.09998798370361328
35	106.87415885925293	fix_pre	0		21.0	33.0	2.5	blank	1.0	161.23583388328552	0.17502999305725098
35	107.0409848690033	response	0	4		33.0	2.5	blank	1.0	161.4026598930359	
35	107.04918885231018	movie	1		301.0	33.0	2.5	blank	1.0	161.41086387634277	2.508275032043457
35	109.55746388435364	fix_post	2		12.0	33.0	2.5	blank	1.0	163.91913890838623	0.09998297691345215
36	109.65744686126709	fix_pre	0		25.0	34.0	2.5	/experiments/knapen_aot/videos/S_yt-738MRS0yI6g_177.mp4	0.0	164.01912188529968	0.2083301544189453
36	109.85749793052673	response	0	4		34.0	2.5	/experiments/knapen_aot/videos/S_yt-738MRS0yI6g_177.mp4	0.0	164.21917295455933	
36	109.86577701568604	movie	1		301.0	34.0	2.5	/experiments/knapen_aot/videos/S_yt-738MRS0yI6g_177.mp4	0.0	164.22745203971863	2.5083508491516113
36	112.37412786483765	fix_post	2		12.0	34.0	2.5	/experiments/knapen_aot/videos/S_yt-738MRS0yI6g_177.mp4	0.0	166.73580288887024	0.10000300407409668
37	112.47413086891174	fix_pre	0		23.0	35.0	2.5	/experiments/knapen_aot/videos/S_yt-BLmwmX-mni8_56.mp4	0.0	166.83580589294434	0.1916191577911377
37	112.65763592720032	response	0	4		35.0	2.5	/experiments/knapen_aot/videos/S_yt-BLmwmX-mni8_56.mp4	0.0	167.0193109512329	
37	112.66575002670288	movie	1		301.0	35.0	2.5	/experiments/knapen_aot/videos/S_yt-BLmwmX-mni8_56.mp4	0.0	167.02742505073547	2.508435010910034
37	115.17418503761292	fix_post	2		12.0	35.0	2.5	/experiments/knapen_aot/videos/S_yt-BLmwmX-mni8_56.mp4	0.0	169.5358600616455	0.0999748706817627
38	115.27415990829468	fix_pre	0		82.0	36.0	2.5	/experiments/knapen_aot/videos/S_ILSVRC2015_train_00682009.mp4	0.0	169.63583493232727	0.683251142501831
38	115.94922804832458	response	0	4		36.0	2.5	/experiments/knapen_aot/videos/S_ILSVRC2015_train_00682009.mp4	0.0	170.31090307235718	
38	115.95741105079651	movie	1		301.0	36.0	2.5	/experiments/knapen_aot/videos/S_ILSVRC2015_train_00682009.mp4	0.0	170.3190860748291	2.5083320140838623
38	118.46574306488037	fix_post	2		12.0	36.0	2.5	/experiments/knapen_aot/videos/S_ILSVRC2015_train_00682009.mp4	0.0	172.82741808891296	0.09998798370361328
39	118.56573104858398	fix_pre	0		77.0	37.0	2.5	/experiments/knapen_aot/videos/S_ILSVRC2015_train_00251005.mp4	0.0	172.92740607261658	0.6416518688201904
39	119.1992130279541	response	0	4		37.0	2.5	/experiments/knapen_aot/videos/S_ILSVRC2015_train_00251005.mp4	0.0	173.5608880519867	
39	119.20738291740417	movie	1		301.0	37.0	2.5	/experiments/knapen_aot/videos/S_ILSVRC2015_train_00251005.mp4	0.0	173.56905794143677	2.5083439350128174
39	121.71572685241699	fix_post	2		12.0	37.0	2.5	/experiments/knapen_aot/videos/S_ILSVRC2015_train_00251005.mp4	0.0	176.07740187644958	0.10001015663146973
40	121.81573700904846	fix_pre	0		110.0	38.0	2.5	/experiments/knapen_aot/videos/R_S_ILSVRC2015_train_00185002.mp4	0.0	176.17741203308105	0.9166500568389893
40	122.72419691085815	response	0	4		38.0	2.5	/experiments/knapen_aot/videos/R_S_ILSVRC2015_train_00185002.mp4	0.0	177.08587193489075	
40	122.73238706588745	movie	1		301.0	38.0	2.5	/experiments/knapen_aot/videos/R_S_ILSVRC2015_train_00185002.mp4	0.0	177.09406208992004	2.508347988128662
40	125.24073505401611	fix_post	2		12.0	38.0	2.5	/experiments/knapen_aot/videos/R_S_ILSVRC2015_train_00185002.mp4	0.0	179.6024100780487	0.09998393058776855
41	125.34071898460388	fix_pre	0		32.0	39.0	2.5	/experiments/knapen_aot/videos/R_S_yt-cgwHIb9LAFc_336.mp4	0.0	179.70239400863647	0.2666308879852295
41	125.59919905662537	response	0	4		39.0	2.5	/experiments/knapen_aot/videos/R_S_yt-cgwHIb9LAFc_336.mp4	0.0	179.96087408065796	
41	125.60734987258911	movie	1		301.0	39.0	2.5	/experiments/knapen_aot/videos/R_S_yt-cgwHIb9LAFc_336.mp4	0.0	179.9690248966217	2.508364200592041
41	128.11571407318115	fix_post	2		12.0	39.0	2.5	/experiments/knapen_aot/videos/R_S_yt-cgwHIb9LAFc_336.mp4	0.0	182.47738909721375	0.09993195533752441
42	128.21564602851868	fix_pre	0		36.0	40.0	2.5	/experiments/knapen_aot/videos/S_yt-kINZMjys3O4_112.mp4	0.0	182.57732105255127	0.30005598068237305
42	128.50742888450623	response	0	4		40.0	2.5	/experiments/knapen_aot/videos/S_yt-kINZMjys3O4_112.mp4	0.0	182.86910390853882	
42	128.51570200920105	movie	1		301.0	40.0	2.5	/experiments/knapen_aot/videos/S_yt-kINZMjys3O4_112.mp4	0.0	182.87737703323364	2.5083019733428955
42	131.02400398254395	fix_post	2		12.0	40.0	2.5	/experiments/knapen_aot/videos/S_yt-kINZMjys3O4_112.mp4	0.0	185.38567900657654	0.1000070571899414
43	131.1240110397339	fix_pre	0		49.0	41.0	2.5	blank	1.0	185.48568606376648	0.4083418846130371
43	131.52413201332092	response	0	4		41.0	2.5	blank	1.0	185.88580703735352	
43	131.53235292434692	movie	1		301.0	41.0	2.5	blank	1.0	185.89402794837952	2.5083069801330566
43	134.04065990447998	fix_post	2		12.0	41.0	2.5	blank	1.0	188.40233492851257	0.10003113746643066
44	134.1406910419464	fix_pre	0		27.0	42.0	2.5	/experiments/knapen_aot/videos/R_S_yt-J2PiBa1MXI0_210.mp4	0.0	188.502366065979	0.22488784790039062
44	134.35744404792786	response	0	4		42.0	2.5	/experiments/knapen_aot/videos/R_S_yt-J2PiBa1MXI0_210.mp4	0.0	188.71911907196045	
44	134.3655788898468	movie	1		301.0	42.0	2.5	/experiments/knapen_aot/videos/R_S_yt-J2PiBa1MXI0_210.mp4	0.0	188.7272539138794	2.5084211826324463
44	136.87400007247925	fix_post	2		12.0	42.0	2.5	/experiments/knapen_aot/videos/R_S_yt-J2PiBa1MXI0_210.mp4	0.0	191.23567509651184	0.09998393058776855
45	136.97398400306702	fix_pre	0		146.0	43.0	2.5	/experiments/knapen_aot/videos/R_S_yt-Tt_LkR4iAt4_11.mp4	0.0	191.3356590270996	1.2166550159454346
45	138.18244290351868	response	0	4		43.0	2.5	/experiments/knapen_aot/videos/R_S_yt-Tt_LkR4iAt4_11.mp4	0.0	192.54411792755127	
45	138.19063901901245	movie	1		300.0	43.0	2.5	/experiments/knapen_aot/videos/R_S_yt-Tt_LkR4iAt4_11.mp4	0.0	192.55231404304504	2.5084140300750732
45	140.69905304908752	fix_post	2		12.0	43.0	2.5	/experiments/knapen_aot/videos/R_S_yt-Tt_LkR4iAt4_11.mp4	0.0	195.06072807312012	0.09993696212768555
46	140.7989900112152	fix_pre	0		61.0	44.0	2.5	/experiments/knapen_aot/videos/S_comp_LA_A006_C008_PSNK_ALL_LOGOS_v10_SDR_PS_FINAL_20180801_SDR_2K_AVC.mp4	0.0	195.1606650352478	0.5083990097045898
46	141.29920196533203	response	0	4		44.0	2.5	/experiments/knapen_aot/videos/S_comp_LA_A006_C008_PSNK_ALL_LOGOS_v10_SDR_PS_FINAL_20180801_SDR_2K_AVC.mp4	0.0	195.66087698936462	
46	141.3073890209198	movie	1		171.0	44.0	2.5	/experiments/knapen_aot/videos/S_comp_LA_A006_C008_PSNK_ALL_LOGOS_v10_SDR_PS_FINAL_20180801_SDR_2K_AVC.mp4	0.0	195.6690640449524	2.5082509517669678
46	143.81563997268677	fix_post	2		12.0	44.0	2.5	/experiments/knapen_aot/videos/S_comp_LA_A006_C008_PSNK_ALL_LOGOS_v10_SDR_PS_FINAL_20180801_SDR_2K_AVC.mp4	0.0	198.17731499671936	0.10262608528137207
47	143.91826605796814	fix_pre	0		28.0	45.0	2.5	/experiments/knapen_aot/videos/R_S_yt-cgwHIb9LAFc_336.mp4	0.0	198.27994108200073	0.23064279556274414
47	144.14072585105896	response	0	4		45.0	2.5	/experiments/knapen_aot/videos/R_S_yt-cgwHIb9LAFc_336.mp4	0.0	198.50240087509155	
47	144.14890885353088	movie	1		301.0	45.0	2.5	/experiments/knapen_aot/videos/R_S_yt-cgwHIb9LAFc_336.mp4	0.0	198.51058387756348	2.5084011554718018
47	146.65731000900269	fix_post	2		12.0	45.0	2.5	/experiments/knapen_aot/videos/R_S_yt-cgwHIb9LAFc_336.mp4	0.0	201.01898503303528	0.09997391700744629
48	146.75728392601013	fix_pre	0		35.0	46.0	2.5	/experiments/knapen_aot/videos/R_S_yt-D_f3_HIXG2g_87.mp4	0.0	201.11895895004272	0.2927999496459961
48	147.04076600074768	response	0	4		46.0	2.5	/experiments/knapen_aot/videos/R_S_yt-D_f3_HIXG2g_87.mp4	0.0	201.40244102478027	
48	147.05008387565613	movie	1		300.0	46.0	2.5	/experiments/knapen_aot/videos/R_S_yt-D_f3_HIXG2g_87.mp4	0.0	201.41175889968872	2.5071420669555664
48	149.5572259426117	fix_post	2		12.0	46.0	2.5	/experiments/knapen_aot/videos/R_S_yt-D_f3_HIXG2g_87.mp4	0.0	203.9189009666443	0.10004091262817383
49	149.65726685523987	fix_pre	0		106.0	47.0	2.5	/experiments/knapen_aot/videos/R_S_ILSVRC2015_train_00524006.mp4	0.0	204.01894187927246	0.883350133895874
49	150.5324158668518	response	0	4		47.0	2.5	/experiments/knapen_aot/videos/R_S_ILSVRC2015_train_00524006.mp4	0.0	204.8940908908844	
49	150.54061698913574	movie	1		301.0	47.0	2.5	/experiments/knapen_aot/videos/R_S_ILSVRC2015_train_00524006.mp4	0.0	204.90229201316833	2.508305072784424
49	153.04892206192017	fix_post	2		12.0	47.0	2.5	/experiments/knapen_aot/videos/R_S_ILSVRC2015_train_00524006.mp4	0.0	207.41059708595276	0.0999298095703125
50	153.14885187149048	fix_pre	0		260.0	48.0	2.5	blank	1.0	207.51052689552307	2.1667211055755615
50	155.3074290752411	response	0	4		48.0	2.5	blank	1.0	209.66910409927368	
50	155.31557297706604	movie	1		301.0	48.0	2.5	blank	1.0	209.67724800109863	2.508267879486084
50	157.82384085655212	fix_post	2		12.0	48.0	2.5	blank	1.0	212.18551588058472	0.10011911392211914
51	157.92395997047424	fix_pre	0		54.0	49.0	2.5	/experiments/knapen_aot/videos/R_S_yt-uX7qYKQm_pg_277.mp4	0.0	212.28563499450684	0.44989705085754395
51	158.36585092544556	response	0	4		49.0	2.5	/experiments/knapen_aot/videos/R_S_yt-uX7qYKQm_pg_277.mp4	0.0	212.72752594947815	
51	158.3738570213318	movie	1		301.0	49.0	2.5	/experiments/knapen_aot/videos/R_S_yt-uX7qYKQm_pg_277.mp4	0.0	212.73553204536438	2.5083489418029785
51	160.88220596313477	fix_post	2		12.0	49.0	2.5	/experiments/knapen_aot/videos/R_S_yt-uX7qYKQm_pg_277.mp4	0.0	215.24388098716736	0.10016703605651855
52	160.98237299919128	fix_pre	0		208.0	50.0	2.5	/experiments/knapen_aot/videos/R_S_8lrGQK4UBj8_38.mp4	0.0	215.34404802322388	1.7342500686645508
52	162.70746302604675	response	0	4		50.0	2.5	/experiments/knapen_aot/videos/R_S_8lrGQK4UBj8_38.mp4	0.0	217.06913805007935	
52	162.71662306785583	movie	1		301.0	50.0	2.5	/experiments/knapen_aot/videos/R_S_8lrGQK4UBj8_38.mp4	0.0	217.07829809188843	2.507174015045166
52	165.223797082901	fix_post	2		12.0	50.0	2.5	/experiments/knapen_aot/videos/R_S_8lrGQK4UBj8_38.mp4	0.0	219.5854721069336	0.10001587867736816
53	165.32381296157837	fix_pre	0		73.0	51.0	2.5	/experiments/knapen_aot/videos/R_S_yt-4x2eUikn9rw_212.mp4	0.0	219.68548798561096	0.608328104019165
53	165.92400789260864	response	0	4		51.0	2.5	/experiments/knapen_aot/videos/R_S_yt-4x2eUikn9rw_212.mp4	0.0	220.28568291664124	
53	165.93214106559753	movie	1		301.0	51.0	2.5	/experiments/knapen_aot/videos/R_S_yt-4x2eUikn9rw_212.mp4	0.0	220.29381608963013	2.508340835571289
53	168.44048190116882	fix_post	2		12.0	51.0	2.5	/experiments/knapen_aot/videos/R_S_yt-4x2eUikn9rw_212.mp4	0.0	222.80215692520142	0.09993100166320801
54	168.54041290283203	fix_pre	0		48.0	52.0	2.5	/experiments/knapen_aot/videos/S_pexels-polina-tankilevitch-8203088.mp4	0.0	222.90208792686462	0.4000260829925537
54	168.93235206604004	response	0	4		52.0	2.5	/experiments/knapen_aot/videos/S_pexels-polina-tankilevitch-8203088.mp4	0.0	223.29402709007263	
54	168.94043898582458	movie	1		163.0	52.0	2.5	/experiments/knapen_aot/videos/S_pexels-polina-tankilevitch-8203088.mp4	0.0	223.30211400985718	2.508418083190918
54	171.4488570690155	fix_post	2		12.0	52.0	2.5	/experiments/knapen_aot/videos/S_pexels-polina-tankilevitch-8203088.mp4	0.0	225.8105320930481	0.09991979598999023
55	171.5487768650055	fix_pre	0		35.0	53.0	2.5	/experiments/knapen_aot/videos/S_yt-GLK6LniTOK0_69.mp4	0.0	225.9104518890381	0.2927560806274414
55	171.83225393295288	response	0	4		53.0	2.5	/experiments/knapen_aot/videos/S_yt-GLK6LniTOK0_69.mp4	0.0	226.19392895698547	
55	171.84153294563293	movie	1		301.0	53.0	2.5	/experiments/knapen_aot/videos/S_yt-GLK6LniTOK0_69.mp4	0.0	226.20320796966553	2.507205009460449
55	174.34873795509338	fix_post	2		12.0	53.0	2.5	/experiments/knapen_aot/videos/S_yt-GLK6LniTOK0_69.mp4	0.0	228.71041297912598	0.1000370979309082
56	174.4487750530243	fix_pre	0		32.0	54.0	2.5	blank	1.0	228.81045007705688	0.26772189140319824
56	174.7073209285736	response	0	4		54.0	2.5	blank	1.0	229.0689959526062	
56	174.7164969444275	movie	1		301.0	54.0	2.5	blank	1.0	229.07817196846008	2.5072240829467773
56	177.22372102737427	fix_post	2		12.0	54.0	2.5	blank	1.0	231.58539605140686	0.10005402565002441
57	177.3237750530243	fix_pre	0		33.0	55.0	2.5	/experiments/knapen_aot/videos/S_yt-cgwHIb9LAFc_336.mp4	0.0	231.68545007705688	0.2750239372253418
57	177.59052395820618	response	0	4		55.0	2.5	/experiments/knapen_aot/videos/S_yt-cgwHIb9LAFc_336.mp4	0.0	231.95219898223877	
57	177.59879899024963	movie	1		301.0	55.0	2.5	/experiments/knapen_aot/videos/S_yt-cgwHIb9LAFc_336.mp4	0.0	231.96047401428223	2.50832200050354
57	180.10712099075317	fix_post	2		12.0	55.0	2.5	/experiments/knapen_aot/videos/S_yt-cgwHIb9LAFc_336.mp4	0.0	234.46879601478577	0.10003805160522461
58	180.2071590423584	fix_pre	0		33.0	56.0	2.5	/experiments/knapen_aot/videos/R_S_yt-y6zr69M0yHI_76.mp4	0.0	234.568834066391	0.2748708724975586
58	180.4739260673523	response	0	4		56.0	2.5	/experiments/knapen_aot/videos/R_S_yt-y6zr69M0yHI_76.mp4	0.0	234.8356010913849	
58	180.48202991485596	movie	1		301.0	56.0	2.5	/experiments/knapen_aot/videos/R_S_yt-y6zr69M0yHI_76.mp4	0.0	234.84370493888855	2.5083141326904297
58	182.9903440475464	fix_post	2		12.0	56.0	2.5	/experiments/knapen_aot/videos/R_S_yt-y6zr69M0yHI_76.mp4	0.0	237.35201907157898	0.1001129150390625
59	183.09045696258545	fix_pre	0		24.0	57.0	2.5	/experiments/knapen_aot/videos/S_yt-B8Sy53C6Pxw_8.mp4	0.0	237.45213198661804	0.19997906684875488
59	183.28226804733276	response	0	4		57.0	2.5	/experiments/knapen_aot/videos/S_yt-B8Sy53C6Pxw_8.mp4	0.0	237.64394307136536	
59	183.2904360294342	movie	1		301.0	57.0	2.5	/experiments/knapen_aot/videos/S_yt-B8Sy53C6Pxw_8.mp4	0.0	237.6521110534668	2.508349895477295
59	185.7987859249115	fix_post	2		12.0	57.0	2.5	/experiments/knapen_aot/videos/S_yt-B8Sy53C6Pxw_8.mp4	0.0	240.1604609489441	0.10001206398010254
60	185.8987979888916	fix_pre	0		42.0	58.0	2.5	/experiments/knapen_aot/videos/R_S_yt-fk-z6WCvjjA_3.mp4	0.0	240.2604730129242	0.34996795654296875
60	186.2405080795288	response	0	4		58.0	2.5	/experiments/knapen_aot/videos/R_S_yt-fk-z6WCvjjA_3.mp4	0.0	240.6021831035614	
60	186.24876594543457	movie	1		301.0	58.0	2.5	/experiments/knapen_aot/videos/R_S_yt-fk-z6WCvjjA_3.mp4	0.0	240.61044096946716	2.5083420276641846
60	188.75710797309875	fix_post	2		12.0	58.0	2.5	/experiments/knapen_aot/videos/R_S_yt-fk-z6WCvjjA_3.mp4	0.0	243.11878299713135	0.09997797012329102
61	188.85708594322205	fix_pre	0		106.0	59.0	2.5	/experiments/knapen_aot/videos/S_ILSVRC2015_train_00743000.mp4	0.0	243.21876096725464	0.8833119869232178
61	189.73214101791382	response	0	4		59.0	2.5	/experiments/knapen_aot/videos/S_ILSVRC2015_train_00743000.mp4	0.0	244.0938160419464	
61	189.74039793014526	movie	1		301.0	59.0	2.5	/experiments/knapen_aot/videos/S_ILSVRC2015_train_00743000.mp4	0.0	244.10207295417786	2.5083560943603516
61	192.24875402450562	fix_post	2		12.0	59.0	2.5	/experiments/knapen_aot/videos/S_ILSVRC2015_train_00743000.mp4	0.0	246.6104290485382	0.09994888305664062
62	192.34870290756226	fix_pre	0		24.0	60.0	2.5	/experiments/knapen_aot/videos/R_S_production_ID_4360158.mp4	0.0	246.71037793159485	0.2010040283203125
62	192.54050993919373	response	0	4		60.0	2.5	/experiments/knapen_aot/videos/R_S_production_ID_4360158.mp4	0.0	246.90218496322632	
62	192.54970693588257	movie	1		163.0	60.0	2.5	/experiments/knapen_aot/videos/R_S_production_ID_4360158.mp4	0.0	246.91138195991516	2.5074119567871094
62	195.05711889266968	fix_post	2		12.0	60.0	2.5	/experiments/knapen_aot/videos/R_S_production_ID_4360158.mp4	0.0	249.41879391670227	0.09997010231018066
63	195.15708899497986	fix_pre	0		24.0	61.0	2.5	blank	1.0	249.51876401901245	0.19991397857666016
63	195.34885501861572	response	0	4		61.0	2.5	blank	1.0	249.71053004264832	
63	195.35700297355652	movie	1		301.0	61.0	2.5	blank	1.0	249.7186779975891	2.5083980560302734
63	197.8654010295868	fix_post	2		12.0	61.0	2.5	blank	1.0	252.22707605361938	0.10090899467468262
64	197.96631002426147	fix_pre	0		35.0	62.0	2.5	/experiments/knapen_aot/videos/S_yt-iO0efV_PV-k_102.mp4	0.0	252.32798504829407	0.29165196418762207
64	198.24124193191528	response	0	4		62.0	2.5	/experiments/knapen_aot/videos/S_yt-iO0efV_PV-k_102.mp4	0.0	252.60291695594788	
64	198.2579619884491	movie	1		301.0	62.0	2.5	/experiments/knapen_aot/videos/S_yt-iO0efV_PV-k_102.mp4	0.0	252.6196370124817	2.507405996322632
64	200.76536798477173	fix_post	2		12.0	62.0	2.5	/experiments/knapen_aot/videos/S_yt-iO0efV_PV-k_102.mp4	0.0	255.12704300880432	0.09993505477905273
65	200.86530303955078	fix_pre	0		20.0	63.0	2.5	/experiments/knapen_aot/videos/R_S_ILSVRC2015_train_00479002.mp4	0.0	255.22697806358337	0.16679787635803223
65	201.02379703521729	response	0	4		63.0	2.5	/experiments/knapen_aot/videos/R_S_ILSVRC2015_train_00479002.mp4	0.0	255.38547205924988	
65	201.0321009159088	movie	1		301.0	63.0	2.5	/experiments/knapen_aot/videos/R_S_ILSVRC2015_train_00479002.mp4	0.0	255.3937759399414	2.5082759857177734
65	203.5403769016266	fix_post	2		12.0	63.0	2.5	/experiments/knapen_aot/videos/R_S_ILSVRC2015_train_00479002.mp4	0.0	257.9020519256592	0.0999751091003418
66	203.64035201072693	fix_pre	0		19.0	64.0	2.5	/experiments/knapen_aot/videos/S_wc-sd8_iKx0t7s7_9.mp4	0.0	258.0020270347595	0.15920495986938477
66	203.7904999256134	response	0	4		64.0	2.5	/experiments/knapen_aot/videos/S_wc-sd8_iKx0t7s7_9.mp4	0.0	258.152174949646	
66	203.7995569705963	movie	1		161.0	64.0	2.5	/experiments/knapen_aot/videos/S_wc-sd8_iKx0t7s7_9.mp4	0.0	258.1612319946289	2.5074820518493652
66	206.30703902244568	fix_post	2		12.0	64.0	2.5	/experiments/knapen_aot/videos/S_wc-sd8_iKx0t7s7_9.mp4	0.0	260.66871404647827	0.0999908447265625
67	206.40702986717224	fix_pre	0		21.0	65.0	2.5	/experiments/knapen_aot/videos/R_S_yt-wIZprsJwxBM_298.mp4	0.0	260.76870489120483	0.1750030517578125
67	206.56639695167542	response	0	4		65.0	2.5	/experiments/knapen_aot/videos/R_S_yt-wIZprsJwxBM_298.mp4	0.0	260.928071975708	
67	206.58203291893005	movie	1		301.0	65.0	2.5	/experiments/knapen_aot/videos/R_S_yt-wIZprsJwxBM_298.mp4	0.0	260.94370794296265	2.5083279609680176
67	209.09036087989807	fix_post	2		12.0	65.0	2.5	/experiments/knapen_aot/videos/R_S_yt-wIZprsJwxBM_298.mp4	0.0	263.45203590393066	0.09993505477905273
68	209.19029593467712	fix_pre	0		17.0	66.0	2.5	/experiments/knapen_aot/videos/S_yt-f9iXELY0EJ0_344.mp4	0.0	263.5519709587097	0.1416919231414795
68	209.3238320350647	response	0	4		66.0	2.5	/experiments/knapen_aot/videos/S_yt-f9iXELY0EJ0_344.mp4	0.0	263.6855070590973	
68	209.3319878578186	movie	1		301.0	66.0	2.5	/experiments/knapen_aot/videos/S_yt-f9iXELY0EJ0_344.mp4	0.0	263.6936628818512	2.508345127105713
68	211.84033298492432	fix_post	2		12.0	66.0	2.5	/experiments/knapen_aot/videos/S_yt-f9iXELY0EJ0_344.mp4	0.0	266.2020080089569	0.10002303123474121
69	211.94035601615906	fix_pre	0		24.0	67.0	2.5	/experiments/knapen_aot/videos/R_S_yt-y6zr69M0yHI_76.mp4	0.0	266.30203104019165	0.19992494583129883
69	212.13214206695557	response	0	4		67.0	2.5	/experiments/knapen_aot/videos/R_S_yt-y6zr69M0yHI_76.mp4	0.0	266.49381709098816	
69	212.14028096199036	movie	1		301.0	67.0	2.5	/experiments/knapen_aot/videos/R_S_yt-y6zr69M0yHI_76.mp4	0.0	266.50195598602295	2.508371114730835
69	214.6486520767212	fix_post	2		12.0	67.0	2.5	/experiments/knapen_aot/videos/R_S_yt-y6zr69M0yHI_76.mp4	0.0	269.0103271007538	0.09999680519104004
70	214.74864888191223	fix_pre	0		19.0	68.0	2.5	blank	1.0	269.1103239059448	0.15827298164367676
70	214.8987648487091	response	0	4		68.0	2.5	blank	1.0	269.2604398727417	
70	214.9069218635559	movie	1		301.0	68.0	2.5	blank	1.0	269.2685968875885	2.508329153060913
70	217.41525101661682	fix_post	2		12.0	68.0	2.5	blank	1.0	271.7769260406494	0.10001397132873535
71	217.51526498794556	fix_pre	0		52.0	69.0	2.5	/experiments/knapen_aot/videos/S_yt-r4st6Mt4EE8_85.mp4	0.0	271.87694001197815	0.43335986137390137
71	217.94041204452515	response	0	4		69.0	2.5	/experiments/knapen_aot/videos/S_yt-r4st6Mt4EE8_85.mp4	0.0	272.30208706855774	
71	217.94862484931946	movie	1		301.0	69.0	2.5	/experiments/knapen_aot/videos/S_yt-r4st6Mt4EE8_85.mp4	0.0	272.31029987335205	2.5083260536193848
71	220.45695090293884	fix_post	2		11.0	69.0	2.5	/experiments/knapen_aot/videos/S_yt-r4st6Mt4EE8_85.mp4	0.0	274.81862592697144	0.09243607521057129
72	220.5493869781494	fix_pre	0		31.0	70.0	2.5	/experiments/knapen_aot/videos/S_yt-qycUhA3Isjg_76.mp4	0.0	274.911062002182	0.2575209140777588
72	220.79864287376404	response	0	4		70.0	2.5	/experiments/knapen_aot/videos/S_yt-qycUhA3Isjg_76.mp4	0.0	275.16031789779663	
72	220.80690789222717	movie	1		301.0	70.0	2.5	/experiments/knapen_aot/videos/S_yt-qycUhA3Isjg_76.mp4	0.0	275.16858291625977	2.508358955383301
72	223.31526684761047	fix_post	2		12.0	70.0	2.5	/experiments/knapen_aot/videos/S_yt-qycUhA3Isjg_76.mp4	0.0	277.67694187164307	0.10001707077026367
73	223.41528391838074	fix_pre	0		29.0	71.0	2.5	/experiments/knapen_aot/videos/S_yt-Ol4xuEA8xQc_776.mp4	0.0	277.77695894241333	0.2415461540222168
73	223.64874005317688	response	0	4		71.0	2.5	/experiments/knapen_aot/videos/S_yt-Ol4xuEA8xQc_776.mp4	0.0	278.0104150772095	
73	223.65683007240295	movie	1		301.0	71.0	2.5	/experiments/knapen_aot/videos/S_yt-Ol4xuEA8xQc_776.mp4	0.0	278.01850509643555	2.508366823196411
73	226.16519689559937	fix_post	2		12.0	71.0	2.5	/experiments/knapen_aot/videos/S_yt-Ol4xuEA8xQc_776.mp4	0.0	280.52687191963196	0.10008096694946289
74	226.26527786254883	fix_pre	0		32.0	72.0	2.5	/experiments/knapen_aot/videos/S_ILSVRC2015_train_00408000.mp4	0.0	280.6269528865814	0.2665390968322754
74	226.5237078666687	response	0	4		72.0	2.5	/experiments/knapen_aot/videos/S_ILSVRC2015_train_00408000.mp4	0.0	280.8853828907013	
74	226.5318169593811	movie	1		301.0	72.0	2.5	/experiments/knapen_aot/videos/S_ILSVRC2015_train_00408000.mp4	0.0	280.8934919834137	2.5083470344543457
74	229.04016399383545	fix_post	2		12.0	72.0	2.5	/experiments/knapen_aot/videos/S_ILSVRC2015_train_00408000.mp4	0.0	283.40183901786804	0.10005903244018555
75	229.14022302627563	fix_pre	0		115.0	73.0	2.5	/experiments/knapen_aot/videos/S_yt-XbigWWtnGL4_75.mp4	0.0	283.5018980503082	0.9583158493041992
75	230.0903639793396	response	0	4		73.0	2.5	/experiments/knapen_aot/videos/S_yt-XbigWWtnGL4_75.mp4	0.0	284.4520390033722	
75	230.09853887557983	movie	1		298.0	73.0	2.5	/experiments/knapen_aot/videos/S_yt-XbigWWtnGL4_75.mp4	0.0	284.4602138996124	2.508289098739624
75	232.60682797431946	fix_post	2		12.0	73.0	2.5	/experiments/knapen_aot/videos/S_yt-XbigWWtnGL4_75.mp4	0.0	286.96850299835205	0.10003495216369629
76	232.70686292648315	fix_pre	0		18.0	74.0	2.5	/experiments/knapen_aot/videos/R_S_MEX_A006_C008_SDR_20190923_SDR_2K_AVC.mp4	0.0	287.06853795051575	0.15001893043518066
76	232.84116196632385	response	0	4		74.0	2.5	/experiments/knapen_aot/videos/R_S_MEX_A006_C008_SDR_20190923_SDR_2K_AVC.mp4	0.0	287.20283699035645	
76	232.85688185691833	movie	1		166.0	74.0	2.5	/experiments/knapen_aot/videos/R_S_MEX_A006_C008_SDR_20190923_SDR_2K_AVC.mp4	0.0	287.2185568809509	2.5083181858062744
76	235.3652000427246	fix_post	2		12.0	74.0	2.5	/experiments/knapen_aot/videos/R_S_MEX_A006_C008_SDR_20190923_SDR_2K_AVC.mp4	0.0	289.7268750667572	0.1000208854675293
77	235.46522092819214	fix_pre	0		14.0	75.0	2.5	/experiments/knapen_aot/videos/R_S_yt-J2PiBa1MXI0_210.mp4	0.0	289.82689595222473	0.11655712127685547
77	235.5736699104309	response	0	4		75.0	2.5	/experiments/knapen_aot/videos/R_S_yt-J2PiBa1MXI0_210.mp4	0.0	289.9353449344635	
77	235.581778049469	movie	1		301.0	75.0	2.5	/experiments/knapen_aot/videos/R_S_yt-J2PiBa1MXI0_210.mp4	0.0	289.9434530735016	2.5084009170532227
77	238.09017896652222	fix_post	2		12.0	75.0	2.5	/experiments/knapen_aot/videos/R_S_yt-J2PiBa1MXI0_210.mp4	0.0	292.4518539905548	0.09997391700744629
78	238.19015288352966	fix_pre	0		23.0	76.0	2.5	/experiments/knapen_aot/videos/R_S_pexels-c-technical-6753390.mp4	0.0	292.55182790756226	0.1924741268157959
78	238.37365698814392	response	0	4		76.0	2.5	/experiments/knapen_aot/videos/R_S_pexels-c-technical-6753390.mp4	0.0	292.7353320121765	
78	238.38262701034546	movie	1		197.0	76.0	2.5	/experiments/knapen_aot/videos/R_S_pexels-c-technical-6753390.mp4	0.0	292.74430203437805	2.5075809955596924
78	240.89020800590515	fix_post	2		12.0	76.0	2.5	/experiments/knapen_aot/videos/R_S_pexels-c-technical-6753390.mp4	0.0	295.25188302993774	0.09992504119873047
79	240.99013304710388	fix_pre	0		10.0	77.0	2.5	blank	1.0	295.3518080711365	0.0833590030670166
79	241.06527590751648	response	0	4		77.0	2.5	blank	1.0	295.4269509315491	
79	241.0734920501709	movie	1		301.0	77.0	2.5	blank	1.0	295.4351670742035	2.5082828998565674
79	243.58177495002747	fix_post	2		12.0	77.0	2.5	blank	1.0	297.94344997406006	0.09995508193969727
80	243.68173003196716	fix_pre	0		31.0	78.0	2.5	/experiments/knapen_aot/videos/R_S_ILSVRC2015_train_00251005.mp4	0.0	298.04340505599976	0.2584099769592285
80	243.9320080280304	response	0	4		78.0	2.5	/experiments/knapen_aot/videos/R_S_ILSVRC2015_train_00251005.mp4	0.0	298.293683052063	
80	243.9401400089264	movie	1		298.0	78.0	2.5	/experiments/knapen_aot/videos/R_S_ILSVRC2015_train_00251005.mp4	0.0	298.301815032959	2.508352041244507
80	246.4484920501709	fix_post	2		12.0	78.0	2.5	/experiments/knapen_aot/videos/R_S_ILSVRC2015_train_00251005.mp4	0.0	300.8101670742035	0.10005784034729004
81	246.5485498905182	fix_pre	0		51.0	79.0	2.5	/experiments/knapen_aot/videos/R_S_pexels-c-technical-6754008.mp4	0.0	300.9102249145508	0.4250071048736572
81	246.96534991264343	response	0	4		79.0	2.5	/experiments/knapen_aot/videos/R_S_pexels-c-technical-6754008.mp4	0.0	301.327024936676	
81	246.97355699539185	movie	1		204.0	79.0	2.5	/experiments/knapen_aot/videos/R_S_pexels-c-technical-6754008.mp4	0.0	301.33523201942444	2.5082900524139404
81	249.4818470478058	fix_post	2		12.0	79.0	2.5	/experiments/knapen_aot/videos/R_S_pexels-c-technical-6754008.mp4	0.0	303.8435220718384	0.0999917984008789
82	249.58183884620667	fix_pre	0		11.0	80.0	2.5	/experiments/knapen_aot/videos/S_ILSVRC2015_train_00185002.mp4	0.0	303.94351387023926	0.09229922294616699
82	249.6586389541626	response	0	4		80.0	2.5	/experiments/knapen_aot/videos/S_ILSVRC2015_train_00185002.mp4	0.0	304.0203139781952	
82	249.67413806915283	movie	1		301.0	80.0	2.5	/experiments/knapen_aot/videos/S_ILSVRC2015_train_00185002.mp4	0.0	304.0358130931854	2.50757098197937
82	252.1817090511322	fix_post	2		12.0	80.0	2.5	/experiments/knapen_aot/videos/S_ILSVRC2015_train_00185002.mp4	0.0	306.5433840751648	0.10013890266418457
83	252.2818479537964	fix_pre	0		15.0	81.0	2.5	/experiments/knapen_aot/videos/R_S_yt-xNKgc8sFYvU_35.mp4	0.0	306.643522977829	0.12489700317382812
83	252.3985788822174	response	0	4		81.0	2.5	/experiments/knapen_aot/videos/R_S_yt-xNKgc8sFYvU_35.mp4	0.0	306.76025390625	
83	252.40674495697021	movie	1		301.0	81.0	2.5	/experiments/knapen_aot/videos/R_S_yt-xNKgc8sFYvU_35.mp4	0.0	306.7684199810028	2.5083789825439453
83	254.91512393951416	fix_post	2		12.0	81.0	2.5	/experiments/knapen_aot/videos/R_S_yt-xNKgc8sFYvU_35.mp4	0.0	309.27679896354675	0.10004091262817383
84	255.01516485214233	fix_pre	0		38.0	82.0	2.5	/experiments/knapen_aot/videos/R_S_yt-qxtmtMnUfD0_124.mp4	0.0	309.3768398761749	0.31652402877807617
84	255.32358598709106	response	0	4		82.0	2.5	/experiments/knapen_aot/videos/R_S_yt-qxtmtMnUfD0_124.mp4	0.0	309.68526101112366	
84	255.3316888809204	movie	1		301.0	82.0	2.5	/experiments/knapen_aot/videos/R_S_yt-qxtmtMnUfD0_124.mp4	0.0	309.693363904953	2.5084340572357178
84	257.8401229381561	fix_post	2		12.0	82.0	2.5	/experiments/knapen_aot/videos/R_S_yt-qxtmtMnUfD0_124.mp4	0.0	312.2017979621887	0.09999704360961914
85	257.94011998176575	fix_pre	0		31.0	83.0	2.5	blank	1.0	312.30179500579834	0.25832390785217285
85	258.1901340484619	response	0	4		83.0	2.5	blank	1.0	312.5518090724945	
85	258.1984438896179	movie	1		301.0	83.0	2.5	blank	1.0	312.5601189136505	2.508329153060913
85	260.70677304267883	fix_post	2		12.0	83.0	2.5	blank	1.0	315.0684480667114	0.09999394416809082
87	260.8067669868469	stim	0		177.0					315.1684420108795	1.4783620834350586
87	262.27734208106995	response	0	space						316.63901710510254	
