trial_nr	onset	event_type	phase	response	nr_frames	movie_index	movie_duration	movie_file	blank	onset_abs	duration
0	0.12457704544067383	stim	0		48.0					68.74307608604431	0.40192294120788574
0	0.5165479183197021	response	0	space						69.13504695892334	
1	0.5264999866485596	stim	0		121.0					69.1449990272522	1.0066750049591064
1	1.533174991607666	stim	1		120.0					70.1516740322113	0.9996418952941895
1	1.9745428562164307	response	1	space						70.59304189682007	
1	2.374492883682251	response	1	space						70.99299192428589	
2	2.5328168869018555	fix_pre	0		34.0	0.0	2.5	/experiments/knapen_aot/videos/R_S_yt-szXWk_X_67Q_10.mp4	0.0	71.1513159275055	0.28320813179016113
2	2.8077759742736816	response	0	space		0.0	2.5	/experiments/knapen_aot/videos/R_S_yt-szXWk_X_67Q_10.mp4	0.0	71.42627501487732	
2	2.8160250186920166	movie	1		301.0	0.0	2.5	/experiments/knapen_aot/videos/R_S_yt-szXWk_X_67Q_10.mp4	0.0	71.43452405929565	2.5083189010620117
2	5.324343919754028	fix_post	2		12.0	0.0	2.5	/experiments/knapen_aot/videos/R_S_yt-szXWk_X_67Q_10.mp4	0.0	73.94284296035767	0.10014200210571289
3	5.424485921859741	fix_pre	0		139.0	1.0	2.5	/experiments/knapen_aot/videos/R_S_yt-2V2tq9-O_Nc_1669.mp4	0.0	74.04298496246338	1.15814208984375
3	6.5717689990997314	response	0	2		1.0	2.5	/experiments/knapen_aot/videos/R_S_yt-2V2tq9-O_Nc_1669.mp4	0.0	75.19026803970337	
3	6.582628011703491	movie	1		301.0	1.0	2.5	/experiments/knapen_aot/videos/R_S_yt-2V2tq9-O_Nc_1669.mp4	0.0	75.20112705230713	2.508514881134033
3	9.091142892837524	fix_post	2		12.0	1.0	2.5	/experiments/knapen_aot/videos/R_S_yt-2V2tq9-O_Nc_1669.mp4	0.0	77.70964193344116	0.09994101524353027
4	9.191083908081055	fix_pre	0		60.0	2.0	2.5	/experiments/knapen_aot/videos/S_yt-ThT8utBaywI_68.mp4	0.0	77.80958294868469	0.49993300437927246
4	9.682808876037598	response	0	2		2.0	2.5	/experiments/knapen_aot/videos/S_yt-ThT8utBaywI_68.mp4	0.0	78.30130791664124	
4	9.691016912460327	movie	1		301.0	2.0	2.5	/experiments/knapen_aot/videos/S_yt-ThT8utBaywI_68.mp4	0.0	78.30951595306396	2.5083351135253906
4	12.199352025985718	fix_post	2		12.0	2.0	2.5	/experiments/knapen_aot/videos/S_yt-ThT8utBaywI_68.mp4	0.0	80.81785106658936	0.10002994537353516
5	12.299381971359253	fix_pre	0		35.0	3.0	2.5	/experiments/knapen_aot/videos/R_S_ILSVRC2015_train_00417000.mp4	0.0	80.91788101196289	0.29161906242370605
5	12.58279800415039	response	0	2		3.0	2.5	/experiments/knapen_aot/videos/R_S_ILSVRC2015_train_00417000.mp4	0.0	81.20129704475403	
5	12.591001033782959	movie	1		301.0	3.0	2.5	/experiments/knapen_aot/videos/R_S_ILSVRC2015_train_00417000.mp4	0.0	81.2095000743866	2.5084569454193115
5	15.09945797920227	fix_post	2		12.0	3.0	2.5	/experiments/knapen_aot/videos/R_S_ILSVRC2015_train_00417000.mp4	0.0	83.71795701980591	0.0999140739440918
6	15.199372053146362	fix_pre	0		32.0	4.0	2.5	/experiments/knapen_aot/videos/S_yt-yJmHtBFyhH4_15.mp4	0.0	83.81787109375	0.2665858268737793
6	15.45779800415039	response	0	2		4.0	2.5	/experiments/knapen_aot/videos/S_yt-yJmHtBFyhH4_15.mp4	0.0	84.07629704475403	
6	15.465957880020142	movie	1		301.0	4.0	2.5	/experiments/knapen_aot/videos/S_yt-yJmHtBFyhH4_15.mp4	0.0	84.08445692062378	2.50839900970459
6	17.97435688972473	fix_post	2		12.0	4.0	2.5	/experiments/knapen_aot/videos/S_yt-yJmHtBFyhH4_15.mp4	0.0	86.59285593032837	0.10006213188171387
7	18.074419021606445	fix_pre	0		45.0	5.0	2.5	/experiments/knapen_aot/videos/R_S_yt-AHbFln6blfE_36.mp4	0.0	86.69291806221008	0.37543201446533203
7	18.441200017929077	response	0	2		5.0	2.5	/experiments/knapen_aot/videos/R_S_yt-AHbFln6blfE_36.mp4	0.0	87.05969905853271	
7	18.449851036071777	movie	1		301.0	5.0	2.5	/experiments/knapen_aot/videos/R_S_yt-AHbFln6blfE_36.mp4	0.0	87.06835007667542	2.5078790187835693
7	20.957730054855347	fix_post	2		12.0	5.0	2.5	/experiments/knapen_aot/videos/R_S_yt-AHbFln6blfE_36.mp4	0.0	89.57622909545898	0.09999585151672363
8	21.05772590637207	fix_pre	0		38.0	6.0	2.5	/experiments/knapen_aot/videos/S_pexels-kampus-production-5991896.mp4	0.0	89.67622494697571	0.31662702560424805
8	21.35868501663208	response	0	2		6.0	2.5	/experiments/knapen_aot/videos/S_pexels-kampus-production-5991896.mp4	0.0	89.97718405723572	
8	21.37435293197632	movie	1		160.0	6.0	2.5	/experiments/knapen_aot/videos/S_pexels-kampus-production-5991896.mp4	0.0	89.99285197257996	2.508357048034668
8	23.882709980010986	fix_post	2		12.0	6.0	2.5	/experiments/knapen_aot/videos/S_pexels-kampus-production-5991896.mp4	0.0	92.50120902061462	0.09994292259216309
9	23.98265290260315	fix_pre	0		34.0	7.0	2.5	blank	1.0	92.60115194320679	0.2832961082458496
9	24.257736921310425	response	0	2		7.0	2.5	blank	1.0	92.87623596191406	
9	24.265949010849	movie	1		301.0	7.0	2.5	blank	1.0	92.88444805145264	2.5083558559417725
9	26.77430486679077	fix_post	2		12.0	7.0	2.5	blank	1.0	95.39280390739441	0.1000370979309082
10	26.87434196472168	fix_pre	0		66.0	8.0	2.5	/experiments/knapen_aot/videos/S_yt-2lnxIdOTxog_157.mp4	0.0	95.49284100532532	0.5499138832092285
10	27.416080951690674	response	0	2		8.0	2.5	/experiments/knapen_aot/videos/S_yt-2lnxIdOTxog_157.mp4	0.0	96.03457999229431	
10	27.424255847930908	movie	1		301.0	8.0	2.5	/experiments/knapen_aot/videos/S_yt-2lnxIdOTxog_157.mp4	0.0	96.04275488853455	2.5083742141723633
10	29.93263006210327	fix_post	2		12.0	8.0	2.5	/experiments/knapen_aot/videos/S_yt-2lnxIdOTxog_157.mp4	0.0	98.55112910270691	0.10055184364318848
11	30.03318190574646	fix_pre	0		57.0	9.0	2.5	/experiments/knapen_aot/videos/S_production_ID_4720614.mp4	0.0	98.6516809463501	0.47440409660339355
11	30.49941897392273	response	0	2		9.0	2.5	/experiments/knapen_aot/videos/S_production_ID_4720614.mp4	0.0	99.11791801452637	
11	30.507586002349854	movie	1		195.0	9.0	2.5	/experiments/knapen_aot/videos/S_production_ID_4720614.mp4	0.0	99.12608504295349	2.508305072784424
11	33.01589107513428	fix_post	2		12.0	9.0	2.5	/experiments/knapen_aot/videos/S_production_ID_4720614.mp4	0.0	101.63439011573792	0.10003185272216797
12	33.115922927856445	fix_pre	0		40.0	10.0	2.5	/experiments/knapen_aot/videos/R_S_yt-TSSPDwAQLXs_158.mp4	0.0	101.73442196846008	0.3337709903717041
12	33.44110107421875	response	0	2		10.0	2.5	/experiments/knapen_aot/videos/R_S_yt-TSSPDwAQLXs_158.mp4	0.0	102.05960011482239	
12	33.44969391822815	movie	1		301.0	10.0	2.5	/experiments/knapen_aot/videos/R_S_yt-TSSPDwAQLXs_158.mp4	0.0	102.06819295883179	2.5079190731048584
12	35.95761299133301	fix_post	2		12.0	10.0	2.5	/experiments/knapen_aot/videos/R_S_yt-TSSPDwAQLXs_158.mp4	0.0	104.57611203193665	0.09996891021728516
13	36.05758190155029	fix_pre	0		59.0	11.0	2.5	/experiments/knapen_aot/videos/R_S_yt-G65z8p1YNhw_16.mp4	0.0	104.67608094215393	0.4916379451751709
13	36.54107189178467	response	0	2		11.0	2.5	/experiments/knapen_aot/videos/R_S_yt-G65z8p1YNhw_16.mp4	0.0	105.1595709323883	
13	36.549219846725464	movie	1		301.0	11.0	2.5	/experiments/knapen_aot/videos/R_S_yt-G65z8p1YNhw_16.mp4	0.0	105.1677188873291	2.5083980560302734
13	39.05761790275574	fix_post	2		12.0	11.0	2.5	/experiments/knapen_aot/videos/R_S_yt-G65z8p1YNhw_16.mp4	0.0	107.67611694335938	0.09998798370361328
14	39.15760588645935	fix_pre	0		34.0	12.0	2.5	blank	1.0	107.77610492706299	0.2832760810852051
14	39.43275594711304	response	0	2		12.0	2.5	blank	1.0	108.05125498771667	
14	39.440881967544556	movie	1		301.0	12.0	2.5	blank	1.0	108.0593810081482	2.5083670616149902
14	41.949249029159546	fix_post	2		12.0	12.0	2.5	blank	1.0	110.56774806976318	0.09998297691345215
15	42.049232006073	fix_pre	0		49.0	13.0	2.5	/experiments/knapen_aot/videos/S_comp_A103_C002_0205DG_v12_SDR_FINAL_20180706_SDR_2K_AVC.mp4	0.0	110.66773104667664	0.4082908630371094
15	42.44926905632019	response	0	2		13.0	2.5	/experiments/knapen_aot/videos/S_comp_A103_C002_0205DG_v12_SDR_FINAL_20180706_SDR_2K_AVC.mp4	0.0	111.06776809692383	
15	42.45752286911011	movie	1		164.0	13.0	2.5	/experiments/knapen_aot/videos/S_comp_A103_C002_0205DG_v12_SDR_FINAL_20180706_SDR_2K_AVC.mp4	0.0	111.07602190971375	2.508362054824829
15	44.96588492393494	fix_post	2		12.0	13.0	2.5	/experiments/knapen_aot/videos/S_comp_A103_C002_0205DG_v12_SDR_FINAL_20180706_SDR_2K_AVC.mp4	0.0	113.58438396453857	0.09999704360961914
16	45.065881967544556	fix_pre	0		37.0	14.0	2.5	/experiments/knapen_aot/videos/S_yt-wPXrAuiiRZg_1062.mp4	0.0	113.6843810081482	0.3083028793334961
16	45.35865092277527	response	0	2		14.0	2.5	/experiments/knapen_aot/videos/S_yt-wPXrAuiiRZg_1062.mp4	0.0	113.9771499633789	
16	45.37418484687805	movie	1		301.0	14.0	2.5	/experiments/knapen_aot/videos/S_yt-wPXrAuiiRZg_1062.mp4	0.0	113.99268388748169	2.5083720684051514
16	47.8825569152832	fix_post	2		12.0	14.0	2.5	/experiments/knapen_aot/videos/S_yt-wPXrAuiiRZg_1062.mp4	0.0	116.50105595588684	0.0999610424041748
17	47.98251795768738	fix_pre	0		53.0	15.0	2.5	/experiments/knapen_aot/videos/R_S_yt-VrEuTDQxtD0_226.mp4	0.0	116.60101699829102	0.4416029453277588
17	48.4084529876709	response	0	2		15.0	2.5	/experiments/knapen_aot/videos/R_S_yt-VrEuTDQxtD0_226.mp4	0.0	117.02695202827454	
17	48.42412090301514	movie	1		301.0	15.0	2.5	/experiments/knapen_aot/videos/R_S_yt-VrEuTDQxtD0_226.mp4	0.0	117.04261994361877	2.5084431171417236
17	50.93256402015686	fix_post	2		12.0	15.0	2.5	/experiments/knapen_aot/videos/R_S_yt-VrEuTDQxtD0_226.mp4	0.0	119.5510630607605	0.10037589073181152
18	51.03293991088867	fix_pre	0		45.0	16.0	2.5	/experiments/knapen_aot/videos/R_S_yt-31yLemkW42Q_111.mp4	0.0	119.65143895149231	0.3749070167541504
18	51.39930987358093	response	0	2		16.0	2.5	/experiments/knapen_aot/videos/R_S_yt-31yLemkW42Q_111.mp4	0.0	120.01780891418457	
18	51.40784692764282	movie	1		301.0	16.0	2.5	/experiments/knapen_aot/videos/R_S_yt-31yLemkW42Q_111.mp4	0.0	120.02634596824646	2.508213996887207
18	53.91606092453003	fix_post	2		12.0	16.0	2.5	/experiments/knapen_aot/videos/R_S_yt-31yLemkW42Q_111.mp4	0.0	122.53455996513367	0.09978699684143066
19	54.01584792137146	fix_pre	0		37.0	17.0	2.5	/experiments/knapen_aot/videos/S_pexels-rodnae-productions-5993237.mp4	0.0	122.6343469619751	0.3085939884185791
19	54.315950870513916	response	0	2		17.0	2.5	/experiments/knapen_aot/videos/S_pexels-rodnae-productions-5993237.mp4	0.0	122.93444991111755	
19	54.32444190979004	movie	1		166.0	17.0	2.5	/experiments/knapen_aot/videos/S_pexels-rodnae-productions-5993237.mp4	0.0	122.94294095039368	2.508073091506958
19	56.832515001297	fix_post	2		12.0	17.0	2.5	/experiments/knapen_aot/videos/S_pexels-rodnae-productions-5993237.mp4	0.0	125.45101404190063	0.10006093978881836
20	56.932575941085815	fix_pre	0		45.0	18.0	2.5	/experiments/knapen_aot/videos/R_S_ahUa35lQM6E_44.mp4	0.0	125.55107498168945	0.37490296363830566
20	57.29932403564453	response	0	2		18.0	2.5	/experiments/knapen_aot/videos/R_S_ahUa35lQM6E_44.mp4	0.0	125.91782307624817	
20	57.30747890472412	movie	1		301.0	18.0	2.5	/experiments/knapen_aot/videos/R_S_ahUa35lQM6E_44.mp4	0.0	125.92597794532776	2.5083651542663574
20	59.81584405899048	fix_post	2		12.0	18.0	2.5	/experiments/knapen_aot/videos/R_S_ahUa35lQM6E_44.mp4	0.0	128.43434309959412	0.09991693496704102
21	59.91576099395752	fix_pre	0		46.0	19.0	2.5	/experiments/knapen_aot/videos/S_yt-2ftSsLqRQnA_84.mp4	0.0	128.53426003456116	0.3833808898925781
21	60.290984869003296	response	0	2		19.0	2.5	/experiments/knapen_aot/videos/S_yt-2ftSsLqRQnA_84.mp4	0.0	128.90948390960693	
21	60.2991418838501	movie	1		301.0	19.0	2.5	/experiments/knapen_aot/videos/S_yt-2ftSsLqRQnA_84.mp4	0.0	128.91764092445374	2.5082991123199463
21	62.807440996170044	fix_post	2		12.0	19.0	2.5	/experiments/knapen_aot/videos/S_yt-2ftSsLqRQnA_84.mp4	0.0	131.42594003677368	0.10045790672302246
22	62.907898902893066	fix_pre	0		36.0	20.0	2.5	/experiments/knapen_aot/videos/S_production_ID_5020953.mp4	0.0	131.5263979434967	0.2995920181274414
22	63.19926905632019	response	0	2		20.0	2.5	/experiments/knapen_aot/videos/S_production_ID_5020953.mp4	0.0	131.81776809692383	
22	63.20749092102051	movie	1		192.0	20.0	2.5	/experiments/knapen_aot/videos/S_production_ID_5020953.mp4	0.0	131.82598996162415	2.508327007293701
22	65.71581792831421	fix_post	2		12.0	20.0	2.5	/experiments/knapen_aot/videos/S_production_ID_5020953.mp4	0.0	134.33431696891785	0.10000896453857422
23	65.81582689285278	fix_pre	0		54.0	21.0	2.5	blank	1.0	134.43432593345642	0.4499549865722656
23	66.25015091896057	response	0	2		21.0	2.5	blank	1.0	134.8686499595642	
23	66.26578187942505	movie	1		301.0	21.0	2.5	blank	1.0	134.8842809200287	2.5085439682006836
23	68.77432584762573	fix_post	2		12.0	21.0	2.5	blank	1.0	137.39282488822937	0.09991717338562012
24	68.87424302101135	fix_pre	0		54.0	22.0	2.5	/experiments/knapen_aot/videos/R_S_yt-etQaTgGOhR4_69.mp4	0.0	137.492742061615	0.4501948356628418
24	69.3158929347992	response	0	2		22.0	2.5	/experiments/knapen_aot/videos/R_S_yt-etQaTgGOhR4_69.mp4	0.0	137.93439197540283	
24	69.3244378566742	movie	1		300.0	22.0	2.5	/experiments/knapen_aot/videos/R_S_yt-etQaTgGOhR4_69.mp4	0.0	137.94293689727783	2.5080111026763916
24	71.83244895935059	fix_post	2		12.0	22.0	2.5	/experiments/knapen_aot/videos/R_S_yt-etQaTgGOhR4_69.mp4	0.0	140.45094799995422	0.09999895095825195
25	71.93244791030884	fix_pre	0		52.0	23.0	2.5	/experiments/knapen_aot/videos/S_yt-eoASPwIAiHY_244.mp4	0.0	140.55094695091248	0.43352413177490234
25	72.35756301879883	response	0	2		23.0	2.5	/experiments/knapen_aot/videos/S_yt-eoASPwIAiHY_244.mp4	0.0	140.97606205940247	
25	72.36597204208374	movie	1		301.0	23.0	2.5	/experiments/knapen_aot/videos/S_yt-eoASPwIAiHY_244.mp4	0.0	140.98447108268738	2.508145809173584
25	74.87411785125732	fix_post	2		12.0	23.0	2.5	/experiments/knapen_aot/videos/S_yt-eoASPwIAiHY_244.mp4	0.0	143.49261689186096	0.09998917579650879
26	74.97410702705383	fix_pre	0		43.0	24.0	2.5	/experiments/knapen_aot/videos/S_yt-tneuR3EtSZE_72.mp4	0.0	143.59260606765747	0.3582320213317871
26	75.3242540359497	response	0	2		24.0	2.5	/experiments/knapen_aot/videos/S_yt-tneuR3EtSZE_72.mp4	0.0	143.94275307655334	
26	75.33233904838562	movie	1		301.0	24.0	2.5	/experiments/knapen_aot/videos/S_yt-tneuR3EtSZE_72.mp4	0.0	143.95083808898926	2.5086629390716553
26	77.84100198745728	fix_post	2		12.0	24.0	2.5	/experiments/knapen_aot/videos/S_yt-tneuR3EtSZE_72.mp4	0.0	146.4595010280609	0.09978508949279785
27	77.94078707695007	fix_pre	0		48.0	25.0	2.5	/experiments/knapen_aot/videos/R_S_yt-oT4Bq8zYN4E_42.mp4	0.0	146.5592861175537	0.39992785453796387
27	78.33255100250244	response	0	2		25.0	2.5	/experiments/knapen_aot/videos/R_S_yt-oT4Bq8zYN4E_42.mp4	0.0	146.95105004310608	
27	78.34071493148804	movie	1		301.0	25.0	2.5	/experiments/knapen_aot/videos/R_S_yt-oT4Bq8zYN4E_42.mp4	0.0	146.95921397209167	2.508345127105713
27	80.84906005859375	fix_post	2		12.0	25.0	2.5	/experiments/knapen_aot/videos/R_S_yt-oT4Bq8zYN4E_42.mp4	0.0	149.4675590991974	0.10001993179321289
28	80.94907999038696	fix_pre	0		43.0	26.0	2.5	/experiments/knapen_aot/videos/R_S_bing-www_cnet_com_videos_amazon-wants-to-put-alexa-on-your-pc__50.mp4	0.0	149.5675790309906	0.358259916305542
28	81.29922890663147	response	0	2		26.0	2.5	/experiments/knapen_aot/videos/R_S_bing-www_cnet_com_videos_amazon-wants-to-put-alexa-on-your-pc__50.mp4	0.0	149.9177279472351	
28	81.3073399066925	movie	1		163.0	26.0	2.5	/experiments/knapen_aot/videos/R_S_bing-www_cnet_com_videos_amazon-wants-to-put-alexa-on-your-pc__50.mp4	0.0	149.92583894729614	2.5085880756378174
28	83.81592798233032	fix_post	2		12.0	26.0	2.5	/experiments/knapen_aot/videos/R_S_bing-www_cnet_com_videos_amazon-wants-to-put-alexa-on-your-pc__50.mp4	0.0	152.43442702293396	0.09982609748840332
29	83.91575407981873	fix_pre	0		57.0	27.0	2.5	blank	1.0	152.53425312042236	0.4749298095703125
29	84.3825318813324	response	0	2		27.0	2.5	blank	1.0	153.00103092193604	
29	84.39068388938904	movie	1		301.0	27.0	2.5	blank	1.0	153.00918292999268	2.508418083190918
29	86.89910197257996	fix_post	2		12.0	27.0	2.5	blank	1.0	155.5176010131836	0.09988689422607422
30	86.99898886680603	fix_pre	0		51.0	28.0	2.5	/experiments/knapen_aot/videos/S_production_ID_5146014.mp4	0.0	155.61748790740967	0.42501306533813477
30	87.41578507423401	response	0	2		28.0	2.5	/experiments/knapen_aot/videos/S_production_ID_5146014.mp4	0.0	156.03428411483765	
30	87.42400193214417	movie	1		166.0	28.0	2.5	/experiments/knapen_aot/videos/S_production_ID_5146014.mp4	0.0	156.0425009727478	2.5083799362182617
30	89.93238186836243	fix_post	2		12.0	28.0	2.5	/experiments/knapen_aot/videos/S_production_ID_5146014.mp4	0.0	158.55088090896606	0.10020112991333008
31	90.03258299827576	fix_pre	0		25.0	29.0	2.5	/experiments/knapen_aot/videos/S_yt-2V2tq9-O_Nc_1669.mp4	0.0	158.6510820388794	0.2082228660583496
31	90.23247003555298	response	0	2		29.0	2.5	/experiments/knapen_aot/videos/S_yt-2V2tq9-O_Nc_1669.mp4	0.0	158.85096907615662	
31	90.2408058643341	movie	1		301.0	29.0	2.5	/experiments/knapen_aot/videos/S_yt-2V2tq9-O_Nc_1669.mp4	0.0	158.85930490493774	2.5082712173461914
31	92.7490770816803	fix_post	2		12.0	29.0	2.5	/experiments/knapen_aot/videos/S_yt-2V2tq9-O_Nc_1669.mp4	0.0	161.36757612228394	0.10003185272216797
32	92.84910893440247	fix_pre	0		40.0	30.0	2.5	/experiments/knapen_aot/videos/R_S_ILSVRC2015_train_00708000.mp4	0.0	161.4676079750061	0.33318495750427246
32	93.17416191101074	response	0	2		30.0	2.5	/experiments/knapen_aot/videos/R_S_ILSVRC2015_train_00708000.mp4	0.0	161.79266095161438	
32	93.18229389190674	movie	1		301.0	30.0	2.5	/experiments/knapen_aot/videos/R_S_ILSVRC2015_train_00708000.mp4	0.0	161.80079293251038	2.508334159851074
32	95.69062805175781	fix_post	2		12.0	30.0	2.5	/experiments/knapen_aot/videos/R_S_ILSVRC2015_train_00708000.mp4	0.0	164.30912709236145	0.10004782676696777
33	95.79067587852478	fix_pre	0		47.0	31.0	2.5	/experiments/knapen_aot/videos/R_S_Pexels_Videos_2795737.mp4	0.0	164.40917491912842	0.3916640281677246
33	96.17412996292114	response	0	2		31.0	2.5	/experiments/knapen_aot/videos/R_S_Pexels_Videos_2795737.mp4	0.0	164.79262900352478	
33	96.1823399066925	movie	1		165.0	31.0	2.5	/experiments/knapen_aot/videos/R_S_Pexels_Videos_2795737.mp4	0.0	164.80083894729614	2.5083839893341064
33	98.69072389602661	fix_post	2		12.0	31.0	2.5	/experiments/knapen_aot/videos/R_S_Pexels_Videos_2795737.mp4	0.0	167.30922293663025	0.0998849868774414
34	98.79060888290405	fix_pre	0		53.0	32.0	2.5	/experiments/knapen_aot/videos/S_yt-HwZFMTZ7Xko_35.mp4	0.0	167.4091079235077	0.44168901443481445
34	99.22413086891174	response	0	2		32.0	2.5	/experiments/knapen_aot/videos/S_yt-HwZFMTZ7Xko_35.mp4	0.0	167.84262990951538	
34	99.23229789733887	movie	1		301.0	32.0	2.5	/experiments/knapen_aot/videos/S_yt-HwZFMTZ7Xko_35.mp4	0.0	167.8507969379425	2.508476972579956
34	101.74077486991882	fix_post	2		12.0	32.0	2.5	/experiments/knapen_aot/videos/S_yt-HwZFMTZ7Xko_35.mp4	0.0	170.35927391052246	0.09982514381408691
35	101.84060001373291	fix_pre	0		41.0	33.0	2.5	/experiments/knapen_aot/videos/R_S_wc-PX_MIe5L43_3_16.mp4	0.0	170.45909905433655	0.3416910171508789
35	102.17406487464905	response	0	2		33.0	2.5	/experiments/knapen_aot/videos/R_S_wc-PX_MIe5L43_3_16.mp4	0.0	170.79256391525269	
35	102.18229103088379	movie	1		301.0	33.0	2.5	/experiments/knapen_aot/videos/R_S_wc-PX_MIe5L43_3_16.mp4	0.0	170.80079007148743	2.508327007293701
35	104.69061803817749	fix_post	2		12.0	33.0	2.5	/experiments/knapen_aot/videos/R_S_wc-PX_MIe5L43_3_16.mp4	0.0	173.30911707878113	0.10017991065979004
36	104.79079794883728	fix_pre	0		53.0	34.0	2.5	/experiments/knapen_aot/videos/R_S_BO_A018_C029_SDR_20190812_SDR_2K_AVC.mp4	0.0	173.40929698944092	0.44148898124694824
36	105.2240879535675	response	0	2		34.0	2.5	/experiments/knapen_aot/videos/R_S_BO_A018_C029_SDR_20190812_SDR_2K_AVC.mp4	0.0	173.84258699417114	
36	105.23228693008423	movie	1		177.0	34.0	2.5	/experiments/knapen_aot/videos/R_S_BO_A018_C029_SDR_20190812_SDR_2K_AVC.mp4	0.0	173.85078597068787	2.5084829330444336
36	107.74076986312866	fix_post	2		12.0	34.0	2.5	/experiments/knapen_aot/videos/R_S_BO_A018_C029_SDR_20190812_SDR_2K_AVC.mp4	0.0	176.3592689037323	0.09985017776489258
37	107.84062004089355	fix_pre	0		32.0	35.0	2.5	blank	1.0	176.4591190814972	0.26665782928466797
37	108.09163904190063	response	0	2		35.0	2.5	blank	1.0	176.71013808250427	
37	108.10727787017822	movie	1		301.0	35.0	2.5	blank	1.0	176.72577691078186	2.5083770751953125
37	110.61565494537354	fix_post	2		12.0	35.0	2.5	blank	1.0	179.23415398597717	0.09996294975280762
38	110.71561789512634	fix_pre	0		35.0	36.0	2.5	/experiments/knapen_aot/videos/S_yt-BAQ3Xhm_PPE_23.mp4	0.0	179.33411693572998	0.29166102409362793
38	110.99905300140381	response	0	2		36.0	2.5	/experiments/knapen_aot/videos/S_yt-BAQ3Xhm_PPE_23.mp4	0.0	179.61755204200745	
38	111.00727891921997	movie	1		301.0	36.0	2.5	/experiments/knapen_aot/videos/S_yt-BAQ3Xhm_PPE_23.mp4	0.0	179.6257779598236	2.508347988128662
38	113.51562690734863	fix_post	2		12.0	36.0	2.5	/experiments/knapen_aot/videos/S_yt-BAQ3Xhm_PPE_23.mp4	0.0	182.13412594795227	0.10013413429260254
39	113.61576104164124	fix_pre	0		39.0	37.0	2.5	/experiments/knapen_aot/videos/S_ILSVRC2015_train_00538000.mp4	0.0	182.23426008224487	0.32474398612976074
39	113.93242001533508	response	0	2		37.0	2.5	/experiments/knapen_aot/videos/S_ILSVRC2015_train_00538000.mp4	0.0	182.55091905593872	
39	113.940505027771	movie	1		301.0	37.0	2.5	/experiments/knapen_aot/videos/S_ILSVRC2015_train_00538000.mp4	0.0	182.55900406837463	2.5084969997406006
39	116.4490020275116	fix_post	2		12.0	37.0	2.5	/experiments/knapen_aot/videos/S_ILSVRC2015_train_00538000.mp4	0.0	185.06750106811523	0.09993386268615723
40	116.54893589019775	fix_pre	0		48.0	38.0	2.5	/experiments/knapen_aot/videos/S_yt-n_eO-7KedAE_21.mp4	0.0	185.1674349308014	0.40006518363952637
40	116.94074487686157	response	0	2		38.0	2.5	/experiments/knapen_aot/videos/S_yt-n_eO-7KedAE_21.mp4	0.0	185.5592439174652	
40	116.94900107383728	movie	1		301.0	38.0	2.5	/experiments/knapen_aot/videos/S_yt-n_eO-7KedAE_21.mp4	0.0	185.56750011444092	2.5082919597625732
40	119.45729303359985	fix_post	2		12.0	38.0	2.5	/experiments/knapen_aot/videos/S_yt-n_eO-7KedAE_21.mp4	0.0	188.0757920742035	0.1002199649810791
41	119.55751299858093	fix_pre	0		53.0	39.0	2.5	/experiments/knapen_aot/videos/R_S_pexels-koolshooters-7327401.mp4	0.0	188.17601203918457	0.4413619041442871
41	119.9907169342041	response	0	2		39.0	2.5	/experiments/knapen_aot/videos/R_S_pexels-koolshooters-7327401.mp4	0.0	188.60921597480774	
41	119.99887490272522	movie	1		179.0	39.0	2.5	/experiments/knapen_aot/videos/R_S_pexels-koolshooters-7327401.mp4	0.0	188.61737394332886	2.5085601806640625
41	122.50743508338928	fix_post	2		12.0	39.0	2.5	/experiments/knapen_aot/videos/R_S_pexels-koolshooters-7327401.mp4	0.0	191.12593412399292	0.0997459888458252
42	122.60718107223511	fix_pre	0		68.0	40.0	2.5	blank	1.0	191.22568011283875	0.5668268203735352
42	123.16572999954224	response	0	2		40.0	2.5	blank	1.0	191.78422904014587	
42	123.17400789260864	movie	1		301.0	40.0	2.5	blank	1.0	191.79250693321228	2.508165121078491
42	125.68217301368713	fix_post	2		12.0	40.0	2.5	blank	1.0	194.30067205429077	0.10007405281066895
43	125.7822470664978	fix_pre	0		66.0	41.0	2.5	/experiments/knapen_aot/videos/R_S_video_inspire_nevada_lasvegas_northstrip_021.1080-h264.mp4	0.0	194.40074610710144	0.5499379634857178
43	126.3239848613739	response	0	2		41.0	2.5	/experiments/knapen_aot/videos/R_S_video_inspire_nevada_lasvegas_northstrip_021.1080-h264.mp4	0.0	194.94248390197754	
43	126.33218502998352	movie	1		176.0	41.0	2.5	/experiments/knapen_aot/videos/R_S_video_inspire_nevada_lasvegas_northstrip_021.1080-h264.mp4	0.0	194.95068407058716	2.5083858966827393
43	128.84057092666626	fix_post	2		12.0	41.0	2.5	/experiments/knapen_aot/videos/R_S_video_inspire_nevada_lasvegas_northstrip_021.1080-h264.mp4	0.0	197.4590699672699	0.1000370979309082
44	128.94060802459717	fix_pre	0		102.0	42.0	2.5	/experiments/knapen_aot/videos/S_PA_A001_C007_SDR_20190717_SDR_2K_AVC.mp4	0.0	197.5591070652008	0.8499410152435303
44	129.77482104301453	response	0	2		42.0	2.5	/experiments/knapen_aot/videos/S_PA_A001_C007_SDR_20190717_SDR_2K_AVC.mp4	0.0	198.39332008361816	
44	129.7905490398407	movie	1		167.0	42.0	2.5	/experiments/knapen_aot/videos/S_PA_A001_C007_SDR_20190717_SDR_2K_AVC.mp4	0.0	198.40904808044434	2.5083189010620117
44	132.2988679409027	fix_post	2		12.0	42.0	2.5	/experiments/knapen_aot/videos/S_PA_A001_C007_SDR_20190717_SDR_2K_AVC.mp4	0.0	200.91736698150635	0.10003900527954102
45	132.39890694618225	fix_pre	0		31.0	43.0	2.5	/experiments/knapen_aot/videos/S_c5iVM3LI6kI_252.mp4	0.0	201.0174059867859	0.25829195976257324
45	132.64901089668274	response	0	2		43.0	2.5	/experiments/knapen_aot/videos/S_c5iVM3LI6kI_252.mp4	0.0	201.26750993728638	
45	132.65719890594482	movie	1		301.0	43.0	2.5	/experiments/knapen_aot/videos/S_c5iVM3LI6kI_252.mp4	0.0	201.27569794654846	2.508371114730835
45	135.16557002067566	fix_post	2		12.0	43.0	2.5	/experiments/knapen_aot/videos/S_c5iVM3LI6kI_252.mp4	0.0	203.7840690612793	0.09998893737792969
46	135.2655589580536	fix_pre	0		81.0	44.0	2.5	/experiments/knapen_aot/videos/S_yt-Nnt51ug6NF8_53.mp4	0.0	203.88405799865723	0.6749188899993896
46	135.92474389076233	response	0	2		44.0	2.5	/experiments/knapen_aot/videos/S_yt-Nnt51ug6NF8_53.mp4	0.0	204.54324293136597	
46	135.94047784805298	movie	1		301.0	44.0	2.5	/experiments/knapen_aot/videos/S_yt-Nnt51ug6NF8_53.mp4	0.0	204.55897688865662	2.508369207382202
46	138.44884705543518	fix_post	2		12.0	44.0	2.5	/experiments/knapen_aot/videos/S_yt-Nnt51ug6NF8_53.mp4	0.0	207.06734609603882	0.09999394416809082
47	138.54884099960327	fix_pre	0		32.0	45.0	2.5	/experiments/knapen_aot/videos/S_yt-Ud9uqaeHtY4_302.mp4	0.0	207.1673400402069	0.26790404319763184
47	138.80726194381714	response	0	2		45.0	2.5	/experiments/knapen_aot/videos/S_yt-Ud9uqaeHtY4_302.mp4	0.0	207.42576098442078	
47	138.8167450428009	movie	1		301.0	45.0	2.5	/experiments/knapen_aot/videos/S_yt-Ud9uqaeHtY4_302.mp4	0.0	207.43524408340454	2.5070760250091553
47	141.32382106781006	fix_post	2		12.0	45.0	2.5	/experiments/knapen_aot/videos/S_yt-Ud9uqaeHtY4_302.mp4	0.0	209.9423201084137	0.09990191459655762
48	141.42372298240662	fix_pre	0		43.0	46.0	2.5	/experiments/knapen_aot/videos/S_Pz_NXxhQCJc_70.mp4	0.0	210.04222202301025	0.3584470748901367
48	141.77394700050354	response	0	2		46.0	2.5	/experiments/knapen_aot/videos/S_Pz_NXxhQCJc_70.mp4	0.0	210.39244604110718	
48	141.78217005729675	movie	1		301.0	46.0	2.5	/experiments/knapen_aot/videos/S_Pz_NXxhQCJc_70.mp4	0.0	210.4006690979004	2.5084009170532227
48	144.29057097434998	fix_post	2		12.0	46.0	2.5	/experiments/knapen_aot/videos/S_Pz_NXxhQCJc_70.mp4	0.0	212.9090700149536	0.09998106956481934
49	144.3905520439148	fix_pre	0		58.0	47.0	2.5	/experiments/knapen_aot/videos/S_FK_U009_C004_SDR_20191220_SDR_2K_AVC.mp4	0.0	213.00905108451843	0.48322391510009766
49	144.86559391021729	response	0	2		47.0	2.5	/experiments/knapen_aot/videos/S_FK_U009_C004_SDR_20191220_SDR_2K_AVC.mp4	0.0	213.48409295082092	
49	144.8737759590149	movie	1		163.0	47.0	2.5	/experiments/knapen_aot/videos/S_FK_U009_C004_SDR_20191220_SDR_2K_AVC.mp4	0.0	213.49227499961853	2.508394956588745
49	147.38217091560364	fix_post	2		12.0	47.0	2.5	/experiments/knapen_aot/videos/S_FK_U009_C004_SDR_20191220_SDR_2K_AVC.mp4	0.0	216.00066995620728	0.09999704360961914
50	147.48216795921326	fix_pre	0		58.0	48.0	2.5	blank	1.0	216.1006669998169	0.48326897621154785
50	147.95732188224792	response	0	2		48.0	2.5	blank	1.0	216.57582092285156	
50	147.9654369354248	movie	1		301.0	48.0	2.5	blank	1.0	216.58393597602844	2.5083510875701904
50	150.473788022995	fix_post	2		12.0	48.0	2.5	blank	1.0	219.09228706359863	0.10002303123474121
51	150.57381105422974	fix_pre	0		48.0	49.0	2.5	/experiments/knapen_aot/videos/S_yt--WPE_4bqQXc_26.mp4	0.0	219.19231009483337	0.40000295639038086
51	150.9655818939209	response	0	2		49.0	2.5	/experiments/knapen_aot/videos/S_yt--WPE_4bqQXc_26.mp4	0.0	219.58408093452454	
51	150.97381401062012	movie	1		301.0	49.0	2.5	/experiments/knapen_aot/videos/S_yt--WPE_4bqQXc_26.mp4	0.0	219.59231305122375	2.5083210468292236
51	153.48213505744934	fix_post	2		12.0	49.0	2.5	/experiments/knapen_aot/videos/S_yt--WPE_4bqQXc_26.mp4	0.0	222.10063409805298	0.10001492500305176
52	153.5821499824524	fix_pre	0		74.0	50.0	2.5	/experiments/knapen_aot/videos/R_S_ILSVRC2015_train_00303008.mp4	0.0	222.20064902305603	0.6166050434112549
52	154.19053602218628	response	0	2		50.0	2.5	/experiments/knapen_aot/videos/R_S_ILSVRC2015_train_00303008.mp4	0.0	222.80903506278992	
52	154.19875502586365	movie	1		301.0	50.0	2.5	/experiments/knapen_aot/videos/R_S_ILSVRC2015_train_00303008.mp4	0.0	222.81725406646729	2.508319854736328
52	156.70707488059998	fix_post	2		12.0	50.0	2.5	/experiments/knapen_aot/videos/R_S_ILSVRC2015_train_00303008.mp4	0.0	225.3255739212036	0.10002017021179199
53	156.80709505081177	fix_pre	0		69.0	51.0	2.5	/experiments/knapen_aot/videos/R_S_MEX_A006_C008_SDR_20190923_SDR_2K_AVC.mp4	0.0	225.4255940914154	0.5750148296356201
53	157.37393188476562	response	0	2		51.0	2.5	/experiments/knapen_aot/videos/R_S_MEX_A006_C008_SDR_20190923_SDR_2K_AVC.mp4	0.0	225.99243092536926	
53	157.3821098804474	movie	1		167.0	51.0	2.5	/experiments/knapen_aot/videos/R_S_MEX_A006_C008_SDR_20190923_SDR_2K_AVC.mp4	0.0	226.00060892105103	2.5083250999450684
53	159.89043498039246	fix_post	2		12.0	51.0	2.5	/experiments/knapen_aot/videos/R_S_MEX_A006_C008_SDR_20190923_SDR_2K_AVC.mp4	0.0	228.5089340209961	0.10000205039978027
54	159.99043703079224	fix_pre	0		106.0	52.0	2.5	/experiments/knapen_aot/videos/S_Pz_NXxhQCJc_70.mp4	0.0	228.60893607139587	0.8833010196685791
54	160.8655219078064	response	0	2		52.0	2.5	/experiments/knapen_aot/videos/S_Pz_NXxhQCJc_70.mp4	0.0	229.48402094841003	
54	160.87373805046082	movie	1		301.0	52.0	2.5	/experiments/knapen_aot/videos/S_Pz_NXxhQCJc_70.mp4	0.0	229.49223709106445	2.5083718299865723
54	163.3821098804474	fix_post	2		12.0	52.0	2.5	/experiments/knapen_aot/videos/S_Pz_NXxhQCJc_70.mp4	0.0	232.00060892105103	0.09994101524353027
55	163.48205089569092	fix_pre	0		76.0	53.0	2.5	/experiments/knapen_aot/videos/S_yt-qsyDLtXcyHc_8.mp4	0.0	232.10054993629456	0.633350133895874
55	164.1072199344635	response	0	2		53.0	2.5	/experiments/knapen_aot/videos/S_yt-qsyDLtXcyHc_8.mp4	0.0	232.72571897506714	
55	164.1154010295868	movie	1		301.0	53.0	2.5	/experiments/knapen_aot/videos/S_yt-qsyDLtXcyHc_8.mp4	0.0	232.73390007019043	2.5083320140838623
55	166.62373304367065	fix_post	2		12.0	53.0	2.5	/experiments/knapen_aot/videos/S_yt-qsyDLtXcyHc_8.mp4	0.0	235.2422320842743	0.09995794296264648
56	166.7236909866333	fix_pre	0		59.0	54.0	2.5	/experiments/knapen_aot/videos/S_yt-_WFwhcmbXXY_51.mp4	0.0	235.34219002723694	0.491657018661499
56	167.20721292495728	response	0	2		54.0	2.5	/experiments/knapen_aot/videos/S_yt-_WFwhcmbXXY_51.mp4	0.0	235.8257119655609	
56	167.2153480052948	movie	1		301.0	54.0	2.5	/experiments/knapen_aot/videos/S_yt-_WFwhcmbXXY_51.mp4	0.0	235.83384704589844	2.5083248615264893
56	169.7236728668213	fix_post	2		12.0	54.0	2.5	/experiments/knapen_aot/videos/S_yt-_WFwhcmbXXY_51.mp4	0.0	238.34217190742493	0.10003399848937988
57	169.82370686531067	fix_pre	0		74.0	55.0	2.5	/experiments/knapen_aot/videos/S_yt-Q6BFO3Yz0zY_363.mp4	0.0	238.4422059059143	0.6177971363067627
57	170.4322099685669	response	0	2		55.0	2.5	/experiments/knapen_aot/videos/S_yt-Q6BFO3Yz0zY_363.mp4	0.0	239.05070900917053	
57	170.44150400161743	movie	1		301.0	55.0	2.5	/experiments/knapen_aot/videos/S_yt-Q6BFO3Yz0zY_363.mp4	0.0	239.06000304222107	2.507150888442993
57	172.94865489006042	fix_post	2		12.0	55.0	2.5	/experiments/knapen_aot/videos/S_yt-Q6BFO3Yz0zY_363.mp4	0.0	241.56715393066406	0.10003995895385742
58	173.04869484901428	fix_pre	0		59.0	56.0	2.5	blank	1.0	241.66719388961792	0.4916670322418213
58	173.5321910381317	response	0	2		56.0	2.5	blank	1.0	242.15069007873535	
58	173.5403618812561	movie	1		301.0	56.0	2.5	blank	1.0	242.15886092185974	2.508406162261963
58	176.04876804351807	fix_post	2		12.0	56.0	2.5	blank	1.0	244.6672670841217	0.09989786148071289
59	176.14866590499878	fix_pre	0		51.0	57.0	2.5	/experiments/knapen_aot/videos/R_S_yt-9T99N7Cvi_o_112.mp4	0.0	244.76716494560242	0.4250180721282959
59	176.56545686721802	response	0	2		57.0	2.5	/experiments/knapen_aot/videos/R_S_yt-9T99N7Cvi_o_112.mp4	0.0	245.18395590782166	
59	176.57368397712708	movie	1		301.0	57.0	2.5	/experiments/knapen_aot/videos/R_S_yt-9T99N7Cvi_o_112.mp4	0.0	245.1921830177307	2.5083999633789062
59	179.08208394050598	fix_post	2		12.0	57.0	2.5	/experiments/knapen_aot/videos/R_S_yt-9T99N7Cvi_o_112.mp4	0.0	247.70058298110962	0.0999140739440918
60	179.18199801445007	fix_pre	0		53.0	58.0	2.5	/experiments/knapen_aot/videos/R_S_yt-AjyR9--Mx3A_44.mp4	0.0	247.8004970550537	0.44161486625671387
60	179.61541295051575	response	0	2		58.0	2.5	/experiments/knapen_aot/videos/R_S_yt-AjyR9--Mx3A_44.mp4	0.0	248.23391199111938	
60	179.6236128807068	movie	1		301.0	58.0	2.5	/experiments/knapen_aot/videos/R_S_yt-AjyR9--Mx3A_44.mp4	0.0	248.24211192131042	2.508362054824829
60	182.13197493553162	fix_post	2		12.0	58.0	2.5	/experiments/knapen_aot/videos/R_S_yt-AjyR9--Mx3A_44.mp4	0.0	250.75047397613525	0.0999910831451416
61	182.23196601867676	fix_pre	0		60.0	59.0	2.5	/experiments/knapen_aot/videos/S_ILSVRC2015_train_00373001.mp4	0.0	250.8504650592804	0.501147985458374
61	182.72375202178955	response	0	2		59.0	2.5	/experiments/knapen_aot/videos/S_ILSVRC2015_train_00373001.mp4	0.0	251.3422510623932	
61	182.73311400413513	movie	1		301.0	59.0	2.5	/experiments/knapen_aot/videos/S_ILSVRC2015_train_00373001.mp4	0.0	251.35161304473877	2.507185935974121
61	185.24029994010925	fix_post	2		12.0	59.0	2.5	/experiments/knapen_aot/videos/S_ILSVRC2015_train_00373001.mp4	0.0	253.8587989807129	0.10003209114074707
62	185.34033203125	fix_pre	0		54.0	60.0	2.5	/experiments/knapen_aot/videos/R_S_yt-szXWk_X_67Q_10.mp4	0.0	253.95883107185364	0.4500620365142822
62	185.7819950580597	response	0	2		60.0	2.5	/experiments/knapen_aot/videos/R_S_yt-szXWk_X_67Q_10.mp4	0.0	254.40049409866333	
62	185.79039406776428	movie	1		301.0	60.0	2.5	/experiments/knapen_aot/videos/R_S_yt-szXWk_X_67Q_10.mp4	0.0	254.40889310836792	2.5082569122314453
62	188.29865097999573	fix_post	2		12.0	60.0	2.5	/experiments/knapen_aot/videos/R_S_yt-szXWk_X_67Q_10.mp4	0.0	256.91715002059937	0.10012292861938477
63	188.3987739086151	fix_pre	0		34.0	61.0	2.5	/experiments/knapen_aot/videos/R_S_yt-C0INfEJ4Awk_53.mp4	0.0	257.01727294921875	0.28320908546447754
63	188.67377495765686	response	0	2		61.0	2.5	/experiments/knapen_aot/videos/R_S_yt-C0INfEJ4Awk_53.mp4	0.0	257.2922739982605	
63	188.6819829940796	movie	1		301.0	61.0	2.5	/experiments/knapen_aot/videos/R_S_yt-C0INfEJ4Awk_53.mp4	0.0	257.3004820346832	2.5083260536193848
63	191.19030904769897	fix_post	2		12.0	61.0	2.5	/experiments/knapen_aot/videos/R_S_yt-C0INfEJ4Awk_53.mp4	0.0	259.8088080883026	0.10003280639648438
64	191.29034185409546	fix_pre	0		64.0	62.0	2.5	/experiments/knapen_aot/videos/S_yt-szXWk_X_67Q_10.mp4	0.0	259.9088408946991	0.5332281589508057
64	191.81542301177979	response	0	2		62.0	2.5	/experiments/knapen_aot/videos/S_yt-szXWk_X_67Q_10.mp4	0.0	260.4339220523834	
64	191.82357001304626	movie	1		301.0	62.0	2.5	/experiments/knapen_aot/videos/S_yt-szXWk_X_67Q_10.mp4	0.0	260.4420690536499	2.508378028869629
64	194.3319480419159	fix_post	2		12.0	62.0	2.5	/experiments/knapen_aot/videos/S_yt-szXWk_X_67Q_10.mp4	0.0	262.95044708251953	0.10009598731994629
65	194.43204402923584	fix_pre	0		55.0	63.0	2.5	blank	1.0	263.0505430698395	0.45816493034362793
65	194.882080078125	response	0	2		63.0	2.5	blank	1.0	263.50057911872864	
65	194.89020895957947	movie	1		301.0	63.0	2.5	blank	1.0	263.5087080001831	2.508373975753784
65	197.39858293533325	fix_post	2		12.0	63.0	2.5	blank	1.0	266.0170819759369	0.10006213188171387
66	197.49864506721497	fix_pre	0		46.0	64.0	2.5	/experiments/knapen_aot/videos/R_S_yt--koo4FOfZE0_86.mp4	0.0	266.1171441078186	0.38326287269592285
66	197.87370085716248	response	0	2		64.0	2.5	/experiments/knapen_aot/videos/R_S_yt--koo4FOfZE0_86.mp4	0.0	266.4921998977661	
66	197.8819079399109	movie	1		301.0	64.0	2.5	/experiments/knapen_aot/videos/R_S_yt--koo4FOfZE0_86.mp4	0.0	266.5004069805145	2.508363962173462
66	200.39027190208435	fix_post	2		12.0	64.0	2.5	/experiments/knapen_aot/videos/R_S_yt--koo4FOfZE0_86.mp4	0.0	269.008770942688	0.10011816024780273
67	200.49039006233215	fix_pre	0		45.0	65.0	2.5	/experiments/knapen_aot/videos/S_yt-31yLemkW42Q_111.mp4	0.0	269.1088891029358	0.37481689453125
67	200.85694885253906	response	0	2		65.0	2.5	/experiments/knapen_aot/videos/S_yt-31yLemkW42Q_111.mp4	0.0	269.4754478931427	
67	200.8652069568634	movie	1		301.0	65.0	2.5	/experiments/knapen_aot/videos/S_yt-31yLemkW42Q_111.mp4	0.0	269.48370599746704	2.508359909057617
67	203.37356686592102	fix_post	2		12.0	65.0	2.5	/experiments/knapen_aot/videos/S_yt-31yLemkW42Q_111.mp4	0.0	271.99206590652466	0.100067138671875
68	203.4736340045929	fix_pre	0		51.0	66.0	2.5	/experiments/knapen_aot/videos/R_S_yt-hTkrnNr39dk_202.mp4	0.0	272.09213304519653	0.42585086822509766
68	203.89037203788757	response	0	2		66.0	2.5	/experiments/knapen_aot/videos/R_S_yt-hTkrnNr39dk_202.mp4	0.0	272.5088710784912	
68	203.899484872818	movie	1		301.0	66.0	2.5	/experiments/knapen_aot/videos/R_S_yt-hTkrnNr39dk_202.mp4	0.0	272.51798391342163	2.507354974746704
68	206.4068398475647	fix_post	2		12.0	66.0	2.5	/experiments/knapen_aot/videos/R_S_yt-hTkrnNr39dk_202.mp4	0.0	275.02533888816833	0.10012507438659668
69	206.5069649219513	fix_pre	0		51.0	67.0	2.5	/experiments/knapen_aot/videos/S_yt-BqJHT4K7Qf8_127.mp4	0.0	275.12546396255493	0.4249091148376465
69	206.92367887496948	response	0	2		67.0	2.5	/experiments/knapen_aot/videos/S_yt-BqJHT4K7Qf8_127.mp4	0.0	275.5421779155731	
69	206.93187403678894	movie	1		301.0	67.0	2.5	/experiments/knapen_aot/videos/S_yt-BqJHT4K7Qf8_127.mp4	0.0	275.5503730773926	2.5083420276641846
69	209.44021606445312	fix_post	2		12.0	67.0	2.5	/experiments/knapen_aot/videos/S_yt-BqJHT4K7Qf8_127.mp4	0.0	278.05871510505676	0.09995889663696289
70	209.5401749610901	fix_pre	0		41.0	68.0	2.5	blank	1.0	278.1586740016937	0.3417069911956787
70	209.87369990348816	response	0	2		68.0	2.5	blank	1.0	278.4921989440918	
70	209.88188195228577	movie	1		301.0	68.0	2.5	blank	1.0	278.5003809928894	2.5083069801330566
70	212.39018893241882	fix_post	2		12.0	68.0	2.5	blank	1.0	281.00868797302246	0.10003805160522461
71	212.49022698402405	fix_pre	0		58.0	69.0	2.5	/experiments/knapen_aot/videos/S_yt-TSSPDwAQLXs_158.mp4	0.0	281.1087260246277	0.48328208923339844
71	212.96528100967407	response	0	2		69.0	2.5	/experiments/knapen_aot/videos/S_yt-TSSPDwAQLXs_158.mp4	0.0	281.5837800502777	
71	212.97350907325745	movie	1		301.0	69.0	2.5	/experiments/knapen_aot/videos/S_yt-TSSPDwAQLXs_158.mp4	0.0	281.5920081138611	2.508704900741577
71	215.48221397399902	fix_post	2		12.0	69.0	2.5	/experiments/knapen_aot/videos/S_yt-TSSPDwAQLXs_158.mp4	0.0	284.10071301460266	0.09979391098022461
72	215.58200788497925	fix_pre	0		94.0	70.0	2.5	/experiments/knapen_aot/videos/R_S_yt-BF80IX4r8x4_106.mp4	0.0	284.2005069255829	0.7831439971923828
72	216.35700798034668	response	0	2		70.0	2.5	/experiments/knapen_aot/videos/R_S_yt-BF80IX4r8x4_106.mp4	0.0	284.9755070209503	
72	216.36515188217163	movie	1		301.0	70.0	2.5	/experiments/knapen_aot/videos/R_S_yt-BF80IX4r8x4_106.mp4	0.0	284.98365092277527	2.508345127105713
72	218.87349700927734	fix_post	2		12.0	70.0	2.5	/experiments/knapen_aot/videos/R_S_yt-BF80IX4r8x4_106.mp4	0.0	287.491996049881	0.09996390342712402
73	218.97346091270447	fix_pre	0		56.0	71.0	2.5	/experiments/knapen_aot/videos/R_S_yt-GLK6LniTOK0_69.mp4	0.0	287.5919599533081	0.46758198738098145
73	219.4319188594818	response	0	2		71.0	2.5	/experiments/knapen_aot/videos/R_S_yt-GLK6LniTOK0_69.mp4	0.0	288.05041790008545	
73	219.44104290008545	movie	1		301.0	71.0	2.5	/experiments/knapen_aot/videos/R_S_yt-GLK6LniTOK0_69.mp4	0.0	288.0595419406891	2.507668972015381
73	221.94871187210083	fix_post	2		12.0	71.0	2.5	/experiments/knapen_aot/videos/R_S_yt-GLK6LniTOK0_69.mp4	0.0	290.56721091270447	0.0997312068939209
74	222.04844307899475	fix_pre	0		39.0	72.0	2.5	/experiments/knapen_aot/videos/R_S_ILSVRC2015_train_00373001.mp4	0.0	290.6669421195984	0.32500576972961426
74	222.36541199684143	response	0	2		72.0	2.5	/experiments/knapen_aot/videos/R_S_ILSVRC2015_train_00373001.mp4	0.0	290.98391103744507	
74	222.37344884872437	movie	1		301.0	72.0	2.5	/experiments/knapen_aot/videos/R_S_ILSVRC2015_train_00373001.mp4	0.0	290.991947889328	2.5085930824279785
74	224.88204193115234	fix_post	2		12.0	72.0	2.5	/experiments/knapen_aot/videos/R_S_ILSVRC2015_train_00373001.mp4	0.0	293.500540971756	0.09976005554199219
75	224.98180198669434	fix_pre	0		77.0	73.0	2.5	/experiments/knapen_aot/videos/R_S_ILSVRC2015_train_00551000.mp4	0.0	293.600301027298	0.6416630744934082
75	225.61527585983276	response	0	2		73.0	2.5	/experiments/knapen_aot/videos/R_S_ILSVRC2015_train_00551000.mp4	0.0	294.2337749004364	
75	225.62346506118774	movie	1		301.0	73.0	2.5	/experiments/knapen_aot/videos/R_S_ILSVRC2015_train_00551000.mp4	0.0	294.2419641017914	2.508330821990967
75	228.1317958831787	fix_post	2		12.0	73.0	2.5	/experiments/knapen_aot/videos/R_S_ILSVRC2015_train_00551000.mp4	0.0	296.75029492378235	0.10022306442260742
76	228.23201894760132	fix_pre	0		33.0	74.0	2.5	/experiments/knapen_aot/videos/S_ILSVRC2015_train_00405001.mp4	0.0	296.85051798820496	0.2747220993041992
76	228.49856090545654	response	0	2		74.0	2.5	/experiments/knapen_aot/videos/S_ILSVRC2015_train_00405001.mp4	0.0	297.1170599460602	
76	228.50674104690552	movie	1		301.0	74.0	2.5	/experiments/knapen_aot/videos/S_ILSVRC2015_train_00405001.mp4	0.0	297.12524008750916	2.5087168216705322
76	231.01545786857605	fix_post	2		12.0	74.0	2.5	/experiments/knapen_aot/videos/S_ILSVRC2015_train_00405001.mp4	0.0	299.6339569091797	0.09968900680541992
77	231.11514687538147	fix_pre	0		98.0	75.0	2.5	/experiments/knapen_aot/videos/S_yt-kYMffy4hTMo_107.mp4	0.0	299.7336459159851	0.8166460990905762
77	231.92363595962524	response	0	2		75.0	2.5	/experiments/knapen_aot/videos/S_yt-kYMffy4hTMo_107.mp4	0.0	300.5421350002289	
77	231.93179297447205	movie	1		301.0	75.0	2.5	/experiments/knapen_aot/videos/S_yt-kYMffy4hTMo_107.mp4	0.0	300.5502920150757	2.5083119869232178
77	234.44010496139526	fix_post	2		12.0	75.0	2.5	/experiments/knapen_aot/videos/S_yt-kYMffy4hTMo_107.mp4	0.0	303.0586040019989	0.10003209114074707
78	234.540137052536	fix_pre	0		44.0	76.0	2.5	blank	1.0	303.15863609313965	0.3665809631347656
78	234.898521900177	response	0	2		76.0	2.5	blank	1.0	303.51702094078064	
78	234.90671801567078	movie	1		301.0	76.0	2.5	blank	1.0	303.5252170562744	2.5084259510040283
78	237.4151439666748	fix_post	2		12.0	76.0	2.5	blank	1.0	306.03364300727844	0.1000518798828125
79	237.51519584655762	fix_pre	0		101.0	77.0	2.5	/experiments/knapen_aot/videos/R_S_yt-0MB_IYX1fgo_44.mp4	0.0	306.13369488716125	0.842379093170166
79	238.3485369682312	response	0	2		77.0	2.5	/experiments/knapen_aot/videos/R_S_yt-0MB_IYX1fgo_44.mp4	0.0	306.96703600883484	
79	238.35757493972778	movie	1		301.0	77.0	2.5	/experiments/knapen_aot/videos/R_S_yt-0MB_IYX1fgo_44.mp4	0.0	306.9760739803314	2.5074870586395264
79	240.8650619983673	fix_post	2		12.0	77.0	2.5	/experiments/knapen_aot/videos/R_S_yt-0MB_IYX1fgo_44.mp4	0.0	309.48356103897095	0.10006594657897949
80	240.9651279449463	fix_pre	0		58.0	78.0	2.5	/experiments/knapen_aot/videos/R_S_yt-ThT8utBaywI_68.mp4	0.0	309.5836269855499	0.48326802253723145
80	241.4401240348816	response	0	2		78.0	2.5	/experiments/knapen_aot/videos/R_S_yt-ThT8utBaywI_68.mp4	0.0	310.05862307548523	
80	241.44839596748352	movie	1		301.0	78.0	2.5	/experiments/knapen_aot/videos/R_S_yt-ThT8utBaywI_68.mp4	0.0	310.06689500808716	2.5083720684051514
80	243.95676803588867	fix_post	2		12.0	78.0	2.5	/experiments/knapen_aot/videos/R_S_yt-ThT8utBaywI_68.mp4	0.0	312.5752670764923	0.09991884231567383
81	244.05668687820435	fix_pre	0		42.0	79.0	2.5	/experiments/knapen_aot/videos/R_S_yt-XUnZ7FbBtvk_162.mp4	0.0	312.675185918808	0.3500251770019531
81	244.3985390663147	response	0	2		79.0	2.5	/experiments/knapen_aot/videos/R_S_yt-XUnZ7FbBtvk_162.mp4	0.0	313.01703810691833	
81	244.4067120552063	movie	1		301.0	79.0	2.5	/experiments/knapen_aot/videos/R_S_yt-XUnZ7FbBtvk_162.mp4	0.0	313.02521109580994	2.5087218284606934
81	246.915433883667	fix_post	2		12.0	79.0	2.5	/experiments/knapen_aot/videos/R_S_yt-XUnZ7FbBtvk_162.mp4	0.0	315.53393292427063	0.09964513778686523
82	247.01507902145386	fix_pre	0		47.0	80.0	2.5	/experiments/knapen_aot/videos/R_S_yt-IPiZqn4dG9k_9.mp4	0.0	315.6335780620575	0.3916349411010742
82	247.39850091934204	response	0	2		80.0	2.5	/experiments/knapen_aot/videos/R_S_yt-IPiZqn4dG9k_9.mp4	0.0	316.0169999599457	
82	247.40671396255493	movie	1		301.0	80.0	2.5	/experiments/knapen_aot/videos/R_S_yt-IPiZqn4dG9k_9.mp4	0.0	316.02521300315857	2.508362054824829
82	249.91507601737976	fix_post	2		12.0	80.0	2.5	/experiments/knapen_aot/videos/R_S_yt-IPiZqn4dG9k_9.mp4	0.0	318.5335750579834	0.09996390342712402
83	250.01503992080688	fix_pre	0		70.0	81.0	2.5	/experiments/knapen_aot/videos/S_yt-C0INfEJ4Awk_53.mp4	0.0	318.6335389614105	0.583327054977417
83	250.59017992019653	response	0	2		81.0	2.5	/experiments/knapen_aot/videos/S_yt-C0INfEJ4Awk_53.mp4	0.0	319.20867896080017	
83	250.5983669757843	movie	1		301.0	81.0	2.5	/experiments/knapen_aot/videos/S_yt-C0INfEJ4Awk_53.mp4	0.0	319.21686601638794	2.508272886276245
83	253.10663986206055	fix_post	2		12.0	81.0	2.5	/experiments/knapen_aot/videos/S_yt-C0INfEJ4Awk_53.mp4	0.0	321.7251389026642	0.1002810001373291
84	253.20692086219788	fix_pre	0		78.0	82.0	2.5	blank	1.0	321.8254199028015	0.6504411697387695
84	253.84850788116455	response	0	2		82.0	2.5	blank	1.0	322.4670069217682	
84	253.85736203193665	movie	1		301.0	82.0	2.5	blank	1.0	322.4758610725403	2.5076839923858643
84	256.3650460243225	fix_post	2		12.0	82.0	2.5	blank	1.0	324.98354506492615	0.10006594657897949
85	256.4651119709015	fix_pre	0		68.0	83.0	2.5	/experiments/knapen_aot/videos/S_yt-ObT9gF8E_tU_250.mp4	0.0	325.0836110115051	0.5665099620819092
85	257.02350187301636	response	0	2		83.0	2.5	/experiments/knapen_aot/videos/S_yt-ObT9gF8E_tU_250.mp4	0.0	325.64200091362	
85	257.0316219329834	movie	1		301.0	83.0	2.5	/experiments/knapen_aot/videos/S_yt-ObT9gF8E_tU_250.mp4	0.0	325.65012097358704	2.5087599754333496
85	259.54038190841675	fix_post	2		12.0	83.0	2.5	/experiments/knapen_aot/videos/S_yt-ObT9gF8E_tU_250.mp4	0.0	328.1588809490204	0.09972906112670898
87	259.64011096954346	stim	0		287.0					328.2586100101471	2.391551971435547
87	262.02797985076904	response	0	space						330.6464788913727	
