trial_nr	onset	event_type	phase	response	nr_frames	movie_index	movie_duration	movie_file	blank	onset_abs	duration
0	0.12837004661560059	stim	0		24.0					64.82481598854065	0.19646310806274414
0	0.31008410453796387	response	0	space						65.00653004646301	
1	0.3248331546783447	stim	0		121.0					65.0212790966034	1.0084779262542725
1	1.3333110809326172	stim	1		120.0					66.02975702285767	0.9996120929718018
1	2.099637031555176	response	1	space						66.79608297348022	
2	2.332923173904419	fix_pre	0		48.0	0.0	2.5	/experiments/knapen_aot/videos/R_S_yt-KLInd-KrK_w_19.mp4	0.0	67.02936911582947	0.399946928024292
2	2.724727153778076	response	0	space		0.0	2.5	/experiments/knapen_aot/videos/R_S_yt-KLInd-KrK_w_19.mp4	0.0	67.42117309570312	
2	2.732870101928711	movie	1		301.0	0.0	2.5	/experiments/knapen_aot/videos/R_S_yt-KLInd-KrK_w_19.mp4	0.0	67.42931604385376	2.5083999633789062
2	5.241270065307617	fix_post	2		12.0	0.0	2.5	/experiments/knapen_aot/videos/R_S_yt-KLInd-KrK_w_19.mp4	0.0	69.93771600723267	0.09989809989929199
3	5.341168165206909	fix_pre	0		17.0	1.0	2.5	/experiments/knapen_aot/videos/S_comp_A012_C014_1223PT_v53_SDR_PS_FINAL_20180709_F0F8700_SDR_2K_AVC.mp4	0.0	70.03761410713196	0.14173388481140137
3	5.479185104370117	response	0	2		1.0	2.5	/experiments/knapen_aot/videos/S_comp_A012_C014_1223PT_v53_SDR_PS_FINAL_20180709_F0F8700_SDR_2K_AVC.mp4	0.0	70.17563104629517	
3	5.4829020500183105	movie	1		163.0	1.0	2.5	/experiments/knapen_aot/videos/S_comp_A012_C014_1223PT_v53_SDR_PS_FINAL_20180709_F0F8700_SDR_2K_AVC.mp4	0.0	70.17934799194336	2.508328914642334
3	7.9912309646606445	fix_post	2		12.0	1.0	2.5	/experiments/knapen_aot/videos/S_comp_A012_C014_1223PT_v53_SDR_PS_FINAL_20180709_F0F8700_SDR_2K_AVC.mp4	0.0	72.6876769065857	0.0999140739440918
4	8.091145038604736	fix_pre	0		101.0	2.0	2.5	/experiments/knapen_aot/videos/R_S_yt--JnTDuElzXQ_121.mp4	0.0	72.78759098052979	0.8423969745635986
4	8.924694061279297	response	0	2		2.0	2.5	/experiments/knapen_aot/videos/R_S_yt--JnTDuElzXQ_121.mp4	0.0	73.62114000320435	
4	8.933542013168335	movie	1		301.0	2.0	2.5	/experiments/knapen_aot/videos/R_S_yt--JnTDuElzXQ_121.mp4	0.0	73.62998795509338	2.50769305229187
4	9.176762104034424	response	1	2		2.0	2.5	/experiments/knapen_aot/videos/R_S_yt--JnTDuElzXQ_121.mp4	0.0	73.87320804595947	
4	11.441235065460205	fix_post	2		12.0	2.0	2.5	/experiments/knapen_aot/videos/R_S_yt--JnTDuElzXQ_121.mp4	0.0	76.13768100738525	0.09996795654296875
5	11.541203022003174	fix_pre	0		98.0	3.0	2.5	/experiments/knapen_aot/videos/S_ILSVRC2015_train_00601000.mp4	0.0	76.23764896392822	0.8166511058807373
5	12.349640130996704	response	0	2		3.0	2.5	/experiments/knapen_aot/videos/S_ILSVRC2015_train_00601000.mp4	0.0	77.04608607292175	
5	12.357854127883911	movie	1		301.0	3.0	2.5	/experiments/knapen_aot/videos/S_ILSVRC2015_train_00601000.mp4	0.0	77.05430006980896	2.5082390308380127
5	14.866093158721924	fix_post	2		12.0	3.0	2.5	/experiments/knapen_aot/videos/S_ILSVRC2015_train_00601000.mp4	0.0	79.56253910064697	0.10013103485107422
6	14.966224193572998	fix_pre	0		30.0	4.0	2.5	/experiments/knapen_aot/videos/R_S_yt-lADkWM79teI_18.mp4	0.0	79.66267013549805	0.24990296363830566
6	15.207987070083618	response	0	4		4.0	2.5	/experiments/knapen_aot/videos/R_S_yt-lADkWM79teI_18.mp4	0.0	79.90443301200867	
6	15.216127157211304	movie	1		300.0	4.0	2.5	/experiments/knapen_aot/videos/R_S_yt-lADkWM79teI_18.mp4	0.0	79.91257309913635	2.5083630084991455
6	17.199613094329834	response	1	2		4.0	2.5	/experiments/knapen_aot/videos/R_S_yt-lADkWM79teI_18.mp4	0.0	81.89605903625488	
6	17.72449016571045	fix_post	2		12.0	4.0	2.5	/experiments/knapen_aot/videos/R_S_yt-lADkWM79teI_18.mp4	0.0	82.4209361076355	0.10006594657897949
7	17.82455611228943	fix_pre	0		9.0	5.0	2.5	/experiments/knapen_aot/videos/R_S_video.mp4	0.0	82.52100205421448	0.07498002052307129
7	17.891268968582153	response	0	2		5.0	2.5	/experiments/knapen_aot/videos/R_S_video.mp4	0.0	82.5877149105072	
7	17.8995361328125	movie	1		166.0	5.0	2.5	/experiments/knapen_aot/videos/R_S_video.mp4	0.0	82.59598207473755	2.5083138942718506
7	20.40785002708435	fix_post	2		12.0	5.0	2.5	/experiments/knapen_aot/videos/R_S_video.mp4	0.0	85.1042959690094	0.10012412071228027
8	20.50797414779663	fix_pre	0		18.0	6.0	2.5	blank	1.0	85.20442008972168	0.14986801147460938
8	20.649660110473633	response	0	4		6.0	2.5	blank	1.0	85.34610605239868	
8	20.65784215927124	movie	1		301.0	6.0	2.5	blank	1.0	85.35428810119629	2.508384943008423
8	23.166227102279663	fix_post	2		12.0	6.0	2.5	blank	1.0	87.86267304420471	0.0999610424041748
9	23.266188144683838	fix_pre	0		6.0	7.0	2.5	/experiments/knapen_aot/videos/S_yt-pKl8nduxfTI_798.mp4	0.0	87.96263408660889	0.04994082450866699
9	23.300552129745483	response	0	2		7.0	2.5	/experiments/knapen_aot/videos/S_yt-pKl8nduxfTI_798.mp4	0.0	87.99699807167053	
9	23.316128969192505	movie	1		301.0	7.0	2.5	/experiments/knapen_aot/videos/S_yt-pKl8nduxfTI_798.mp4	0.0	88.01257491111755	2.5083770751953125
9	25.676611185073853	response	1	4		7.0	2.5	/experiments/knapen_aot/videos/S_yt-pKl8nduxfTI_798.mp4	0.0	90.3730571269989	
9	25.824506044387817	fix_post	2		12.0	7.0	2.5	/experiments/knapen_aot/videos/S_yt-pKl8nduxfTI_798.mp4	0.0	90.52095198631287	0.1000051498413086
10	25.924511194229126	fix_pre	0		68.0	8.0	2.5	/experiments/knapen_aot/videos/S_yt-vQ-rd-1gwH4_238.mp4	0.0	90.62095713615417	0.5666317939758301
10	26.482964992523193	response	0	4		8.0	2.5	/experiments/knapen_aot/videos/S_yt-vQ-rd-1gwH4_238.mp4	0.0	91.17941093444824	
10	26.491142988204956	movie	1		301.0	8.0	2.5	/experiments/knapen_aot/videos/S_yt-vQ-rd-1gwH4_238.mp4	0.0	91.18758893013	2.5083470344543457
10	28.9994900226593	fix_post	2		12.0	8.0	2.5	/experiments/knapen_aot/videos/S_yt-vQ-rd-1gwH4_238.mp4	0.0	93.69593596458435	0.09997916221618652
11	29.09946918487549	fix_pre	0		76.0	9.0	2.5	/experiments/knapen_aot/videos/R_S_yt-kuzdrmHa-W0_39.mp4	0.0	93.79591512680054	0.6333379745483398
11	29.724663972854614	response	0	2		9.0	2.5	/experiments/knapen_aot/videos/R_S_yt-kuzdrmHa-W0_39.mp4	0.0	94.42110991477966	
11	29.732807159423828	movie	1		300.0	9.0	2.5	/experiments/knapen_aot/videos/R_S_yt-kuzdrmHa-W0_39.mp4	0.0	94.42925310134888	2.5083489418029785
11	32.24115610122681	fix_post	2		12.0	9.0	2.5	/experiments/knapen_aot/videos/R_S_yt-kuzdrmHa-W0_39.mp4	0.0	96.93760204315186	0.09994697570800781
12	32.341103076934814	fix_pre	0		23.0	10.0	2.5	/experiments/knapen_aot/videos/R_S_wc-TAGpcap1KdAS_212.mp4	0.0	97.03754901885986	0.1917109489440918
12	32.524559020996094	response	0	4		10.0	2.5	/experiments/knapen_aot/videos/R_S_wc-TAGpcap1KdAS_212.mp4	0.0	97.22100496292114	
12	32.532814025878906	movie	1		301.0	10.0	2.5	/experiments/knapen_aot/videos/R_S_wc-TAGpcap1KdAS_212.mp4	0.0	97.22925996780396	2.5082640647888184
12	35.041078090667725	fix_post	2		12.0	10.0	2.5	/experiments/knapen_aot/videos/R_S_wc-TAGpcap1KdAS_212.mp4	0.0	99.73752403259277	0.09997701644897461
13	35.1410551071167	fix_pre	0		30.0	11.0	2.5	/experiments/knapen_aot/videos/S_comp_DB_D001_C005_COMP_PSNK_v12_SDR_PS_20180912_SDR_2K_AVC.mp4	0.0	99.83750104904175	0.2506420612335205
13	35.38282513618469	response	0	2		11.0	2.5	/experiments/knapen_aot/videos/S_comp_DB_D001_C005_COMP_PSNK_v12_SDR_PS_20180912_SDR_2K_AVC.mp4	0.0	100.07927107810974	
13	35.39169716835022	movie	1		165.0	11.0	2.5	/experiments/knapen_aot/videos/S_comp_DB_D001_C005_COMP_PSNK_v12_SDR_PS_20180912_SDR_2K_AVC.mp4	0.0	100.08814311027527	2.507704019546509
13	37.89940118789673	fix_post	2		12.0	11.0	2.5	/experiments/knapen_aot/videos/S_comp_DB_D001_C005_COMP_PSNK_v12_SDR_PS_20180912_SDR_2K_AVC.mp4	0.0	102.59584712982178	0.09999990463256836
14	37.9994010925293	fix_pre	0		7.0	12.0	2.5	/experiments/knapen_aot/videos/R_S_yt--v_iMUMMX6g_39.mp4	0.0	102.69584703445435	0.058873891830444336
14	38.049566984176636	response	0	4		12.0	2.5	/experiments/knapen_aot/videos/R_S_yt--v_iMUMMX6g_39.mp4	0.0	102.74601292610168	
14	38.05827498435974	movie	1		300.0	12.0	2.5	/experiments/knapen_aot/videos/R_S_yt--v_iMUMMX6g_39.mp4	0.0	102.75472092628479	2.5078320503234863
14	40.56610703468323	fix_post	2		12.0	12.0	2.5	/experiments/knapen_aot/videos/R_S_yt--v_iMUMMX6g_39.mp4	0.0	105.26255297660828	0.09999895095825195
15	40.66610598564148	fix_pre	0		10.0	13.0	2.5	/experiments/knapen_aot/videos/R_S_yt-tX3slAQb9yY_13.mp4	0.0	105.36255192756653	0.08331513404846191
15	40.74126601219177	response	0	2		13.0	2.5	/experiments/knapen_aot/videos/R_S_yt-tX3slAQb9yY_13.mp4	0.0	105.43771195411682	
15	40.74942111968994	movie	1		301.0	13.0	2.5	/experiments/knapen_aot/videos/R_S_yt-tX3slAQb9yY_13.mp4	0.0	105.44586706161499	2.5084030628204346
15	43.257824182510376	fix_post	2		12.0	13.0	2.5	/experiments/knapen_aot/videos/R_S_yt-tX3slAQb9yY_13.mp4	0.0	107.95427012443542	0.09992599487304688
16	43.35775017738342	fix_pre	0		9.0	14.0	2.5	blank	1.0	108.05419611930847	0.07551288604736328
16	43.424586057662964	response	0	4		14.0	2.5	blank	1.0	108.12103199958801	
16	43.433263063430786	movie	1		301.0	14.0	2.5	blank	1.0	108.12970900535583	2.5078670978546143
16	45.9411301612854	fix_post	2		12.0	14.0	2.5	blank	1.0	110.63757610321045	0.09999299049377441
17	46.041123151779175	fix_pre	0		28.0	15.0	2.5	/experiments/knapen_aot/videos/R_S_flickr-evananderica-2662125519_8.mp4	0.0	110.73756909370422	0.23327183723449707
17	46.26618003845215	response	0	2		15.0	2.5	/experiments/knapen_aot/videos/R_S_flickr-evananderica-2662125519_8.mp4	0.0	110.9626259803772	
17	46.27439498901367	movie	1		301.0	15.0	2.5	/experiments/knapen_aot/videos/R_S_flickr-evananderica-2662125519_8.mp4	0.0	110.97084093093872	2.508341073989868
17	48.78273606300354	fix_post	2		12.0	15.0	2.5	/experiments/knapen_aot/videos/R_S_flickr-evananderica-2662125519_8.mp4	0.0	113.47918200492859	0.10003089904785156
18	48.88276696205139	fix_pre	0		19.0	16.0	2.5	/experiments/knapen_aot/videos/R_S_ILSVRC2015_train_00610000.mp4	0.0	113.57921290397644	0.15828800201416016
18	49.032879114151	response	0	4		16.0	2.5	/experiments/knapen_aot/videos/R_S_ILSVRC2015_train_00610000.mp4	0.0	113.72932505607605	
18	49.04105496406555	movie	1		301.0	16.0	2.5	/experiments/knapen_aot/videos/R_S_ILSVRC2015_train_00610000.mp4	0.0	113.7375009059906	2.508331060409546
18	51.5493860244751	fix_post	2		12.0	16.0	2.5	/experiments/knapen_aot/videos/R_S_ILSVRC2015_train_00610000.mp4	0.0	116.24583196640015	0.1000220775604248
19	51.64940810203552	fix_pre	0		10.0	17.0	2.5	/experiments/knapen_aot/videos/S_yt-HMAa2QbfFPI_216.mp4	0.0	116.34585404396057	0.0832979679107666
19	51.72462701797485	response	0	2		17.0	2.5	/experiments/knapen_aot/videos/S_yt-HMAa2QbfFPI_216.mp4	0.0	116.4210729598999	
19	51.73270606994629	movie	1		301.0	17.0	2.5	/experiments/knapen_aot/videos/S_yt-HMAa2QbfFPI_216.mp4	0.0	116.42915201187134	2.5083370208740234
19	54.24104309082031	fix_post	2		12.0	17.0	2.5	/experiments/knapen_aot/videos/S_yt-HMAa2QbfFPI_216.mp4	0.0	118.93748903274536	0.10002803802490234
20	54.341071128845215	fix_pre	0		21.0	18.0	2.5	/experiments/knapen_aot/videos/S_wc-TAGpcap1KdAS_212.mp4	0.0	119.03751707077026	0.17539596557617188
20	54.507761001586914	response	0	4		18.0	2.5	/experiments/knapen_aot/videos/S_wc-TAGpcap1KdAS_212.mp4	0.0	119.20420694351196	
20	54.51646709442139	movie	1		301.0	18.0	2.5	/experiments/knapen_aot/videos/S_wc-TAGpcap1KdAS_212.mp4	0.0	119.21291303634644	2.5079030990600586
20	57.024370193481445	fix_post	2		12.0	18.0	2.5	/experiments/knapen_aot/videos/S_wc-TAGpcap1KdAS_212.mp4	0.0	121.7208161354065	0.10004091262817383
21	57.12441110610962	fix_pre	0		8.0	19.0	2.5	blank	1.0	121.82085704803467	0.06662201881408691
21	57.18284606933594	response	0	2		19.0	2.5	blank	1.0	121.87929201126099	
21	57.191033124923706	movie	1		301.0	19.0	2.5	blank	1.0	121.88747906684875	2.5083320140838623
21	59.69936513900757	fix_post	2		12.0	19.0	2.5	blank	1.0	124.39581108093262	0.09997105598449707
22	59.799336194992065	fix_pre	0		44.0	20.0	2.5	/experiments/knapen_aot/videos/S_yt-BG-G7m5wLZ4_94.mp4	0.0	124.49578213691711	0.36660289764404297
22	60.15021204948425	response	0	4		20.0	2.5	/experiments/knapen_aot/videos/S_yt-BG-G7m5wLZ4_94.mp4	0.0	124.8466579914093	
22	60.16593909263611	movie	1		300.0	20.0	2.5	/experiments/knapen_aot/videos/S_yt-BG-G7m5wLZ4_94.mp4	0.0	124.86238503456116	2.508436918258667
22	62.674376010894775	fix_post	2		12.0	20.0	2.5	/experiments/knapen_aot/videos/S_yt-BG-G7m5wLZ4_94.mp4	0.0	127.37082195281982	0.09994316101074219
23	62.77431917190552	fix_pre	0		10.0	21.0	2.5	/experiments/knapen_aot/videos/S_yt-IT741UWKVzg_34.mp4	0.0	127.47076511383057	0.0833439826965332
23	62.849465131759644	response	0	2		21.0	2.5	/experiments/knapen_aot/videos/S_yt-IT741UWKVzg_34.mp4	0.0	127.54591107368469	
23	62.85766315460205	movie	1		301.0	21.0	2.5	/experiments/knapen_aot/videos/S_yt-IT741UWKVzg_34.mp4	0.0	127.5541090965271	2.5084328651428223
23	65.36609601974487	fix_post	2		12.0	21.0	2.5	/experiments/knapen_aot/videos/S_yt-IT741UWKVzg_34.mp4	0.0	130.06254196166992	0.09985995292663574
24	65.46595597267151	fix_pre	0		11.0	22.0	2.5	/experiments/knapen_aot/videos/S_yt-GytLOB9Qjro_76.mp4	0.0	130.16240191459656	0.09206509590148926
24	65.5493791103363	response	0	4		22.0	2.5	/experiments/knapen_aot/videos/S_yt-GytLOB9Qjro_76.mp4	0.0	130.24582505226135	
24	65.558021068573	movie	1		300.0	22.0	2.5	/experiments/knapen_aot/videos/S_yt-GytLOB9Qjro_76.mp4	0.0	130.25446701049805	2.507862091064453
24	67.21113514900208	response	1	2		22.0	2.5	/experiments/knapen_aot/videos/S_yt-GytLOB9Qjro_76.mp4	0.0	131.90758109092712	
24	68.01605916023254	response	1	2		22.0	2.5	/experiments/knapen_aot/videos/S_yt-GytLOB9Qjro_76.mp4	0.0	132.7125051021576	
24	68.06588315963745	fix_post	2		12.0	22.0	2.5	/experiments/knapen_aot/videos/S_yt-GytLOB9Qjro_76.mp4	0.0	132.7623291015625	0.10006284713745117
25	68.1659460067749	fix_pre	0		54.0	23.0	2.5	/experiments/knapen_aot/videos/R_S_yt--C2DDZ7LOQA_95.mp4	0.0	132.86239194869995	0.4499990940093994
25	68.60784101486206	response	0	2		23.0	2.5	/experiments/knapen_aot/videos/R_S_yt--C2DDZ7LOQA_95.mp4	0.0	133.3042869567871	
25	68.6159451007843	movie	1		300.0	23.0	2.5	/experiments/knapen_aot/videos/R_S_yt--C2DDZ7LOQA_95.mp4	0.0	133.31239104270935	2.5082509517669678
25	71.12419605255127	fix_post	2		12.0	23.0	2.5	/experiments/knapen_aot/videos/R_S_yt--C2DDZ7LOQA_95.mp4	0.0	135.82064199447632	0.10007309913635254
26	71.22426915168762	fix_pre	0		27.0	24.0	2.5	/experiments/knapen_aot/videos/R_S_yt-jUGt_Byqczw_599.mp4	0.0	135.92071509361267	0.22498393058776855
26	71.44113397598267	response	0	4		24.0	2.5	/experiments/knapen_aot/videos/R_S_yt-jUGt_Byqczw_599.mp4	0.0	136.13757991790771	
26	71.44925308227539	movie	1		301.0	24.0	2.5	/experiments/knapen_aot/videos/R_S_yt-jUGt_Byqczw_599.mp4	0.0	136.14569902420044	2.508294105529785
26	73.95754718780518	fix_post	2		12.0	24.0	2.5	/experiments/knapen_aot/videos/R_S_yt-jUGt_Byqczw_599.mp4	0.0	138.65399312973022	0.10000300407409668
27	74.05755019187927	fix_pre	0		17.0	25.0	2.5	/experiments/knapen_aot/videos/R_S_yt-mJzkLd3Mr_c_35.mp4	0.0	138.75399613380432	0.14167380332946777
27	74.19107508659363	response	0	2		25.0	2.5	/experiments/knapen_aot/videos/R_S_yt-mJzkLd3Mr_c_35.mp4	0.0	138.88752102851868	
27	74.19922399520874	movie	1		301.0	25.0	2.5	/experiments/knapen_aot/videos/R_S_yt-mJzkLd3Mr_c_35.mp4	0.0	138.8956699371338	2.5083110332489014
27	76.70753502845764	fix_post	2		12.0	25.0	2.5	/experiments/knapen_aot/videos/R_S_yt-mJzkLd3Mr_c_35.mp4	0.0	141.4039809703827	0.09998893737792969
28	76.80752396583557	fix_pre	0		168.0	26.0	2.5	blank	1.0	141.50396990776062	1.4002201557159424
28	78.19933700561523	response	0	4		26.0	2.5	blank	1.0	142.89578294754028	
28	78.20774412155151	movie	1		301.0	26.0	2.5	blank	1.0	142.90419006347656	2.508167028427124
28	80.71591114997864	fix_post	2		12.0	26.0	2.5	blank	1.0	145.4123570919037	0.0999150276184082
29	80.81582617759705	fix_pre	0		35.0	27.0	2.5	/experiments/knapen_aot/videos/R_S_yt-4sSV4iIs8gQ_55.mp4	0.0	145.5122721195221	0.2916707992553711
29	81.09935402870178	response	0	2		27.0	2.5	/experiments/knapen_aot/videos/R_S_yt-4sSV4iIs8gQ_55.mp4	0.0	145.79579997062683	
29	81.10749697685242	movie	1		301.0	27.0	2.5	/experiments/knapen_aot/videos/R_S_yt-4sSV4iIs8gQ_55.mp4	0.0	145.80394291877747	2.508413076400757
29	83.61591005325317	fix_post	2		12.0	27.0	2.5	/experiments/knapen_aot/videos/R_S_yt-4sSV4iIs8gQ_55.mp4	0.0	148.31235599517822	0.09998297691345215
30	83.71589303016663	fix_pre	0		22.0	28.0	2.5	/experiments/knapen_aot/videos/S_pexels-mart-production-8435081.mp4	0.0	148.41233897209167	0.18333911895751953
30	83.89104104042053	response	0	4		28.0	2.5	/experiments/knapen_aot/videos/S_pexels-mart-production-8435081.mp4	0.0	148.58748698234558	
30	83.89923214912415	movie	1		197.0	28.0	2.5	/experiments/knapen_aot/videos/S_pexels-mart-production-8435081.mp4	0.0	148.5956780910492	2.5082449913024902
30	86.40747714042664	fix_post	2		12.0	28.0	2.5	/experiments/knapen_aot/videos/S_pexels-mart-production-8435081.mp4	0.0	151.10392308235168	0.10004782676696777
31	86.5075249671936	fix_pre	0		94.0	29.0	2.5	/experiments/knapen_aot/videos/S_ILSVRC2015_train_00708000.mp4	0.0	151.20397090911865	0.7833549976348877
31	87.28267097473145	response	0	2		29.0	2.5	/experiments/knapen_aot/videos/S_ILSVRC2015_train_00708000.mp4	0.0	151.9791169166565	
31	87.29087996482849	movie	1		301.0	29.0	2.5	/experiments/knapen_aot/videos/S_ILSVRC2015_train_00708000.mp4	0.0	151.98732590675354	2.5083141326904297
31	89.79919409751892	fix_post	2		12.0	29.0	2.5	/experiments/knapen_aot/videos/S_ILSVRC2015_train_00708000.mp4	0.0	154.49564003944397	0.10000109672546387
32	89.89919519424438	fix_pre	0		27.0	30.0	2.5	/experiments/knapen_aot/videos/S_yt-t-wpKypNysg_27.mp4	0.0	154.59564113616943	0.2249917984008789
32	90.11597609519958	response	0	4		30.0	2.5	/experiments/knapen_aot/videos/S_yt-t-wpKypNysg_27.mp4	0.0	154.81242203712463	
32	90.12418699264526	movie	1		301.0	30.0	2.5	/experiments/knapen_aot/videos/S_yt-t-wpKypNysg_27.mp4	0.0	154.8206329345703	2.5083560943603516
32	92.63254308700562	fix_post	2		12.0	30.0	2.5	/experiments/knapen_aot/videos/S_yt-t-wpKypNysg_27.mp4	0.0	157.32898902893066	0.09995508193969727
33	92.73249816894531	fix_pre	0		14.0	31.0	2.5	/experiments/knapen_aot/videos/S_yt-l_ioasf6yHg_44.mp4	0.0	157.42894411087036	0.11687588691711426
33	92.840900182724	response	0	2		31.0	2.5	/experiments/knapen_aot/videos/S_yt-l_ioasf6yHg_44.mp4	0.0	157.53734612464905	
33	92.84937405586243	movie	1		301.0	31.0	2.5	/experiments/knapen_aot/videos/S_yt-l_ioasf6yHg_44.mp4	0.0	157.54581999778748	2.508139133453369
33	95.3575131893158	fix_post	2		12.0	31.0	2.5	/experiments/knapen_aot/videos/S_yt-l_ioasf6yHg_44.mp4	0.0	160.05395913124084	0.09999990463256836
34	95.45751309394836	fix_pre	0		30.0	32.0	2.5	/experiments/knapen_aot/videos/S_yt-_6j2NXrB-zE_28.mp4	0.0	160.1539590358734	0.25002503395080566
34	95.69185709953308	response	0	4		32.0	2.5	/experiments/knapen_aot/videos/S_yt-_6j2NXrB-zE_28.mp4	0.0	160.38830304145813	
34	95.70753812789917	movie	1		301.0	32.0	2.5	/experiments/knapen_aot/videos/S_yt-_6j2NXrB-zE_28.mp4	0.0	160.40398406982422	2.5082788467407227
34	98.21581697463989	fix_post	2		12.0	32.0	2.5	/experiments/knapen_aot/videos/S_yt-_6j2NXrB-zE_28.mp4	0.0	162.91226291656494	0.10002613067626953
35	98.31584310531616	fix_pre	0		60.0	33.0	2.5	/experiments/knapen_aot/videos/S_yt-tX3slAQb9yY_13.mp4	0.0	163.0122890472412	0.49995899200439453
35	98.8075909614563	response	0	2		33.0	2.5	/experiments/knapen_aot/videos/S_yt-tX3slAQb9yY_13.mp4	0.0	163.50403690338135	
35	98.81580209732056	movie	1		301.0	33.0	2.5	/experiments/knapen_aot/videos/S_yt-tX3slAQb9yY_13.mp4	0.0	163.5122480392456	2.508305072784424
35	101.32410717010498	fix_post	2		12.0	33.0	2.5	/experiments/knapen_aot/videos/S_yt-tX3slAQb9yY_13.mp4	0.0	166.02055311203003	0.10004496574401855
36	101.424152135849	fix_pre	0		45.0	34.0	2.5	/experiments/knapen_aot/videos/S_1y-EvnfGO9Y_70.mp4	0.0	166.12059807777405	0.37494683265686035
36	101.79093813896179	response	0	4		34.0	2.5	/experiments/knapen_aot/videos/S_1y-EvnfGO9Y_70.mp4	0.0	166.48738408088684	
36	101.79909896850586	movie	1		301.0	34.0	2.5	/experiments/knapen_aot/videos/S_1y-EvnfGO9Y_70.mp4	0.0	166.4955449104309	2.508554220199585
36	104.30765318870544	fix_post	2		12.0	34.0	2.5	/experiments/knapen_aot/videos/S_1y-EvnfGO9Y_70.mp4	0.0	169.0040991306305	0.09975695610046387
37	104.40741014480591	fix_pre	0		81.0	35.0	2.5	blank	1.0	169.10385608673096	0.6750459671020508
37	105.07416296005249	response	0	2		35.0	2.5	blank	1.0	169.77060890197754	
37	105.08245611190796	movie	1		301.0	35.0	2.5	blank	1.0	169.778902053833	2.508359909057617
37	107.59081602096558	fix_post	2		12.0	35.0	2.5	blank	1.0	172.28726196289062	0.09998297691345215
38	107.69079899787903	fix_pre	0		146.0	36.0	2.5	/experiments/knapen_aot/videos/S_production_ID_4325509.mp4	0.0	172.38724493980408	1.216590166091919
38	108.89919114112854	response	0	2		36.0	2.5	/experiments/knapen_aot/videos/S_production_ID_4325509.mp4	0.0	173.5956370830536	
38	108.90738916397095	movie	1		206.0	36.0	2.5	/experiments/knapen_aot/videos/S_production_ID_4325509.mp4	0.0	173.603835105896	2.508389949798584
38	111.41577911376953	fix_post	2		12.0	36.0	2.5	/experiments/knapen_aot/videos/S_production_ID_4325509.mp4	0.0	176.11222505569458	0.1003110408782959
39	111.51609015464783	fix_pre	0		27.0	37.0	2.5	/experiments/knapen_aot/videos/S_yt-a0axt7n0GuQ_19.mp4	0.0	176.21253609657288	0.22456789016723633
39	111.73256206512451	response	0	2		37.0	2.5	/experiments/knapen_aot/videos/S_yt-a0axt7n0GuQ_19.mp4	0.0	176.42900800704956	
39	111.74065804481506	movie	1		301.0	37.0	2.5	/experiments/knapen_aot/videos/S_yt-a0axt7n0GuQ_19.mp4	0.0	176.4371039867401	2.5084221363067627
39	114.24084496498108	response	1	2		37.0	2.5	/experiments/knapen_aot/videos/S_yt-a0axt7n0GuQ_19.mp4	0.0	178.93729090690613	
39	114.24908018112183	fix_post	2		12.0	37.0	2.5	/experiments/knapen_aot/videos/S_yt-a0axt7n0GuQ_19.mp4	0.0	178.94552612304688	0.1001579761505127
40	114.34923815727234	fix_pre	0		39.0	38.0	2.5	/experiments/knapen_aot/videos/S_yt-o_CT2MjZ9fA_216.mp4	0.0	179.0456840991974	0.3247499465942383
40	114.6658980846405	response	0	2		38.0	2.5	/experiments/knapen_aot/videos/S_yt-o_CT2MjZ9fA_216.mp4	0.0	179.36234402656555	
40	114.67398810386658	movie	1		298.0	38.0	2.5	/experiments/knapen_aot/videos/S_yt-o_CT2MjZ9fA_216.mp4	0.0	179.37043404579163	2.508565902709961
40	117.18255400657654	fix_post	2		12.0	38.0	2.5	/experiments/knapen_aot/videos/S_yt-o_CT2MjZ9fA_216.mp4	0.0	181.8789999485016	0.09989404678344727
41	117.28244805335999	fix_pre	0		18.0	39.0	2.5	/experiments/knapen_aot/videos/R_S_yt-waWM9vAfsIw_116.mp4	0.0	181.97889399528503	0.15003395080566406
41	117.42421913146973	response	0	2		39.0	2.5	/experiments/knapen_aot/videos/R_S_yt-waWM9vAfsIw_116.mp4	0.0	182.12066507339478	
41	117.43248200416565	movie	1		301.0	39.0	2.5	/experiments/knapen_aot/videos/R_S_yt-waWM9vAfsIw_116.mp4	0.0	182.1289279460907	2.508296012878418
41	119.94077801704407	fix_post	2		12.0	39.0	2.5	/experiments/knapen_aot/videos/R_S_yt-waWM9vAfsIw_116.mp4	0.0	184.63722395896912	0.09995794296264648
42	120.04073596000671	fix_pre	0		21.0	40.0	2.5	blank	1.0	184.73718190193176	0.1750321388244629
42	120.20759415626526	response	0	2		40.0	2.5	blank	1.0	184.9040400981903	
42	120.21576809883118	movie	1		301.0	40.0	2.5	blank	1.0	184.91221404075623	2.5084269046783447
42	122.72419500350952	fix_post	2		12.0	40.0	2.5	blank	1.0	187.42064094543457	0.09986114501953125
43	122.82405614852905	fix_pre	0		21.0	41.0	2.5	/experiments/knapen_aot/videos/R_S_G007_C004_UHD_SDR_2K_AVC.mp4	0.0	187.5205020904541	0.17503595352172852
43	122.99083399772644	response	0	2		41.0	2.5	/experiments/knapen_aot/videos/R_S_G007_C004_UHD_SDR_2K_AVC.mp4	0.0	187.6872799396515	
43	122.99909210205078	movie	1		177.0	41.0	2.5	/experiments/knapen_aot/videos/R_S_G007_C004_UHD_SDR_2K_AVC.mp4	0.0	187.69553804397583	2.5083329677581787
43	125.50742506980896	fix_post	2		12.0	41.0	2.5	/experiments/knapen_aot/videos/R_S_G007_C004_UHD_SDR_2K_AVC.mp4	0.0	190.203871011734	0.0999898910522461
44	125.6074149608612	fix_pre	0		19.0	42.0	2.5	/experiments/knapen_aot/videos/R_S_yt-mHLTJkMrkZI_143.mp4	0.0	190.30386090278625	0.15839314460754395
44	125.75754404067993	response	0	2		42.0	2.5	/experiments/knapen_aot/videos/R_S_yt-mHLTJkMrkZI_143.mp4	0.0	190.45398998260498	
44	125.76580810546875	movie	1		301.0	42.0	2.5	/experiments/knapen_aot/videos/R_S_yt-mHLTJkMrkZI_143.mp4	0.0	190.4622540473938	2.508246898651123
44	128.27405500411987	fix_post	2		12.0	42.0	2.5	/experiments/knapen_aot/videos/R_S_yt-mHLTJkMrkZI_143.mp4	0.0	192.97050094604492	0.10004210472106934
45	128.37409710884094	fix_pre	0		17.0	43.0	2.5	/experiments/knapen_aot/videos/S_yt-ObT9gF8E_tU_250.mp4	0.0	193.070543050766	0.14168095588684082
45	128.50747108459473	response	0	2		43.0	2.5	/experiments/knapen_aot/videos/S_yt-ObT9gF8E_tU_250.mp4	0.0	193.20391702651978	
45	128.51577806472778	movie	1		300.0	43.0	2.5	/experiments/knapen_aot/videos/S_yt-ObT9gF8E_tU_250.mp4	0.0	193.21222400665283	2.50827693939209
45	131.02405500411987	fix_post	2		12.0	43.0	2.5	/experiments/knapen_aot/videos/S_yt-ObT9gF8E_tU_250.mp4	0.0	195.72050094604492	0.09998607635498047
46	131.12404108047485	fix_pre	0		15.0	44.0	2.5	/experiments/knapen_aot/videos/S_yt-IT741UWKVzg_34.mp4	0.0	195.8204870223999	0.12498188018798828
46	131.24087715148926	response	0	2		44.0	2.5	/experiments/knapen_aot/videos/S_yt-IT741UWKVzg_34.mp4	0.0	195.9373230934143	
46	131.24902296066284	movie	1		301.0	44.0	2.5	/experiments/knapen_aot/videos/S_yt-IT741UWKVzg_34.mp4	0.0	195.9454689025879	2.5083611011505127
46	133.75738406181335	fix_post	2		12.0	44.0	2.5	/experiments/knapen_aot/videos/S_yt-IT741UWKVzg_34.mp4	0.0	198.4538300037384	0.09994697570800781
47	133.85733103752136	fix_pre	0		72.0	45.0	2.5	/experiments/knapen_aot/videos/S_yt-8vm83GUgYxI_1.mp4	0.0	198.5537769794464	0.6000490188598633
47	134.44167518615723	response	0	2		45.0	2.5	/experiments/knapen_aot/videos/S_yt-8vm83GUgYxI_1.mp4	0.0	199.13812112808228	
47	134.45738005638123	movie	1		301.0	45.0	2.5	/experiments/knapen_aot/videos/S_yt-8vm83GUgYxI_1.mp4	0.0	199.15382599830627	2.508307933807373
47	136.9656879901886	fix_post	2		12.0	45.0	2.5	/experiments/knapen_aot/videos/S_yt-8vm83GUgYxI_1.mp4	0.0	201.66213393211365	0.10001707077026367
48	137.06570506095886	fix_pre	0		33.0	46.0	2.5	/experiments/knapen_aot/videos/R_S_FZ0hLmjCR0s_26.mp4	0.0	201.7621510028839	0.27497196197509766
48	137.33250498771667	response	0	2		46.0	2.5	/experiments/knapen_aot/videos/R_S_FZ0hLmjCR0s_26.mp4	0.0	202.02895092964172	
48	137.34067702293396	movie	1		301.0	46.0	2.5	/experiments/knapen_aot/videos/R_S_FZ0hLmjCR0s_26.mp4	0.0	202.037122964859	2.508334159851074
48	139.84901118278503	fix_post	2		12.0	46.0	2.5	/experiments/knapen_aot/videos/R_S_FZ0hLmjCR0s_26.mp4	0.0	204.54545712471008	0.09999799728393555
49	139.94900918006897	fix_pre	0		16.0	47.0	2.5	/experiments/knapen_aot/videos/S_ILSVRC2015_train_00479003.mp4	0.0	204.64545512199402	0.13331389427185059
49	140.0741469860077	response	0	2		47.0	2.5	/experiments/knapen_aot/videos/S_ILSVRC2015_train_00479003.mp4	0.0	204.77059292793274	
49	140.08232307434082	movie	1		301.0	47.0	2.5	/experiments/knapen_aot/videos/S_ILSVRC2015_train_00479003.mp4	0.0	204.77876901626587	2.5083460807800293
49	142.59066915512085	fix_post	2		12.0	47.0	2.5	/experiments/knapen_aot/videos/S_ILSVRC2015_train_00479003.mp4	0.0	207.2871150970459	0.10001492500305176
50	142.6906840801239	fix_pre	0		24.0	48.0	2.5	blank	1.0	207.38713002204895	0.20001792907714844
50	142.88246703147888	response	0	2		48.0	2.5	blank	1.0	207.57891297340393	
50	142.89070200920105	movie	1		301.0	48.0	2.5	blank	1.0	207.5871479511261	2.5082640647888184
50	145.39896607398987	fix_post	2		12.0	48.0	2.5	blank	1.0	210.09541201591492	0.09993290901184082
51	145.4988989830017	fix_pre	0		18.0	49.0	2.5	/experiments/knapen_aot/videos/R_S_yt-4wYTkhggZNM_90.mp4	0.0	210.19534492492676	0.15001201629638672
51	145.64072608947754	response	0	2		49.0	2.5	/experiments/knapen_aot/videos/R_S_yt-4wYTkhggZNM_90.mp4	0.0	210.3371720314026	
51	145.6489109992981	movie	1		301.0	49.0	2.5	/experiments/knapen_aot/videos/R_S_yt-4wYTkhggZNM_90.mp4	0.0	210.34535694122314	2.50835919380188
51	148.15727019309998	fix_post	2		12.0	49.0	2.5	/experiments/knapen_aot/videos/R_S_yt-4wYTkhggZNM_90.mp4	0.0	212.85371613502502	0.10000777244567871
51	148.23246002197266	response	2	2		49.0	2.5	/experiments/knapen_aot/videos/R_S_yt-4wYTkhggZNM_90.mp4	0.0	212.9289059638977	
52	148.25727796554565	fix_pre	0		37.0	50.0	2.5	/experiments/knapen_aot/videos/S_comp_A001_C001_120530_v04_SDR_FINAL_20180706_SDR_2K_AVC.mp4	0.0	212.9537239074707	0.30830907821655273
52	148.557382106781	response	0	2		50.0	2.5	/experiments/knapen_aot/videos/S_comp_A001_C001_120530_v04_SDR_FINAL_20180706_SDR_2K_AVC.mp4	0.0	213.25382804870605	
52	148.5655870437622	movie	1		167.0	50.0	2.5	/experiments/knapen_aot/videos/S_comp_A001_C001_120530_v04_SDR_FINAL_20180706_SDR_2K_AVC.mp4	0.0	213.26203298568726	2.5083439350128174
52	151.07393097877502	fix_post	2		12.0	50.0	2.5	/experiments/knapen_aot/videos/S_comp_A001_C001_120530_v04_SDR_FINAL_20180706_SDR_2K_AVC.mp4	0.0	215.77037692070007	0.0999751091003418
53	151.17390608787537	fix_pre	0		11.0	51.0	2.5	/experiments/knapen_aot/videos/S_video_inspire_oregon_portland_00064.1080-h264.mp4	0.0	215.87035202980042	0.09168696403503418
53	151.25741314888	response	0	2		51.0	2.5	/experiments/knapen_aot/videos/S_video_inspire_oregon_portland_00064.1080-h264.mp4	0.0	215.95385909080505	
53	151.2655930519104	movie	1		165.0	51.0	2.5	/experiments/knapen_aot/videos/S_video_inspire_oregon_portland_00064.1080-h264.mp4	0.0	215.96203899383545	2.5082991123199463
53	153.77389216423035	fix_post	2		12.0	51.0	2.5	/experiments/knapen_aot/videos/S_video_inspire_oregon_portland_00064.1080-h264.mp4	0.0	218.4703381061554	0.10002994537353516
54	153.87392210960388	fix_pre	0		14.0	52.0	2.5	/experiments/knapen_aot/videos/R_S_ILSVRC2015_train_00689000.mp4	0.0	218.57036805152893	0.1166379451751709
54	153.9823441505432	response	0	2		52.0	2.5	/experiments/knapen_aot/videos/R_S_ILSVRC2015_train_00689000.mp4	0.0	218.67879009246826	
54	153.99056005477905	movie	1		301.0	52.0	2.5	/experiments/knapen_aot/videos/R_S_ILSVRC2015_train_00689000.mp4	0.0	218.6870059967041	2.5083861351013184
54	156.49894618988037	fix_post	2		12.0	52.0	2.5	/experiments/knapen_aot/videos/R_S_ILSVRC2015_train_00689000.mp4	0.0	221.19539213180542	0.09999680519104004
55	156.5989429950714	fix_pre	0		20.0	53.0	2.5	/experiments/knapen_aot/videos/S_b3TCugtX0h0_108.mp4	0.0	221.29538893699646	0.16664505004882812
55	156.75742506980896	response	0	2		53.0	2.5	/experiments/knapen_aot/videos/S_b3TCugtX0h0_108.mp4	0.0	221.453871011734	
55	156.76558804512024	movie	1		301.0	53.0	2.5	/experiments/knapen_aot/videos/S_b3TCugtX0h0_108.mp4	0.0	221.4620339870453	2.508357048034668
55	159.2739450931549	fix_post	2		12.0	53.0	2.5	/experiments/knapen_aot/videos/S_b3TCugtX0h0_108.mp4	0.0	223.97039103507996	0.09995698928833008
56	159.37390208244324	fix_pre	0		70.0	54.0	2.5	/experiments/knapen_aot/videos/S_yt-osz-TXlRdXs_2.mp4	0.0	224.0703480243683	0.5833120346069336
56	159.94900512695312	response	0	2		54.0	2.5	/experiments/knapen_aot/videos/S_yt-osz-TXlRdXs_2.mp4	0.0	224.64545106887817	
56	159.95721411705017	movie	1		299.0	54.0	2.5	/experiments/knapen_aot/videos/S_yt-osz-TXlRdXs_2.mp4	0.0	224.65366005897522	2.5083749294281006
56	162.46558904647827	fix_post	2		12.0	54.0	2.5	/experiments/knapen_aot/videos/S_yt-osz-TXlRdXs_2.mp4	0.0	227.16203498840332	0.09999394416809082
57	162.56558299064636	fix_pre	0		18.0	55.0	2.5	blank	1.0	227.2620289325714	0.1500101089477539
57	162.70744514465332	response	0	2		55.0	2.5	blank	1.0	227.40389108657837	
57	162.71559309959412	movie	1		301.0	55.0	2.5	blank	1.0	227.41203904151917	2.5083200931549072
57	165.22391319274902	fix_post	2		12.0	55.0	2.5	blank	1.0	229.92035913467407	0.10007691383361816
58	165.32399010658264	fix_pre	0		28.0	56.0	2.5	/experiments/knapen_aot/videos/R_S_yt-EBuE7GbFw7U_180.mp4	0.0	230.0204360485077	0.23316693305969238
58	165.54890418052673	response	0	2		56.0	2.5	/experiments/knapen_aot/videos/R_S_yt-EBuE7GbFw7U_180.mp4	0.0	230.24535012245178	
58	165.55715703964233	movie	1		301.0	56.0	2.5	/experiments/knapen_aot/videos/R_S_yt-EBuE7GbFw7U_180.mp4	0.0	230.25360298156738	2.5083961486816406
58	168.06555318832397	fix_post	2		12.0	56.0	2.5	/experiments/knapen_aot/videos/R_S_yt-EBuE7GbFw7U_180.mp4	0.0	232.76199913024902	0.09990382194519043
59	168.16545701026917	fix_pre	0		2.0	57.0	2.5	/experiments/knapen_aot/videos/S_yt-GbL63AmOIss_116.mp4	0.0	232.8619029521942	0.016740083694458008
59	168.1694049835205	response	0	2		57.0	2.5	/experiments/knapen_aot/videos/S_yt-GbL63AmOIss_116.mp4	0.0	232.86585092544556	
59	168.18219709396362	movie	1		301.0	57.0	2.5	/experiments/knapen_aot/videos/S_yt-GbL63AmOIss_116.mp4	0.0	232.87864303588867	2.50832200050354
59	170.69051909446716	fix_post	2		12.0	57.0	2.5	/experiments/knapen_aot/videos/S_yt-GbL63AmOIss_116.mp4	0.0	235.3869650363922	0.09994387626647949
60	170.79046297073364	fix_pre	0		120.0	58.0	2.5	/experiments/knapen_aot/videos/R_S_Nh81j72Utbs_5.mp4	0.0	235.4869089126587	1.0000100135803223
60	171.78232407569885	response	0	2		58.0	2.5	/experiments/knapen_aot/videos/R_S_Nh81j72Utbs_5.mp4	0.0	236.4787700176239	
60	171.79047298431396	movie	1		301.0	58.0	2.5	/experiments/knapen_aot/videos/R_S_Nh81j72Utbs_5.mp4	0.0	236.486918926239	2.5083770751953125
60	174.29885005950928	fix_post	2		12.0	58.0	2.5	/experiments/knapen_aot/videos/R_S_Nh81j72Utbs_5.mp4	0.0	238.99529600143433	0.09997701644897461
61	174.39882707595825	fix_pre	0		17.0	59.0	2.5	/experiments/knapen_aot/videos/R_S_yt-kiEFK7bDssE_14.mp4	0.0	239.0952730178833	0.14157795906066895
61	174.5322871208191	response	0	2		59.0	2.5	/experiments/knapen_aot/videos/R_S_yt-kiEFK7bDssE_14.mp4	0.0	239.22873306274414	
61	174.54040503501892	movie	1		301.0	59.0	2.5	/experiments/knapen_aot/videos/R_S_yt-kiEFK7bDssE_14.mp4	0.0	239.23685097694397	2.5084660053253174
61	177.04887104034424	fix_post	2		12.0	59.0	2.5	/experiments/knapen_aot/videos/R_S_yt-kiEFK7bDssE_14.mp4	0.0	241.7453169822693	0.09997415542602539
62	177.14884519577026	fix_pre	0		86.0	60.0	2.5	/experiments/knapen_aot/videos/S_yt-dQRqGgpS9mE_288.mp4	0.0	241.8452911376953	0.7166578769683838
62	177.85729598999023	response	0	2		60.0	2.5	/experiments/knapen_aot/videos/S_yt-dQRqGgpS9mE_288.mp4	0.0	242.55374193191528	
62	177.86550307273865	movie	1		301.0	60.0	2.5	/experiments/knapen_aot/videos/S_yt-dQRqGgpS9mE_288.mp4	0.0	242.5619490146637	2.5083611011505127
62	180.37386417388916	fix_post	2		12.0	60.0	2.5	/experiments/knapen_aot/videos/S_yt-dQRqGgpS9mE_288.mp4	0.0	245.0703101158142	0.09995794296264648
63	180.4738221168518	fix_pre	0		138.0	61.0	2.5	/experiments/knapen_aot/videos/S_ILSVRC2015_train_00457000.mp4	0.0	245.17026805877686	1.149940013885498
63	181.6156120300293	response	0	2		61.0	2.5	/experiments/knapen_aot/videos/S_ILSVRC2015_train_00457000.mp4	0.0	246.31205797195435	
63	181.6237621307373	movie	1		301.0	61.0	2.5	/experiments/knapen_aot/videos/S_ILSVRC2015_train_00457000.mp4	0.0	246.32020807266235	2.5083398818969727
63	184.13210201263428	fix_post	2		12.0	61.0	2.5	/experiments/knapen_aot/videos/S_ILSVRC2015_train_00457000.mp4	0.0	248.82854795455933	0.09994816780090332
64	184.23205018043518	fix_pre	0		38.0	62.0	2.5	/experiments/knapen_aot/videos/R_S_yt-IDpUZ2NWBUY_60.mp4	0.0	248.92849612236023	0.31789684295654297
64	184.54051113128662	response	0	2		62.0	2.5	/experiments/knapen_aot/videos/R_S_yt-IDpUZ2NWBUY_60.mp4	0.0	249.23695707321167	
64	184.54994702339172	movie	1		301.0	62.0	2.5	/experiments/knapen_aot/videos/R_S_yt-IDpUZ2NWBUY_60.mp4	0.0	249.24639296531677	2.507167100906372
64	187.0571141242981	fix_post	2		12.0	62.0	2.5	/experiments/knapen_aot/videos/R_S_yt-IDpUZ2NWBUY_60.mp4	0.0	251.75356006622314	0.09998703002929688
65	187.1571011543274	fix_pre	0		208.0	63.0	2.5	blank	1.0	251.85354709625244	1.7333109378814697
65	188.88223505020142	response	0	2		63.0	2.5	blank	1.0	253.57868099212646	
65	188.89041209220886	movie	1		301.0	63.0	2.5	blank	1.0	253.5868580341339	2.5083229541778564
65	191.39873504638672	fix_post	2		12.0	63.0	2.5	blank	1.0	256.09518098831177	0.1000509262084961
66	191.49878597259521	fix_pre	0		16.0	64.0	2.5	/experiments/knapen_aot/videos/S_yt-oxUpc8I5wWQ_238.mp4	0.0	256.19523191452026	0.134443998336792
66	191.62382698059082	response	0	2		64.0	2.5	/experiments/knapen_aot/videos/S_yt-oxUpc8I5wWQ_238.mp4	0.0	256.32027292251587	
66	191.633229970932	movie	1		301.0	64.0	2.5	/experiments/knapen_aot/videos/S_yt-oxUpc8I5wWQ_238.mp4	0.0	256.32967591285706	2.507181167602539
66	194.14041113853455	fix_post	2		12.0	64.0	2.5	/experiments/knapen_aot/videos/S_yt-oxUpc8I5wWQ_238.mp4	0.0	258.8368570804596	0.09997296333312988
67	194.24038410186768	fix_pre	0		19.0	65.0	2.5	/experiments/knapen_aot/videos/S_yt-28ODBE9bVh0_44.mp4	0.0	258.9368300437927	0.15830492973327637
67	194.39057207107544	response	0	2		65.0	2.5	/experiments/knapen_aot/videos/S_yt-28ODBE9bVh0_44.mp4	0.0	259.0870180130005	
67	194.39868903160095	movie	1		300.0	65.0	2.5	/experiments/knapen_aot/videos/S_yt-28ODBE9bVh0_44.mp4	0.0	259.095134973526	2.5084290504455566
67	196.9071180820465	fix_post	2		12.0	65.0	2.5	/experiments/knapen_aot/videos/S_yt-28ODBE9bVh0_44.mp4	0.0	261.60356402397156	0.10001993179321289
68	197.00713801383972	fix_pre	0		98.0	66.0	2.5	/experiments/knapen_aot/videos/R_S_yt-1UFhynm5g6Y_266.mp4	0.0	261.70358395576477	0.8165891170501709
68	197.81557297706604	response	0	2		66.0	2.5	/experiments/knapen_aot/videos/R_S_yt-1UFhynm5g6Y_266.mp4	0.0	262.5120189189911	
68	197.8237271308899	movie	1		301.0	66.0	2.5	/experiments/knapen_aot/videos/R_S_yt-1UFhynm5g6Y_266.mp4	0.0	262.52017307281494	2.508312940597534
68	200.33204007148743	fix_post	2		12.0	66.0	2.5	/experiments/knapen_aot/videos/R_S_yt-1UFhynm5g6Y_266.mp4	0.0	265.0284860134125	0.1000680923461914
69	200.43210816383362	fix_pre	0		88.0	67.0	2.5	/experiments/knapen_aot/videos/R_S_yt-xlHdGsXVZFU_83.mp4	0.0	265.12855410575867	0.733299970626831
69	201.15714502334595	response	0	2		67.0	2.5	/experiments/knapen_aot/videos/R_S_yt-xlHdGsXVZFU_83.mp4	0.0	265.853590965271	
69	201.16540813446045	movie	1		301.0	67.0	2.5	/experiments/knapen_aot/videos/R_S_yt-xlHdGsXVZFU_83.mp4	0.0	265.8618540763855	2.508244037628174
69	203.67365217208862	fix_post	2		12.0	67.0	2.5	/experiments/knapen_aot/videos/R_S_yt-xlHdGsXVZFU_83.mp4	0.0	268.3700981140137	0.10004281997680664
70	203.77369499206543	fix_pre	0		40.0	68.0	2.5	blank	1.0	268.4701409339905	0.3333292007446289
70	204.09883904457092	response	0	2		68.0	2.5	blank	1.0	268.795284986496	
70	204.10702419281006	movie	1		301.0	68.0	2.5	blank	1.0	268.8034701347351	2.5083329677581787
70	206.61535716056824	fix_post	2		12.0	68.0	2.5	blank	1.0	271.3118031024933	0.09998202323913574
70	206.64899897575378	response	2	2		68.0	2.5	blank	1.0	271.34544491767883	
71	206.71533918380737	fix_pre	0		39.0	69.0	2.5	/experiments/knapen_aot/videos/R_S_yt-IDpUZ2NWBUY_60.mp4	0.0	271.4117851257324	0.3250598907470703
71	207.03205704689026	response	0	2		69.0	2.5	/experiments/knapen_aot/videos/R_S_yt-IDpUZ2NWBUY_60.mp4	0.0	271.7285029888153	
71	207.04039907455444	movie	1		301.0	69.0	2.5	/experiments/knapen_aot/videos/R_S_yt-IDpUZ2NWBUY_60.mp4	0.0	271.7368450164795	2.508294105529785
71	209.54869318008423	fix_post	2		12.0	69.0	2.5	/experiments/knapen_aot/videos/R_S_yt-IDpUZ2NWBUY_60.mp4	0.0	274.2451391220093	0.10004091262817383
72	209.6487340927124	fix_pre	0		13.0	70.0	2.5	/experiments/knapen_aot/videos/S_yt-f9iXELY0EJ0_344.mp4	0.0	274.34518003463745	0.10927391052246094
72	209.74872303009033	response	0	2		70.0	2.5	/experiments/knapen_aot/videos/S_yt-f9iXELY0EJ0_344.mp4	0.0	274.4451689720154	
72	209.75800800323486	movie	1		301.0	70.0	2.5	/experiments/knapen_aot/videos/S_yt-f9iXELY0EJ0_344.mp4	0.0	274.4544539451599	2.507349967956543
72	212.2653579711914	fix_post	2		12.0	70.0	2.5	/experiments/knapen_aot/videos/S_yt-f9iXELY0EJ0_344.mp4	0.0	276.96180391311646	0.10000419616699219
73	212.3653621673584	fix_pre	0		17.0	71.0	2.5	/experiments/knapen_aot/videos/R_S_yt-f9iXELY0EJ0_344.mp4	0.0	277.06180810928345	0.1426408290863037
73	212.49878811836243	response	0	2		71.0	2.5	/experiments/knapen_aot/videos/R_S_yt-f9iXELY0EJ0_344.mp4	0.0	277.1952340602875	
73	212.5080029964447	movie	1		301.0	71.0	2.5	/experiments/knapen_aot/videos/R_S_yt-f9iXELY0EJ0_344.mp4	0.0	277.20444893836975	2.5073461532592773
73	215.01534914970398	fix_post	2		12.0	71.0	2.5	/experiments/knapen_aot/videos/R_S_yt-f9iXELY0EJ0_344.mp4	0.0	279.711795091629	0.1000068187713623
74	215.11535596847534	fix_pre	0		27.0	72.0	2.5	/experiments/knapen_aot/videos/S_yt-Tt_LkR4iAt4_11.mp4	0.0	279.8118019104004	0.22595810890197754
74	215.33214211463928	response	0	2		72.0	2.5	/experiments/knapen_aot/videos/S_yt-Tt_LkR4iAt4_11.mp4	0.0	280.02858805656433	
74	215.34131407737732	movie	1		301.0	72.0	2.5	/experiments/knapen_aot/videos/S_yt-Tt_LkR4iAt4_11.mp4	0.0	280.03776001930237	2.5073609352111816
74	217.8486750125885	fix_post	2		12.0	72.0	2.5	/experiments/knapen_aot/videos/S_yt-Tt_LkR4iAt4_11.mp4	0.0	282.54512095451355	0.09990406036376953
75	217.94857907295227	fix_pre	0		45.0	73.0	2.5	/experiments/knapen_aot/videos/S_-vPHq-7BJ70_15.mp4	0.0	282.6450250148773	0.3750340938568115
75	218.31534814834595	response	0	2		73.0	2.5	/experiments/knapen_aot/videos/S_-vPHq-7BJ70_15.mp4	0.0	283.011794090271	
75	218.32361316680908	movie	1		301.0	73.0	2.5	/experiments/knapen_aot/videos/S_-vPHq-7BJ70_15.mp4	0.0	283.02005910873413	2.5083179473876953
75	220.83193111419678	fix_post	2		12.0	73.0	2.5	/experiments/knapen_aot/videos/S_-vPHq-7BJ70_15.mp4	0.0	285.5283770561218	0.09999799728393555
76	220.9319291114807	fix_pre	0		128.0	74.0	2.5	/experiments/knapen_aot/videos/R_S_yt-jcuaf9iSEkI_169.mp4	0.0	285.62837505340576	1.0666148662567139
76	221.99044704437256	response	0	2		74.0	2.5	/experiments/knapen_aot/videos/R_S_yt-jcuaf9iSEkI_169.mp4	0.0	286.6868929862976	
76	221.99854397773743	movie	1		301.0	74.0	2.5	/experiments/knapen_aot/videos/R_S_yt-jcuaf9iSEkI_169.mp4	0.0	286.6949899196625	2.5083320140838623
76	224.5068759918213	fix_post	2		12.0	74.0	2.5	/experiments/knapen_aot/videos/R_S_yt-jcuaf9iSEkI_169.mp4	0.0	289.20332193374634	0.10010099411010742
77	224.6069769859314	fix_pre	0		23.0	75.0	2.5	/experiments/knapen_aot/videos/R_S_yt-tEzCpMrjOHs_24.mp4	0.0	289.30342292785645	0.1926121711730957
77	224.7904269695282	response	0	2		75.0	2.5	/experiments/knapen_aot/videos/R_S_yt-tEzCpMrjOHs_24.mp4	0.0	289.48687291145325	
77	224.7995891571045	movie	1		299.0	75.0	2.5	/experiments/knapen_aot/videos/R_S_yt-tEzCpMrjOHs_24.mp4	0.0	289.49603509902954	2.507375955581665
77	227.30696511268616	fix_post	2		12.0	75.0	2.5	/experiments/knapen_aot/videos/R_S_yt-tEzCpMrjOHs_24.mp4	0.0	292.0034110546112	0.09999394416809082
78	227.40695905685425	fix_pre	0		129.0	76.0	2.5	/experiments/knapen_aot/videos/S_ILSVRC2015_train_00515000.mp4	0.0	292.1034049987793	1.0749211311340332
78	228.47376418113708	response	0	2		76.0	2.5	/experiments/knapen_aot/videos/S_ILSVRC2015_train_00515000.mp4	0.0	293.17021012306213	
78	228.48188018798828	movie	1		301.0	76.0	2.5	/experiments/knapen_aot/videos/S_ILSVRC2015_train_00515000.mp4	0.0	293.17832612991333	2.5083158016204834
78	230.99019598960876	fix_post	2		12.0	76.0	2.5	/experiments/knapen_aot/videos/S_ILSVRC2015_train_00515000.mp4	0.0	295.6866419315338	0.10009098052978516
79	231.09028697013855	fix_pre	0		25.0	77.0	2.5	blank	1.0	295.7867329120636	0.20922017097473145
79	231.29045915603638	response	0	2		77.0	2.5	blank	1.0	295.9869050979614	
79	231.29950714111328	movie	1		301.0	77.0	2.5	blank	1.0	295.99595308303833	2.5073728561401367
79	233.80687999725342	fix_post	2		12.0	77.0	2.5	blank	1.0	298.50332593917847	0.10002398490905762
80	233.90690398216248	fix_pre	0		32.0	78.0	2.5	/experiments/knapen_aot/videos/R_S_comp_GMT306_139NC_139J_3066_CALI_TO_VEGAS_v08_SDR_PS_20180824_SDR_2K_AVC.mp4	0.0	298.6033499240875	0.267578125
80	234.16536116600037	response	0	2		78.0	2.5	/experiments/knapen_aot/videos/R_S_comp_GMT306_139NC_139J_3066_CALI_TO_VEGAS_v08_SDR_PS_20180824_SDR_2K_AVC.mp4	0.0	298.8618071079254	
80	234.17448210716248	movie	1		168.0	78.0	2.5	/experiments/knapen_aot/videos/R_S_comp_GMT306_139NC_139J_3066_CALI_TO_VEGAS_v08_SDR_PS_20180824_SDR_2K_AVC.mp4	0.0	298.8709280490875	2.5074989795684814
80	236.68198108673096	fix_post	2		12.0	78.0	2.5	/experiments/knapen_aot/videos/R_S_comp_GMT306_139NC_139J_3066_CALI_TO_VEGAS_v08_SDR_PS_20180824_SDR_2K_AVC.mp4	0.0	301.378427028656	0.09992790222167969
81	236.78190898895264	fix_pre	0		21.0	79.0	2.5	/experiments/knapen_aot/videos/R_S_1y-EvnfGO9Y_70.mp4	0.0	301.4783549308777	0.17504000663757324
81	236.94876098632812	response	0	2		79.0	2.5	/experiments/knapen_aot/videos/R_S_1y-EvnfGO9Y_70.mp4	0.0	301.6452069282532	
81	236.9569489955902	movie	1		301.0	79.0	2.5	/experiments/knapen_aot/videos/R_S_1y-EvnfGO9Y_70.mp4	0.0	301.65339493751526	2.50832200050354
81	239.46527099609375	fix_post	2		12.0	79.0	2.5	/experiments/knapen_aot/videos/R_S_1y-EvnfGO9Y_70.mp4	0.0	304.1617169380188	0.10000300407409668
82	239.56527400016785	fix_pre	0		15.0	80.0	2.5	/experiments/knapen_aot/videos/R_S_-vPHq-7BJ70_15.mp4	0.0	304.2617199420929	0.12493610382080078
82	239.682049036026	response	0	2		80.0	2.5	/experiments/knapen_aot/videos/R_S_-vPHq-7BJ70_15.mp4	0.0	304.37849497795105	
82	239.69021010398865	movie	1		301.0	80.0	2.5	/experiments/knapen_aot/videos/R_S_-vPHq-7BJ70_15.mp4	0.0	304.3866560459137	2.5083470344543457
82	242.198557138443	fix_post	2		12.0	80.0	2.5	/experiments/knapen_aot/videos/R_S_-vPHq-7BJ70_15.mp4	0.0	306.89500308036804	0.10004186630249023
83	242.29859900474548	fix_pre	0		25.0	81.0	2.5	/experiments/knapen_aot/videos/R_S_yt-waWM9vAfsIw_116.mp4	0.0	306.99504494667053	0.20914697647094727
83	242.4911391735077	response	0	2		81.0	2.5	/experiments/knapen_aot/videos/R_S_yt-waWM9vAfsIw_116.mp4	0.0	307.18758511543274	
83	242.50774598121643	movie	1		301.0	81.0	2.5	/experiments/knapen_aot/videos/R_S_yt-waWM9vAfsIw_116.mp4	0.0	307.2041919231415	2.5074331760406494
83	245.01517915725708	fix_post	2		12.0	81.0	2.5	/experiments/knapen_aot/videos/R_S_yt-waWM9vAfsIw_116.mp4	0.0	309.71162509918213	0.1000359058380127
84	245.1152150630951	fix_pre	0		20.0	82.0	2.5	/experiments/knapen_aot/videos/R_S_video_inspire_california_catalina_avalon_00053.1080-h264.mp4	0.0	309.81166100502014	0.16662192344665527
84	245.27362513542175	response	0	2		82.0	2.5	/experiments/knapen_aot/videos/R_S_video_inspire_california_catalina_avalon_00053.1080-h264.mp4	0.0	309.9700710773468	
84	245.28183698654175	movie	1		172.0	82.0	2.5	/experiments/knapen_aot/videos/R_S_video_inspire_california_catalina_avalon_00053.1080-h264.mp4	0.0	309.9782829284668	2.5084149837493896
84	247.79025197029114	fix_post	2		12.0	82.0	2.5	/experiments/knapen_aot/videos/R_S_video_inspire_california_catalina_avalon_00053.1080-h264.mp4	0.0	312.4866979122162	0.10000205039978027
85	247.89025402069092	fix_pre	0		35.0	83.0	2.5	blank	1.0	312.58669996261597	0.29165005683898926
85	248.1661970615387	response	0	2		83.0	2.5	blank	1.0	312.86264300346375	
85	248.1819040775299	movie	1		301.0	83.0	2.5	blank	1.0	312.87835001945496	2.508342981338501
85	250.6902470588684	fix_post	2		12.0	83.0	2.5	blank	1.0	315.38669300079346	0.09998607635498047
87	250.7902331352234	stim	0		555.0					315.48667907714844	4.627148866653442
87	255.41168808937073	response	0	space						320.1081340312958	
