trial_nr	onset	event_type	phase	response	nr_frames	movie_index	movie_duration	movie_file	blank	onset_abs	duration
0	0.12513089179992676	stim	0		61.0					61.80081295967102	0.5096001625061035
0	0.6180100440979004	response	0	space						62.293692111968994	
1	0.6347310543060303	stim	0		121.0					62.310413122177124	1.0066030025482178
1	1.3001060485839844	response	0	space						62.97578811645508	
1	1.641334056854248	stim	1		120.0					63.31701612472534	0.9998958110809326
1	1.7413969039916992	response	1	space						63.41707897186279	
1	2.057983875274658	response	1	space						63.73366594314575	
1	2.2996649742126465	response	1	space						63.97534704208374	
1	2.5496740341186523	response	1	space						64.22535610198975	
2	2.6412298679351807	fix_pre	0		27.0	0.0	2.5	/experiments/knapen_aot/videos/S_ILSVRC2015_train_00568000.mp4	0.0	64.31691193580627	0.225175142288208
2	2.8580539226531982	response	0	space		0.0	2.5	/experiments/knapen_aot/videos/S_ILSVRC2015_train_00568000.mp4	0.0	64.53373599052429	
2	2.8664050102233887	movie	1		301.0	0.0	2.5	/experiments/knapen_aot/videos/S_ILSVRC2015_train_00568000.mp4	0.0	64.54208707809448	2.5082268714904785
2	5.374631881713867	fix_post	2		12.0	0.0	2.5	/experiments/knapen_aot/videos/S_ILSVRC2015_train_00568000.mp4	0.0	67.05031394958496	0.0999901294708252
3	5.474622011184692	fix_pre	0		74.0	1.0	2.5	/experiments/knapen_aot/videos/R_S_comp_DB_D002_C003_PSNK_v04_SDR_PS_20180914_SDR_2K_AVC.mp4	0.0	67.15030407905579	0.6183409690856934
3	6.087462902069092	response	0	2		1.0	2.5	/experiments/knapen_aot/videos/R_S_comp_DB_D002_C003_PSNK_v04_SDR_PS_20180914_SDR_2K_AVC.mp4	0.0	67.76314496994019	
3	6.092962980270386	movie	1		164.0	1.0	2.5	/experiments/knapen_aot/videos/R_S_comp_DB_D002_C003_PSNK_v04_SDR_PS_20180914_SDR_2K_AVC.mp4	0.0	67.76864504814148	2.5066659450531006
3	8.599628925323486	fix_post	2		12.0	1.0	2.5	/experiments/knapen_aot/videos/R_S_comp_DB_D002_C003_PSNK_v04_SDR_PS_20180914_SDR_2K_AVC.mp4	0.0	70.27531099319458	0.09998106956481934
4	8.699609994888306	fix_pre	0		68.0	2.0	2.5	/experiments/knapen_aot/videos/R_S_Y011_C008_SDR_2K_AVC.mp4	0.0	70.3752920627594	0.5669229030609131
4	9.25806999206543	response	0	2		2.0	2.5	/experiments/knapen_aot/videos/R_S_Y011_C008_SDR_2K_AVC.mp4	0.0	70.93375205993652	
4	9.266532897949219	movie	1		176.0	2.0	2.5	/experiments/knapen_aot/videos/R_S_Y011_C008_SDR_2K_AVC.mp4	0.0	70.94221496582031	2.508078098297119
4	11.774610996246338	fix_post	2		12.0	2.0	2.5	/experiments/knapen_aot/videos/R_S_Y011_C008_SDR_2K_AVC.mp4	0.0	73.45029306411743	0.10000300407409668
5	11.874614000320435	fix_pre	0		63.0	3.0	2.5	/experiments/knapen_aot/videos/S_yt-ThT8utBaywI_68.mp4	0.0	73.55029606819153	0.5249278545379639
5	12.391381025314331	response	0	2		3.0	2.5	/experiments/knapen_aot/videos/S_yt-ThT8utBaywI_68.mp4	0.0	74.06706309318542	
5	12.399541854858398	movie	1		301.0	3.0	2.5	/experiments/knapen_aot/videos/S_yt-ThT8utBaywI_68.mp4	0.0	74.07522392272949	2.5083250999450684
5	14.907866954803467	fix_post	2		12.0	3.0	2.5	/experiments/knapen_aot/videos/S_yt-ThT8utBaywI_68.mp4	0.0	76.58354902267456	0.10004091262817383
6	15.00790786743164	fix_pre	0		79.0	4.0	2.5	/experiments/knapen_aot/videos/S_yt-bshHX6vWLtA_84.mp4	0.0	76.68358993530273	0.65830397605896
6	15.658046960830688	response	0	2		4.0	2.5	/experiments/knapen_aot/videos/S_yt-bshHX6vWLtA_84.mp4	0.0	77.33372902870178	
6	15.6662118434906	movie	1		301.0	4.0	2.5	/experiments/knapen_aot/videos/S_yt-bshHX6vWLtA_84.mp4	0.0	77.3418939113617	2.5084280967712402
6	18.17463994026184	fix_post	2		12.0	4.0	2.5	/experiments/knapen_aot/videos/S_yt-bshHX6vWLtA_84.mp4	0.0	79.85032200813293	0.09994697570800781
7	18.27458691596985	fix_pre	0		75.0	5.0	2.5	/experiments/knapen_aot/videos/S_Pexels_Videos_2795731.mp4	0.0	79.95026898384094	0.6249420642852783
7	18.891356945037842	response	0	2		5.0	2.5	/experiments/knapen_aot/videos/S_Pexels_Videos_2795731.mp4	0.0	80.56703901290894	
7	18.899528980255127	movie	1		163.0	5.0	2.5	/experiments/knapen_aot/videos/S_Pexels_Videos_2795731.mp4	0.0	80.57521104812622	2.5084190368652344
7	21.40794801712036	fix_post	2		12.0	5.0	2.5	/experiments/knapen_aot/videos/S_Pexels_Videos_2795731.mp4	0.0	83.08363008499146	0.09987401962280273
8	21.507822036743164	fix_pre	0		62.0	6.0	2.5	/experiments/knapen_aot/videos/S_yt-9NV8zv2Sdq4_30.mp4	0.0	83.18350410461426	0.51668381690979
8	22.01634383201599	response	0	2		6.0	2.5	/experiments/knapen_aot/videos/S_yt-9NV8zv2Sdq4_30.mp4	0.0	83.69202589988708	
8	22.024505853652954	movie	1		301.0	6.0	2.5	/experiments/knapen_aot/videos/S_yt-9NV8zv2Sdq4_30.mp4	0.0	83.70018792152405	2.5084311962127686
8	24.532937049865723	fix_post	2		12.0	6.0	2.5	/experiments/knapen_aot/videos/S_yt-9NV8zv2Sdq4_30.mp4	0.0	86.20861911773682	0.09995388984680176
9	24.632890939712524	fix_pre	0		78.0	7.0	2.5	blank	1.0	86.30857300758362	0.6498599052429199
9	25.274690866470337	response	0	2		7.0	2.5	blank	1.0	86.95037293434143	
9	25.282750844955444	movie	1		301.0	7.0	2.5	blank	1.0	86.95843291282654	2.5083911418914795
9	27.791141986846924	fix_post	2		12.0	7.0	2.5	blank	1.0	89.46682405471802	0.10004806518554688
10	27.89119005203247	fix_pre	0		66.0	8.0	2.5	/experiments/knapen_aot/videos/S_ILSVRC2015_train_00303008.mp4	0.0	89.56687211990356	0.5500168800354004
10	28.432922840118408	response	0	2		8.0	2.5	/experiments/knapen_aot/videos/S_ILSVRC2015_train_00303008.mp4	0.0	90.1086049079895	
10	28.44120693206787	movie	1		301.0	8.0	2.5	/experiments/knapen_aot/videos/S_ILSVRC2015_train_00303008.mp4	0.0	90.11688899993896	2.508327007293701
10	30.949533939361572	fix_post	2		12.0	8.0	2.5	/experiments/knapen_aot/videos/S_ILSVRC2015_train_00303008.mp4	0.0	92.62521600723267	0.0999760627746582
11	31.04951000213623	fix_pre	0		67.0	9.0	2.5	/experiments/knapen_aot/videos/S_production_ID_4802716.mp4	0.0	92.72519207000732	0.5582678318023682
11	31.599573850631714	response	0	2		9.0	2.5	/experiments/knapen_aot/videos/S_production_ID_4802716.mp4	0.0	93.27525591850281	
11	31.6077778339386	movie	1		166.0	9.0	2.5	/experiments/knapen_aot/videos/S_production_ID_4802716.mp4	0.0	93.28345990180969	2.508334159851074
11	34.11611199378967	fix_post	2		12.0	9.0	2.5	/experiments/knapen_aot/videos/S_production_ID_4802716.mp4	0.0	95.79179406166077	0.10004806518554688
12	34.21616005897522	fix_pre	0		74.0	10.0	2.5	/experiments/knapen_aot/videos/S_yt-OdTWn1U1mO4_68.mp4	0.0	95.89184212684631	0.6166338920593262
12	34.82457494735718	response	0	2		10.0	2.5	/experiments/knapen_aot/videos/S_yt-OdTWn1U1mO4_68.mp4	0.0	96.50025701522827	
12	34.832793951034546	movie	1		301.0	10.0	2.5	/experiments/knapen_aot/videos/S_yt-OdTWn1U1mO4_68.mp4	0.0	96.50847601890564	2.508354902267456
12	37.341148853302	fix_post	2		12.0	10.0	2.5	/experiments/knapen_aot/videos/S_yt-OdTWn1U1mO4_68.mp4	0.0	99.0168309211731	0.10001206398010254
13	37.441160917282104	fix_pre	0		72.0	11.0	2.5	/experiments/knapen_aot/videos/S_yt-RHPOCG1mII0_138.mp4	0.0	99.1168429851532	0.5999839305877686
13	38.03291392326355	response	0	2		11.0	2.5	/experiments/knapen_aot/videos/S_yt-RHPOCG1mII0_138.mp4	0.0	99.70859599113464	
13	38.04114484786987	movie	1		301.0	11.0	2.5	/experiments/knapen_aot/videos/S_yt-RHPOCG1mII0_138.mp4	0.0	99.71682691574097	2.508324146270752
13	40.549468994140625	fix_post	2		12.0	11.0	2.5	/experiments/knapen_aot/videos/S_yt-RHPOCG1mII0_138.mp4	0.0	102.22515106201172	0.10002899169921875
14	40.649497985839844	fix_pre	0		68.0	12.0	2.5	/experiments/knapen_aot/videos/S_yt-fA0nOetbOJY_580.mp4	0.0	102.32518005371094	0.5681610107421875
14	41.207874059677124	response	0	2		12.0	2.5	/experiments/knapen_aot/videos/S_yt-fA0nOetbOJY_580.mp4	0.0	102.88355612754822	
14	41.21765899658203	movie	1		301.0	12.0	2.5	/experiments/knapen_aot/videos/S_yt-fA0nOetbOJY_580.mp4	0.0	102.89334106445312	2.506989002227783
14	43.724647998809814	fix_post	2		12.0	12.0	2.5	/experiments/knapen_aot/videos/S_yt-fA0nOetbOJY_580.mp4	0.0	105.40033006668091	0.0998079776763916
15	43.824455976486206	fix_pre	0		61.0	13.0	2.5	blank	1.0	105.5001380443573	0.5083038806915283
15	44.32453894615173	response	0	2		13.0	2.5	blank	1.0	106.00022101402283	
15	44.332759857177734	movie	1		301.0	13.0	2.5	blank	1.0	106.00844192504883	2.5083401203155518
15	46.841099977493286	fix_post	2		12.0	13.0	2.5	blank	1.0	108.51678204536438	0.10007786750793457
16	46.94117784500122	fix_pre	0		61.0	14.0	2.5	/experiments/knapen_aot/videos/S_yt-BAwvfRmE1LU_79.mp4	0.0	108.61685991287231	0.5082411766052246
16	47.44121599197388	response	0	2		14.0	2.5	/experiments/knapen_aot/videos/S_yt-BAwvfRmE1LU_79.mp4	0.0	109.11689805984497	
16	47.449419021606445	movie	1		301.0	14.0	2.5	/experiments/knapen_aot/videos/S_yt-BAwvfRmE1LU_79.mp4	0.0	109.12510108947754	2.508352041244507
16	49.95777106285095	fix_post	2		12.0	14.0	2.5	/experiments/knapen_aot/videos/S_yt-BAwvfRmE1LU_79.mp4	0.0	111.63345313072205	0.10009384155273438
17	50.05786490440369	fix_pre	0		56.0	15.0	2.5	/experiments/knapen_aot/videos/R_S_yt-8vm83GUgYxI_1.mp4	0.0	111.73354697227478	0.4665250778198242
17	50.51616096496582	response	0	2		15.0	2.5	/experiments/knapen_aot/videos/R_S_yt-8vm83GUgYxI_1.mp4	0.0	112.19184303283691	
17	50.52438998222351	movie	1		301.0	15.0	2.5	/experiments/knapen_aot/videos/R_S_yt-8vm83GUgYxI_1.mp4	0.0	112.2000720500946	2.508435010910034
17	53.032824993133545	fix_post	2		12.0	15.0	2.5	/experiments/knapen_aot/videos/R_S_yt-8vm83GUgYxI_1.mp4	0.0	114.70850706100464	0.09989786148071289
18	53.13272285461426	fix_pre	0		60.0	16.0	2.5	/experiments/knapen_aot/videos/R_S_pexels-cottonbro-10640532.mp4	0.0	114.80840492248535	0.4999101161956787
18	53.624512910842896	response	0	2		16.0	2.5	/experiments/knapen_aot/videos/R_S_pexels-cottonbro-10640532.mp4	0.0	115.30019497871399	
18	53.63263297080994	movie	1		201.0	16.0	2.5	/experiments/knapen_aot/videos/R_S_pexels-cottonbro-10640532.mp4	0.0	115.30831503868103	2.508549928665161
18	56.1411828994751	fix_post	2		12.0	16.0	2.5	/experiments/knapen_aot/videos/R_S_pexels-cottonbro-10640532.mp4	0.0	117.81686496734619	0.09992694854736328
19	56.24110984802246	fix_pre	0		86.0	17.0	2.5	/experiments/knapen_aot/videos/S_yt-wLylWnZs3z0_27.mp4	0.0	117.91679191589355	0.7166380882263184
19	56.94951105117798	response	0	2		17.0	2.5	/experiments/knapen_aot/videos/S_yt-wLylWnZs3z0_27.mp4	0.0	118.62519311904907	
19	56.95774793624878	movie	1		301.0	17.0	2.5	/experiments/knapen_aot/videos/S_yt-wLylWnZs3z0_27.mp4	0.0	118.63343000411987	2.5082290172576904
19	59.46597695350647	fix_post	2		12.0	17.0	2.5	/experiments/knapen_aot/videos/S_yt-wLylWnZs3z0_27.mp4	0.0	121.14165902137756	0.10025811195373535
20	59.566235065460205	fix_pre	0		67.0	18.0	2.5	/experiments/knapen_aot/videos/R_S_yt-xqHrTtvFFIs_3.mp4	0.0	121.2419171333313	0.5580959320068359
20	60.11616802215576	response	0	2		18.0	2.5	/experiments/knapen_aot/videos/R_S_yt-xqHrTtvFFIs_3.mp4	0.0	121.79185009002686	
20	60.12433099746704	movie	1		301.0	18.0	2.5	/experiments/knapen_aot/videos/R_S_yt-xqHrTtvFFIs_3.mp4	0.0	121.80001306533813	2.5083630084991455
20	62.63269400596619	fix_post	2		12.0	18.0	2.5	/experiments/knapen_aot/videos/R_S_yt-xqHrTtvFFIs_3.mp4	0.0	124.30837607383728	0.10009002685546875
21	62.732784032821655	fix_pre	0		60.0	19.0	2.5	/experiments/knapen_aot/videos/S_yt-4GDusA21cEA_170.mp4	0.0	124.40846610069275	0.4998908042907715
21	63.216943979263306	response	0	2		19.0	2.5	/experiments/knapen_aot/videos/S_yt-4GDusA21cEA_170.mp4	0.0	124.8926260471344	
21	63.23267483711243	movie	1		301.0	19.0	2.5	/experiments/knapen_aot/videos/S_yt-4GDusA21cEA_170.mp4	0.0	124.90835690498352	2.5083730220794678
21	65.7410478591919	fix_post	2		12.0	19.0	2.5	/experiments/knapen_aot/videos/S_yt-4GDusA21cEA_170.mp4	0.0	127.41672992706299	0.09996914863586426
22	65.84101700782776	fix_pre	0		73.0	20.0	2.5	blank	1.0	127.51669907569885	0.6082758903503418
22	66.44126296043396	response	0	2		20.0	2.5	blank	1.0	128.11694502830505	
22	66.4492928981781	movie	1		301.0	20.0	2.5	blank	1.0	128.1249749660492	2.5083940029144287
22	68.95768690109253	fix_post	2		12.0	20.0	2.5	blank	1.0	130.63336896896362	0.10004496574401855
23	69.05773186683655	fix_pre	0		62.0	21.0	2.5	/experiments/knapen_aot/videos/S_yt-QqSceHxY3d0_356.mp4	0.0	130.73341393470764	0.5166151523590088
23	69.55871295928955	response	0	2		21.0	2.5	/experiments/knapen_aot/videos/S_yt-QqSceHxY3d0_356.mp4	0.0	131.23439502716064	
23	69.57434701919556	movie	1		301.0	21.0	2.5	/experiments/knapen_aot/videos/S_yt-QqSceHxY3d0_356.mp4	0.0	131.25002908706665	2.5083320140838623
23	72.08267903327942	fix_post	2		12.0	21.0	2.5	/experiments/knapen_aot/videos/S_yt-QqSceHxY3d0_356.mp4	0.0	133.7583611011505	0.10001492500305176
24	72.18269395828247	fix_pre	0		78.0	22.0	2.5	/experiments/knapen_aot/videos/S_yt-3R23XwTXpKs_238.mp4	0.0	133.85837602615356	0.6499350070953369
24	72.82450699806213	response	0	2		22.0	2.5	/experiments/knapen_aot/videos/S_yt-3R23XwTXpKs_238.mp4	0.0	134.50018906593323	
24	72.83262896537781	movie	1		301.0	22.0	2.5	/experiments/knapen_aot/videos/S_yt-3R23XwTXpKs_238.mp4	0.0	134.5083110332489	2.508409023284912
24	75.34103798866272	fix_post	2		12.0	22.0	2.5	/experiments/knapen_aot/videos/S_yt-3R23XwTXpKs_238.mp4	0.0	137.0167200565338	0.0998680591583252
25	75.44090604782104	fix_pre	0		69.0	23.0	2.5	/experiments/knapen_aot/videos/R_S_wc-7ugQ0V4lxYkJ_131.mp4	0.0	137.11658811569214	0.5750648975372314
25	76.00773787498474	response	0	2		23.0	2.5	/experiments/knapen_aot/videos/R_S_wc-7ugQ0V4lxYkJ_131.mp4	0.0	137.68341994285583	
25	76.01597094535828	movie	1		301.0	23.0	2.5	/experiments/knapen_aot/videos/R_S_wc-7ugQ0V4lxYkJ_131.mp4	0.0	137.69165301322937	2.5083839893341064
25	78.52435493469238	fix_post	2		12.0	23.0	2.5	/experiments/knapen_aot/videos/R_S_wc-7ugQ0V4lxYkJ_131.mp4	0.0	140.20003700256348	0.09993910789489746
26	78.62429404258728	fix_pre	0		82.0	24.0	2.5	/experiments/knapen_aot/videos/S_-IkGMlLHrOI_108.mp4	0.0	140.29997611045837	0.6833009719848633
26	79.29948592185974	response	0	2		24.0	2.5	/experiments/knapen_aot/videos/S_-IkGMlLHrOI_108.mp4	0.0	140.97516798973083	
26	79.30759501457214	movie	1		301.0	24.0	2.5	/experiments/knapen_aot/videos/S_-IkGMlLHrOI_108.mp4	0.0	140.98327708244324	2.5083799362182617
26	81.8159749507904	fix_post	2		12.0	24.0	2.5	/experiments/knapen_aot/videos/S_-IkGMlLHrOI_108.mp4	0.0	143.4916570186615	0.10001492500305176
27	81.91598987579346	fix_pre	0		59.0	25.0	2.5	/experiments/knapen_aot/videos/S_yt-fA0nOetbOJY_580.mp4	0.0	143.59167194366455	0.4915909767150879
27	82.39940905570984	response	0	2		25.0	2.5	/experiments/knapen_aot/videos/S_yt-fA0nOetbOJY_580.mp4	0.0	144.07509112358093	
27	82.40758085250854	movie	1		301.0	25.0	2.5	/experiments/knapen_aot/videos/S_yt-fA0nOetbOJY_580.mp4	0.0	144.08326292037964	2.5083391666412354
27	84.91592001914978	fix_post	2		12.0	25.0	2.5	/experiments/knapen_aot/videos/S_yt-fA0nOetbOJY_580.mp4	0.0	146.59160208702087	0.10016584396362305
28	85.0160858631134	fix_pre	0		76.0	26.0	2.5	blank	1.0	146.6917679309845	0.6331861019134521
28	85.64107704162598	response	0	2		26.0	2.5	blank	1.0	147.31675910949707	
28	85.64927196502686	movie	1		301.0	26.0	2.5	blank	1.0	147.32495403289795	2.5083110332489014
28	88.15758299827576	fix_post	2		12.0	26.0	2.5	blank	1.0	149.83326506614685	0.10003185272216797
29	88.25761485099792	fix_pre	0		85.0	27.0	2.5	/experiments/knapen_aot/videos/S_yt-BQixB0mumIk_169.mp4	0.0	149.93329691886902	0.7097141742706299
29	88.95777988433838	response	0	2		27.0	2.5	/experiments/knapen_aot/videos/S_yt-BQixB0mumIk_169.mp4	0.0	150.63346195220947	
29	88.96732902526855	movie	1		301.0	27.0	2.5	/experiments/knapen_aot/videos/S_yt-BQixB0mumIk_169.mp4	0.0	150.64301109313965	2.506922960281372
29	91.47425198554993	fix_post	2		12.0	27.0	2.5	/experiments/knapen_aot/videos/S_yt-BQixB0mumIk_169.mp4	0.0	153.14993405342102	0.10001587867736816
30	91.5742678642273	fix_pre	0		64.0	28.0	2.5	/experiments/knapen_aot/videos/S_pexels-koolshooters-7327405.mp4	0.0	153.2499499320984	0.53326416015625
30	92.0993800163269	response	0	2		28.0	2.5	/experiments/knapen_aot/videos/S_pexels-koolshooters-7327405.mp4	0.0	153.775062084198	
30	92.10753202438354	movie	1		163.0	28.0	2.5	/experiments/knapen_aot/videos/S_pexels-koolshooters-7327405.mp4	0.0	153.78321409225464	2.508405923843384
30	94.61593794822693	fix_post	2		12.0	28.0	2.5	/experiments/knapen_aot/videos/S_pexels-koolshooters-7327405.mp4	0.0	156.29162001609802	0.1000220775604248
31	94.71596002578735	fix_pre	0		67.0	29.0	2.5	/experiments/knapen_aot/videos/S_yt-kawmL3oVw8c_2.mp4	0.0	156.39164209365845	0.5582799911499023
31	95.26604104042053	response	0	2		29.0	2.5	/experiments/knapen_aot/videos/S_yt-kawmL3oVw8c_2.mp4	0.0	156.94172310829163	
31	95.27424001693726	movie	1		301.0	29.0	2.5	/experiments/knapen_aot/videos/S_yt-kawmL3oVw8c_2.mp4	0.0	156.94992208480835	2.5083630084991455
31	97.7826030254364	fix_post	2		12.0	29.0	2.5	/experiments/knapen_aot/videos/S_yt-kawmL3oVw8c_2.mp4	0.0	159.4582850933075	0.10004281997680664
32	97.88264584541321	fix_pre	0		81.0	30.0	2.5	/experiments/knapen_aot/videos/R_S_yt-fnE8kgUHUMI_64.mp4	0.0	159.5583279132843	0.6749460697174072
32	98.541827917099	response	0	2		30.0	2.5	/experiments/knapen_aot/videos/R_S_yt-fnE8kgUHUMI_64.mp4	0.0	160.2175099849701	
32	98.55759191513062	movie	1		301.0	30.0	2.5	/experiments/knapen_aot/videos/R_S_yt-fnE8kgUHUMI_64.mp4	0.0	160.2332739830017	2.508342981338501
32	101.06593489646912	fix_post	2		12.0	30.0	2.5	/experiments/knapen_aot/videos/R_S_yt-fnE8kgUHUMI_64.mp4	0.0	162.7416169643402	0.09997916221618652
33	101.1659140586853	fix_pre	0		66.0	31.0	2.5	/experiments/knapen_aot/videos/S_ILSVRC2015_train_00682009.mp4	0.0	162.8415961265564	0.5512678623199463
33	101.70776295661926	response	0	2		31.0	2.5	/experiments/knapen_aot/videos/S_ILSVRC2015_train_00682009.mp4	0.0	163.38344502449036	
33	101.71718192100525	movie	1		301.0	31.0	2.5	/experiments/knapen_aot/videos/S_ILSVRC2015_train_00682009.mp4	0.0	163.39286398887634	2.507012128829956
33	104.2241940498352	fix_post	2		12.0	31.0	2.5	/experiments/knapen_aot/videos/S_ILSVRC2015_train_00682009.mp4	0.0	165.8998761177063	0.10003089904785156
34	104.32422494888306	fix_pre	0		81.0	32.0	2.5	/experiments/knapen_aot/videos/S_wc-16LozRfhUGea_49.mp4	0.0	165.99990701675415	0.6749839782714844
34	104.9909930229187	response	0	2		32.0	2.5	/experiments/knapen_aot/videos/S_wc-16LozRfhUGea_49.mp4	0.0	166.6666750907898	
34	104.99920892715454	movie	1		301.0	32.0	2.5	/experiments/knapen_aot/videos/S_wc-16LozRfhUGea_49.mp4	0.0	166.67489099502563	2.508350133895874
34	107.50755906105042	fix_post	2		12.0	32.0	2.5	/experiments/knapen_aot/videos/S_wc-16LozRfhUGea_49.mp4	0.0	169.1832411289215	0.10001182556152344
35	107.60757088661194	fix_pre	0		75.0	33.0	2.5	blank	1.0	169.28325295448303	0.625054121017456
35	108.22438788414001	response	0	2		33.0	2.5	blank	1.0	169.9000699520111	
35	108.2326250076294	movie	1		301.0	33.0	2.5	blank	1.0	169.9083070755005	2.5082929134368896
35	110.74091792106628	fix_post	2		12.0	33.0	2.5	blank	1.0	172.41659998893738	0.09993410110473633
36	110.84085202217102	fix_pre	0		69.0	34.0	2.5	/experiments/knapen_aot/videos/R_S_yt-JTBXPfbkjsA_11.mp4	0.0	172.51653409004211	0.5749678611755371
36	111.40767097473145	response	0	2		34.0	2.5	/experiments/knapen_aot/videos/R_S_yt-JTBXPfbkjsA_11.mp4	0.0	173.08335304260254	
36	111.41581988334656	movie	1		301.0	34.0	2.5	/experiments/knapen_aot/videos/R_S_yt-JTBXPfbkjsA_11.mp4	0.0	173.09150195121765	2.5083999633789062
36	113.92421984672546	fix_post	2		12.0	34.0	2.5	/experiments/knapen_aot/videos/R_S_yt-JTBXPfbkjsA_11.mp4	0.0	175.59990191459656	0.09992218017578125
37	114.02414202690125	fix_pre	0		60.0	35.0	2.5	/experiments/knapen_aot/videos/R_S_ILSVRC2015_train_00584001.mp4	0.0	175.69982409477234	0.5000138282775879
37	114.51598191261292	response	0	2		35.0	2.5	/experiments/knapen_aot/videos/R_S_ILSVRC2015_train_00584001.mp4	0.0	176.191663980484	
37	114.52415585517883	movie	1		301.0	35.0	2.5	/experiments/knapen_aot/videos/R_S_ILSVRC2015_train_00584001.mp4	0.0	176.19983792304993	2.5083460807800293
37	117.03250193595886	fix_post	2		12.0	35.0	2.5	/experiments/knapen_aot/videos/R_S_ILSVRC2015_train_00584001.mp4	0.0	178.70818400382996	0.10002803802490234
38	117.13252997398376	fix_pre	0		59.0	36.0	2.5	/experiments/knapen_aot/videos/R_S_pexels-mikhail-nilov-8410063.mp4	0.0	178.80821204185486	0.4915950298309326
38	117.60840582847595	response	0	2		36.0	2.5	/experiments/knapen_aot/videos/R_S_pexels-mikhail-nilov-8410063.mp4	0.0	179.28408789634705	
38	117.6241250038147	movie	1		166.0	36.0	2.5	/experiments/knapen_aot/videos/R_S_pexels-mikhail-nilov-8410063.mp4	0.0	179.2998070716858	2.508417844772339
38	120.13254284858704	fix_post	2		12.0	36.0	2.5	/experiments/knapen_aot/videos/R_S_pexels-mikhail-nilov-8410063.mp4	0.0	181.80822491645813	0.09999918937683105
39	120.23254203796387	fix_pre	0		59.0	37.0	2.5	/experiments/knapen_aot/videos/R_S_yt-fnE8kgUHUMI_64.mp4	0.0	181.90822410583496	0.49157190322875977
39	120.71587085723877	response	0	2		37.0	2.5	/experiments/knapen_aot/videos/R_S_yt-fnE8kgUHUMI_64.mp4	0.0	182.39155292510986	
39	120.72411394119263	movie	1		301.0	37.0	2.5	/experiments/knapen_aot/videos/R_S_yt-fnE8kgUHUMI_64.mp4	0.0	182.39979600906372	2.5083580017089844
39	123.23247194290161	fix_post	2		12.0	37.0	2.5	/experiments/knapen_aot/videos/R_S_yt-fnE8kgUHUMI_64.mp4	0.0	184.9081540107727	0.10003209114074707
40	123.33250403404236	fix_pre	0		62.0	38.0	2.5	/experiments/knapen_aot/videos/R_S_ILSVRC2015_train_00568000.mp4	0.0	185.00818610191345	0.5166079998016357
40	123.84088683128357	response	0	2		38.0	2.5	/experiments/knapen_aot/videos/R_S_ILSVRC2015_train_00568000.mp4	0.0	185.51656889915466	
40	123.849112033844	movie	1		301.0	38.0	2.5	/experiments/knapen_aot/videos/R_S_ILSVRC2015_train_00568000.mp4	0.0	185.5247941017151	2.50834584236145
40	126.35745787620544	fix_post	2		12.0	38.0	2.5	/experiments/knapen_aot/videos/R_S_ILSVRC2015_train_00568000.mp4	0.0	188.03313994407654	0.10001897811889648
41	126.45747685432434	fix_pre	0		58.0	39.0	2.5	/experiments/knapen_aot/videos/R_S_comp_A009_C001_010181A_v09_SDR_PS_FINAL_20180725_SDR_2K_AVC.mp4	0.0	188.13315892219543	0.4832911491394043
41	126.93252086639404	response	0	2		39.0	2.5	/experiments/knapen_aot/videos/R_S_comp_A009_C001_010181A_v09_SDR_PS_FINAL_20180725_SDR_2K_AVC.mp4	0.0	188.60820293426514	
41	126.94076800346375	movie	1		163.0	39.0	2.5	/experiments/knapen_aot/videos/R_S_comp_A009_C001_010181A_v09_SDR_PS_FINAL_20180725_SDR_2K_AVC.mp4	0.0	188.61645007133484	2.5082709789276123
41	129.44903898239136	fix_post	2		12.0	39.0	2.5	/experiments/knapen_aot/videos/R_S_comp_A009_C001_010181A_v09_SDR_PS_FINAL_20180725_SDR_2K_AVC.mp4	0.0	191.12472105026245	0.10002803802490234
42	129.54906702041626	fix_pre	0		48.0	40.0	2.5	/experiments/knapen_aot/videos/R_S_pexels-koolshooters-7327405.mp4	0.0	191.22474908828735	0.3999769687652588
42	129.94084000587463	response	0	2		40.0	2.5	/experiments/knapen_aot/videos/R_S_pexels-koolshooters-7327405.mp4	0.0	191.61652207374573	
42	129.94904398918152	movie	1		169.0	40.0	2.5	/experiments/knapen_aot/videos/R_S_pexels-koolshooters-7327405.mp4	0.0	191.6247260570526	2.508384943008423
42	132.45742893218994	fix_post	2		12.0	40.0	2.5	/experiments/knapen_aot/videos/R_S_pexels-koolshooters-7327405.mp4	0.0	194.13311100006104	0.10004210472106934
43	132.557471036911	fix_pre	0		56.0	41.0	2.5	blank	1.0	194.2331531047821	0.4666309356689453
43	133.01587796211243	response	0	2		41.0	2.5	blank	1.0	194.69156002998352	
43	133.02410197257996	movie	1		301.0	41.0	2.5	blank	1.0	194.69978404045105	2.5082759857177734
43	135.53237795829773	fix_post	2		12.0	41.0	2.5	blank	1.0	197.20806002616882	0.10005593299865723
44	135.6324338912964	fix_pre	0		54.0	42.0	2.5	/experiments/knapen_aot/videos/S_yt-icd9UxxxeW0_255.mp4	0.0	197.30811595916748	0.44994306564331055
44	136.07421803474426	response	0	2		42.0	2.5	/experiments/knapen_aot/videos/S_yt-icd9UxxxeW0_255.mp4	0.0	197.74990010261536	
44	136.0823769569397	movie	1		301.0	42.0	2.5	/experiments/knapen_aot/videos/S_yt-icd9UxxxeW0_255.mp4	0.0	197.7580590248108	2.5083069801330566
44	138.59068393707275	fix_post	2		12.0	42.0	2.5	/experiments/knapen_aot/videos/S_yt-icd9UxxxeW0_255.mp4	0.0	200.26636600494385	0.10005307197570801
45	138.69073700904846	fix_pre	0		50.0	43.0	2.5	/experiments/knapen_aot/videos/R_S_pexels-roman-odintsov-8231493.mp4	0.0	200.36641907691956	0.41664791107177734
45	139.09920597076416	response	0	2		43.0	2.5	/experiments/knapen_aot/videos/R_S_pexels-roman-odintsov-8231493.mp4	0.0	200.77488803863525	
45	139.10738492012024	movie	1		208.0	43.0	2.5	/experiments/knapen_aot/videos/R_S_pexels-roman-odintsov-8231493.mp4	0.0	200.78306698799133	2.5083019733428955
45	141.61568689346313	fix_post	2		12.0	43.0	2.5	/experiments/knapen_aot/videos/R_S_pexels-roman-odintsov-8231493.mp4	0.0	203.29136896133423	0.1000370979309082
46	141.71572399139404	fix_pre	0		46.0	44.0	2.5	/experiments/knapen_aot/videos/R_S_yt-4i1b6NQ9NKs_5.mp4	0.0	203.39140605926514	0.38327884674072266
46	142.09086990356445	response	0	2		44.0	2.5	/experiments/knapen_aot/videos/R_S_yt-4i1b6NQ9NKs_5.mp4	0.0	203.76655197143555	
46	142.09900283813477	movie	1		301.0	44.0	2.5	/experiments/knapen_aot/videos/R_S_yt-4i1b6NQ9NKs_5.mp4	0.0	203.77468490600586	2.5083301067352295
46	144.60733294487	fix_post	2		12.0	44.0	2.5	/experiments/knapen_aot/videos/R_S_yt-4i1b6NQ9NKs_5.mp4	0.0	206.2830150127411	0.10005998611450195
47	144.7073929309845	fix_pre	0		63.0	45.0	2.5	/experiments/knapen_aot/videos/R_S_yt-lEPoNlKWibA_1.mp4	0.0	206.3830749988556	0.524954080581665
47	145.22419691085815	response	0	2		45.0	2.5	/experiments/knapen_aot/videos/R_S_yt-lEPoNlKWibA_1.mp4	0.0	206.89987897872925	
47	145.23234701156616	movie	1		301.0	45.0	2.5	/experiments/knapen_aot/videos/R_S_yt-lEPoNlKWibA_1.mp4	0.0	206.90802907943726	2.5083489418029785
47	147.74069595336914	fix_post	2		12.0	45.0	2.5	/experiments/knapen_aot/videos/R_S_yt-lEPoNlKWibA_1.mp4	0.0	209.41637802124023	0.1001899242401123
48	147.84088587760925	fix_pre	0		51.0	46.0	2.5	/experiments/knapen_aot/videos/S_ILSVRC2015_test_00012005.mp4	0.0	209.51656794548035	0.4247591495513916
48	148.25744605064392	response	0	2		46.0	2.5	/experiments/knapen_aot/videos/S_ILSVRC2015_test_00012005.mp4	0.0	209.93312811851501	
48	148.26564502716064	movie	1		301.0	46.0	2.5	/experiments/knapen_aot/videos/S_ILSVRC2015_test_00012005.mp4	0.0	209.94132709503174	2.5083889961242676
48	150.7740340232849	fix_post	2		12.0	46.0	2.5	/experiments/knapen_aot/videos/S_ILSVRC2015_test_00012005.mp4	0.0	212.449716091156	0.09998393058776855
49	150.87401795387268	fix_pre	0		48.0	47.0	2.5	/experiments/knapen_aot/videos/S_ILSVRC2015_train_00001011.mp4	0.0	212.54970002174377	0.3999910354614258
49	151.26580905914307	response	0	2		47.0	2.5	/experiments/knapen_aot/videos/S_ILSVRC2015_train_00001011.mp4	0.0	212.94149112701416	
49	151.2740089893341	movie	1		301.0	47.0	2.5	/experiments/knapen_aot/videos/S_ILSVRC2015_train_00001011.mp4	0.0	212.9496910572052	2.5083110332489014
49	153.782320022583	fix_post	2		12.0	47.0	2.5	/experiments/knapen_aot/videos/S_ILSVRC2015_train_00001011.mp4	0.0	215.4580020904541	0.10021090507507324
50	153.88253092765808	fix_pre	0		52.0	48.0	2.5	/experiments/knapen_aot/videos/R_S_video_inspire_uk_edinburgh_arthursseat_010.1080-h264.mp4	0.0	215.55821299552917	0.43308210372924805
50	154.29983496665955	response	0	2		48.0	2.5	/experiments/knapen_aot/videos/R_S_video_inspire_uk_edinburgh_arthursseat_010.1080-h264.mp4	0.0	215.97551703453064	
50	154.31561303138733	movie	1		170.0	48.0	2.5	/experiments/knapen_aot/videos/R_S_video_inspire_uk_edinburgh_arthursseat_010.1080-h264.mp4	0.0	215.99129509925842	2.5083649158477783
50	156.8239779472351	fix_post	2		12.0	48.0	2.5	/experiments/knapen_aot/videos/R_S_video_inspire_uk_edinburgh_arthursseat_010.1080-h264.mp4	0.0	218.4996600151062	0.10000109672546387
51	156.92397904396057	fix_pre	0		59.0	49.0	2.5	blank	1.0	218.59966111183167	0.49157285690307617
51	157.39979696273804	response	0	2		49.0	2.5	blank	1.0	219.07547903060913	
51	157.41555190086365	movie	1		301.0	49.0	2.5	blank	1.0	219.09123396873474	2.5083510875701904
51	159.92390298843384	fix_post	2		12.0	49.0	2.5	blank	1.0	221.59958505630493	0.10015296936035156
52	160.0240559577942	fix_pre	0		62.0	50.0	2.5	/experiments/knapen_aot/videos/S_video_inspire_california_big-sur_bixby_005.1080-h264.mp4	0.0	221.69973802566528	0.5164549350738525
52	160.5323748588562	response	0	2		50.0	2.5	/experiments/knapen_aot/videos/S_video_inspire_california_big-sur_bixby_005.1080-h264.mp4	0.0	222.2080569267273	
52	160.54051089286804	movie	1		167.0	50.0	2.5	/experiments/knapen_aot/videos/S_video_inspire_california_big-sur_bixby_005.1080-h264.mp4	0.0	222.21619296073914	2.5084099769592285
52	163.04892086982727	fix_post	2		12.0	50.0	2.5	/experiments/knapen_aot/videos/S_video_inspire_california_big-sur_bixby_005.1080-h264.mp4	0.0	224.72460293769836	0.09995913505554199
53	163.1488800048828	fix_pre	0		59.0	51.0	2.5	/experiments/knapen_aot/videos/R_S_wc-8bTJmWfuVyJ4_8.mp4	0.0	224.8245620727539	0.49162983894348145
53	163.63236594200134	response	0	2		51.0	2.5	/experiments/knapen_aot/videos/R_S_wc-8bTJmWfuVyJ4_8.mp4	0.0	225.30804800987244	
53	163.6405098438263	movie	1		163.0	51.0	2.5	/experiments/knapen_aot/videos/R_S_wc-8bTJmWfuVyJ4_8.mp4	0.0	225.3161919116974	2.5084691047668457
53	166.14897894859314	fix_post	2		12.0	51.0	2.5	/experiments/knapen_aot/videos/R_S_wc-8bTJmWfuVyJ4_8.mp4	0.0	227.82466101646423	0.10001993179321289
54	166.24899888038635	fix_pre	0		70.0	52.0	2.5	/experiments/knapen_aot/videos/S_g201_TH_804_A001_8_SDR_20191031_SDR_2K_AVC.mp4	0.0	227.92468094825745	0.583125114440918
54	166.82408499717712	response	0	2		52.0	2.5	/experiments/knapen_aot/videos/S_g201_TH_804_A001_8_SDR_20191031_SDR_2K_AVC.mp4	0.0	228.49976706504822	
54	166.83212399482727	movie	1		166.0	52.0	2.5	/experiments/knapen_aot/videos/S_g201_TH_804_A001_8_SDR_20191031_SDR_2K_AVC.mp4	0.0	228.50780606269836	2.5085580348968506
54	169.34068202972412	fix_post	2		12.0	52.0	2.5	/experiments/knapen_aot/videos/S_g201_TH_804_A001_8_SDR_20191031_SDR_2K_AVC.mp4	0.0	231.01636409759521	0.10006499290466309
55	169.44074702262878	fix_pre	0		60.0	53.0	2.5	/experiments/knapen_aot/videos/R_S_pexels-polina-tankilevitch-8203088.mp4	0.0	231.11642909049988	0.49977803230285645
55	169.9323399066925	response	0	2		53.0	2.5	/experiments/knapen_aot/videos/R_S_pexels-polina-tankilevitch-8203088.mp4	0.0	231.6080219745636	
55	169.94052505493164	movie	1		165.0	53.0	2.5	/experiments/knapen_aot/videos/R_S_pexels-polina-tankilevitch-8203088.mp4	0.0	231.61620712280273	2.508366823196411
55	172.44889187812805	fix_post	2		12.0	53.0	2.5	/experiments/knapen_aot/videos/R_S_pexels-polina-tankilevitch-8203088.mp4	0.0	234.12457394599915	0.09992504119873047
56	172.54881691932678	fix_pre	0		67.0	54.0	2.5	/experiments/knapen_aot/videos/S_ILSVRC2015_train_00652001.mp4	0.0	234.22449898719788	0.5583961009979248
56	173.09895086288452	response	0	2		54.0	2.5	/experiments/knapen_aot/videos/S_ILSVRC2015_train_00652001.mp4	0.0	234.77463293075562	
56	173.1072130203247	movie	1		301.0	54.0	2.5	/experiments/knapen_aot/videos/S_ILSVRC2015_train_00652001.mp4	0.0	234.7828950881958	2.5083258152008057
56	175.6155388355255	fix_post	2		12.0	54.0	2.5	/experiments/knapen_aot/videos/S_ILSVRC2015_train_00652001.mp4	0.0	237.2912209033966	0.10001420974731445
57	175.71555304527283	fix_pre	0		86.0	55.0	2.5	blank	1.0	237.39123511314392	0.7165868282318115
57	176.42394304275513	response	0	2		55.0	2.5	blank	1.0	238.09962511062622	
57	176.43213987350464	movie	1		301.0	55.0	2.5	blank	1.0	238.10782194137573	2.5083491802215576
57	178.9404890537262	fix_post	2		12.0	55.0	2.5	blank	1.0	240.6161711215973	0.10011482238769531
58	179.0406038761139	fix_pre	0		73.0	56.0	2.5	/experiments/knapen_aot/videos/R_S_yt-VJ65ukWmdxQ_193.mp4	0.0	240.71628594398499	0.608314037322998
58	179.64074087142944	response	0	2		56.0	2.5	/experiments/knapen_aot/videos/R_S_yt-VJ65ukWmdxQ_193.mp4	0.0	241.31642293930054	
58	179.6489179134369	movie	1		301.0	56.0	2.5	/experiments/knapen_aot/videos/R_S_yt-VJ65ukWmdxQ_193.mp4	0.0	241.32459998130798	2.508255958557129
58	182.15717387199402	fix_post	2		12.0	56.0	2.5	/experiments/knapen_aot/videos/R_S_yt-VJ65ukWmdxQ_193.mp4	0.0	243.8328559398651	0.10000300407409668
59	182.25717687606812	fix_pre	0		59.0	57.0	2.5	/experiments/knapen_aot/videos/S_ILSVRC2015_train_00001009.mp4	0.0	243.9328589439392	0.49159812927246094
59	182.74059987068176	response	0	2		57.0	2.5	/experiments/knapen_aot/videos/S_ILSVRC2015_train_00001009.mp4	0.0	244.41628193855286	
59	182.74877500534058	movie	1		301.0	57.0	2.5	/experiments/knapen_aot/videos/S_ILSVRC2015_train_00001009.mp4	0.0	244.42445707321167	2.5084619522094727
59	185.25723695755005	fix_post	2		12.0	57.0	2.5	/experiments/knapen_aot/videos/S_ILSVRC2015_train_00001009.mp4	0.0	246.93291902542114	0.09982609748840332
60	185.35706305503845	fix_pre	0		74.0	58.0	2.5	/experiments/knapen_aot/videos/S_yt-o0Hbe7kcPps_70.mp4	0.0	247.03274512290955	0.6167168617248535
60	185.96556186676025	response	0	2		58.0	2.5	/experiments/knapen_aot/videos/S_yt-o0Hbe7kcPps_70.mp4	0.0	247.64124393463135	
60	185.9737799167633	movie	1		301.0	58.0	2.5	/experiments/knapen_aot/videos/S_yt-o0Hbe7kcPps_70.mp4	0.0	247.6494619846344	2.508384943008423
60	188.48216485977173	fix_post	2		12.0	58.0	2.5	/experiments/knapen_aot/videos/S_yt-o0Hbe7kcPps_70.mp4	0.0	250.15784692764282	0.0999290943145752
61	188.5820939540863	fix_pre	0		62.0	59.0	2.5	/experiments/knapen_aot/videos/S_yt-JTBXPfbkjsA_11.mp4	0.0	250.2577760219574	0.5166909694671631
61	189.09059286117554	response	0	2		59.0	2.5	/experiments/knapen_aot/videos/S_yt-JTBXPfbkjsA_11.mp4	0.0	250.76627492904663	
61	189.09878492355347	movie	1		301.0	59.0	2.5	/experiments/knapen_aot/videos/S_yt-JTBXPfbkjsA_11.mp4	0.0	250.77446699142456	2.5083510875701904
61	191.60713601112366	fix_post	2		12.0	59.0	2.5	/experiments/knapen_aot/videos/S_yt-JTBXPfbkjsA_11.mp4	0.0	253.28281807899475	0.10023093223571777
62	191.70736694335938	fix_pre	0		63.0	60.0	2.5	/experiments/knapen_aot/videos/S_yt-PYP0fEQ357c_89.mp4	0.0	253.38304901123047	0.5247468948364258
62	192.22392892837524	response	0	2		60.0	2.5	/experiments/knapen_aot/videos/S_yt-PYP0fEQ357c_89.mp4	0.0	253.89961099624634	
62	192.2321138381958	movie	1		301.0	60.0	2.5	/experiments/knapen_aot/videos/S_yt-PYP0fEQ357c_89.mp4	0.0	253.9077959060669	2.5083441734313965
62	194.7404580116272	fix_post	2		12.0	60.0	2.5	/experiments/knapen_aot/videos/S_yt-PYP0fEQ357c_89.mp4	0.0	256.4161400794983	0.09999489784240723
63	194.8404529094696	fix_pre	0		110.0	61.0	2.5	blank	1.0	256.5161349773407	0.9173810482025146
63	195.74891304969788	response	0	2		61.0	2.5	blank	1.0	257.42459511756897	
63	195.75783395767212	movie	1		301.0	61.0	2.5	blank	1.0	257.4335160255432	2.5076138973236084
63	198.26544785499573	fix_post	2		12.0	61.0	2.5	blank	1.0	259.9411299228668	0.09997916221618652
64	198.3654270172119	fix_pre	0		76.0	62.0	2.5	/experiments/knapen_aot/videos/S_yt-DWsFRl5bXs8_23.mp4	0.0	260.041109085083	0.633476972579956
64	198.99054789543152	response	0	2		62.0	2.5	/experiments/knapen_aot/videos/S_yt-DWsFRl5bXs8_23.mp4	0.0	260.6662299633026	
64	198.99890398979187	movie	1		301.0	62.0	2.5	/experiments/knapen_aot/videos/S_yt-DWsFRl5bXs8_23.mp4	0.0	260.67458605766296	2.5084898471832275
64	201.5073938369751	fix_post	2		12.0	62.0	2.5	/experiments/knapen_aot/videos/S_yt-DWsFRl5bXs8_23.mp4	0.0	263.1830759048462	0.0996861457824707
65	201.60707998275757	fix_pre	0		66.0	63.0	2.5	/experiments/knapen_aot/videos/S_yt-0xzYSBvVfYM_197.mp4	0.0	263.28276205062866	0.5499839782714844
65	202.14888095855713	response	0	2		63.0	2.5	/experiments/knapen_aot/videos/S_yt-0xzYSBvVfYM_197.mp4	0.0	263.8245630264282	
65	202.15706396102905	movie	1		301.0	63.0	2.5	/experiments/knapen_aot/videos/S_yt-0xzYSBvVfYM_197.mp4	0.0	263.83274602890015	2.5083160400390625
65	204.66538000106812	fix_post	2		12.0	63.0	2.5	/experiments/knapen_aot/videos/S_yt-0xzYSBvVfYM_197.mp4	0.0	266.3410620689392	0.10004901885986328
66	204.76542901992798	fix_pre	0		83.0	64.0	2.5	/experiments/knapen_aot/videos/S_yt-gikcYT6ZLzA_7.mp4	0.0	266.4411110877991	0.6915988922119141
66	205.44884586334229	response	0	2		64.0	2.5	/experiments/knapen_aot/videos/S_yt-gikcYT6ZLzA_7.mp4	0.0	267.1245279312134	
66	205.4570279121399	movie	1		301.0	64.0	2.5	/experiments/knapen_aot/videos/S_yt-gikcYT6ZLzA_7.mp4	0.0	267.132709980011	2.5083730220794678
66	207.96540093421936	fix_post	2		12.0	64.0	2.5	/experiments/knapen_aot/videos/S_yt-gikcYT6ZLzA_7.mp4	0.0	269.64108300209045	0.09998512268066406
67	208.06538605690002	fix_pre	0		75.0	65.0	2.5	/experiments/knapen_aot/videos/R_S_pexels-polina-tankilevitch-8203088.mp4	0.0	269.7410681247711	0.6249949932098389
67	208.68217301368713	response	0	2		65.0	2.5	/experiments/knapen_aot/videos/R_S_pexels-polina-tankilevitch-8203088.mp4	0.0	270.3578550815582	
67	208.69038105010986	movie	1		164.0	65.0	2.5	/experiments/knapen_aot/videos/R_S_pexels-polina-tankilevitch-8203088.mp4	0.0	270.36606311798096	2.5083529949188232
67	211.1987340450287	fix_post	2		12.0	65.0	2.5	/experiments/knapen_aot/videos/R_S_pexels-polina-tankilevitch-8203088.mp4	0.0	272.8744161128998	0.09992480278015137
68	211.29865884780884	fix_pre	0		62.0	66.0	2.5	/experiments/knapen_aot/videos/R_S_yt-PRqnM7xDsus_24.mp4	0.0	272.97434091567993	0.5167081356048584
68	211.80715894699097	response	0	2		66.0	2.5	/experiments/knapen_aot/videos/R_S_yt-PRqnM7xDsus_24.mp4	0.0	273.48284101486206	
68	211.8153669834137	movie	1		301.0	66.0	2.5	/experiments/knapen_aot/videos/R_S_yt-PRqnM7xDsus_24.mp4	0.0	273.4910490512848	2.5082788467407227
68	214.32364583015442	fix_post	2		12.0	66.0	2.5	/experiments/knapen_aot/videos/R_S_yt-PRqnM7xDsus_24.mp4	0.0	275.9993278980255	0.10004019737243652
69	214.42368602752686	fix_pre	0		76.0	67.0	2.5	/experiments/knapen_aot/videos/R_S_Pexels_Videos_2786546.mp4	0.0	276.09936809539795	0.6332669258117676
69	215.0413429737091	response	0	2		67.0	2.5	/experiments/knapen_aot/videos/R_S_Pexels_Videos_2786546.mp4	0.0	276.7170250415802	
69	215.05695295333862	movie	1		164.0	67.0	2.5	/experiments/knapen_aot/videos/R_S_Pexels_Videos_2786546.mp4	0.0	276.7326350212097	2.5083789825439453
69	217.56533193588257	fix_post	2		12.0	67.0	2.5	/experiments/knapen_aot/videos/R_S_Pexels_Videos_2786546.mp4	0.0	279.24101400375366	0.1000220775604248
70	217.665354013443	fix_pre	0		54.0	68.0	2.5	blank	1.0	279.3410360813141	0.4501829147338867
70	218.10713005065918	response	0	2		68.0	2.5	blank	1.0	279.7828121185303	
70	218.11553692817688	movie	1		301.0	68.0	2.5	blank	1.0	279.791218996048	2.5081160068511963
70	220.62365293502808	fix_post	2		12.0	68.0	2.5	blank	1.0	282.29933500289917	0.10004091262817383
71	220.72369384765625	fix_pre	0		67.0	69.0	2.5	/experiments/knapen_aot/videos/R_S_yt--5ls65Ue1RA_52.mp4	0.0	282.39937591552734	0.5582849979400635
71	221.27377700805664	response	0	2		69.0	2.5	/experiments/knapen_aot/videos/R_S_yt--5ls65Ue1RA_52.mp4	0.0	282.94945907592773	
71	221.2819788455963	movie	1		301.0	69.0	2.5	/experiments/knapen_aot/videos/R_S_yt--5ls65Ue1RA_52.mp4	0.0	282.9576609134674	2.5083770751953125
71	223.79035592079163	fix_post	2		12.0	69.0	2.5	/experiments/knapen_aot/videos/R_S_yt--5ls65Ue1RA_52.mp4	0.0	285.4660379886627	0.0999600887298584
72	223.89031600952148	fix_pre	0		47.0	70.0	2.5	/experiments/knapen_aot/videos/S_pexels-mikhail-nilov-8410063.mp4	0.0	285.5659980773926	0.39165282249450684
72	224.2737090587616	response	0	2		70.0	2.5	/experiments/knapen_aot/videos/S_pexels-mikhail-nilov-8410063.mp4	0.0	285.9493911266327	
72	224.281968832016	movie	1		166.0	70.0	2.5	/experiments/knapen_aot/videos/S_pexels-mikhail-nilov-8410063.mp4	0.0	285.9576508998871	2.5083470344543457
72	226.79031586647034	fix_post	2		12.0	70.0	2.5	/experiments/knapen_aot/videos/S_pexels-mikhail-nilov-8410063.mp4	0.0	288.46599793434143	0.10003304481506348
73	226.8903489112854	fix_pre	0		78.0	71.0	2.5	/experiments/knapen_aot/videos/S_pexels-ron-lach-8071987.mp4	0.0	288.5660309791565	0.6498990058898926
73	227.53215789794922	response	0	2		71.0	2.5	/experiments/knapen_aot/videos/S_pexels-ron-lach-8071987.mp4	0.0	289.2078399658203	
73	227.5402479171753	movie	1		199.0	71.0	2.5	/experiments/knapen_aot/videos/S_pexels-ron-lach-8071987.mp4	0.0	289.2159299850464	2.508481979370117
73	230.0487298965454	fix_post	2		12.0	71.0	2.5	/experiments/knapen_aot/videos/S_pexels-ron-lach-8071987.mp4	0.0	291.7244119644165	0.09995508193969727
74	230.1486849784851	fix_pre	0		65.0	72.0	2.5	/experiments/knapen_aot/videos/S_yt-rIQoRErqnlI_17.mp4	0.0	291.8243670463562	0.5415899753570557
74	230.68211603164673	response	0	2		72.0	2.5	/experiments/knapen_aot/videos/S_yt-rIQoRErqnlI_17.mp4	0.0	292.3577980995178	
74	230.69027495384216	movie	1		301.0	72.0	2.5	/experiments/knapen_aot/videos/S_yt-rIQoRErqnlI_17.mp4	0.0	292.36595702171326	2.508333921432495
74	233.19860887527466	fix_post	2		12.0	72.0	2.5	/experiments/knapen_aot/videos/S_yt-rIQoRErqnlI_17.mp4	0.0	294.87429094314575	0.10005497932434082
75	233.298663854599	fix_pre	0		79.0	73.0	2.5	/experiments/knapen_aot/videos/R_S_yt-BiBS8EO5GPc_4.mp4	0.0	294.9743459224701	0.6582181453704834
75	233.94886088371277	response	0	2		73.0	2.5	/experiments/knapen_aot/videos/R_S_yt-BiBS8EO5GPc_4.mp4	0.0	295.62454295158386	
75	233.95688199996948	movie	1		301.0	73.0	2.5	/experiments/knapen_aot/videos/R_S_yt-BiBS8EO5GPc_4.mp4	0.0	295.6325640678406	2.5083718299865723
75	236.46525382995605	fix_post	2		12.0	73.0	2.5	/experiments/knapen_aot/videos/R_S_yt-BiBS8EO5GPc_4.mp4	0.0	298.14093589782715	0.10001707077026367
76	236.56527090072632	fix_pre	0		55.0	74.0	2.5	/experiments/knapen_aot/videos/S_yt-y2RUPYKfBZs_12.mp4	0.0	298.2409529685974	0.4583151340484619
76	237.01530504226685	response	0	2		74.0	2.5	/experiments/knapen_aot/videos/S_yt-y2RUPYKfBZs_12.mp4	0.0	298.69098711013794	
76	237.02358603477478	movie	1		301.0	74.0	2.5	/experiments/knapen_aot/videos/S_yt-y2RUPYKfBZs_12.mp4	0.0	298.6992681026459	2.5083370208740234
76	239.5319230556488	fix_post	2		12.0	74.0	2.5	/experiments/knapen_aot/videos/S_yt-y2RUPYKfBZs_12.mp4	0.0	301.2076051235199	0.10053300857543945
77	239.63245606422424	fix_pre	0		84.0	75.0	2.5	blank	1.0	301.30813813209534	0.6994419097900391
77	240.323814868927	response	0	2		75.0	2.5	blank	1.0	301.9994969367981	
77	240.33189797401428	movie	1		301.0	75.0	2.5	blank	1.0	302.0075800418854	2.5083749294281006
77	242.84027290344238	fix_post	2		12.0	75.0	2.5	blank	1.0	304.5159549713135	0.10006213188171387
78	242.9403350353241	fix_pre	0		89.0	76.0	2.5	/experiments/knapen_aot/videos/S_yt-M5qZo3CUXYE_27.mp4	0.0	304.6160171031952	0.7415168285369873
78	243.67365193367004	response	0	2		76.0	2.5	/experiments/knapen_aot/videos/S_yt-M5qZo3CUXYE_27.mp4	0.0	305.34933400154114	
78	243.68185186386108	movie	1		301.0	76.0	2.5	/experiments/knapen_aot/videos/S_yt-M5qZo3CUXYE_27.mp4	0.0	305.3575339317322	2.508388042449951
78	246.19023990631104	fix_post	2		12.0	76.0	2.5	/experiments/knapen_aot/videos/S_yt-M5qZo3CUXYE_27.mp4	0.0	307.86592197418213	0.09998893737792969
79	246.29022884368896	fix_pre	0		85.0	77.0	2.5	/experiments/knapen_aot/videos/R_S_ILSVRC2015_train_00423000.mp4	0.0	307.96591091156006	0.7082722187042236
79	246.99052691459656	response	0	2		77.0	2.5	/experiments/knapen_aot/videos/R_S_ILSVRC2015_train_00423000.mp4	0.0	308.66620898246765	
79	246.9985010623932	movie	1		301.0	77.0	2.5	/experiments/knapen_aot/videos/R_S_ILSVRC2015_train_00423000.mp4	0.0	308.6741831302643	2.508349895477295
79	249.50685095787048	fix_post	2		12.0	77.0	2.5	/experiments/knapen_aot/videos/R_S_ILSVRC2015_train_00423000.mp4	0.0	311.1825330257416	0.10001897811889648
80	249.60686993598938	fix_pre	0		92.0	78.0	2.5	/experiments/knapen_aot/videos/R_S_yt-t8NfuFA7OlM_26.mp4	0.0	311.2825520038605	0.7665920257568359
80	250.36535501480103	response	0	2		78.0	2.5	/experiments/knapen_aot/videos/R_S_yt-t8NfuFA7OlM_26.mp4	0.0	312.0410370826721	
80	250.37346196174622	movie	1		301.0	78.0	2.5	/experiments/knapen_aot/videos/R_S_yt-t8NfuFA7OlM_26.mp4	0.0	312.0491440296173	2.5084378719329834
80	252.8818998336792	fix_post	2		12.0	78.0	2.5	/experiments/knapen_aot/videos/R_S_yt-t8NfuFA7OlM_26.mp4	0.0	314.5575819015503	0.10001802444458008
81	252.98191785812378	fix_pre	0		82.0	79.0	2.5	/experiments/knapen_aot/videos/R_S_yt-BKkZUSowoxg_59.mp4	0.0	314.6575999259949	0.6831691265106201
81	253.65698885917664	response	0	2		79.0	2.5	/experiments/knapen_aot/videos/R_S_yt-BKkZUSowoxg_59.mp4	0.0	315.33267092704773	
81	253.6650869846344	movie	1		301.0	79.0	2.5	/experiments/knapen_aot/videos/R_S_yt-BKkZUSowoxg_59.mp4	0.0	315.3407690525055	2.508594036102295
81	256.1736810207367	fix_post	2		12.0	79.0	2.5	/experiments/knapen_aot/videos/R_S_yt-BKkZUSowoxg_59.mp4	0.0	317.8493630886078	0.09985995292663574
82	256.27354097366333	fix_pre	0		73.0	80.0	2.5	/experiments/knapen_aot/videos/R_S_-IkGMlLHrOI_108.mp4	0.0	317.9492230415344	0.6086499691009521
82	256.87364196777344	response	0	2		80.0	2.5	/experiments/knapen_aot/videos/R_S_-IkGMlLHrOI_108.mp4	0.0	318.54932403564453	
82	256.8821909427643	movie	1		301.0	80.0	2.5	/experiments/knapen_aot/videos/R_S_-IkGMlLHrOI_108.mp4	0.0	318.5578730106354	2.50799298286438
82	259.39018392562866	fix_post	2		12.0	80.0	2.5	/experiments/knapen_aot/videos/R_S_-IkGMlLHrOI_108.mp4	0.0	321.06586599349976	0.09998393058776855
83	259.49016785621643	fix_pre	0		57.0	81.0	2.5	/experiments/knapen_aot/videos/S_P005_C002_UHD_SDR_2K_AVC.mp4	0.0	321.1658499240875	0.4753260612487793
83	259.95697689056396	response	0	2		81.0	2.5	/experiments/knapen_aot/videos/S_P005_C002_UHD_SDR_2K_AVC.mp4	0.0	321.63265895843506	
83	259.9654939174652	movie	1		168.0	81.0	2.5	/experiments/knapen_aot/videos/S_P005_C002_UHD_SDR_2K_AVC.mp4	0.0	321.6411759853363	2.508000135421753
83	262.47349405288696	fix_post	2		12.0	81.0	2.5	/experiments/knapen_aot/videos/S_P005_C002_UHD_SDR_2K_AVC.mp4	0.0	324.14917612075806	0.10001897811889648
84	262.57351303100586	fix_pre	0		66.0	82.0	2.5	/experiments/knapen_aot/videos/R_S_yt-mJzkLd3Mr_c_35.mp4	0.0	324.24919509887695	0.5517878532409668
84	263.11657905578613	response	0	2		82.0	2.5	/experiments/knapen_aot/videos/R_S_yt-mJzkLd3Mr_c_35.mp4	0.0	324.7922611236572	
84	263.1253008842468	movie	1		301.0	82.0	2.5	/experiments/knapen_aot/videos/R_S_yt-mJzkLd3Mr_c_35.mp4	0.0	324.8009829521179	2.506519079208374
84	265.6318199634552	fix_post	2		12.0	82.0	2.5	/experiments/knapen_aot/videos/R_S_yt-mJzkLd3Mr_c_35.mp4	0.0	327.3075020313263	0.1001138687133789
85	265.7319338321686	fix_pre	0		153.0	83.0	2.5	blank	1.0	327.4076159000397	1.2751960754394531
85	266.9986050128937	response	0	2		83.0	2.5	blank	1.0	328.67428708076477	
85	267.00712990760803	movie	1		301.0	83.0	2.5	blank	1.0	328.6828119754791	2.5079269409179688
85	269.515056848526	fix_post	2		12.0	83.0	2.5	blank	1.0	331.1907389163971	0.10022115707397461
87	269.6152780056	stim	0		205.0					331.29096007347107	1.7112679481506348
87	271.3190519809723	response	0	space						332.9947340488434	
