trial_nr	onset	event_type	phase	response	nr_frames	movie_index	movie_duration	movie_file	blank	onset_abs	duration
0	0.13332581520080566	stim	0		45.0					384.61849093437195	0.37499022483825684
0	0.5000739097595215	response	0	space						384.98523902893066	
1	0.5083160400390625	stim	0		121.0					384.9934811592102	1.008086919784546
1	1.2167179584503174	response	0	space						385.70188307762146	
1	1.5164029598236084	stim	1		120.0					386.00156807899475	0.9999039173126221
1	1.7247238159179688	response	1	space						386.2098889350891	
1	2.3496859073638916	response	1	space						386.83485102653503	
2	2.5163068771362305	fix_pre	0		26.0	0.0	2.5	/experiments/knapen_aot/videos/S_video_inspire_uk_edinburgh_arthursseat_010.1080-h264.mp4	0.0	387.0014719963074	0.2166459560394287
2	2.7247579097747803	response	0	space		0.0	2.5	/experiments/knapen_aot/videos/S_video_inspire_uk_edinburgh_arthursseat_010.1080-h264.mp4	0.0	387.2099230289459	
2	2.732952833175659	movie	1		169.0	0.0	2.5	/experiments/knapen_aot/videos/S_video_inspire_uk_edinburgh_arthursseat_010.1080-h264.mp4	0.0	387.2181179523468	2.508603096008301
2	5.24155592918396	fix_post	2		12.0	0.0	2.5	/experiments/knapen_aot/videos/S_video_inspire_uk_edinburgh_arthursseat_010.1080-h264.mp4	0.0	389.7267210483551	0.09976410865783691
3	5.341320037841797	fix_pre	0		78.0	1.0	2.5	/experiments/knapen_aot/videos/R_S_ILSVRC2015_train_00696000.mp4	0.0	389.82648515701294	0.6505348682403564
3	5.986552000045776	response	0	2		1.0	2.5	/experiments/knapen_aot/videos/R_S_ILSVRC2015_train_00696000.mp4	0.0	390.4717171192169	
3	5.991854906082153	movie	1		300.0	1.0	2.5	/experiments/knapen_aot/videos/R_S_ILSVRC2015_train_00696000.mp4	0.0	390.4770200252533	2.507858991622925
3	8.499713897705078	fix_post	2		12.0	1.0	2.5	/experiments/knapen_aot/videos/R_S_ILSVRC2015_train_00696000.mp4	0.0	392.9848790168762	0.10009098052978516
4	8.599804878234863	fix_pre	0		62.0	2.0	2.5	/experiments/knapen_aot/videos/R_S_yt-ieA3XwoSko4_98.mp4	0.0	393.084969997406	0.5170159339904785
4	9.10809588432312	response	0	2		2.0	2.5	/experiments/knapen_aot/videos/R_S_yt-ieA3XwoSko4_98.mp4	0.0	393.59326100349426	
4	9.116820812225342	movie	1		301.0	2.0	2.5	/experiments/knapen_aot/videos/R_S_yt-ieA3XwoSko4_98.mp4	0.0	393.6019859313965	2.5078721046447754
4	11.624692916870117	fix_post	2		12.0	2.0	2.5	/experiments/knapen_aot/videos/R_S_yt-ieA3XwoSko4_98.mp4	0.0	396.10985803604126	0.09994697570800781
5	11.724639892578125	fix_pre	0		112.0	3.0	2.5	/experiments/knapen_aot/videos/S_pexels-kindel-media-7147375.mp4	0.0	396.20980501174927	0.9338200092315674
5	12.649742841720581	response	0	2		3.0	2.5	/experiments/knapen_aot/videos/S_pexels-kindel-media-7147375.mp4	0.0	397.1349079608917	
5	12.658459901809692	movie	1		165.0	3.0	2.5	/experiments/knapen_aot/videos/S_pexels-kindel-media-7147375.mp4	0.0	397.14362502098083	2.50777006149292
5	15.166229963302612	fix_post	2		12.0	3.0	2.5	/experiments/knapen_aot/videos/S_pexels-kindel-media-7147375.mp4	0.0	399.65139508247375	0.10011792182922363
6	15.266347885131836	fix_pre	0		82.0	4.0	2.5	/experiments/knapen_aot/videos/S_yt-BQixB0mumIk_169.mp4	0.0	399.751513004303	0.6837589740753174
6	15.941308975219727	response	0	2		4.0	2.5	/experiments/knapen_aot/videos/S_yt-BQixB0mumIk_169.mp4	0.0	400.42647409439087	
6	15.950106859207153	movie	1		301.0	4.0	2.5	/experiments/knapen_aot/videos/S_yt-BQixB0mumIk_169.mp4	0.0	400.4352719783783	2.507716178894043
6	18.457823038101196	fix_post	2		12.0	4.0	2.5	/experiments/knapen_aot/videos/S_yt-BQixB0mumIk_169.mp4	0.0	402.94298815727234	0.10006499290466309
7	18.55788803100586	fix_pre	0		67.0	5.0	2.5	/experiments/knapen_aot/videos/R_S_yt-deiWoIfK6vg_44.mp4	0.0	403.043053150177	0.5587589740753174
7	19.108062982559204	response	0	2		5.0	2.5	/experiments/knapen_aot/videos/R_S_yt-deiWoIfK6vg_44.mp4	0.0	403.59322810173035	
7	19.116647005081177	movie	1		301.0	5.0	2.5	/experiments/knapen_aot/videos/R_S_yt-deiWoIfK6vg_44.mp4	0.0	403.6018121242523	2.5078959465026855
7	21.624542951583862	fix_post	2		12.0	5.0	2.5	/experiments/knapen_aot/videos/R_S_yt-deiWoIfK6vg_44.mp4	0.0	406.109708070755	0.09998202323913574
8	21.724524974822998	fix_pre	0		56.0	6.0	2.5	/experiments/knapen_aot/videos/R_S_yt-VJ65ukWmdxQ_193.mp4	0.0	406.20969009399414	0.46660900115966797
8	22.175457000732422	response	0	2		6.0	2.5	/experiments/knapen_aot/videos/R_S_yt-VJ65ukWmdxQ_193.mp4	0.0	406.66062211990356	
8	22.191133975982666	movie	1		301.0	6.0	2.5	/experiments/knapen_aot/videos/R_S_yt-VJ65ukWmdxQ_193.mp4	0.0	406.6762990951538	2.508391857147217
8	24.699525833129883	fix_post	2		12.0	6.0	2.5	/experiments/knapen_aot/videos/R_S_yt-VJ65ukWmdxQ_193.mp4	0.0	409.184690952301	0.10003113746643066
9	24.799556970596313	fix_pre	0		75.0	7.0	2.5	blank	1.0	409.28472208976746	0.6249189376831055
9	25.416268825531006	response	0	2		7.0	2.5	blank	1.0	409.90143394470215	
9	25.42447590827942	movie	1		301.0	7.0	2.5	blank	1.0	409.90964102745056	2.5083749294281006
9	27.93285083770752	fix_post	2		12.0	7.0	2.5	blank	1.0	412.41801595687866	0.1006920337677002
10	28.03354287147522	fix_pre	0		66.0	8.0	2.5	/experiments/knapen_aot/videos/S_yt-CINajD_PVjQ_494.mp4	0.0	412.51870799064636	0.549220085144043
10	28.574563026428223	response	0	2		8.0	2.5	/experiments/knapen_aot/videos/S_yt-CINajD_PVjQ_494.mp4	0.0	413.05972814559937	
10	28.582762956619263	movie	1		301.0	8.0	2.5	/experiments/knapen_aot/videos/S_yt-CINajD_PVjQ_494.mp4	0.0	413.0679280757904	2.5084378719329834
10	31.091200828552246	fix_post	2		12.0	8.0	2.5	/experiments/knapen_aot/videos/S_yt-CINajD_PVjQ_494.mp4	0.0	415.5763659477234	0.10003018379211426
11	31.19123101234436	fix_pre	0		56.0	9.0	2.5	/experiments/knapen_aot/videos/S_video-10.mp4	0.0	415.6763961315155	0.46700000762939453
11	31.649554014205933	response	0	2		9.0	2.5	/experiments/knapen_aot/videos/S_video-10.mp4	0.0	416.1347191333771	
11	31.658231019973755	movie	1		163.0	9.0	2.5	/experiments/knapen_aot/videos/S_video-10.mp4	0.0	416.1433961391449	2.507941961288452
11	34.16617298126221	fix_post	2		12.0	9.0	2.5	/experiments/knapen_aot/videos/S_video-10.mp4	0.0	418.65133810043335	0.09997797012329102
12	34.2661509513855	fix_pre	0		66.0	10.0	2.5	/experiments/knapen_aot/videos/R_S_ILSVRC2015_train_00042003.mp4	0.0	418.75131607055664	0.5499939918518066
12	34.80789399147034	response	0	2		10.0	2.5	/experiments/knapen_aot/videos/R_S_ILSVRC2015_train_00042003.mp4	0.0	419.2930591106415	
12	34.816144943237305	movie	1		301.0	10.0	2.5	/experiments/knapen_aot/videos/R_S_ILSVRC2015_train_00042003.mp4	0.0	419.30131006240845	2.508323907852173
12	37.32446885108948	fix_post	2		12.0	10.0	2.5	/experiments/knapen_aot/videos/R_S_ILSVRC2015_train_00042003.mp4	0.0	421.8096339702606	0.09992504119873047
13	37.42439389228821	fix_pre	0		55.0	11.0	2.5	/experiments/knapen_aot/videos/R_S_yt-8vm83GUgYxI_1.mp4	0.0	421.90955901145935	0.4583139419555664
13	37.87456393241882	response	0	2		11.0	2.5	/experiments/knapen_aot/videos/R_S_yt-8vm83GUgYxI_1.mp4	0.0	422.35972905158997	
13	37.882707834243774	movie	1		301.0	11.0	2.5	/experiments/knapen_aot/videos/R_S_yt-8vm83GUgYxI_1.mp4	0.0	422.3678729534149	2.50844407081604
13	40.391151905059814	fix_post	2		12.0	11.0	2.5	/experiments/knapen_aot/videos/R_S_yt-8vm83GUgYxI_1.mp4	0.0	424.87631702423096	0.09998512268066406
14	40.49113702774048	fix_pre	0		39.0	12.0	2.5	/experiments/knapen_aot/videos/S_comp_GMT329_117NC_401C_1037_IRELAND_TO_ASIA_v48_SDR_PS_FINAL_20180725_F0F6300_SDR_2K_AVC.mp4	0.0	424.9763021469116	0.3249788284301758
14	40.807886838912964	response	0	2		12.0	2.5	/experiments/knapen_aot/videos/S_comp_GMT329_117NC_401C_1037_IRELAND_TO_ASIA_v48_SDR_PS_FINAL_20180725_F0F6300_SDR_2K_AVC.mp4	0.0	425.2930519580841	
14	40.816115856170654	movie	1		161.0	12.0	2.5	/experiments/knapen_aot/videos/S_comp_GMT329_117NC_401C_1037_IRELAND_TO_ASIA_v48_SDR_PS_FINAL_20180725_F0F6300_SDR_2K_AVC.mp4	0.0	425.3012809753418	2.5083210468292236
14	43.32443690299988	fix_post	2		12.0	12.0	2.5	/experiments/knapen_aot/videos/S_comp_GMT329_117NC_401C_1037_IRELAND_TO_ASIA_v48_SDR_PS_FINAL_20180725_F0F6300_SDR_2K_AVC.mp4	0.0	427.809602022171	0.10006213188171387
15	43.42449903488159	fix_pre	0		69.0	13.0	2.5	/experiments/knapen_aot/videos/R_S_yt-v8e_DlCsP4w_10.mp4	0.0	427.90966415405273	0.5749127864837646
15	43.99119997024536	response	0	2		13.0	2.5	/experiments/knapen_aot/videos/R_S_yt-v8e_DlCsP4w_10.mp4	0.0	428.4763650894165	
15	43.999411821365356	movie	1		301.0	13.0	2.5	/experiments/knapen_aot/videos/R_S_yt-v8e_DlCsP4w_10.mp4	0.0	428.4845769405365	2.508350133895874
15	46.50776195526123	fix_post	2		12.0	13.0	2.5	/experiments/knapen_aot/videos/R_S_yt-v8e_DlCsP4w_10.mp4	0.0	430.9929270744324	0.10001993179321289
16	46.60778188705444	fix_pre	0		66.0	14.0	2.5	blank	1.0	431.0929470062256	0.5503251552581787
16	47.149648904800415	response	0	2		14.0	2.5	blank	1.0	431.63481402397156	
16	47.15810704231262	movie	1		301.0	14.0	2.5	blank	1.0	431.64327216148376	2.507964849472046
16	49.66607189178467	fix_post	2		12.0	14.0	2.5	blank	1.0	434.1512370109558	0.1002349853515625
17	49.76630687713623	fix_pre	0		77.0	15.0	2.5	/experiments/knapen_aot/videos/R_S_yt-kXarkCFJLeg_46.mp4	0.0	434.2514719963074	0.6417479515075684
17	50.39948892593384	response	0	2		15.0	2.5	/experiments/knapen_aot/videos/R_S_yt-kXarkCFJLeg_46.mp4	0.0	434.884654045105	
17	50.4080548286438	movie	1		301.0	15.0	2.5	/experiments/knapen_aot/videos/R_S_yt-kXarkCFJLeg_46.mp4	0.0	434.89321994781494	2.508090019226074
17	52.91614484786987	fix_post	2		12.0	15.0	2.5	/experiments/knapen_aot/videos/R_S_yt-kXarkCFJLeg_46.mp4	0.0	437.401309967041	0.09994316101074219
18	53.016088008880615	fix_pre	0		65.0	16.0	2.5	/experiments/knapen_aot/videos/R_S_wc-AyT9mzwZsu0T_14.mp4	0.0	437.50125312805176	0.5416100025177002
18	53.54947590827942	response	0	2		16.0	2.5	/experiments/knapen_aot/videos/R_S_wc-AyT9mzwZsu0T_14.mp4	0.0	438.03464102745056	
18	53.557698011398315	movie	1		165.0	16.0	2.5	/experiments/knapen_aot/videos/R_S_wc-AyT9mzwZsu0T_14.mp4	0.0	438.04286313056946	2.508328914642334
18	56.06602692604065	fix_post	2		12.0	16.0	2.5	/experiments/knapen_aot/videos/R_S_wc-AyT9mzwZsu0T_14.mp4	0.0	440.5511920452118	0.10004091262817383
19	56.16606783866882	fix_pre	0		70.0	17.0	2.5	/experiments/knapen_aot/videos/S_ILSVRC2015_train_00569002.mp4	0.0	440.65123295783997	0.5845041275024414
19	56.741092920303345	response	0	2		17.0	2.5	/experiments/knapen_aot/videos/S_ILSVRC2015_train_00569002.mp4	0.0	441.2262580394745	
19	56.750571966171265	movie	1		301.0	17.0	2.5	/experiments/knapen_aot/videos/S_ILSVRC2015_train_00569002.mp4	0.0	441.2357370853424	2.5071449279785156
19	59.25771689414978	fix_post	2		12.0	17.0	2.5	/experiments/knapen_aot/videos/S_ILSVRC2015_train_00569002.mp4	0.0	443.7428820133209	0.09984803199768066
20	59.35756492614746	fix_pre	0		74.0	18.0	2.5	/experiments/knapen_aot/videos/S_production_ID_5182928.mp4	0.0	443.8427300453186	0.6168110370635986
20	59.966158866882324	response	0	2		18.0	2.5	/experiments/knapen_aot/videos/S_production_ID_5182928.mp4	0.0	444.45132398605347	
20	59.97437596321106	movie	1		177.0	18.0	2.5	/experiments/knapen_aot/videos/S_production_ID_5182928.mp4	0.0	444.4595410823822	2.5083439350128174
20	62.48271989822388	fix_post	2		12.0	18.0	2.5	/experiments/knapen_aot/videos/S_production_ID_5182928.mp4	0.0	446.967885017395	0.09991693496704102
21	62.58263683319092	fix_pre	0		87.0	19.0	2.5	blank	1.0	447.06780195236206	0.7249600887298584
21	63.299460887908936	response	0	2		19.0	2.5	blank	1.0	447.7846260070801	
21	63.307596921920776	movie	1		301.0	19.0	2.5	blank	1.0	447.7927620410919	2.508357048034668
21	65.81595396995544	fix_post	2		12.0	19.0	2.5	blank	1.0	450.3011190891266	0.10002303123474121
22	65.91597700119019	fix_pre	0		75.0	20.0	2.5	/experiments/knapen_aot/videos/R_S_ILSVRC2015_train_00743000.mp4	0.0	450.4011421203613	0.6248970031738281
22	66.53285503387451	response	0	2		20.0	2.5	/experiments/knapen_aot/videos/R_S_ILSVRC2015_train_00743000.mp4	0.0	451.01802015304565	
22	66.54087400436401	movie	1		301.0	20.0	2.5	/experiments/knapen_aot/videos/R_S_ILSVRC2015_train_00743000.mp4	0.0	451.02603912353516	2.508445978164673
22	69.04931998252869	fix_post	2		12.0	20.0	2.5	/experiments/knapen_aot/videos/R_S_ILSVRC2015_train_00743000.mp4	0.0	453.53448510169983	0.10008692741394043
23	69.14940690994263	fix_pre	0		76.0	21.0	2.5	/experiments/knapen_aot/videos/R_S_ILSVRC2015_train_00479003.mp4	0.0	453.63457202911377	0.6334419250488281
23	69.77443385124207	response	0	2		21.0	2.5	/experiments/knapen_aot/videos/R_S_ILSVRC2015_train_00479003.mp4	0.0	454.2595989704132	
23	69.78284883499146	movie	1		301.0	21.0	2.5	/experiments/knapen_aot/videos/R_S_ILSVRC2015_train_00479003.mp4	0.0	454.2680139541626	2.508136034011841
23	72.2909848690033	fix_post	2		12.0	21.0	2.5	/experiments/knapen_aot/videos/R_S_ILSVRC2015_train_00479003.mp4	0.0	456.77614998817444	0.09994196891784668
24	72.39092683792114	fix_pre	0		100.0	22.0	2.5	/experiments/knapen_aot/videos/S_ILSVRC2015_train_00517000.mp4	0.0	456.8760919570923	0.8332531452178955
24	73.21603584289551	response	0	2		22.0	2.5	/experiments/knapen_aot/videos/S_ILSVRC2015_train_00517000.mp4	0.0	457.70120096206665	
24	73.22417998313904	movie	1		301.0	22.0	2.5	/experiments/knapen_aot/videos/S_ILSVRC2015_train_00517000.mp4	0.0	457.7093451023102	2.5084869861602783
24	75.73266696929932	fix_post	2		12.0	22.0	2.5	/experiments/knapen_aot/videos/S_ILSVRC2015_train_00517000.mp4	0.0	460.21783208847046	0.10001492500305176
25	75.83268189430237	fix_pre	0		78.0	23.0	2.5	/experiments/knapen_aot/videos/S_yt-ja8Pmpik_ao_112.mp4	0.0	460.3178470134735	0.6498990058898926
25	76.47439002990723	response	0	2		23.0	2.5	/experiments/knapen_aot/videos/S_yt-ja8Pmpik_ao_112.mp4	0.0	460.95955514907837	
25	76.48258090019226	movie	1		299.0	23.0	2.5	/experiments/knapen_aot/videos/S_yt-ja8Pmpik_ao_112.mp4	0.0	460.9677460193634	2.508389949798584
25	78.99097084999084	fix_post	2		12.0	23.0	2.5	/experiments/knapen_aot/videos/S_yt-ja8Pmpik_ao_112.mp4	0.0	463.476135969162	0.09996819496154785
26	79.09093904495239	fix_pre	0		80.0	24.0	2.5	/experiments/knapen_aot/videos/R_S_ILSVRC2015_train_00001011.mp4	0.0	463.57610416412354	0.6666228771209717
26	79.74931192398071	response	0	2		24.0	2.5	/experiments/knapen_aot/videos/R_S_ILSVRC2015_train_00001011.mp4	0.0	464.23447704315186	
26	79.75756192207336	movie	1		301.0	24.0	2.5	/experiments/knapen_aot/videos/R_S_ILSVRC2015_train_00001011.mp4	0.0	464.2427270412445	2.5083909034729004
26	82.26595282554626	fix_post	2		12.0	24.0	2.5	/experiments/knapen_aot/videos/R_S_ILSVRC2015_train_00001011.mp4	0.0	466.7511179447174	0.10023117065429688
27	82.36618399620056	fix_pre	0		155.0	25.0	2.5	/experiments/knapen_aot/videos/S_Pexels_Videos_2795731.mp4	0.0	466.8513491153717	1.2915630340576172
27	83.64188599586487	response	0	2		25.0	2.5	/experiments/knapen_aot/videos/S_Pexels_Videos_2795731.mp4	0.0	468.127051115036	
27	83.65774703025818	movie	1		166.0	25.0	2.5	/experiments/knapen_aot/videos/S_Pexels_Videos_2795731.mp4	0.0	468.1429121494293	2.5082077980041504
27	86.16595482826233	fix_post	2		12.0	25.0	2.5	/experiments/knapen_aot/videos/S_Pexels_Videos_2795731.mp4	0.0	470.6511199474335	0.09997820854187012
28	86.2659330368042	fix_pre	0		169.0	26.0	2.5	blank	1.0	470.75109815597534	1.4082398414611816
28	87.66598296165466	response	0	2		26.0	2.5	blank	1.0	472.1511480808258	
28	87.67417287826538	movie	1		301.0	26.0	2.5	blank	1.0	472.1593379974365	2.508394956588745
28	90.18256783485413	fix_post	2		12.0	26.0	2.5	blank	1.0	474.66773295402527	0.10023117065429688
29	90.28279900550842	fix_pre	0		106.0	27.0	2.5	/experiments/knapen_aot/videos/S_yt-0d5TkclKWVA_146.mp4	0.0	474.76796412467957	0.8829989433288574
29	91.15771889686584	response	0	2		27.0	2.5	/experiments/knapen_aot/videos/S_yt-0d5TkclKWVA_146.mp4	0.0	475.642884016037	
29	91.16579794883728	movie	1		301.0	27.0	2.5	/experiments/knapen_aot/videos/S_yt-0d5TkclKWVA_146.mp4	0.0	475.6509630680084	2.508471965789795
29	93.67426991462708	fix_post	2		12.0	27.0	2.5	/experiments/knapen_aot/videos/S_yt-0d5TkclKWVA_146.mp4	0.0	478.1594350337982	0.10016512870788574
30	93.77443504333496	fix_pre	0		89.0	28.0	2.5	/experiments/knapen_aot/videos/S_yt--koo4FOfZE0_86.mp4	0.0	478.2596001625061	0.7414019107818604
30	94.50767993927002	response	0	2		28.0	2.5	/experiments/knapen_aot/videos/S_yt--koo4FOfZE0_86.mp4	0.0	478.99284505844116	
30	94.51583695411682	movie	1		301.0	28.0	2.5	/experiments/knapen_aot/videos/S_yt--koo4FOfZE0_86.mp4	0.0	479.00100207328796	2.5084009170532227
30	97.02423787117004	fix_post	2		12.0	28.0	2.5	/experiments/knapen_aot/videos/S_yt--koo4FOfZE0_86.mp4	0.0	481.5094029903412	0.09993696212768555
31	97.12417483329773	fix_pre	0		114.0	29.0	2.5	/experiments/knapen_aot/videos/R_S_wc-rs31_SV1Opy__6.mp4	0.0	481.6093399524689	0.9501001834869385
31	98.06599402427673	response	0	2		29.0	2.5	/experiments/knapen_aot/videos/R_S_wc-rs31_SV1Opy__6.mp4	0.0	482.5511591434479	
31	98.07427501678467	movie	1		163.0	29.0	2.5	/experiments/knapen_aot/videos/R_S_wc-rs31_SV1Opy__6.mp4	0.0	482.5594401359558	2.508253812789917
31	100.58252882957458	fix_post	2		12.0	29.0	2.5	/experiments/knapen_aot/videos/R_S_wc-rs31_SV1Opy__6.mp4	0.0	485.0676939487457	0.09999704360961914
32	100.6825258731842	fix_pre	0		112.0	30.0	2.5	/experiments/knapen_aot/videos/R_S_yt-4oT-2eGhmUo_102.mp4	0.0	485.16769099235535	0.9333550930023193
32	101.607656955719	response	0	2		30.0	2.5	/experiments/knapen_aot/videos/R_S_yt-4oT-2eGhmUo_102.mp4	0.0	486.09282207489014	
32	101.61588096618652	movie	1		301.0	30.0	2.5	/experiments/knapen_aot/videos/R_S_yt-4oT-2eGhmUo_102.mp4	0.0	486.10104608535767	2.5083088874816895
32	104.12418985366821	fix_post	2		12.0	30.0	2.5	/experiments/knapen_aot/videos/R_S_yt-4oT-2eGhmUo_102.mp4	0.0	488.60935497283936	0.1000220775604248
33	104.22421193122864	fix_pre	0		76.0	31.0	2.5	/experiments/knapen_aot/videos/R_S_P005_C002_UHD_SDR_2K_AVC.mp4	0.0	488.7093770503998	0.6332368850708008
33	104.84930491447449	response	0	2		31.0	2.5	/experiments/knapen_aot/videos/R_S_P005_C002_UHD_SDR_2K_AVC.mp4	0.0	489.33447003364563	
33	104.85744881629944	movie	1		172.0	31.0	2.5	/experiments/knapen_aot/videos/R_S_P005_C002_UHD_SDR_2K_AVC.mp4	0.0	489.3426139354706	2.5085220336914062
33	107.36597084999084	fix_post	2		12.0	31.0	2.5	/experiments/knapen_aot/videos/R_S_P005_C002_UHD_SDR_2K_AVC.mp4	0.0	491.851135969162	0.09989500045776367
34	107.46586585044861	fix_pre	0		54.0	32.0	2.5	/experiments/knapen_aot/videos/R_S_comp_A009_C001_010181A_v09_SDR_PS_FINAL_20180725_SDR_2K_AVC.mp4	0.0	491.95103096961975	0.4498870372772217
34	107.90765500068665	response	0	2		32.0	2.5	/experiments/knapen_aot/videos/R_S_comp_A009_C001_010181A_v09_SDR_PS_FINAL_20180725_SDR_2K_AVC.mp4	0.0	492.3928201198578	
34	107.91575288772583	movie	1		164.0	32.0	2.5	/experiments/knapen_aot/videos/R_S_comp_A009_C001_010181A_v09_SDR_PS_FINAL_20180725_SDR_2K_AVC.mp4	0.0	492.400918006897	2.5084309577941895
34	110.42418384552002	fix_post	2		12.0	32.0	2.5	/experiments/knapen_aot/videos/R_S_comp_A009_C001_010181A_v09_SDR_PS_FINAL_20180725_SDR_2K_AVC.mp4	0.0	494.90934896469116	0.1000070571899414
35	110.52419090270996	fix_pre	0		85.0	33.0	2.5	blank	1.0	495.0093560218811	0.708341121673584
35	111.22424483299255	response	0	2		33.0	2.5	blank	1.0	495.7094099521637	
35	111.23253202438354	movie	1		301.0	33.0	2.5	blank	1.0	495.7176971435547	2.5084009170532227
35	113.74093294143677	fix_post	2		12.0	33.0	2.5	blank	1.0	498.2260980606079	0.09992194175720215
36	113.84085488319397	fix_pre	0		64.0	34.0	2.5	/experiments/knapen_aot/videos/R_S_X-D3lUv-atE_376.mp4	0.0	498.3260200023651	0.5332391262054443
36	114.36581087112427	response	0	2		34.0	2.5	/experiments/knapen_aot/videos/R_S_X-D3lUv-atE_376.mp4	0.0	498.8509759902954	
36	114.37409400939941	movie	1		301.0	34.0	2.5	/experiments/knapen_aot/videos/R_S_X-D3lUv-atE_376.mp4	0.0	498.85925912857056	2.5083999633789062
36	116.88249397277832	fix_post	2		12.0	34.0	2.5	/experiments/knapen_aot/videos/R_S_X-D3lUv-atE_376.mp4	0.0	501.36765909194946	0.10004901885986328
37	116.98254299163818	fix_pre	0		91.0	35.0	2.5	/experiments/knapen_aot/videos/S_yt-Y3pi1bgUwIg_78.mp4	0.0	501.4677081108093	0.7582519054412842
37	117.73257184028625	response	0	2		35.0	2.5	/experiments/knapen_aot/videos/S_yt-Y3pi1bgUwIg_78.mp4	0.0	502.2177369594574	
37	117.74079489707947	movie	1		301.0	35.0	2.5	/experiments/knapen_aot/videos/S_yt-Y3pi1bgUwIg_78.mp4	0.0	502.2259600162506	2.5083611011505127
37	120.24915599822998	fix_post	2		12.0	35.0	2.5	/experiments/knapen_aot/videos/S_yt-Y3pi1bgUwIg_78.mp4	0.0	504.7343211174011	0.09996604919433594
38	120.34912204742432	fix_pre	0		94.0	36.0	2.5	/experiments/knapen_aot/videos/R_S_yt-wz2opOBqClo_14.mp4	0.0	504.83428716659546	0.7832889556884766
38	121.12421894073486	response	0	2		36.0	2.5	/experiments/knapen_aot/videos/R_S_yt-wz2opOBqClo_14.mp4	0.0	505.609384059906	
38	121.1324110031128	movie	1		301.0	36.0	2.5	/experiments/knapen_aot/videos/R_S_yt-wz2opOBqClo_14.mp4	0.0	505.61757612228394	2.508405923843384
38	123.64081692695618	fix_post	2		12.0	36.0	2.5	/experiments/knapen_aot/videos/R_S_yt-wz2opOBqClo_14.mp4	0.0	508.1259820461273	0.10000300407409668
39	123.74081993103027	fix_pre	0		158.0	37.0	2.5	/experiments/knapen_aot/videos/S_yt-qsyDLtXcyHc_8.mp4	0.0	508.2259850502014	1.3165199756622314
39	125.04906296730042	response	0	2		37.0	2.5	/experiments/knapen_aot/videos/S_yt-qsyDLtXcyHc_8.mp4	0.0	509.53422808647156	
39	125.0573399066925	movie	1		301.0	37.0	2.5	/experiments/knapen_aot/videos/S_yt-qsyDLtXcyHc_8.mp4	0.0	509.54250502586365	2.508518934249878
39	127.56585884094238	fix_post	2		12.0	37.0	2.5	/experiments/knapen_aot/videos/S_yt-qsyDLtXcyHc_8.mp4	0.0	512.0510239601135	0.09992218017578125
40	127.66578102111816	fix_pre	0		168.0	38.0	2.5	/experiments/knapen_aot/videos/R_S_yt--C2DDZ7LOQA_95.mp4	0.0	512.1509461402893	1.3999288082122803
40	129.05002188682556	response	0	2		38.0	2.5	/experiments/knapen_aot/videos/R_S_yt--C2DDZ7LOQA_95.mp4	0.0	513.5351870059967	
40	129.06570982933044	movie	1		301.0	38.0	2.5	/experiments/knapen_aot/videos/R_S_yt--C2DDZ7LOQA_95.mp4	0.0	513.5508749485016	2.5083541870117188
40	131.57406401634216	fix_post	2		12.0	38.0	2.5	/experiments/knapen_aot/videos/R_S_yt--C2DDZ7LOQA_95.mp4	0.0	516.0592291355133	0.10002684593200684
41	131.67409086227417	fix_pre	0		87.0	39.0	2.5	/experiments/knapen_aot/videos/R_S_ILSVRC2015_train_00584001.mp4	0.0	516.1592559814453	0.7248871326446533
41	132.39084196090698	response	0	2		39.0	2.5	/experiments/knapen_aot/videos/R_S_ILSVRC2015_train_00584001.mp4	0.0	516.8760070800781	
41	132.39897799491882	movie	1		301.0	39.0	2.5	/experiments/knapen_aot/videos/R_S_ILSVRC2015_train_00584001.mp4	0.0	516.88414311409	2.50846004486084
41	134.90743803977966	fix_post	2		12.0	39.0	2.5	/experiments/knapen_aot/videos/R_S_ILSVRC2015_train_00584001.mp4	0.0	519.3926031589508	0.09997391700744629
42	135.0074119567871	fix_pre	0		85.0	40.0	2.5	/experiments/knapen_aot/videos/R_S_yt-tMP5WhHMtWE_55.mp4	0.0	519.4925770759583	0.7082118988037109
42	135.70749688148499	response	0	2		40.0	2.5	/experiments/knapen_aot/videos/R_S_yt-tMP5WhHMtWE_55.mp4	0.0	520.1926620006561	
42	135.71562385559082	movie	1		301.0	40.0	2.5	/experiments/knapen_aot/videos/R_S_yt-tMP5WhHMtWE_55.mp4	0.0	520.200788974762	2.508527994155884
42	138.2241518497467	fix_post	2		12.0	40.0	2.5	/experiments/knapen_aot/videos/R_S_yt-tMP5WhHMtWE_55.mp4	0.0	522.7093169689178	0.09995317459106445
43	138.32410502433777	fix_pre	0		55.0	41.0	2.5	/experiments/knapen_aot/videos/R_S_production_ID_4802716.mp4	0.0	522.8092701435089	0.4582228660583496
43	138.7740979194641	response	0	2		41.0	2.5	/experiments/knapen_aot/videos/R_S_production_ID_4802716.mp4	0.0	523.2592630386353	
43	138.78232789039612	movie	1		164.0	41.0	2.5	/experiments/knapen_aot/videos/R_S_production_ID_4802716.mp4	0.0	523.2674930095673	2.5084071159362793
43	141.2907350063324	fix_post	2		12.0	41.0	2.5	/experiments/knapen_aot/videos/R_S_production_ID_4802716.mp4	0.0	525.7759001255035	0.10000395774841309
44	141.3907389640808	fix_pre	0		79.0	42.0	2.5	blank	1.0	525.875904083252	0.6582870483398438
44	142.0407738685608	response	0	2		42.0	2.5	blank	1.0	526.5259389877319	
44	142.04902601242065	movie	1		301.0	42.0	2.5	blank	1.0	526.5341911315918	2.5083818435668945
44	144.55740785598755	fix_post	2		12.0	42.0	2.5	blank	1.0	529.0425729751587	0.10000205039978027
45	144.65740990638733	fix_pre	0		68.0	43.0	2.5	/experiments/knapen_aot/videos/S_pexels-roman-odintsov-8231493.mp4	0.0	529.1425750255585	0.5665490627288818
45	145.2157928943634	response	0	2		43.0	2.5	/experiments/knapen_aot/videos/S_pexels-roman-odintsov-8231493.mp4	0.0	529.7009580135345	
45	145.2239589691162	movie	1		199.0	43.0	2.5	/experiments/knapen_aot/videos/S_pexels-roman-odintsov-8231493.mp4	0.0	529.7091240882874	2.5083720684051514
45	147.73233103752136	fix_post	2		12.0	43.0	2.5	/experiments/knapen_aot/videos/S_pexels-roman-odintsov-8231493.mp4	0.0	532.2174961566925	0.09994077682495117
46	147.8322718143463	fix_pre	0		85.0	44.0	2.5	/experiments/knapen_aot/videos/R_S_yt-BF80IX4r8x4_106.mp4	0.0	532.3174369335175	0.7083330154418945
46	148.5324318408966	response	0	2		44.0	2.5	/experiments/knapen_aot/videos/R_S_yt-BF80IX4r8x4_106.mp4	0.0	533.0175969600677	
46	148.5406048297882	movie	1		301.0	44.0	2.5	/experiments/knapen_aot/videos/R_S_yt-BF80IX4r8x4_106.mp4	0.0	533.0257699489594	2.5084421634674072
46	151.04904699325562	fix_post	2		12.0	44.0	2.5	/experiments/knapen_aot/videos/R_S_yt-BF80IX4r8x4_106.mp4	0.0	535.5342121124268	0.09991884231567383
47	151.1489658355713	fix_pre	0		63.0	45.0	2.5	/experiments/knapen_aot/videos/S_pexels-polina-tankilevitch-8203088.mp4	0.0	535.6341309547424	0.5249521732330322
47	151.66571187973022	response	0	2		45.0	2.5	/experiments/knapen_aot/videos/S_pexels-polina-tankilevitch-8203088.mp4	0.0	536.1508769989014	
47	151.67391800880432	movie	1		169.0	45.0	2.5	/experiments/knapen_aot/videos/S_pexels-polina-tankilevitch-8203088.mp4	0.0	536.1590831279755	2.508366823196411
47	154.18228483200073	fix_post	2		12.0	45.0	2.5	/experiments/knapen_aot/videos/S_pexels-polina-tankilevitch-8203088.mp4	0.0	538.6674499511719	0.10002017021179199
48	154.28230500221252	fix_pre	0		61.0	46.0	2.5	/experiments/knapen_aot/videos/S_production_ID_4802710.mp4	0.0	538.7674701213837	0.5082988739013672
48	154.78233098983765	response	0	2		46.0	2.5	/experiments/knapen_aot/videos/S_production_ID_4802710.mp4	0.0	539.2674961090088	
48	154.7906038761139	movie	1		165.0	46.0	2.5	/experiments/knapen_aot/videos/S_production_ID_4802710.mp4	0.0	539.275768995285	2.508388042449951
48	157.29899191856384	fix_post	2		12.0	46.0	2.5	/experiments/knapen_aot/videos/S_production_ID_4802710.mp4	0.0	541.784157037735	0.0999751091003418
49	157.39896702766418	fix_pre	0		53.0	47.0	2.5	blank	1.0	541.8841321468353	0.4416189193725586
49	157.83238291740417	response	0	2		47.0	2.5	blank	1.0	542.3175480365753	
49	157.84058594703674	movie	1		301.0	47.0	2.5	blank	1.0	542.3257510662079	2.5083799362182617
49	160.348965883255	fix_post	2		12.0	47.0	2.5	blank	1.0	544.8341310024261	0.1000220775604248
50	160.44898796081543	fix_pre	0		55.0	48.0	2.5	/experiments/knapen_aot/videos/R_S_yt-bshHX6vWLtA_84.mp4	0.0	544.9341530799866	0.45823001861572266
50	160.89154195785522	response	0	2		48.0	2.5	/experiments/knapen_aot/videos/R_S_yt-bshHX6vWLtA_84.mp4	0.0	545.3767070770264	
50	160.90721797943115	movie	1		301.0	48.0	2.5	/experiments/knapen_aot/videos/R_S_yt-bshHX6vWLtA_84.mp4	0.0	545.3923830986023	2.5084609985351562
50	163.4156789779663	fix_post	2		12.0	48.0	2.5	/experiments/knapen_aot/videos/R_S_yt-bshHX6vWLtA_84.mp4	0.0	547.9008440971375	0.10010504722595215
51	163.51578402519226	fix_pre	0		56.0	49.0	2.5	/experiments/knapen_aot/videos/S_yt-deiWoIfK6vg_44.mp4	0.0	548.0009491443634	0.46766185760498047
51	163.97413897514343	response	0	2		49.0	2.5	/experiments/knapen_aot/videos/S_yt-deiWoIfK6vg_44.mp4	0.0	548.4593040943146	
51	163.98344588279724	movie	1		301.0	49.0	2.5	/experiments/knapen_aot/videos/S_yt-deiWoIfK6vg_44.mp4	0.0	548.4686110019684	2.5071799755096436
51	166.49062585830688	fix_post	2		12.0	49.0	2.5	/experiments/knapen_aot/videos/S_yt-deiWoIfK6vg_44.mp4	0.0	550.975790977478	0.10001111030578613
52	166.59063696861267	fix_pre	0		79.0	50.0	2.5	/experiments/knapen_aot/videos/R_S_yt--C2DDZ7LOQA_95.mp4	0.0	551.0758020877838	0.6584138870239258
52	167.24068093299866	response	0	2		50.0	2.5	/experiments/knapen_aot/videos/R_S_yt--C2DDZ7LOQA_95.mp4	0.0	551.7258460521698	
52	167.2490508556366	movie	1		301.0	50.0	2.5	/experiments/knapen_aot/videos/R_S_yt--C2DDZ7LOQA_95.mp4	0.0	551.7342159748077	2.508244037628174
52	169.75729489326477	fix_post	2		12.0	50.0	2.5	/experiments/knapen_aot/videos/R_S_yt--C2DDZ7LOQA_95.mp4	0.0	554.2424600124359	0.10000395774841309
53	169.85729885101318	fix_pre	0		62.0	51.0	2.5	/experiments/knapen_aot/videos/R_S_ILSVRC2015_train_00569007.mp4	0.0	554.3424639701843	0.5165610313415527
53	170.35811185836792	response	0	2		51.0	2.5	/experiments/knapen_aot/videos/R_S_ILSVRC2015_train_00569007.mp4	0.0	554.8432769775391	
53	170.37385988235474	movie	1		301.0	51.0	2.5	/experiments/knapen_aot/videos/R_S_ILSVRC2015_train_00569007.mp4	0.0	554.8590250015259	2.5083489418029785
53	172.88220882415771	fix_post	2		12.0	51.0	2.5	/experiments/knapen_aot/videos/R_S_ILSVRC2015_train_00569007.mp4	0.0	557.3673739433289	0.10002708435058594
54	172.9822359085083	fix_pre	0		90.0	52.0	2.5	/experiments/knapen_aot/videos/S_yt-qxtmtMnUfD0_124.mp4	0.0	557.4674010276794	0.751068115234375
54	173.71628093719482	response	0	2		52.0	2.5	/experiments/knapen_aot/videos/S_yt-qxtmtMnUfD0_124.mp4	0.0	558.201446056366	
54	173.73330402374268	movie	1		301.0	52.0	2.5	/experiments/knapen_aot/videos/S_yt-qxtmtMnUfD0_124.mp4	0.0	558.2184691429138	2.5072779655456543
54	176.24058198928833	fix_post	2		12.0	52.0	2.5	/experiments/knapen_aot/videos/S_yt-qxtmtMnUfD0_124.mp4	0.0	560.7257471084595	0.09996604919433594
55	176.34054803848267	fix_pre	0		64.0	53.0	2.5	/experiments/knapen_aot/videos/R_S_ILSVRC2015_train_00652001.mp4	0.0	560.8257131576538	0.5332868099212646
55	176.86568403244019	response	0	2		53.0	2.5	/experiments/knapen_aot/videos/R_S_ILSVRC2015_train_00652001.mp4	0.0	561.3508491516113	
55	176.87383484840393	movie	1		301.0	53.0	2.5	/experiments/knapen_aot/videos/R_S_ILSVRC2015_train_00652001.mp4	0.0	561.3589999675751	2.5084660053253174
55	179.38230085372925	fix_post	2		12.0	53.0	2.5	/experiments/knapen_aot/videos/R_S_ILSVRC2015_train_00652001.mp4	0.0	563.8674659729004	0.0998830795288086
56	179.48218393325806	fix_pre	0		57.0	54.0	2.5	/experiments/knapen_aot/videos/R_S_production_ID_3943965.mp4	0.0	563.9673490524292	0.47495007514953613
56	179.94897890090942	response	0	2		54.0	2.5	/experiments/knapen_aot/videos/R_S_production_ID_3943965.mp4	0.0	564.4341440200806	
56	179.9571340084076	movie	1		192.0	54.0	2.5	/experiments/knapen_aot/videos/R_S_production_ID_3943965.mp4	0.0	564.4422991275787	2.508430004119873
56	182.46556401252747	fix_post	2		12.0	54.0	2.5	/experiments/knapen_aot/videos/R_S_production_ID_3943965.mp4	0.0	566.9507291316986	0.09991788864135742
57	182.56548190116882	fix_pre	0		87.0	55.0	2.5	/experiments/knapen_aot/videos/R_S_yt-Ryb0K9lGPrg_5.mp4	0.0	567.05064702034	0.7249019145965576
57	183.28223085403442	response	0	2		55.0	2.5	/experiments/knapen_aot/videos/R_S_yt-Ryb0K9lGPrg_5.mp4	0.0	567.7673959732056	
57	183.29038381576538	movie	1		301.0	55.0	2.5	/experiments/knapen_aot/videos/R_S_yt-Ryb0K9lGPrg_5.mp4	0.0	567.7755489349365	2.5083842277526855
57	185.79876804351807	fix_post	2		12.0	55.0	2.5	/experiments/knapen_aot/videos/R_S_yt-Ryb0K9lGPrg_5.mp4	0.0	570.2839331626892	0.10003185272216797
58	185.89879989624023	fix_pre	0		110.0	56.0	2.5	blank	1.0	570.3839650154114	0.9167120456695557
58	186.80716681480408	response	0	2		56.0	2.5	blank	1.0	571.2923319339752	
58	186.8155119419098	movie	1		301.0	56.0	2.5	blank	1.0	571.3006770610809	2.508281946182251
58	189.32379388809204	fix_post	2		12.0	56.0	2.5	blank	1.0	573.8089590072632	0.09996604919433594
59	189.42375993728638	fix_pre	0		66.0	57.0	2.5	/experiments/knapen_aot/videos/S_ILSVRC2015_train_00697001.mp4	0.0	573.9089250564575	0.5499210357666016
59	189.96551990509033	response	0	2		57.0	2.5	/experiments/knapen_aot/videos/S_ILSVRC2015_train_00697001.mp4	0.0	574.4506850242615	
59	189.97368097305298	movie	1		301.0	57.0	2.5	/experiments/knapen_aot/videos/S_ILSVRC2015_train_00697001.mp4	0.0	574.4588460922241	2.508681058883667
59	192.48236203193665	fix_post	2		12.0	57.0	2.5	/experiments/knapen_aot/videos/S_ILSVRC2015_train_00697001.mp4	0.0	576.9675271511078	0.09969496726989746
60	192.58205699920654	fix_pre	0		75.0	58.0	2.5	/experiments/knapen_aot/videos/R_S_ILSVRC2015_train_00404000.mp4	0.0	577.0672221183777	0.6249818801879883
60	193.19885182380676	response	0	2		58.0	2.5	/experiments/knapen_aot/videos/R_S_ILSVRC2015_train_00404000.mp4	0.0	577.6840169429779	
60	193.20703887939453	movie	1		301.0	58.0	2.5	/experiments/knapen_aot/videos/R_S_ILSVRC2015_train_00404000.mp4	0.0	577.6922039985657	2.5084190368652344
60	195.71545791625977	fix_post	2		12.0	58.0	2.5	/experiments/knapen_aot/videos/R_S_ILSVRC2015_train_00404000.mp4	0.0	580.2006230354309	0.10019803047180176
61	195.81565594673157	fix_pre	0		95.0	59.0	2.5	/experiments/knapen_aot/videos/S_ILSVRC2015_train_00418004.mp4	0.0	580.3008210659027	0.7923898696899414
61	196.59887790679932	response	0	2		59.0	2.5	/experiments/knapen_aot/videos/S_ILSVRC2015_train_00418004.mp4	0.0	581.0840430259705	
61	196.6080458164215	movie	1		301.0	59.0	2.5	/experiments/knapen_aot/videos/S_ILSVRC2015_train_00418004.mp4	0.0	581.0932109355927	2.5074350833892822
61	199.1154808998108	fix_post	2		12.0	59.0	2.5	/experiments/knapen_aot/videos/S_ILSVRC2015_train_00418004.mp4	0.0	583.6006460189819	0.09999608993530273
62	199.2154769897461	fix_pre	0		55.0	60.0	2.5	/experiments/knapen_aot/videos/R_S_yt-mJzkLd3Mr_c_35.mp4	0.0	583.7006421089172	0.45820188522338867
62	199.66544699668884	response	0	2		60.0	2.5	/experiments/knapen_aot/videos/R_S_yt-mJzkLd3Mr_c_35.mp4	0.0	584.15061211586	
62	199.67367887496948	movie	1		301.0	60.0	2.5	/experiments/knapen_aot/videos/R_S_yt-mJzkLd3Mr_c_35.mp4	0.0	584.1588439941406	2.5083889961242676
62	202.18206787109375	fix_post	2		12.0	60.0	2.5	/experiments/knapen_aot/videos/R_S_yt-mJzkLd3Mr_c_35.mp4	0.0	586.6672329902649	0.10006093978881836
63	202.28212881088257	fix_pre	0		98.0	61.0	2.5	/experiments/knapen_aot/videos/S_yt-BF80IX4r8x4_106.mp4	0.0	586.7672939300537	0.8165960311889648
63	203.09043884277344	response	0	2		61.0	2.5	/experiments/knapen_aot/videos/S_yt-BF80IX4r8x4_106.mp4	0.0	587.5756039619446	
63	203.09872484207153	movie	1		301.0	61.0	2.5	/experiments/knapen_aot/videos/S_yt-BF80IX4r8x4_106.mp4	0.0	587.5838899612427	2.5083401203155518
63	205.60706496238708	fix_post	2		12.0	61.0	2.5	/experiments/knapen_aot/videos/S_yt-BF80IX4r8x4_106.mp4	0.0	590.0922300815582	0.10008502006530762
64	205.7071499824524	fix_pre	0		75.0	62.0	2.5	blank	1.0	590.1923151016235	0.6247639656066895
64	206.32380604743958	response	0	2		62.0	2.5	blank	1.0	590.8089711666107	
64	206.33191394805908	movie	1		301.0	62.0	2.5	blank	1.0	590.8170790672302	2.5086419582366943
64	208.84055590629578	fix_post	2		12.0	62.0	2.5	blank	1.0	593.3257210254669	0.09981894493103027
65	208.9403748512268	fix_pre	0		94.0	63.0	2.5	/experiments/knapen_aot/videos/S_yt-XbNHfZjXuVM_43.mp4	0.0	593.425539970398	0.7832939624786377
65	209.71542596817017	response	0	2		63.0	2.5	/experiments/knapen_aot/videos/S_yt-XbNHfZjXuVM_43.mp4	0.0	594.2005910873413	
65	209.72366881370544	movie	1		301.0	63.0	2.5	/experiments/knapen_aot/videos/S_yt-XbNHfZjXuVM_43.mp4	0.0	594.2088339328766	2.508366107940674
65	212.23203492164612	fix_post	2		12.0	63.0	2.5	/experiments/knapen_aot/videos/S_yt-XbNHfZjXuVM_43.mp4	0.0	596.7172000408173	0.10009503364562988
66	212.33212995529175	fix_pre	0		87.0	64.0	2.5	/experiments/knapen_aot/videos/S_yt-ieA3XwoSko4_98.mp4	0.0	596.8172950744629	0.7248599529266357
66	213.04881381988525	response	0	2		64.0	2.5	/experiments/knapen_aot/videos/S_yt-ieA3XwoSko4_98.mp4	0.0	597.5339789390564	
66	213.05698990821838	movie	1		301.0	64.0	2.5	/experiments/knapen_aot/videos/S_yt-ieA3XwoSko4_98.mp4	0.0	597.5421550273895	2.5083749294281006
66	215.56536483764648	fix_post	2		12.0	64.0	2.5	/experiments/knapen_aot/videos/S_yt-ieA3XwoSko4_98.mp4	0.0	600.0505299568176	0.10004997253417969
67	215.66541481018066	fix_pre	0		67.0	65.0	2.5	/experiments/knapen_aot/videos/R_S_wc-AyT9mzwZsu0T_14.mp4	0.0	600.1505799293518	0.5582361221313477
67	216.21550488471985	response	0	2		65.0	2.5	/experiments/knapen_aot/videos/R_S_wc-AyT9mzwZsu0T_14.mp4	0.0	600.700670003891	
67	216.223650932312	movie	1		165.0	65.0	2.5	/experiments/knapen_aot/videos/R_S_wc-AyT9mzwZsu0T_14.mp4	0.0	600.7088160514832	2.5084099769592285
67	218.73206090927124	fix_post	2		12.0	65.0	2.5	/experiments/knapen_aot/videos/R_S_wc-AyT9mzwZsu0T_14.mp4	0.0	603.2172260284424	0.09996390342712402
68	218.83202481269836	fix_pre	0		78.0	66.0	2.5	/experiments/knapen_aot/videos/R_S_ILSVRC2015_train_00423000.mp4	0.0	603.3171899318695	0.6509280204772949
68	219.47379994392395	response	0	2		66.0	2.5	/experiments/knapen_aot/videos/R_S_ILSVRC2015_train_00423000.mp4	0.0	603.9589650630951	
68	219.48295283317566	movie	1		301.0	66.0	2.5	/experiments/knapen_aot/videos/R_S_ILSVRC2015_train_00423000.mp4	0.0	603.9681179523468	2.507416009902954
68	221.9903688430786	fix_post	2		12.0	66.0	2.5	/experiments/knapen_aot/videos/R_S_ILSVRC2015_train_00423000.mp4	0.0	606.4755339622498	0.10004520416259766
69	222.0904140472412	fix_pre	0		51.0	67.0	2.5	/experiments/knapen_aot/videos/S_yt-BiBS8EO5GPc_4.mp4	0.0	606.5755791664124	0.42484498023986816
69	222.50713801383972	response	0	2		67.0	2.5	/experiments/knapen_aot/videos/S_yt-BiBS8EO5GPc_4.mp4	0.0	606.9923031330109	
69	222.51525902748108	movie	1		301.0	67.0	2.5	/experiments/knapen_aot/videos/S_yt-BiBS8EO5GPc_4.mp4	0.0	607.0004241466522	2.5083768367767334
69	225.0236358642578	fix_post	2		12.0	67.0	2.5	/experiments/knapen_aot/videos/S_yt-BiBS8EO5GPc_4.mp4	0.0	609.508800983429	0.10008001327514648
70	225.12371587753296	fix_pre	0		90.0	68.0	2.5	/experiments/knapen_aot/videos/S_yt-ja8Pmpik_ao_112.mp4	0.0	609.6088809967041	0.7499301433563232
70	225.86537098884583	response	0	2		68.0	2.5	/experiments/knapen_aot/videos/S_yt-ja8Pmpik_ao_112.mp4	0.0	610.350536108017	
70	225.87364602088928	movie	1		301.0	68.0	2.5	/experiments/knapen_aot/videos/S_yt-ja8Pmpik_ao_112.mp4	0.0	610.3588111400604	2.5083909034729004
70	228.38203692436218	fix_post	2		12.0	68.0	2.5	/experiments/knapen_aot/videos/S_yt-ja8Pmpik_ao_112.mp4	0.0	612.8672020435333	0.09997391700744629
71	228.48201084136963	fix_pre	0		56.0	69.0	2.5	blank	1.0	612.9671759605408	0.46659111976623535
71	228.9404239654541	response	0	2		69.0	2.5	blank	1.0	613.4255890846252	
71	228.94860196113586	movie	1		301.0	69.0	2.5	blank	1.0	613.433767080307	2.508396863937378
71	231.45699882507324	fix_post	2		12.0	69.0	2.5	blank	1.0	615.9421639442444	0.09998822212219238
72	231.55698704719543	fix_pre	0		67.0	70.0	2.5	/experiments/knapen_aot/videos/R_S_video_inspire_california_vineyard_sierra-mar_sunrise_110.1080-h264.mp4	0.0	616.0421521663666	0.5582118034362793
72	232.09951090812683	response	0	2		70.0	2.5	/experiments/knapen_aot/videos/R_S_video_inspire_california_vineyard_sierra-mar_sunrise_110.1080-h264.mp4	0.0	616.584676027298	
72	232.1151988506317	movie	1		175.0	70.0	2.5	/experiments/knapen_aot/videos/R_S_video_inspire_california_vineyard_sierra-mar_sunrise_110.1080-h264.mp4	0.0	616.6003639698029	2.5084731578826904
72	234.6236720085144	fix_post	2		12.0	70.0	2.5	/experiments/knapen_aot/videos/R_S_video_inspire_california_vineyard_sierra-mar_sunrise_110.1080-h264.mp4	0.0	619.1088371276855	0.09996795654296875
73	234.72363996505737	fix_pre	0		66.0	71.0	2.5	/experiments/knapen_aot/videos/S_yt-kXarkCFJLeg_46.mp4	0.0	619.2088050842285	0.5507988929748535
73	235.2653419971466	response	0	2		71.0	2.5	/experiments/knapen_aot/videos/S_yt-kXarkCFJLeg_46.mp4	0.0	619.7505071163177	
73	235.27443885803223	movie	1		301.0	71.0	2.5	/experiments/knapen_aot/videos/S_yt-kXarkCFJLeg_46.mp4	0.0	619.7596039772034	2.50753116607666
73	237.7819700241089	fix_post	2		12.0	71.0	2.5	/experiments/knapen_aot/videos/S_yt-kXarkCFJLeg_46.mp4	0.0	622.26713514328	0.09997701644897461
74	237.88194704055786	fix_pre	0		60.0	72.0	2.5	/experiments/knapen_aot/videos/R_S_production_ID_3943965.mp4	0.0	622.367112159729	0.499891996383667
74	238.3737268447876	response	0	2		72.0	2.5	/experiments/knapen_aot/videos/R_S_production_ID_3943965.mp4	0.0	622.8588919639587	
74	238.38183903694153	movie	1		197.0	72.0	2.5	/experiments/knapen_aot/videos/R_S_production_ID_3943965.mp4	0.0	622.8670041561127	2.5086708068847656
74	240.8905098438263	fix_post	2		12.0	72.0	2.5	/experiments/knapen_aot/videos/R_S_production_ID_3943965.mp4	0.0	625.3756749629974	0.09976410865783691
75	240.99027395248413	fix_pre	0		91.0	73.0	2.5	/experiments/knapen_aot/videos/S_yt-LsCCAQ8BRO8_7.mp4	0.0	625.4754390716553	0.7582850456237793
75	241.7403528690338	response	0	2		73.0	2.5	/experiments/knapen_aot/videos/S_yt-LsCCAQ8BRO8_7.mp4	0.0	626.225517988205	
75	241.7485589981079	movie	1		301.0	73.0	2.5	/experiments/knapen_aot/videos/S_yt-LsCCAQ8BRO8_7.mp4	0.0	626.233724117279	2.508723020553589
75	244.2572820186615	fix_post	2		12.0	73.0	2.5	/experiments/knapen_aot/videos/S_yt-LsCCAQ8BRO8_7.mp4	0.0	628.7424471378326	0.0997610092163086
76	244.3570430278778	fix_pre	0		69.0	74.0	2.5	/experiments/knapen_aot/videos/R_S_yt-H2ce6U0SbVA_542.mp4	0.0	628.842208147049	0.5748429298400879
76	244.92365097999573	response	0	2		74.0	2.5	/experiments/knapen_aot/videos/R_S_yt-H2ce6U0SbVA_542.mp4	0.0	629.4088160991669	
76	244.9318859577179	movie	1		301.0	74.0	2.5	/experiments/knapen_aot/videos/R_S_yt-H2ce6U0SbVA_542.mp4	0.0	629.417051076889	2.508357048034668
76	247.44024300575256	fix_post	2		12.0	74.0	2.5	/experiments/knapen_aot/videos/R_S_yt-H2ce6U0SbVA_542.mp4	0.0	631.9254081249237	0.10011482238769531
77	247.54035782814026	fix_pre	0		124.0	75.0	2.5	/experiments/knapen_aot/videos/S_yt-BKkZUSowoxg_59.mp4	0.0	632.0255229473114	1.0331120491027832
77	248.56540894508362	response	0	2		75.0	2.5	/experiments/knapen_aot/videos/S_yt-BKkZUSowoxg_59.mp4	0.0	633.0505740642548	
77	248.57346987724304	movie	1		301.0	75.0	2.5	/experiments/knapen_aot/videos/S_yt-BKkZUSowoxg_59.mp4	0.0	633.0586349964142	2.5083611011505127
77	251.08183097839355	fix_post	2		12.0	75.0	2.5	/experiments/knapen_aot/videos/S_yt-BKkZUSowoxg_59.mp4	0.0	635.5669960975647	0.09995484352111816
78	251.18178582191467	fix_pre	0		61.0	76.0	2.5	/experiments/knapen_aot/videos/S_yt-qsyDLtXcyHc_8.mp4	0.0	635.6669509410858	0.5091931819915771
78	251.67445588111877	response	0	2		76.0	2.5	/experiments/knapen_aot/videos/S_yt-qsyDLtXcyHc_8.mp4	0.0	636.1596210002899	
78	251.69097900390625	movie	1		301.0	76.0	2.5	/experiments/knapen_aot/videos/S_yt-qsyDLtXcyHc_8.mp4	0.0	636.1761441230774	2.5075578689575195
78	254.19853687286377	fix_post	2		12.0	76.0	2.5	/experiments/knapen_aot/videos/S_yt-qsyDLtXcyHc_8.mp4	0.0	638.6837019920349	0.10001111030578613
79	254.29854798316956	fix_pre	0		170.0	77.0	2.5	blank	1.0	638.7837131023407	1.4165229797363281
79	255.70693683624268	response	0	2		77.0	2.5	blank	1.0	640.1921019554138	
79	255.71507096290588	movie	1		301.0	77.0	2.5	blank	1.0	640.200236082077	2.5083439350128174
79	258.2234148979187	fix_post	2		12.0	77.0	2.5	blank	1.0	642.7085800170898	0.10007309913635254
80	258.32348799705505	fix_pre	0		72.0	78.0	2.5	/experiments/knapen_aot/videos/S_ILSVRC2015_train_00404000.mp4	0.0	642.8086531162262	0.5999069213867188
80	258.9152629375458	response	0	2		78.0	2.5	/experiments/knapen_aot/videos/S_ILSVRC2015_train_00404000.mp4	0.0	643.4004280567169	
80	258.9233949184418	movie	1		301.0	78.0	2.5	/experiments/knapen_aot/videos/S_ILSVRC2015_train_00404000.mp4	0.0	643.4085600376129	2.5084640979766846
80	261.43185901641846	fix_post	2		12.0	78.0	2.5	/experiments/knapen_aot/videos/S_ILSVRC2015_train_00404000.mp4	0.0	645.9170241355896	0.09997391700744629
81	261.5318329334259	fix_pre	0		68.0	79.0	2.5	/experiments/knapen_aot/videos/S_yt-w_C-15eJeCQ_191.mp4	0.0	646.016998052597	0.5665850639343262
81	262.0902650356293	response	0	2		79.0	2.5	/experiments/knapen_aot/videos/S_yt-w_C-15eJeCQ_191.mp4	0.0	646.5754301548004	
81	262.09841799736023	movie	1		301.0	79.0	2.5	/experiments/knapen_aot/videos/S_yt-w_C-15eJeCQ_191.mp4	0.0	646.5835831165314	2.5087180137634277
81	264.60713601112366	fix_post	2		12.0	79.0	2.5	/experiments/knapen_aot/videos/S_yt-w_C-15eJeCQ_191.mp4	0.0	649.0923011302948	0.09973502159118652
82	264.70687103271484	fix_pre	0		72.0	80.0	2.5	/experiments/knapen_aot/videos/R_S_yt-JTBXPfbkjsA_11.mp4	0.0	649.192036151886	0.6021378040313721
82	265.29859590530396	response	0	2		80.0	2.5	/experiments/knapen_aot/videos/R_S_yt-JTBXPfbkjsA_11.mp4	0.0	649.7837610244751	
82	265.3090088367462	movie	1		301.0	80.0	2.5	/experiments/knapen_aot/videos/R_S_yt-JTBXPfbkjsA_11.mp4	0.0	649.7941739559174	2.506108045578003
82	267.8151168823242	fix_post	2		12.0	80.0	2.5	/experiments/knapen_aot/videos/R_S_yt-JTBXPfbkjsA_11.mp4	0.0	652.3002820014954	0.09998106956481934
83	267.91509795188904	fix_pre	0		61.0	81.0	2.5	/experiments/knapen_aot/videos/R_S_yt-QJ2k6vA8aco_12.mp4	0.0	652.4002630710602	0.5082809925079346
83	268.41521096229553	response	0	2		81.0	2.5	/experiments/knapen_aot/videos/R_S_yt-QJ2k6vA8aco_12.mp4	0.0	652.9003760814667	
83	268.423378944397	movie	1		301.0	81.0	2.5	/experiments/knapen_aot/videos/R_S_yt-QJ2k6vA8aco_12.mp4	0.0	652.9085440635681	2.5084619522094727
83	270.93184089660645	fix_post	2		12.0	81.0	2.5	/experiments/knapen_aot/videos/R_S_yt-QJ2k6vA8aco_12.mp4	0.0	655.4170060157776	0.09986591339111328
84	271.03170680999756	fix_pre	0		57.0	82.0	2.5	/experiments/knapen_aot/videos/R_S_production_ID_5102663.mp4	0.0	655.5168719291687	0.483443021774292
84	271.4985628128052	response	0	2		82.0	2.5	/experiments/knapen_aot/videos/R_S_production_ID_5102663.mp4	0.0	655.9837279319763	
84	271.51514983177185	movie	1		196.0	82.0	2.5	/experiments/knapen_aot/videos/R_S_production_ID_5102663.mp4	0.0	656.000314950943	2.4999451637268066
84	274.01509499549866	fix_post	2		12.0	82.0	2.5	/experiments/knapen_aot/videos/R_S_production_ID_5102663.mp4	0.0	658.5002601146698	0.1002039909362793
85	274.11529898643494	fix_pre	0		55.0	83.0	2.5	blank	1.0	658.6004641056061	0.45803189277648926
85	274.56517481803894	response	0	2		83.0	2.5	blank	1.0	659.0503399372101	
85	274.5733308792114	movie	1		301.0	83.0	2.5	blank	1.0	659.0584959983826	2.508350133895874
85	277.0816810131073	fix_post	2		12.0	83.0	2.5	blank	1.0	661.5668461322784	0.10014891624450684
87	277.1818299293518	stim	0		193.0					661.666995048523	1.6081740856170654
87	278.7793369293213	response	0	space						663.2645020484924	
