trial_nr	onset	event_type	phase	response	nr_frames	movie_index	movie_duration	movie_file	blank	onset_abs	duration
0	0.1330280303955078	stim	0		80.0					70.53837084770203	0.7195651531219482
0	0.8414759635925293	response	0	space						71.24681878089905	
1	0.852593183517456	stim	0		121.0					71.25793600082397	1.0050928592681885
1	1.8576860427856445	stim	1		120.0					72.26302886009216	1.0000150203704834
1	2.1328279972076416	response	1	space						72.53817081451416	
2	2.857701063156128	fix_pre	0		70.0	0.0	2.5	/experiments/knapen_aot/videos/R_S_yt-5hgLXyLw82w_23.mp4	0.0	73.26304388046265	0.5846259593963623
2	3.432908058166504	response	0	space		0.0	2.5	/experiments/knapen_aot/videos/R_S_yt-5hgLXyLw82w_23.mp4	0.0	73.83825087547302	
2	3.4423270225524902	movie	1		299.0	0.0	2.5	/experiments/knapen_aot/videos/R_S_yt-5hgLXyLw82w_23.mp4	0.0	73.84766983985901	2.5069611072540283
2	5.9492881298065186	fix_post	2		12.0	0.0	2.5	/experiments/knapen_aot/videos/R_S_yt-5hgLXyLw82w_23.mp4	0.0	76.35463094711304	0.09999489784240723
3	6.049283027648926	fix_pre	0		35.0	1.0	2.5	/experiments/knapen_aot/videos/S_yt-Jo6PxivsTOg_247.mp4	0.0	76.45462584495544	0.29158711433410645
3	6.33514404296875	response	0	2		1.0	2.5	/experiments/knapen_aot/videos/S_yt-Jo6PxivsTOg_247.mp4	0.0	76.74048686027527	
3	6.340870141983032	movie	1		300.0	1.0	2.5	/experiments/knapen_aot/videos/S_yt-Jo6PxivsTOg_247.mp4	0.0	76.74621295928955	2.5083298683166504
3	8.849200010299683	fix_post	2		12.0	1.0	2.5	/experiments/knapen_aot/videos/S_yt-Jo6PxivsTOg_247.mp4	0.0	79.2545428276062	0.10008716583251953
4	8.949287176132202	fix_pre	0		58.0	2.0	2.5	/experiments/knapen_aot/videos/S_yt-2pRKCSgdXXU_30.mp4	0.0	79.35462999343872	0.48326992988586426
4	9.424349069595337	response	0	2		2.0	2.5	/experiments/knapen_aot/videos/S_yt-2pRKCSgdXXU_30.mp4	0.0	79.82969188690186	
4	9.432557106018066	movie	1		301.0	2.0	2.5	/experiments/knapen_aot/videos/S_yt-2pRKCSgdXXU_30.mp4	0.0	79.83789992332458	2.5084068775177
4	11.940963983535767	fix_post	2		12.0	2.0	2.5	/experiments/knapen_aot/videos/S_yt-2pRKCSgdXXU_30.mp4	0.0	82.34630680084229	0.09996509552001953
5	12.040929079055786	fix_pre	0		26.0	3.0	2.5	/experiments/knapen_aot/videos/S_yt-oPq1uvbw-lQ_62.mp4	0.0	82.4462718963623	0.21666502952575684
5	12.249356031417847	response	0	2		3.0	2.5	/experiments/knapen_aot/videos/S_yt-oPq1uvbw-lQ_62.mp4	0.0	82.65469884872437	
5	12.257594108581543	movie	1		300.0	3.0	2.5	/experiments/knapen_aot/videos/S_yt-oPq1uvbw-lQ_62.mp4	0.0	82.66293692588806	2.5083370208740234
5	14.765931129455566	fix_post	2		12.0	3.0	2.5	/experiments/knapen_aot/videos/S_yt-oPq1uvbw-lQ_62.mp4	0.0	85.17127394676208	0.10000205039978027
6	14.865933179855347	fix_pre	0		41.0	4.0	2.5	/experiments/knapen_aot/videos/R_S_P001_C005_UHD_SDR_2K_AVC.mp4	0.0	85.27127599716187	0.3416459560394287
6	15.19935917854309	response	0	2		4.0	2.5	/experiments/knapen_aot/videos/R_S_P001_C005_UHD_SDR_2K_AVC.mp4	0.0	85.60470199584961	
6	15.207579135894775	movie	1		172.0	4.0	2.5	/experiments/knapen_aot/videos/R_S_P001_C005_UHD_SDR_2K_AVC.mp4	0.0	85.6129219532013	2.508333921432495
6	17.71591305732727	fix_post	2		12.0	4.0	2.5	/experiments/knapen_aot/videos/R_S_P001_C005_UHD_SDR_2K_AVC.mp4	0.0	88.12125587463379	0.09991312026977539
7	17.815826177597046	fix_pre	0		93.0	5.0	2.5	/experiments/knapen_aot/videos/R_S_yt-2pRKCSgdXXU_30.mp4	0.0	88.22116899490356	0.7750179767608643
7	18.582585096359253	response	0	2		5.0	2.5	/experiments/knapen_aot/videos/R_S_yt-2pRKCSgdXXU_30.mp4	0.0	88.98792791366577	
7	18.59084415435791	movie	1		301.0	5.0	2.5	/experiments/knapen_aot/videos/R_S_yt-2pRKCSgdXXU_30.mp4	0.0	88.99618697166443	2.5083630084991455
7	21.099207162857056	fix_post	2		12.0	5.0	2.5	/experiments/knapen_aot/videos/R_S_yt-2pRKCSgdXXU_30.mp4	0.0	91.50454998016357	0.10849499702453613
8	21.207702159881592	fix_pre	0		32.0	6.0	2.5	/experiments/knapen_aot/videos/S_yt-tneuR3EtSZE_72.mp4	0.0	91.61304497718811	0.26645994186401367
8	21.465972185134888	response	0	2		6.0	2.5	/experiments/knapen_aot/videos/S_yt-tneuR3EtSZE_72.mp4	0.0	91.8713150024414	
8	21.474162101745605	movie	1		301.0	6.0	2.5	/experiments/knapen_aot/videos/S_yt-tneuR3EtSZE_72.mp4	0.0	91.87950491905212	2.5083730220794678
8	23.982535123825073	fix_post	2		12.0	6.0	2.5	/experiments/knapen_aot/videos/S_yt-tneuR3EtSZE_72.mp4	0.0	94.38787794113159	0.10004091262817383
9	24.082576036453247	fix_pre	0		55.0	7.0	2.5	blank	1.0	94.48791885375977	0.45821714401245117
9	24.53263211250305	response	0	2		7.0	2.5	blank	1.0	94.93797492980957	
9	24.5407931804657	movie	1		301.0	7.0	2.5	blank	1.0	94.94613599777222	2.508288860321045
9	27.049082040786743	fix_post	2		12.0	7.0	2.5	blank	1.0	97.45442485809326	0.10011005401611328
10	27.149192094802856	fix_pre	0		27.0	8.0	2.5	/experiments/knapen_aot/videos/S_yt-b0IfGcoHfD0_83.mp4	0.0	97.55453491210938	0.2249889373779297
10	27.36594009399414	response	0	2		8.0	2.5	/experiments/knapen_aot/videos/S_yt-b0IfGcoHfD0_83.mp4	0.0	97.77128291130066	
10	27.374181032180786	movie	1		300.0	8.0	2.5	/experiments/knapen_aot/videos/S_yt-b0IfGcoHfD0_83.mp4	0.0	97.7795238494873	2.508368968963623
10	29.88255000114441	fix_post	2		12.0	8.0	2.5	/experiments/knapen_aot/videos/S_yt-b0IfGcoHfD0_83.mp4	0.0	100.28789281845093	0.0999000072479248
11	29.982450008392334	fix_pre	0		39.0	9.0	2.5	/experiments/knapen_aot/videos/R_S_yt-iHmshS63rBc_329.mp4	0.0	100.38779282569885	0.32508301734924316
11	30.299270153045654	response	0	2		9.0	2.5	/experiments/knapen_aot/videos/R_S_yt-iHmshS63rBc_329.mp4	0.0	100.70461297035217	
11	30.307533025741577	movie	1		298.0	9.0	2.5	/experiments/knapen_aot/videos/R_S_yt-iHmshS63rBc_329.mp4	0.0	100.7128758430481	2.5083069801330566
11	32.815840005874634	fix_post	2		12.0	9.0	2.5	/experiments/knapen_aot/videos/R_S_yt-iHmshS63rBc_329.mp4	0.0	103.22118282318115	0.09998011589050293
12	32.91582012176514	fix_pre	0		27.0	10.0	2.5	/experiments/knapen_aot/videos/R_S_yt-IlW1U39Dga4_5.mp4	0.0	103.32116293907166	0.22497296333312988
12	33.13251495361328	response	0	2		10.0	2.5	/experiments/knapen_aot/videos/R_S_yt-IlW1U39Dga4_5.mp4	0.0	103.5378577709198	
12	33.14079308509827	movie	1		301.0	10.0	2.5	/experiments/knapen_aot/videos/R_S_yt-IlW1U39Dga4_5.mp4	0.0	103.54613590240479	2.508384943008423
12	35.64917802810669	fix_post	2		12.0	10.0	2.5	/experiments/knapen_aot/videos/R_S_yt-IlW1U39Dga4_5.mp4	0.0	106.05452084541321	0.09997010231018066
13	35.74914813041687	fix_pre	0		18.0	11.0	2.5	/experiments/knapen_aot/videos/S_G007_C004_UHD_SDR_2K_AVC.mp4	0.0	106.15449094772339	0.15112805366516113
13	35.89089107513428	response	0	2		11.0	2.5	/experiments/knapen_aot/videos/S_G007_C004_UHD_SDR_2K_AVC.mp4	0.0	106.2962338924408	
13	35.90027618408203	movie	1		166.0	11.0	2.5	/experiments/knapen_aot/videos/S_G007_C004_UHD_SDR_2K_AVC.mp4	0.0	106.30561900138855	2.5071828365325928
13	38.407459020614624	fix_post	2		12.0	11.0	2.5	/experiments/knapen_aot/videos/S_G007_C004_UHD_SDR_2K_AVC.mp4	0.0	108.81280183792114	0.09996604919433594
14	38.50742506980896	fix_pre	0		35.0	12.0	2.5	/experiments/knapen_aot/videos/R_S_yt-SyePE8wOlxs_321.mp4	0.0	108.91276788711548	0.29168105125427246
14	38.79090905189514	response	0	2		12.0	2.5	/experiments/knapen_aot/videos/R_S_yt-SyePE8wOlxs_321.mp4	0.0	109.19625186920166	
14	38.79910612106323	movie	1		300.0	12.0	2.5	/experiments/knapen_aot/videos/R_S_yt-SyePE8wOlxs_321.mp4	0.0	109.20444893836975	2.508293867111206
14	41.30739998817444	fix_post	2		12.0	12.0	2.5	/experiments/knapen_aot/videos/R_S_yt-SyePE8wOlxs_321.mp4	0.0	111.71274280548096	0.10001611709594727
15	41.407416105270386	fix_pre	0		56.0	13.0	2.5	blank	1.0	111.8127589225769	0.4666919708251953
15	41.858314037323	response	0	2		13.0	2.5	blank	1.0	112.26365685462952	
15	41.87410807609558	movie	1		301.0	13.0	2.5	blank	1.0	112.2794508934021	2.508263111114502
15	44.38237118721008	fix_post	2		12.0	13.0	2.5	blank	1.0	114.7877140045166	0.09999489784240723
16	44.48236608505249	fix_pre	0		29.0	14.0	2.5	/experiments/knapen_aot/videos/R_S_yt-kAUL5o7i5mo_116.mp4	0.0	114.88770890235901	0.2416980266571045
16	44.71585297584534	response	0	2		14.0	2.5	/experiments/knapen_aot/videos/R_S_yt-kAUL5o7i5mo_116.mp4	0.0	115.12119579315186	
16	44.724064111709595	movie	1		300.0	14.0	2.5	/experiments/knapen_aot/videos/R_S_yt-kAUL5o7i5mo_116.mp4	0.0	115.12940692901611	2.508312940597534
16	47.23237705230713	fix_post	2		12.0	14.0	2.5	/experiments/knapen_aot/videos/R_S_yt-kAUL5o7i5mo_116.mp4	0.0	117.63771986961365	0.10002493858337402
17	47.3324019908905	fix_pre	0		41.0	15.0	2.5	/experiments/knapen_aot/videos/S_ILSVRC2015_train_00601000.mp4	0.0	117.73774480819702	0.34163618087768555
17	47.66585898399353	response	0	2		15.0	2.5	/experiments/knapen_aot/videos/S_ILSVRC2015_train_00601000.mp4	0.0	118.07120180130005	
17	47.67403817176819	movie	1		300.0	15.0	2.5	/experiments/knapen_aot/videos/S_ILSVRC2015_train_00601000.mp4	0.0	118.0793809890747	2.508349895477295
17	50.18238806724548	fix_post	2		12.0	15.0	2.5	/experiments/knapen_aot/videos/S_ILSVRC2015_train_00601000.mp4	0.0	120.587730884552	0.10002303123474121
18	50.282411098480225	fix_pre	0		30.0	16.0	2.5	/experiments/knapen_aot/videos/R_S_yt-oPq1uvbw-lQ_62.mp4	0.0	120.68775391578674	0.24988603591918945
18	50.524118185043335	response	0	2		16.0	2.5	/experiments/knapen_aot/videos/R_S_yt-oPq1uvbw-lQ_62.mp4	0.0	120.92946100234985	
18	50.532297134399414	movie	1		301.0	16.0	2.5	/experiments/knapen_aot/videos/R_S_yt-oPq1uvbw-lQ_62.mp4	0.0	120.93763995170593	2.508568048477173
18	53.04086518287659	fix_post	2		12.0	16.0	2.5	/experiments/knapen_aot/videos/R_S_yt-oPq1uvbw-lQ_62.mp4	0.0	123.4462080001831	0.09989380836486816
19	53.140758991241455	fix_pre	0		19.0	17.0	2.5	/experiments/knapen_aot/videos/S_yt-Xegmd8whqBs_230.mp4	0.0	123.54610180854797	0.15819406509399414
19	53.29084801673889	response	0	2		17.0	2.5	/experiments/knapen_aot/videos/S_yt-Xegmd8whqBs_230.mp4	0.0	123.69619083404541	
19	53.29895305633545	movie	1		301.0	17.0	2.5	/experiments/knapen_aot/videos/S_yt-Xegmd8whqBs_230.mp4	0.0	123.70429587364197	2.5083069801330566
19	55.807260036468506	fix_post	2		12.0	17.0	2.5	/experiments/knapen_aot/videos/S_yt-Xegmd8whqBs_230.mp4	0.0	126.21260285377502	0.1000509262084961
20	55.907310962677	fix_pre	0		41.0	18.0	2.5	/experiments/knapen_aot/videos/S_yt-GfPep7IhZIU_47.mp4	0.0	126.31265377998352	0.34168410301208496
20	56.24088096618652	response	0	2		18.0	2.5	/experiments/knapen_aot/videos/S_yt-GfPep7IhZIU_47.mp4	0.0	126.64622378349304	
20	56.24899506568909	movie	1		301.0	18.0	2.5	/experiments/knapen_aot/videos/S_yt-GfPep7IhZIU_47.mp4	0.0	126.6543378829956	2.5083749294281006
20	58.75736999511719	fix_post	2		12.0	18.0	2.5	/experiments/knapen_aot/videos/S_yt-GfPep7IhZIU_47.mp4	0.0	129.1627128124237	0.09995007514953613
21	58.857320070266724	fix_pre	0		28.0	19.0	2.5	/experiments/knapen_aot/videos/R_S_ILSVRC2015_train_00569006.mp4	0.0	129.26266288757324	0.23332810401916504
21	59.082465171813965	response	0	2		19.0	2.5	/experiments/knapen_aot/videos/R_S_ILSVRC2015_train_00569006.mp4	0.0	129.48780798912048	
21	59.09064817428589	movie	1		300.0	19.0	2.5	/experiments/knapen_aot/videos/R_S_ILSVRC2015_train_00569006.mp4	0.0	129.4959909915924	2.508394956588745
21	61.599043130874634	fix_post	2		12.0	19.0	2.5	/experiments/knapen_aot/videos/R_S_ILSVRC2015_train_00569006.mp4	0.0	132.00438594818115	0.09998893737792969
22	61.69903206825256	fix_pre	0		26.0	20.0	2.5	/experiments/knapen_aot/videos/S_yt-3DM_SqT4RII_10.mp4	0.0	132.10437488555908	0.21658611297607422
22	61.90740513801575	response	0	2		20.0	2.5	/experiments/knapen_aot/videos/S_yt-3DM_SqT4RII_10.mp4	0.0	132.31274795532227	
22	61.91561818122864	movie	1		301.0	20.0	2.5	/experiments/knapen_aot/videos/S_yt-3DM_SqT4RII_10.mp4	0.0	132.32096099853516	2.508358955383301
22	64.42397713661194	fix_post	2		11.0	20.0	2.5	/experiments/knapen_aot/videos/S_yt-3DM_SqT4RII_10.mp4	0.0	134.82931995391846	0.10108494758605957
23	64.525062084198	fix_pre	0		28.0	21.0	2.5	blank	1.0	134.93040490150452	0.23222589492797852
23	64.74906897544861	response	0	2		21.0	2.5	blank	1.0	135.15441179275513	
23	64.75728797912598	movie	1		301.0	21.0	2.5	blank	1.0	135.1626307964325	2.5083250999450684
23	67.26561307907104	fix_post	2		12.0	21.0	2.5	blank	1.0	137.67095589637756	0.10003805160522461
24	67.36565113067627	fix_pre	0		39.0	22.0	2.5	/experiments/knapen_aot/videos/R_S_yt-gikcYT6ZLzA_7.mp4	0.0	137.7709939479828	0.32596683502197266
24	67.68236207962036	response	0	2		22.0	2.5	/experiments/knapen_aot/videos/R_S_yt-gikcYT6ZLzA_7.mp4	0.0	138.08770489692688	
24	67.69161796569824	movie	1		299.0	22.0	2.5	/experiments/knapen_aot/videos/R_S_yt-gikcYT6ZLzA_7.mp4	0.0	138.09696078300476	2.5073201656341553
24	70.1989381313324	fix_post	2		12.0	22.0	2.5	/experiments/knapen_aot/videos/R_S_yt-gikcYT6ZLzA_7.mp4	0.0	140.60428094863892	0.09996199607849121
25	70.29890012741089	fix_pre	0		18.0	23.0	2.5	/experiments/knapen_aot/videos/S_yt-nqRBIR8dFYc_328.mp4	0.0	140.7042429447174	0.14998292922973633
25	70.4407651424408	response	0	2		23.0	2.5	/experiments/knapen_aot/videos/S_yt-nqRBIR8dFYc_328.mp4	0.0	140.84610795974731	
25	70.44888305664062	movie	1		301.0	23.0	2.5	/experiments/knapen_aot/videos/S_yt-nqRBIR8dFYc_328.mp4	0.0	140.85422587394714	2.508394956588745
25	72.95727801322937	fix_post	2		12.0	23.0	2.5	/experiments/knapen_aot/videos/S_yt-nqRBIR8dFYc_328.mp4	0.0	143.3626208305359	0.10001802444458008
26	73.05729603767395	fix_pre	0		45.0	24.0	2.5	/experiments/knapen_aot/videos/R_S_ILSVRC2015_test_00001002.mp4	0.0	143.46263885498047	0.37493205070495605
26	73.42406105995178	response	0	2		24.0	2.5	/experiments/knapen_aot/videos/R_S_ILSVRC2015_test_00001002.mp4	0.0	143.8294038772583	
26	73.4322280883789	movie	1		301.0	24.0	2.5	/experiments/knapen_aot/videos/R_S_ILSVRC2015_test_00001002.mp4	0.0	143.83757090568542	2.5083119869232178
26	75.94054007530212	fix_post	2		12.0	24.0	2.5	/experiments/knapen_aot/videos/R_S_ILSVRC2015_test_00001002.mp4	0.0	146.34588289260864	0.10005497932434082
27	76.04059505462646	fix_pre	0		23.0	25.0	2.5	/experiments/knapen_aot/videos/S_yt-gaXgXGEanCk_140.mp4	0.0	146.44593787193298	0.19260692596435547
27	76.22406697273254	response	0	2		25.0	2.5	/experiments/knapen_aot/videos/S_yt-gaXgXGEanCk_140.mp4	0.0	146.62940979003906	
27	76.23320198059082	movie	1		301.0	25.0	2.5	/experiments/knapen_aot/videos/S_yt-gaXgXGEanCk_140.mp4	0.0	146.63854479789734	2.507387161254883
27	78.7405891418457	fix_post	2		12.0	25.0	2.5	/experiments/knapen_aot/videos/S_yt-gaXgXGEanCk_140.mp4	0.0	149.14593195915222	0.10001802444458008
28	78.84060716629028	fix_pre	0		30.0	26.0	2.5	/experiments/knapen_aot/videos/R_S_yt-JTBXPfbkjsA_11.mp4	0.0	149.2459499835968	0.24996399879455566
28	79.08234405517578	response	0	2		26.0	2.5	/experiments/knapen_aot/videos/R_S_yt-JTBXPfbkjsA_11.mp4	0.0	149.4876868724823	
28	79.09057116508484	movie	1		301.0	26.0	2.5	/experiments/knapen_aot/videos/R_S_yt-JTBXPfbkjsA_11.mp4	0.0	149.49591398239136	2.5082719326019287
28	81.59884309768677	fix_post	2		12.0	26.0	2.5	/experiments/knapen_aot/videos/R_S_yt-JTBXPfbkjsA_11.mp4	0.0	152.0041859149933	0.10024499893188477
29	81.69908809661865	fix_pre	0		18.0	27.0	2.5	/experiments/knapen_aot/videos/R_S_ILSVRC2015_train_00404004.mp4	0.0	152.10443091392517	0.14978694915771484
29	81.84067106246948	response	0	2		27.0	2.5	/experiments/knapen_aot/videos/R_S_ILSVRC2015_train_00404004.mp4	0.0	152.246013879776	
29	81.84887504577637	movie	1		301.0	27.0	2.5	/experiments/knapen_aot/videos/R_S_ILSVRC2015_train_00404004.mp4	0.0	152.25421786308289	2.5082991123199463
29	84.35717415809631	fix_post	2		12.0	27.0	2.5	/experiments/knapen_aot/videos/R_S_ILSVRC2015_train_00404004.mp4	0.0	154.76251697540283	0.10004901885986328
30	84.45722317695618	fix_pre	0		22.0	28.0	2.5	blank	1.0	154.8625659942627	0.18334484100341797
30	84.6323070526123	response	0	2		28.0	2.5	blank	1.0	155.03764986991882	
30	84.6405680179596	movie	1		301.0	28.0	2.5	blank	1.0	155.0459108352661	2.5083110332489014
30	87.1488790512085	fix_post	2		12.0	28.0	2.5	blank	1.0	157.55422186851501	0.10000205039978027
31	87.24888110160828	fix_pre	0		29.0	29.0	2.5	/experiments/knapen_aot/videos/S_pexels-c-technical-6754008.mp4	0.0	157.6542239189148	0.24164199829101562
31	87.47485113143921	response	0	2		29.0	2.5	/experiments/knapen_aot/videos/S_pexels-c-technical-6754008.mp4	0.0	157.88019394874573	
31	87.49052309989929	movie	1		189.0	29.0	2.5	/experiments/knapen_aot/videos/S_pexels-c-technical-6754008.mp4	0.0	157.8958659172058	2.5083799362182617
31	89.99890303611755	fix_post	2		12.0	29.0	2.5	/experiments/knapen_aot/videos/S_pexels-c-technical-6754008.mp4	0.0	160.40424585342407	0.09998297691345215
32	90.098886013031	fix_pre	0		31.0	30.0	2.5	/experiments/knapen_aot/videos/R_S_G007_C004_UHD_SDR_2K_AVC.mp4	0.0	160.50422883033752	0.259166955947876
32	90.34899497032166	response	0	2		30.0	2.5	/experiments/knapen_aot/videos/R_S_G007_C004_UHD_SDR_2K_AVC.mp4	0.0	160.75433778762817	
32	90.35805296897888	movie	1		179.0	30.0	2.5	/experiments/knapen_aot/videos/R_S_G007_C004_UHD_SDR_2K_AVC.mp4	0.0	160.7633957862854	2.5073940753936768
32	92.86544704437256	fix_post	2		12.0	30.0	2.5	/experiments/knapen_aot/videos/R_S_G007_C004_UHD_SDR_2K_AVC.mp4	0.0	163.27078986167908	0.10018801689147949
33	92.96563506126404	fix_pre	0		15.0	31.0	2.5	/experiments/knapen_aot/videos/S_yt-YOLaQ53ooks_195.mp4	0.0	163.37097787857056	0.12488293647766113
33	93.08225703239441	response	0	4		31.0	2.5	/experiments/knapen_aot/videos/S_yt-YOLaQ53ooks_195.mp4	0.0	163.48759984970093	
33	93.0905179977417	movie	1		301.0	31.0	2.5	/experiments/knapen_aot/videos/S_yt-YOLaQ53ooks_195.mp4	0.0	163.49586081504822	2.508329153060913
33	95.59884715080261	fix_post	2		12.0	31.0	2.5	/experiments/knapen_aot/videos/S_yt-YOLaQ53ooks_195.mp4	0.0	166.00418996810913	0.09992694854736328
34	95.69877409934998	fix_pre	0		27.0	32.0	2.5	/experiments/knapen_aot/videos/R_S_yt-MyL1VlXiZa4_25.mp4	0.0	166.1041169166565	0.22502803802490234
34	95.91560411453247	response	0	2		32.0	2.5	/experiments/knapen_aot/videos/R_S_yt-MyL1VlXiZa4_25.mp4	0.0	166.320946931839	
34	95.92380213737488	movie	1		298.0	32.0	2.5	/experiments/knapen_aot/videos/R_S_yt-MyL1VlXiZa4_25.mp4	0.0	166.3291449546814	2.508354902267456
34	98.43215703964233	fix_post	2		12.0	32.0	2.5	/experiments/knapen_aot/videos/R_S_yt-MyL1VlXiZa4_25.mp4	0.0	168.83749985694885	0.10005497932434082
35	98.53221201896667	fix_pre	0		23.0	33.0	2.5	/experiments/knapen_aot/videos/R_S_yt-YLcmfyfIokU_64.mp4	0.0	168.9375548362732	0.19153809547424316
35	98.71557807922363	response	0	4		33.0	2.5	/experiments/knapen_aot/videos/R_S_yt-YLcmfyfIokU_64.mp4	0.0	169.12092089653015	
35	98.72375011444092	movie	1		301.0	33.0	2.5	/experiments/knapen_aot/videos/R_S_yt-YLcmfyfIokU_64.mp4	0.0	169.12909293174744	2.5083839893341064
35	101.23213410377502	fix_post	2		12.0	33.0	2.5	/experiments/knapen_aot/videos/R_S_yt-YLcmfyfIokU_64.mp4	0.0	171.63747692108154	0.10022401809692383
36	101.33235812187195	fix_pre	0		24.0	34.0	2.5	blank	1.0	171.73770093917847	0.19972586631774902
36	101.52382516860962	response	0	2		34.0	2.5	blank	1.0	171.92916798591614	
36	101.5320839881897	movie	1		301.0	34.0	2.5	blank	1.0	171.93742680549622	2.5083110332489014
36	104.0403950214386	fix_post	2		12.0	34.0	2.5	blank	1.0	174.44573783874512	0.10008716583251953
37	104.14048218727112	fix_pre	0		27.0	35.0	2.5	/experiments/knapen_aot/videos/R_S_yt-pPIHiIYSjW8_653.mp4	0.0	174.54582500457764	0.22486186027526855
37	104.3572051525116	response	0	4		35.0	2.5	/experiments/knapen_aot/videos/R_S_yt-pPIHiIYSjW8_653.mp4	0.0	174.76254796981812	
37	104.36534404754639	movie	1		301.0	35.0	2.5	/experiments/knapen_aot/videos/R_S_yt-pPIHiIYSjW8_653.mp4	0.0	174.7706868648529	2.508389949798584
37	106.87373399734497	fix_post	2		12.0	35.0	2.5	/experiments/knapen_aot/videos/R_S_yt-pPIHiIYSjW8_653.mp4	0.0	177.2790768146515	0.0999910831451416
38	106.97372508049011	fix_pre	0		15.0	36.0	2.5	/experiments/knapen_aot/videos/R_S_yt-Dlk44AGz-xM_37.mp4	0.0	177.37906789779663	0.12496495246887207
38	107.09049105644226	response	0	2		36.0	2.5	/experiments/knapen_aot/videos/R_S_yt-Dlk44AGz-xM_37.mp4	0.0	177.49583387374878	
38	107.09869003295898	movie	1		299.0	36.0	2.5	/experiments/knapen_aot/videos/R_S_yt-Dlk44AGz-xM_37.mp4	0.0	177.5040328502655	2.5083601474761963
38	109.60705018043518	fix_post	2		12.0	36.0	2.5	/experiments/knapen_aot/videos/R_S_yt-Dlk44AGz-xM_37.mp4	0.0	180.0123929977417	0.10002493858337402
39	109.70707511901855	fix_pre	0		9.0	37.0	2.5	/experiments/knapen_aot/videos/R_S_video_inspire_texas_pecos_foggy-landscape_00018.1080-h264.mp4	0.0	180.11241793632507	0.07503795623779297
39	109.77394604682922	response	0	4		37.0	2.5	/experiments/knapen_aot/videos/R_S_video_inspire_texas_pecos_foggy-landscape_00018.1080-h264.mp4	0.0	180.17928886413574	
39	109.78211307525635	movie	1		171.0	37.0	2.5	/experiments/knapen_aot/videos/R_S_video_inspire_texas_pecos_foggy-landscape_00018.1080-h264.mp4	0.0	180.18745589256287	2.508246898651123
39	112.29035997390747	fix_post	2		12.0	37.0	2.5	/experiments/knapen_aot/videos/R_S_video_inspire_texas_pecos_foggy-landscape_00018.1080-h264.mp4	0.0	182.695702791214	0.09998321533203125
40	112.3903431892395	fix_pre	0		24.0	38.0	2.5	/experiments/knapen_aot/videos/S_ILSVRC2015_train_00074011.mp4	0.0	182.79568600654602	0.20012378692626953
40	112.58214616775513	response	0	2		38.0	2.5	/experiments/knapen_aot/videos/S_ILSVRC2015_train_00074011.mp4	0.0	182.98748898506165	
40	112.59046697616577	movie	1		301.0	38.0	2.5	/experiments/knapen_aot/videos/S_ILSVRC2015_train_00074011.mp4	0.0	182.9958097934723	2.5081491470336914
40	115.09861612319946	fix_post	2		12.0	38.0	2.5	/experiments/knapen_aot/videos/S_ILSVRC2015_train_00074011.mp4	0.0	185.50395894050598	0.10006093978881836
41	115.19867706298828	fix_pre	0		15.0	39.0	2.5	/experiments/knapen_aot/videos/R_S_yt-xgqx7tH92-c_6.mp4	0.0	185.6040198802948	0.1250009536743164
41	115.31553196907043	response	0	4		39.0	2.5	/experiments/knapen_aot/videos/R_S_yt-xgqx7tH92-c_6.mp4	0.0	185.72087478637695	
41	115.3236780166626	movie	1		301.0	39.0	2.5	/experiments/knapen_aot/videos/R_S_yt-xgqx7tH92-c_6.mp4	0.0	185.72902083396912	2.508316993713379
41	117.83199501037598	fix_post	2		12.0	39.0	2.5	/experiments/knapen_aot/videos/R_S_yt-xgqx7tH92-c_6.mp4	0.0	188.2373378276825	0.10004210472106934
42	117.93203711509705	fix_pre	0		36.0	40.0	2.5	blank	1.0	188.33737993240356	0.30071187019348145
42	118.22383618354797	response	0	2		40.0	2.5	blank	1.0	188.6291790008545	
42	118.23274898529053	movie	1		301.0	40.0	2.5	blank	1.0	188.63809180259705	2.5076100826263428
42	120.74035906791687	fix_post	2		12.0	40.0	2.5	blank	1.0	191.1457018852234	0.10003805160522461
43	120.8403971195221	fix_pre	0		41.0	41.0	2.5	/experiments/knapen_aot/videos/S_yt-iHmshS63rBc_329.mp4	0.0	191.2457399368286	0.3415670394897461
43	121.16614103317261	response	0	4		41.0	2.5	/experiments/knapen_aot/videos/S_yt-iHmshS63rBc_329.mp4	0.0	191.57148385047913	
43	121.18196415901184	movie	1		301.0	41.0	2.5	/experiments/knapen_aot/videos/S_yt-iHmshS63rBc_329.mp4	0.0	191.58730697631836	2.5083868503570557
43	123.6903510093689	fix_post	2		12.0	41.0	2.5	/experiments/knapen_aot/videos/S_yt-iHmshS63rBc_329.mp4	0.0	194.09569382667542	0.09998703002929688
44	123.7903380393982	fix_pre	0		51.0	42.0	2.5	/experiments/knapen_aot/videos/R_S_G007_C004_UHD_SDR_2K_AVC.mp4	0.0	194.1956808567047	0.4249379634857178
44	124.20707702636719	response	0	2		42.0	2.5	/experiments/knapen_aot/videos/R_S_G007_C004_UHD_SDR_2K_AVC.mp4	0.0	194.6124198436737	
44	124.21527600288391	movie	1		167.0	42.0	2.5	/experiments/knapen_aot/videos/R_S_G007_C004_UHD_SDR_2K_AVC.mp4	0.0	194.62061882019043	2.5084080696105957
44	126.7236840724945	fix_post	2		12.0	42.0	2.5	/experiments/knapen_aot/videos/R_S_G007_C004_UHD_SDR_2K_AVC.mp4	0.0	197.12902688980103	0.099945068359375
45	126.82362914085388	fix_pre	0		20.0	43.0	2.5	/experiments/knapen_aot/videos/R_S_ILSVRC2015_train_00572000.mp4	0.0	197.2289719581604	0.16661787033081055
45	126.98211097717285	response	0	4		43.0	2.5	/experiments/knapen_aot/videos/R_S_ILSVRC2015_train_00572000.mp4	0.0	197.38745379447937	
45	126.99024701118469	movie	1		301.0	43.0	2.5	/experiments/knapen_aot/videos/R_S_ILSVRC2015_train_00572000.mp4	0.0	197.3955898284912	2.508406162261963
45	129.49865317344666	fix_post	2		12.0	43.0	2.5	/experiments/knapen_aot/videos/R_S_ILSVRC2015_train_00572000.mp4	0.0	199.90399599075317	0.10000395774841309
46	129.59865713119507	fix_pre	0		32.0	44.0	2.5	/experiments/knapen_aot/videos/S_comp_A009_C001_010181A_v09_SDR_PS_FINAL_20180725_SDR_2K_AVC.mp4	0.0	200.0039999485016	0.2666139602661133
46	129.85703897476196	response	0	2		44.0	2.5	/experiments/knapen_aot/videos/S_comp_A009_C001_010181A_v09_SDR_PS_FINAL_20180725_SDR_2K_AVC.mp4	0.0	200.26238179206848	
46	129.86527109146118	movie	1		166.0	44.0	2.5	/experiments/knapen_aot/videos/S_comp_A009_C001_010181A_v09_SDR_PS_FINAL_20180725_SDR_2K_AVC.mp4	0.0	200.2706139087677	2.5084149837493896
46	132.37368607521057	fix_post	2		12.0	44.0	2.5	/experiments/knapen_aot/videos/S_comp_A009_C001_010181A_v09_SDR_PS_FINAL_20180725_SDR_2K_AVC.mp4	0.0	202.7790288925171	0.0999610424041748
47	132.47364711761475	fix_pre	0		32.0	45.0	2.5	/experiments/knapen_aot/videos/R_S_yt-8vm83GUgYxI_1.mp4	0.0	202.87898993492126	0.26665401458740234
47	132.7321720123291	response	0	4		45.0	2.5	/experiments/knapen_aot/videos/R_S_yt-8vm83GUgYxI_1.mp4	0.0	203.13751482963562	
47	132.74030113220215	movie	1		301.0	45.0	2.5	/experiments/knapen_aot/videos/R_S_yt-8vm83GUgYxI_1.mp4	0.0	203.14564394950867	2.5083789825439453
47	135.2486801147461	fix_post	2		12.0	45.0	2.5	/experiments/knapen_aot/videos/R_S_yt-8vm83GUgYxI_1.mp4	0.0	205.6540229320526	0.09993386268615723
48	135.34861397743225	fix_pre	0		18.0	46.0	2.5	/experiments/knapen_aot/videos/R_S_S003_C020_SDR_2K_AVC.mp4	0.0	205.75395679473877	0.1500260829925537
48	135.49043917655945	response	0	2		46.0	2.5	/experiments/knapen_aot/videos/R_S_S003_C020_SDR_2K_AVC.mp4	0.0	205.89578199386597	
48	135.4986400604248	movie	1		173.0	46.0	2.5	/experiments/knapen_aot/videos/R_S_S003_C020_SDR_2K_AVC.mp4	0.0	205.90398287773132	2.508333921432495
48	138.0069739818573	fix_post	2		12.0	46.0	2.5	/experiments/knapen_aot/videos/R_S_S003_C020_SDR_2K_AVC.mp4	0.0	208.41231679916382	0.0999910831451416
49	138.10696506500244	fix_pre	0		3.0	47.0	2.5	blank	1.0	208.51230788230896	0.02510690689086914
49	138.1237599849701	response	0	4		47.0	2.5	blank	1.0	208.5291028022766	
49	138.1320719718933	movie	1		301.0	47.0	2.5	blank	1.0	208.53741478919983	2.5082101821899414
49	140.64028215408325	fix_post	2		12.0	47.0	2.5	blank	1.0	211.04562497138977	0.10004782676696777
50	140.74032998085022	fix_pre	0		57.0	48.0	2.5	/experiments/knapen_aot/videos/S_yt-QXsedpZh800_275.mp4	0.0	211.14567279815674	0.47490406036376953
50	141.2070541381836	response	0	2		48.0	2.5	/experiments/knapen_aot/videos/S_yt-QXsedpZh800_275.mp4	0.0	211.6123969554901	
50	141.215234041214	movie	1		299.0	48.0	2.5	/experiments/knapen_aot/videos/S_yt-QXsedpZh800_275.mp4	0.0	211.6205768585205	2.5083041191101074
50	143.7235381603241	fix_post	2		12.0	48.0	2.5	/experiments/knapen_aot/videos/S_yt-QXsedpZh800_275.mp4	0.0	214.12888097763062	0.10006880760192871
51	143.82360696792603	fix_pre	0		158.0	49.0	2.5	/experiments/knapen_aot/videos/S_JApTAOdfunE_1251.mp4	0.0	214.22894978523254	1.3166661262512207
51	145.13204216957092	response	0	2		49.0	2.5	/experiments/knapen_aot/videos/S_JApTAOdfunE_1251.mp4	0.0	215.53738498687744	
51	145.14027309417725	movie	1		299.0	49.0	2.5	/experiments/knapen_aot/videos/S_JApTAOdfunE_1251.mp4	0.0	215.54561591148376	2.5082449913024902
51	147.64851808547974	fix_post	2		12.0	49.0	2.5	/experiments/knapen_aot/videos/S_JApTAOdfunE_1251.mp4	0.0	218.05386090278625	0.10007596015930176
52	147.74859404563904	fix_pre	0		27.0	50.0	2.5	/experiments/knapen_aot/videos/S_pexels-tima-miroshnichenko-5717005.mp4	0.0	218.15393686294556	0.22487902641296387
52	147.9652931690216	response	0	2		50.0	2.5	/experiments/knapen_aot/videos/S_pexels-tima-miroshnichenko-5717005.mp4	0.0	218.37063598632812	
52	147.973473072052	movie	1		167.0	50.0	2.5	/experiments/knapen_aot/videos/S_pexels-tima-miroshnichenko-5717005.mp4	0.0	218.37881588935852	2.508513927459717
52	150.48198699951172	fix_post	2		12.0	50.0	2.5	/experiments/knapen_aot/videos/S_pexels-tima-miroshnichenko-5717005.mp4	0.0	220.88732981681824	0.0998830795288086
53	150.58187007904053	fix_pre	0		15.0	51.0	2.5	/experiments/knapen_aot/videos/S_wc-ikynRrpJVaWp_12.mp4	0.0	220.98721289634705	0.12492203712463379
53	150.6986391544342	response	0	2		51.0	2.5	/experiments/knapen_aot/videos/S_wc-ikynRrpJVaWp_12.mp4	0.0	221.10398197174072	
53	150.70679211616516	movie	1		174.0	51.0	2.5	/experiments/knapen_aot/videos/S_wc-ikynRrpJVaWp_12.mp4	0.0	221.11213493347168	2.5085740089416504
53	153.2153661251068	fix_post	2		12.0	51.0	2.5	/experiments/knapen_aot/videos/S_wc-ikynRrpJVaWp_12.mp4	0.0	223.62070894241333	0.09982991218566895
54	153.31519603729248	fix_pre	0		22.0	52.0	2.5	/experiments/knapen_aot/videos/R_S_yt-c6kLumgTX54_7.mp4	0.0	223.720538854599	0.18329215049743652
54	153.49036812782288	response	0	2		52.0	2.5	/experiments/knapen_aot/videos/R_S_yt-c6kLumgTX54_7.mp4	0.0	223.8957109451294	
54	153.49848818778992	movie	1		301.0	52.0	2.5	/experiments/knapen_aot/videos/R_S_yt-c6kLumgTX54_7.mp4	0.0	223.90383100509644	2.5083258152008057
54	156.00681400299072	fix_post	2		12.0	52.0	2.5	/experiments/knapen_aot/videos/R_S_yt-c6kLumgTX54_7.mp4	0.0	226.41215682029724	0.09999203681945801
55	156.10680603981018	fix_pre	0		31.0	53.0	2.5	/experiments/knapen_aot/videos/R_S_yt-IlW1U39Dga4_5.mp4	0.0	226.5121488571167	0.25830793380737305
55	156.35687804222107	response	0	4		53.0	2.5	/experiments/knapen_aot/videos/R_S_yt-IlW1U39Dga4_5.mp4	0.0	226.7622208595276	
55	156.36511397361755	movie	1		301.0	53.0	2.5	/experiments/knapen_aot/videos/R_S_yt-IlW1U39Dga4_5.mp4	0.0	226.77045679092407	2.508388042449951
55	158.8735020160675	fix_post	2		12.0	53.0	2.5	/experiments/knapen_aot/videos/R_S_yt-IlW1U39Dga4_5.mp4	0.0	229.27884483337402	0.09999799728393555
56	158.97350001335144	fix_pre	0		21.0	54.0	2.5	/experiments/knapen_aot/videos/S_yt-RKo978aBdzw_173.mp4	0.0	229.37884283065796	0.17550015449523926
56	159.14026498794556	response	0	2		54.0	2.5	/experiments/knapen_aot/videos/S_yt-RKo978aBdzw_173.mp4	0.0	229.54560780525208	
56	159.14900016784668	movie	1		298.0	54.0	2.5	/experiments/knapen_aot/videos/S_yt-RKo978aBdzw_173.mp4	0.0	229.5543429851532	2.5078399181365967
56	161.65684008598328	fix_post	2		12.0	54.0	2.5	/experiments/knapen_aot/videos/S_yt-RKo978aBdzw_173.mp4	0.0	232.0621829032898	0.09993410110473633
57	161.756774187088	fix_pre	0		20.0	55.0	2.5	blank	1.0	232.16211700439453	0.16664385795593262
57	161.91523003578186	response	0	2		55.0	2.5	blank	1.0	232.32057285308838	
57	161.92341804504395	movie	1		301.0	55.0	2.5	blank	1.0	232.32876086235046	2.508363962173462
57	164.4317820072174	fix_post	2		12.0	55.0	2.5	blank	1.0	234.83712482452393	0.10001897811889648
58	164.5318009853363	fix_pre	0		39.0	56.0	2.5	/experiments/knapen_aot/videos/R_S_IrGYVLkWeQs_9.mp4	0.0	234.93714380264282	0.3254880905151367
58	164.84098505973816	response	0	4		56.0	2.5	/experiments/knapen_aot/videos/R_S_IrGYVLkWeQs_9.mp4	0.0	235.24632787704468	
58	164.85728907585144	movie	1		301.0	56.0	2.5	/experiments/knapen_aot/videos/R_S_IrGYVLkWeQs_9.mp4	0.0	235.26263189315796	2.5078070163726807
58	167.36509609222412	fix_post	2		12.0	56.0	2.5	/experiments/knapen_aot/videos/R_S_IrGYVLkWeQs_9.mp4	0.0	237.77043890953064	0.09999704360961914
59	167.46509313583374	fix_pre	0		96.0	57.0	2.5	/experiments/knapen_aot/videos/R_S_production_ID_4765899.mp4	0.0	237.87043595314026	0.799954891204834
59	168.25688219070435	response	0	2		57.0	2.5	/experiments/knapen_aot/videos/R_S_production_ID_4765899.mp4	0.0	238.66222500801086	
59	168.26504802703857	movie	1		169.0	57.0	2.5	/experiments/knapen_aot/videos/R_S_production_ID_4765899.mp4	0.0	238.6703908443451	2.508415937423706
59	170.77346396446228	fix_post	2		12.0	57.0	2.5	/experiments/knapen_aot/videos/R_S_production_ID_4765899.mp4	0.0	241.1788067817688	0.10000419616699219
60	170.87346816062927	fix_pre	0		23.0	58.0	2.5	/experiments/knapen_aot/videos/S_yt-28ODBE9bVh0_44.mp4	0.0	241.2788109779358	0.1921079158782959
60	171.05691814422607	response	0	2		58.0	2.5	/experiments/knapen_aot/videos/S_yt-28ODBE9bVh0_44.mp4	0.0	241.4622609615326	
60	171.06557607650757	movie	1		301.0	58.0	2.5	/experiments/knapen_aot/videos/S_yt-28ODBE9bVh0_44.mp4	0.0	241.4709188938141	2.5078060626983643
60	173.57338213920593	fix_post	2		12.0	58.0	2.5	/experiments/knapen_aot/videos/S_yt-28ODBE9bVh0_44.mp4	0.0	243.97872495651245	0.10002994537353516
61	173.67341208457947	fix_pre	0		14.0	59.0	2.5	/experiments/knapen_aot/videos/S_S003_C020_SDR_2K_AVC.mp4	0.0	244.078754901886	0.11664009094238281
61	173.78176307678223	response	0	2		59.0	2.5	/experiments/knapen_aot/videos/S_S003_C020_SDR_2K_AVC.mp4	0.0	244.18710589408875	
61	173.79005217552185	movie	1		173.0	59.0	2.5	/experiments/knapen_aot/videos/S_S003_C020_SDR_2K_AVC.mp4	0.0	244.19539499282837	2.508291006088257
61	176.2983431816101	fix_post	2		12.0	59.0	2.5	/experiments/knapen_aot/videos/S_S003_C020_SDR_2K_AVC.mp4	0.0	246.70368599891663	0.10008597373962402
62	176.39842915534973	fix_pre	0		18.0	60.0	2.5	/experiments/knapen_aot/videos/S_yt-STL3ejY9u_Q_73.mp4	0.0	246.80377197265625	0.14991402626037598
62	176.54021000862122	response	0	2		60.0	2.5	/experiments/knapen_aot/videos/S_yt-STL3ejY9u_Q_73.mp4	0.0	246.94555282592773	
62	176.5483431816101	movie	1		301.0	60.0	2.5	/experiments/knapen_aot/videos/S_yt-STL3ejY9u_Q_73.mp4	0.0	246.95368599891663	2.508389949798584
62	179.0567331314087	fix_post	2		12.0	60.0	2.5	/experiments/knapen_aot/videos/S_yt-STL3ejY9u_Q_73.mp4	0.0	249.4620759487152	0.10000491142272949
63	179.15673804283142	fix_pre	0		39.0	61.0	2.5	blank	1.0	249.56208086013794	0.32535314559936523
63	179.47345995903015	response	0	2		61.0	2.5	blank	1.0	249.87880277633667	
63	179.4820911884308	movie	1		301.0	61.0	2.5	blank	1.0	249.8874340057373	2.507894992828369
63	181.98998618125916	fix_post	2		12.0	61.0	2.5	blank	1.0	252.39532899856567	0.10002493858337402
64	182.09001111984253	fix_pre	0		43.0	62.0	2.5	/experiments/knapen_aot/videos/R_S_ILSVRC2015_train_00165011.mp4	0.0	252.49535393714905	0.35829997062683105
64	182.44010210037231	response	0	4		62.0	2.5	/experiments/knapen_aot/videos/R_S_ILSVRC2015_train_00165011.mp4	0.0	252.84544491767883	
64	182.44831109046936	movie	1		301.0	62.0	2.5	/experiments/knapen_aot/videos/R_S_ILSVRC2015_train_00165011.mp4	0.0	252.85365390777588	2.50838303565979
64	184.95669412612915	fix_post	2		12.0	62.0	2.5	/experiments/knapen_aot/videos/R_S_ILSVRC2015_train_00165011.mp4	0.0	255.36203694343567	0.0999288558959961
65	185.05662298202515	fix_pre	0		20.0	63.0	2.5	/experiments/knapen_aot/videos/S_yt-nqRBIR8dFYc_328.mp4	0.0	255.46196579933167	0.1668071746826172
65	185.2151529788971	response	0	2		63.0	2.5	/experiments/knapen_aot/videos/S_yt-nqRBIR8dFYc_328.mp4	0.0	255.6204957962036	
65	185.22343015670776	movie	1		301.0	63.0	2.5	/experiments/knapen_aot/videos/S_yt-nqRBIR8dFYc_328.mp4	0.0	255.62877297401428	2.5082359313964844
65	187.73166608810425	fix_post	2		12.0	63.0	2.5	/experiments/knapen_aot/videos/S_yt-nqRBIR8dFYc_328.mp4	0.0	258.13700890541077	0.09996509552001953
66	187.83163118362427	fix_pre	0		45.0	64.0	2.5	/experiments/knapen_aot/videos/S_yt-t23g0U_hAgg_32.mp4	0.0	258.2369740009308	0.37497878074645996
66	188.1984031200409	response	0	2		64.0	2.5	/experiments/knapen_aot/videos/S_yt-t23g0U_hAgg_32.mp4	0.0	258.6037459373474	
66	188.20660996437073	movie	1		301.0	64.0	2.5	/experiments/knapen_aot/videos/S_yt-t23g0U_hAgg_32.mp4	0.0	258.61195278167725	2.5083529949188232
66	190.71496295928955	fix_post	2		12.0	64.0	2.5	/experiments/knapen_aot/videos/S_yt-t23g0U_hAgg_32.mp4	0.0	261.12030577659607	0.0999901294708252
67	190.81495308876038	fix_pre	0		22.0	65.0	2.5	/experiments/knapen_aot/videos/R_S_ILSVRC2015_train_00628000.mp4	0.0	261.2202959060669	0.1833510398864746
67	190.99017000198364	response	0	2		65.0	2.5	/experiments/knapen_aot/videos/R_S_ILSVRC2015_train_00628000.mp4	0.0	261.39551281929016	
67	190.99830412864685	movie	1		301.0	65.0	2.5	/experiments/knapen_aot/videos/R_S_ILSVRC2015_train_00628000.mp4	0.0	261.40364694595337	2.508286952972412
67	193.50659108161926	fix_post	2		12.0	65.0	2.5	/experiments/knapen_aot/videos/R_S_ILSVRC2015_train_00628000.mp4	0.0	263.9119338989258	0.10042500495910645
68	193.60701608657837	fix_pre	0		49.0	66.0	2.5	/experiments/knapen_aot/videos/S_yt-MUfa26F8dfE_97.mp4	0.0	264.0123589038849	0.40793609619140625
68	193.99926710128784	response	0	4		66.0	2.5	/experiments/knapen_aot/videos/S_yt-MUfa26F8dfE_97.mp4	0.0	264.40460991859436	
68	194.01495218276978	movie	1		301.0	66.0	2.5	/experiments/knapen_aot/videos/S_yt-MUfa26F8dfE_97.mp4	0.0	264.4202950000763	2.5083298683166504
68	196.52328205108643	fix_post	2		12.0	66.0	2.5	/experiments/knapen_aot/videos/S_yt-MUfa26F8dfE_97.mp4	0.0	266.92862486839294	0.10003209114074707
69	196.62331414222717	fix_pre	0		27.0	67.0	2.5	/experiments/knapen_aot/videos/R_S_yt-Co4dzHwupRM_18.mp4	0.0	267.0286569595337	0.22488689422607422
69	196.8400809764862	response	0	2		67.0	2.5	/experiments/knapen_aot/videos/R_S_yt-Co4dzHwupRM_18.mp4	0.0	267.2454237937927	
69	196.84820103645325	movie	1		301.0	67.0	2.5	/experiments/knapen_aot/videos/R_S_yt-Co4dzHwupRM_18.mp4	0.0	267.25354385375977	2.5083961486816406
69	199.3565971851349	fix_post	2		12.0	67.0	2.5	/experiments/knapen_aot/videos/R_S_yt-Co4dzHwupRM_18.mp4	0.0	269.7619400024414	0.09996795654296875
70	199.45656514167786	fix_pre	0		20.0	68.0	2.5	blank	1.0	269.8619079589844	0.16670799255371094
70	199.60759711265564	response	0	4		68.0	2.5	blank	1.0	270.01293992996216	
70	199.62327313423157	movie	1		301.0	68.0	2.5	blank	1.0	270.0286159515381	2.508375883102417
70	202.13164901733398	fix_post	2		12.0	68.0	2.5	blank	1.0	272.5369918346405	0.0999300479888916
71	202.23157906532288	fix_pre	0		27.0	69.0	2.5	/experiments/knapen_aot/videos/R_S_yt-2kPrGwVmRfE_169.mp4	0.0	272.6369218826294	0.224992036819458
71	202.44834113121033	response	0	2		69.0	2.5	/experiments/knapen_aot/videos/R_S_yt-2kPrGwVmRfE_169.mp4	0.0	272.85368394851685	
71	202.45657110214233	movie	1		301.0	69.0	2.5	/experiments/knapen_aot/videos/R_S_yt-2kPrGwVmRfE_169.mp4	0.0	272.86191391944885	2.5083670616149902
71	204.96493816375732	fix_post	2		12.0	69.0	2.5	/experiments/knapen_aot/videos/R_S_yt-2kPrGwVmRfE_169.mp4	0.0	275.37028098106384	0.10002589225769043
72	205.06496405601501	fix_pre	0		30.0	70.0	2.5	/experiments/knapen_aot/videos/S_S005_C015_SDR_2K_AVC.mp4	0.0	275.47030687332153	0.25023412704467773
72	205.30675315856934	response	0	2		70.0	2.5	/experiments/knapen_aot/videos/S_S005_C015_SDR_2K_AVC.mp4	0.0	275.71209597587585	
72	205.3151981830597	movie	1		171.0	70.0	2.5	/experiments/knapen_aot/videos/S_S005_C015_SDR_2K_AVC.mp4	0.0	275.7205410003662	2.5079708099365234
72	207.82316899299622	fix_post	2		12.0	70.0	2.5	/experiments/knapen_aot/videos/S_S005_C015_SDR_2K_AVC.mp4	0.0	278.22851181030273	0.10005497932434082
73	207.92322397232056	fix_pre	0		40.0	71.0	2.5	/experiments/knapen_aot/videos/R_S_yt-2lnxIdOTxog_157.mp4	0.0	278.3285667896271	0.33330798149108887
73	208.24835205078125	response	0	4		71.0	2.5	/experiments/knapen_aot/videos/R_S_yt-2lnxIdOTxog_157.mp4	0.0	278.65369486808777	
73	208.25653195381165	movie	1		301.0	71.0	2.5	/experiments/knapen_aot/videos/R_S_yt-2lnxIdOTxog_157.mp4	0.0	278.66187477111816	2.5083720684051514
73	210.7649040222168	fix_post	2		12.0	71.0	2.5	/experiments/knapen_aot/videos/R_S_yt-2lnxIdOTxog_157.mp4	0.0	281.1702468395233	0.0999150276184082
74	210.8648190498352	fix_pre	0		36.0	72.0	2.5	/experiments/knapen_aot/videos/S_yt-Q5wYs9vSzlA_30.mp4	0.0	281.2701618671417	0.3000779151916504
74	211.1566071510315	response	0	2		72.0	2.5	/experiments/knapen_aot/videos/S_yt-Q5wYs9vSzlA_30.mp4	0.0	281.561949968338	
74	211.16489696502686	movie	1		301.0	72.0	2.5	/experiments/knapen_aot/videos/S_yt-Q5wYs9vSzlA_30.mp4	0.0	281.5702397823334	2.5082991123199463
74	213.6731960773468	fix_post	2		12.0	72.0	2.5	/experiments/knapen_aot/videos/S_yt-Q5wYs9vSzlA_30.mp4	0.0	284.0785388946533	0.10028290748596191
75	213.77347898483276	fix_pre	0		35.0	73.0	2.5	/experiments/knapen_aot/videos/R_S_yt-2cwARrUMj40_67.mp4	0.0	284.1788218021393	0.2916440963745117
75	214.05668807029724	response	0	2		73.0	2.5	/experiments/knapen_aot/videos/R_S_yt-2cwARrUMj40_67.mp4	0.0	284.46203088760376	
75	214.06512308120728	movie	1		299.0	73.0	2.5	/experiments/knapen_aot/videos/R_S_yt-2cwARrUMj40_67.mp4	0.0	284.4704658985138	2.5080230236053467
75	216.57314610481262	fix_post	2		12.0	73.0	2.5	/experiments/knapen_aot/videos/R_S_yt-2cwARrUMj40_67.mp4	0.0	286.97848892211914	0.09999489784240723
76	216.67314100265503	fix_pre	0		95.0	74.0	2.5	/experiments/knapen_aot/videos/R_S_yt-EBuE7GbFw7U_180.mp4	0.0	287.07848381996155	0.7917139530181885
76	217.4567060470581	response	0	2		74.0	2.5	/experiments/knapen_aot/videos/R_S_yt-EBuE7GbFw7U_180.mp4	0.0	287.8620488643646	
76	217.46485495567322	movie	1		301.0	74.0	2.5	/experiments/knapen_aot/videos/R_S_yt-EBuE7GbFw7U_180.mp4	0.0	287.87019777297974	2.5083441734313965
76	219.97319912910461	fix_post	2		12.0	74.0	2.5	/experiments/knapen_aot/videos/R_S_yt-EBuE7GbFw7U_180.mp4	0.0	290.37854194641113	0.09995603561401367
77	220.07315516471863	fix_pre	0		36.0	75.0	2.5	/experiments/knapen_aot/videos/S_pexels-c-technical-6344801.mp4	0.0	290.47849798202515	0.29999685287475586
77	220.35749697685242	response	0	2		75.0	2.5	/experiments/knapen_aot/videos/S_pexels-c-technical-6344801.mp4	0.0	290.76283979415894	
77	220.37315201759338	movie	1		203.0	75.0	2.5	/experiments/knapen_aot/videos/S_pexels-c-technical-6344801.mp4	0.0	290.7784948348999	2.508244037628174
77	222.88139605522156	fix_post	2		12.0	75.0	2.5	/experiments/knapen_aot/videos/S_pexels-c-technical-6344801.mp4	0.0	293.2867388725281	0.10030794143676758
78	222.98170399665833	fix_pre	0		13.0	76.0	2.5	/experiments/knapen_aot/videos/S_yt-hZxbKZ1WCVg_24.mp4	0.0	293.38704681396484	0.10811901092529297
78	223.08169603347778	response	0	4		76.0	2.5	/experiments/knapen_aot/videos/S_yt-hZxbKZ1WCVg_24.mp4	0.0	293.4870388507843	
78	223.08982300758362	movie	1		299.0	76.0	2.5	/experiments/knapen_aot/videos/S_yt-hZxbKZ1WCVg_24.mp4	0.0	293.49516582489014	2.5083630084991455
78	225.59818601608276	fix_post	2		12.0	76.0	2.5	/experiments/knapen_aot/videos/S_yt-hZxbKZ1WCVg_24.mp4	0.0	296.0035288333893	0.09999799728393555
79	225.6981840133667	fix_pre	0		18.0	77.0	2.5	blank	1.0	296.1035268306732	0.14991998672485352
79	225.839919090271	response	0	2		77.0	2.5	blank	1.0	296.2452619075775	
79	225.84810400009155	movie	1		301.0	77.0	2.5	blank	1.0	296.25344681739807	2.508535146713257
79	228.3566391468048	fix_post	2		12.0	77.0	2.5	blank	1.0	298.7619819641113	0.09977388381958008
80	228.4564130306244	fix_pre	0		34.0	78.0	2.5	/experiments/knapen_aot/videos/R_S_yt-2SVpSaBAxsw_78.mp4	0.0	298.8617558479309	0.2834169864654541
80	228.731614112854	response	0	4		78.0	2.5	/experiments/knapen_aot/videos/R_S_yt-2SVpSaBAxsw_78.mp4	0.0	299.1369569301605	
80	228.73983001708984	movie	1		301.0	78.0	2.5	/experiments/knapen_aot/videos/R_S_yt-2SVpSaBAxsw_78.mp4	0.0	299.14517283439636	2.508273124694824
80	231.24810314178467	fix_post	2		12.0	78.0	2.5	/experiments/knapen_aot/videos/R_S_yt-2SVpSaBAxsw_78.mp4	0.0	301.6534459590912	0.09998798370361328
81	231.34809112548828	fix_pre	0		10.0	79.0	2.5	/experiments/knapen_aot/videos/R_S_yt-2pRKCSgdXXU_30.mp4	0.0	301.7534339427948	0.08336687088012695
81	231.423259973526	response	0	2		79.0	2.5	/experiments/knapen_aot/videos/R_S_yt-2pRKCSgdXXU_30.mp4	0.0	301.8286027908325	
81	231.4314579963684	movie	1		301.0	79.0	2.5	/experiments/knapen_aot/videos/R_S_yt-2pRKCSgdXXU_30.mp4	0.0	301.8368008136749	2.508355140686035
81	233.93981313705444	fix_post	2		12.0	79.0	2.5	/experiments/knapen_aot/videos/R_S_yt-2pRKCSgdXXU_30.mp4	0.0	304.34515595436096	0.0998678207397461
82	234.0396809577942	fix_pre	0		22.0	80.0	2.5	/experiments/knapen_aot/videos/S_comp_A007_C017_01156B_v02_SDR_PS_20180925_SDR_2K_AVC.mp4	0.0	304.4450237751007	0.18333005905151367
82	234.21490502357483	response	0	2		80.0	2.5	/experiments/knapen_aot/videos/S_comp_A007_C017_01156B_v02_SDR_PS_20180925_SDR_2K_AVC.mp4	0.0	304.62024784088135	
82	234.2230110168457	movie	1		168.0	80.0	2.5	/experiments/knapen_aot/videos/S_comp_A007_C017_01156B_v02_SDR_PS_20180925_SDR_2K_AVC.mp4	0.0	304.6283538341522	2.508406162261963
82	236.73141717910767	fix_post	2		12.0	80.0	2.5	/experiments/knapen_aot/videos/S_comp_A007_C017_01156B_v02_SDR_PS_20180925_SDR_2K_AVC.mp4	0.0	307.1367599964142	0.0999138355255127
83	236.83133101463318	fix_pre	0		18.0	81.0	2.5	/experiments/knapen_aot/videos/R_S_JApTAOdfunE_1251.mp4	0.0	307.2366738319397	0.15018415451049805
83	236.9732210636139	response	0	4		81.0	2.5	/experiments/knapen_aot/videos/R_S_JApTAOdfunE_1251.mp4	0.0	307.3785638809204	
83	236.98151516914368	movie	1		299.0	81.0	2.5	/experiments/knapen_aot/videos/R_S_JApTAOdfunE_1251.mp4	0.0	307.3868579864502	2.508194923400879
83	239.48971009254456	fix_post	2		12.0	81.0	2.5	/experiments/knapen_aot/videos/R_S_JApTAOdfunE_1251.mp4	0.0	309.8950529098511	0.1001579761505127
84	239.58986806869507	fix_pre	0		18.0	82.0	2.5	/experiments/knapen_aot/videos/R_S_wc-ikynRrpJVaWp_12.mp4	0.0	309.9952108860016	0.14986395835876465
84	239.7315480709076	response	0	2		82.0	2.5	/experiments/knapen_aot/videos/R_S_wc-ikynRrpJVaWp_12.mp4	0.0	310.1368908882141	
84	239.73973202705383	movie	1		184.0	82.0	2.5	/experiments/knapen_aot/videos/R_S_wc-ikynRrpJVaWp_12.mp4	0.0	310.14507484436035	2.5083811283111572
84	242.248113155365	fix_post	2		12.0	82.0	2.5	/experiments/knapen_aot/videos/R_S_wc-ikynRrpJVaWp_12.mp4	0.0	312.6534559726715	0.1000528335571289
85	242.34816598892212	fix_pre	0		25.0	83.0	2.5	blank	1.0	312.75350880622864	0.20826196670532227
85	242.54824495315552	response	0	2		83.0	2.5	blank	1.0	312.95358777046204	
85	242.55642795562744	movie	1		301.0	83.0	2.5	blank	1.0	312.96177077293396	2.5083911418914795
85	245.06481909751892	fix_post	2		12.0	83.0	2.5	blank	1.0	315.47016191482544	0.09983301162719727
87	245.16465210914612	stim	0		359.0					315.56999492645264	2.9916880130767822
87	245.43152117729187	response	0	4						315.8368639945984	
87	248.15175318717957	response	0	space						318.5570960044861	
