trial_nr	onset	event_type	phase	response	nr_frames	movie_index	movie_duration	movie_file	blank	onset_abs	duration
0	0.15956616401672363	stim	0		40.0					63.23516321182251	0.33335304260253906
0	0.48268818855285645	response	0	space						63.55828523635864	
1	0.4929192066192627	stim	0		121.0					63.56851625442505	1.005950927734375
1	1.4988701343536377	stim	1		120.0					64.57446718215942	1.0000019073486328
1	1.8740341663360596	response	1	space						64.94963121414185	
1	2.465698003768921	response	1	space						65.5412950515747	
2	2.4988720417022705	fix_pre	0		59.0	0.0	2.5	/experiments/knapen_aot/videos/S_c5iVM3LI6kI_252.mp4	0.0	65.57446908950806	0.4916369915008545
2	2.982267141342163	response	0	space		0.0	2.5	/experiments/knapen_aot/videos/S_c5iVM3LI6kI_252.mp4	0.0	66.05786418914795	
2	2.990509033203125	movie	1		298.0	0.0	2.5	/experiments/knapen_aot/videos/S_c5iVM3LI6kI_252.mp4	0.0	66.06610608100891	2.5083751678466797
2	5.498884201049805	fix_post	2		12.0	0.0	2.5	/experiments/knapen_aot/videos/S_c5iVM3LI6kI_252.mp4	0.0	68.57448124885559	0.0999917984008789
3	5.598875999450684	fix_pre	0		385.0	1.0	2.5	/experiments/knapen_aot/videos/S_yt-33PKaLVxDC4_2703.mp4	0.0	68.67447304725647	3.208341121673584
3	8.801915168762207	response	0	2		1.0	2.5	/experiments/knapen_aot/videos/S_yt-33PKaLVxDC4_2703.mp4	0.0	71.877512216568	
3	8.807217121124268	movie	1		297.0	1.0	2.5	/experiments/knapen_aot/videos/S_yt-33PKaLVxDC4_2703.mp4	0.0	71.88281416893005	2.508236885070801
3	11.315454006195068	fix_post	2		12.0	1.0	2.5	/experiments/knapen_aot/videos/S_yt-33PKaLVxDC4_2703.mp4	0.0	74.39105105400085	0.09998202323913574
4	11.415436029434204	fix_pre	0		25.0	2.0	2.5	/experiments/knapen_aot/videos/R_S_yt-4i1b6NQ9NKs_5.mp4	0.0	74.49103307723999	0.2089850902557373
4	11.615509033203125	response	0	2		2.0	2.5	/experiments/knapen_aot/videos/R_S_yt-4i1b6NQ9NKs_5.mp4	0.0	74.69110608100891	
4	11.624421119689941	movie	1		301.0	2.0	2.5	/experiments/knapen_aot/videos/R_S_yt-4i1b6NQ9NKs_5.mp4	0.0	74.70001816749573	2.507699966430664
4	14.132121086120605	fix_post	2		12.0	2.0	2.5	/experiments/knapen_aot/videos/R_S_yt-4i1b6NQ9NKs_5.mp4	0.0	77.20771813392639	0.10000991821289062
5	14.232131004333496	fix_pre	0		81.0	3.0	2.5	/experiments/knapen_aot/videos/R_S_yt-DmlSN7mzczI_62.mp4	0.0	77.30772805213928	0.6749210357666016
5	14.891529083251953	response	0	2		3.0	2.5	/experiments/knapen_aot/videos/R_S_yt-DmlSN7mzczI_62.mp4	0.0	77.96712613105774	
5	14.907052040100098	movie	1		301.0	3.0	2.5	/experiments/knapen_aot/videos/R_S_yt-DmlSN7mzczI_62.mp4	0.0	77.98264908790588	2.50846004486084
5	17.415512084960938	fix_post	2		12.0	3.0	2.5	/experiments/knapen_aot/videos/R_S_yt-DmlSN7mzczI_62.mp4	0.0	80.49110913276672	0.09997797012329102
6	17.51549005508423	fix_pre	0		98.0	4.0	2.5	/experiments/knapen_aot/videos/R_S_G009_C003_UHD_SDR_2K_AVC.mp4	0.0	80.59108710289001	0.8171839714050293
6	18.323981046676636	response	0	2		4.0	2.5	/experiments/knapen_aot/videos/R_S_G009_C003_UHD_SDR_2K_AVC.mp4	0.0	81.39957809448242	
6	18.332674026489258	movie	1		166.0	4.0	2.5	/experiments/knapen_aot/videos/R_S_G009_C003_UHD_SDR_2K_AVC.mp4	0.0	81.40827107429504	2.5078041553497314
6	20.84047818183899	fix_post	2		12.0	4.0	2.5	/experiments/knapen_aot/videos/R_S_G009_C003_UHD_SDR_2K_AVC.mp4	0.0	83.91607522964478	0.09993791580200195
7	20.94041609764099	fix_pre	0		19.0	5.0	2.5	/experiments/knapen_aot/videos/R_S_yt-2V2tq9-O_Nc_1669.mp4	0.0	84.01601314544678	0.15835189819335938
7	21.090561151504517	response	0	2		5.0	2.5	/experiments/knapen_aot/videos/R_S_yt-2V2tq9-O_Nc_1669.mp4	0.0	84.1661581993103	
7	21.09876799583435	movie	1		301.0	5.0	2.5	/experiments/knapen_aot/videos/R_S_yt-2V2tq9-O_Nc_1669.mp4	0.0	84.17436504364014	2.5083401203155518
7	23.607108116149902	fix_post	2		12.0	5.0	2.5	/experiments/knapen_aot/videos/R_S_yt-2V2tq9-O_Nc_1669.mp4	0.0	86.68270516395569	0.09997892379760742
8	23.70708703994751	fix_pre	0		149.0	6.0	2.5	/experiments/knapen_aot/videos/S_bing-www_cnet_com_videos_amazon-wants-to-put-alexa-on-your-pc__50.mp4	0.0	86.7826840877533	1.2416269779205322
8	24.940614223480225	response	0	2		6.0	2.5	/experiments/knapen_aot/videos/S_bing-www_cnet_com_videos_amazon-wants-to-put-alexa-on-your-pc__50.mp4	0.0	88.01621127128601	
8	24.948714017868042	movie	1		165.0	6.0	2.5	/experiments/knapen_aot/videos/S_bing-www_cnet_com_videos_amazon-wants-to-put-alexa-on-your-pc__50.mp4	0.0	88.02431106567383	2.508413076400757
8	27.4571270942688	fix_post	2		12.0	6.0	2.5	/experiments/knapen_aot/videos/S_bing-www_cnet_com_videos_amazon-wants-to-put-alexa-on-your-pc__50.mp4	0.0	90.53272414207458	0.09996604919433594
9	27.557093143463135	fix_pre	0		126.0	7.0	2.5	blank	1.0	90.63269019126892	1.0499920845031738
9	28.598841190338135	response	0	2		7.0	2.5	blank	1.0	91.67443823814392	
9	28.60708522796631	movie	1		301.0	7.0	2.5	blank	1.0	91.6826822757721	2.5082449913024902
9	31.1153302192688	fix_post	2		12.0	7.0	2.5	blank	1.0	94.19092726707458	0.10008597373962402
10	31.215416193008423	fix_pre	0		196.0	8.0	2.5	/experiments/knapen_aot/videos/S_ILSVRC2015_train_00219003.mp4	0.0	94.29101324081421	1.6332550048828125
10	32.84053611755371	response	0	2		8.0	2.5	/experiments/knapen_aot/videos/S_ILSVRC2015_train_00219003.mp4	0.0	95.9161331653595	
10	32.848671197891235	movie	1		301.0	8.0	2.5	/experiments/knapen_aot/videos/S_ILSVRC2015_train_00219003.mp4	0.0	95.92426824569702	2.5083749294281006
10	35.357046127319336	fix_post	2		12.0	8.0	2.5	/experiments/knapen_aot/videos/S_ILSVRC2015_train_00219003.mp4	0.0	98.43264317512512	0.10086703300476074
11	35.4579131603241	fix_pre	0		170.0	9.0	2.5	/experiments/knapen_aot/videos/R_S_yt-7XDVHp75fu4_93.mp4	0.0	98.53351020812988	1.4163360595703125
11	36.86551809310913	response	0	2		9.0	2.5	/experiments/knapen_aot/videos/R_S_yt-7XDVHp75fu4_93.mp4	0.0	99.94111514091492	
11	36.87424921989441	movie	1		300.0	9.0	2.5	/experiments/knapen_aot/videos/R_S_yt-7XDVHp75fu4_93.mp4	0.0	99.9498462677002	2.507766008377075
11	39.382015228271484	fix_post	2		12.0	9.0	2.5	/experiments/knapen_aot/videos/R_S_yt-7XDVHp75fu4_93.mp4	0.0	102.45761227607727	0.09997677803039551
12	39.48199200630188	fix_pre	0		97.0	10.0	2.5	/experiments/knapen_aot/videos/S_yt-wqdTPz0bLrM_561.mp4	0.0	102.55758905410767	0.8088021278381348
12	40.28214406967163	response	0	2		10.0	2.5	/experiments/knapen_aot/videos/S_yt-wqdTPz0bLrM_561.mp4	0.0	103.35774111747742	
12	40.290794134140015	movie	1		301.0	10.0	2.5	/experiments/knapen_aot/videos/S_yt-wqdTPz0bLrM_561.mp4	0.0	103.3663911819458	2.507845878601074
12	42.79864001274109	fix_post	2		12.0	10.0	2.5	/experiments/knapen_aot/videos/S_yt-wqdTPz0bLrM_561.mp4	0.0	105.87423706054688	0.10004901885986328
13	42.89868903160095	fix_pre	0		126.0	11.0	2.5	/experiments/knapen_aot/videos/R_S_ILSVRC2015_train_00451000.mp4	0.0	105.97428607940674	1.0499331951141357
13	43.94047021865845	response	0	2		11.0	2.5	/experiments/knapen_aot/videos/R_S_ILSVRC2015_train_00451000.mp4	0.0	107.01606726646423	
13	43.94862222671509	movie	1		301.0	11.0	2.5	/experiments/knapen_aot/videos/R_S_ILSVRC2015_train_00451000.mp4	0.0	107.02421927452087	2.5084619522094727
13	46.45708417892456	fix_post	2		12.0	11.0	2.5	/experiments/knapen_aot/videos/R_S_ILSVRC2015_train_00451000.mp4	0.0	109.53268122673035	0.09993290901184082
14	46.5570170879364	fix_pre	0		54.0	12.0	2.5	/experiments/knapen_aot/videos/R_S_yt-tOOaOzYvtKE_79.mp4	0.0	109.63261413574219	0.449937105178833
14	46.99875617027283	response	0	2		12.0	2.5	/experiments/knapen_aot/videos/R_S_yt-tOOaOzYvtKE_79.mp4	0.0	110.07435321807861	
14	47.006954193115234	movie	1		301.0	12.0	2.5	/experiments/knapen_aot/videos/R_S_yt-tOOaOzYvtKE_79.mp4	0.0	110.08255124092102	2.5083658695220947
14	49.51532006263733	fix_post	2		12.0	12.0	2.5	/experiments/knapen_aot/videos/R_S_yt-tOOaOzYvtKE_79.mp4	0.0	112.59091711044312	0.09994101524353027
15	49.61526107788086	fix_pre	0		165.0	13.0	2.5	blank	1.0	112.69085812568665	1.374993085861206
15	50.982097148895264	response	0	2		13.0	2.5	blank	1.0	114.05769419670105	
15	50.990254163742065	movie	1		301.0	13.0	2.5	blank	1.0	114.06585121154785	2.5083298683166504
15	53.498584032058716	fix_post	2		12.0	13.0	2.5	blank	1.0	116.5741810798645	0.10002899169921875
15	53.58208608627319	response	2	2		13.0	2.5	blank	1.0	116.65768313407898	
16	53.598613023757935	fix_pre	0		201.0	14.0	2.5	/experiments/knapen_aot/videos/S_yt-0bovQBIUZho_15.mp4	0.0	116.67421007156372	1.6749470233917236
16	55.26546311378479	response	0	2		14.0	2.5	/experiments/knapen_aot/videos/S_yt-0bovQBIUZho_15.mp4	0.0	118.34106016159058	
16	55.27356004714966	movie	1		301.0	14.0	2.5	/experiments/knapen_aot/videos/S_yt-0bovQBIUZho_15.mp4	0.0	118.34915709495544	2.5082950592041016
16	57.78185510635376	fix_post	2		12.0	14.0	2.5	/experiments/knapen_aot/videos/S_yt-0bovQBIUZho_15.mp4	0.0	120.85745215415955	0.10004210472106934
17	57.88189721107483	fix_pre	0		116.0	15.0	2.5	/experiments/knapen_aot/videos/S_yt-oVS_k_9upmo_205.mp4	0.0	120.95749425888062	0.9666588306427002
17	58.8404221534729	response	0	2		15.0	2.5	/experiments/knapen_aot/videos/S_yt-oVS_k_9upmo_205.mp4	0.0	121.91601920127869	
17	58.84855604171753	movie	1		301.0	15.0	2.5	/experiments/knapen_aot/videos/S_yt-oVS_k_9upmo_205.mp4	0.0	121.92415308952332	2.5083839893341064
17	61.356940031051636	fix_post	2		12.0	15.0	2.5	/experiments/knapen_aot/videos/S_yt-oVS_k_9upmo_205.mp4	0.0	124.43253707885742	0.10000014305114746
18	61.45694017410278	fix_pre	0		32.0	16.0	2.5	/experiments/knapen_aot/videos/R_S_ILSVRC2015_train_00219003.mp4	0.0	124.53253722190857	0.2666049003601074
18	61.71534705162048	response	0	2		16.0	2.5	/experiments/knapen_aot/videos/R_S_ILSVRC2015_train_00219003.mp4	0.0	124.79094409942627	
18	61.72354507446289	movie	1		301.0	16.0	2.5	/experiments/knapen_aot/videos/R_S_ILSVRC2015_train_00219003.mp4	0.0	124.79914212226868	2.508366107940674
18	64.23191118240356	fix_post	2		12.0	16.0	2.5	/experiments/knapen_aot/videos/R_S_ILSVRC2015_train_00219003.mp4	0.0	127.30750823020935	0.10039091110229492
19	64.33230209350586	fix_pre	0		102.0	17.0	2.5	/experiments/knapen_aot/videos/R_S_yt-xNKgc8sFYvU_35.mp4	0.0	127.40789914131165	0.8495259284973145
19	65.17372012138367	response	0	2		17.0	2.5	/experiments/knapen_aot/videos/R_S_yt-xNKgc8sFYvU_35.mp4	0.0	128.24931716918945	
19	65.18182802200317	movie	1		301.0	17.0	2.5	/experiments/knapen_aot/videos/R_S_yt-xNKgc8sFYvU_35.mp4	0.0	128.25742506980896	2.508416175842285
19	67.69024419784546	fix_post	2		12.0	17.0	2.5	/experiments/knapen_aot/videos/R_S_yt-xNKgc8sFYvU_35.mp4	0.0	130.76584124565125	0.10037398338317871
20	67.79061818122864	fix_pre	0		6.0	18.0	2.5	/experiments/knapen_aot/videos/R_S_yt-Z4W6l0eZza4_6.mp4	0.0	130.86621522903442	0.04956793785095215
20	67.8244571685791	response	0	2		18.0	2.5	/experiments/knapen_aot/videos/R_S_yt-Z4W6l0eZza4_6.mp4	0.0	130.9000542163849	
20	67.84018611907959	movie	1		301.0	18.0	2.5	/experiments/knapen_aot/videos/R_S_yt-Z4W6l0eZza4_6.mp4	0.0	130.91578316688538	2.5082790851593018
20	70.34846520423889	fix_post	2		12.0	18.0	2.5	/experiments/knapen_aot/videos/R_S_yt-Z4W6l0eZza4_6.mp4	0.0	133.42406225204468	0.10001587867736816
21	70.44848108291626	fix_pre	0		151.0	19.0	2.5	blank	1.0	133.52407813072205	1.2587039470672607
21	71.6911141872406	response	0	2		19.0	2.5	blank	1.0	134.7667112350464	
21	71.70718502998352	movie	1		301.0	19.0	2.5	blank	1.0	134.7827820777893	2.5079081058502197
21	74.21509313583374	fix_post	2		12.0	19.0	2.5	blank	1.0	137.29069018363953	0.1000828742980957
22	74.31517601013184	fix_pre	0		122.0	20.0	2.5	/experiments/knapen_aot/videos/S_g201_TH_804_A001_8_SDR_20191031_SDR_2K_AVC.mp4	0.0	137.39077305793762	1.0169730186462402
22	75.32370901107788	response	0	2		20.0	2.5	/experiments/knapen_aot/videos/S_g201_TH_804_A001_8_SDR_20191031_SDR_2K_AVC.mp4	0.0	138.39930605888367	
22	75.33214902877808	movie	1		175.0	20.0	2.5	/experiments/knapen_aot/videos/S_g201_TH_804_A001_8_SDR_20191031_SDR_2K_AVC.mp4	0.0	138.40774607658386	2.5081191062927246
22	77.8402681350708	fix_post	2		12.0	20.0	2.5	/experiments/knapen_aot/videos/S_g201_TH_804_A001_8_SDR_20191031_SDR_2K_AVC.mp4	0.0	140.9158651828766	0.09992694854736328
23	77.94019508361816	fix_pre	0		101.0	21.0	2.5	/experiments/knapen_aot/videos/S_yt-pB9w3AA-woE_37.mp4	0.0	141.01579213142395	0.8416149616241455
23	78.7661600112915	response	0	2		21.0	2.5	/experiments/knapen_aot/videos/S_yt-pB9w3AA-woE_37.mp4	0.0	141.8417570590973	
23	78.78181004524231	movie	1		301.0	21.0	2.5	/experiments/knapen_aot/videos/S_yt-pB9w3AA-woE_37.mp4	0.0	141.8574070930481	2.5086541175842285
23	81.29046416282654	fix_post	2		12.0	21.0	2.5	/experiments/knapen_aot/videos/S_yt-pB9w3AA-woE_37.mp4	0.0	144.36606121063232	0.09965205192565918
24	81.3901162147522	fix_pre	0		149.0	22.0	2.5	/experiments/knapen_aot/videos/S_production_ID_4101244.mp4	0.0	144.46571326255798	1.2417018413543701
24	82.62362909317017	response	0	2		22.0	2.5	/experiments/knapen_aot/videos/S_production_ID_4101244.mp4	0.0	145.69922614097595	
24	82.63181805610657	movie	1		186.0	22.0	2.5	/experiments/knapen_aot/videos/S_production_ID_4101244.mp4	0.0	145.70741510391235	2.5081980228424072
24	85.14001607894897	fix_post	2		12.0	22.0	2.5	/experiments/knapen_aot/videos/S_production_ID_4101244.mp4	0.0	148.21561312675476	0.10009598731994629
25	85.24011206626892	fix_pre	0		76.0	23.0	2.5	/experiments/knapen_aot/videos/S_comp_A105_C003_0212CT_FLARE_v10_SDR_PS_FINAL_20180711_SDR_2K_AVC.mp4	0.0	148.3157091140747	0.633573055267334
25	85.86529302597046	response	0	2		23.0	2.5	/experiments/knapen_aot/videos/S_comp_A105_C003_0212CT_FLARE_v10_SDR_PS_FINAL_20180711_SDR_2K_AVC.mp4	0.0	148.94089007377625	
25	85.87368512153625	movie	1		165.0	23.0	2.5	/experiments/knapen_aot/videos/S_comp_A105_C003_0212CT_FLARE_v10_SDR_PS_FINAL_20180711_SDR_2K_AVC.mp4	0.0	148.94928216934204	2.50811505317688
25	88.38180017471313	fix_post	2		12.0	23.0	2.5	/experiments/knapen_aot/videos/S_comp_A105_C003_0212CT_FLARE_v10_SDR_PS_FINAL_20180711_SDR_2K_AVC.mp4	0.0	151.45739722251892	0.09995102882385254
26	88.48175120353699	fix_pre	0		104.0	24.0	2.5	/experiments/knapen_aot/videos/R_S_ILSVRC2015_train_00323000.mp4	0.0	151.55734825134277	0.8666980266571045
26	89.34026503562927	response	0	2		24.0	2.5	/experiments/knapen_aot/videos/R_S_ILSVRC2015_train_00323000.mp4	0.0	152.41586208343506	
26	89.34844923019409	movie	1		301.0	24.0	2.5	/experiments/knapen_aot/videos/R_S_ILSVRC2015_train_00323000.mp4	0.0	152.42404627799988	2.508272886276245
26	91.85672211647034	fix_post	2		12.0	24.0	2.5	/experiments/knapen_aot/videos/R_S_ILSVRC2015_train_00323000.mp4	0.0	154.93231916427612	0.10024809837341309
27	91.95697021484375	fix_pre	0		132.0	25.0	2.5	/experiments/knapen_aot/videos/S_c5iVM3LI6kI_252.mp4	0.0	155.03256726264954	1.0997679233551025
27	93.0485680103302	response	0	2		25.0	2.5	/experiments/knapen_aot/videos/S_c5iVM3LI6kI_252.mp4	0.0	156.124165058136	
27	93.05673813819885	movie	1		301.0	25.0	2.5	/experiments/knapen_aot/videos/S_c5iVM3LI6kI_252.mp4	0.0	156.13233518600464	2.5083138942718506
27	95.5650520324707	fix_post	2		12.0	25.0	2.5	/experiments/knapen_aot/videos/S_c5iVM3LI6kI_252.mp4	0.0	158.6406490802765	0.10024809837341309
28	95.66530013084412	fix_pre	0		51.0	26.0	2.5	/experiments/knapen_aot/videos/R_S_yt-14tjqjjjAEI_15.mp4	0.0	158.7408971786499	0.4247899055480957
28	96.08186101913452	response	0	2		26.0	2.5	/experiments/knapen_aot/videos/R_S_yt-14tjqjjjAEI_15.mp4	0.0	159.1574580669403	
28	96.09009003639221	movie	1		301.0	26.0	2.5	/experiments/knapen_aot/videos/R_S_yt-14tjqjjjAEI_15.mp4	0.0	159.165687084198	2.508357048034668
28	98.59844708442688	fix_post	2		12.0	26.0	2.5	/experiments/knapen_aot/videos/R_S_yt-14tjqjjjAEI_15.mp4	0.0	161.67404413223267	0.0999760627746582
29	98.69842314720154	fix_pre	0		190.0	27.0	2.5	/experiments/knapen_aot/videos/S_yt-MSdNCUWOp4o_4.mp4	0.0	161.77402019500732	1.5833208560943604
29	100.27353501319885	response	0	2		27.0	2.5	/experiments/knapen_aot/videos/S_yt-MSdNCUWOp4o_4.mp4	0.0	163.34913206100464	
29	100.2817440032959	movie	1		298.0	27.0	2.5	/experiments/knapen_aot/videos/S_yt-MSdNCUWOp4o_4.mp4	0.0	163.35734105110168	2.5085461139678955
29	102.7902901172638	fix_post	2		12.0	27.0	2.5	/experiments/knapen_aot/videos/S_yt-MSdNCUWOp4o_4.mp4	0.0	165.86588716506958	0.09974408149719238
30	102.89003419876099	fix_pre	0		98.0	28.0	2.5	blank	1.0	165.96563124656677	0.8168349266052246
30	103.69851803779602	response	0	2		28.0	2.5	blank	1.0	166.7741150856018	
30	103.70686912536621	movie	1		301.0	28.0	2.5	blank	1.0	166.782466173172	2.508162021636963
30	106.21503114700317	fix_post	2		12.0	28.0	2.5	blank	1.0	169.29062819480896	0.09996891021728516
31	106.31500005722046	fix_pre	0		48.0	29.0	2.5	/experiments/knapen_aot/videos/S_yt-n_eO-7KedAE_21.mp4	0.0	169.39059710502625	0.3999941349029541
31	106.70680618286133	response	0	2		29.0	2.5	/experiments/knapen_aot/videos/S_yt-n_eO-7KedAE_21.mp4	0.0	169.78240323066711	
31	106.71499419212341	movie	1		301.0	29.0	2.5	/experiments/knapen_aot/videos/S_yt-n_eO-7KedAE_21.mp4	0.0	169.7905912399292	2.5083489418029785
31	109.22334313392639	fix_post	2		12.0	29.0	2.5	/experiments/knapen_aot/videos/S_yt-n_eO-7KedAE_21.mp4	0.0	172.29894018173218	0.10015487670898438
32	109.32349801063538	fix_pre	0		190.0	30.0	2.5	/experiments/knapen_aot/videos/R_S_yt-cjndulbUtRc_51.mp4	0.0	172.39909505844116	1.583111047744751
32	110.89848518371582	response	0	2		30.0	2.5	/experiments/knapen_aot/videos/R_S_yt-cjndulbUtRc_51.mp4	0.0	173.9740822315216	
32	110.90660905838013	movie	1		301.0	30.0	2.5	/experiments/knapen_aot/videos/R_S_yt-cjndulbUtRc_51.mp4	0.0	173.9822061061859	2.5084731578826904
32	113.41508221626282	fix_post	2		12.0	30.0	2.5	/experiments/knapen_aot/videos/R_S_yt-cjndulbUtRc_51.mp4	0.0	176.4906792640686	0.0999448299407959
33	113.51502704620361	fix_pre	0		63.0	31.0	2.5	/experiments/knapen_aot/videos/R_S_video.mp4	0.0	176.5906240940094	0.5250439643859863
33	114.03178405761719	response	0	2		31.0	2.5	/experiments/knapen_aot/videos/R_S_video.mp4	0.0	177.10738110542297	
33	114.0400710105896	movie	1		174.0	31.0	2.5	/experiments/knapen_aot/videos/R_S_video.mp4	0.0	177.11566805839539	2.5082662105560303
33	116.54833722114563	fix_post	2		12.0	31.0	2.5	/experiments/knapen_aot/videos/R_S_video.mp4	0.0	179.62393426895142	0.09997892379760742
34	116.64831614494324	fix_pre	0		33.0	32.0	2.5	/experiments/knapen_aot/videos/S_ILSVRC2015_train_00323000.mp4	0.0	179.72391319274902	0.27497005462646484
34	116.91516709327698	response	0	2		32.0	2.5	/experiments/knapen_aot/videos/S_ILSVRC2015_train_00323000.mp4	0.0	179.99076414108276	
34	116.9232861995697	movie	1		301.0	32.0	2.5	/experiments/knapen_aot/videos/S_ILSVRC2015_train_00323000.mp4	0.0	179.9988832473755	2.5083329677581787
34	119.43161916732788	fix_post	2		12.0	32.0	2.5	/experiments/knapen_aot/videos/S_ILSVRC2015_train_00323000.mp4	0.0	182.50721621513367	0.10001897811889648
35	119.53163814544678	fix_pre	0		118.0	33.0	2.5	blank	1.0	182.60723519325256	0.9833528995513916
35	120.50683116912842	response	0	2		33.0	2.5	blank	1.0	183.5824282169342	
35	120.51499104499817	movie	1		301.0	33.0	2.5	blank	1.0	183.59058809280396	2.508216142654419
35	123.02320718765259	fix_post	2		12.0	33.0	2.5	blank	1.0	186.09880423545837	0.10016083717346191
36	123.12336802482605	fix_pre	0		103.0	34.0	2.5	/experiments/knapen_aot/videos/S_yt-GWgG8PVM1iw_34.mp4	0.0	186.19896507263184	0.8582041263580322
36	123.97341513633728	response	0	2		34.0	2.5	/experiments/knapen_aot/videos/S_yt-GWgG8PVM1iw_34.mp4	0.0	187.04901218414307	
36	123.98157215118408	movie	1		301.0	34.0	2.5	/experiments/knapen_aot/videos/S_yt-GWgG8PVM1iw_34.mp4	0.0	187.05716919898987	2.508401870727539
36	126.48997402191162	fix_post	2		12.0	34.0	2.5	/experiments/knapen_aot/videos/S_yt-GWgG8PVM1iw_34.mp4	0.0	189.5655710697174	0.09999704360961914
37	126.58997106552124	fix_pre	0		82.0	35.0	2.5	/experiments/knapen_aot/videos/S_yt-ejSzwn8tY8g_49.mp4	0.0	189.66556811332703	0.6832079887390137
37	127.26504611968994	response	0	2		35.0	2.5	/experiments/knapen_aot/videos/S_yt-ejSzwn8tY8g_49.mp4	0.0	190.34064316749573	
37	127.27317905426025	movie	1		301.0	35.0	2.5	/experiments/knapen_aot/videos/S_yt-ejSzwn8tY8g_49.mp4	0.0	190.34877610206604	2.508432149887085
37	129.78161120414734	fix_post	2		12.0	35.0	2.5	/experiments/knapen_aot/videos/S_yt-ejSzwn8tY8g_49.mp4	0.0	192.85720825195312	0.10002493858337402
38	129.8816361427307	fix_pre	0		32.0	36.0	2.5	/experiments/knapen_aot/videos/S_yt-XYULt48onn4_6.mp4	0.0	192.9572331905365	0.266618013381958
38	130.1325650215149	response	0	2		36.0	2.5	/experiments/knapen_aot/videos/S_yt-XYULt48onn4_6.mp4	0.0	193.20816206932068	
38	130.14825415611267	movie	1		301.0	36.0	2.5	/experiments/knapen_aot/videos/S_yt-XYULt48onn4_6.mp4	0.0	193.22385120391846	2.508358955383301
38	132.65661311149597	fix_post	2		12.0	36.0	2.5	/experiments/knapen_aot/videos/S_yt-XYULt48onn4_6.mp4	0.0	195.73221015930176	0.10005497932434082
39	132.7566680908203	fix_pre	0		34.0	37.0	2.5	/experiments/knapen_aot/videos/S_yt-D6fhzH21T_E_26.mp4	0.0	195.8322651386261	0.2832651138305664
39	133.03177309036255	response	0	2		37.0	2.5	/experiments/knapen_aot/videos/S_yt-D6fhzH21T_E_26.mp4	0.0	196.10737013816833	
39	133.03993320465088	movie	1		301.0	37.0	2.5	/experiments/knapen_aot/videos/S_yt-D6fhzH21T_E_26.mp4	0.0	196.11553025245667	2.5082948207855225
39	135.5482280254364	fix_post	2		12.0	37.0	2.5	/experiments/knapen_aot/videos/S_yt-D6fhzH21T_E_26.mp4	0.0	198.6238250732422	0.10001015663146973
40	135.64823818206787	fix_pre	0		125.0	38.0	2.5	/experiments/knapen_aot/videos/S_wc-ZZxbTv7oc5DQ_10.mp4	0.0	198.72383522987366	1.041698932647705
40	136.681734085083	response	0	2		38.0	2.5	/experiments/knapen_aot/videos/S_wc-ZZxbTv7oc5DQ_10.mp4	0.0	199.7573311328888	
40	136.68993711471558	movie	1		168.0	38.0	2.5	/experiments/knapen_aot/videos/S_wc-ZZxbTv7oc5DQ_10.mp4	0.0	199.76553416252136	2.508341073989868
40	139.19827818870544	fix_post	2		12.0	38.0	2.5	/experiments/knapen_aot/videos/S_wc-ZZxbTv7oc5DQ_10.mp4	0.0	202.27387523651123	0.10007190704345703
41	139.2983500957489	fix_pre	0		35.0	39.0	2.5	/experiments/knapen_aot/videos/S_wc-_W9iefBXz8bi_23.mp4	0.0	202.3739471435547	0.29157209396362305
41	139.58173608779907	response	0	2		39.0	2.5	/experiments/knapen_aot/videos/S_wc-_W9iefBXz8bi_23.mp4	0.0	202.65733313560486	
41	139.58992218971252	movie	1		166.0	39.0	2.5	/experiments/knapen_aot/videos/S_wc-_W9iefBXz8bi_23.mp4	0.0	202.6655192375183	2.50826096534729
41	142.09818315505981	fix_post	2		12.0	39.0	2.5	/experiments/knapen_aot/videos/S_wc-_W9iefBXz8bi_23.mp4	0.0	205.1737802028656	0.09999585151672363
42	142.19817900657654	fix_pre	0		158.0	40.0	2.5	blank	1.0	205.27377605438232	1.3166601657867432
42	143.50663113594055	response	0	2		40.0	2.5	blank	1.0	206.58222818374634	
42	143.51483917236328	movie	1		301.0	40.0	2.5	blank	1.0	206.59043622016907	2.508349895477295
42	146.02318906784058	fix_post	2		12.0	40.0	2.5	blank	1.0	209.09878611564636	0.09998011589050293
43	146.12316918373108	fix_pre	0		25.0	41.0	2.5	/experiments/knapen_aot/videos/R_S_production_ID_4360158.mp4	0.0	209.19876623153687	0.20831704139709473
43	146.3232500553131	response	0	2		41.0	2.5	/experiments/knapen_aot/videos/R_S_production_ID_4360158.mp4	0.0	209.3988471031189	
43	146.33148622512817	movie	1		162.0	41.0	2.5	/experiments/knapen_aot/videos/R_S_production_ID_4360158.mp4	0.0	209.40708327293396	2.5084409713745117
43	148.83992719650269	fix_post	2		12.0	41.0	2.5	/experiments/knapen_aot/videos/R_S_production_ID_4360158.mp4	0.0	211.91552424430847	0.09999585151672363
44	148.9399230480194	fix_pre	0		89.0	42.0	2.5	/experiments/knapen_aot/videos/R_S_production_ID_4765899.mp4	0.0	212.0155200958252	0.7415709495544434
44	149.67337107658386	response	0	2		42.0	2.5	/experiments/knapen_aot/videos/R_S_production_ID_4765899.mp4	0.0	212.74896812438965	
44	149.68149399757385	movie	1		169.0	42.0	2.5	/experiments/knapen_aot/videos/R_S_production_ID_4765899.mp4	0.0	212.75709104537964	2.508397102355957
44	152.1898910999298	fix_post	2		12.0	42.0	2.5	/experiments/knapen_aot/videos/R_S_production_ID_4765899.mp4	0.0	215.2654881477356	0.09999895095825195
45	152.28989005088806	fix_pre	0		204.0	43.0	2.5	/experiments/knapen_aot/videos/R_S_yt-TvU-aYjNa2c_21.mp4	0.0	215.36548709869385	1.6999311447143555
45	153.98169803619385	response	0	2		43.0	2.5	/experiments/knapen_aot/videos/R_S_yt-TvU-aYjNa2c_21.mp4	0.0	217.05729508399963	
45	153.98982119560242	movie	1		300.0	43.0	2.5	/experiments/knapen_aot/videos/R_S_yt-TvU-aYjNa2c_21.mp4	0.0	217.0654182434082	2.508327007293701
45	156.49814820289612	fix_post	2		12.0	43.0	2.5	/experiments/knapen_aot/videos/R_S_yt-TvU-aYjNa2c_21.mp4	0.0	219.5737452507019	0.10004186630249023
46	156.5981900691986	fix_pre	0		94.0	44.0	2.5	/experiments/knapen_aot/videos/R_S_yt-pB9w3AA-woE_37.mp4	0.0	219.6737871170044	0.783257007598877
46	157.36576414108276	response	0	2		44.0	2.5	/experiments/knapen_aot/videos/R_S_yt-pB9w3AA-woE_37.mp4	0.0	220.44136118888855	
46	157.38144707679749	movie	1		301.0	44.0	2.5	/experiments/knapen_aot/videos/R_S_yt-pB9w3AA-woE_37.mp4	0.0	220.45704412460327	2.5082991123199463
46	159.88974618911743	fix_post	2		12.0	44.0	2.5	/experiments/knapen_aot/videos/R_S_yt-pB9w3AA-woE_37.mp4	0.0	222.96534323692322	0.10004901885986328
47	159.9897952079773	fix_pre	0		673.0	45.0	2.5	/experiments/knapen_aot/videos/S_yt-GWOOQZ19-oU_331.mp4	0.0	223.06539225578308	5.608287811279297
47	165.5898151397705	response	0	2		45.0	2.5	/experiments/knapen_aot/videos/S_yt-GWOOQZ19-oU_331.mp4	0.0	228.6654121875763	
47	165.5980830192566	movie	1		301.0	45.0	2.5	/experiments/knapen_aot/videos/S_yt-GWOOQZ19-oU_331.mp4	0.0	228.67368006706238	2.5084340572357178
47	168.1065170764923	fix_post	2		12.0	45.0	2.5	/experiments/knapen_aot/videos/S_yt-GWOOQZ19-oU_331.mp4	0.0	231.1821141242981	0.10005712509155273
48	168.20657420158386	fix_pre	0		112.0	46.0	2.5	/experiments/knapen_aot/videos/S_ILSVRC2015_train_00451000.mp4	0.0	231.28217124938965	0.9332108497619629
48	169.1316740512848	response	0	2		46.0	2.5	/experiments/knapen_aot/videos/S_ILSVRC2015_train_00451000.mp4	0.0	232.20727109909058	
48	169.13978505134583	movie	1		301.0	46.0	2.5	/experiments/knapen_aot/videos/S_ILSVRC2015_train_00451000.mp4	0.0	232.2153820991516	2.5083701610565186
48	171.64815521240234	fix_post	2		12.0	46.0	2.5	/experiments/knapen_aot/videos/S_ILSVRC2015_train_00451000.mp4	0.0	234.72375226020813	0.09994292259216309
49	171.7480981349945	fix_pre	0		13.0	47.0	2.5	/experiments/knapen_aot/videos/S_59eT4XDXNno_25.mp4	0.0	234.8236951828003	0.10835790634155273
49	171.84829211235046	response	0	2		47.0	2.5	/experiments/knapen_aot/videos/S_59eT4XDXNno_25.mp4	0.0	234.92388916015625	
49	171.85645604133606	movie	1		300.0	47.0	2.5	/experiments/knapen_aot/videos/S_59eT4XDXNno_25.mp4	0.0	234.93205308914185	2.5083210468292236
49	174.36477708816528	fix_post	2		12.0	47.0	2.5	/experiments/knapen_aot/videos/S_59eT4XDXNno_25.mp4	0.0	237.44037413597107	0.09996294975280762
50	174.4647400379181	fix_pre	0		123.0	48.0	2.5	blank	1.0	237.54033708572388	1.0250201225280762
50	175.48157119750977	response	0	2		48.0	2.5	blank	1.0	238.55716824531555	
50	175.48976016044617	movie	1		301.0	48.0	2.5	blank	1.0	238.56535720825195	2.508336067199707
50	177.99809622764587	fix_post	2		12.0	48.0	2.5	blank	1.0	241.07369327545166	0.09996199607849121
51	178.09805822372437	fix_pre	0		257.0	49.0	2.5	/experiments/knapen_aot/videos/S_yt-35i8UeYXjGw_47.mp4	0.0	241.17365527153015	2.142828941345215
51	180.23157501220703	response	0	2		49.0	2.5	/experiments/knapen_aot/videos/S_yt-35i8UeYXjGw_47.mp4	0.0	243.30717206001282	
51	180.24088716506958	movie	1		301.0	49.0	2.5	/experiments/knapen_aot/videos/S_yt-35i8UeYXjGw_47.mp4	0.0	243.31648421287537	2.507189989089966
51	182.74807715415955	fix_post	2		12.0	49.0	2.5	/experiments/knapen_aot/videos/S_yt-35i8UeYXjGw_47.mp4	0.0	245.82367420196533	0.09993100166320801
52	182.84800815582275	fix_pre	0		33.0	50.0	2.5	/experiments/knapen_aot/videos/R_S_pexels-roman-odintsov-8232443.mp4	0.0	245.92360520362854	0.27501392364501953
52	183.11485719680786	response	0	2		50.0	2.5	/experiments/knapen_aot/videos/R_S_pexels-roman-odintsov-8232443.mp4	0.0	246.19045424461365	
52	183.12302207946777	movie	1		199.0	50.0	2.5	/experiments/knapen_aot/videos/R_S_pexels-roman-odintsov-8232443.mp4	0.0	246.19861912727356	2.508378028869629
52	185.6314001083374	fix_post	2		12.0	50.0	2.5	/experiments/knapen_aot/videos/R_S_pexels-roman-odintsov-8232443.mp4	0.0	248.7069971561432	0.10003399848937988
53	185.73143410682678	fix_pre	0		121.0	51.0	2.5	/experiments/knapen_aot/videos/R_S_yt-CR86bVrRwfo_13.mp4	0.0	248.80703115463257	1.0094029903411865
53	186.7314841747284	response	0	2		51.0	2.5	/experiments/knapen_aot/videos/R_S_yt-CR86bVrRwfo_13.mp4	0.0	249.80708122253418	
53	186.74083709716797	movie	1		301.0	51.0	2.5	/experiments/knapen_aot/videos/R_S_yt-CR86bVrRwfo_13.mp4	0.0	249.81643414497375	2.507153034210205
53	189.24799013137817	fix_post	2		12.0	51.0	2.5	/experiments/knapen_aot/videos/R_S_yt-CR86bVrRwfo_13.mp4	0.0	252.32358717918396	0.1000208854675293
54	189.3480110168457	fix_pre	0		14.0	52.0	2.5	/experiments/knapen_aot/videos/R_S_comp_DB_D002_C003_PSNK_v04_SDR_PS_20180914_SDR_2K_AVC.mp4	0.0	252.4236080646515	0.11670398712158203
54	189.4565122127533	response	0	2		52.0	2.5	/experiments/knapen_aot/videos/R_S_comp_DB_D002_C003_PSNK_v04_SDR_PS_20180914_SDR_2K_AVC.mp4	0.0	252.53210926055908	
54	189.46471500396729	movie	1		176.0	52.0	2.5	/experiments/knapen_aot/videos/R_S_comp_DB_D002_C003_PSNK_v04_SDR_PS_20180914_SDR_2K_AVC.mp4	0.0	252.54031205177307	2.5082380771636963
54	191.97295308113098	fix_post	2		12.0	52.0	2.5	/experiments/knapen_aot/videos/R_S_comp_DB_D002_C003_PSNK_v04_SDR_PS_20180914_SDR_2K_AVC.mp4	0.0	255.04855012893677	0.10008406639099121
55	192.07303714752197	fix_pre	0		96.0	53.0	2.5	/experiments/knapen_aot/videos/S_yt-BCFGCganiuE_8.mp4	0.0	255.14863419532776	0.7999210357666016
55	192.8648121356964	response	0	2		53.0	2.5	/experiments/knapen_aot/videos/S_yt-BCFGCganiuE_8.mp4	0.0	255.9404091835022	
55	192.87295818328857	movie	1		301.0	53.0	2.5	/experiments/knapen_aot/videos/S_yt-BCFGCganiuE_8.mp4	0.0	255.94855523109436	2.5083558559417725
55	195.38131403923035	fix_post	2		12.0	53.0	2.5	/experiments/knapen_aot/videos/S_yt-BCFGCganiuE_8.mp4	0.0	258.45691108703613	0.10015106201171875
56	195.48146510124207	fix_pre	0		95.0	54.0	2.5	/experiments/knapen_aot/videos/S_yt-x6tYi0lRGqU_114.mp4	0.0	258.55706214904785	0.7914879322052002
56	196.26480722427368	response	0	2		54.0	2.5	/experiments/knapen_aot/videos/S_yt-x6tYi0lRGqU_114.mp4	0.0	259.34040427207947	
56	196.27295303344727	movie	1		301.0	54.0	2.5	/experiments/knapen_aot/videos/S_yt-x6tYi0lRGqU_114.mp4	0.0	259.34855008125305	2.5083820819854736
56	198.78133511543274	fix_post	2		12.0	54.0	2.5	/experiments/knapen_aot/videos/S_yt-x6tYi0lRGqU_114.mp4	0.0	261.8569321632385	0.09999704360961914
57	198.88133215904236	fix_pre	0		11.0	55.0	2.5	/experiments/knapen_aot/videos/R_S_xq822dX6DDM_1.mp4	0.0	261.95692920684814	0.09164905548095703
57	198.96481108665466	response	0	2		55.0	2.5	/experiments/knapen_aot/videos/R_S_xq822dX6DDM_1.mp4	0.0	262.04040813446045	
57	198.97298121452332	movie	1		300.0	55.0	2.5	/experiments/knapen_aot/videos/R_S_xq822dX6DDM_1.mp4	0.0	262.0485782623291	2.508305788040161
57	201.48128700256348	fix_post	2		12.0	55.0	2.5	/experiments/knapen_aot/videos/R_S_xq822dX6DDM_1.mp4	0.0	264.55688405036926	0.10005712509155273
58	201.58134412765503	fix_pre	0		144.0	56.0	2.5	blank	1.0	264.6569411754608	1.2010059356689453
58	202.77317309379578	response	0	2		56.0	2.5	blank	1.0	265.84877014160156	
58	202.78235006332397	movie	1		301.0	56.0	2.5	blank	1.0	265.85794711112976	2.5073070526123047
58	205.28965711593628	fix_post	2		12.0	56.0	2.5	blank	1.0	268.36525416374207	0.10000300407409668
59	205.38966012001038	fix_pre	0		43.0	57.0	2.5	/experiments/knapen_aot/videos/S_production_ID_4765899.mp4	0.0	268.46525716781616	0.3582499027252197
59	205.73966908454895	response	0	2		57.0	2.5	/experiments/knapen_aot/videos/S_production_ID_4765899.mp4	0.0	268.81526613235474	
59	205.7479100227356	movie	1		168.0	57.0	2.5	/experiments/knapen_aot/videos/S_production_ID_4765899.mp4	0.0	268.8235070705414	2.5083789825439453
59	208.25628900527954	fix_post	2		12.0	57.0	2.5	/experiments/knapen_aot/videos/S_production_ID_4765899.mp4	0.0	271.3318860530853	0.10001206398010254
60	208.35630106925964	fix_pre	0		194.0	58.0	2.5	/experiments/knapen_aot/videos/R_S_yt-kQpE9L-fsNE_55.mp4	0.0	271.43189811706543	1.6166119575500488
60	209.9647810459137	response	0	2		58.0	2.5	/experiments/knapen_aot/videos/R_S_yt-kQpE9L-fsNE_55.mp4	0.0	273.0403780937195	
60	209.9729130268097	movie	1		301.0	58.0	2.5	/experiments/knapen_aot/videos/R_S_yt-kQpE9L-fsNE_55.mp4	0.0	273.0485100746155	2.5083041191101074
60	212.4812171459198	fix_post	2		12.0	58.0	2.5	/experiments/knapen_aot/videos/R_S_yt-kQpE9L-fsNE_55.mp4	0.0	275.5568141937256	0.09999203681945801
61	212.58120918273926	fix_pre	0		60.0	59.0	2.5	/experiments/knapen_aot/videos/R_S_yt-X6ivH9SqGu8_306.mp4	0.0	275.65680623054504	0.5
61	213.07310104370117	response	0	2		59.0	2.5	/experiments/knapen_aot/videos/R_S_yt-X6ivH9SqGu8_306.mp4	0.0	276.14869809150696	
61	213.08120918273926	movie	1		301.0	59.0	2.5	/experiments/knapen_aot/videos/R_S_yt-X6ivH9SqGu8_306.mp4	0.0	276.15680623054504	2.508265972137451
61	215.5894751548767	fix_post	2		12.0	59.0	2.5	/experiments/knapen_aot/videos/R_S_yt-X6ivH9SqGu8_306.mp4	0.0	278.6650722026825	0.10004901885986328
62	215.68952417373657	fix_pre	0		130.0	60.0	2.5	/experiments/knapen_aot/videos/R_S_yt-XYULt48onn4_6.mp4	0.0	278.76512122154236	1.0833499431610107
62	216.76470518112183	response	0	2		60.0	2.5	/experiments/knapen_aot/videos/R_S_yt-XYULt48onn4_6.mp4	0.0	279.8403022289276	
62	216.77287411689758	movie	1		301.0	60.0	2.5	/experiments/knapen_aot/videos/R_S_yt-XYULt48onn4_6.mp4	0.0	279.84847116470337	2.5083351135253906
62	219.28120923042297	fix_post	2		12.0	60.0	2.5	/experiments/knapen_aot/videos/R_S_yt-XYULt48onn4_6.mp4	0.0	282.35680627822876	0.09995293617248535
63	219.38116216659546	fix_pre	0		91.0	61.0	2.5	/experiments/knapen_aot/videos/R_S_yt-b0IfGcoHfD0_83.mp4	0.0	282.45675921440125	0.7583858966827393
63	220.1313271522522	response	0	2		61.0	2.5	/experiments/knapen_aot/videos/R_S_yt-b0IfGcoHfD0_83.mp4	0.0	283.206924200058	
63	220.1395480632782	movie	1		301.0	61.0	2.5	/experiments/knapen_aot/videos/R_S_yt-b0IfGcoHfD0_83.mp4	0.0	283.215145111084	2.5083560943603516
63	222.64790415763855	fix_post	2		12.0	61.0	2.5	/experiments/knapen_aot/videos/R_S_yt-b0IfGcoHfD0_83.mp4	0.0	285.72350120544434	0.09999299049377441
64	222.74789714813232	fix_pre	0		112.0	62.0	2.5	blank	1.0	285.8234941959381	0.9333400726318359
64	223.66540503501892	response	0	2		62.0	2.5	blank	1.0	286.7410020828247	
64	223.68123722076416	movie	1		301.0	62.0	2.5	blank	1.0	286.75683426856995	2.5083088874816895
64	226.18954610824585	fix_post	2		12.0	62.0	2.5	blank	1.0	289.26514315605164	0.09997200965881348
65	226.28951811790466	fix_pre	0		203.0	63.0	2.5	/experiments/knapen_aot/videos/R_S_yt-4i1b6NQ9NKs_5.mp4	0.0	289.36511516571045	1.6916279792785645
65	227.97298002243042	response	0	2		63.0	2.5	/experiments/knapen_aot/videos/R_S_yt-4i1b6NQ9NKs_5.mp4	0.0	291.0485770702362	
65	227.98114609718323	movie	1		301.0	63.0	2.5	/experiments/knapen_aot/videos/R_S_yt-4i1b6NQ9NKs_5.mp4	0.0	291.056743144989	2.5084099769592285
65	230.48955607414246	fix_post	2		12.0	63.0	2.5	/experiments/knapen_aot/videos/R_S_yt-4i1b6NQ9NKs_5.mp4	0.0	293.56515312194824	0.09996294975280762
66	230.58951902389526	fix_pre	0		81.0	64.0	2.5	/experiments/knapen_aot/videos/S_yt-hRAqAwRhmwE_58.mp4	0.0	293.66511607170105	0.6750161647796631
66	231.2563672065735	response	0	2		64.0	2.5	/experiments/knapen_aot/videos/S_yt-hRAqAwRhmwE_58.mp4	0.0	294.3319642543793	
66	231.26453518867493	movie	1		301.0	64.0	2.5	/experiments/knapen_aot/videos/S_yt-hRAqAwRhmwE_58.mp4	0.0	294.3401322364807	2.508358955383301
66	233.77289414405823	fix_post	2		12.0	64.0	2.5	/experiments/knapen_aot/videos/S_yt-hRAqAwRhmwE_58.mp4	0.0	296.848491191864	0.09998703002929688
67	233.87288117408752	fix_pre	0		41.0	65.0	2.5	/experiments/knapen_aot/videos/R_S_yt-pB9w3AA-woE_37.mp4	0.0	296.9484782218933	0.34163784980773926
67	234.20624423027039	response	0	2		65.0	2.5	/experiments/knapen_aot/videos/R_S_yt-pB9w3AA-woE_37.mp4	0.0	297.2818412780762	
67	234.21451902389526	movie	1		301.0	65.0	2.5	/experiments/knapen_aot/videos/R_S_yt-pB9w3AA-woE_37.mp4	0.0	297.29011607170105	2.50838303565979
67	236.72290205955505	fix_post	2		12.0	65.0	2.5	/experiments/knapen_aot/videos/R_S_yt-pB9w3AA-woE_37.mp4	0.0	299.79849910736084	0.09995102882385254
68	236.8228530883789	fix_pre	0		33.0	66.0	2.5	/experiments/knapen_aot/videos/R_S_yt-0Zze3Ff12Ys_58.mp4	0.0	299.8984501361847	0.2834339141845703
68	237.09796810150146	response	0	2		66.0	2.5	/experiments/knapen_aot/videos/R_S_yt-0Zze3Ff12Ys_58.mp4	0.0	300.17356514930725	
68	237.10628700256348	movie	1		301.0	66.0	2.5	/experiments/knapen_aot/videos/R_S_yt-0Zze3Ff12Ys_58.mp4	0.0	300.18188405036926	2.5082361698150635
68	239.61452317237854	fix_post	2		12.0	66.0	2.5	/experiments/knapen_aot/videos/R_S_yt-0Zze3Ff12Ys_58.mp4	0.0	302.6901202201843	0.09997105598449707
69	239.71449422836304	fix_pre	0		107.0	67.0	2.5	/experiments/knapen_aot/videos/S_ILSVRC2015_train_00042003.mp4	0.0	302.7900912761688	0.891685962677002
69	240.59799313545227	response	0	2		67.0	2.5	/experiments/knapen_aot/videos/S_ILSVRC2015_train_00042003.mp4	0.0	303.67359018325806	
69	240.60618019104004	movie	1		301.0	67.0	2.5	/experiments/knapen_aot/videos/S_ILSVRC2015_train_00042003.mp4	0.0	303.6817772388458	2.5084140300750732
69	243.1145942211151	fix_post	2		12.0	67.0	2.5	/experiments/knapen_aot/videos/S_ILSVRC2015_train_00042003.mp4	0.0	306.1901912689209	0.09990882873535156
70	243.21450304985046	fix_pre	0		134.0	68.0	2.5	/experiments/knapen_aot/videos/R_S_yt-7XDVHp75fu4_93.mp4	0.0	306.29010009765625	1.1166231632232666
70	244.32297611236572	response	0	2		68.0	2.5	/experiments/knapen_aot/videos/R_S_yt-7XDVHp75fu4_93.mp4	0.0	307.3985731601715	
70	244.33112621307373	movie	1		301.0	68.0	2.5	/experiments/knapen_aot/videos/R_S_yt-7XDVHp75fu4_93.mp4	0.0	307.4067232608795	2.5083398818969727
70	246.8394660949707	fix_post	2		12.0	68.0	2.5	/experiments/knapen_aot/videos/R_S_yt-7XDVHp75fu4_93.mp4	0.0	309.9150631427765	0.10006403923034668
71	246.93953013420105	fix_pre	0		94.0	69.0	2.5	blank	1.0	310.01512718200684	0.7832779884338379
71	247.71471619606018	response	0	2		69.0	2.5	blank	1.0	310.79031324386597	
71	247.7228081226349	movie	1		301.0	69.0	2.5	blank	1.0	310.7984051704407	2.508352041244507
71	250.2311601638794	fix_post	2		12.0	69.0	2.5	blank	1.0	313.3067572116852	0.09996604919433594
72	250.33112621307373	fix_pre	0		36.0	70.0	2.5	/experiments/knapen_aot/videos/R_S_ILSVRC2015_train_00155004.mp4	0.0	313.4067232608795	0.29998087882995605
72	250.62297415733337	response	0	2		70.0	2.5	/experiments/knapen_aot/videos/R_S_ILSVRC2015_train_00155004.mp4	0.0	313.69857120513916	
72	250.6311070919037	movie	1		301.0	70.0	2.5	/experiments/knapen_aot/videos/R_S_ILSVRC2015_train_00155004.mp4	0.0	313.7067041397095	2.508310079574585
72	253.13941717147827	fix_post	2		12.0	70.0	2.5	/experiments/knapen_aot/videos/R_S_ILSVRC2015_train_00155004.mp4	0.0	316.21501421928406	0.10005593299865723
73	253.23947310447693	fix_pre	0		61.0	71.0	2.5	/experiments/knapen_aot/videos/R_S_yt-urJgH6tpfkU_204.mp4	0.0	316.3150701522827	0.5082991123199463
73	253.73960304260254	response	0	2		71.0	2.5	/experiments/knapen_aot/videos/R_S_yt-urJgH6tpfkU_204.mp4	0.0	316.8152000904083	
73	253.74777221679688	movie	1		301.0	71.0	2.5	/experiments/knapen_aot/videos/R_S_yt-urJgH6tpfkU_204.mp4	0.0	316.82336926460266	2.5083398818969727
73	256.25611209869385	fix_post	2		12.0	71.0	2.5	/experiments/knapen_aot/videos/R_S_yt-urJgH6tpfkU_204.mp4	0.0	319.33170914649963	0.10000801086425781
74	256.3561201095581	fix_pre	0		224.0	72.0	2.5	/experiments/knapen_aot/videos/R_S_yt-alGXD2Drh_g_19.mp4	0.0	319.4317171573639	1.866621971130371
74	258.21457505226135	response	0	2		72.0	2.5	/experiments/knapen_aot/videos/R_S_yt-alGXD2Drh_g_19.mp4	0.0	321.29017210006714	
74	258.2227420806885	movie	1		301.0	72.0	2.5	/experiments/knapen_aot/videos/R_S_yt-alGXD2Drh_g_19.mp4	0.0	321.29833912849426	2.508373975753784
74	260.73111605644226	fix_post	2		12.0	72.0	2.5	/experiments/knapen_aot/videos/R_S_yt-alGXD2Drh_g_19.mp4	0.0	323.80671310424805	0.09998011589050293
75	260.83109617233276	fix_pre	0		99.0	73.0	2.5	/experiments/knapen_aot/videos/S_video_inspire_texas_austin_oct2019_evening_00085.1080-h264.mp4	0.0	323.90669322013855	0.8258459568023682
75	261.64789605140686	response	0	2		73.0	2.5	/experiments/knapen_aot/videos/S_video_inspire_texas_austin_oct2019_evening_00085.1080-h264.mp4	0.0	324.72349309921265	
75	261.65694212913513	movie	1		169.0	73.0	2.5	/experiments/knapen_aot/videos/S_video_inspire_texas_austin_oct2019_evening_00085.1080-h264.mp4	0.0	324.7325391769409	2.5074100494384766
75	264.1643521785736	fix_post	2		12.0	73.0	2.5	/experiments/knapen_aot/videos/S_video_inspire_texas_austin_oct2019_evening_00085.1080-h264.mp4	0.0	327.2399492263794	0.09992384910583496
76	264.26427602767944	fix_pre	0		159.0	74.0	2.5	/experiments/knapen_aot/videos/R_S_ILSVRC2015_train_00079001.mp4	0.0	327.33987307548523	1.3250651359558105
76	265.58113503456116	response	0	2		74.0	2.5	/experiments/knapen_aot/videos/R_S_ILSVRC2015_train_00079001.mp4	0.0	328.65673208236694	
76	265.58934116363525	movie	1		301.0	74.0	2.5	/experiments/knapen_aot/videos/R_S_ILSVRC2015_train_00079001.mp4	0.0	328.66493821144104	2.508314847946167
76	268.0976560115814	fix_post	2		12.0	74.0	2.5	/experiments/knapen_aot/videos/R_S_ILSVRC2015_train_00079001.mp4	0.0	331.1732530593872	0.10007715225219727
77	268.1977331638336	fix_pre	0		42.0	75.0	2.5	blank	1.0	331.2733302116394	0.34990406036376953
77	268.5394721031189	response	0	2		75.0	2.5	blank	1.0	331.6150691509247	
77	268.5476372241974	movie	1		301.0	75.0	2.5	blank	1.0	331.6232342720032	2.5083868503570557
77	271.05602407455444	fix_post	2		12.0	75.0	2.5	blank	1.0	334.13162112236023	0.09994101524353027
78	271.155965089798	fix_pre	0		161.0	76.0	2.5	/experiments/knapen_aot/videos/R_S_yt-xqHrTtvFFIs_3.mp4	0.0	334.23156213760376	1.3417351245880127
78	272.4819781780243	response	0	2		76.0	2.5	/experiments/knapen_aot/videos/R_S_yt-xqHrTtvFFIs_3.mp4	0.0	335.5575752258301	
78	272.497700214386	movie	1		301.0	76.0	2.5	/experiments/knapen_aot/videos/R_S_yt-xqHrTtvFFIs_3.mp4	0.0	335.5732972621918	2.508389949798584
78	275.00609016418457	fix_post	2		12.0	76.0	2.5	/experiments/knapen_aot/videos/R_S_yt-xqHrTtvFFIs_3.mp4	0.0	338.08168721199036	0.09994196891784668
79	275.1060321331024	fix_pre	0		100.0	77.0	2.5	/experiments/knapen_aot/videos/S_yt-TbdZrcl_Jso_5.mp4	0.0	338.1816291809082	0.8332328796386719
79	275.9311361312866	response	0	2		77.0	2.5	/experiments/knapen_aot/videos/S_yt-TbdZrcl_Jso_5.mp4	0.0	339.0067331790924	
79	275.9392650127411	movie	1		301.0	77.0	2.5	/experiments/knapen_aot/videos/S_yt-TbdZrcl_Jso_5.mp4	0.0	339.0148620605469	2.5083680152893066
79	278.4476330280304	fix_post	2		12.0	77.0	2.5	/experiments/knapen_aot/videos/S_yt-TbdZrcl_Jso_5.mp4	0.0	341.5232300758362	0.09994101524353027
80	278.5475740432739	fix_pre	0		35.0	78.0	2.5	/experiments/knapen_aot/videos/S_yt--UhwpukdyBg_51.mp4	0.0	341.6231710910797	0.29163098335266113
80	278.83107113838196	response	0	2		78.0	2.5	/experiments/knapen_aot/videos/S_yt--UhwpukdyBg_51.mp4	0.0	341.90666818618774	
80	278.8392050266266	movie	1		301.0	78.0	2.5	/experiments/knapen_aot/videos/S_yt--UhwpukdyBg_51.mp4	0.0	341.9148020744324	2.508404016494751
80	281.34760904312134	fix_post	2		12.0	78.0	2.5	/experiments/knapen_aot/videos/S_yt--UhwpukdyBg_51.mp4	0.0	344.4232060909271	0.10000300407409668
81	281.44761204719543	fix_pre	0		103.0	79.0	2.5	/experiments/knapen_aot/videos/R_S_ILSVRC2015_train_00569003.mp4	0.0	344.5232090950012	0.85831618309021
81	282.29775500297546	response	0	2		79.0	2.5	/experiments/knapen_aot/videos/R_S_ILSVRC2015_train_00569003.mp4	0.0	345.37335205078125	
81	282.30592823028564	movie	1		301.0	79.0	2.5	/experiments/knapen_aot/videos/R_S_ILSVRC2015_train_00569003.mp4	0.0	345.38152527809143	2.508314847946167
81	284.8142430782318	fix_post	2		12.0	79.0	2.5	/experiments/knapen_aot/videos/R_S_ILSVRC2015_train_00569003.mp4	0.0	347.8898401260376	0.10005998611450195
82	284.9143030643463	fix_pre	0		41.0	80.0	2.5	/experiments/knapen_aot/videos/R_S_pexels-tima-miroshnichenko-5717005.mp4	0.0	347.9899001121521	0.3416430950164795
82	285.247652053833	response	0	2		80.0	2.5	/experiments/knapen_aot/videos/R_S_pexels-tima-miroshnichenko-5717005.mp4	0.0	348.3232491016388	
82	285.2559461593628	movie	1		169.0	80.0	2.5	/experiments/knapen_aot/videos/R_S_pexels-tima-miroshnichenko-5717005.mp4	0.0	348.3315432071686	2.508333921432495
82	287.7642800807953	fix_post	2		12.0	80.0	2.5	/experiments/knapen_aot/videos/R_S_pexels-tima-miroshnichenko-5717005.mp4	0.0	350.8398771286011	0.099945068359375
83	287.86422514915466	fix_pre	0		119.0	81.0	2.5	/experiments/knapen_aot/videos/S_yt-MSdNCUWOp4o_4.mp4	0.0	350.93982219696045	0.9916858673095703
83	288.84774708747864	response	0	2		81.0	2.5	/experiments/knapen_aot/videos/S_yt-MSdNCUWOp4o_4.mp4	0.0	351.9233441352844	
83	288.85591101646423	movie	1		301.0	81.0	2.5	/experiments/knapen_aot/videos/S_yt-MSdNCUWOp4o_4.mp4	0.0	351.93150806427	2.508406162261963
83	291.3643171787262	fix_post	2		12.0	81.0	2.5	/experiments/knapen_aot/videos/S_yt-MSdNCUWOp4o_4.mp4	0.0	354.439914226532	0.09991192817687988
84	291.4642291069031	fix_pre	0		56.0	82.0	2.5	blank	1.0	354.53982615470886	0.46666598320007324
84	291.9226071834564	response	0	2		82.0	2.5	blank	1.0	354.9982042312622	
84	291.93089509010315	movie	1		301.0	82.0	2.5	blank	1.0	355.00649213790894	2.508342981338501
84	294.43923807144165	fix_post	2		12.0	82.0	2.5	blank	1.0	357.51483511924744	0.10004210472106934
85	294.5392801761627	fix_pre	0		41.0	83.0	2.5	/experiments/knapen_aot/videos/S_I003_C008_SDR_2K_AVC.mp4	0.0	357.6148772239685	0.3416099548339844
85	294.8725960254669	response	0	2		83.0	2.5	/experiments/knapen_aot/videos/S_I003_C008_SDR_2K_AVC.mp4	0.0	357.9481930732727	
85	294.8808901309967	movie	1		173.0	83.0	2.5	/experiments/knapen_aot/videos/S_I003_C008_SDR_2K_AVC.mp4	0.0	357.9564871788025	2.5083560943603516
85	297.38924622535706	fix_post	2		12.0	83.0	2.5	/experiments/knapen_aot/videos/S_I003_C008_SDR_2K_AVC.mp4	0.0	360.46484327316284	0.1006159782409668
87	297.489862203598	stim	0		221.0					360.5654592514038	1.8410298824310303
87	299.3263170719147	response	0	space						362.40191411972046	
