trial_nr	onset	event_type	phase	response	nr_frames	movie_index	movie_duration	movie_file	blank	onset_abs	duration
0	0.1672370433807373	stim	0		161.0					72.07405018806458	1.4008748531341553
0	1.5581629276275635	response	0	space						73.4649760723114	
1	1.5681118965148926	stim	0		121.0					73.47492504119873	1.0065600872039795
1	2.574671983718872	stim	1		120.0					74.48148512840271	1.000364065170288
2	3.57503604888916	fix_pre	0		236.0	0.0	2.5	/experiments/knapen_aot/videos/R_S_yt-Pinnv3-3GFU_452.mp4	0.0	75.481849193573	1.9662249088287354
2	5.534357070922852	response	0	2		0.0	2.5	/experiments/knapen_aot/videos/R_S_yt-Pinnv3-3GFU_452.mp4	0.0	77.44117021560669	
2	5.5412609577178955	movie	1		301.0	0.0	2.5	/experiments/knapen_aot/videos/R_S_yt-Pinnv3-3GFU_452.mp4	0.0	77.44807410240173	2.5084190368652344
2	8.04967999458313	fix_post	2		12.0	0.0	2.5	/experiments/knapen_aot/videos/R_S_yt-Pinnv3-3GFU_452.mp4	0.0	79.95649313926697	0.10000395774841309
3	8.149683952331543	fix_pre	0		79.0	1.0	2.5	/experiments/knapen_aot/videos/R_S_pexels-cottonbro-9499408.mp4	0.0	80.05649709701538	0.6582849025726318
3	8.79980993270874	response	0	2		1.0	2.5	/experiments/knapen_aot/videos/R_S_pexels-cottonbro-9499408.mp4	0.0	80.70662307739258	
3	8.807968854904175	movie	1		179.0	1.0	2.5	/experiments/knapen_aot/videos/R_S_pexels-cottonbro-9499408.mp4	0.0	80.71478199958801	2.508449077606201
3	11.316417932510376	fix_post	2		12.0	1.0	2.5	/experiments/knapen_aot/videos/R_S_pexels-cottonbro-9499408.mp4	0.0	83.22323107719421	0.09983396530151367
4	11.41625189781189	fix_pre	0		27.0	2.0	2.5	/experiments/knapen_aot/videos/R_S_RS_A008_C010_SDR_20191218_SDR_2K_AVC.mp4	0.0	83.32306504249573	0.22498703002929688
4	11.632986068725586	response	0	2		2.0	2.5	/experiments/knapen_aot/videos/R_S_RS_A008_C010_SDR_20191218_SDR_2K_AVC.mp4	0.0	83.53979921340942	
4	11.641238927841187	movie	1		179.0	2.0	2.5	/experiments/knapen_aot/videos/R_S_RS_A008_C010_SDR_20191218_SDR_2K_AVC.mp4	0.0	83.54805207252502	2.5083470344543457
4	14.149585962295532	fix_post	2		11.0	2.0	2.5	/experiments/knapen_aot/videos/R_S_RS_A008_C010_SDR_20191218_SDR_2K_AVC.mp4	0.0	86.05639910697937	0.09206700325012207
4	14.233126878738403	response	2	2		2.0	2.5	/experiments/knapen_aot/videos/R_S_RS_A008_C010_SDR_20191218_SDR_2K_AVC.mp4	0.0	86.13994002342224	
5	14.241652965545654	fix_pre	0		70.0	3.0	2.5	/experiments/knapen_aot/videos/R_S_wc-b4Oquu3WQPRz_45.mp4	0.0	86.14846611022949	0.5832719802856445
5	14.816381931304932	response	0	2		3.0	2.5	/experiments/knapen_aot/videos/R_S_wc-b4Oquu3WQPRz_45.mp4	0.0	86.72319507598877	
5	14.824924945831299	movie	1		170.0	3.0	2.5	/experiments/knapen_aot/videos/R_S_wc-b4Oquu3WQPRz_45.mp4	0.0	86.73173809051514	2.5080299377441406
5	17.33295488357544	fix_post	2		12.0	3.0	2.5	/experiments/knapen_aot/videos/R_S_wc-b4Oquu3WQPRz_45.mp4	0.0	89.23976802825928	0.0999610424041748
6	17.432915925979614	fix_pre	0		58.0	4.0	2.5	/experiments/knapen_aot/videos/R_S_video_inspire_alabama_montgomery_countryside_00007.1080-h264.mp4	0.0	89.33972907066345	0.48329997062683105
6	17.90808606147766	response	0	2		4.0	2.5	/experiments/knapen_aot/videos/R_S_video_inspire_alabama_montgomery_countryside_00007.1080-h264.mp4	0.0	89.8148992061615	
6	17.916215896606445	movie	1		170.0	4.0	2.5	/experiments/knapen_aot/videos/R_S_video_inspire_alabama_montgomery_countryside_00007.1080-h264.mp4	0.0	89.82302904129028	2.508345127105713
6	20.424561023712158	fix_post	2		12.0	4.0	2.5	/experiments/knapen_aot/videos/R_S_video_inspire_alabama_montgomery_countryside_00007.1080-h264.mp4	0.0	92.331374168396	0.10005903244018555
7	20.524620056152344	fix_pre	0		21.0	5.0	2.5	/experiments/knapen_aot/videos/S_comp_GMT329_113NC_396B_1105_ITALY_v03_SDR_FINAL_20180706_SDR_2K_AVC.mp4	0.0	92.43143320083618	0.1751689910888672
7	20.691415071487427	response	0	2		5.0	2.5	/experiments/knapen_aot/videos/S_comp_GMT329_113NC_396B_1105_ITALY_v03_SDR_FINAL_20180706_SDR_2K_AVC.mp4	0.0	92.59822821617126	
7	20.69978904724121	movie	1		167.0	5.0	2.5	/experiments/knapen_aot/videos/S_comp_GMT329_113NC_396B_1105_ITALY_v03_SDR_FINAL_20180706_SDR_2K_AVC.mp4	0.0	92.60660219192505	2.508159875869751
7	23.207948923110962	fix_post	2		12.0	5.0	2.5	/experiments/knapen_aot/videos/S_comp_GMT329_113NC_396B_1105_ITALY_v03_SDR_FINAL_20180706_SDR_2K_AVC.mp4	0.0	95.1147620677948	0.10001707077026367
8	23.307965993881226	fix_pre	0		34.0	6.0	2.5	blank	1.0	95.21477913856506	0.2832930088043213
8	23.58309292793274	response	0	2		6.0	2.5	blank	1.0	95.48990607261658	
8	23.591259002685547	movie	1		301.0	6.0	2.5	blank	1.0	95.49807214736938	2.508341073989868
8	25.333064079284668	response	1	2		6.0	2.5	blank	1.0	97.2398772239685	
8	26.099600076675415	fix_post	2		12.0	6.0	2.5	blank	1.0	98.00641322135925	0.10041189193725586
9	26.20001196861267	fix_pre	0		162.0	7.0	2.5	/experiments/knapen_aot/videos/R_S_yt-D_f3_HIXG2g_87.mp4	0.0	98.10682511329651	1.3495368957519531
9	27.541363954544067	response	0	2		7.0	2.5	/experiments/knapen_aot/videos/R_S_yt-D_f3_HIXG2g_87.mp4	0.0	99.4481770992279	
9	27.549548864364624	movie	1		301.0	7.0	2.5	/experiments/knapen_aot/videos/R_S_yt-D_f3_HIXG2g_87.mp4	0.0	99.45636200904846	2.508378028869629
9	30.057926893234253	fix_post	2		12.0	7.0	2.5	/experiments/knapen_aot/videos/R_S_yt-D_f3_HIXG2g_87.mp4	0.0	101.96474003791809	0.10079407691955566
10	30.15872097015381	fix_pre	0		40.0	8.0	2.5	/experiments/knapen_aot/videos/S_Pz_NXxhQCJc_70.mp4	0.0	102.06553411483765	0.332690954208374
10	30.483031034469604	response	0	2		8.0	2.5	/experiments/knapen_aot/videos/S_Pz_NXxhQCJc_70.mp4	0.0	102.38984417915344	
10	30.491411924362183	movie	1		301.0	8.0	2.5	/experiments/knapen_aot/videos/S_Pz_NXxhQCJc_70.mp4	0.0	102.39822506904602	2.508108139038086
10	32.99952006340027	fix_post	2		12.0	8.0	2.5	/experiments/knapen_aot/videos/S_Pz_NXxhQCJc_70.mp4	0.0	104.9063332080841	0.1000528335571289
11	33.0995728969574	fix_pre	0		62.0	9.0	2.5	/experiments/knapen_aot/videos/S_pexels-koolshooters-7327412_1.mp4	0.0	105.00638604164124	0.516772985458374
11	33.60796093940735	response	0	2		9.0	2.5	/experiments/knapen_aot/videos/S_pexels-koolshooters-7327412_1.mp4	0.0	105.51477408409119	
11	33.61634588241577	movie	1		164.0	9.0	2.5	/experiments/knapen_aot/videos/S_pexels-koolshooters-7327412_1.mp4	0.0	105.52315902709961	2.508131980895996
11	36.12447786331177	fix_post	2		12.0	9.0	2.5	/experiments/knapen_aot/videos/S_pexels-koolshooters-7327412_1.mp4	0.0	108.0312910079956	0.10010313987731934
12	36.22458100318909	fix_pre	0		54.0	10.0	2.5	/experiments/knapen_aot/videos/S_yt-XA6RBioito4_18.mp4	0.0	108.13139414787292	0.4499528408050537
12	36.66632604598999	response	0	2		10.0	2.5	/experiments/knapen_aot/videos/S_yt-XA6RBioito4_18.mp4	0.0	108.57313919067383	
12	36.67453384399414	movie	1		301.0	10.0	2.5	/experiments/knapen_aot/videos/S_yt-XA6RBioito4_18.mp4	0.0	108.58134698867798	2.5082781314849854
12	39.182811975479126	fix_post	2		12.0	10.0	2.5	/experiments/knapen_aot/videos/S_yt-XA6RBioito4_18.mp4	0.0	111.08962512016296	0.10020804405212402
13	39.28302001953125	fix_pre	0		29.0	11.0	2.5	/experiments/knapen_aot/videos/R_S_59eT4XDXNno_25.mp4	0.0	111.18983316421509	0.2414569854736328
13	39.516273021698	response	0	2		11.0	2.5	/experiments/knapen_aot/videos/R_S_59eT4XDXNno_25.mp4	0.0	111.42308616638184	
13	39.52447700500488	movie	1		301.0	11.0	2.5	/experiments/knapen_aot/videos/R_S_59eT4XDXNno_25.mp4	0.0	111.43129014968872	2.5084569454193115
13	42.032933950424194	fix_post	2		12.0	11.0	2.5	/experiments/knapen_aot/videos/R_S_59eT4XDXNno_25.mp4	0.0	113.93974709510803	0.09988093376159668
14	42.13281488418579	fix_pre	0		103.0	12.0	2.5	blank	1.0	114.03962802886963	0.8584141731262207
14	42.98293399810791	response	0	2		12.0	2.5	blank	1.0	114.88974714279175	
14	42.99122905731201	movie	1		301.0	12.0	2.5	blank	1.0	114.89804220199585	2.508157968521118
14	44.99122405052185	response	1	2		12.0	2.5	blank	1.0	116.89803719520569	
14	45.49938702583313	fix_post	2		12.0	12.0	2.5	blank	1.0	117.40620017051697	0.1030428409576416
15	45.60242986679077	fix_pre	0		104.0	13.0	2.5	/experiments/knapen_aot/videos/R_S_yt-cokedWwwYYs_136.mp4	0.0	117.50924301147461	0.8636801242828369
15	46.45793890953064	response	0	2		13.0	2.5	/experiments/knapen_aot/videos/R_S_yt-cokedWwwYYs_136.mp4	0.0	118.36475205421448	
15	46.46610999107361	movie	1		301.0	13.0	2.5	/experiments/knapen_aot/videos/R_S_yt-cokedWwwYYs_136.mp4	0.0	118.37292313575745	2.508286952972412
15	48.97439694404602	fix_post	2		12.0	13.0	2.5	/experiments/knapen_aot/videos/R_S_yt-cokedWwwYYs_136.mp4	0.0	120.88121008872986	0.10038399696350098
16	49.07478094100952	fix_pre	0		24.0	14.0	2.5	/experiments/knapen_aot/videos/R_S_yt-l6WPyKg_3is_154.mp4	0.0	120.98159408569336	0.19962096214294434
16	49.266205072402954	response	0	2		14.0	2.5	/experiments/knapen_aot/videos/R_S_yt-l6WPyKg_3is_154.mp4	0.0	121.17301821708679	
16	49.274401903152466	movie	1		298.0	14.0	2.5	/experiments/knapen_aot/videos/R_S_yt-l6WPyKg_3is_154.mp4	0.0	121.1812150478363	2.5084500312805176
16	51.78285193443298	fix_post	2		12.0	14.0	2.5	/experiments/knapen_aot/videos/R_S_yt-l6WPyKg_3is_154.mp4	0.0	123.68966507911682	0.09998297691345215
17	51.882834911346436	fix_pre	0		36.0	15.0	2.5	/experiments/knapen_aot/videos/R_S_comp_H012_C009_PS_v01_SDR_PS_20180925_SDR_2K_AVC.mp4	0.0	123.78964805603027	0.2999429702758789
17	52.17457294464111	response	0	2		15.0	2.5	/experiments/knapen_aot/videos/R_S_comp_H012_C009_PS_v01_SDR_PS_20180925_SDR_2K_AVC.mp4	0.0	124.08138608932495	
17	52.182777881622314	movie	1		169.0	15.0	2.5	/experiments/knapen_aot/videos/R_S_comp_H012_C009_PS_v01_SDR_PS_20180925_SDR_2K_AVC.mp4	0.0	124.08959102630615	2.5083401203155518
17	54.691118001937866	fix_post	2		12.0	15.0	2.5	/experiments/knapen_aot/videos/R_S_comp_H012_C009_PS_v01_SDR_PS_20180925_SDR_2K_AVC.mp4	0.0	126.5979311466217	0.09988093376159668
18	54.79099893569946	fix_pre	0		27.0	16.0	2.5	/experiments/knapen_aot/videos/R_S_yt-YEiNSML5iiQ_18.mp4	0.0	126.6978120803833	0.22509002685546875
18	55.00804591178894	response	0	2		16.0	2.5	/experiments/knapen_aot/videos/R_S_yt-YEiNSML5iiQ_18.mp4	0.0	126.91485905647278	
18	55.01608896255493	movie	1		301.0	16.0	2.5	/experiments/knapen_aot/videos/R_S_yt-YEiNSML5iiQ_18.mp4	0.0	126.92290210723877	2.5083649158477783
18	57.52445387840271	fix_post	2		12.0	16.0	2.5	/experiments/knapen_aot/videos/R_S_yt-YEiNSML5iiQ_18.mp4	0.0	129.43126702308655	0.1000220775604248
19	57.624475955963135	fix_pre	0		59.0	17.0	2.5	/experiments/knapen_aot/videos/R_S_yt-OdTWn1U1mO4_68.mp4	0.0	129.53128910064697	0.4916849136352539
19	58.1003680229187	response	0	2		17.0	2.5	/experiments/knapen_aot/videos/R_S_yt-OdTWn1U1mO4_68.mp4	0.0	130.00718116760254	
19	58.11616086959839	movie	1		301.0	17.0	2.5	/experiments/knapen_aot/videos/R_S_yt-OdTWn1U1mO4_68.mp4	0.0	130.02297401428223	2.5082550048828125
19	60.6244158744812	fix_post	2		12.0	17.0	2.5	/experiments/knapen_aot/videos/R_S_yt-OdTWn1U1mO4_68.mp4	0.0	132.53122901916504	0.10003519058227539
20	60.72445106506348	fix_pre	0		34.0	18.0	2.5	/experiments/knapen_aot/videos/R_S_yt-JmmyeMOFpII_29.mp4	0.0	132.63126420974731	0.28324079513549805
20	60.99953484535217	response	0	2		18.0	2.5	/experiments/knapen_aot/videos/R_S_yt-JmmyeMOFpII_29.mp4	0.0	132.906347990036	
20	61.007691860198975	movie	1		300.0	18.0	2.5	/experiments/knapen_aot/videos/R_S_yt-JmmyeMOFpII_29.mp4	0.0	132.9145050048828	2.5083820819854736
20	63.51607394218445	fix_post	2		12.0	18.0	2.5	/experiments/knapen_aot/videos/R_S_yt-JmmyeMOFpII_29.mp4	0.0	135.4228870868683	0.10007309913635254
21	63.6161470413208	fix_pre	0		52.0	19.0	2.5	blank	1.0	135.52296018600464	0.4331789016723633
21	64.03357601165771	response	0	2		19.0	2.5	blank	1.0	135.94038915634155	
21	64.04932594299316	movie	1		301.0	19.0	2.5	blank	1.0	135.956139087677	2.5083420276641846
21	66.55766797065735	fix_post	2		12.0	19.0	2.5	blank	1.0	138.4644811153412	0.10006403923034668
22	66.6577320098877	fix_pre	0		145.0	20.0	2.5	/experiments/knapen_aot/videos/R_S_ILSVRC2015_train_00565000.mp4	0.0	138.56454515457153	1.2084269523620605
22	67.85781288146973	response	0	2		20.0	2.5	/experiments/knapen_aot/videos/R_S_ILSVRC2015_train_00565000.mp4	0.0	139.76462602615356	
22	67.86615896224976	movie	1		301.0	20.0	2.5	/experiments/knapen_aot/videos/R_S_ILSVRC2015_train_00565000.mp4	0.0	139.7729721069336	2.508241891860962
22	70.37440085411072	fix_post	2		12.0	20.0	2.5	/experiments/knapen_aot/videos/R_S_ILSVRC2015_train_00565000.mp4	0.0	142.28121399879456	0.09988021850585938
23	70.47428107261658	fix_pre	0		118.0	21.0	2.5	/experiments/knapen_aot/videos/R_S_yt-2kPrGwVmRfE_169.mp4	0.0	142.38109421730042	0.9833498001098633
23	71.44948601722717	response	0	2		21.0	2.5	/experiments/knapen_aot/videos/R_S_yt-2kPrGwVmRfE_169.mp4	0.0	143.356299161911	
23	71.45763087272644	movie	1		301.0	21.0	2.5	/experiments/knapen_aot/videos/R_S_yt-2kPrGwVmRfE_169.mp4	0.0	143.36444401741028	2.5083301067352295
23	73.96596097946167	fix_post	2		12.0	21.0	2.5	/experiments/knapen_aot/videos/R_S_yt-2kPrGwVmRfE_169.mp4	0.0	145.8727741241455	0.10147309303283691
24	74.0674340724945	fix_pre	0		24.0	22.0	2.5	/experiments/knapen_aot/videos/S_yt-06XMUn9DTKc_35.mp4	0.0	145.97424721717834	0.1984879970550537
24	74.25777697563171	response	0	2		22.0	2.5	/experiments/knapen_aot/videos/S_yt-06XMUn9DTKc_35.mp4	0.0	146.16459012031555	
24	74.26592206954956	movie	1		301.0	22.0	2.5	/experiments/knapen_aot/videos/S_yt-06XMUn9DTKc_35.mp4	0.0	146.1727352142334	2.5084269046783447
24	76.7743489742279	fix_post	2		12.0	22.0	2.5	/experiments/knapen_aot/videos/S_yt-06XMUn9DTKc_35.mp4	0.0	148.68116211891174	0.09998798370361328
25	76.87433695793152	fix_pre	0		13.0	23.0	2.5	/experiments/knapen_aot/videos/R_S_yt-uXDyvrm0Tw0_17.mp4	0.0	148.78115010261536	0.10971808433532715
25	76.96784591674805	response	0	2		23.0	2.5	/experiments/knapen_aot/videos/R_S_yt-uXDyvrm0Tw0_17.mp4	0.0	148.87465906143188	
25	76.98405504226685	movie	1		300.0	23.0	2.5	/experiments/knapen_aot/videos/R_S_yt-uXDyvrm0Tw0_17.mp4	0.0	148.89086818695068	2.506887912750244
25	79.49094295501709	fix_post	2		12.0	23.0	2.5	/experiments/knapen_aot/videos/R_S_yt-uXDyvrm0Tw0_17.mp4	0.0	151.39775609970093	0.09998703002929688
26	79.59092998504639	fix_pre	0		33.0	24.0	2.5	/experiments/knapen_aot/videos/R_S_yt-YEiNSML5iiQ_18.mp4	0.0	151.49774312973022	0.2749800682067871
26	79.85778188705444	response	0	2		24.0	2.5	/experiments/knapen_aot/videos/R_S_yt-YEiNSML5iiQ_18.mp4	0.0	151.76459503173828	
26	79.86591005325317	movie	1		301.0	24.0	2.5	/experiments/knapen_aot/videos/R_S_yt-YEiNSML5iiQ_18.mp4	0.0	151.772723197937	2.5083999633789062
26	82.37431001663208	fix_post	2		12.0	24.0	2.5	/experiments/knapen_aot/videos/R_S_yt-YEiNSML5iiQ_18.mp4	0.0	154.28112316131592	0.09996485710144043
27	82.47427487373352	fix_pre	0		26.0	25.0	2.5	/experiments/knapen_aot/videos/S_yt-K_gHa2x2OQA_319.mp4	0.0	154.38108801841736	0.21806001663208008
27	82.68280005455017	response	0	2		25.0	2.5	/experiments/knapen_aot/videos/S_yt-K_gHa2x2OQA_319.mp4	0.0	154.589613199234	
27	82.6923348903656	movie	1		301.0	25.0	2.5	/experiments/knapen_aot/videos/S_yt-K_gHa2x2OQA_319.mp4	0.0	154.59914803504944	2.5069351196289062
27	85.1992700099945	fix_post	2		12.0	25.0	2.5	/experiments/knapen_aot/videos/S_yt-K_gHa2x2OQA_319.mp4	0.0	157.10608315467834	0.1041419506072998
28	85.3034119606018	fix_pre	0		150.0	26.0	2.5	/experiments/knapen_aot/videos/S_Y011_C001_SDR_2K_AVC.mp4	0.0	157.21022510528564	1.2541499137878418
28	86.54944491386414	response	0	2		26.0	2.5	/experiments/knapen_aot/videos/S_Y011_C001_SDR_2K_AVC.mp4	0.0	158.45625805854797	
28	86.55756187438965	movie	1		170.0	26.0	2.5	/experiments/knapen_aot/videos/S_Y011_C001_SDR_2K_AVC.mp4	0.0	158.4643750190735	2.5083870887756348
28	89.06594896316528	fix_post	2		12.0	26.0	2.5	/experiments/knapen_aot/videos/S_Y011_C001_SDR_2K_AVC.mp4	0.0	160.97276210784912	0.10840892791748047
29	89.17435789108276	fix_pre	0		29.0	27.0	2.5	/experiments/knapen_aot/videos/R_S_pexels-anthony-shkraba-production-8135459.mp4	0.0	161.0811710357666	0.24152302742004395
29	89.4076919555664	response	0	2		27.0	2.5	/experiments/knapen_aot/videos/R_S_pexels-anthony-shkraba-production-8135459.mp4	0.0	161.31450510025024	
29	89.41588091850281	movie	1		167.0	27.0	2.5	/experiments/knapen_aot/videos/R_S_pexels-anthony-shkraba-production-8135459.mp4	0.0	161.32269406318665	2.5084609985351562
29	91.92434191703796	fix_post	2		12.0	27.0	2.5	/experiments/knapen_aot/videos/R_S_pexels-anthony-shkraba-production-8135459.mp4	0.0	163.8311550617218	0.09992194175720215
30	92.02426385879517	fix_pre	0		18.0	28.0	2.5	blank	1.0	163.931077003479	0.15002202987670898
30	92.16612005233765	response	0	2		28.0	2.5	blank	1.0	164.07293319702148	
30	92.17428588867188	movie	1		301.0	28.0	2.5	blank	1.0	164.0810990333557	2.5083301067352295
30	94.6826159954071	fix_post	2		12.0	28.0	2.5	blank	1.0	166.58942914009094	0.10000991821289062
31	94.78262591362	fix_pre	0		14.0	29.0	2.5	/experiments/knapen_aot/videos/S_X-D3lUv-atE_376.mp4	0.0	166.68943905830383	0.11787199974060059
31	94.89108800888062	response	0	2		29.0	2.5	/experiments/knapen_aot/videos/S_X-D3lUv-atE_376.mp4	0.0	166.79790115356445	
31	94.9004979133606	movie	1		301.0	29.0	2.5	/experiments/knapen_aot/videos/S_X-D3lUv-atE_376.mp4	0.0	166.80731105804443	2.5072171688079834
31	97.40771508216858	fix_post	2		12.0	29.0	2.5	/experiments/knapen_aot/videos/S_X-D3lUv-atE_376.mp4	0.0	169.31452822685242	0.09990882873535156
32	97.50762391090393	fix_pre	0		34.0	30.0	2.5	/experiments/knapen_aot/videos/R_S_yt-STL3ejY9u_Q_73.mp4	0.0	169.41443705558777	0.2831990718841553
32	97.78274202346802	response	0	2		30.0	2.5	/experiments/knapen_aot/videos/R_S_yt-STL3ejY9u_Q_73.mp4	0.0	169.68955516815186	
32	97.79082298278809	movie	1		301.0	30.0	2.5	/experiments/knapen_aot/videos/R_S_yt-STL3ejY9u_Q_73.mp4	0.0	169.69763612747192	2.508481025695801
32	100.29930400848389	fix_post	2		12.0	30.0	2.5	/experiments/knapen_aot/videos/R_S_yt-STL3ejY9u_Q_73.mp4	0.0	172.20611715316772	0.09997200965881348
33	100.3992760181427	fix_pre	0		22.0	31.0	2.5	/experiments/knapen_aot/videos/S_yt-hRAqAwRhmwE_58.mp4	0.0	172.30608916282654	0.18329095840454102
33	100.57439684867859	response	0	2		31.0	2.5	/experiments/knapen_aot/videos/S_yt-hRAqAwRhmwE_58.mp4	0.0	172.48120999336243	
33	100.58256697654724	movie	1		301.0	31.0	2.5	/experiments/knapen_aot/videos/S_yt-hRAqAwRhmwE_58.mp4	0.0	172.48938012123108	2.50839900970459
33	103.09096598625183	fix_post	2		12.0	31.0	2.5	/experiments/knapen_aot/videos/S_yt-hRAqAwRhmwE_58.mp4	0.0	174.99777913093567	0.09998607635498047
34	103.19095206260681	fix_pre	0		27.0	32.0	2.5	/experiments/knapen_aot/videos/S_ux8Mvi8P16k_168.mp4	0.0	175.09776520729065	0.22491192817687988
34	103.40781307220459	response	0	2		32.0	2.5	/experiments/knapen_aot/videos/S_ux8Mvi8P16k_168.mp4	0.0	175.31462621688843	
34	103.41586399078369	movie	1		301.0	32.0	2.5	/experiments/knapen_aot/videos/S_ux8Mvi8P16k_168.mp4	0.0	175.32267713546753	2.50838303565979
34	105.92424702644348	fix_post	2		12.0	32.0	2.5	/experiments/knapen_aot/videos/S_ux8Mvi8P16k_168.mp4	0.0	177.83106017112732	0.10000896453857422
35	106.02425599098206	fix_pre	0		20.0	33.0	2.5	/experiments/knapen_aot/videos/R_S_production_ID_4707837.mp4	0.0	177.9310691356659	0.1665658950805664
35	106.1825680732727	response	0	2		33.0	2.5	/experiments/knapen_aot/videos/R_S_production_ID_4707837.mp4	0.0	178.08938121795654	
35	106.19082188606262	movie	1		166.0	33.0	2.5	/experiments/knapen_aot/videos/R_S_production_ID_4707837.mp4	0.0	178.09763503074646	2.5084099769592285
35	108.69923186302185	fix_post	2		12.0	33.0	2.5	/experiments/knapen_aot/videos/R_S_production_ID_4707837.mp4	0.0	180.6060450077057	0.10003018379211426
36	108.79926204681396	fix_pre	0		1.0	34.0	2.5	blank	1.0	180.7060751914978	0.008298873901367188
36	108.7923378944397	response	0	2		34.0	2.5	blank	1.0	180.69915103912354	
36	108.80756092071533	movie	1		301.0	34.0	2.5	blank	1.0	180.71437406539917	2.5082950592041016
36	110.18255496025085	response	1	2		34.0	2.5	blank	1.0	182.0893681049347	
36	111.0159170627594	response	1	2		34.0	2.5	blank	1.0	182.92273020744324	
36	111.31585597991943	fix_post	2		12.0	34.0	2.5	blank	1.0	183.22266912460327	0.10001492500305176
37	111.41587090492249	fix_pre	0		31.0	35.0	2.5	/experiments/knapen_aot/videos/S_yt-XA6RBioito4_18.mp4	0.0	183.32268404960632	0.25829505920410156
37	111.66595387458801	response	0	2		35.0	2.5	/experiments/knapen_aot/videos/S_yt-XA6RBioito4_18.mp4	0.0	183.57276701927185	
37	111.67416596412659	movie	1		301.0	35.0	2.5	/experiments/knapen_aot/videos/S_yt-XA6RBioito4_18.mp4	0.0	183.58097910881042	2.508328914642334
37	114.18249487876892	fix_post	2		12.0	35.0	2.5	/experiments/knapen_aot/videos/S_yt-XA6RBioito4_18.mp4	0.0	186.08930802345276	0.10015296936035156
38	114.28264784812927	fix_pre	0		14.0	36.0	2.5	/experiments/knapen_aot/videos/R_S_yt-78k6vUHDWAI_206.mp4	0.0	186.1894609928131	0.11767220497131348
38	114.39094305038452	response	0	2		36.0	2.5	/experiments/knapen_aot/videos/R_S_yt-78k6vUHDWAI_206.mp4	0.0	186.29775619506836	
38	114.40032005310059	movie	1		298.0	36.0	2.5	/experiments/knapen_aot/videos/R_S_yt-78k6vUHDWAI_206.mp4	0.0	186.30713319778442	2.5071709156036377
38	116.90749096870422	fix_post	2		12.0	36.0	2.5	/experiments/knapen_aot/videos/R_S_yt-78k6vUHDWAI_206.mp4	0.0	188.81430411338806	0.10002303123474121
39	117.00751399993896	fix_pre	0		11.0	37.0	2.5	/experiments/knapen_aot/videos/R_S_yt-7XDVHp75fu4_93.mp4	0.0	188.9143271446228	0.09161090850830078
39	117.09092807769775	response	0	2		37.0	2.5	/experiments/knapen_aot/videos/R_S_yt-7XDVHp75fu4_93.mp4	0.0	188.9977412223816	
39	117.09912490844727	movie	1		300.0	37.0	2.5	/experiments/knapen_aot/videos/R_S_yt-7XDVHp75fu4_93.mp4	0.0	189.0059380531311	2.5083329677581787
39	119.60745787620544	fix_post	2		12.0	37.0	2.5	/experiments/knapen_aot/videos/R_S_yt-7XDVHp75fu4_93.mp4	0.0	191.51427102088928	0.10004210472106934
40	119.70749998092651	fix_pre	0		13.0	38.0	2.5	/experiments/knapen_aot/videos/R_S_yt-4oacL3aXtlU_11.mp4	0.0	191.61431312561035	0.10948395729064941
40	119.80763506889343	response	0	2		38.0	2.5	/experiments/knapen_aot/videos/R_S_yt-4oacL3aXtlU_11.mp4	0.0	191.71444821357727	
40	119.81698393821716	movie	1		301.0	38.0	2.5	/experiments/knapen_aot/videos/R_S_yt-4oacL3aXtlU_11.mp4	0.0	191.723797082901	2.507172107696533
40	122.3241560459137	fix_post	2		12.0	38.0	2.5	/experiments/knapen_aot/videos/R_S_yt-4oacL3aXtlU_11.mp4	0.0	194.23096919059753	0.09997987747192383
41	122.42413592338562	fix_pre	0		19.0	39.0	2.5	/experiments/knapen_aot/videos/S_yt-BKkZUSowoxg_59.mp4	0.0	194.33094906806946	0.1582639217376709
41	122.57426905632019	response	0	2		39.0	2.5	/experiments/knapen_aot/videos/S_yt-BKkZUSowoxg_59.mp4	0.0	194.48108220100403	
41	122.58239984512329	movie	1		301.0	39.0	2.5	/experiments/knapen_aot/videos/S_yt-BKkZUSowoxg_59.mp4	0.0	194.48921298980713	2.5083940029144287
41	125.09079384803772	fix_post	2		12.0	39.0	2.5	/experiments/knapen_aot/videos/S_yt-BKkZUSowoxg_59.mp4	0.0	196.99760699272156	0.100006103515625
42	125.19079995155334	fix_pre	0		13.0	40.0	2.5	blank	1.0	197.09761309623718	0.10833311080932617
42	125.29095792770386	response	0	2		40.0	2.5	blank	1.0	197.1977710723877	
42	125.29913306236267	movie	1		301.0	40.0	2.5	blank	1.0	197.2059462070465	2.5082688331604004
42	126.74923086166382	response	1	2		40.0	2.5	blank	1.0	198.65604400634766	
42	127.80740189552307	fix_post	2		12.0	40.0	2.5	blank	1.0	199.7142150402069	0.10021114349365234
43	127.90761303901672	fix_pre	0		84.0	41.0	2.5	/experiments/knapen_aot/videos/R_S_yt-5fZZrdwkFx0_28.mp4	0.0	199.81442618370056	0.7008919715881348
43	128.59920692443848	response	0	2		41.0	2.5	/experiments/knapen_aot/videos/R_S_yt-5fZZrdwkFx0_28.mp4	0.0	200.50602006912231	
43	128.60850501060486	movie	1		301.0	41.0	2.5	/experiments/knapen_aot/videos/R_S_yt-5fZZrdwkFx0_28.mp4	0.0	200.5153181552887	2.5072689056396484
43	131.1157739162445	fix_post	2		12.0	41.0	2.5	/experiments/knapen_aot/videos/R_S_yt-5fZZrdwkFx0_28.mp4	0.0	203.02258706092834	0.10008406639099121
44	131.2158579826355	fix_pre	0		23.0	42.0	2.5	/experiments/knapen_aot/videos/R_S_yt-c6kLumgTX54_7.mp4	0.0	203.12267112731934	0.19162392616271973
44	131.39924001693726	response	0	2		42.0	2.5	/experiments/knapen_aot/videos/R_S_yt-c6kLumgTX54_7.mp4	0.0	203.3060531616211	
44	131.40748190879822	movie	1		301.0	42.0	2.5	/experiments/knapen_aot/videos/R_S_yt-c6kLumgTX54_7.mp4	0.0	203.31429505348206	2.5082859992980957
44	133.9157679080963	fix_post	2		12.0	42.0	2.5	/experiments/knapen_aot/videos/R_S_yt-c6kLumgTX54_7.mp4	0.0	205.82258105278015	0.10012602806091309
45	134.01589393615723	fix_pre	0		44.0	43.0	2.5	/experiments/knapen_aot/videos/R_S_yt-WRBmpC-RxIc_678.mp4	0.0	205.92270708084106	0.3665180206298828
45	134.37420892715454	response	0	2		43.0	2.5	/experiments/knapen_aot/videos/R_S_yt-WRBmpC-RxIc_678.mp4	0.0	206.28102207183838	
45	134.3824119567871	movie	1		301.0	43.0	2.5	/experiments/knapen_aot/videos/R_S_yt-WRBmpC-RxIc_678.mp4	0.0	206.28922510147095	2.5083260536193848
45	136.8907380104065	fix_post	2		12.0	43.0	2.5	/experiments/knapen_aot/videos/R_S_yt-WRBmpC-RxIc_678.mp4	0.0	208.79755115509033	0.10004401206970215
46	136.9907820224762	fix_pre	0		32.0	44.0	2.5	/experiments/knapen_aot/videos/R_S_yt-0Ut9QANGX20_35.mp4	0.0	208.89759516716003	0.266542911529541
46	137.24919486045837	response	0	2		44.0	2.5	/experiments/knapen_aot/videos/R_S_yt-0Ut9QANGX20_35.mp4	0.0	209.1560080051422	
46	137.25732493400574	movie	1		300.0	44.0	2.5	/experiments/knapen_aot/videos/R_S_yt-0Ut9QANGX20_35.mp4	0.0	209.16413807868958	2.508415937423706
46	139.76574087142944	fix_post	2		12.0	44.0	2.5	/experiments/knapen_aot/videos/R_S_yt-0Ut9QANGX20_35.mp4	0.0	211.67255401611328	0.10002303123474121
47	139.86576390266418	fix_pre	0		34.0	45.0	2.5	/experiments/knapen_aot/videos/R_S_production_ID_5049072.mp4	0.0	211.77257704734802	0.28421998023986816
47	140.14081597328186	response	0	2		45.0	2.5	/experiments/knapen_aot/videos/R_S_production_ID_5049072.mp4	0.0	212.0476291179657	
47	140.14998388290405	movie	1		164.0	45.0	2.5	/experiments/knapen_aot/videos/R_S_production_ID_5049072.mp4	0.0	212.0567970275879	2.5074210166931152
47	142.65740489959717	fix_post	2		12.0	45.0	2.5	/experiments/knapen_aot/videos/R_S_production_ID_5049072.mp4	0.0	214.564218044281	0.09999608993530273
48	142.75740098953247	fix_pre	0		44.0	46.0	2.5	/experiments/knapen_aot/videos/S_yt--vHa85DHvLU_31.mp4	0.0	214.6642141342163	0.3666250705718994
48	143.10835003852844	response	0	2		46.0	2.5	/experiments/knapen_aot/videos/S_yt--vHa85DHvLU_31.mp4	0.0	215.01516318321228	
48	143.12402606010437	movie	1		301.0	46.0	2.5	/experiments/knapen_aot/videos/S_yt--vHa85DHvLU_31.mp4	0.0	215.0308392047882	2.508330821990967
48	145.63235688209534	fix_post	2		12.0	46.0	2.5	/experiments/knapen_aot/videos/S_yt--vHa85DHvLU_31.mp4	0.0	217.53917002677917	0.09999799728393555
49	145.73235487937927	fix_pre	0		52.0	47.0	2.5	/experiments/knapen_aot/videos/R_S_ILSVRC2015_train_00661001.mp4	0.0	217.6391680240631	0.43334197998046875
49	146.15757703781128	response	0	2		47.0	2.5	/experiments/knapen_aot/videos/R_S_ILSVRC2015_train_00661001.mp4	0.0	218.06439018249512	
49	146.16569685935974	movie	1		298.0	47.0	2.5	/experiments/knapen_aot/videos/R_S_ILSVRC2015_train_00661001.mp4	0.0	218.07251000404358	2.5083260536193848
49	148.67402291297913	fix_post	2		12.0	47.0	2.5	/experiments/knapen_aot/videos/R_S_ILSVRC2015_train_00661001.mp4	0.0	220.58083605766296	0.09999394416809082
50	148.77401685714722	fix_pre	0		138.0	48.0	2.5	blank	1.0	220.68083000183105	1.1499180793762207
50	149.91580891609192	response	0	2		48.0	2.5	blank	1.0	221.82262206077576	
50	149.92393493652344	movie	1		301.0	48.0	2.5	blank	1.0	221.83074808120728	2.508362054824829
50	151.59907793998718	response	1	2		48.0	2.5	blank	1.0	223.50589108467102	
50	152.43229699134827	fix_post	2		12.0	48.0	2.5	blank	1.0	224.3391101360321	0.10029792785644531
51	152.5325949192047	fix_pre	0		38.0	49.0	2.5	/experiments/knapen_aot/videos/S_yt-JDHApyT5ngs_128.mp4	0.0	224.43940806388855	0.3164219856262207
51	152.84074306488037	response	0	2		49.0	2.5	/experiments/knapen_aot/videos/S_yt-JDHApyT5ngs_128.mp4	0.0	224.7475562095642	
51	152.84901690483093	movie	1		301.0	49.0	2.5	/experiments/knapen_aot/videos/S_yt-JDHApyT5ngs_128.mp4	0.0	224.75583004951477	2.508265972137451
51	155.35728287696838	fix_post	2		12.0	49.0	2.5	/experiments/knapen_aot/videos/S_yt-JDHApyT5ngs_128.mp4	0.0	227.26409602165222	0.10051298141479492
52	155.45779585838318	fix_pre	0		20.0	50.0	2.5	/experiments/knapen_aot/videos/R_S_yt-y6JsUW0eSW8_32.mp4	0.0	227.36460900306702	0.1661670207977295
52	155.6158468723297	response	0	2		50.0	2.5	/experiments/knapen_aot/videos/R_S_yt-y6JsUW0eSW8_32.mp4	0.0	227.52266001701355	
52	155.6239628791809	movie	1		301.0	50.0	2.5	/experiments/knapen_aot/videos/R_S_yt-y6JsUW0eSW8_32.mp4	0.0	227.53077602386475	2.5082709789276123
52	158.13223385810852	fix_post	2		12.0	50.0	2.5	/experiments/knapen_aot/videos/R_S_yt-y6JsUW0eSW8_32.mp4	0.0	230.03904700279236	0.10005402565002441
53	158.23228788375854	fix_pre	0		14.0	51.0	2.5	/experiments/knapen_aot/videos/R_S_FZ0hLmjCR0s_26.mp4	0.0	230.13910102844238	0.11665606498718262
53	158.34086298942566	response	0	2		51.0	2.5	/experiments/knapen_aot/videos/R_S_FZ0hLmjCR0s_26.mp4	0.0	230.2476761341095	
53	158.34894394874573	movie	1		301.0	51.0	2.5	/experiments/knapen_aot/videos/R_S_FZ0hLmjCR0s_26.mp4	0.0	230.25575709342957	2.5082969665527344
53	160.85724091529846	fix_post	2		12.0	51.0	2.5	/experiments/knapen_aot/videos/R_S_FZ0hLmjCR0s_26.mp4	0.0	232.7640540599823	0.09999799728393555
54	160.9572389125824	fix_pre	0		8.0	52.0	2.5	/experiments/knapen_aot/videos/S_comp_A105_C003_0212CT_FLARE_v10_SDR_PS_FINAL_20180711_SDR_2K_AVC.mp4	0.0	232.86405205726624	0.06774711608886719
54	161.01581192016602	response	0	2		52.0	2.5	/experiments/knapen_aot/videos/S_comp_A105_C003_0212CT_FLARE_v10_SDR_PS_FINAL_20180711_SDR_2K_AVC.mp4	0.0	232.92262506484985	
54	161.02498602867126	movie	1		161.0	52.0	2.5	/experiments/knapen_aot/videos/S_comp_A105_C003_0212CT_FLARE_v10_SDR_PS_FINAL_20180711_SDR_2K_AVC.mp4	0.0	232.9317991733551	2.5072200298309326
54	163.5322060585022	fix_post	2		12.0	52.0	2.5	/experiments/knapen_aot/videos/S_comp_A105_C003_0212CT_FLARE_v10_SDR_PS_FINAL_20180711_SDR_2K_AVC.mp4	0.0	235.43901920318604	0.10006999969482422
55	163.63227605819702	fix_pre	0		21.0	53.0	2.5	/experiments/knapen_aot/videos/R_S_yt-hvuC_2YXsTQ_159.mp4	0.0	235.53908920288086	0.17504501342773438
55	163.79914593696594	response	0	2		53.0	2.5	/experiments/knapen_aot/videos/R_S_yt-hvuC_2YXsTQ_159.mp4	0.0	235.70595908164978	
55	163.80732107162476	movie	1		301.0	53.0	2.5	/experiments/knapen_aot/videos/R_S_yt-hvuC_2YXsTQ_159.mp4	0.0	235.7141342163086	2.5083229541778564
55	166.3156440258026	fix_post	2		12.0	53.0	2.5	/experiments/knapen_aot/videos/R_S_yt-hvuC_2YXsTQ_159.mp4	0.0	238.22245717048645	0.0999300479888916
56	166.4155740737915	fix_pre	0		146.0	54.0	2.5	/experiments/knapen_aot/videos/R_S_wc-b4Oquu3WQPRz_45.mp4	0.0	238.32238721847534	1.2166178226470947
56	167.62393307685852	response	0	2		54.0	2.5	/experiments/knapen_aot/videos/R_S_wc-b4Oquu3WQPRz_45.mp4	0.0	239.53074622154236	
56	167.6321918964386	movie	1		168.0	54.0	2.5	/experiments/knapen_aot/videos/R_S_wc-b4Oquu3WQPRz_45.mp4	0.0	239.53900504112244	2.5084290504455566
56	170.14062094688416	fix_post	2		12.0	54.0	2.5	/experiments/knapen_aot/videos/R_S_wc-b4Oquu3WQPRz_45.mp4	0.0	242.047434091568	0.100006103515625
57	170.24062705039978	fix_pre	0		6.0	55.0	2.5	blank	1.0	242.14744019508362	0.05001091957092285
57	170.2824249267578	response	0	2		55.0	2.5	blank	1.0	242.18923807144165	
57	170.2906379699707	movie	1		301.0	55.0	2.5	blank	1.0	242.19745111465454	2.5082340240478516
57	171.28238701820374	response	1	2		55.0	2.5	blank	1.0	243.18920016288757	
57	172.79887199401855	fix_post	2		12.0	55.0	2.5	blank	1.0	244.7056851387024	0.1000058650970459
58	172.8988778591156	fix_pre	0		27.0	56.0	2.5	/experiments/knapen_aot/videos/R_S_yt-VrEuTDQxtD0_226.mp4	0.0	244.80569100379944	0.224945068359375
58	173.11570191383362	response	0	2		56.0	2.5	/experiments/knapen_aot/videos/R_S_yt-VrEuTDQxtD0_226.mp4	0.0	245.02251505851746	
58	173.12382292747498	movie	1		301.0	56.0	2.5	/experiments/knapen_aot/videos/R_S_yt-VrEuTDQxtD0_226.mp4	0.0	245.0306360721588	2.5083389282226562
58	175.63216185569763	fix_post	2		12.0	56.0	2.5	/experiments/knapen_aot/videos/R_S_yt-VrEuTDQxtD0_226.mp4	0.0	247.53897500038147	0.10004520416259766
59	175.73220705986023	fix_pre	0		22.0	57.0	2.5	/experiments/knapen_aot/videos/S_yt-YEiNSML5iiQ_18.mp4	0.0	247.63902020454407	0.18326401710510254
59	175.90731596946716	response	0	2		57.0	2.5	/experiments/knapen_aot/videos/S_yt-YEiNSML5iiQ_18.mp4	0.0	247.814129114151	
59	175.91547107696533	movie	1		301.0	57.0	2.5	/experiments/knapen_aot/videos/S_yt-YEiNSML5iiQ_18.mp4	0.0	247.82228422164917	2.508394956588745
59	178.42386603355408	fix_post	2		12.0	57.0	2.5	/experiments/knapen_aot/videos/S_yt-YEiNSML5iiQ_18.mp4	0.0	250.33067917823792	0.09999489784240723
60	178.52386093139648	fix_pre	0		16.0	58.0	2.5	/experiments/knapen_aot/videos/S_production_ID_4673611.mp4	0.0	250.43067407608032	0.13329696655273438
60	178.64900398254395	response	0	2		58.0	2.5	/experiments/knapen_aot/videos/S_production_ID_4673611.mp4	0.0	250.55581712722778	
60	178.65715789794922	movie	1		182.0	58.0	2.5	/experiments/knapen_aot/videos/S_production_ID_4673611.mp4	0.0	250.56397104263306	2.508273124694824
60	181.16543102264404	fix_post	2		12.0	58.0	2.5	/experiments/knapen_aot/videos/S_production_ID_4673611.mp4	0.0	253.07224416732788	0.10029792785644531
61	181.2657289505005	fix_pre	0		34.0	59.0	2.5	/experiments/knapen_aot/videos/R_S_yt-aQfM-NhNSsA_136.mp4	0.0	253.17254209518433	0.28313708305358887
61	181.54073286056519	response	0	2		59.0	2.5	/experiments/knapen_aot/videos/R_S_yt-aQfM-NhNSsA_136.mp4	0.0	253.44754600524902	
61	181.54886603355408	movie	1		301.0	59.0	2.5	/experiments/knapen_aot/videos/R_S_yt-aQfM-NhNSsA_136.mp4	0.0	253.45567917823792	2.5083630084991455
61	184.05722904205322	fix_post	2		12.0	59.0	2.5	/experiments/knapen_aot/videos/R_S_yt-aQfM-NhNSsA_136.mp4	0.0	255.96404218673706	0.09996700286865234
62	184.15719604492188	fix_pre	0		28.0	60.0	2.5	/experiments/knapen_aot/videos/R_S_yt-2kPrGwVmRfE_169.mp4	0.0	256.0640091896057	0.23326492309570312
62	184.38229298591614	response	0	2		60.0	2.5	/experiments/knapen_aot/videos/R_S_yt-2kPrGwVmRfE_169.mp4	0.0	256.2891061306	
62	184.39046096801758	movie	1		301.0	60.0	2.5	/experiments/knapen_aot/videos/R_S_yt-2kPrGwVmRfE_169.mp4	0.0	256.2972741127014	2.508316993713379
62	186.89877796173096	fix_post	2		12.0	60.0	2.5	/experiments/knapen_aot/videos/R_S_yt-2kPrGwVmRfE_169.mp4	0.0	258.8055911064148	0.10007500648498535
63	186.99885296821594	fix_pre	0		24.0	61.0	2.5	blank	1.0	258.9056661128998	0.1999828815460205
63	187.19057297706604	response	0	2		61.0	2.5	blank	1.0	259.0973861217499	
63	187.19883584976196	movie	1		301.0	61.0	2.5	blank	1.0	259.1056489944458	2.508336067199707
63	189.70717191696167	fix_post	2		12.0	61.0	2.5	blank	1.0	261.6139850616455	0.09999299049377441
64	189.80716490745544	fix_pre	0		30.0	62.0	2.5	/experiments/knapen_aot/videos/R_S_ILSVRC2015_train_00568000.mp4	0.0	261.7139780521393	0.2499711513519287
64	190.04898285865784	response	0	2		62.0	2.5	/experiments/knapen_aot/videos/R_S_ILSVRC2015_train_00568000.mp4	0.0	261.9557960033417	
64	190.05713605880737	movie	1		301.0	62.0	2.5	/experiments/knapen_aot/videos/R_S_ILSVRC2015_train_00568000.mp4	0.0	261.9639492034912	2.5083699226379395
64	192.5655059814453	fix_post	2		12.0	62.0	2.5	/experiments/knapen_aot/videos/R_S_ILSVRC2015_train_00568000.mp4	0.0	264.47231912612915	0.10006904602050781
65	192.66557502746582	fix_pre	0		29.0	63.0	2.5	/experiments/knapen_aot/videos/R_S_ILSVRC2015_train_00165009.mp4	0.0	264.57238817214966	0.24152398109436035
65	192.89894795417786	response	0	2		63.0	2.5	/experiments/knapen_aot/videos/R_S_ILSVRC2015_train_00165009.mp4	0.0	264.8057610988617	
65	192.90709900856018	movie	1		301.0	63.0	2.5	/experiments/knapen_aot/videos/R_S_ILSVRC2015_train_00165009.mp4	0.0	264.813912153244	2.508301019668579
65	195.41540002822876	fix_post	2		12.0	63.0	2.5	/experiments/knapen_aot/videos/R_S_ILSVRC2015_train_00165009.mp4	0.0	267.3222131729126	0.10002589225769043
66	195.51542592048645	fix_pre	0		21.0	64.0	2.5	/experiments/knapen_aot/videos/S_yt-BJsMGxfjrZk_59.mp4	0.0	267.4222390651703	0.17579293251037598
66	195.6822030544281	response	0	2		64.0	2.5	/experiments/knapen_aot/videos/S_yt-BJsMGxfjrZk_59.mp4	0.0	267.58901619911194	
66	195.69121885299683	movie	1		301.0	64.0	2.5	/experiments/knapen_aot/videos/S_yt-BJsMGxfjrZk_59.mp4	0.0	267.59803199768066	2.5075700283050537
66	198.19878888130188	fix_post	2		12.0	64.0	2.5	/experiments/knapen_aot/videos/S_yt-BJsMGxfjrZk_59.mp4	0.0	270.1056020259857	0.0999751091003418
67	198.29876399040222	fix_pre	0		43.0	65.0	2.5	/experiments/knapen_aot/videos/S_WO9z7lBUvOs_151.mp4	0.0	270.20557713508606	0.3583199977874756
67	198.64890694618225	response	0	2		65.0	2.5	/experiments/knapen_aot/videos/S_WO9z7lBUvOs_151.mp4	0.0	270.5557200908661	
67	198.6570839881897	movie	1		301.0	65.0	2.5	/experiments/knapen_aot/videos/S_WO9z7lBUvOs_151.mp4	0.0	270.56389713287354	2.5084240436553955
67	201.1655080318451	fix_post	2		12.0	65.0	2.5	/experiments/knapen_aot/videos/S_WO9z7lBUvOs_151.mp4	0.0	273.07232117652893	0.09986400604248047
68	201.26537203788757	fix_pre	0		46.0	66.0	2.5	/experiments/knapen_aot/videos/S_Xq0a2BWE3zA_53.mp4	0.0	273.1721851825714	0.3839988708496094
68	201.64057302474976	response	0	2		66.0	2.5	/experiments/knapen_aot/videos/S_Xq0a2BWE3zA_53.mp4	0.0	273.5473861694336	
68	201.64937090873718	movie	1		301.0	66.0	2.5	/experiments/knapen_aot/videos/S_Xq0a2BWE3zA_53.mp4	0.0	273.556184053421	2.507646083831787
68	204.15701699256897	fix_post	2		12.0	66.0	2.5	/experiments/knapen_aot/videos/S_Xq0a2BWE3zA_53.mp4	0.0	276.0638301372528	0.10004091262817383
69	204.25705790519714	fix_pre	0		34.0	67.0	2.5	/experiments/knapen_aot/videos/S_yt-TBY8F6UMnJQ_51.mp4	0.0	276.163871049881	0.2833120822906494
69	204.53219604492188	response	0	2		67.0	2.5	/experiments/knapen_aot/videos/S_yt-TBY8F6UMnJQ_51.mp4	0.0	276.4390091896057	
69	204.5403699874878	movie	1		301.0	67.0	2.5	/experiments/knapen_aot/videos/S_yt-TBY8F6UMnJQ_51.mp4	0.0	276.44718313217163	2.508362054824829
69	207.04873204231262	fix_post	2		12.0	67.0	2.5	/experiments/knapen_aot/videos/S_yt-TBY8F6UMnJQ_51.mp4	0.0	278.95554518699646	0.09999203681945801
70	207.14872407913208	fix_pre	0		51.0	68.0	2.5	/experiments/knapen_aot/videos/R_S_yt-0MB_IYX1fgo_44.mp4	0.0	279.0555372238159	0.4250328540802002
70	207.56568598747253	response	0	2		68.0	2.5	/experiments/knapen_aot/videos/R_S_yt-0MB_IYX1fgo_44.mp4	0.0	279.4724991321564	
70	207.57375693321228	movie	1		301.0	68.0	2.5	/experiments/knapen_aot/videos/R_S_yt-0MB_IYX1fgo_44.mp4	0.0	279.4805700778961	2.508270025253296
70	210.08202695846558	fix_post	2		12.0	68.0	2.5	/experiments/knapen_aot/videos/R_S_yt-0MB_IYX1fgo_44.mp4	0.0	281.9888401031494	0.1000370979309082
71	210.18206405639648	fix_pre	0		11.0	69.0	2.5	/experiments/knapen_aot/videos/R_S_yt-loYSF41PfgI_79.mp4	0.0	282.0888772010803	0.09222888946533203
71	210.26547598838806	response	0	2		69.0	2.5	/experiments/knapen_aot/videos/R_S_yt-loYSF41PfgI_79.mp4	0.0	282.1722891330719	
71	210.27429294586182	movie	1		301.0	69.0	2.5	/experiments/knapen_aot/videos/R_S_yt-loYSF41PfgI_79.mp4	0.0	282.18110609054565	2.507797956466675
71	212.7820909023285	fix_post	2		12.0	69.0	2.5	/experiments/knapen_aot/videos/R_S_yt-loYSF41PfgI_79.mp4	0.0	284.68890404701233	0.10000109672546387
72	212.88209199905396	fix_pre	0		34.0	70.0	2.5	blank	1.0	284.7889051437378	0.2832808494567871
72	213.1572139263153	response	0	2		70.0	2.5	blank	1.0	285.06402707099915	
72	213.16537284851074	movie	1		301.0	70.0	2.5	blank	1.0	285.0721859931946	2.5083200931549072
72	215.67369294166565	fix_post	2		12.0	70.0	2.5	blank	1.0	287.5805060863495	0.10004305839538574
73	215.77373600006104	fix_pre	0		22.0	71.0	2.5	/experiments/knapen_aot/videos/S_yt-0Ut9QANGX20_35.mp4	0.0	287.6805491447449	0.18329501152038574
73	215.94879007339478	response	0	2		71.0	2.5	/experiments/knapen_aot/videos/S_yt-0Ut9QANGX20_35.mp4	0.0	287.8556032180786	
73	215.95703101158142	movie	1		300.0	71.0	2.5	/experiments/knapen_aot/videos/S_yt-0Ut9QANGX20_35.mp4	0.0	287.86384415626526	2.5083580017089844
73	218.4653890132904	fix_post	2		12.0	71.0	2.5	/experiments/knapen_aot/videos/S_yt-0Ut9QANGX20_35.mp4	0.0	290.37220215797424	0.09996604919433594
74	218.56535506248474	fix_pre	0		51.0	72.0	2.5	/experiments/knapen_aot/videos/R_S_ILSVRC2015_train_00569002.mp4	0.0	290.4721682071686	0.4249989986419678
74	218.98217701911926	response	0	2		72.0	2.5	/experiments/knapen_aot/videos/R_S_ILSVRC2015_train_00569002.mp4	0.0	290.8889901638031	
74	218.9903540611267	movie	1		301.0	72.0	2.5	/experiments/knapen_aot/videos/R_S_ILSVRC2015_train_00569002.mp4	0.0	290.89716720581055	2.508251905441284
74	221.498605966568	fix_post	2		12.0	72.0	2.5	/experiments/knapen_aot/videos/R_S_ILSVRC2015_train_00569002.mp4	0.0	293.40541911125183	0.10007500648498535
75	221.59868097305298	fix_pre	0		30.0	73.0	2.5	/experiments/knapen_aot/videos/R_S_pexels-laker-5793000.mp4	0.0	293.5054941177368	0.24999308586120605
75	221.84046697616577	response	0	2		73.0	2.5	/experiments/knapen_aot/videos/R_S_pexels-laker-5793000.mp4	0.0	293.7472801208496	
75	221.84867405891418	movie	1		168.0	73.0	2.5	/experiments/knapen_aot/videos/R_S_pexels-laker-5793000.mp4	0.0	293.755487203598	2.5083889961242676
75	224.35706305503845	fix_post	2		12.0	73.0	2.5	/experiments/knapen_aot/videos/R_S_pexels-laker-5793000.mp4	0.0	296.2638761997223	0.09997200965881348
76	224.45703506469727	fix_pre	0		141.0	74.0	2.5	/experiments/knapen_aot/videos/S_S005_C015_SDR_2K_AVC.mp4	0.0	296.3638482093811	1.1749608516693115
76	225.62382888793945	response	0	2		74.0	2.5	/experiments/knapen_aot/videos/S_S005_C015_SDR_2K_AVC.mp4	0.0	297.5306420326233	
76	225.63199591636658	movie	1		171.0	74.0	2.5	/experiments/knapen_aot/videos/S_S005_C015_SDR_2K_AVC.mp4	0.0	297.5388090610504	2.508301019668579
76	228.14029693603516	fix_post	2		12.0	74.0	2.5	/experiments/knapen_aot/videos/S_S005_C015_SDR_2K_AVC.mp4	0.0	300.047110080719	0.09993600845336914
77	228.24023294448853	fix_pre	0		56.0	75.0	2.5	/experiments/knapen_aot/videos/S_ILSVRC2015_train_00354001.mp4	0.0	300.14704608917236	0.46668100357055664
77	228.69875693321228	response	0	2		75.0	2.5	/experiments/knapen_aot/videos/S_ILSVRC2015_train_00354001.mp4	0.0	300.6055700778961	
77	228.70691394805908	movie	1		301.0	75.0	2.5	/experiments/knapen_aot/videos/S_ILSVRC2015_train_00354001.mp4	0.0	300.6137270927429	2.5084171295166016
77	231.21533107757568	fix_post	2		12.0	75.0	2.5	/experiments/knapen_aot/videos/S_ILSVRC2015_train_00354001.mp4	0.0	303.1221442222595	0.09988784790039062
78	231.31521892547607	fix_pre	0		126.0	76.0	2.5	blank	1.0	303.2220320701599	1.0500109195709229
78	232.35710787773132	response	0	2		76.0	2.5	blank	1.0	304.26392102241516	
78	232.365229845047	movie	1		301.0	76.0	2.5	blank	1.0	304.27204298973083	2.508371114730835
78	234.87360095977783	fix_post	2		12.0	76.0	2.5	blank	1.0	306.78041410446167	0.10004401206970215
79	234.97364497184753	fix_pre	0		32.0	77.0	2.5	/experiments/knapen_aot/videos/S_yt-D9uD7yM6bxQ_269.mp4	0.0	306.8804581165314	0.2665839195251465
79	235.23205089569092	response	0	2		77.0	2.5	/experiments/knapen_aot/videos/S_yt-D9uD7yM6bxQ_269.mp4	0.0	307.13886404037476	
79	235.24022889137268	movie	1		301.0	77.0	2.5	/experiments/knapen_aot/videos/S_yt-D9uD7yM6bxQ_269.mp4	0.0	307.1470420360565	2.5084071159362793
79	237.74863600730896	fix_post	2		12.0	77.0	2.5	/experiments/knapen_aot/videos/S_yt-D9uD7yM6bxQ_269.mp4	0.0	309.6554491519928	0.09998583793640137
80	237.84862184524536	fix_pre	0		83.0	78.0	2.5	/experiments/knapen_aot/videos/R_S_ILSVRC2015_train_00723001.mp4	0.0	309.7554349899292	0.6916091442108154
80	238.53207802772522	response	0	2		78.0	2.5	/experiments/knapen_aot/videos/R_S_ILSVRC2015_train_00723001.mp4	0.0	310.43889117240906	
80	238.54023098945618	movie	1		301.0	78.0	2.5	/experiments/knapen_aot/videos/R_S_ILSVRC2015_train_00723001.mp4	0.0	310.44704413414	2.5083630084991455
80	241.04859399795532	fix_post	2		12.0	78.0	2.5	/experiments/knapen_aot/videos/R_S_ILSVRC2015_train_00723001.mp4	0.0	312.95540714263916	0.10000491142272949
81	241.14859890937805	fix_pre	0		24.0	79.0	2.5	/experiments/knapen_aot/videos/S_yt-xNKgc8sFYvU_35.mp4	0.0	313.0554120540619	0.1999809741973877
81	241.3403730392456	response	0	2		79.0	2.5	/experiments/knapen_aot/videos/S_yt-xNKgc8sFYvU_35.mp4	0.0	313.24718618392944	
81	241.34857988357544	movie	1		301.0	79.0	2.5	/experiments/knapen_aot/videos/S_yt-xNKgc8sFYvU_35.mp4	0.0	313.2553930282593	2.508319139480591
81	243.85689902305603	fix_post	2		12.0	79.0	2.5	/experiments/knapen_aot/videos/S_yt-xNKgc8sFYvU_35.mp4	0.0	315.76371216773987	0.09994387626647949
82	243.9568428993225	fix_pre	0		32.0	80.0	2.5	/experiments/knapen_aot/videos/S_yt-dESxu60Cl10_24.mp4	0.0	315.86365604400635	0.2667109966278076
82	244.2153069972992	response	0	2		80.0	2.5	/experiments/knapen_aot/videos/S_yt-dESxu60Cl10_24.mp4	0.0	316.12212014198303	
82	244.22355389595032	movie	1		301.0	80.0	2.5	/experiments/knapen_aot/videos/S_yt-dESxu60Cl10_24.mp4	0.0	316.13036704063416	2.508336067199707
82	246.73188996315002	fix_post	2		12.0	80.0	2.5	/experiments/knapen_aot/videos/S_yt-dESxu60Cl10_24.mp4	0.0	318.63870310783386	0.1000509262084961
83	246.83194088935852	fix_pre	0		147.0	81.0	2.5	/experiments/knapen_aot/videos/R_S_yt-VJ65ukWmdxQ_193.mp4	0.0	318.73875403404236	1.224898099899292
83	248.04871487617493	response	0	2		81.0	2.5	/experiments/knapen_aot/videos/R_S_yt-VJ65ukWmdxQ_193.mp4	0.0	319.95552802085876	
83	248.0568389892578	movie	1		301.0	81.0	2.5	/experiments/knapen_aot/videos/R_S_yt-VJ65ukWmdxQ_193.mp4	0.0	319.96365213394165	2.508368968963623
83	250.56520795822144	fix_post	2		12.0	81.0	2.5	/experiments/knapen_aot/videos/R_S_yt-VJ65ukWmdxQ_193.mp4	0.0	322.4720211029053	0.09993290901184082
84	250.66514086723328	fix_pre	0		80.0	82.0	2.5	blank	1.0	322.5719540119171	0.6667029857635498
84	251.32364106178284	response	0	2		82.0	2.5	blank	1.0	323.2304542064667	
84	251.33184385299683	movie	1		301.0	82.0	2.5	blank	1.0	323.23865699768066	2.508357048034668
84	253.8402009010315	fix_post	2		12.0	82.0	2.5	blank	1.0	325.74701404571533	0.09999704360961914
85	253.9401979446411	fix_pre	0		24.0	83.0	2.5	/experiments/knapen_aot/videos/S_ILSVRC2015_train_00723001.mp4	0.0	325.84701108932495	0.19996404647827148
85	254.13195705413818	response	0	2		83.0	2.5	/experiments/knapen_aot/videos/S_ILSVRC2015_train_00723001.mp4	0.0	326.038770198822	
85	254.14016199111938	movie	1		301.0	83.0	2.5	/experiments/knapen_aot/videos/S_ILSVRC2015_train_00723001.mp4	0.0	326.0469751358032	2.50833797454834
85	256.6484999656677	fix_post	2		12.0	83.0	2.5	/experiments/knapen_aot/videos/S_ILSVRC2015_train_00723001.mp4	0.0	328.55531311035156	0.10000801086425781
87	256.748507976532	stim	0		1716.0					328.6553211212158	14.29993987083435
87	259.19036507606506	response	0	2						331.0971782207489	
