trial_nr	onset	event_type	phase	response	nr_frames	movie_index	movie_duration	movie_file	blank	onset_abs	duration
0	0.13211393356323242	stim	0		84.0					155.77593278884888	0.7041401863098145
0	0.8279550075531006	response	0	space						156.47177386283875	
1	0.8362541198730469	stim	0		121.0					156.4800729751587	1.0079419612884521
1	1.844196081161499	stim	1		120.0					157.48801493644714	0.9999608993530273
1	1.9201469421386719	response	1	space						157.56396579742432	
1	2.310927152633667	response	1	space						157.9547460079193	
1	2.6442511081695557	response	1	space						158.2880699634552	
2	2.8441569805145264	fix_pre	0		24.0	0.0	2.5	/experiments/knapen_aot/videos/R_S_yt-ZBk_XFb5PGo_25.mp4	0.0	158.48797583580017	0.2000570297241211
2	3.035905122756958	response	0	space		0.0	2.5	/experiments/knapen_aot/videos/R_S_yt-ZBk_XFb5PGo_25.mp4	0.0	158.6797239780426	
2	3.0442140102386475	movie	1		301.0	0.0	2.5	/experiments/knapen_aot/videos/R_S_yt-ZBk_XFb5PGo_25.mp4	0.0	158.6880328655243	2.5084140300750732
2	5.552628040313721	fix_post	2		12.0	0.0	2.5	/experiments/knapen_aot/videos/R_S_yt-ZBk_XFb5PGo_25.mp4	0.0	161.19644689559937	0.09992790222167969
3	5.6525559425354	fix_pre	0		32.0	1.0	2.5	/experiments/knapen_aot/videos/R_S_yt-ZBk_XFb5PGo_25.mp4	0.0	161.29637479782104	0.2706320285797119
3	5.915698051452637	response	0	2		1.0	2.5	/experiments/knapen_aot/videos/R_S_yt-ZBk_XFb5PGo_25.mp4	0.0	161.55951690673828	
3	5.923187971115112	movie	1		300.0	1.0	2.5	/experiments/knapen_aot/videos/R_S_yt-ZBk_XFb5PGo_25.mp4	0.0	161.56700682640076	2.5043179988861084
3	8.42750597000122	fix_post	2		12.0	1.0	2.5	/experiments/knapen_aot/videos/R_S_yt-ZBk_XFb5PGo_25.mp4	0.0	164.07132482528687	0.09994912147521973
4	8.52745509147644	fix_pre	0		646.0	2.0	2.5	/experiments/knapen_aot/videos/S_yt-MNo__ov96eI_22.mp4	0.0	164.17127394676208	5.383306980133057
4	13.902605056762695	response	0	2		2.0	2.5	/experiments/knapen_aot/videos/S_yt-MNo__ov96eI_22.mp4	0.0	169.54642391204834	
4	13.910762071609497	movie	1		301.0	2.0	2.5	/experiments/knapen_aot/videos/S_yt-MNo__ov96eI_22.mp4	0.0	169.55458092689514	2.508352041244507
4	16.419114112854004	fix_post	2		12.0	2.0	2.5	/experiments/knapen_aot/videos/S_yt-MNo__ov96eI_22.mp4	0.0	172.06293296813965	0.10012602806091309
5	16.519240140914917	fix_pre	0		66.0	3.0	2.5	/experiments/knapen_aot/videos/S_yt-M_ApPnq00iE_67.mp4	0.0	172.16305899620056	0.5497848987579346
5	17.06093192100525	response	0	2		3.0	2.5	/experiments/knapen_aot/videos/S_yt-M_ApPnq00iE_67.mp4	0.0	172.7047507762909	
5	17.06902503967285	movie	1		301.0	3.0	2.5	/experiments/knapen_aot/videos/S_yt-M_ApPnq00iE_67.mp4	0.0	172.7128438949585	2.5085549354553223
5	19.577579975128174	fix_post	2		12.0	3.0	2.5	/experiments/knapen_aot/videos/S_yt-M_ApPnq00iE_67.mp4	0.0	175.22139883041382	0.09987306594848633
6	19.67745304107666	fix_pre	0		28.0	4.0	2.5	/experiments/knapen_aot/videos/S_P006_C002_UHD_SDR_2K_AVC.mp4	0.0	175.3212718963623	0.23326396942138672
6	19.895050048828125	response	0	2		4.0	2.5	/experiments/knapen_aot/videos/S_P006_C002_UHD_SDR_2K_AVC.mp4	0.0	175.53886890411377	
6	19.910717010498047	movie	1		163.0	4.0	2.5	/experiments/knapen_aot/videos/S_P006_C002_UHD_SDR_2K_AVC.mp4	0.0	175.5545358657837	2.508394956588745
6	22.419111967086792	fix_post	2		12.0	4.0	2.5	/experiments/knapen_aot/videos/S_P006_C002_UHD_SDR_2K_AVC.mp4	0.0	178.06293082237244	0.09999513626098633
7	22.51910710334778	fix_pre	0		203.0	5.0	2.5	/experiments/knapen_aot/videos/R_S_ILSVRC2015_train_00682007.mp4	0.0	178.16292595863342	1.6916680335998535
7	24.202538013458252	response	0	2		5.0	2.5	/experiments/knapen_aot/videos/R_S_ILSVRC2015_train_00682007.mp4	0.0	179.8463568687439	
7	24.210775136947632	movie	1		301.0	5.0	2.5	/experiments/knapen_aot/videos/R_S_ILSVRC2015_train_00682007.mp4	0.0	179.85459399223328	2.5083107948303223
7	26.719085931777954	fix_post	2		12.0	5.0	2.5	/experiments/knapen_aot/videos/R_S_ILSVRC2015_train_00682007.mp4	0.0	182.3629047870636	0.09998512268066406
8	26.819071054458618	fix_pre	0		45.0	6.0	2.5	/experiments/knapen_aot/videos/S_yt-C0iWlRWU21o_5.mp4	0.0	182.46288990974426	0.37496399879455566
8	27.1858389377594	response	0	2		6.0	2.5	/experiments/knapen_aot/videos/S_yt-C0iWlRWU21o_5.mp4	0.0	182.82965779304504	
8	27.194035053253174	movie	1		301.0	6.0	2.5	/experiments/knapen_aot/videos/S_yt-C0iWlRWU21o_5.mp4	0.0	182.83785390853882	2.508584976196289
8	29.702620029449463	fix_post	2		12.0	6.0	2.5	/experiments/knapen_aot/videos/S_yt-C0iWlRWU21o_5.mp4	0.0	185.3464388847351	0.09978008270263672
9	29.8024001121521	fix_pre	0		36.0	7.0	2.5	blank	1.0	185.44621896743774	0.2999608516693115
9	30.094274044036865	response	0	2		7.0	2.5	blank	1.0	185.7380928993225	
9	30.10236096382141	movie	1		301.0	7.0	2.5	blank	1.0	185.74617981910706	2.5083580017089844
9	32.610718965530396	fix_post	2		12.0	7.0	2.5	blank	1.0	188.25453782081604	0.100067138671875
10	32.71078610420227	fix_pre	0		34.0	8.0	2.5	/experiments/knapen_aot/videos/S_yt-GytLOB9Qjro_76.mp4	0.0	188.35460495948792	0.2832348346710205
10	32.98579692840576	response	0	2		8.0	2.5	/experiments/knapen_aot/videos/S_yt-GytLOB9Qjro_76.mp4	0.0	188.6296157836914	
10	32.99402093887329	movie	1		301.0	8.0	2.5	/experiments/knapen_aot/videos/S_yt-GytLOB9Qjro_76.mp4	0.0	188.63783979415894	2.508376121520996
10	35.50239706039429	fix_post	2		12.0	8.0	2.5	/experiments/knapen_aot/videos/S_yt-GytLOB9Qjro_76.mp4	0.0	191.14621591567993	0.10006403923034668
11	35.602461099624634	fix_pre	0		106.0	9.0	2.5	/experiments/knapen_aot/videos/S_yt-ZBk_XFb5PGo_25.mp4	0.0	191.24627995491028	0.8832550048828125
11	36.47749304771423	response	0	2		9.0	2.5	/experiments/knapen_aot/videos/S_yt-ZBk_XFb5PGo_25.mp4	0.0	192.12131190299988	
11	36.485716104507446	movie	1		301.0	9.0	2.5	/experiments/knapen_aot/videos/S_yt-ZBk_XFb5PGo_25.mp4	0.0	192.1295349597931	2.5083699226379395
11	38.994086027145386	fix_post	2		12.0	9.0	2.5	/experiments/knapen_aot/videos/S_yt-ZBk_XFb5PGo_25.mp4	0.0	194.63790488243103	0.09999489784240723
12	39.09408092498779	fix_pre	0		33.0	10.0	2.5	/experiments/knapen_aot/videos/R_S_yt-Gokv9ZtV6zo_70.mp4	0.0	194.73789978027344	0.2749772071838379
12	39.360862016677856	response	0	2		10.0	2.5	/experiments/knapen_aot/videos/R_S_yt-Gokv9ZtV6zo_70.mp4	0.0	195.0046808719635	
12	39.36905813217163	movie	1		301.0	10.0	2.5	/experiments/knapen_aot/videos/R_S_yt-Gokv9ZtV6zo_70.mp4	0.0	195.01287698745728	2.50834584236145
12	41.87740397453308	fix_post	2		12.0	10.0	2.5	/experiments/knapen_aot/videos/R_S_yt-Gokv9ZtV6zo_70.mp4	0.0	197.52122282981873	0.09996414184570312
13	41.977368116378784	fix_pre	0		68.0	11.0	2.5	/experiments/knapen_aot/videos/R_S_yt-npaE4fe6A6Y_26.mp4	0.0	197.62118697166443	0.566565990447998
13	42.535815954208374	response	0	2		11.0	2.5	/experiments/knapen_aot/videos/R_S_yt-npaE4fe6A6Y_26.mp4	0.0	198.17963480949402	
13	42.54393410682678	movie	1		301.0	11.0	2.5	/experiments/knapen_aot/videos/R_S_yt-npaE4fe6A6Y_26.mp4	0.0	198.18775296211243	2.508435010910034
13	44.78586506843567	response	1	2		11.0	2.5	/experiments/knapen_aot/videos/R_S_yt-npaE4fe6A6Y_26.mp4	0.0	200.4296839237213	
13	45.052369117736816	fix_post	2		12.0	11.0	2.5	/experiments/knapen_aot/videos/R_S_yt-npaE4fe6A6Y_26.mp4	0.0	200.69618797302246	0.0999748706817627
14	45.15234398841858	fix_pre	0		37.0	12.0	2.5	/experiments/knapen_aot/videos/R_S_yt-IyxCMODHSSE_29.mp4	0.0	200.79616284370422	0.308305025100708
14	45.45245409011841	response	0	2		12.0	2.5	/experiments/knapen_aot/videos/R_S_yt-IyxCMODHSSE_29.mp4	0.0	201.09627294540405	
14	45.46064901351929	movie	1		301.0	12.0	2.5	/experiments/knapen_aot/videos/R_S_yt-IyxCMODHSSE_29.mp4	0.0	201.10446786880493	2.5083329677581787
14	47.968981981277466	fix_post	2		12.0	12.0	2.5	/experiments/knapen_aot/videos/R_S_yt-IyxCMODHSSE_29.mp4	0.0	203.6128008365631	0.10003995895385742
15	48.06902194023132	fix_pre	0		45.0	13.0	2.5	/experiments/knapen_aot/videos/S_yt-2y6A9DJPsDU_65.mp4	0.0	203.71284079551697	0.3748941421508789
15	48.43578314781189	response	0	2		13.0	2.5	/experiments/knapen_aot/videos/S_yt-2y6A9DJPsDU_65.mp4	0.0	204.07960200309753	
15	48.4439160823822	movie	1		301.0	13.0	2.5	/experiments/knapen_aot/videos/S_yt-2y6A9DJPsDU_65.mp4	0.0	204.08773493766785	2.5084939002990723
15	50.58130407333374	response	1	2		13.0	2.5	/experiments/knapen_aot/videos/S_yt-2y6A9DJPsDU_65.mp4	0.0	206.22512292861938	
15	50.952409982681274	fix_post	2		12.0	13.0	2.5	/experiments/knapen_aot/videos/S_yt-2y6A9DJPsDU_65.mp4	0.0	206.59622883796692	0.09994101524353027
16	51.052350997924805	fix_pre	0		43.0	14.0	2.5	blank	1.0	206.69616985321045	0.35817813873291016
16	51.39486002922058	response	0	2		14.0	2.5	blank	1.0	207.03867888450623	
16	51.410529136657715	movie	1		301.0	14.0	2.5	blank	1.0	207.05434799194336	2.5084328651428223
16	53.54409694671631	response	1	2		14.0	2.5	blank	1.0	209.18791580200195	
16	53.91896200180054	fix_post	2		12.0	14.0	2.5	blank	1.0	209.56278085708618	0.10002708435058594
17	54.01898908615112	fix_pre	0		28.0	15.0	2.5	/experiments/knapen_aot/videos/R_S_yt-dj0XQUJos38_14.mp4	0.0	209.66280794143677	0.23330092430114746
17	54.23645997047424	response	0	2		15.0	2.5	/experiments/knapen_aot/videos/R_S_yt-dj0XQUJos38_14.mp4	0.0	209.8802788257599	
17	54.25229001045227	movie	1		301.0	15.0	2.5	/experiments/knapen_aot/videos/R_S_yt-dj0XQUJos38_14.mp4	0.0	209.89610886573792	2.5082850456237793
17	56.76057505607605	fix_post	2		12.0	15.0	2.5	/experiments/knapen_aot/videos/R_S_yt-dj0XQUJos38_14.mp4	0.0	212.4043939113617	0.1000518798828125
18	56.86062693595886	fix_pre	0		22.0	16.0	2.5	/experiments/knapen_aot/videos/R_S_yt-5MyvZYFlc9g_125.mp4	0.0	212.5044457912445	0.1833200454711914
18	57.03576898574829	response	0	2		16.0	2.5	/experiments/knapen_aot/videos/R_S_yt-5MyvZYFlc9g_125.mp4	0.0	212.67958784103394	
18	57.043946981430054	movie	1		301.0	16.0	2.5	/experiments/knapen_aot/videos/R_S_yt-5MyvZYFlc9g_125.mp4	0.0	212.6877658367157	2.5083370208740234
18	58.065125942230225	response	1	2		16.0	2.5	/experiments/knapen_aot/videos/R_S_yt-5MyvZYFlc9g_125.mp4	0.0	213.70894479751587	
18	59.55228400230408	fix_post	2		12.0	16.0	2.5	/experiments/knapen_aot/videos/R_S_yt-5MyvZYFlc9g_125.mp4	0.0	215.19610285758972	0.09995913505554199
19	59.65224313735962	fix_pre	0		29.0	17.0	2.5	/experiments/knapen_aot/videos/S_P001_C005_UHD_SDR_2K_AVC.mp4	0.0	215.29606199264526	0.2427079677581787
19	59.878178119659424	response	0	2		17.0	2.5	/experiments/knapen_aot/videos/S_P001_C005_UHD_SDR_2K_AVC.mp4	0.0	215.52199697494507	
19	59.8949511051178	movie	1		166.0	17.0	2.5	/experiments/knapen_aot/videos/S_P001_C005_UHD_SDR_2K_AVC.mp4	0.0	215.53876996040344	2.5073459148406982
19	61.79406213760376	response	1	2		17.0	2.5	/experiments/knapen_aot/videos/S_P001_C005_UHD_SDR_2K_AVC.mp4	0.0	217.4378809928894	
19	62.402297019958496	fix_post	2		12.0	17.0	2.5	/experiments/knapen_aot/videos/S_P001_C005_UHD_SDR_2K_AVC.mp4	0.0	218.04611587524414	0.09995293617248535
20	62.50224995613098	fix_pre	0		236.0	18.0	2.5	/experiments/knapen_aot/videos/S_yt--C2DDZ7LOQA_95.mp4	0.0	218.14606881141663	1.9666900634765625
20	64.46072196960449	response	0	2		18.0	2.5	/experiments/knapen_aot/videos/S_yt--C2DDZ7LOQA_95.mp4	0.0	220.10454082489014	
20	64.46894001960754	movie	1		301.0	18.0	2.5	/experiments/knapen_aot/videos/S_yt--C2DDZ7LOQA_95.mp4	0.0	220.1127588748932	2.508333921432495
20	66.97727394104004	fix_post	2		12.0	18.0	2.5	/experiments/knapen_aot/videos/S_yt--C2DDZ7LOQA_95.mp4	0.0	222.62109279632568	0.09992218017578125
21	67.07719612121582	fix_pre	0		14.0	19.0	2.5	/experiments/knapen_aot/videos/R_S_yt-xCh0LI9VKeI_28.mp4	0.0	222.72101497650146	0.11680984497070312
21	67.1858639717102	response	0	2		19.0	2.5	/experiments/knapen_aot/videos/R_S_yt-xCh0LI9VKeI_28.mp4	0.0	222.82968282699585	
21	67.19400596618652	movie	1		301.0	19.0	2.5	/experiments/knapen_aot/videos/R_S_yt-xCh0LI9VKeI_28.mp4	0.0	222.83782482147217	2.508427143096924
21	69.70243310928345	fix_post	2		12.0	19.0	2.5	/experiments/knapen_aot/videos/R_S_yt-xCh0LI9VKeI_28.mp4	0.0	225.3462519645691	0.09984087944030762
22	69.80227398872375	fix_pre	0		19.0	20.0	2.5	/experiments/knapen_aot/videos/S_yt-Dwgpjoikt84_122.mp4	0.0	225.4460928440094	0.15829014778137207
22	69.95237493515015	response	0	2		20.0	2.5	/experiments/knapen_aot/videos/S_yt-Dwgpjoikt84_122.mp4	0.0	225.5961937904358	
22	69.96056413650513	movie	1		301.0	20.0	2.5	/experiments/knapen_aot/videos/S_yt-Dwgpjoikt84_122.mp4	0.0	225.60438299179077	2.5083320140838623
22	72.46889615058899	fix_post	2		12.0	20.0	2.5	/experiments/knapen_aot/videos/S_yt-Dwgpjoikt84_122.mp4	0.0	228.11271500587463	0.10001993179321289
23	72.5689160823822	fix_pre	0		71.0	21.0	2.5	blank	1.0	228.21273493766785	0.591547966003418
23	73.15227198600769	response	0	2		21.0	2.5	blank	1.0	228.79609084129333	
23	73.16046404838562	movie	1		301.0	21.0	2.5	blank	1.0	228.80428290367126	2.5084190368652344
23	75.04393005371094	response	1	2		21.0	2.5	blank	1.0	230.68774890899658	
23	75.66888308525085	fix_post	2		12.0	21.0	2.5	blank	1.0	231.3127019405365	0.10022091865539551
24	75.76910400390625	fix_pre	0		61.0	22.0	2.5	/experiments/knapen_aot/videos/R_S_yt-vQ-rd-1gwH4_238.mp4	0.0	231.4129228591919	0.5080790519714355
24	76.26902294158936	response	0	2		22.0	2.5	/experiments/knapen_aot/videos/R_S_yt-vQ-rd-1gwH4_238.mp4	0.0	231.912841796875	
24	76.27718305587769	movie	1		301.0	22.0	2.5	/experiments/knapen_aot/videos/R_S_yt-vQ-rd-1gwH4_238.mp4	0.0	231.92100191116333	2.508344888687134
24	77.16463112831116	response	1	2		22.0	2.5	/experiments/knapen_aot/videos/R_S_yt-vQ-rd-1gwH4_238.mp4	0.0	232.8084499835968	
24	78.78552794456482	fix_post	2		12.0	22.0	2.5	/experiments/knapen_aot/videos/R_S_yt-vQ-rd-1gwH4_238.mp4	0.0	234.42934679985046	0.10005021095275879
25	78.88557815551758	fix_pre	0		36.0	23.0	2.5	/experiments/knapen_aot/videos/S_yt-146gReE6xKw_379.mp4	0.0	234.52939701080322	0.3008999824523926
25	79.17732214927673	response	0	2		23.0	2.5	/experiments/knapen_aot/videos/S_yt-146gReE6xKw_379.mp4	0.0	234.82114100456238	
25	79.18647813796997	movie	1		301.0	23.0	2.5	/experiments/knapen_aot/videos/S_yt-146gReE6xKw_379.mp4	0.0	234.83029699325562	2.507413864135742
25	80.5962450504303	response	1	2		23.0	2.5	/experiments/knapen_aot/videos/S_yt-146gReE6xKw_379.mp4	0.0	236.24006390571594	
25	81.47209692001343	response	1	2		23.0	2.5	/experiments/knapen_aot/videos/S_yt-146gReE6xKw_379.mp4	0.0	237.11591577529907	
25	81.69389200210571	fix_post	2		12.0	23.0	2.5	/experiments/knapen_aot/videos/S_yt-146gReE6xKw_379.mp4	0.0	237.33771085739136	0.09998607635498047
26	81.7938780784607	fix_pre	0		65.0	24.0	2.5	/experiments/knapen_aot/videos/S_pexels-mart-production-7277934.mp4	0.0	237.43769693374634	0.541611909866333
26	82.32726097106934	response	0	2		24.0	2.5	/experiments/knapen_aot/videos/S_pexels-mart-production-7277934.mp4	0.0	237.97107982635498	
26	82.33548998832703	movie	1		164.0	24.0	2.5	/experiments/knapen_aot/videos/S_pexels-mart-production-7277934.mp4	0.0	237.97930884361267	2.5084080696105957
26	84.84389805793762	fix_post	2		12.0	24.0	2.5	/experiments/knapen_aot/videos/S_pexels-mart-production-7277934.mp4	0.0	240.48771691322327	0.0999600887298584
27	84.94385814666748	fix_pre	0		97.0	25.0	2.5	/experiments/knapen_aot/videos/S_ILSVRC2015_train_00569006.mp4	0.0	240.58767700195312	0.808250904083252
27	85.74396014213562	response	0	2		25.0	2.5	/experiments/knapen_aot/videos/S_ILSVRC2015_train_00569006.mp4	0.0	241.38777899742126	
27	85.75210905075073	movie	1		301.0	25.0	2.5	/experiments/knapen_aot/videos/S_ILSVRC2015_train_00569006.mp4	0.0	241.39592790603638	2.508430004119873
27	88.2605390548706	fix_post	2		12.0	25.0	2.5	/experiments/knapen_aot/videos/S_ILSVRC2015_train_00569006.mp4	0.0	243.90435791015625	0.09996795654296875
28	88.36050701141357	fix_pre	0		25.0	26.0	2.5	/experiments/knapen_aot/videos/S_yt-82O1uT8dmv8_12.mp4	0.0	244.00432586669922	0.20826292037963867
28	88.56059408187866	response	0	2		26.0	2.5	/experiments/knapen_aot/videos/S_yt-82O1uT8dmv8_12.mp4	0.0	244.2044129371643	
28	88.56876993179321	movie	1		301.0	26.0	2.5	/experiments/knapen_aot/videos/S_yt-82O1uT8dmv8_12.mp4	0.0	244.21258878707886	2.5084950923919678
28	91.07726502418518	fix_post	2		12.0	26.0	2.5	/experiments/knapen_aot/videos/S_yt-82O1uT8dmv8_12.mp4	0.0	246.72108387947083	0.09988808631896973
29	91.17715311050415	fix_pre	0		167.0	27.0	2.5	/experiments/knapen_aot/videos/S_yt-IyxCMODHSSE_29.mp4	0.0	246.8209719657898	1.3916289806365967
29	92.56060695648193	response	0	2		27.0	2.5	/experiments/knapen_aot/videos/S_yt-IyxCMODHSSE_29.mp4	0.0	248.20442581176758	
29	92.56878209114075	movie	1		301.0	27.0	2.5	/experiments/knapen_aot/videos/S_yt-IyxCMODHSSE_29.mp4	0.0	248.2126009464264	2.5083119869232178
29	95.07709407806396	fix_post	2		12.0	27.0	2.5	/experiments/knapen_aot/videos/S_yt-IyxCMODHSSE_29.mp4	0.0	250.7209129333496	0.1001739501953125
30	95.17726802825928	fix_pre	0		46.0	28.0	2.5	blank	1.0	250.82108688354492	0.3831520080566406
30	95.5521559715271	response	0	2		28.0	2.5	blank	1.0	251.19597482681274	
30	95.56042003631592	movie	1		301.0	28.0	2.5	blank	1.0	251.20423889160156	2.5083858966827393
30	98.06880593299866	fix_post	2		12.0	28.0	2.5	blank	1.0	253.7126247882843	0.09996914863586426
31	98.16877508163452	fix_pre	0		45.0	29.0	2.5	/experiments/knapen_aot/videos/R_S_yt-RqWnxg1wT-0_41.mp4	0.0	253.81259393692017	0.37502288818359375
31	98.53559112548828	response	0	2		29.0	2.5	/experiments/knapen_aot/videos/R_S_yt-RqWnxg1wT-0_41.mp4	0.0	254.17940998077393	
31	98.54379796981812	movie	1		301.0	29.0	2.5	/experiments/knapen_aot/videos/R_S_yt-RqWnxg1wT-0_41.mp4	0.0	254.18761682510376	2.508303165435791
31	101.0521011352539	fix_post	2		12.0	29.0	2.5	/experiments/knapen_aot/videos/R_S_yt-RqWnxg1wT-0_41.mp4	0.0	256.69591999053955	0.10001778602600098
32	101.15211892127991	fix_pre	0		62.0	30.0	2.5	/experiments/knapen_aot/videos/S_yt-0buqUbXVTn8_48.mp4	0.0	256.79593777656555	0.5166370868682861
32	101.66055297851562	response	0	2		30.0	2.5	/experiments/knapen_aot/videos/S_yt-0buqUbXVTn8_48.mp4	0.0	257.30437183380127	
32	101.6687560081482	movie	1		301.0	30.0	2.5	/experiments/knapen_aot/videos/S_yt-0buqUbXVTn8_48.mp4	0.0	257.31257486343384	2.508388042449951
32	104.17714405059814	fix_post	2		12.0	30.0	2.5	/experiments/knapen_aot/videos/S_yt-0buqUbXVTn8_48.mp4	0.0	259.8209629058838	0.09993290901184082
33	104.27707695960999	fix_pre	0		38.0	31.0	2.5	/experiments/knapen_aot/videos/R_S_yt-WRBmpC-RxIc_678.mp4	0.0	259.92089581489563	0.31665897369384766
33	104.58546614646912	response	0	2		31.0	2.5	/experiments/knapen_aot/videos/R_S_yt-WRBmpC-RxIc_678.mp4	0.0	260.22928500175476	
33	104.59373593330383	movie	1		301.0	31.0	2.5	/experiments/knapen_aot/videos/R_S_yt-WRBmpC-RxIc_678.mp4	0.0	260.2375547885895	2.5083630084991455
33	107.10209894180298	fix_post	2		12.0	31.0	2.5	/experiments/knapen_aot/videos/R_S_yt-WRBmpC-RxIc_678.mp4	0.0	262.7459177970886	0.10003304481506348
34	107.20213198661804	fix_pre	0		22.0	32.0	2.5	/experiments/knapen_aot/videos/S_yt-fjOsq03OC2c_188.mp4	0.0	262.8459508419037	0.18326210975646973
34	107.37728714942932	response	0	2		32.0	2.5	/experiments/knapen_aot/videos/S_yt-fjOsq03OC2c_188.mp4	0.0	263.02110600471497	
34	107.38539409637451	movie	1		301.0	32.0	2.5	/experiments/knapen_aot/videos/S_yt-fjOsq03OC2c_188.mp4	0.0	263.02921295166016	2.5083930492401123
34	109.89378714561462	fix_post	2		12.0	32.0	2.5	/experiments/knapen_aot/videos/S_yt-fjOsq03OC2c_188.mp4	0.0	265.53760600090027	0.1000678539276123
35	109.99385499954224	fix_pre	0		40.0	33.0	2.5	/experiments/knapen_aot/videos/R_S_production_ID_4720614.mp4	0.0	265.6376738548279	0.3332250118255615
35	110.31889605522156	response	0	2		33.0	2.5	/experiments/knapen_aot/videos/R_S_production_ID_4720614.mp4	0.0	265.9627149105072	
35	110.3270800113678	movie	1		187.0	33.0	2.5	/experiments/knapen_aot/videos/R_S_production_ID_4720614.mp4	0.0	265.97089886665344	2.5082950592041016
35	112.8353750705719	fix_post	2		12.0	33.0	2.5	/experiments/knapen_aot/videos/R_S_production_ID_4720614.mp4	0.0	268.47919392585754	0.10002708435058594
36	112.93540215492249	fix_pre	0		48.0	34.0	2.5	/experiments/knapen_aot/videos/S_yt-q9kT_c9QjbQ_34.mp4	0.0	268.57922101020813	0.39998292922973633
36	113.32715606689453	response	0	2		34.0	2.5	/experiments/knapen_aot/videos/S_yt-q9kT_c9QjbQ_34.mp4	0.0	268.9709749221802	
36	113.33538508415222	movie	1		301.0	34.0	2.5	/experiments/knapen_aot/videos/S_yt-q9kT_c9QjbQ_34.mp4	0.0	268.97920393943787	2.5083138942718506
36	115.84369897842407	fix_post	2		12.0	34.0	2.5	/experiments/knapen_aot/videos/S_yt-q9kT_c9QjbQ_34.mp4	0.0	271.4875178337097	0.09993696212768555
37	115.94363594055176	fix_pre	0		94.0	35.0	2.5	blank	1.0	271.5874547958374	0.7840631008148193
37	116.71883893013	response	0	2		35.0	2.5	blank	1.0	272.36265778541565	
37	116.72769904136658	movie	1		301.0	35.0	2.5	blank	1.0	272.3715178966522	2.5076780319213867
37	118.88543200492859	response	1	2		35.0	2.5	blank	1.0	274.52925086021423	
37	119.23537707328796	fix_post	2		12.0	35.0	2.5	blank	1.0	274.8791959285736	0.09998703002929688
38	119.33536410331726	fix_pre	0		50.0	36.0	2.5	/experiments/knapen_aot/videos/S_yt-SGTgMItFkxY_172.mp4	0.0	274.9791829586029	0.41661500930786133
38	119.74379706382751	response	0	2		36.0	2.5	/experiments/knapen_aot/videos/S_yt-SGTgMItFkxY_172.mp4	0.0	275.38761591911316	
38	119.75197911262512	movie	1		301.0	36.0	2.5	/experiments/knapen_aot/videos/S_yt-SGTgMItFkxY_172.mp4	0.0	275.39579796791077	2.508380889892578
38	122.2603600025177	fix_post	2		12.0	36.0	2.5	/experiments/knapen_aot/videos/S_yt-SGTgMItFkxY_172.mp4	0.0	277.90417885780334	0.10003995895385742
39	122.36039996147156	fix_pre	0		118.0	37.0	2.5	/experiments/knapen_aot/videos/R_S_yt-urJgH6tpfkU_204.mp4	0.0	278.0042188167572	0.9832801818847656
39	123.33549213409424	response	0	2		37.0	2.5	/experiments/knapen_aot/videos/R_S_yt-urJgH6tpfkU_204.mp4	0.0	278.9793109893799	
39	123.34368014335632	movie	1		300.0	37.0	2.5	/experiments/knapen_aot/videos/R_S_yt-urJgH6tpfkU_204.mp4	0.0	278.98749899864197	2.5083158016204834
39	125.8519959449768	fix_post	2		12.0	37.0	2.5	/experiments/knapen_aot/videos/R_S_yt-urJgH6tpfkU_204.mp4	0.0	281.49581480026245	0.10001015663146973
40	125.95200610160828	fix_pre	0		144.0	38.0	2.5	/experiments/knapen_aot/videos/S_yt-O6W6CZPXvlA_15.mp4	0.0	281.5958249568939	1.2000319957733154
40	127.14378714561462	response	0	2		38.0	2.5	/experiments/knapen_aot/videos/S_yt-O6W6CZPXvlA_15.mp4	0.0	282.78760600090027	
40	127.15203809738159	movie	1		301.0	38.0	2.5	/experiments/knapen_aot/videos/S_yt-O6W6CZPXvlA_15.mp4	0.0	282.79585695266724	2.508281946182251
40	129.66032004356384	fix_post	2		12.0	38.0	2.5	/experiments/knapen_aot/videos/S_yt-O6W6CZPXvlA_15.mp4	0.0	285.3041388988495	0.09994196891784668
41	129.7602620124817	fix_pre	0		240.0	39.0	2.5	/experiments/knapen_aot/videos/S_DL_B002_C011_SDR_20191122_SDR_2K_AVC.mp4	0.0	285.40408086776733	2.0000269412994385
41	131.75206995010376	response	0	2		39.0	2.5	/experiments/knapen_aot/videos/S_DL_B002_C011_SDR_20191122_SDR_2K_AVC.mp4	0.0	287.3958888053894	
41	131.76028895378113	movie	1		162.0	39.0	2.5	/experiments/knapen_aot/videos/S_DL_B002_C011_SDR_20191122_SDR_2K_AVC.mp4	0.0	287.4041078090668	2.5083510875701904
41	134.26864004135132	fix_post	2		12.0	39.0	2.5	/experiments/knapen_aot/videos/S_DL_B002_C011_SDR_20191122_SDR_2K_AVC.mp4	0.0	289.91245889663696	0.09999299049377441
42	134.3686330318451	fix_pre	0		36.0	40.0	2.5	/experiments/knapen_aot/videos/S_comp_HK_H004_C001_PSNK_DENOISE_v14_SDR_PS_FINAL_20180731_SDR_2K_AVC.mp4	0.0	290.01245188713074	0.2999460697174072
42	134.660462141037	response	0	2		40.0	2.5	/experiments/knapen_aot/videos/S_comp_HK_H004_C001_PSNK_DENOISE_v14_SDR_PS_FINAL_20180731_SDR_2K_AVC.mp4	0.0	290.30428099632263	
42	134.6685791015625	movie	1		164.0	40.0	2.5	/experiments/knapen_aot/videos/S_comp_HK_H004_C001_PSNK_DENOISE_v14_SDR_PS_FINAL_20180731_SDR_2K_AVC.mp4	0.0	290.31239795684814	2.508358955383301
42	137.1769380569458	fix_post	2		12.0	40.0	2.5	/experiments/knapen_aot/videos/S_comp_HK_H004_C001_PSNK_DENOISE_v14_SDR_PS_FINAL_20180731_SDR_2K_AVC.mp4	0.0	292.82075691223145	0.1000208854675293
43	137.27695894241333	fix_pre	0		79.0	41.0	2.5	blank	1.0	292.920777797699	0.6590080261230469
43	137.92709708213806	response	0	2		41.0	2.5	blank	1.0	293.5709159374237	
43	137.93596696853638	movie	1		301.0	41.0	2.5	blank	1.0	293.579785823822	2.5078511238098145
43	140.4438180923462	fix_post	2		12.0	41.0	2.5	blank	1.0	296.08763694763184	0.09981584548950195
44	140.5436339378357	fix_pre	0		28.0	42.0	2.5	/experiments/knapen_aot/videos/R_S_yt-5MyvZYFlc9g_125.mp4	0.0	296.18745279312134	0.2332000732421875
44	140.76867294311523	response	0	2		42.0	2.5	/experiments/knapen_aot/videos/R_S_yt-5MyvZYFlc9g_125.mp4	0.0	296.4124917984009	
44	140.77683401107788	movie	1		301.0	42.0	2.5	/experiments/knapen_aot/videos/R_S_yt-5MyvZYFlc9g_125.mp4	0.0	296.4206528663635	2.508507013320923
44	143.2853410243988	fix_post	2		12.0	42.0	2.5	/experiments/knapen_aot/videos/R_S_yt-5MyvZYFlc9g_125.mp4	0.0	298.92915987968445	0.09995198249816895
45	143.38529300689697	fix_pre	0		37.0	43.0	2.5	/experiments/knapen_aot/videos/S_pexels-ron-lach-8259631.mp4	0.0	299.0291118621826	0.30826711654663086
45	143.685378074646	response	0	2		43.0	2.5	/experiments/knapen_aot/videos/S_pexels-ron-lach-8259631.mp4	0.0	299.32919692993164	
45	143.6935601234436	movie	1		202.0	43.0	2.5	/experiments/knapen_aot/videos/S_pexels-ron-lach-8259631.mp4	0.0	299.33737897872925	2.508435010910034
45	144.24373412132263	response	1	2		43.0	2.5	/experiments/knapen_aot/videos/S_pexels-ron-lach-8259631.mp4	0.0	299.8875529766083	
45	145.66042399406433	response	1	2		43.0	2.5	/experiments/knapen_aot/videos/S_pexels-ron-lach-8259631.mp4	0.0	301.30424284935	
45	146.20199513435364	fix_post	2		12.0	43.0	2.5	/experiments/knapen_aot/videos/S_pexels-ron-lach-8259631.mp4	0.0	301.8458139896393	0.09998083114624023
46	146.30197596549988	fix_pre	0		57.0	44.0	2.5	/experiments/knapen_aot/videos/R_S_yt-lADkWM79teI_18.mp4	0.0	301.9457948207855	0.4749741554260254
46	146.76869106292725	response	0	2		44.0	2.5	/experiments/knapen_aot/videos/R_S_yt-lADkWM79teI_18.mp4	0.0	302.4125099182129	
46	146.7769501209259	movie	1		301.0	44.0	2.5	/experiments/knapen_aot/videos/R_S_yt-lADkWM79teI_18.mp4	0.0	302.42076897621155	2.508296012878418
46	149.28524613380432	fix_post	2		12.0	44.0	2.5	/experiments/knapen_aot/videos/R_S_yt-lADkWM79teI_18.mp4	0.0	304.92906498908997	0.09996485710144043
47	149.38521099090576	fix_pre	0		80.0	45.0	2.5	/experiments/knapen_aot/videos/R_S_yt-Fdv-V--QlR0_117.mp4	0.0	305.0290298461914	0.6666669845581055
47	150.03625798225403	response	0	2		45.0	2.5	/experiments/knapen_aot/videos/R_S_yt-Fdv-V--QlR0_117.mp4	0.0	305.6800768375397	
47	150.05187797546387	movie	1		301.0	45.0	2.5	/experiments/knapen_aot/videos/R_S_yt-Fdv-V--QlR0_117.mp4	0.0	305.6956968307495	2.5083701610565186
47	152.56024813652039	fix_post	2		12.0	45.0	2.5	/experiments/knapen_aot/videos/R_S_yt-Fdv-V--QlR0_117.mp4	0.0	308.20406699180603	0.10013794898986816
48	152.66038608551025	fix_pre	0		252.0	46.0	2.5	/experiments/knapen_aot/videos/R_S_yt-5DD4XtHSA9Q_171.mp4	0.0	308.3042049407959	2.0997848510742188
48	154.751944065094	response	0	2		46.0	2.5	/experiments/knapen_aot/videos/R_S_yt-5DD4XtHSA9Q_171.mp4	0.0	310.39576292037964	
48	154.76017093658447	movie	1		301.0	46.0	2.5	/experiments/knapen_aot/videos/R_S_yt-5DD4XtHSA9Q_171.mp4	0.0	310.4039897918701	2.5084140300750732
48	157.26858496665955	fix_post	2		12.0	46.0	2.5	/experiments/knapen_aot/videos/R_S_yt-5DD4XtHSA9Q_171.mp4	0.0	312.9124038219452	0.09996604919433594
49	157.36855101585388	fix_pre	0		81.0	47.0	2.5	blank	1.0	313.0123698711395	0.6749300956726074
49	158.0353081226349	response	0	2		47.0	2.5	blank	1.0	313.67912697792053	
49	158.0434811115265	movie	1		301.0	47.0	2.5	blank	1.0	313.68729996681213	2.5083749294281006
49	160.5518560409546	fix_post	2		12.0	47.0	2.5	blank	1.0	316.19567489624023	0.0999290943145752
50	160.65178513526917	fix_pre	0		456.0	48.0	2.5	/experiments/knapen_aot/videos/S_production_ID_4122384.mp4	0.0	316.2956039905548	3.800079822540283
50	164.44355702400208	response	0	2		48.0	2.5	/experiments/knapen_aot/videos/S_production_ID_4122384.mp4	0.0	320.0873758792877	
50	164.45186495780945	movie	1		166.0	48.0	2.5	/experiments/knapen_aot/videos/S_production_ID_4122384.mp4	0.0	320.0956838130951	2.5082991123199463
50	166.9601640701294	fix_post	2		12.0	48.0	2.5	/experiments/knapen_aot/videos/S_production_ID_4122384.mp4	0.0	322.60398292541504	0.09998893737792969
51	167.06015300750732	fix_pre	0		31.0	49.0	2.5	/experiments/knapen_aot/videos/R_S_yt-XRQ_LSGGr3Y_712.mp4	0.0	322.70397186279297	0.2583351135253906
51	167.31023597717285	response	0	2		49.0	2.5	/experiments/knapen_aot/videos/R_S_yt-XRQ_LSGGr3Y_712.mp4	0.0	322.9540548324585	
51	167.31848812103271	movie	1		301.0	49.0	2.5	/experiments/knapen_aot/videos/R_S_yt-XRQ_LSGGr3Y_712.mp4	0.0	322.96230697631836	2.5083439350128174
51	169.82683205604553	fix_post	2		12.0	49.0	2.5	/experiments/knapen_aot/videos/R_S_yt-XRQ_LSGGr3Y_712.mp4	0.0	325.4706509113312	0.09997701644897461
52	169.9268090724945	fix_pre	0		35.0	50.0	2.5	/experiments/knapen_aot/videos/S_comp_LA_A006_C008_PSNK_ALL_LOGOS_v10_SDR_PS_FINAL_20180801_SDR_2K_AVC.mp4	0.0	325.57062792778015	0.2916300296783447
52	170.21031999588013	response	0	2		50.0	2.5	/experiments/knapen_aot/videos/S_comp_LA_A006_C008_PSNK_ALL_LOGOS_v10_SDR_PS_FINAL_20180801_SDR_2K_AVC.mp4	0.0	325.85413885116577	
52	170.21843910217285	movie	1		168.0	50.0	2.5	/experiments/knapen_aot/videos/S_comp_LA_A006_C008_PSNK_ALL_LOGOS_v10_SDR_PS_FINAL_20180801_SDR_2K_AVC.mp4	0.0	325.8622579574585	2.50836181640625
52	172.7268009185791	fix_post	2		12.0	50.0	2.5	/experiments/knapen_aot/videos/S_comp_LA_A006_C008_PSNK_ALL_LOGOS_v10_SDR_PS_FINAL_20180801_SDR_2K_AVC.mp4	0.0	328.37061977386475	0.10000300407409668
53	172.8268039226532	fix_pre	0		12.0	51.0	2.5	/experiments/knapen_aot/videos/S_yt-2IfvnrF3IV0_241.mp4	0.0	328.47062277793884	0.0999901294708252
53	172.91857814788818	response	0	2		51.0	2.5	/experiments/knapen_aot/videos/S_yt-2IfvnrF3IV0_241.mp4	0.0	328.5623970031738	
53	172.92679405212402	movie	1		301.0	51.0	2.5	/experiments/knapen_aot/videos/S_yt-2IfvnrF3IV0_241.mp4	0.0	328.57061290740967	2.5083560943603516
53	175.43515014648438	fix_post	2		12.0	51.0	2.5	/experiments/knapen_aot/videos/S_yt-2IfvnrF3IV0_241.mp4	0.0	331.07896900177	0.0999608039855957
54	175.53511095046997	fix_pre	0		27.0	52.0	2.5	/experiments/knapen_aot/videos/R_S_yt-s5YONFy3vb4_46.mp4	0.0	331.1789298057556	0.22493720054626465
54	175.7519130706787	response	0	2		52.0	2.5	/experiments/knapen_aot/videos/R_S_yt-s5YONFy3vb4_46.mp4	0.0	331.39573192596436	
54	175.76004815101624	movie	1		301.0	52.0	2.5	/experiments/knapen_aot/videos/R_S_yt-s5YONFy3vb4_46.mp4	0.0	331.4038670063019	2.508373975753784
54	178.26842212677002	fix_post	2		12.0	52.0	2.5	/experiments/knapen_aot/videos/R_S_yt-s5YONFy3vb4_46.mp4	0.0	333.91224098205566	0.09998679161071777
55	178.36840891838074	fix_pre	0		18.0	53.0	2.5	/experiments/knapen_aot/videos/S_production_ID_4802712.mp4	0.0	334.0122277736664	0.1504960060119629
55	178.51028895378113	response	0	2		53.0	2.5	/experiments/knapen_aot/videos/S_production_ID_4802712.mp4	0.0	334.1541078090668	
55	178.5189049243927	movie	1		162.0	53.0	2.5	/experiments/knapen_aot/videos/S_production_ID_4802712.mp4	0.0	334.16272377967834	2.5078890323638916
55	181.0267939567566	fix_post	2		12.0	53.0	2.5	/experiments/knapen_aot/videos/S_production_ID_4802712.mp4	0.0	336.67061281204224	0.09997296333312988
56	181.12676692008972	fix_pre	0		17.0	54.0	2.5	/experiments/knapen_aot/videos/R_S_yt-2IfvnrF3IV0_241.mp4	0.0	336.77058577537537	0.14194202423095703
56	181.26016902923584	response	0	2		54.0	2.5	/experiments/knapen_aot/videos/R_S_yt-2IfvnrF3IV0_241.mp4	0.0	336.9039878845215	
56	181.26870894432068	movie	1		301.0	54.0	2.5	/experiments/knapen_aot/videos/R_S_yt-2IfvnrF3IV0_241.mp4	0.0	336.9125277996063	2.508052110671997
56	183.77676105499268	fix_post	2		12.0	54.0	2.5	/experiments/knapen_aot/videos/R_S_yt-2IfvnrF3IV0_241.mp4	0.0	339.4205799102783	0.10001206398010254
57	183.87677311897278	fix_pre	0		31.0	55.0	2.5	blank	1.0	339.5205919742584	0.25840187072753906
57	184.12679600715637	response	0	2		55.0	2.5	blank	1.0	339.770614862442	
57	184.13517498970032	movie	1		301.0	55.0	2.5	blank	1.0	339.77899384498596	2.5082781314849854
57	185.8268051147461	response	1	2		55.0	2.5	blank	1.0	341.47062397003174	
57	186.6434531211853	fix_post	2		12.0	55.0	2.5	blank	1.0	342.28727197647095	0.1000678539276123
58	186.74352097511292	fix_pre	0		40.0	56.0	2.5	/experiments/knapen_aot/videos/R_S_yt-c5IgOXX8YZ0_24.mp4	0.0	342.38733983039856	0.3331911563873291
58	187.0609450340271	response	0	2		56.0	2.5	/experiments/knapen_aot/videos/R_S_yt-c5IgOXX8YZ0_24.mp4	0.0	342.70476388931274	
58	187.07671213150024	movie	1		301.0	56.0	2.5	/experiments/knapen_aot/videos/R_S_yt-c5IgOXX8YZ0_24.mp4	0.0	342.7205309867859	2.5083298683166504
58	189.5850419998169	fix_post	2		12.0	56.0	2.5	/experiments/knapen_aot/videos/R_S_yt-c5IgOXX8YZ0_24.mp4	0.0	345.22886085510254	0.10006403923034668
59	189.68510603904724	fix_pre	0		187.0	57.0	2.5	/experiments/knapen_aot/videos/S_DL_B002_C011_SDR_20191122_SDR_2K_AVC.mp4	0.0	345.3289248943329	1.5582170486450195
59	191.23512291908264	response	0	2		57.0	2.5	/experiments/knapen_aot/videos/S_DL_B002_C011_SDR_20191122_SDR_2K_AVC.mp4	0.0	346.8789417743683	
59	191.24332308769226	movie	1		185.0	57.0	2.5	/experiments/knapen_aot/videos/S_DL_B002_C011_SDR_20191122_SDR_2K_AVC.mp4	0.0	346.8871419429779	2.5083608627319336
59	193.7516839504242	fix_post	2		12.0	57.0	2.5	/experiments/knapen_aot/videos/S_DL_B002_C011_SDR_20191122_SDR_2K_AVC.mp4	0.0	349.39550280570984	0.10041618347167969
60	193.85210013389587	fix_pre	0		44.0	58.0	2.5	/experiments/knapen_aot/videos/S_yt-RVoC19C420Y_27.mp4	0.0	349.4959189891815	0.3661768436431885
60	194.21016001701355	response	0	2		58.0	2.5	/experiments/knapen_aot/videos/S_yt-RVoC19C420Y_27.mp4	0.0	349.8539788722992	
60	194.21827697753906	movie	1		301.0	58.0	2.5	/experiments/knapen_aot/videos/S_yt-RVoC19C420Y_27.mp4	0.0	349.8620958328247	2.508419990539551
60	196.7266969680786	fix_post	2		12.0	58.0	2.5	/experiments/knapen_aot/videos/S_yt-RVoC19C420Y_27.mp4	0.0	352.37051582336426	0.1000211238861084
61	196.82671809196472	fix_pre	0		61.0	59.0	2.5	/experiments/knapen_aot/videos/S_yt-YyKEeu2gLrI_158.mp4	0.0	352.47053694725037	0.508228063583374
61	197.32678294181824	response	0	2		59.0	2.5	/experiments/knapen_aot/videos/S_yt-YyKEeu2gLrI_158.mp4	0.0	352.9706017971039	
61	197.3349461555481	movie	1		301.0	59.0	2.5	/experiments/knapen_aot/videos/S_yt-YyKEeu2gLrI_158.mp4	0.0	352.97876501083374	2.5084288120269775
61	199.84337496757507	fix_post	2		12.0	59.0	2.5	/experiments/knapen_aot/videos/S_yt-YyKEeu2gLrI_158.mp4	0.0	355.4871938228607	0.0999901294708252
62	199.9433650970459	fix_pre	0		27.0	60.0	2.5	/experiments/knapen_aot/videos/R_S_yt-CNq5mTA8oXY_176.mp4	0.0	355.58718395233154	0.22501087188720703
62	200.16012692451477	response	0	2		60.0	2.5	/experiments/knapen_aot/videos/R_S_yt-CNq5mTA8oXY_176.mp4	0.0	355.8039457798004	
62	200.1683759689331	movie	1		301.0	60.0	2.5	/experiments/knapen_aot/videos/R_S_yt-CNq5mTA8oXY_176.mp4	0.0	355.81219482421875	2.508449077606201
62	202.6768250465393	fix_post	2		12.0	60.0	2.5	/experiments/knapen_aot/videos/R_S_yt-CNq5mTA8oXY_176.mp4	0.0	358.32064390182495	0.09983706474304199
63	202.77666211128235	fix_pre	0		43.0	61.0	2.5	blank	1.0	358.420480966568	0.3583059310913086
63	203.12677311897278	response	0	2		61.0	2.5	blank	1.0	358.7705919742584	
63	203.13496804237366	movie	1		301.0	61.0	2.5	blank	1.0	358.7787868976593	2.508668899536133
63	204.2351610660553	response	1	2		61.0	2.5	blank	1.0	359.87897992134094	
63	205.6436369419098	fix_post	2		12.0	61.0	2.5	blank	1.0	361.28745579719543	0.0996851921081543
64	205.74332213401794	fix_pre	0		34.0	62.0	2.5	/experiments/knapen_aot/videos/R_S_yt-gikcYT6ZLzA_7.mp4	0.0	361.3871409893036	0.2833528518676758
64	206.01842308044434	response	0	2		62.0	2.5	/experiments/knapen_aot/videos/R_S_yt-gikcYT6ZLzA_7.mp4	0.0	361.66224193573	
64	206.02667498588562	movie	1		301.0	62.0	2.5	/experiments/knapen_aot/videos/R_S_yt-gikcYT6ZLzA_7.mp4	0.0	361.67049384117126	2.5083470344543457
64	208.53502202033997	fix_post	2		12.0	62.0	2.5	/experiments/knapen_aot/videos/R_S_yt-gikcYT6ZLzA_7.mp4	0.0	364.1788408756256	0.10001707077026367
65	208.63503909111023	fix_pre	0		24.0	63.0	2.5	/experiments/knapen_aot/videos/S_yt-ZwnliF0525U_95.mp4	0.0	364.2788579463959	0.1999659538269043
65	208.8268370628357	response	0	2		63.0	2.5	/experiments/knapen_aot/videos/S_yt-ZwnliF0525U_95.mp4	0.0	364.47065591812134	
65	208.83500504493713	movie	1		301.0	63.0	2.5	/experiments/knapen_aot/videos/S_yt-ZwnliF0525U_95.mp4	0.0	364.4788239002228	2.508307933807373
65	211.3433129787445	fix_post	2		12.0	63.0	2.5	/experiments/knapen_aot/videos/S_yt-ZwnliF0525U_95.mp4	0.0	366.98713183403015	0.10002708435058594
66	211.4433400630951	fix_pre	0		26.0	64.0	2.5	/experiments/knapen_aot/videos/R_S_yt-roThCERxVCs_133.mp4	0.0	367.08715891838074	0.2166299819946289
66	211.6517629623413	response	0	2		64.0	2.5	/experiments/knapen_aot/videos/R_S_yt-roThCERxVCs_133.mp4	0.0	367.29558181762695	
66	211.65997004508972	movie	1		301.0	64.0	2.5	/experiments/knapen_aot/videos/R_S_yt-roThCERxVCs_133.mp4	0.0	367.30378890037537	2.508310079574585
66	214.1682801246643	fix_post	2		12.0	64.0	2.5	/experiments/knapen_aot/videos/R_S_yt-roThCERxVCs_133.mp4	0.0	369.81209897994995	0.10046601295471191
67	214.26874613761902	fix_pre	0		64.0	65.0	2.5	/experiments/knapen_aot/videos/S_yt-q9-_bG9ry3E_5.mp4	0.0	369.91256499290466	0.532904863357544
67	214.79358196258545	response	0	2		65.0	2.5	/experiments/knapen_aot/videos/S_yt-q9-_bG9ry3E_5.mp4	0.0	370.4374008178711	
67	214.80165100097656	movie	1		301.0	65.0	2.5	/experiments/knapen_aot/videos/S_yt-q9-_bG9ry3E_5.mp4	0.0	370.4454698562622	2.5085690021514893
67	217.31022000312805	fix_post	2		12.0	65.0	2.5	/experiments/knapen_aot/videos/S_yt-q9-_bG9ry3E_5.mp4	0.0	372.9540388584137	0.09979414939880371
68	217.41001415252686	fix_pre	0		17.0	66.0	2.5	/experiments/knapen_aot/videos/S_ILSVRC2015_train_00610000.mp4	0.0	373.0538330078125	0.14160990715026855
68	217.54339599609375	response	0	2		66.0	2.5	/experiments/knapen_aot/videos/S_ILSVRC2015_train_00610000.mp4	0.0	373.1872148513794	
68	217.55162405967712	movie	1		301.0	66.0	2.5	/experiments/knapen_aot/videos/S_ILSVRC2015_train_00610000.mp4	0.0	373.19544291496277	2.508302927017212
68	219.05696201324463	response	1	2		66.0	2.5	/experiments/knapen_aot/videos/S_ILSVRC2015_train_00610000.mp4	0.0	374.7007808685303	
68	220.05992698669434	fix_post	2		12.0	66.0	2.5	/experiments/knapen_aot/videos/S_ILSVRC2015_train_00610000.mp4	0.0	375.70374584198	0.10000205039978027
69	220.15992903709412	fix_pre	0		20.0	67.0	2.5	/experiments/knapen_aot/videos/S_yt-3NMDWrZr1Z4_255.mp4	0.0	375.80374789237976	0.1665658950805664
69	220.3184299468994	response	0	2		67.0	2.5	/experiments/knapen_aot/videos/S_yt-3NMDWrZr1Z4_255.mp4	0.0	375.96224880218506	
69	220.32649493217468	movie	1		301.0	67.0	2.5	/experiments/knapen_aot/videos/S_yt-3NMDWrZr1Z4_255.mp4	0.0	375.9703137874603	2.5085949897766113
69	222.8350899219513	fix_post	2		12.0	67.0	2.5	/experiments/knapen_aot/videos/S_yt-3NMDWrZr1Z4_255.mp4	0.0	378.47890877723694	0.10001015663146973
70	222.93510007858276	fix_pre	0		38.0	68.0	2.5	/experiments/knapen_aot/videos/R_S_production_ID_4325509.mp4	0.0	378.5789189338684	0.31645989418029785
70	223.24337911605835	response	0	2		68.0	2.5	/experiments/knapen_aot/videos/R_S_production_ID_4325509.mp4	0.0	378.887197971344	
70	223.25155997276306	movie	1		196.0	68.0	2.5	/experiments/knapen_aot/videos/R_S_production_ID_4325509.mp4	0.0	378.8953788280487	2.5083529949188232
70	225.4850559234619	response	1	2		68.0	2.5	/experiments/knapen_aot/videos/R_S_production_ID_4325509.mp4	0.0	381.12887477874756	
70	225.75991296768188	fix_post	2		12.0	68.0	2.5	/experiments/knapen_aot/videos/R_S_production_ID_4325509.mp4	0.0	381.40373182296753	0.10001111030578613
71	225.85992407798767	fix_pre	0		226.0	69.0	2.5	/experiments/knapen_aot/videos/R_S_yt-YCjbGOPBQHw_131.mp4	0.0	381.5037429332733	1.8832800388336182
71	227.73506593704224	response	0	2		69.0	2.5	/experiments/knapen_aot/videos/R_S_yt-YCjbGOPBQHw_131.mp4	0.0	383.3788847923279	
71	227.7432041168213	movie	1		301.0	69.0	2.5	/experiments/knapen_aot/videos/R_S_yt-YCjbGOPBQHw_131.mp4	0.0	383.38702297210693	2.5084409713745117
71	230.2516450881958	fix_post	2		12.0	69.0	2.5	/experiments/knapen_aot/videos/R_S_yt-YCjbGOPBQHw_131.mp4	0.0	385.89546394348145	0.10003495216369629
72	230.3516800403595	fix_pre	0		121.0	70.0	2.5	blank	1.0	385.99549889564514	1.0081579685211182
72	231.3516881465912	response	0	2		70.0	2.5	blank	1.0	386.99550700187683	
72	231.35983800888062	movie	1		301.0	70.0	2.5	blank	1.0	387.00365686416626	2.508368968963623
72	233.86820697784424	fix_post	2		12.0	70.0	2.5	blank	1.0	389.5120258331299	0.10000300407409668
73	233.96820998191833	fix_pre	0		51.0	71.0	2.5	/experiments/knapen_aot/videos/S_pexels-mart-production-7698911_1.mp4	0.0	389.612028837204	0.42500996589660645
73	234.38501000404358	response	0	2		71.0	2.5	/experiments/knapen_aot/videos/S_pexels-mart-production-7698911_1.mp4	0.0	390.0288288593292	
73	234.39321994781494	movie	1		200.0	71.0	2.5	/experiments/knapen_aot/videos/S_pexels-mart-production-7698911_1.mp4	0.0	390.0370388031006	2.508280038833618
73	236.90149998664856	fix_post	2		12.0	71.0	2.5	/experiments/knapen_aot/videos/S_pexels-mart-production-7698911_1.mp4	0.0	392.5453188419342	0.09999704360961914
74	237.00149703025818	fix_pre	0		194.0	72.0	2.5	/experiments/knapen_aot/videos/R_S_ILSVRC2015_train_00569006.mp4	0.0	392.6453158855438	1.6166291236877441
74	238.6099579334259	response	0	2		72.0	2.5	/experiments/knapen_aot/videos/R_S_ILSVRC2015_train_00569006.mp4	0.0	394.25377678871155	
74	238.61812615394592	movie	1		301.0	72.0	2.5	/experiments/knapen_aot/videos/R_S_ILSVRC2015_train_00569006.mp4	0.0	394.26194500923157	2.508396863937378
74	241.1265230178833	fix_post	2		12.0	72.0	2.5	/experiments/knapen_aot/videos/R_S_ILSVRC2015_train_00569006.mp4	0.0	396.77034187316895	0.10010790824890137
75	241.2266309261322	fix_pre	0		45.0	73.0	2.5	/experiments/knapen_aot/videos/R_S_yt-Ev39pXXfr1Y_152.mp4	0.0	396.87044978141785	0.3748900890350342
75	241.59343314170837	response	0	2		73.0	2.5	/experiments/knapen_aot/videos/R_S_yt-Ev39pXXfr1Y_152.mp4	0.0	397.237251996994	
75	241.60152101516724	movie	1		301.0	73.0	2.5	/experiments/knapen_aot/videos/R_S_yt-Ev39pXXfr1Y_152.mp4	0.0	397.2453398704529	2.5082290172576904
75	244.10975003242493	fix_post	2		12.0	73.0	2.5	/experiments/knapen_aot/videos/R_S_yt-Ev39pXXfr1Y_152.mp4	0.0	399.75356888771057	0.10004496574401855
76	244.20979499816895	fix_pre	0		26.0	74.0	2.5	/experiments/knapen_aot/videos/S_comp_A105_C002_v06_SDR_FINAL_25062018_SDR_2K_AVC.mp4	0.0	399.8536138534546	0.21667695045471191
76	244.41823506355286	response	0	2		74.0	2.5	/experiments/knapen_aot/videos/S_comp_A105_C002_v06_SDR_FINAL_25062018_SDR_2K_AVC.mp4	0.0	400.0620539188385	
76	244.42647194862366	movie	1		169.0	74.0	2.5	/experiments/knapen_aot/videos/S_comp_A105_C002_v06_SDR_FINAL_25062018_SDR_2K_AVC.mp4	0.0	400.0702908039093	2.5083420276641846
76	246.93481397628784	fix_post	2		12.0	74.0	2.5	/experiments/knapen_aot/videos/S_comp_A105_C002_v06_SDR_FINAL_25062018_SDR_2K_AVC.mp4	0.0	402.5786328315735	0.09999299049377441
77	247.03480696678162	fix_pre	0		82.0	75.0	2.5	blank	1.0	402.67862582206726	0.6832621097564697
77	247.70997714996338	response	0	2		75.0	2.5	blank	1.0	403.353796005249	
77	247.7180690765381	movie	1		301.0	75.0	2.5	blank	1.0	403.36188793182373	2.5085740089416504
77	250.22664308547974	fix_post	2		12.0	75.0	2.5	blank	1.0	405.8704619407654	0.09980988502502441
78	250.32645297050476	fix_pre	0		40.0	76.0	2.5	/experiments/knapen_aot/videos/R_S_production_ID_4428752.mp4	0.0	405.9702718257904	0.3332960605621338
78	250.65154099464417	response	0	2		76.0	2.5	/experiments/knapen_aot/videos/R_S_production_ID_4428752.mp4	0.0	406.2953598499298	
78	250.6597490310669	movie	1		164.0	76.0	2.5	/experiments/knapen_aot/videos/R_S_production_ID_4428752.mp4	0.0	406.30356788635254	2.508366107940674
78	253.16811513900757	fix_post	2		12.0	76.0	2.5	/experiments/knapen_aot/videos/R_S_production_ID_4428752.mp4	0.0	408.8119339942932	0.09999299049377441
79	253.26810812950134	fix_pre	0		29.0	77.0	2.5	/experiments/knapen_aot/videos/R_S_I003_C015_SDR_2K_AVC.mp4	0.0	408.911926984787	0.24164581298828125
79	253.50156712532043	response	0	2		77.0	2.5	/experiments/knapen_aot/videos/R_S_I003_C015_SDR_2K_AVC.mp4	0.0	409.1453859806061	
79	253.50975394248962	movie	1		172.0	77.0	2.5	/experiments/knapen_aot/videos/R_S_I003_C015_SDR_2K_AVC.mp4	0.0	409.15357279777527	2.5083861351013184
79	256.01814007759094	fix_post	2		12.0	77.0	2.5	/experiments/knapen_aot/videos/R_S_I003_C015_SDR_2K_AVC.mp4	0.0	411.6619589328766	0.09995293617248535
80	256.1180930137634	fix_pre	0		16.0	78.0	2.5	/experiments/knapen_aot/videos/S_yt-o_CT2MjZ9fA_216.mp4	0.0	411.7619118690491	0.13331198692321777
80	256.2431559562683	response	0	2		78.0	2.5	/experiments/knapen_aot/videos/S_yt-o_CT2MjZ9fA_216.mp4	0.0	411.88697481155396	
80	256.25140500068665	movie	1		301.0	78.0	2.5	/experiments/knapen_aot/videos/S_yt-o_CT2MjZ9fA_216.mp4	0.0	411.8952238559723	2.5082969665527344
80	258.5849549770355	response	1	2		78.0	2.5	/experiments/knapen_aot/videos/S_yt-o_CT2MjZ9fA_216.mp4	0.0	414.22877383232117	
80	258.7597019672394	fix_post	2		12.0	78.0	2.5	/experiments/knapen_aot/videos/S_yt-o_CT2MjZ9fA_216.mp4	0.0	414.403520822525	0.10004496574401855
81	258.8597469329834	fix_pre	0		37.0	79.0	2.5	/experiments/knapen_aot/videos/R_S_yt-aiwDdJm1ek8_90.mp4	0.0	414.50356578826904	0.30828309059143066
81	259.1597731113434	response	0	2		79.0	2.5	/experiments/knapen_aot/videos/R_S_yt-aiwDdJm1ek8_90.mp4	0.0	414.803591966629	
81	259.16803002357483	movie	1		301.0	79.0	2.5	/experiments/knapen_aot/videos/R_S_yt-aiwDdJm1ek8_90.mp4	0.0	414.8118488788605	2.5084691047668457
81	261.6764991283417	fix_post	2		12.0	79.0	2.5	/experiments/knapen_aot/videos/R_S_yt-aiwDdJm1ek8_90.mp4	0.0	417.3203179836273	0.10022497177124023
82	261.7767241001129	fix_pre	0		60.0	80.0	2.5	/experiments/knapen_aot/videos/S_yt-IPiZqn4dG9k_9.mp4	0.0	417.42054295539856	0.4996359348297119
82	262.26818203926086	response	0	2		80.0	2.5	/experiments/knapen_aot/videos/S_yt-IPiZqn4dG9k_9.mp4	0.0	417.9120008945465	
82	262.2763600349426	movie	1		301.0	80.0	2.5	/experiments/knapen_aot/videos/S_yt-IPiZqn4dG9k_9.mp4	0.0	417.92017889022827	2.5083580017089844
82	264.7847180366516	fix_post	2		12.0	80.0	2.5	/experiments/knapen_aot/videos/S_yt-IPiZqn4dG9k_9.mp4	0.0	420.42853689193726	0.10000801086425781
83	264.88472604751587	fix_pre	0		37.0	81.0	2.5	/experiments/knapen_aot/videos/R_S_yt-CNq5mTA8oXY_176.mp4	0.0	420.5285449028015	0.308276891708374
83	265.1848421096802	response	0	2		81.0	2.5	/experiments/knapen_aot/videos/R_S_yt-CNq5mTA8oXY_176.mp4	0.0	420.8286609649658	
83	265.19300293922424	movie	1		301.0	81.0	2.5	/experiments/knapen_aot/videos/R_S_yt-CNq5mTA8oXY_176.mp4	0.0	420.8368217945099	2.5083889961242676
83	267.7013919353485	fix_post	2		12.0	81.0	2.5	/experiments/knapen_aot/videos/R_S_yt-CNq5mTA8oXY_176.mp4	0.0	423.34521079063416	0.09999799728393555
84	267.80138993263245	fix_pre	0		31.0	82.0	2.5	blank	1.0	423.4452087879181	0.2583751678466797
84	268.05146193504333	response	0	2		82.0	2.5	blank	1.0	423.695280790329	
84	268.0597651004791	movie	1		301.0	82.0	2.5	blank	1.0	423.70358395576477	2.508302927017212
84	270.56806802749634	fix_post	2		12.0	82.0	2.5	blank	1.0	426.211886882782	0.0999610424041748
85	270.6680290699005	fix_pre	0		120.0	83.0	2.5	/experiments/knapen_aot/videos/S_yt-WRBmpC-RxIc_678.mp4	0.0	426.31184792518616	0.9999589920043945
85	271.6598060131073	response	0	2		83.0	2.5	/experiments/knapen_aot/videos/S_yt-WRBmpC-RxIc_678.mp4	0.0	427.30362486839294	
85	271.6679880619049	movie	1		301.0	83.0	2.5	/experiments/knapen_aot/videos/S_yt-WRBmpC-RxIc_678.mp4	0.0	427.31180691719055	2.5084519386291504
85	274.17644000053406	fix_post	2		12.0	83.0	2.5	/experiments/knapen_aot/videos/S_yt-WRBmpC-RxIc_678.mp4	0.0	429.8202588558197	0.10027313232421875
87	274.2767131328583	stim	0		518.0					429.9205319881439	4.3175950050354
87	277.043151140213	response	0	2						432.68696999549866	
87	278.5896680355072	response	0	space						434.23348689079285	
