trial_nr	onset	event_type	phase	response	nr_frames	movie_index	movie_duration	movie_file	blank	onset_abs	duration
0	0.1322951316833496	stim	0		36.0					59.04487204551697	0.37493896484375
0	0.4656851291656494	response	0	space						59.37826204299927	
1	0.5072340965270996	stim	0		120.0					59.41981101036072	0.9996678829193115
1	1.0917060375213623	response	0	space						60.00428295135498	
1	1.5069019794464111	stim	1		120.0					60.41947889328003	0.9999661445617676
1	2.040337085723877	response	1	space						60.952913999557495	
1	2.273571014404297	response	1	space						61.186147928237915	
2	2.5068681240081787	fix_pre	0		12.0	0.0	2.5	/experiments/knapen_aot/videos/S_yt-VJ65ukWmdxQ_193.mp4	0.0	61.4194450378418	0.0999748706817627
2	2.598642110824585	response	0	space		0.0	2.5	/experiments/knapen_aot/videos/S_yt-VJ65ukWmdxQ_193.mp4	0.0	61.5112190246582	
2	2.6068429946899414	movie	1		298.0	0.0	2.5	/experiments/knapen_aot/videos/S_yt-VJ65ukWmdxQ_193.mp4	0.0	61.51941990852356	2.5083131790161133
2	5.115156173706055	fix_post	2		12.0	0.0	2.5	/experiments/knapen_aot/videos/S_yt-VJ65ukWmdxQ_193.mp4	0.0	64.02773308753967	0.10010600090026855
3	5.215262174606323	fix_pre	0		95.0	1.0	2.5	/experiments/knapen_aot/videos/R_S_yt-R9Iabv0XgOQ_80.mp4	0.0	64.12783908843994	0.7915308475494385
3	6.003046035766602	response	0	2		1.0	2.5	/experiments/knapen_aot/videos/R_S_yt-R9Iabv0XgOQ_80.mp4	0.0	64.91562294960022	
3	6.006793022155762	movie	1		299.0	1.0	2.5	/experiments/knapen_aot/videos/R_S_yt-R9Iabv0XgOQ_80.mp4	0.0	64.91936993598938	2.508394956588745
3	8.515187978744507	fix_post	2		12.0	1.0	2.5	/experiments/knapen_aot/videos/R_S_yt-R9Iabv0XgOQ_80.mp4	0.0	67.42776489257812	0.09998703002929688
4	8.615175008773804	fix_pre	0		72.0	2.0	2.5	/experiments/knapen_aot/videos/R_S_ILSVRC2015_train_00418004.mp4	0.0	67.52775192260742	0.5999610424041748
4	9.206961154937744	response	0	2		2.0	2.5	/experiments/knapen_aot/videos/R_S_ILSVRC2015_train_00418004.mp4	0.0	68.11953806877136	
4	9.215136051177979	movie	1		301.0	2.0	2.5	/experiments/knapen_aot/videos/R_S_ILSVRC2015_train_00418004.mp4	0.0	68.1277129650116	2.508357048034668
4	11.723493099212646	fix_post	2		12.0	2.0	2.5	/experiments/knapen_aot/videos/R_S_ILSVRC2015_train_00418004.mp4	0.0	70.63607001304626	0.10001802444458008
5	11.823511123657227	fix_pre	0		52.0	3.0	2.5	/experiments/knapen_aot/videos/R_S_yt-GO26QIueqRw_385.mp4	0.0	70.73608803749084	0.4332878589630127
5	12.248615980148315	response	0	2		3.0	2.5	/experiments/knapen_aot/videos/R_S_yt-GO26QIueqRw_385.mp4	0.0	71.16119289398193	
5	12.25679898262024	movie	1		301.0	3.0	2.5	/experiments/knapen_aot/videos/R_S_yt-GO26QIueqRw_385.mp4	0.0	71.16937589645386	2.5083060264587402
5	14.76510500907898	fix_post	2		12.0	3.0	2.5	/experiments/knapen_aot/videos/R_S_yt-GO26QIueqRw_385.mp4	0.0	73.6776819229126	0.1000211238861084
6	14.865126132965088	fix_pre	0		48.0	4.0	2.5	/experiments/knapen_aot/videos/R_S_yt-0xzYSBvVfYM_197.mp4	0.0	73.7777030467987	0.40001988410949707
6	15.249287128448486	response	0	2		4.0	2.5	/experiments/knapen_aot/videos/R_S_yt-0xzYSBvVfYM_197.mp4	0.0	74.1618640422821	
6	15.265146017074585	movie	1		301.0	4.0	2.5	/experiments/knapen_aot/videos/R_S_yt-0xzYSBvVfYM_197.mp4	0.0	74.1777229309082	2.5083000659942627
6	17.773446083068848	fix_post	2		12.0	4.0	2.5	/experiments/knapen_aot/videos/R_S_yt-0xzYSBvVfYM_197.mp4	0.0	76.68602299690247	0.0999898910522461
7	17.873435974121094	fix_pre	0		72.0	5.0	2.5	/experiments/knapen_aot/videos/S_yt-YyKEeu2gLrI_158.mp4	0.0	76.78601288795471	0.5999770164489746
7	18.465249061584473	response	0	2		5.0	2.5	/experiments/knapen_aot/videos/S_yt-YyKEeu2gLrI_158.mp4	0.0	77.37782597541809	
7	18.47341299057007	movie	1		301.0	5.0	2.5	/experiments/knapen_aot/videos/S_yt-YyKEeu2gLrI_158.mp4	0.0	77.38598990440369	2.5085339546203613
7	20.98194694519043	fix_post	2		12.0	5.0	2.5	/experiments/knapen_aot/videos/S_yt-YyKEeu2gLrI_158.mp4	0.0	79.89452385902405	0.09980201721191406
8	21.081748962402344	fix_pre	0		56.0	6.0	2.5	blank	1.0	79.99432587623596	0.4666140079498291
8	21.54016613960266	response	0	2		6.0	2.5	blank	1.0	80.45274305343628	
8	21.548362970352173	movie	1		301.0	6.0	2.5	blank	1.0	80.46093988418579	2.5084550380706787
8	24.05681800842285	fix_post	2		12.0	6.0	2.5	blank	1.0	82.96939492225647	0.09986710548400879
9	24.15668511390686	fix_pre	0		62.0	7.0	2.5	/experiments/knapen_aot/videos/R_S_yt-OdTWn1U1mO4_68.mp4	0.0	83.06926202774048	0.5166878700256348
9	24.665138959884644	response	0	2		7.0	2.5	/experiments/knapen_aot/videos/R_S_yt-OdTWn1U1mO4_68.mp4	0.0	83.57771587371826	
9	24.673372983932495	movie	1		301.0	7.0	2.5	/experiments/knapen_aot/videos/R_S_yt-OdTWn1U1mO4_68.mp4	0.0	83.58594989776611	2.5082809925079346
9	27.18165397644043	fix_post	2		12.0	7.0	2.5	/experiments/knapen_aot/videos/R_S_yt-OdTWn1U1mO4_68.mp4	0.0	86.09423089027405	0.10009407997131348
10	27.281748056411743	fix_pre	0		98.0	8.0	2.5	/experiments/knapen_aot/videos/R_S_pexels-roman-odintsov-8231493.mp4	0.0	86.19432497024536	0.816627025604248
10	28.09020209312439	response	0	2		8.0	2.5	/experiments/knapen_aot/videos/R_S_pexels-roman-odintsov-8231493.mp4	0.0	87.00277900695801	
10	28.09837508201599	movie	1		195.0	8.0	2.5	/experiments/knapen_aot/videos/R_S_pexels-roman-odintsov-8231493.mp4	0.0	87.01095199584961	2.5083160400390625
10	30.606691122055054	fix_post	2		12.0	8.0	2.5	/experiments/knapen_aot/videos/R_S_pexels-roman-odintsov-8231493.mp4	0.0	89.51926803588867	0.10000991821289062
11	30.706701040267944	fix_pre	0		82.0	9.0	2.5	/experiments/knapen_aot/videos/S_yt-4oT-2eGhmUo_102.mp4	0.0	89.61927795410156	0.6833150386810303
11	31.381834983825684	response	0	2		9.0	2.5	/experiments/knapen_aot/videos/S_yt-4oT-2eGhmUo_102.mp4	0.0	90.2944118976593	
11	31.390016078948975	movie	1		301.0	9.0	2.5	/experiments/knapen_aot/videos/S_yt-4oT-2eGhmUo_102.mp4	0.0	90.30259299278259	2.5083279609680176
11	33.89834403991699	fix_post	2		12.0	9.0	2.5	/experiments/knapen_aot/videos/S_yt-4oT-2eGhmUo_102.mp4	0.0	92.81092095375061	0.10001802444458008
12	33.99836206436157	fix_pre	0		70.0	10.0	2.5	/experiments/knapen_aot/videos/S_production_ID_4325506.mp4	0.0	92.91093897819519	0.5839629173278809
12	34.57348108291626	response	0	2		10.0	2.5	/experiments/knapen_aot/videos/S_production_ID_4325506.mp4	0.0	93.48605799674988	
12	34.58232498168945	movie	1		199.0	10.0	2.5	/experiments/knapen_aot/videos/S_production_ID_4325506.mp4	0.0	93.49490189552307	2.5078070163726807
12	37.090131998062134	fix_post	2		12.0	10.0	2.5	/experiments/knapen_aot/videos/S_production_ID_4325506.mp4	0.0	96.00270891189575	0.09989500045776367
13	37.1900269985199	fix_pre	0		95.0	11.0	2.5	/experiments/knapen_aot/videos/S_pexels-koolshooters-7327405.mp4	0.0	96.10260391235352	0.7916321754455566
13	37.97347116470337	response	0	2		11.0	2.5	/experiments/knapen_aot/videos/S_pexels-koolshooters-7327405.mp4	0.0	96.88604807853699	
13	37.981659173965454	movie	1		161.0	11.0	2.5	/experiments/knapen_aot/videos/S_pexels-koolshooters-7327405.mp4	0.0	96.89423608779907	2.508312940597534
13	40.48997211456299	fix_post	2		12.0	11.0	2.5	/experiments/knapen_aot/videos/S_pexels-koolshooters-7327405.mp4	0.0	99.4025490283966	0.09999394416809082
14	40.58996605873108	fix_pre	0		71.0	12.0	2.5	/experiments/knapen_aot/videos/S_yt-l6WPyKg_3is_154.mp4	0.0	99.5025429725647	0.5916059017181396
14	41.17345404624939	response	0	2		12.0	2.5	/experiments/knapen_aot/videos/S_yt-l6WPyKg_3is_154.mp4	0.0	100.08603096008301	
14	41.18157196044922	movie	1		301.0	12.0	2.5	/experiments/knapen_aot/videos/S_yt-l6WPyKg_3is_154.mp4	0.0	100.09414887428284	2.5084240436553955
14	43.689996004104614	fix_post	2		12.0	12.0	2.5	/experiments/knapen_aot/videos/S_yt-l6WPyKg_3is_154.mp4	0.0	102.60257291793823	0.10000896453857422
15	43.79000496864319	fix_pre	0		71.0	13.0	2.5	blank	1.0	102.7025818824768	0.5916290283203125
15	44.37344312667847	response	0	2		13.0	2.5	blank	1.0	103.28602004051208	
15	44.3816339969635	movie	1		301.0	13.0	2.5	blank	1.0	103.29421091079712	2.508268117904663
15	46.889902114868164	fix_post	2		12.0	13.0	2.5	blank	1.0	105.80247902870178	0.10006403923034668
16	46.98996615409851	fix_pre	0		94.0	14.0	2.5	/experiments/knapen_aot/videos/S_yt-bH4nJibL4Jo_164.mp4	0.0	105.90254306793213	0.7832298278808594
16	47.765074014663696	response	0	2		14.0	2.5	/experiments/knapen_aot/videos/S_yt-bH4nJibL4Jo_164.mp4	0.0	106.67765092849731	
16	47.77319598197937	movie	1		301.0	14.0	2.5	/experiments/knapen_aot/videos/S_yt-bH4nJibL4Jo_164.mp4	0.0	106.68577289581299	2.5084471702575684
16	50.28164315223694	fix_post	2		12.0	14.0	2.5	/experiments/knapen_aot/videos/S_yt-bH4nJibL4Jo_164.mp4	0.0	109.19422006607056	0.09996891021728516
17	50.381612062454224	fix_pre	0		71.0	15.0	2.5	/experiments/knapen_aot/videos/R_S_yt-x7NWmdlvVIQ_183.mp4	0.0	109.29418897628784	0.5915989875793457
17	50.96503710746765	response	0	2		15.0	2.5	/experiments/knapen_aot/videos/R_S_yt-x7NWmdlvVIQ_183.mp4	0.0	109.87761402130127	
17	50.97321105003357	movie	1		301.0	15.0	2.5	/experiments/knapen_aot/videos/R_S_yt-x7NWmdlvVIQ_183.mp4	0.0	109.88578796386719	2.508371114730835
17	53.481582164764404	fix_post	2		12.0	15.0	2.5	/experiments/knapen_aot/videos/R_S_yt-x7NWmdlvVIQ_183.mp4	0.0	112.39415907859802	0.09997677803039551
18	53.5815589427948	fix_pre	0		60.0	16.0	2.5	/experiments/knapen_aot/videos/S_ILSVRC2015_train_00569002.mp4	0.0	112.49413585662842	0.50058913230896
18	54.073490142822266	response	0	2		16.0	2.5	/experiments/knapen_aot/videos/S_ILSVRC2015_train_00569002.mp4	0.0	112.98606705665588	
18	54.08214807510376	movie	1		301.0	16.0	2.5	/experiments/knapen_aot/videos/S_ILSVRC2015_train_00569002.mp4	0.0	112.99472498893738	2.5077250003814697
18	56.58987307548523	fix_post	2		12.0	16.0	2.5	/experiments/knapen_aot/videos/S_ILSVRC2015_train_00569002.mp4	0.0	115.50244998931885	0.0999898910522461
19	56.689862966537476	fix_pre	0		74.0	17.0	2.5	/experiments/knapen_aot/videos/S_yt-y2RUPYKfBZs_12.mp4	0.0	115.6024398803711	0.6166679859161377
19	57.29841494560242	response	0	2		17.0	2.5	/experiments/knapen_aot/videos/S_yt-y2RUPYKfBZs_12.mp4	0.0	116.21099185943604	
19	57.30653095245361	movie	1		301.0	17.0	2.5	/experiments/knapen_aot/videos/S_yt-y2RUPYKfBZs_12.mp4	0.0	116.21910786628723	2.5083611011505127
19	59.814892053604126	fix_post	2		12.0	17.0	2.5	/experiments/knapen_aot/videos/S_yt-y2RUPYKfBZs_12.mp4	0.0	118.72746896743774	0.10003089904785156
20	59.91492295265198	fix_pre	0		82.0	18.0	2.5	/experiments/knapen_aot/videos/R_S_yt-QqSceHxY3d0_356.mp4	0.0	118.8274998664856	0.6832342147827148
20	60.59000015258789	response	0	2		18.0	2.5	/experiments/knapen_aot/videos/R_S_yt-QqSceHxY3d0_356.mp4	0.0	119.50257706642151	
20	60.59815716743469	movie	1		301.0	18.0	2.5	/experiments/knapen_aot/videos/R_S_yt-QqSceHxY3d0_356.mp4	0.0	119.51073408126831	2.508469820022583
20	63.106626987457275	fix_post	2		12.0	18.0	2.5	/experiments/knapen_aot/videos/R_S_yt-QqSceHxY3d0_356.mp4	0.0	122.0192039012909	0.09993600845336914
21	63.206562995910645	fix_pre	0		59.0	19.0	2.5	blank	1.0	122.11913990974426	0.4916400909423828
21	63.68998193740845	response	0	2		19.0	2.5	blank	1.0	122.60255885124207	
21	63.69820308685303	movie	1		301.0	19.0	2.5	blank	1.0	122.61078000068665	2.5084738731384277
21	66.20667695999146	fix_post	2		12.0	19.0	2.5	blank	1.0	125.11925387382507	0.09984898567199707
22	66.30652594566345	fix_pre	0		65.0	20.0	2.5	/experiments/knapen_aot/videos/R_S_wc-rs31_SV1Opy__6.mp4	0.0	125.21910285949707	0.5416522026062012
22	66.84007000923157	response	0	2		20.0	2.5	/experiments/knapen_aot/videos/R_S_wc-rs31_SV1Opy__6.mp4	0.0	125.75264692306519	
22	66.84817814826965	movie	1		161.0	20.0	2.5	/experiments/knapen_aot/videos/R_S_wc-rs31_SV1Opy__6.mp4	0.0	125.76075506210327	2.5082929134368896
22	69.35647106170654	fix_post	2		12.0	20.0	2.5	/experiments/knapen_aot/videos/R_S_wc-rs31_SV1Opy__6.mp4	0.0	128.26904797554016	0.10003304481506348
23	69.4565041065216	fix_pre	0		85.0	21.0	2.5	/experiments/knapen_aot/videos/R_S_yt-rafmq6Ydoc8_15.mp4	0.0	128.36908102035522	0.7087979316711426
23	70.15664410591125	response	0	2		21.0	2.5	/experiments/knapen_aot/videos/R_S_yt-rafmq6Ydoc8_15.mp4	0.0	129.06922101974487	
23	70.16530203819275	movie	1		301.0	21.0	2.5	/experiments/knapen_aot/videos/R_S_yt-rafmq6Ydoc8_15.mp4	0.0	129.07787895202637	2.5078608989715576
23	72.6731629371643	fix_post	2		12.0	21.0	2.5	/experiments/knapen_aot/videos/R_S_yt-rafmq6Ydoc8_15.mp4	0.0	131.58573985099792	0.09999513626098633
24	72.7731580734253	fix_pre	0		58.0	22.0	2.5	/experiments/knapen_aot/videos/R_S_yt-l6WPyKg_3is_154.mp4	0.0	131.6857349872589	0.4832789897918701
24	73.24829316139221	response	0	2		22.0	2.5	/experiments/knapen_aot/videos/R_S_yt-l6WPyKg_3is_154.mp4	0.0	132.16087007522583	
24	73.25643706321716	movie	1		301.0	22.0	2.5	/experiments/knapen_aot/videos/R_S_yt-l6WPyKg_3is_154.mp4	0.0	132.16901397705078	2.5083630084991455
24	75.76480007171631	fix_post	2		12.0	22.0	2.5	/experiments/knapen_aot/videos/R_S_yt-l6WPyKg_3is_154.mp4	0.0	134.67737698554993	0.09992599487304688
25	75.86472606658936	fix_pre	0		66.0	23.0	2.5	/experiments/knapen_aot/videos/R_S_production_ID_4325509.mp4	0.0	134.77730298042297	0.5504899024963379
25	76.40663409233093	response	0	2		23.0	2.5	/experiments/knapen_aot/videos/R_S_production_ID_4325509.mp4	0.0	135.31921100616455	
25	76.4152159690857	movie	1		208.0	23.0	2.5	/experiments/knapen_aot/videos/R_S_production_ID_4325509.mp4	0.0	135.3277928829193	2.507920026779175
25	78.92313599586487	fix_post	2		12.0	23.0	2.5	/experiments/knapen_aot/videos/R_S_production_ID_4325509.mp4	0.0	137.8357129096985	0.0999610424041748
26	79.02309703826904	fix_pre	0		69.0	24.0	2.5	/experiments/knapen_aot/videos/R_S_yt-kawmL3oVw8c_2.mp4	0.0	137.93567395210266	0.5749650001525879
26	79.589928150177	response	0	2		24.0	2.5	/experiments/knapen_aot/videos/R_S_yt-kawmL3oVw8c_2.mp4	0.0	138.50250506401062	
26	79.59806203842163	movie	1		301.0	24.0	2.5	/experiments/knapen_aot/videos/R_S_yt-kawmL3oVw8c_2.mp4	0.0	138.51063895225525	2.5084121227264404
26	82.10647416114807	fix_post	2		12.0	24.0	2.5	/experiments/knapen_aot/videos/R_S_yt-kawmL3oVw8c_2.mp4	0.0	141.0190510749817	0.0999000072479248
27	82.206374168396	fix_pre	0		82.0	25.0	2.5	/experiments/knapen_aot/videos/R_S_yt-ja8Pmpik_ao_112.mp4	0.0	141.11895108222961	0.6833388805389404
27	82.88155913352966	response	0	2		25.0	2.5	/experiments/knapen_aot/videos/R_S_yt-ja8Pmpik_ao_112.mp4	0.0	141.79413604736328	
27	82.88971304893494	movie	1		301.0	25.0	2.5	/experiments/knapen_aot/videos/R_S_yt-ja8Pmpik_ao_112.mp4	0.0	141.80228996276855	2.508397102355957
27	85.3981101512909	fix_post	2		12.0	25.0	2.5	/experiments/knapen_aot/videos/R_S_yt-ja8Pmpik_ao_112.mp4	0.0	144.3106870651245	0.10000801086425781
28	85.49811816215515	fix_pre	0		76.0	26.0	2.5	/experiments/knapen_aot/videos/R_S_yt-3eQHOLBzOqA_100.mp4	0.0	144.41069507598877	0.6333348751068115
28	86.12326502799988	response	0	2		26.0	2.5	/experiments/knapen_aot/videos/R_S_yt-3eQHOLBzOqA_100.mp4	0.0	145.0358419418335	
28	86.13145303726196	movie	1		301.0	26.0	2.5	/experiments/knapen_aot/videos/R_S_yt-3eQHOLBzOqA_100.mp4	0.0	145.04402995109558	2.508289098739624
28	88.63974213600159	fix_post	2		12.0	26.0	2.5	/experiments/knapen_aot/videos/R_S_yt-3eQHOLBzOqA_100.mp4	0.0	147.5523190498352	0.10001301765441895
29	88.739755153656	fix_pre	0		73.0	27.0	2.5	blank	1.0	147.65233206748962	0.6082038879394531
29	89.33985805511475	response	0	2		27.0	2.5	blank	1.0	148.25243496894836	
29	89.34795904159546	movie	1		301.0	27.0	2.5	blank	1.0	148.26053595542908	2.508431911468506
29	91.85639095306396	fix_post	2		12.0	27.0	2.5	blank	1.0	150.76896786689758	0.10001611709594727
30	91.95640707015991	fix_pre	0		51.0	28.0	2.5	/experiments/knapen_aot/videos/S_yt-zKnjBBYWe90_369.mp4	0.0	150.86898398399353	0.4250049591064453
30	92.37308597564697	response	0	2		28.0	2.5	/experiments/knapen_aot/videos/S_yt-zKnjBBYWe90_369.mp4	0.0	151.2856628894806	
30	92.38141202926636	movie	1		301.0	28.0	2.5	/experiments/knapen_aot/videos/S_yt-zKnjBBYWe90_369.mp4	0.0	151.29398894309998	2.5083091259002686
30	94.88972115516663	fix_post	2		12.0	28.0	2.5	/experiments/knapen_aot/videos/S_yt-zKnjBBYWe90_369.mp4	0.0	153.80229806900024	0.10008978843688965
31	94.98981094360352	fix_pre	0		67.0	29.0	2.5	/experiments/knapen_aot/videos/R_S_yt-Fdv-V--QlR0_117.mp4	0.0	153.90238785743713	0.5582060813903809
31	95.53980898857117	response	0	2		29.0	2.5	/experiments/knapen_aot/videos/R_S_yt-Fdv-V--QlR0_117.mp4	0.0	154.45238590240479	
31	95.5480170249939	movie	1		301.0	29.0	2.5	/experiments/knapen_aot/videos/R_S_yt-Fdv-V--QlR0_117.mp4	0.0	154.46059393882751	2.5083539485931396
31	98.05637097358704	fix_post	2		12.0	29.0	2.5	/experiments/knapen_aot/videos/R_S_yt-Fdv-V--QlR0_117.mp4	0.0	156.96894788742065	0.0999901294708252
32	98.15636110305786	fix_pre	0		81.0	30.0	2.5	/experiments/knapen_aot/videos/S_yt-H2ce6U0SbVA_542.mp4	0.0	157.06893801689148	0.675299882888794
32	98.82320308685303	response	0	2		30.0	2.5	/experiments/knapen_aot/videos/S_yt-H2ce6U0SbVA_542.mp4	0.0	157.73578000068665	
32	98.83166098594666	movie	1		301.0	30.0	2.5	/experiments/knapen_aot/videos/S_yt-H2ce6U0SbVA_542.mp4	0.0	157.74423789978027	2.508028030395508
32	101.33968901634216	fix_post	2		12.0	30.0	2.5	/experiments/knapen_aot/videos/S_yt-H2ce6U0SbVA_542.mp4	0.0	160.25226593017578	0.1001131534576416
33	101.4398021697998	fix_pre	0		81.0	31.0	2.5	/experiments/knapen_aot/videos/R_S_ILSVRC2015_train_00569002.mp4	0.0	160.35237908363342	0.6748828887939453
33	102.09903311729431	response	0	2		31.0	2.5	/experiments/knapen_aot/videos/R_S_ILSVRC2015_train_00569002.mp4	0.0	161.01161003112793	
33	102.11468505859375	movie	1		301.0	31.0	2.5	/experiments/knapen_aot/videos/R_S_ILSVRC2015_train_00569002.mp4	0.0	161.02726197242737	2.5083301067352295
33	104.62301516532898	fix_post	2		12.0	31.0	2.5	/experiments/knapen_aot/videos/R_S_ILSVRC2015_train_00569002.mp4	0.0	163.5355920791626	0.09991693496704102
34	104.72293210029602	fix_pre	0		74.0	32.0	2.5	/experiments/knapen_aot/videos/R_S_ILSVRC2015_test_00012005.mp4	0.0	163.63550901412964	0.6167359352111816
34	105.33143496513367	response	0	2		32.0	2.5	/experiments/knapen_aot/videos/R_S_ILSVRC2015_test_00012005.mp4	0.0	164.24401187896729	
34	105.3396680355072	movie	1		301.0	32.0	2.5	/experiments/knapen_aot/videos/R_S_ILSVRC2015_test_00012005.mp4	0.0	164.25224494934082	2.508281946182251
34	107.84794998168945	fix_post	2		12.0	32.0	2.5	/experiments/knapen_aot/videos/R_S_ILSVRC2015_test_00012005.mp4	0.0	166.76052689552307	0.10011506080627441
35	107.94806504249573	fix_pre	0		101.0	33.0	2.5	/experiments/knapen_aot/videos/R_S_yt-tneuR3EtSZE_72.mp4	0.0	166.86064195632935	0.8418169021606445
35	108.7814531326294	response	0	2		33.0	2.5	/experiments/knapen_aot/videos/R_S_yt-tneuR3EtSZE_72.mp4	0.0	167.694030046463	
35	108.78988194465637	movie	1		301.0	33.0	2.5	/experiments/knapen_aot/videos/R_S_yt-tneuR3EtSZE_72.mp4	0.0	167.70245885849	2.5080010890960693
35	111.29788303375244	fix_post	2		12.0	33.0	2.5	/experiments/knapen_aot/videos/R_S_yt-tneuR3EtSZE_72.mp4	0.0	170.21045994758606	0.10003399848937988
36	111.39791703224182	fix_pre	0		71.0	34.0	2.5	blank	1.0	170.31049394607544	0.5916860103607178
36	111.98140716552734	response	0	2		34.0	2.5	blank	1.0	170.89398407936096	
36	111.98960304260254	movie	1		301.0	34.0	2.5	blank	1.0	170.90217995643616	2.5083110332489014
36	114.49791407585144	fix_post	2		12.0	34.0	2.5	blank	1.0	173.41049098968506	0.1000370979309082
37	114.59795117378235	fix_pre	0		65.0	35.0	2.5	/experiments/knapen_aot/videos/R_S_yt-146gReE6xKw_379.mp4	0.0	173.51052808761597	0.541644811630249
37	115.13137602806091	response	0	2		35.0	2.5	/experiments/knapen_aot/videos/R_S_yt-146gReE6xKw_379.mp4	0.0	174.04395294189453	
37	115.1395959854126	movie	1		298.0	35.0	2.5	/experiments/knapen_aot/videos/R_S_yt-146gReE6xKw_379.mp4	0.0	174.05217289924622	2.5084800720214844
37	117.64807605743408	fix_post	2		12.0	35.0	2.5	/experiments/knapen_aot/videos/R_S_yt-146gReE6xKw_379.mp4	0.0	176.5606529712677	0.10013699531555176
38	117.74821305274963	fix_pre	0		81.0	36.0	2.5	/experiments/knapen_aot/videos/S_ILSVRC2015_train_00404000.mp4	0.0	176.66078996658325	0.6746399402618408
38	118.41475701332092	response	0	2		36.0	2.5	/experiments/knapen_aot/videos/S_ILSVRC2015_train_00404000.mp4	0.0	177.32733392715454	
38	118.42285299301147	movie	1		301.0	36.0	2.5	/experiments/knapen_aot/videos/S_ILSVRC2015_train_00404000.mp4	0.0	177.3354299068451	2.508524179458618
38	120.93137717247009	fix_post	2		12.0	36.0	2.5	/experiments/knapen_aot/videos/S_ILSVRC2015_train_00404000.mp4	0.0	179.8439540863037	0.09992194175720215
39	121.0312991142273	fix_pre	0		75.0	37.0	2.5	/experiments/knapen_aot/videos/R_S_yt-ieA3XwoSko4_98.mp4	0.0	179.9438760280609	0.6249539852142334
39	121.64804601669312	response	0	2		37.0	2.5	/experiments/knapen_aot/videos/R_S_yt-ieA3XwoSko4_98.mp4	0.0	180.56062293052673	
39	121.65625309944153	movie	1		301.0	37.0	2.5	/experiments/knapen_aot/videos/R_S_yt-ieA3XwoSko4_98.mp4	0.0	180.56883001327515	2.508575916290283
39	124.16482901573181	fix_post	2		12.0	37.0	2.5	/experiments/knapen_aot/videos/R_S_yt-ieA3XwoSko4_98.mp4	0.0	183.07740592956543	0.0997929573059082
40	124.26462197303772	fix_pre	0		72.0	38.0	2.5	/experiments/knapen_aot/videos/S_yt-AbJBxqEYoMg_105.mp4	0.0	183.17719888687134	0.5999650955200195
40	124.85638809204102	response	0	2		38.0	2.5	/experiments/knapen_aot/videos/S_yt-AbJBxqEYoMg_105.mp4	0.0	183.76896500587463	
40	124.86458706855774	movie	1		301.0	38.0	2.5	/experiments/knapen_aot/videos/S_yt-AbJBxqEYoMg_105.mp4	0.0	183.77716398239136	2.5085039138793945
40	127.37309098243713	fix_post	2		12.0	38.0	2.5	/experiments/knapen_aot/videos/S_yt-AbJBxqEYoMg_105.mp4	0.0	186.28566789627075	0.09978818893432617
41	127.47287917137146	fix_pre	0		72.0	39.0	2.5	/experiments/knapen_aot/videos/R_S_comp_CH_C007_C011_PSNK_v02_SDR_PS_FINAL_20180709_SDR_2K_AVC.mp4	0.0	186.38545608520508	0.6000018119812012
41	128.0646960735321	response	0	2		39.0	2.5	/experiments/knapen_aot/videos/R_S_comp_CH_C007_C011_PSNK_v02_SDR_PS_FINAL_20180709_SDR_2K_AVC.mp4	0.0	186.97727298736572	
41	128.07288098335266	movie	1		171.0	39.0	2.5	/experiments/knapen_aot/videos/R_S_comp_CH_C007_C011_PSNK_v02_SDR_PS_FINAL_20180709_SDR_2K_AVC.mp4	0.0	186.98545789718628	2.508578062057495
41	130.58145904541016	fix_post	2		12.0	39.0	2.5	/experiments/knapen_aot/videos/R_S_comp_CH_C007_C011_PSNK_v02_SDR_PS_FINAL_20180709_SDR_2K_AVC.mp4	0.0	189.49403595924377	0.09977006912231445
42	130.68122911453247	fix_pre	0		61.0	40.0	2.5	/experiments/knapen_aot/videos/R_S_yt-bH4nJibL4Jo_164.mp4	0.0	189.5938060283661	0.5083169937133789
42	131.1813681125641	response	0	2		40.0	2.5	/experiments/knapen_aot/videos/R_S_yt-bH4nJibL4Jo_164.mp4	0.0	190.0939450263977	
42	131.18954610824585	movie	1		301.0	40.0	2.5	/experiments/knapen_aot/videos/R_S_yt-bH4nJibL4Jo_164.mp4	0.0	190.10212302207947	2.5083260536193848
42	133.69787216186523	fix_post	2		12.0	40.0	2.5	/experiments/knapen_aot/videos/R_S_yt-bH4nJibL4Jo_164.mp4	0.0	192.61044907569885	0.09998083114624023
43	133.79785299301147	fix_pre	0		95.0	41.0	2.5	blank	1.0	192.7104299068451	0.7916440963745117
43	134.58122611045837	response	0	2		41.0	2.5	blank	1.0	193.493803024292	
43	134.589497089386	movie	1		301.0	41.0	2.5	blank	1.0	193.5020740032196	2.508293867111206
43	137.0977909564972	fix_post	2		12.0	41.0	2.5	blank	1.0	196.0103678703308	0.10000014305114746
44	137.19779109954834	fix_pre	0		65.0	42.0	2.5	/experiments/knapen_aot/videos/R_S_comp_GMT329_117NC_401C_1037_IRELAND_TO_ASIA_v48_SDR_PS_FINAL_20180725_F0F6300_SDR_2K_AVC.mp4	0.0	196.11036801338196	0.5417098999023438
44	137.73120307922363	response	0	2		42.0	2.5	/experiments/knapen_aot/videos/R_S_comp_GMT329_117NC_401C_1037_IRELAND_TO_ASIA_v48_SDR_PS_FINAL_20180725_F0F6300_SDR_2K_AVC.mp4	0.0	196.64377999305725	
44	137.73950099945068	movie	1		163.0	42.0	2.5	/experiments/knapen_aot/videos/R_S_comp_GMT329_117NC_401C_1037_IRELAND_TO_ASIA_v48_SDR_PS_FINAL_20180725_F0F6300_SDR_2K_AVC.mp4	0.0	196.6520779132843	2.508481979370117
44	140.2479829788208	fix_post	2		12.0	42.0	2.5	/experiments/knapen_aot/videos/R_S_comp_GMT329_117NC_401C_1037_IRELAND_TO_ASIA_v48_SDR_PS_FINAL_20180725_F0F6300_SDR_2K_AVC.mp4	0.0	199.16055989265442	0.09984016418457031
45	140.34782314300537	fix_pre	0		64.0	43.0	2.5	/experiments/knapen_aot/videos/R_S_yt-CINajD_PVjQ_494.mp4	0.0	199.260400056839	0.533257007598877
45	140.87294816970825	response	0	2		43.0	2.5	/experiments/knapen_aot/videos/R_S_yt-CINajD_PVjQ_494.mp4	0.0	199.78552508354187	
45	140.88108015060425	movie	1		301.0	43.0	2.5	/experiments/knapen_aot/videos/R_S_yt-CINajD_PVjQ_494.mp4	0.0	199.79365706443787	2.5084710121154785
45	143.38955116271973	fix_post	2		12.0	43.0	2.5	/experiments/knapen_aot/videos/R_S_yt-CINajD_PVjQ_494.mp4	0.0	202.30212807655334	0.09994983673095703
46	143.48950099945068	fix_pre	0		70.0	44.0	2.5	/experiments/knapen_aot/videos/R_S_yt-22c5eZ1UNME_76.mp4	0.0	202.4020779132843	0.5833041667938232
46	144.06462717056274	response	0	2		44.0	2.5	/experiments/knapen_aot/videos/R_S_yt-22c5eZ1UNME_76.mp4	0.0	202.97720408439636	
46	144.0728051662445	movie	1		301.0	44.0	2.5	/experiments/knapen_aot/videos/R_S_yt-22c5eZ1UNME_76.mp4	0.0	202.98538208007812	2.5083959102630615
46	146.58120107650757	fix_post	2		12.0	44.0	2.5	/experiments/knapen_aot/videos/R_S_yt-22c5eZ1UNME_76.mp4	0.0	205.4937779903412	0.10002803802490234
47	146.68122911453247	fix_pre	0		63.0	45.0	2.5	/experiments/knapen_aot/videos/R_S_production_ID_4802710.mp4	0.0	205.5938060283661	0.5249748229980469
47	147.19076013565063	response	0	2		45.0	2.5	/experiments/knapen_aot/videos/R_S_production_ID_4802710.mp4	0.0	206.10333704948425	
47	147.20620393753052	movie	1		165.0	45.0	2.5	/experiments/knapen_aot/videos/R_S_production_ID_4802710.mp4	0.0	206.11878085136414	2.5081751346588135
47	149.71437907218933	fix_post	2		12.0	45.0	2.5	/experiments/knapen_aot/videos/R_S_production_ID_4802710.mp4	0.0	208.62695598602295	0.10004186630249023
48	149.81442093849182	fix_pre	0		67.0	46.0	2.5	/experiments/knapen_aot/videos/S_production_ID_3943965.mp4	0.0	208.72699785232544	0.5600740909576416
48	150.3569791316986	response	0	2		46.0	2.5	/experiments/knapen_aot/videos/S_production_ID_3943965.mp4	0.0	209.26955604553223	
48	150.37449502944946	movie	1		203.0	46.0	2.5	/experiments/knapen_aot/videos/S_production_ID_3943965.mp4	0.0	209.28707194328308	2.5066440105438232
48	152.8811390399933	fix_post	2		12.0	46.0	2.5	/experiments/knapen_aot/videos/S_production_ID_3943965.mp4	0.0	211.7937159538269	0.10009598731994629
49	152.98123502731323	fix_pre	0		69.0	47.0	2.5	/experiments/knapen_aot/videos/R_S_yt-Fdv-V--QlR0_117.mp4	0.0	211.89381194114685	0.5748519897460938
49	153.54785704612732	response	0	2		47.0	2.5	/experiments/knapen_aot/videos/R_S_yt-Fdv-V--QlR0_117.mp4	0.0	212.46043395996094	
49	153.55608701705933	movie	1		301.0	47.0	2.5	/experiments/knapen_aot/videos/R_S_yt-Fdv-V--QlR0_117.mp4	0.0	212.46866393089294	2.508336067199707
49	156.06442308425903	fix_post	2		12.0	47.0	2.5	/experiments/knapen_aot/videos/R_S_yt-Fdv-V--QlR0_117.mp4	0.0	214.97699999809265	0.10000801086425781
50	156.1644310951233	fix_pre	0		81.0	48.0	2.5	blank	1.0	215.0770080089569	0.6749839782714844
50	156.83119201660156	response	0	2		48.0	2.5	blank	1.0	215.74376893043518	
50	156.83941507339478	movie	1		301.0	48.0	2.5	blank	1.0	215.7519919872284	2.5082900524139404
50	159.34770512580872	fix_post	2		12.0	48.0	2.5	blank	1.0	218.26028203964233	0.1000509262084961
51	159.4477560520172	fix_pre	0		60.0	49.0	2.5	/experiments/knapen_aot/videos/S_Pexels_Videos_2786546.mp4	0.0	218.36033296585083	0.4999220371246338
51	159.9395251274109	response	0	2		49.0	2.5	/experiments/knapen_aot/videos/S_Pexels_Videos_2786546.mp4	0.0	218.8521020412445	
51	159.94767808914185	movie	1		164.0	49.0	2.5	/experiments/knapen_aot/videos/S_Pexels_Videos_2786546.mp4	0.0	218.86025500297546	2.508380889892578
51	162.45605897903442	fix_post	2		12.0	49.0	2.5	/experiments/knapen_aot/videos/S_Pexels_Videos_2786546.mp4	0.0	221.36863589286804	0.0999910831451416
52	162.55605006217957	fix_pre	0		82.0	50.0	2.5	/experiments/knapen_aot/videos/R_S_yt-yJmHtBFyhH4_15.mp4	0.0	221.46862697601318	0.6832520961761475
52	163.22371006011963	response	0	2		50.0	2.5	/experiments/knapen_aot/videos/R_S_yt-yJmHtBFyhH4_15.mp4	0.0	222.13628697395325	
52	163.2393021583557	movie	1		301.0	50.0	2.5	/experiments/knapen_aot/videos/R_S_yt-yJmHtBFyhH4_15.mp4	0.0	222.15187907218933	2.508401870727539
52	165.74770402908325	fix_post	2		12.0	50.0	2.5	/experiments/knapen_aot/videos/R_S_yt-yJmHtBFyhH4_15.mp4	0.0	224.66028094291687	0.0999751091003418
53	165.8476791381836	fix_pre	0		77.0	51.0	2.5	/experiments/knapen_aot/videos/R_S_ILSVRC2015_train_00568000.mp4	0.0	224.7602560520172	0.641624927520752
53	166.48116517066956	response	0	2		51.0	2.5	/experiments/knapen_aot/videos/R_S_ILSVRC2015_train_00568000.mp4	0.0	225.39374208450317	
53	166.48930406570435	movie	1		301.0	51.0	2.5	/experiments/knapen_aot/videos/R_S_ILSVRC2015_train_00568000.mp4	0.0	225.40188097953796	2.5084240436553955
53	168.99772810935974	fix_post	2		12.0	51.0	2.5	/experiments/knapen_aot/videos/R_S_ILSVRC2015_train_00568000.mp4	0.0	227.91030502319336	0.09998893737792969
54	169.09771704673767	fix_pre	0		68.0	52.0	2.5	/experiments/knapen_aot/videos/S_yt-31WwM4UgsVI_322.mp4	0.0	228.0102939605713	0.5665719509124756
54	169.65605807304382	response	0	2		52.0	2.5	/experiments/knapen_aot/videos/S_yt-31WwM4UgsVI_322.mp4	0.0	228.56863498687744	
54	169.66428899765015	movie	1		301.0	52.0	2.5	/experiments/knapen_aot/videos/S_yt-31WwM4UgsVI_322.mp4	0.0	228.57686591148376	2.5083961486816406
54	172.1726851463318	fix_post	2		12.0	52.0	2.5	/experiments/knapen_aot/videos/S_yt-31WwM4UgsVI_322.mp4	0.0	231.0852620601654	0.09993100166320801
55	172.272616147995	fix_pre	0		90.0	53.0	2.5	/experiments/knapen_aot/videos/R_S_yt-9NV8zv2Sdq4_30.mp4	0.0	231.1851930618286	0.7500100135803223
55	173.01446413993835	response	0	2		53.0	2.5	/experiments/knapen_aot/videos/R_S_yt-9NV8zv2Sdq4_30.mp4	0.0	231.92704105377197	
55	173.02262616157532	movie	1		301.0	53.0	2.5	/experiments/knapen_aot/videos/R_S_yt-9NV8zv2Sdq4_30.mp4	0.0	231.93520307540894	2.508370876312256
55	175.53099703788757	fix_post	2		12.0	53.0	2.5	/experiments/knapen_aot/videos/R_S_yt-9NV8zv2Sdq4_30.mp4	0.0	234.4435739517212	0.10013103485107422
56	175.63112807273865	fix_pre	0		58.0	54.0	2.5	/experiments/knapen_aot/videos/R_S_ILSVRC2015_train_00682009.mp4	0.0	234.54370498657227	0.4831700325012207
56	176.09853315353394	response	0	2		54.0	2.5	/experiments/knapen_aot/videos/R_S_ILSVRC2015_train_00682009.mp4	0.0	235.01111006736755	
56	176.11429810523987	movie	1		301.0	54.0	2.5	/experiments/knapen_aot/videos/R_S_ILSVRC2015_train_00682009.mp4	0.0	235.0268750190735	2.508328914642334
56	178.6226270198822	fix_post	2		12.0	54.0	2.5	/experiments/knapen_aot/videos/R_S_ILSVRC2015_train_00682009.mp4	0.0	237.53520393371582	0.1000509262084961
57	178.7226779460907	fix_pre	0		90.0	55.0	2.5	blank	1.0	237.63525485992432	0.7499561309814453
57	179.4644491672516	response	0	2		55.0	2.5	blank	1.0	238.3770260810852	
57	179.47263407707214	movie	1		301.0	55.0	2.5	blank	1.0	238.38521099090576	2.5085060596466064
57	181.98114013671875	fix_post	2		12.0	55.0	2.5	blank	1.0	240.89371705055237	0.10005593299865723
58	182.0811960697174	fix_pre	0		57.0	56.0	2.5	/experiments/knapen_aot/videos/S_yt-YyKEeu2gLrI_158.mp4	0.0	240.99377298355103	0.47472405433654785
58	182.54777097702026	response	0	2		56.0	2.5	/experiments/knapen_aot/videos/S_yt-YyKEeu2gLrI_158.mp4	0.0	241.46034789085388	
58	182.55592012405396	movie	1		301.0	56.0	2.5	/experiments/knapen_aot/videos/S_yt-YyKEeu2gLrI_158.mp4	0.0	241.46849703788757	2.5083119869232178
58	185.06423211097717	fix_post	2		12.0	56.0	2.5	/experiments/knapen_aot/videos/S_yt-YyKEeu2gLrI_158.mp4	0.0	243.9768090248108	0.10009884834289551
59	185.16433095932007	fix_pre	0		60.0	57.0	2.5	/experiments/knapen_aot/videos/S_yt-Q4edV5qiqu0_578.mp4	0.0	244.0769078731537	0.4998891353607178
59	185.65607905387878	response	0	2		57.0	2.5	/experiments/knapen_aot/videos/S_yt-Q4edV5qiqu0_578.mp4	0.0	244.5686559677124	
59	185.6642200946808	movie	1		301.0	57.0	2.5	/experiments/knapen_aot/videos/S_yt-Q4edV5qiqu0_578.mp4	0.0	244.5767970085144	2.5083770751953125
59	188.1725971698761	fix_post	2		12.0	57.0	2.5	/experiments/knapen_aot/videos/S_yt-Q4edV5qiqu0_578.mp4	0.0	247.08517408370972	0.09994792938232422
60	188.27254509925842	fix_pre	0		100.0	58.0	2.5	/experiments/knapen_aot/videos/R_S_yt-YFl_NAWBFAw_166.mp4	0.0	247.18512201309204	0.8333289623260498
60	189.0976321697235	response	0	2		58.0	2.5	/experiments/knapen_aot/videos/R_S_yt-YFl_NAWBFAw_166.mp4	0.0	248.01020908355713	
60	189.10587406158447	movie	1		301.0	58.0	2.5	/experiments/knapen_aot/videos/R_S_yt-YFl_NAWBFAw_166.mp4	0.0	248.0184509754181	2.5083858966827393
60	191.6142599582672	fix_post	2		12.0	58.0	2.5	/experiments/knapen_aot/videos/R_S_yt-YFl_NAWBFAw_166.mp4	0.0	250.52683687210083	0.09994816780090332
61	191.71420812606812	fix_pre	0		79.0	59.0	2.5	/experiments/knapen_aot/videos/R_S_yt-d5jBQ-LOW2I_17.mp4	0.0	250.62678503990173	0.6583449840545654
61	192.3645100593567	response	0	2		59.0	2.5	/experiments/knapen_aot/videos/R_S_yt-d5jBQ-LOW2I_17.mp4	0.0	251.2770869731903	
61	192.37255311012268	movie	1		301.0	59.0	2.5	/experiments/knapen_aot/videos/R_S_yt-d5jBQ-LOW2I_17.mp4	0.0	251.2851300239563	2.508342981338501
61	194.88089609146118	fix_post	2		12.0	59.0	2.5	/experiments/knapen_aot/videos/R_S_yt-d5jBQ-LOW2I_17.mp4	0.0	253.7934730052948	0.09996986389160156
62	194.98086595535278	fix_pre	0		69.0	60.0	2.5	/experiments/knapen_aot/videos/S_ILSVRC2015_train_00568000.mp4	0.0	253.8934428691864	0.5750851631164551
62	195.54762196540833	response	0	2		60.0	2.5	/experiments/knapen_aot/videos/S_ILSVRC2015_train_00568000.mp4	0.0	254.46019887924194	
62	195.55595111846924	movie	1		301.0	60.0	2.5	/experiments/knapen_aot/videos/S_ILSVRC2015_train_00568000.mp4	0.0	254.46852803230286	2.5082809925079346
62	198.06423211097717	fix_post	2		12.0	60.0	2.5	/experiments/knapen_aot/videos/S_ILSVRC2015_train_00568000.mp4	0.0	256.9768090248108	0.10001301765441895
63	198.1642451286316	fix_pre	0		77.0	61.0	2.5	blank	1.0	257.0768220424652	0.641657829284668
63	198.79765701293945	response	0	2		61.0	2.5	blank	1.0	257.71023392677307	
63	198.80590295791626	movie	1		301.0	61.0	2.5	blank	1.0	257.7184798717499	2.5084290504455566
63	201.31433200836182	fix_post	2		12.0	61.0	2.5	blank	1.0	260.22690892219543	0.09996700286865234
64	201.41429901123047	fix_pre	0		52.0	62.0	2.5	/experiments/knapen_aot/videos/R_S_yt-31WwM4UgsVI_322.mp4	0.0	260.3268759250641	0.4332430362701416
64	201.83927297592163	response	0	2		62.0	2.5	/experiments/knapen_aot/videos/R_S_yt-31WwM4UgsVI_322.mp4	0.0	260.75184988975525	
64	201.8475420475006	movie	1		301.0	62.0	2.5	/experiments/knapen_aot/videos/R_S_yt-31WwM4UgsVI_322.mp4	0.0	260.76011896133423	2.508291006088257
64	204.35583305358887	fix_post	2		12.0	62.0	2.5	/experiments/knapen_aot/videos/R_S_yt-31WwM4UgsVI_322.mp4	0.0	263.2684099674225	0.10000896453857422
65	204.45584201812744	fix_pre	0		87.0	63.0	2.5	/experiments/knapen_aot/videos/S_yt-22c5eZ1UNME_76.mp4	0.0	263.36841893196106	0.7249741554260254
65	205.17267107963562	response	0	2		63.0	2.5	/experiments/knapen_aot/videos/S_yt-22c5eZ1UNME_76.mp4	0.0	264.08524799346924	
65	205.18081617355347	movie	1		301.0	63.0	2.5	/experiments/knapen_aot/videos/S_yt-22c5eZ1UNME_76.mp4	0.0	264.0933930873871	2.508356809616089
65	207.68917298316956	fix_post	2		12.0	63.0	2.5	/experiments/knapen_aot/videos/S_yt-22c5eZ1UNME_76.mp4	0.0	266.6017498970032	0.10000395774841309
66	207.78917694091797	fix_pre	0		50.0	64.0	2.5	/experiments/knapen_aot/videos/S_yt-4r-oovk9JWg_85.mp4	0.0	266.7017538547516	0.41658902168273926
66	208.1976101398468	response	0	2		64.0	2.5	/experiments/knapen_aot/videos/S_yt-4r-oovk9JWg_85.mp4	0.0	267.1101870536804	
66	208.2057659626007	movie	1		301.0	64.0	2.5	/experiments/knapen_aot/videos/S_yt-4r-oovk9JWg_85.mp4	0.0	267.1183428764343	2.508397102355957
66	210.71416306495667	fix_post	2		12.0	64.0	2.5	/experiments/knapen_aot/videos/S_yt-4r-oovk9JWg_85.mp4	0.0	269.6267399787903	0.09998297691345215
67	210.81414604187012	fix_pre	0		67.0	65.0	2.5	/experiments/knapen_aot/videos/S_ILSVRC2015_test_00012005.mp4	0.0	269.72672295570374	0.5583369731903076
67	211.3642909526825	response	0	2		65.0	2.5	/experiments/knapen_aot/videos/S_ILSVRC2015_test_00012005.mp4	0.0	270.2768678665161	
67	211.37248301506042	movie	1		301.0	65.0	2.5	/experiments/knapen_aot/videos/S_ILSVRC2015_test_00012005.mp4	0.0	270.28505992889404	2.5083889961242676
67	213.8808720111847	fix_post	2		12.0	65.0	2.5	/experiments/knapen_aot/videos/S_ILSVRC2015_test_00012005.mp4	0.0	272.7934489250183	0.09998893737792969
68	213.98086094856262	fix_pre	0		68.0	66.0	2.5	/experiments/knapen_aot/videos/R_S_production_ID_4325506.mp4	0.0	272.89343786239624	0.5666210651397705
68	214.53929209709167	response	0	2		66.0	2.5	/experiments/knapen_aot/videos/R_S_production_ID_4325506.mp4	0.0	273.4518690109253	
68	214.5474820137024	movie	1		209.0	66.0	2.5	/experiments/knapen_aot/videos/R_S_production_ID_4325506.mp4	0.0	273.460058927536	2.5083420276641846
68	217.05582404136658	fix_post	2		12.0	66.0	2.5	/experiments/knapen_aot/videos/R_S_production_ID_4325506.mp4	0.0	275.9684009552002	0.09995412826538086
69	217.15577816963196	fix_pre	0		68.0	67.0	2.5	/experiments/knapen_aot/videos/S_pexels-ron-lach-8071987.mp4	0.0	276.0683550834656	0.5666477680206299
69	217.71427202224731	response	0	2		67.0	2.5	/experiments/knapen_aot/videos/S_pexels-ron-lach-8071987.mp4	0.0	276.62684893608093	
69	217.7224259376526	movie	1		206.0	67.0	2.5	/experiments/knapen_aot/videos/S_pexels-ron-lach-8071987.mp4	0.0	276.6350028514862	2.508404016494751
69	220.23082995414734	fix_post	2		12.0	67.0	2.5	/experiments/knapen_aot/videos/S_pexels-ron-lach-8071987.mp4	0.0	279.14340686798096	0.09999608993530273
70	220.33082604408264	fix_pre	0		52.0	68.0	2.5	/experiments/knapen_aot/videos/R_S_yt-rIQoRErqnlI_17.mp4	0.0	279.24340295791626	0.43329596519470215
70	220.74835515022278	response	0	2		68.0	2.5	/experiments/knapen_aot/videos/R_S_yt-rIQoRErqnlI_17.mp4	0.0	279.6609320640564	
70	220.76412200927734	movie	1		298.0	68.0	2.5	/experiments/knapen_aot/videos/R_S_yt-rIQoRErqnlI_17.mp4	0.0	279.67669892311096	2.5082931518554688
70	223.2724151611328	fix_post	2		12.0	68.0	2.5	/experiments/knapen_aot/videos/R_S_yt-rIQoRErqnlI_17.mp4	0.0	282.18499207496643	0.10004997253417969
71	223.372465133667	fix_pre	0		60.0	69.0	2.5	/experiments/knapen_aot/videos/S_comp_CH_C007_C011_PSNK_v02_SDR_PS_FINAL_20180709_SDR_2K_AVC.mp4	0.0	282.2850420475006	0.49993300437927246
71	223.85672903060913	response	0	2		69.0	2.5	/experiments/knapen_aot/videos/S_comp_CH_C007_C011_PSNK_v02_SDR_PS_FINAL_20180709_SDR_2K_AVC.mp4	0.0	282.76930594444275	
71	223.87239813804626	movie	1		168.0	69.0	2.5	/experiments/knapen_aot/videos/S_comp_CH_C007_C011_PSNK_v02_SDR_PS_FINAL_20180709_SDR_2K_AVC.mp4	0.0	282.7849750518799	2.5083649158477783
71	226.38076305389404	fix_post	2		12.0	69.0	2.5	/experiments/knapen_aot/videos/S_comp_CH_C007_C011_PSNK_v02_SDR_PS_FINAL_20180709_SDR_2K_AVC.mp4	0.0	285.29333996772766	0.09999489784240723
72	226.48075795173645	fix_pre	0		96.0	70.0	2.5	blank	1.0	285.39333486557007	0.801048994064331
72	227.2724940776825	response	0	2		70.0	2.5	blank	1.0	286.1850709915161	
72	227.28180694580078	movie	1		301.0	70.0	2.5	blank	1.0	286.1943838596344	2.507280111312866
72	229.78908705711365	fix_post	2		12.0	70.0	2.5	blank	1.0	288.70166397094727	0.10008406639099121
73	229.88917112350464	fix_pre	0		84.0	71.0	2.5	/experiments/knapen_aot/videos/S_yt-fIEGqReekCM_10.mp4	0.0	288.80174803733826	0.6998510360717773
73	230.58082914352417	response	0	2		71.0	2.5	/experiments/knapen_aot/videos/S_yt-fIEGqReekCM_10.mp4	0.0	289.4934060573578	
73	230.58902215957642	movie	1		301.0	71.0	2.5	/experiments/knapen_aot/videos/S_yt-fIEGqReekCM_10.mp4	0.0	289.50159907341003	2.5084469318389893
73	233.0974690914154	fix_post	2		12.0	71.0	2.5	/experiments/knapen_aot/videos/S_yt-fIEGqReekCM_10.mp4	0.0	292.010046005249	0.09988689422607422
74	233.19735598564148	fix_pre	0		99.0	72.0	2.5	/experiments/knapen_aot/videos/R_S_yt-nn-8LZcafGs_25.mp4	0.0	292.1099328994751	0.8250319957733154
74	234.00673604011536	response	0	2		72.0	2.5	/experiments/knapen_aot/videos/R_S_yt-nn-8LZcafGs_25.mp4	0.0	292.919312953949	
74	234.0223879814148	movie	1		301.0	72.0	2.5	/experiments/knapen_aot/videos/R_S_yt-nn-8LZcafGs_25.mp4	0.0	292.9349648952484	2.508368968963623
74	236.53075695037842	fix_post	2		12.0	72.0	2.5	/experiments/knapen_aot/videos/R_S_yt-nn-8LZcafGs_25.mp4	0.0	295.44333386421204	0.09998607635498047
75	236.6307430267334	fix_pre	0		82.0	73.0	2.5	/experiments/knapen_aot/videos/R_S_yt-rafmq6Ydoc8_15.mp4	0.0	295.543319940567	0.6832101345062256
75	237.30581498146057	response	0	2		73.0	2.5	/experiments/knapen_aot/videos/R_S_yt-rafmq6Ydoc8_15.mp4	0.0	296.2183918952942	
75	237.31395316123962	movie	1		301.0	73.0	2.5	/experiments/knapen_aot/videos/R_S_yt-rafmq6Ydoc8_15.mp4	0.0	296.22653007507324	2.508417844772339
75	239.82237100601196	fix_post	2		12.0	73.0	2.5	/experiments/knapen_aot/videos/R_S_yt-rafmq6Ydoc8_15.mp4	0.0	298.7349479198456	0.09997105598449707
76	239.92234206199646	fix_pre	0		106.0	74.0	2.5	/experiments/knapen_aot/videos/R_S_comp_CH_C007_C011_PSNK_v02_SDR_PS_FINAL_20180709_SDR_2K_AVC.mp4	0.0	298.8349189758301	0.8833260536193848
76	240.79744911193848	response	0	2		74.0	2.5	/experiments/knapen_aot/videos/R_S_comp_CH_C007_C011_PSNK_v02_SDR_PS_FINAL_20180709_SDR_2K_AVC.mp4	0.0	299.7100260257721	
76	240.80566811561584	movie	1		172.0	74.0	2.5	/experiments/knapen_aot/videos/R_S_comp_CH_C007_C011_PSNK_v02_SDR_PS_FINAL_20180709_SDR_2K_AVC.mp4	0.0	299.71824502944946	2.508328914642334
76	243.31399703025818	fix_post	2		12.0	74.0	2.5	/experiments/knapen_aot/videos/R_S_comp_CH_C007_C011_PSNK_v02_SDR_PS_FINAL_20180709_SDR_2K_AVC.mp4	0.0	302.2265739440918	0.1000521183013916
77	243.41404914855957	fix_pre	0		68.0	75.0	2.5	blank	1.0	302.3266260623932	0.5665559768676758
77	243.97244215011597	response	0	2		75.0	2.5	blank	1.0	302.8850190639496	
77	243.98060512542725	movie	1		301.0	75.0	2.5	blank	1.0	302.89318203926086	2.508352041244507
77	246.48895716667175	fix_post	2		12.0	75.0	2.5	blank	1.0	305.40153408050537	0.09994792938232422
78	246.58890509605408	fix_pre	0		56.0	76.0	2.5	/experiments/knapen_aot/videos/R_S_ILSVRC2015_train_00517000.mp4	0.0	305.5014820098877	0.4666869640350342
78	247.04736304283142	response	0	2		76.0	2.5	/experiments/knapen_aot/videos/R_S_ILSVRC2015_train_00517000.mp4	0.0	305.95993995666504	
78	247.0555920600891	movie	1		301.0	76.0	2.5	/experiments/knapen_aot/videos/R_S_ILSVRC2015_train_00517000.mp4	0.0	305.96816897392273	2.508423089981079
78	249.5640151500702	fix_post	2		12.0	76.0	2.5	/experiments/knapen_aot/videos/R_S_ILSVRC2015_train_00517000.mp4	0.0	308.4765920639038	0.09993791580200195
79	249.6639530658722	fix_pre	0		60.0	77.0	2.5	/experiments/knapen_aot/videos/S_wc-rs31_SV1Opy__6.mp4	0.0	308.5765299797058	0.5000419616699219
79	250.1557559967041	response	0	2		77.0	2.5	/experiments/knapen_aot/videos/S_wc-rs31_SV1Opy__6.mp4	0.0	309.0683329105377	
79	250.16399502754211	movie	1		163.0	77.0	2.5	/experiments/knapen_aot/videos/S_wc-rs31_SV1Opy__6.mp4	0.0	309.07657194137573	2.5082619190216064
79	252.67225694656372	fix_post	2		12.0	77.0	2.5	/experiments/knapen_aot/videos/S_wc-rs31_SV1Opy__6.mp4	0.0	311.58483386039734	0.10013508796691895
80	252.77239203453064	fix_pre	0		76.0	78.0	2.5	/experiments/knapen_aot/videos/S_pexels-polina-tankilevitch-8203088.mp4	0.0	311.68496894836426	0.6342530250549316
80	253.39745497703552	response	0	2		78.0	2.5	/experiments/knapen_aot/videos/S_pexels-polina-tankilevitch-8203088.mp4	0.0	312.31003189086914	
80	253.40664505958557	movie	1		162.0	78.0	2.5	/experiments/knapen_aot/videos/S_pexels-polina-tankilevitch-8203088.mp4	0.0	312.3192219734192	2.507330894470215
80	255.9139759540558	fix_post	2		12.0	78.0	2.5	/experiments/knapen_aot/videos/S_pexels-polina-tankilevitch-8203088.mp4	0.0	314.8265528678894	0.10007619857788086
81	256.01405215263367	fix_pre	0		50.0	79.0	2.5	/experiments/knapen_aot/videos/S_yt-GO26QIueqRw_385.mp4	0.0	314.9266290664673	0.4165229797363281
81	256.4224030971527	response	0	2		79.0	2.5	/experiments/knapen_aot/videos/S_yt-GO26QIueqRw_385.mp4	0.0	315.3349800109863	
81	256.43057513237	movie	1		301.0	79.0	2.5	/experiments/knapen_aot/videos/S_yt-GO26QIueqRw_385.mp4	0.0	315.3431520462036	2.508302927017212
81	258.9388780593872	fix_post	2		12.0	79.0	2.5	/experiments/knapen_aot/videos/S_yt-GO26QIueqRw_385.mp4	0.0	317.8514549732208	0.1000518798828125
82	259.03892993927	fix_pre	0		64.0	80.0	2.5	/experiments/knapen_aot/videos/R_S_yt-X6ivH9SqGu8_306.mp4	0.0	317.95150685310364	0.5342960357666016
82	259.5641360282898	response	0	2		80.0	2.5	/experiments/knapen_aot/videos/R_S_yt-X6ivH9SqGu8_306.mp4	0.0	318.4767129421234	
82	259.5732259750366	movie	1		301.0	80.0	2.5	/experiments/knapen_aot/videos/R_S_yt-X6ivH9SqGu8_306.mp4	0.0	318.48580288887024	2.5073530673980713
82	262.0805790424347	fix_post	2		12.0	80.0	2.5	/experiments/knapen_aot/videos/R_S_yt-X6ivH9SqGu8_306.mp4	0.0	320.9931559562683	0.09991693496704102
83	262.18049597740173	fix_pre	0		34.0	81.0	2.5	/experiments/knapen_aot/videos/S_yt-146gReE6xKw_379.mp4	0.0	321.09307289123535	0.283358097076416
83	262.45554995536804	response	0	2		81.0	2.5	/experiments/knapen_aot/videos/S_yt-146gReE6xKw_379.mp4	0.0	321.36812686920166	
83	262.46385407447815	movie	1		301.0	81.0	2.5	/experiments/knapen_aot/videos/S_yt-146gReE6xKw_379.mp4	0.0	321.37643098831177	2.5083820819854736
83	264.9722361564636	fix_post	2		12.0	81.0	2.5	/experiments/knapen_aot/videos/S_yt-146gReE6xKw_379.mp4	0.0	323.88481307029724	0.09992098808288574
84	265.0721571445465	fix_pre	0		95.0	82.0	2.5	/experiments/knapen_aot/videos/R_S_yt-qxtmtMnUfD0_124.mp4	0.0	323.9847340583801	0.7926080226898193
84	265.8480920791626	response	0	2		82.0	2.5	/experiments/knapen_aot/videos/R_S_yt-qxtmtMnUfD0_124.mp4	0.0	324.7606689929962	
84	265.8647651672363	movie	1		301.0	82.0	2.5	/experiments/knapen_aot/videos/R_S_yt-qxtmtMnUfD0_124.mp4	0.0	324.77734208106995	2.507427930831909
84	268.37219309806824	fix_post	2		12.0	82.0	2.5	/experiments/knapen_aot/videos/R_S_yt-qxtmtMnUfD0_124.mp4	0.0	327.28477001190186	0.10001397132873535
85	268.472207069397	fix_pre	0		72.0	83.0	2.5	blank	1.0	327.3847839832306	0.6009008884429932
85	269.0639100074768	response	0	2		83.0	2.5	blank	1.0	327.9764869213104	
85	269.07310795783997	movie	1		301.0	83.0	2.5	blank	1.0	327.9856848716736	2.507534980773926
85	271.5806429386139	fix_post	2		12.0	83.0	2.5	blank	1.0	330.4932198524475	0.1000521183013916
87	271.6806950569153	stim	0		338.0					330.5932719707489	2.8164169788360596
87	273.20937395095825	response	0	num_enter						332.12195086479187	
87	274.48881006240845	response	0	space						333.40138697624207	
