trial_nr	onset	event_type	phase	response	nr_frames	movie_index	movie_duration	movie_file	blank	onset_abs	duration
0	0.12546992301940918	stim	0		46.0					75.53967785835266	0.3827550411224365
0	0.5001161098480225	response	0	space						75.91432404518127	
1	0.5082249641418457	stim	0		121.0					75.9224328994751	1.0080671310424805
1	1.350126028060913	response	0	space						76.76433396339417	
1	1.5162920951843262	stim	1		120.0					76.93050003051758	0.999985933303833
1	1.6004481315612793	response	1	space						77.01465606689453	
1	1.8087599277496338	response	1	space						77.22296786308289	
1	2.474687099456787	response	1	space						77.88889503479004	
2	2.516278028488159	fix_pre	0		61.0	0.0	2.5	/experiments/knapen_aot/videos/R_S_yt-npaE4fe6A6Y_26.mp4	0.0	77.93048596382141	0.5082969665527344
2	3.008737087249756	response	0	space		0.0	2.5	/experiments/knapen_aot/videos/R_S_yt-npaE4fe6A6Y_26.mp4	0.0	78.42294502258301	
2	3.0245749950408936	movie	1		301.0	0.0	2.5	/experiments/knapen_aot/videos/R_S_yt-npaE4fe6A6Y_26.mp4	0.0	78.43878293037415	2.5083630084991455
2	5.532938003540039	fix_post	2		12.0	0.0	2.5	/experiments/knapen_aot/videos/R_S_yt-npaE4fe6A6Y_26.mp4	0.0	80.94714593887329	0.10006093978881836
3	5.632998943328857	fix_pre	0		189.0	1.0	2.5	/experiments/knapen_aot/videos/S_flickr-claywakening-27928940166_2.mp4	0.0	81.04720687866211	1.5756781101226807
3	7.204911947250366	response	0	2		1.0	2.5	/experiments/knapen_aot/videos/S_flickr-claywakening-27928940166_2.mp4	0.0	82.61911988258362	
3	7.208677053451538	movie	1		168.0	1.0	2.5	/experiments/knapen_aot/videos/S_flickr-claywakening-27928940166_2.mp4	0.0	82.62288498878479	2.507581949234009
3	9.716259002685547	fix_post	2		12.0	1.0	2.5	/experiments/knapen_aot/videos/S_flickr-claywakening-27928940166_2.mp4	0.0	85.1304669380188	0.09996700286865234
4	9.8162260055542	fix_pre	0		27.0	2.0	2.5	/experiments/knapen_aot/videos/R_S_wc-sd8_iKx0t7s7_9.mp4	0.0	85.23043394088745	0.22581911087036133
4	10.03303599357605	response	0	2		2.0	2.5	/experiments/knapen_aot/videos/R_S_wc-sd8_iKx0t7s7_9.mp4	0.0	85.4472439289093	
4	10.04204511642456	movie	1		165.0	2.0	2.5	/experiments/knapen_aot/videos/R_S_wc-sd8_iKx0t7s7_9.mp4	0.0	85.45625305175781	2.507520914077759
4	12.54956603050232	fix_post	2		12.0	2.0	2.5	/experiments/knapen_aot/videos/R_S_wc-sd8_iKx0t7s7_9.mp4	0.0	87.96377396583557	0.0999751091003418
5	12.649541139602661	fix_pre	0		49.0	3.0	2.5	/experiments/knapen_aot/videos/S_yt-BKkZUSowoxg_59.mp4	0.0	88.06374907493591	0.4083549976348877
5	13.049687147140503	response	0	2		3.0	2.5	/experiments/knapen_aot/videos/S_yt-BKkZUSowoxg_59.mp4	0.0	88.46389508247375	
5	13.057896137237549	movie	1		301.0	3.0	2.5	/experiments/knapen_aot/videos/S_yt-BKkZUSowoxg_59.mp4	0.0	88.4721040725708	2.508457899093628
5	15.566354036331177	fix_post	2		12.0	3.0	2.5	/experiments/knapen_aot/videos/S_yt-BKkZUSowoxg_59.mp4	0.0	90.98056197166443	0.09996390342712402
6	15.6663179397583	fix_pre	0		51.0	4.0	2.5	/experiments/knapen_aot/videos/S_yt-Co4dzHwupRM_18.mp4	0.0	91.08052587509155	0.4247610569000244
6	16.082963943481445	response	0	2		4.0	2.5	/experiments/knapen_aot/videos/S_yt-Co4dzHwupRM_18.mp4	0.0	91.4971718788147	
6	16.091078996658325	movie	1		301.0	4.0	2.5	/experiments/knapen_aot/videos/S_yt-Co4dzHwupRM_18.mp4	0.0	91.50528693199158	2.5084431171417236
6	18.59952211380005	fix_post	2		12.0	4.0	2.5	/experiments/knapen_aot/videos/S_yt-Co4dzHwupRM_18.mp4	0.0	94.0137300491333	0.10000491142272949
7	18.69952702522278	fix_pre	0		53.0	5.0	2.5	/experiments/knapen_aot/videos/R_S_production_ID_4997166.mp4	0.0	94.11373496055603	0.4417591094970703
7	19.125364065170288	response	0	2		5.0	2.5	/experiments/knapen_aot/videos/R_S_production_ID_4997166.mp4	0.0	94.53957200050354	
7	19.14128613471985	movie	1		165.0	5.0	2.5	/experiments/knapen_aot/videos/R_S_production_ID_4997166.mp4	0.0	94.5554940700531	2.5081918239593506
7	21.6494779586792	fix_post	2		12.0	5.0	2.5	/experiments/knapen_aot/videos/R_S_production_ID_4997166.mp4	0.0	97.06368589401245	0.10006904602050781
8	21.749547004699707	fix_pre	0		59.0	6.0	2.5	/experiments/knapen_aot/videos/R_S_cST9H3zu3zQ_126.mp4	0.0	97.16375494003296	0.4916040897369385
8	22.232957124710083	response	0	2		6.0	2.5	/experiments/knapen_aot/videos/R_S_cST9H3zu3zQ_126.mp4	0.0	97.64716506004333	
8	22.241151094436646	movie	1		301.0	6.0	2.5	/experiments/knapen_aot/videos/R_S_cST9H3zu3zQ_126.mp4	0.0	97.6553590297699	2.508342981338501
8	24.749494075775146	fix_post	2		12.0	6.0	2.5	/experiments/knapen_aot/videos/R_S_cST9H3zu3zQ_126.mp4	0.0	100.1637020111084	0.1000969409942627
9	24.84959101676941	fix_pre	0		60.0	7.0	2.5	blank	1.0	100.26379895210266	0.4998629093170166
9	25.341256141662598	response	0	2		7.0	2.5	blank	1.0	100.75546407699585	
9	25.349453926086426	movie	1		301.0	7.0	2.5	blank	1.0	100.76366186141968	2.508411169052124
9	27.70790410041809	response	1	2		7.0	2.5	blank	1.0	103.12211203575134	
9	27.85786509513855	fix_post	2		12.0	7.0	2.5	blank	1.0	103.2720730304718	0.09997296333312988
10	27.95783805847168	fix_pre	0		38.0	8.0	2.5	/experiments/knapen_aot/videos/R_S_yt-EvKV7iY1_HM_193.mp4	0.0	103.37204599380493	0.316619873046875
10	28.266258001327515	response	0	2		8.0	2.5	/experiments/knapen_aot/videos/R_S_yt-EvKV7iY1_HM_193.mp4	0.0	103.68046593666077	
10	28.274457931518555	movie	1		301.0	8.0	2.5	/experiments/knapen_aot/videos/R_S_yt-EvKV7iY1_HM_193.mp4	0.0	103.6886658668518	2.508369207382202
10	30.782827138900757	fix_post	2		12.0	8.0	2.5	/experiments/knapen_aot/videos/R_S_yt-EvKV7iY1_HM_193.mp4	0.0	106.19703507423401	0.09991288185119629
11	30.882740020751953	fix_pre	0		31.0	9.0	2.5	/experiments/knapen_aot/videos/R_S_yt-NZIhxK5NvWE_152.mp4	0.0	106.2969479560852	0.2583730220794678
11	31.125378131866455	response	0	2		9.0	2.5	/experiments/knapen_aot/videos/R_S_yt-NZIhxK5NvWE_152.mp4	0.0	106.5395860671997	
11	31.14111304283142	movie	1		301.0	9.0	2.5	/experiments/knapen_aot/videos/R_S_yt-NZIhxK5NvWE_152.mp4	0.0	106.55532097816467	2.508544921875
11	33.64965796470642	fix_post	2		12.0	9.0	2.5	/experiments/knapen_aot/videos/R_S_yt-NZIhxK5NvWE_152.mp4	0.0	109.06386590003967	0.09981298446655273
12	33.749470949172974	fix_pre	0		30.0	10.0	2.5	/experiments/knapen_aot/videos/S_yt-YykKZWKmLnQ_386.mp4	0.0	109.16367888450623	0.25073909759521484
12	33.99122214317322	response	0	2		10.0	2.5	/experiments/knapen_aot/videos/S_yt-YykKZWKmLnQ_386.mp4	0.0	109.40543007850647	
12	34.00021004676819	movie	1		301.0	10.0	2.5	/experiments/knapen_aot/videos/S_yt-YykKZWKmLnQ_386.mp4	0.0	109.41441798210144	2.507513999938965
12	36.50772404670715	fix_post	2		12.0	10.0	2.5	/experiments/knapen_aot/videos/S_yt-YykKZWKmLnQ_386.mp4	0.0	111.9219319820404	0.10004591941833496
13	36.60776996612549	fix_pre	0		115.0	11.0	2.5	/experiments/knapen_aot/videos/S_ILSVRC2015_train_00559000.mp4	0.0	112.02197790145874	0.9582631587982178
13	37.557892084121704	response	0	2		11.0	2.5	/experiments/knapen_aot/videos/S_ILSVRC2015_train_00559000.mp4	0.0	112.97210001945496	
13	37.566033124923706	movie	1		301.0	11.0	2.5	/experiments/knapen_aot/videos/S_ILSVRC2015_train_00559000.mp4	0.0	112.98024106025696	2.5084710121154785
13	40.074504137039185	fix_post	2		12.0	11.0	2.5	/experiments/knapen_aot/videos/S_ILSVRC2015_train_00559000.mp4	0.0	115.48871207237244	0.0999608039855957
14	40.17446494102478	fix_pre	0		63.0	12.0	2.5	/experiments/knapen_aot/videos/R_S_yt-Wf-RauSbVgA_56.mp4	0.0	115.58867287635803	0.5249290466308594
14	40.69130492210388	response	0	2		12.0	2.5	/experiments/knapen_aot/videos/R_S_yt-Wf-RauSbVgA_56.mp4	0.0	116.10551285743713	
14	40.69939398765564	movie	1		301.0	12.0	2.5	/experiments/knapen_aot/videos/R_S_yt-Wf-RauSbVgA_56.mp4	0.0	116.11360192298889	2.5084259510040283
14	43.20781993865967	fix_post	2		12.0	12.0	2.5	/experiments/knapen_aot/videos/R_S_yt-Wf-RauSbVgA_56.mp4	0.0	118.62202787399292	0.09996199607849121
15	43.30778193473816	fix_pre	0		42.0	13.0	2.5	blank	1.0	118.72198987007141	0.35001206398010254
15	43.64198303222656	response	0	2		13.0	2.5	blank	1.0	119.05619096755981	
15	43.65779399871826	movie	1		301.0	13.0	2.5	blank	1.0	119.07200193405151	2.5083119869232178
15	46.16610598564148	fix_post	2		12.0	13.0	2.5	blank	1.0	121.58031392097473	0.09991908073425293
16	46.26602506637573	fix_pre	0		11.0	14.0	2.5	/experiments/knapen_aot/videos/S_yt-1UFhynm5g6Y_266.mp4	0.0	121.68023300170898	0.09161901473999023
16	46.349544048309326	response	0	2		14.0	2.5	/experiments/knapen_aot/videos/S_yt-1UFhynm5g6Y_266.mp4	0.0	121.76375198364258	
16	46.35764408111572	movie	1		301.0	14.0	2.5	/experiments/knapen_aot/videos/S_yt-1UFhynm5g6Y_266.mp4	0.0	121.77185201644897	2.508612871170044
16	48.86625695228577	fix_post	2		12.0	14.0	2.5	/experiments/knapen_aot/videos/S_yt-1UFhynm5g6Y_266.mp4	0.0	124.28046488761902	0.09982800483703613
17	48.9660849571228	fix_pre	0		26.0	15.0	2.5	/experiments/knapen_aot/videos/R_S_yt-Wf-RauSbVgA_56.mp4	0.0	124.38029289245605	0.21662211418151855
17	49.17449498176575	response	0	2		15.0	2.5	/experiments/knapen_aot/videos/R_S_yt-Wf-RauSbVgA_56.mp4	0.0	124.588702917099	
17	49.18270707130432	movie	1		301.0	15.0	2.5	/experiments/knapen_aot/videos/R_S_yt-Wf-RauSbVgA_56.mp4	0.0	124.59691500663757	2.5083260536193848
17	51.691033124923706	fix_post	2		12.0	15.0	2.5	/experiments/knapen_aot/videos/R_S_yt-Wf-RauSbVgA_56.mp4	0.0	127.10524106025696	0.10002684593200684
18	51.79105997085571	fix_pre	0		46.0	16.0	2.5	/experiments/knapen_aot/videos/S_yt-Ja7d2a6e5xE_279.mp4	0.0	127.20526790618896	0.3833160400390625
18	52.16611909866333	response	0	2		16.0	2.5	/experiments/knapen_aot/videos/S_yt-Ja7d2a6e5xE_279.mp4	0.0	127.58032703399658	
18	52.174376010894775	movie	1		301.0	16.0	2.5	/experiments/knapen_aot/videos/S_yt-Ja7d2a6e5xE_279.mp4	0.0	127.58858394622803	2.508492946624756
18	54.68286895751953	fix_post	2		12.0	16.0	2.5	/experiments/knapen_aot/videos/S_yt-Ja7d2a6e5xE_279.mp4	0.0	130.09707689285278	0.0998680591583252
19	54.782737016677856	fix_pre	0		68.0	17.0	2.5	/experiments/knapen_aot/videos/R_S_S003_C020_SDR_2K_AVC.mp4	0.0	130.1969449520111	0.5666038990020752
19	55.34122395515442	response	0	2		17.0	2.5	/experiments/knapen_aot/videos/R_S_S003_C020_SDR_2K_AVC.mp4	0.0	130.75543189048767	
19	55.34934091567993	movie	1		174.0	17.0	2.5	/experiments/knapen_aot/videos/R_S_S003_C020_SDR_2K_AVC.mp4	0.0	130.76354885101318	2.5084781646728516
19	57.46622395515442	response	1	2		17.0	2.5	/experiments/knapen_aot/videos/R_S_S003_C020_SDR_2K_AVC.mp4	0.0	132.88043189048767	
19	57.85781908035278	fix_post	2		12.0	17.0	2.5	/experiments/knapen_aot/videos/R_S_S003_C020_SDR_2K_AVC.mp4	0.0	133.27202701568604	0.0999000072479248
20	57.95771908760071	fix_pre	0		187.0	18.0	2.5	/experiments/knapen_aot/videos/R_S_yt-26009GpQuUg_3.mp4	0.0	133.37192702293396	1.5582950115203857
20	59.50775694847107	response	0	2		18.0	2.5	/experiments/knapen_aot/videos/R_S_yt-26009GpQuUg_3.mp4	0.0	134.92196488380432	
20	59.516014099121094	movie	1		301.0	18.0	2.5	/experiments/knapen_aot/videos/R_S_yt-26009GpQuUg_3.mp4	0.0	134.93022203445435	2.508344888687134
20	60.974486112594604	response	1	2		18.0	2.5	/experiments/knapen_aot/videos/R_S_yt-26009GpQuUg_3.mp4	0.0	136.38869404792786	
20	62.02435898780823	fix_post	2		12.0	18.0	2.5	/experiments/knapen_aot/videos/R_S_yt-26009GpQuUg_3.mp4	0.0	137.43856692314148	0.1000220775604248
21	62.12438106536865	fix_pre	0		43.0	19.0	2.5	blank	1.0	137.5385890007019	0.3582139015197754
21	62.47444200515747	response	0	2		19.0	2.5	blank	1.0	137.88864994049072	
21	62.48259496688843	movie	1		301.0	19.0	2.5	blank	1.0	137.89680290222168	2.5085110664367676
21	64.07453298568726	response	1	2		19.0	2.5	blank	1.0	139.4887409210205	
21	64.9911060333252	fix_post	2		12.0	19.0	2.5	blank	1.0	140.40531396865845	0.09988594055175781
22	65.09099197387695	fix_pre	0		31.0	20.0	2.5	/experiments/knapen_aot/videos/S_comp_LA_A008_C004_ALTB_ED_FROM_FLAME_RETIME_v46_SDR_PS_20180917_SDR_2K_AVC.mp4	0.0	140.5051999092102	0.258281946182251
22	65.3411021232605	response	0	2		20.0	2.5	/experiments/knapen_aot/videos/S_comp_LA_A008_C004_ALTB_ED_FROM_FLAME_RETIME_v46_SDR_PS_20180917_SDR_2K_AVC.mp4	0.0	140.75531005859375	
22	65.3492739200592	movie	1		173.0	20.0	2.5	/experiments/knapen_aot/videos/S_comp_LA_A008_C004_ALTB_ED_FROM_FLAME_RETIME_v46_SDR_PS_20180917_SDR_2K_AVC.mp4	0.0	140.76348185539246	2.5084571838378906
22	67.8577311038971	fix_post	2		12.0	20.0	2.5	/experiments/knapen_aot/videos/S_comp_LA_A008_C004_ALTB_ED_FROM_FLAME_RETIME_v46_SDR_PS_20180917_SDR_2K_AVC.mp4	0.0	143.27193903923035	0.09997296333312988
23	67.95770406723022	fix_pre	0		40.0	21.0	2.5	/experiments/knapen_aot/videos/S_yt-9EnchawJ3pA_90.mp4	0.0	143.37191200256348	0.33377790451049805
23	68.28277206420898	response	0	2		21.0	2.5	/experiments/knapen_aot/videos/S_yt-9EnchawJ3pA_90.mp4	0.0	143.69697999954224	
23	68.29148197174072	movie	1		301.0	21.0	2.5	/experiments/knapen_aot/videos/S_yt-9EnchawJ3pA_90.mp4	0.0	143.70568990707397	2.5080490112304688
23	70.79953098297119	fix_post	2		12.0	21.0	2.5	/experiments/knapen_aot/videos/S_yt-9EnchawJ3pA_90.mp4	0.0	146.21373891830444	0.0997769832611084
24	70.8993079662323	fix_pre	0		54.0	22.0	2.5	/experiments/knapen_aot/videos/S_yt-AbJBxqEYoMg_27.mp4	0.0	146.31351590156555	0.45000696182250977
24	71.34106206893921	response	0	2		22.0	2.5	/experiments/knapen_aot/videos/S_yt-AbJBxqEYoMg_27.mp4	0.0	146.75527000427246	
24	71.34931492805481	movie	1		300.0	22.0	2.5	/experiments/knapen_aot/videos/S_yt-AbJBxqEYoMg_27.mp4	0.0	146.76352286338806	2.508392095565796
24	73.66653299331665	response	1	2		22.0	2.5	/experiments/knapen_aot/videos/S_yt-AbJBxqEYoMg_27.mp4	0.0	149.0807409286499	
24	73.8577070236206	fix_post	2		12.0	22.0	2.5	/experiments/knapen_aot/videos/S_yt-AbJBxqEYoMg_27.mp4	0.0	149.27191495895386	0.09984898567199707
25	73.9575560092926	fix_pre	0		203.0	23.0	2.5	/experiments/knapen_aot/videos/R_S_yt-YMI27rk5qUQ_117.mp4	0.0	149.37176394462585	1.6916999816894531
25	75.6410620212555	response	0	2		23.0	2.5	/experiments/knapen_aot/videos/R_S_yt-YMI27rk5qUQ_117.mp4	0.0	151.05526995658875	
25	75.64925599098206	movie	1		301.0	23.0	2.5	/experiments/knapen_aot/videos/R_S_yt-YMI27rk5qUQ_117.mp4	0.0	151.0634639263153	2.5082919597625732
25	78.15754795074463	fix_post	2		12.0	23.0	2.5	/experiments/knapen_aot/videos/R_S_yt-YMI27rk5qUQ_117.mp4	0.0	153.57175588607788	0.10009503364562988
26	78.25764298439026	fix_pre	0		132.0	24.0	2.5	/experiments/knapen_aot/videos/S_bing-www_nytimes_com_video_dining_1247468118505_grilled-chicken-breasts-with-herb-butter_html_132.mp4	0.0	153.6718509197235	1.0999300479888916
26	79.34942603111267	response	0	2		24.0	2.5	/experiments/knapen_aot/videos/S_bing-www_nytimes_com_video_dining_1247468118505_grilled-chicken-breasts-with-herb-butter_html_132.mp4	0.0	154.76363396644592	
26	79.35757303237915	movie	1		165.0	24.0	2.5	/experiments/knapen_aot/videos/S_bing-www_nytimes_com_video_dining_1247468118505_grilled-chicken-breasts-with-herb-butter_html_132.mp4	0.0	154.7717809677124	2.508388042449951
26	81.8659610748291	fix_post	2		12.0	24.0	2.5	/experiments/knapen_aot/videos/S_bing-www_nytimes_com_video_dining_1247468118505_grilled-chicken-breasts-with-herb-butter_html_132.mp4	0.0	157.28016901016235	0.09995388984680176
27	81.9659149646759	fix_pre	0		118.0	25.0	2.5	/experiments/knapen_aot/videos/S_yt-2IfvnrF3IV0_241.mp4	0.0	157.38012290000916	0.9833040237426758
27	82.94106793403625	response	0	2		25.0	2.5	/experiments/knapen_aot/videos/S_yt-2IfvnrF3IV0_241.mp4	0.0	158.3552758693695	
27	82.94921898841858	movie	1		301.0	25.0	2.5	/experiments/knapen_aot/videos/S_yt-2IfvnrF3IV0_241.mp4	0.0	158.36342692375183	2.508371114730835
27	85.45759010314941	fix_post	2		12.0	25.0	2.5	/experiments/knapen_aot/videos/S_yt-2IfvnrF3IV0_241.mp4	0.0	160.87179803848267	0.10007596015930176
28	85.55766606330872	fix_pre	0		109.0	26.0	2.5	/experiments/knapen_aot/videos/R_S_yt-oVrkSsEpuvk_118.mp4	0.0	160.97187399864197	0.9081840515136719
28	86.45763111114502	response	0	2		26.0	2.5	/experiments/knapen_aot/videos/R_S_yt-oVrkSsEpuvk_118.mp4	0.0	161.87183904647827	
28	86.46585011482239	movie	1		301.0	26.0	2.5	/experiments/knapen_aot/videos/R_S_yt-oVrkSsEpuvk_118.mp4	0.0	161.88005805015564	2.5083730220794678
28	88.97422313690186	fix_post	2		12.0	26.0	2.5	/experiments/knapen_aot/videos/R_S_yt-oVrkSsEpuvk_118.mp4	0.0	164.3884310722351	0.09999489784240723
29	89.07421803474426	fix_pre	0		333.0	27.0	2.5	/experiments/knapen_aot/videos/R_S_production_ID_4499960.mp4	0.0	164.48842597007751	2.774935007095337
29	91.84103894233704	response	0	2		27.0	2.5	/experiments/knapen_aot/videos/R_S_production_ID_4499960.mp4	0.0	167.2552468776703	
29	91.8491530418396	movie	1		163.0	27.0	2.5	/experiments/knapen_aot/videos/R_S_production_ID_4499960.mp4	0.0	167.26336097717285	2.5084540843963623
29	94.35760712623596	fix_post	2		12.0	27.0	2.5	/experiments/knapen_aot/videos/R_S_production_ID_4499960.mp4	0.0	169.7718150615692	0.10009884834289551
30	94.45770597457886	fix_pre	0		42.0	28.0	2.5	blank	1.0	169.8719139099121	0.3498971462249756
30	94.79930591583252	response	0	2		28.0	2.5	blank	1.0	170.21351385116577	
30	94.80760312080383	movie	1		301.0	28.0	2.5	blank	1.0	170.22181105613708	2.5083069801330566
30	95.96598696708679	response	1	2		28.0	2.5	blank	1.0	171.38019490242004	
30	97.31591010093689	fix_post	2		12.0	28.0	2.5	blank	1.0	172.73011803627014	0.10028290748596191
31	97.41619300842285	fix_pre	0		34.0	29.0	2.5	/experiments/knapen_aot/videos/R_S_yt-4-u4Fw_J_q8_45.mp4	0.0	172.8304009437561	0.283005952835083
31	97.69094514846802	response	0	2		29.0	2.5	/experiments/knapen_aot/videos/R_S_yt-4-u4Fw_J_q8_45.mp4	0.0	173.10515308380127	
31	97.69919896125793	movie	1		301.0	29.0	2.5	/experiments/knapen_aot/videos/R_S_yt-4-u4Fw_J_q8_45.mp4	0.0	173.1134068965912	2.5083999633789062
31	100.20759892463684	fix_post	2		12.0	29.0	2.5	/experiments/knapen_aot/videos/R_S_yt-4-u4Fw_J_q8_45.mp4	0.0	175.6218068599701	0.09992504119873047
32	100.30752396583557	fix_pre	0		71.0	30.0	2.5	/experiments/knapen_aot/videos/S_pexels-anastasia-shuraeva-6014070.mp4	0.0	175.72173190116882	0.5916571617126465
32	100.8910219669342	response	0	2		30.0	2.5	/experiments/knapen_aot/videos/S_pexels-anastasia-shuraeva-6014070.mp4	0.0	176.30522990226746	
32	100.89918112754822	movie	1		196.0	30.0	2.5	/experiments/knapen_aot/videos/S_pexels-anastasia-shuraeva-6014070.mp4	0.0	176.31338906288147	2.508384943008423
32	103.40756607055664	fix_post	2		12.0	30.0	2.5	/experiments/knapen_aot/videos/S_pexels-anastasia-shuraeva-6014070.mp4	0.0	178.8217740058899	0.09999489784240723
33	103.50756096839905	fix_pre	0		56.0	31.0	2.5	/experiments/knapen_aot/videos/R_S_yt-PK-Eip9wFr0_24.mp4	0.0	178.9217689037323	0.4665820598602295
33	103.96599698066711	response	0	2		31.0	2.5	/experiments/knapen_aot/videos/R_S_yt-PK-Eip9wFr0_24.mp4	0.0	179.38020491600037	
33	103.97414302825928	movie	1		301.0	31.0	2.5	/experiments/knapen_aot/videos/R_S_yt-PK-Eip9wFr0_24.mp4	0.0	179.38835096359253	2.508378028869629
33	106.4825210571289	fix_post	2		12.0	31.0	2.5	/experiments/knapen_aot/videos/R_S_yt-PK-Eip9wFr0_24.mp4	0.0	181.89672899246216	0.10036301612854004
34	106.58288407325745	fix_pre	0		15.0	32.0	2.5	/experiments/knapen_aot/videos/R_S_yt-NQSCGMpo-p8_118.mp4	0.0	181.9970920085907	0.12500691413879395
34	106.69929099082947	response	0	2		32.0	2.5	/experiments/knapen_aot/videos/R_S_yt-NQSCGMpo-p8_118.mp4	0.0	182.11349892616272	
34	106.70789098739624	movie	1		301.0	32.0	2.5	/experiments/knapen_aot/videos/R_S_yt-NQSCGMpo-p8_118.mp4	0.0	182.1220989227295	2.507952928543091
34	109.21584391593933	fix_post	2		12.0	32.0	2.5	/experiments/knapen_aot/videos/R_S_yt-NQSCGMpo-p8_118.mp4	0.0	184.63005185127258	0.1000051498413086
35	109.31584906578064	fix_pre	0		23.0	33.0	2.5	/experiments/knapen_aot/videos/R_S_yt-mQRzWCcKOR8_28.mp4	0.0	184.7300570011139	0.19160985946655273
35	109.49935913085938	response	0	2		33.0	2.5	/experiments/knapen_aot/videos/R_S_yt-mQRzWCcKOR8_28.mp4	0.0	184.91356706619263	
35	109.50745892524719	movie	1		301.0	33.0	2.5	/experiments/knapen_aot/videos/R_S_yt-mQRzWCcKOR8_28.mp4	0.0	184.92166686058044	2.5083580017089844
35	112.01581692695618	fix_post	2		12.0	33.0	2.5	/experiments/knapen_aot/videos/R_S_yt-mQRzWCcKOR8_28.mp4	0.0	187.43002486228943	0.10006499290466309
36	112.11588191986084	fix_pre	0		45.0	34.0	2.5	/experiments/knapen_aot/videos/R_S_yt-MEfljVFL0xw_375.mp4	0.0	187.5300898551941	0.37487006187438965
36	112.48263597488403	response	0	2		34.0	2.5	/experiments/knapen_aot/videos/R_S_yt-MEfljVFL0xw_375.mp4	0.0	187.89684391021729	
36	112.49075198173523	movie	1		301.0	34.0	2.5	/experiments/knapen_aot/videos/R_S_yt-MEfljVFL0xw_375.mp4	0.0	187.90495991706848	2.5084359645843506
36	114.99918794631958	fix_post	2		12.0	34.0	2.5	/experiments/knapen_aot/videos/R_S_yt-MEfljVFL0xw_375.mp4	0.0	190.41339588165283	0.09998011589050293
37	115.09916806221008	fix_pre	0		84.0	35.0	2.5	blank	1.0	190.51337599754333	0.6999790668487549
37	115.78359699249268	response	0	2		35.0	2.5	blank	1.0	191.19780492782593	
37	115.79914712905884	movie	1		301.0	35.0	2.5	blank	1.0	191.2133550643921	2.5082969665527344
37	117.85749197006226	response	1	2		35.0	2.5	blank	1.0	193.2716999053955	
37	118.30744409561157	fix_post	2		12.0	35.0	2.5	blank	1.0	193.72165203094482	0.09997797012329102
38	118.40742206573486	fix_pre	0		47.0	36.0	2.5	/experiments/knapen_aot/videos/R_S_yt-MXLxcvKZDHw_22.mp4	0.0	193.82163000106812	0.39166903495788574
38	118.79103493690491	response	0	2		36.0	2.5	/experiments/knapen_aot/videos/R_S_yt-MXLxcvKZDHw_22.mp4	0.0	194.20524287223816	
38	118.79909110069275	movie	1		301.0	36.0	2.5	/experiments/knapen_aot/videos/R_S_yt-MXLxcvKZDHw_22.mp4	0.0	194.213299036026	2.50834584236145
38	121.3074369430542	fix_post	2		12.0	36.0	2.5	/experiments/knapen_aot/videos/R_S_yt-MXLxcvKZDHw_22.mp4	0.0	196.72164487838745	0.10002803802490234
39	121.4074649810791	fix_pre	0		52.0	37.0	2.5	/experiments/knapen_aot/videos/S_yt-LsCCAQ8BRO8_7.mp4	0.0	196.82167291641235	0.43332505226135254
39	121.83245801925659	response	0	2		37.0	2.5	/experiments/knapen_aot/videos/S_yt-LsCCAQ8BRO8_7.mp4	0.0	197.24666595458984	
39	121.84079003334045	movie	1		301.0	37.0	2.5	/experiments/knapen_aot/videos/S_yt-LsCCAQ8BRO8_7.mp4	0.0	197.2549979686737	2.508323907852173
39	124.34911394119263	fix_post	2		12.0	37.0	2.5	/experiments/knapen_aot/videos/S_yt-LsCCAQ8BRO8_7.mp4	0.0	199.76332187652588	0.10019803047180176
40	124.44931197166443	fix_pre	0		150.0	38.0	2.5	/experiments/knapen_aot/videos/S_comp_DB_D001_C001_PSNK_v06_SDR_PS_20180824_SDR_2K_AVC.mp4	0.0	199.86351990699768	1.2496881484985352
40	125.69083714485168	response	0	2		38.0	2.5	/experiments/knapen_aot/videos/S_comp_DB_D001_C001_PSNK_v06_SDR_PS_20180824_SDR_2K_AVC.mp4	0.0	201.10504508018494	
40	125.69900012016296	movie	1		167.0	38.0	2.5	/experiments/knapen_aot/videos/S_comp_DB_D001_C001_PSNK_v06_SDR_PS_20180824_SDR_2K_AVC.mp4	0.0	201.11320805549622	2.508685827255249
40	128.2076859474182	fix_post	2		12.0	38.0	2.5	/experiments/knapen_aot/videos/S_comp_DB_D001_C001_PSNK_v06_SDR_PS_20180824_SDR_2K_AVC.mp4	0.0	203.62189388275146	0.09972810745239258
41	128.3074140548706	fix_pre	0		51.0	39.0	2.5	/experiments/knapen_aot/videos/S_ILSVRC2015_train_00479002.mp4	0.0	203.72162199020386	0.42498302459716797
41	128.72413396835327	response	0	2		39.0	2.5	/experiments/knapen_aot/videos/S_ILSVRC2015_train_00479002.mp4	0.0	204.13834190368652	
41	128.73239707946777	movie	1		301.0	39.0	2.5	/experiments/knapen_aot/videos/S_ILSVRC2015_train_00479002.mp4	0.0	204.14660501480103	2.508430004119873
41	131.24082708358765	fix_post	2		12.0	39.0	2.5	/experiments/knapen_aot/videos/S_ILSVRC2015_train_00479002.mp4	0.0	206.6550350189209	0.09993505477905273
42	131.3407621383667	fix_pre	0		6.0	40.0	2.5	/experiments/knapen_aot/videos/R_S_yt-tOOaOzYvtKE_79.mp4	0.0	206.75497007369995	0.04994487762451172
42	131.38247895240784	response	0	2		40.0	2.5	/experiments/knapen_aot/videos/R_S_yt-tOOaOzYvtKE_79.mp4	0.0	206.7966868877411	
42	131.3907070159912	movie	1		301.0	40.0	2.5	/experiments/knapen_aot/videos/R_S_yt-tOOaOzYvtKE_79.mp4	0.0	206.80491495132446	2.5083200931549072
42	133.89902710914612	fix_post	2		12.0	40.0	2.5	/experiments/knapen_aot/videos/R_S_yt-tOOaOzYvtKE_79.mp4	0.0	209.31323504447937	0.10015082359313965
43	133.99917793273926	fix_pre	0		115.0	41.0	2.5	blank	1.0	209.4133858680725	0.9583051204681396
43	134.94917011260986	response	0	2		41.0	2.5	blank	1.0	210.36337804794312	
43	134.9574830532074	movie	1		301.0	41.0	2.5	blank	1.0	210.37169098854065	2.5082218647003174
43	137.46570491790771	fix_post	2		12.0	41.0	2.5	blank	1.0	212.87991285324097	0.10005521774291992
44	137.56576013565063	fix_pre	0		46.0	42.0	2.5	/experiments/knapen_aot/videos/R_S_cST9H3zu3zQ_126.mp4	0.0	212.9799680709839	0.38323187828063965
44	137.93336296081543	response	0	2		42.0	2.5	/experiments/knapen_aot/videos/R_S_cST9H3zu3zQ_126.mp4	0.0	213.34757089614868	
44	137.94899201393127	movie	1		301.0	42.0	2.5	/experiments/knapen_aot/videos/R_S_cST9H3zu3zQ_126.mp4	0.0	213.36319994926453	2.5085561275482178
44	140.4575481414795	fix_post	2		12.0	42.0	2.5	/experiments/knapen_aot/videos/R_S_cST9H3zu3zQ_126.mp4	0.0	215.87175607681274	0.0998067855834961
45	140.557354927063	fix_pre	0		48.0	43.0	2.5	/experiments/knapen_aot/videos/R_S_yt-yQrDeFlFmfM_138.mp4	0.0	215.97156286239624	0.40005016326904297
45	140.9491491317749	response	0	2		43.0	2.5	/experiments/knapen_aot/videos/R_S_yt-yQrDeFlFmfM_138.mp4	0.0	216.36335706710815	
45	140.95740509033203	movie	1		301.0	43.0	2.5	/experiments/knapen_aot/videos/R_S_yt-yQrDeFlFmfM_138.mp4	0.0	216.37161302566528	2.5083279609680176
45	143.46573305130005	fix_post	2		12.0	43.0	2.5	/experiments/knapen_aot/videos/R_S_yt-yQrDeFlFmfM_138.mp4	0.0	218.8799409866333	0.09992694854736328
46	143.5656599998474	fix_pre	0		379.0	44.0	2.5	/experiments/knapen_aot/videos/S_EFR8AteY59I_15.mp4	0.0	218.97986793518066	3.158236026763916
46	146.70833802223206	response	0	2		44.0	2.5	/experiments/knapen_aot/videos/S_EFR8AteY59I_15.mp4	0.0	222.1225459575653	
46	146.72389602661133	movie	1		301.0	44.0	2.5	/experiments/knapen_aot/videos/S_EFR8AteY59I_15.mp4	0.0	222.13810396194458	2.5084080696105957
46	149.23230409622192	fix_post	2		12.0	44.0	2.5	/experiments/knapen_aot/videos/S_EFR8AteY59I_15.mp4	0.0	224.64651203155518	0.10007286071777344
47	149.3323769569397	fix_pre	0		185.0	45.0	2.5	/experiments/knapen_aot/videos/R_S_bing-www_dailymotion_com_video_x64hzm7_8.mp4	0.0	224.74658489227295	1.5415940284729004
47	150.86578702926636	response	0	2		45.0	2.5	/experiments/knapen_aot/videos/R_S_bing-www_dailymotion_com_video_x64hzm7_8.mp4	0.0	226.2799949645996	
47	150.8739709854126	movie	1		166.0	45.0	2.5	/experiments/knapen_aot/videos/R_S_bing-www_dailymotion_com_video_x64hzm7_8.mp4	0.0	226.28817892074585	2.5083601474761963
47	153.3823311328888	fix_post	2		12.0	45.0	2.5	/experiments/knapen_aot/videos/R_S_bing-www_dailymotion_com_video_x64hzm7_8.mp4	0.0	228.79653906822205	0.09991788864135742
48	153.48224902153015	fix_pre	0		468.0	46.0	2.5	/experiments/knapen_aot/videos/R_S_yt-Xs-YKSogfak_24.mp4	0.0	228.8964569568634	3.8999130725860596
48	157.37404608726501	response	0	2		46.0	2.5	/experiments/knapen_aot/videos/R_S_yt-Xs-YKSogfak_24.mp4	0.0	232.78825402259827	
48	157.3821620941162	movie	1		301.0	46.0	2.5	/experiments/knapen_aot/videos/R_S_yt-Xs-YKSogfak_24.mp4	0.0	232.79637002944946	2.508546829223633
48	159.89070892333984	fix_post	2		12.0	46.0	2.5	/experiments/knapen_aot/videos/R_S_yt-Xs-YKSogfak_24.mp4	0.0	235.3049168586731	0.09998416900634766
49	159.9906930923462	fix_pre	0		242.0	47.0	2.5	/experiments/knapen_aot/videos/R_S_ILSVRC2015_train_00303008.mp4	0.0	235.40490102767944	2.0165019035339355
49	161.99904012680054	response	0	2		47.0	2.5	/experiments/knapen_aot/videos/R_S_ILSVRC2015_train_00303008.mp4	0.0	237.4132480621338	
49	162.00719499588013	movie	1		300.0	47.0	2.5	/experiments/knapen_aot/videos/R_S_ILSVRC2015_train_00303008.mp4	0.0	237.42140293121338	2.508484125137329
49	164.51567912101746	fix_post	2		12.0	47.0	2.5	/experiments/knapen_aot/videos/R_S_ILSVRC2015_train_00303008.mp4	0.0	239.9298870563507	0.1000359058380127
50	164.61571502685547	fix_pre	0		75.0	48.0	2.5	blank	1.0	240.02992296218872	0.624824047088623
50	165.2248239517212	response	0	2		48.0	2.5	blank	1.0	240.63903188705444	
50	165.2405390739441	movie	1		301.0	48.0	2.5	blank	1.0	240.65474700927734	2.50832200050354
50	167.56562209129333	response	1	2		48.0	2.5	blank	1.0	242.9798300266266	
50	167.74886107444763	fix_post	2		12.0	48.0	2.5	blank	1.0	243.16306900978088	0.10006403923034668
51	167.84892511367798	fix_pre	0		50.0	49.0	2.5	/experiments/knapen_aot/videos/R_S_yt-Xs-YKSogfak_24.mp4	0.0	243.26313304901123	0.4165308475494385
51	168.2573709487915	response	0	2		49.0	2.5	/experiments/knapen_aot/videos/R_S_yt-Xs-YKSogfak_24.mp4	0.0	243.67157888412476	
51	168.26545596122742	movie	1		301.0	49.0	2.5	/experiments/knapen_aot/videos/R_S_yt-Xs-YKSogfak_24.mp4	0.0	243.67966389656067	2.5085530281066895
51	170.7740089893341	fix_post	2		12.0	49.0	2.5	/experiments/knapen_aot/videos/R_S_yt-Xs-YKSogfak_24.mp4	0.0	246.18821692466736	0.09987807273864746
52	170.87388706207275	fix_pre	0		59.0	50.0	2.5	/experiments/knapen_aot/videos/S_ILSVRC2015_train_00371006.mp4	0.0	246.288094997406	0.4916548728942871
52	171.35734796524048	response	0	2		50.0	2.5	/experiments/knapen_aot/videos/S_ILSVRC2015_train_00371006.mp4	0.0	246.77155590057373	
52	171.36554193496704	movie	1		301.0	50.0	2.5	/experiments/knapen_aot/videos/S_ILSVRC2015_train_00371006.mp4	0.0	246.7797498703003	2.5085320472717285
52	173.87407398223877	fix_post	2		12.0	50.0	2.5	/experiments/knapen_aot/videos/S_ILSVRC2015_train_00371006.mp4	0.0	249.28828191757202	0.09981203079223633
53	173.973886013031	fix_pre	0		70.0	51.0	2.5	/experiments/knapen_aot/videos/R_S_wc-7ugQ0V4lxYkJ_131.mp4	0.0	249.38809394836426	0.5832960605621338
53	174.54896306991577	response	0	2		51.0	2.5	/experiments/knapen_aot/videos/R_S_wc-7ugQ0V4lxYkJ_131.mp4	0.0	249.96317100524902	
53	174.55718207359314	movie	1		301.0	51.0	2.5	/experiments/knapen_aot/videos/R_S_wc-7ugQ0V4lxYkJ_131.mp4	0.0	249.9713900089264	2.5083980560302734
53	177.0655801296234	fix_post	2		12.0	51.0	2.5	/experiments/knapen_aot/videos/R_S_wc-7ugQ0V4lxYkJ_131.mp4	0.0	252.47978806495667	0.1000058650970459
54	177.16558599472046	fix_pre	0		108.0	52.0	2.5	/experiments/knapen_aot/videos/R_S_yt-PyO8-WsbaLU_43.mp4	0.0	252.5797939300537	0.8998839855194092
54	178.0572910308838	response	0	2		52.0	2.5	/experiments/knapen_aot/videos/R_S_yt-PyO8-WsbaLU_43.mp4	0.0	253.47149896621704	
54	178.06546998023987	movie	1		301.0	52.0	2.5	/experiments/knapen_aot/videos/R_S_yt-PyO8-WsbaLU_43.mp4	0.0	253.47967791557312	2.508409023284912
54	180.57387900352478	fix_post	2		12.0	52.0	2.5	/experiments/knapen_aot/videos/R_S_yt-PyO8-WsbaLU_43.mp4	0.0	255.98808693885803	0.10002803802490234
55	180.67390704154968	fix_pre	0		38.0	53.0	2.5	/experiments/knapen_aot/videos/S_yt-K0CzoUy_uIA_22.mp4	0.0	256.08811497688293	0.3166050910949707
55	180.9823169708252	response	0	2		53.0	2.5	/experiments/knapen_aot/videos/S_yt-K0CzoUy_uIA_22.mp4	0.0	256.39652490615845	
55	180.99051213264465	movie	1		301.0	53.0	2.5	/experiments/knapen_aot/videos/S_yt-K0CzoUy_uIA_22.mp4	0.0	256.4047200679779	2.5083680152893066
55	183.49888014793396	fix_post	2		12.0	53.0	2.5	/experiments/knapen_aot/videos/S_yt-K0CzoUy_uIA_22.mp4	0.0	258.9130880832672	0.10001897811889648
56	183.59889912605286	fix_pre	0		56.0	54.0	2.5	blank	1.0	259.0131070613861	0.46665501594543457
56	184.05730605125427	response	0	2		54.0	2.5	blank	1.0	259.4715139865875	
56	184.0655541419983	movie	1		301.0	54.0	2.5	blank	1.0	259.47976207733154	2.508269786834717
56	185.15722799301147	response	1	2		54.0	2.5	blank	1.0	260.5714359283447	
56	186.573823928833	fix_post	2		12.0	54.0	2.5	blank	1.0	261.98803186416626	0.10011816024780273
57	186.6739420890808	fix_pre	0		30.0	55.0	2.5	/experiments/knapen_aot/videos/S_ILSVRC2015_train_00415007.mp4	0.0	262.08815002441406	0.24994587898254395
57	186.9155421257019	response	0	2		55.0	2.5	/experiments/knapen_aot/videos/S_ILSVRC2015_train_00415007.mp4	0.0	262.32975006103516	
57	186.92388796806335	movie	1		301.0	55.0	2.5	/experiments/knapen_aot/videos/S_ILSVRC2015_train_00415007.mp4	0.0	262.3380959033966	2.5082621574401855
57	189.43215012550354	fix_post	2		12.0	55.0	2.5	/experiments/knapen_aot/videos/S_ILSVRC2015_train_00415007.mp4	0.0	264.8463580608368	0.09992790222167969
58	189.53207802772522	fix_pre	0		44.0	56.0	2.5	/experiments/knapen_aot/videos/S_yt-qxtmtMnUfD0_124.mp4	0.0	264.9462859630585	0.36664509773254395
58	189.89061307907104	response	0	2		56.0	2.5	/experiments/knapen_aot/videos/S_yt-qxtmtMnUfD0_124.mp4	0.0	265.3048210144043	
58	189.89872312545776	movie	1		301.0	56.0	2.5	/experiments/knapen_aot/videos/S_yt-qxtmtMnUfD0_124.mp4	0.0	265.312931060791	2.5084619522094727
58	192.40718507766724	fix_post	2		12.0	56.0	2.5	/experiments/knapen_aot/videos/S_yt-qxtmtMnUfD0_124.mp4	0.0	267.8213930130005	0.09996604919433594
59	192.50715112686157	fix_pre	0		42.0	57.0	2.5	/experiments/knapen_aot/videos/R_S_yt-Dj42sI_Z-kQ_38.mp4	0.0	267.9213590621948	0.34992289543151855
59	192.8489351272583	response	0	2		57.0	2.5	/experiments/knapen_aot/videos/R_S_yt-Dj42sI_Z-kQ_38.mp4	0.0	268.26314306259155	
59	192.8570740222931	movie	1		301.0	57.0	2.5	/experiments/knapen_aot/videos/R_S_yt-Dj42sI_Z-kQ_38.mp4	0.0	268.27128195762634	2.5084290504455566
59	195.36550307273865	fix_post	2		12.0	57.0	2.5	/experiments/knapen_aot/videos/R_S_yt-Dj42sI_Z-kQ_38.mp4	0.0	270.7797110080719	0.09997797012329102
60	195.46548104286194	fix_pre	0		26.0	58.0	2.5	/experiments/knapen_aot/videos/S_yt-4GDusA21cEA_170.mp4	0.0	270.8796889781952	0.21670889854431152
60	195.67392992973328	response	0	2		58.0	2.5	/experiments/knapen_aot/videos/S_yt-4GDusA21cEA_170.mp4	0.0	271.0881378650665	
60	195.68218994140625	movie	1		301.0	58.0	2.5	/experiments/knapen_aot/videos/S_yt-4GDusA21cEA_170.mp4	0.0	271.0963978767395	2.5082521438598633
60	198.1904420852661	fix_post	2		12.0	58.0	2.5	/experiments/knapen_aot/videos/S_yt-4GDusA21cEA_170.mp4	0.0	273.60465002059937	0.10024404525756836
61	198.29068613052368	fix_pre	0		47.0	59.0	2.5	/experiments/knapen_aot/videos/S_pexels-kindel-media-8165572.mp4	0.0	273.70489406585693	0.39139294624328613
61	198.67385911941528	response	0	2		59.0	2.5	/experiments/knapen_aot/videos/S_pexels-kindel-media-8165572.mp4	0.0	274.08806705474854	
61	198.68207907676697	movie	1		165.0	59.0	2.5	/experiments/knapen_aot/videos/S_pexels-kindel-media-8165572.mp4	0.0	274.0962870121002	2.508363962173462
61	201.19044303894043	fix_post	2		12.0	59.0	2.5	/experiments/knapen_aot/videos/S_pexels-kindel-media-8165572.mp4	0.0	276.6046509742737	0.10000991821289062
62	201.29045295715332	fix_pre	0		18.0	60.0	2.5	/experiments/knapen_aot/videos/S_yt-WrwPgZYBXlA_34.mp4	0.0	276.7046608924866	0.14994406700134277
62	201.43215703964233	response	0	2		60.0	2.5	/experiments/knapen_aot/videos/S_yt-WrwPgZYBXlA_34.mp4	0.0	276.8463649749756	
62	201.44039702415466	movie	1		301.0	60.0	2.5	/experiments/knapen_aot/videos/S_yt-WrwPgZYBXlA_34.mp4	0.0	276.8546049594879	2.508388042449951
62	203.94878506660461	fix_post	2		12.0	60.0	2.5	/experiments/knapen_aot/videos/S_yt-WrwPgZYBXlA_34.mp4	0.0	279.36299300193787	0.09996700286865234
63	204.04875206947327	fix_pre	0		69.0	61.0	2.5	/experiments/knapen_aot/videos/R_S_yt-YMI27rk5qUQ_117.mp4	0.0	279.4629600048065	0.5749938488006592
63	204.61545610427856	response	0	2		61.0	2.5	/experiments/knapen_aot/videos/R_S_yt-YMI27rk5qUQ_117.mp4	0.0	280.0296640396118	
63	204.62374591827393	movie	1		301.0	61.0	2.5	/experiments/knapen_aot/videos/R_S_yt-YMI27rk5qUQ_117.mp4	0.0	280.0379538536072	2.5083680152893066
63	207.13211393356323	fix_post	2		12.0	61.0	2.5	/experiments/knapen_aot/videos/R_S_yt-YMI27rk5qUQ_117.mp4	0.0	282.5463218688965	0.09998321533203125
64	207.23209714889526	fix_pre	0		68.0	62.0	2.5	blank	1.0	282.6463050842285	0.5666568279266357
64	207.7905399799347	response	0	2		62.0	2.5	blank	1.0	283.20474791526794	
64	207.7987539768219	movie	1		301.0	62.0	2.5	blank	1.0	283.21296191215515	2.5083391666412354
64	209.76541805267334	response	1	2		62.0	2.5	blank	1.0	285.1796259880066	
64	210.30709314346313	fix_post	2		12.0	62.0	2.5	blank	1.0	285.7213010787964	0.09992694854736328
65	210.4070200920105	fix_pre	0		32.0	63.0	2.5	/experiments/knapen_aot/videos/R_S_yt-7W50lcw5FCo_37.mp4	0.0	285.82122802734375	0.26669788360595703
65	210.6654989719391	response	0	2		63.0	2.5	/experiments/knapen_aot/videos/R_S_yt-7W50lcw5FCo_37.mp4	0.0	286.07970690727234	
65	210.67371797561646	movie	1		301.0	63.0	2.5	/experiments/knapen_aot/videos/R_S_yt-7W50lcw5FCo_37.mp4	0.0	286.0879259109497	2.508439064025879
65	213.18215703964233	fix_post	2		12.0	63.0	2.5	/experiments/knapen_aot/videos/R_S_yt-7W50lcw5FCo_37.mp4	0.0	288.5963649749756	0.09983205795288086
66	213.28198909759521	fix_pre	0		38.0	64.0	2.5	/experiments/knapen_aot/videos/S_yt-alGXD2Drh_g_19.mp4	0.0	288.69619703292847	0.3166840076446533
66	213.5905089378357	response	0	2		64.0	2.5	/experiments/knapen_aot/videos/S_yt-alGXD2Drh_g_19.mp4	0.0	289.00471687316895	
66	213.59867310523987	movie	1		301.0	64.0	2.5	/experiments/knapen_aot/videos/S_yt-alGXD2Drh_g_19.mp4	0.0	289.0128810405731	2.508396863937378
66	216.10706996917725	fix_post	2		12.0	64.0	2.5	/experiments/knapen_aot/videos/S_yt-alGXD2Drh_g_19.mp4	0.0	291.5212779045105	0.09998917579650879
67	216.20705914497375	fix_pre	0		53.0	65.0	2.5	/experiments/knapen_aot/videos/S_production_ID_3927047.mp4	0.0	291.621267080307	0.44168782234191895
67	216.6404869556427	response	0	2		65.0	2.5	/experiments/knapen_aot/videos/S_production_ID_3927047.mp4	0.0	292.05469489097595	
67	216.64874696731567	movie	1		182.0	65.0	2.5	/experiments/knapen_aot/videos/S_production_ID_3927047.mp4	0.0	292.0629549026489	2.5083131790161133
67	219.03334498405457	response	1	2		65.0	2.5	/experiments/knapen_aot/videos/S_production_ID_3927047.mp4	0.0	294.4475529193878	
67	219.1570601463318	fix_post	2		12.0	65.0	2.5	/experiments/knapen_aot/videos/S_production_ID_3927047.mp4	0.0	294.57126808166504	0.09996891021728516
68	219.25702905654907	fix_pre	0		167.0	66.0	2.5	/experiments/knapen_aot/videos/S_yt-M8wvzt_BMXM_173.mp4	0.0	294.6712369918823	1.3916680812835693
68	220.64049196243286	response	0	2		66.0	2.5	/experiments/knapen_aot/videos/S_yt-M8wvzt_BMXM_173.mp4	0.0	296.0546998977661	
68	220.64869713783264	movie	1		301.0	66.0	2.5	/experiments/knapen_aot/videos/S_yt-M8wvzt_BMXM_173.mp4	0.0	296.0629050731659	2.5083799362182617
68	223.1570770740509	fix_post	2		12.0	66.0	2.5	/experiments/knapen_aot/videos/S_yt-M8wvzt_BMXM_173.mp4	0.0	298.57128500938416	0.10015606880187988
69	223.25723314285278	fix_pre	0		46.0	67.0	2.5	/experiments/knapen_aot/videos/S_yt-urJgH6tpfkU_204.mp4	0.0	298.67144107818604	0.38308095932006836
69	223.63222098350525	response	0	2		67.0	2.5	/experiments/knapen_aot/videos/S_yt-urJgH6tpfkU_204.mp4	0.0	299.0464289188385	
69	223.64031410217285	movie	1		301.0	67.0	2.5	/experiments/knapen_aot/videos/S_yt-urJgH6tpfkU_204.mp4	0.0	299.0545220375061	2.508328914642334
69	226.14864301681519	fix_post	2		12.0	67.0	2.5	/experiments/knapen_aot/videos/S_yt-urJgH6tpfkU_204.mp4	0.0	301.56285095214844	0.10002493858337402
70	226.24866795539856	fix_pre	0		60.0	68.0	2.5	blank	1.0	301.6628758907318	0.49994897842407227
70	226.74046301841736	response	0	2		68.0	2.5	blank	1.0	302.1546709537506	
70	226.74861693382263	movie	1		301.0	68.0	2.5	blank	1.0	302.1628248691559	2.508357048034668
70	228.14875411987305	response	1	2		68.0	2.5	blank	1.0	303.5629620552063	
70	229.2569739818573	fix_post	2		12.0	68.0	2.5	blank	1.0	304.67118191719055	0.09999203681945801
71	229.35696601867676	fix_pre	0		22.0	69.0	2.5	/experiments/knapen_aot/videos/R_S_flickr-csgzs-8144064966_10.mp4	0.0	304.77117395401	0.18332409858703613
71	229.53199410438538	response	0	2		69.0	2.5	/experiments/knapen_aot/videos/R_S_flickr-csgzs-8144064966_10.mp4	0.0	304.9462020397186	
71	229.5402901172638	movie	1		301.0	69.0	2.5	/experiments/knapen_aot/videos/R_S_flickr-csgzs-8144064966_10.mp4	0.0	304.95449805259705	2.508344888687134
71	232.04863500595093	fix_post	2		12.0	69.0	2.5	/experiments/knapen_aot/videos/R_S_flickr-csgzs-8144064966_10.mp4	0.0	307.4628429412842	0.10006999969482422
72	232.14870500564575	fix_pre	0		37.0	70.0	2.5	/experiments/knapen_aot/videos/R_S_ILSVRC2015_train_00303008.mp4	0.0	307.562912940979	0.30827808380126953
72	232.4487509727478	response	0	2		70.0	2.5	/experiments/knapen_aot/videos/R_S_ILSVRC2015_train_00303008.mp4	0.0	307.86295890808105	
72	232.45698308944702	movie	1		301.0	70.0	2.5	/experiments/knapen_aot/videos/R_S_ILSVRC2015_train_00303008.mp4	0.0	307.8711910247803	2.5083088874816895
72	234.9652919769287	fix_post	2		12.0	70.0	2.5	/experiments/knapen_aot/videos/R_S_ILSVRC2015_train_00303008.mp4	0.0	310.37949991226196	0.09999203681945801
73	235.06528401374817	fix_pre	0		31.0	71.0	2.5	/experiments/knapen_aot/videos/S_yt-PK-Eip9wFr0_24.mp4	0.0	310.4794919490814	0.2593390941619873
73	235.30788207054138	response	0	2		71.0	2.5	/experiments/knapen_aot/videos/S_yt-PK-Eip9wFr0_24.mp4	0.0	310.72209000587463	
73	235.32462310791016	movie	1		301.0	71.0	2.5	/experiments/knapen_aot/videos/S_yt-PK-Eip9wFr0_24.mp4	0.0	310.7388310432434	2.5073118209838867
73	237.83193492889404	fix_post	2		12.0	71.0	2.5	/experiments/knapen_aot/videos/S_yt-PK-Eip9wFr0_24.mp4	0.0	313.2461428642273	0.09997320175170898
74	237.93190813064575	fix_pre	0		71.0	72.0	2.5	/experiments/knapen_aot/videos/R_S_yt-wLylWnZs3z0_27.mp4	0.0	313.346116065979	0.5916388034820557
74	238.51537704467773	response	0	2		72.0	2.5	/experiments/knapen_aot/videos/R_S_yt-wLylWnZs3z0_27.mp4	0.0	313.929584980011	
74	238.5235469341278	movie	1		301.0	72.0	2.5	/experiments/knapen_aot/videos/R_S_yt-wLylWnZs3z0_27.mp4	0.0	313.93775486946106	2.508395195007324
74	241.03194212913513	fix_post	2		12.0	72.0	2.5	/experiments/knapen_aot/videos/R_S_yt-wLylWnZs3z0_27.mp4	0.0	316.4461500644684	0.10000801086425781
75	241.1319501399994	fix_pre	0		47.0	73.0	2.5	/experiments/knapen_aot/videos/R_S_comp_DB_D001_C001_PSNK_v06_SDR_PS_20180824_SDR_2K_AVC.mp4	0.0	316.54615807533264	0.3916778564453125
75	241.51538109779358	response	0	2		73.0	2.5	/experiments/knapen_aot/videos/R_S_comp_DB_D001_C001_PSNK_v06_SDR_PS_20180824_SDR_2K_AVC.mp4	0.0	316.92958903312683	
75	241.5236279964447	movie	1		174.0	73.0	2.5	/experiments/knapen_aot/videos/R_S_comp_DB_D001_C001_PSNK_v06_SDR_PS_20180824_SDR_2K_AVC.mp4	0.0	316.93783593177795	2.5082950592041016
75	244.0319230556488	fix_post	2		12.0	73.0	2.5	/experiments/knapen_aot/videos/R_S_comp_DB_D001_C001_PSNK_v06_SDR_PS_20180824_SDR_2K_AVC.mp4	0.0	319.44613099098206	0.10000801086425781
76	244.13193106651306	fix_pre	0		56.0	74.0	2.5	/experiments/knapen_aot/videos/R_S_yt-WrwPgZYBXlA_34.mp4	0.0	319.5461390018463	0.4665958881378174
76	244.59036898612976	response	0	2		74.0	2.5	/experiments/knapen_aot/videos/R_S_yt-WrwPgZYBXlA_34.mp4	0.0	320.004576921463	
76	244.59852695465088	movie	1		301.0	74.0	2.5	/experiments/knapen_aot/videos/R_S_yt-WrwPgZYBXlA_34.mp4	0.0	320.01273488998413	2.5084381103515625
76	247.10696506500244	fix_post	2		12.0	74.0	2.5	/experiments/knapen_aot/videos/R_S_yt-WrwPgZYBXlA_34.mp4	0.0	322.5211730003357	0.09989094734191895
77	247.20685601234436	fix_pre	0		79.0	75.0	2.5	blank	1.0	322.6210639476776	0.6583740711212158
77	247.85700297355652	response	0	2		75.0	2.5	blank	1.0	323.27121090888977	
77	247.86523008346558	movie	1		301.0	75.0	2.5	blank	1.0	323.2794380187988	2.5083320140838623
77	250.12365698814392	response	1	2		75.0	2.5	blank	1.0	325.5378649234772	
77	250.37356209754944	fix_post	2		12.0	75.0	2.5	blank	1.0	325.7877700328827	0.10018491744995117
78	250.4737470149994	fix_pre	0		185.0	76.0	2.5	/experiments/knapen_aot/videos/R_S_yt-jeVeQBuzbEQ_120.mp4	0.0	325.88795495033264	1.5414009094238281
78	252.00702810287476	response	0	2		76.0	2.5	/experiments/knapen_aot/videos/R_S_yt-jeVeQBuzbEQ_120.mp4	0.0	327.421236038208	
78	252.01514792442322	movie	1		301.0	76.0	2.5	/experiments/knapen_aot/videos/R_S_yt-jeVeQBuzbEQ_120.mp4	0.0	327.42935585975647	2.5084221363067627
78	254.52357006072998	fix_post	2		12.0	76.0	2.5	/experiments/knapen_aot/videos/R_S_yt-jeVeQBuzbEQ_120.mp4	0.0	329.93777799606323	0.10000491142272949
79	254.6235749721527	fix_pre	0		21.0	77.0	2.5	/experiments/knapen_aot/videos/S_production_ID_4499960.mp4	0.0	330.03778290748596	0.17486810684204102
79	254.79034209251404	response	0	2		77.0	2.5	/experiments/knapen_aot/videos/S_production_ID_4499960.mp4	0.0	330.2045500278473	
79	254.79844307899475	movie	1		165.0	77.0	2.5	/experiments/knapen_aot/videos/S_production_ID_4499960.mp4	0.0	330.212651014328	2.5085549354553223
79	257.3069980144501	fix_post	2		12.0	77.0	2.5	/experiments/knapen_aot/videos/S_production_ID_4499960.mp4	0.0	332.7212059497833	0.09982705116271973
80	257.4068250656128	fix_pre	0		76.0	78.0	2.5	/experiments/knapen_aot/videos/S_yt-KQq7vTlXUiQ_173.mp4	0.0	332.82103300094604	0.633296012878418
80	258.03204798698425	response	0	2		78.0	2.5	/experiments/knapen_aot/videos/S_yt-KQq7vTlXUiQ_173.mp4	0.0	333.4462559223175	
80	258.0401210784912	movie	1		301.0	78.0	2.5	/experiments/knapen_aot/videos/S_yt-KQq7vTlXUiQ_173.mp4	0.0	333.45432901382446	2.5084309577941895
80	260.5485520362854	fix_post	2		12.0	78.0	2.5	/experiments/knapen_aot/videos/S_yt-KQq7vTlXUiQ_173.mp4	0.0	335.96275997161865	0.09997391700744629
81	260.64852595329285	fix_pre	0		78.0	79.0	2.5	/experiments/knapen_aot/videos/S_video-6.mp4	0.0	336.0627338886261	0.6499350070953369
81	261.2902159690857	response	0	2		79.0	2.5	/experiments/knapen_aot/videos/S_video-6.mp4	0.0	336.70442390441895	
81	261.2984609603882	movie	1		169.0	79.0	2.5	/experiments/knapen_aot/videos/S_video-6.mp4	0.0	336.71266889572144	2.5083720684051514
81	263.80683302879333	fix_post	2		12.0	79.0	2.5	/experiments/knapen_aot/videos/S_video-6.mp4	0.0	339.2210409641266	0.10020208358764648
82	263.907035112381	fix_pre	0		47.0	80.0	2.5	/experiments/knapen_aot/videos/R_S_S005_C015_SDR_2K_AVC.mp4	0.0	339.32124304771423	0.3913559913635254
82	264.29029393196106	response	0	2		80.0	2.5	/experiments/knapen_aot/videos/R_S_S005_C015_SDR_2K_AVC.mp4	0.0	339.7045018672943	
82	264.2983911037445	movie	1		167.0	80.0	2.5	/experiments/knapen_aot/videos/R_S_S005_C015_SDR_2K_AVC.mp4	0.0	339.71259903907776	2.5084478855133057
82	266.8068389892578	fix_post	2		12.0	80.0	2.5	/experiments/knapen_aot/videos/R_S_S005_C015_SDR_2K_AVC.mp4	0.0	342.22104692459106	0.1000070571899414
83	266.90684604644775	fix_pre	0		31.0	81.0	2.5	/experiments/knapen_aot/videos/R_S_2RTDFkjD6vI_93.mp4	0.0	342.321053981781	0.2582828998565674
83	267.1568851470947	response	0	2		81.0	2.5	/experiments/knapen_aot/videos/R_S_2RTDFkjD6vI_93.mp4	0.0	342.571093082428	
83	267.1651289463043	movie	1		301.0	81.0	2.5	/experiments/knapen_aot/videos/R_S_2RTDFkjD6vI_93.mp4	0.0	342.5793368816376	2.5085740089416504
83	269.673702955246	fix_post	2		12.0	81.0	2.5	/experiments/knapen_aot/videos/R_S_2RTDFkjD6vI_93.mp4	0.0	345.0879108905792	0.09987497329711914
84	269.7735779285431	fix_pre	0		36.0	82.0	2.5	blank	1.0	345.18778586387634	0.3008241653442383
84	270.0652050971985	response	0	2		82.0	2.5	blank	1.0	345.47941303253174	
84	270.07440209388733	movie	1		301.0	82.0	2.5	blank	1.0	345.4886100292206	2.507369041442871
84	272.5817711353302	fix_post	2		12.0	82.0	2.5	blank	1.0	347.99597907066345	0.1000518798828125
85	272.681823015213	fix_pre	0		30.0	83.0	2.5	/experiments/knapen_aot/videos/S_yt-xBwq6sHHF5M_21.mp4	0.0	348.09603095054626	0.2498939037322998
85	272.9160170555115	response	0	2		83.0	2.5	/experiments/knapen_aot/videos/S_yt-xBwq6sHHF5M_21.mp4	0.0	348.3302249908447	
85	272.9317169189453	movie	1		301.0	83.0	2.5	/experiments/knapen_aot/videos/S_yt-xBwq6sHHF5M_21.mp4	0.0	348.34592485427856	2.5084950923919678
85	275.3818700313568	response	1	2		83.0	2.5	/experiments/knapen_aot/videos/S_yt-xBwq6sHHF5M_21.mp4	0.0	350.79607796669006	
85	275.4402120113373	fix_post	2		12.0	83.0	2.5	/experiments/knapen_aot/videos/S_yt-xBwq6sHHF5M_21.mp4	0.0	350.85441994667053	0.0999441146850586
87	275.54015612602234	stim	0		60.0					350.9543640613556	0.4999549388885498
87	276.0332601070404	response	0	space						351.44746804237366	
