trial_nr	onset	event_type	phase	response	nr_frames	movie_index	movie_duration	movie_file	blank	onset_abs	duration
0	0.15832996368408203	stim	0		41.0					115.0266420841217	0.34427690505981445
0	0.49165892601013184	response	0	space						115.35997104644775	
1	0.5026068687438965	stim	0		121.0					115.37091898918152	1.0053291320800781
1	1.2079999446868896	response	0	space						116.07631206512451	
1	1.5079360008239746	stim	1		120.0					116.3762481212616	0.99993896484375
1	1.5997498035430908	response	1	space						116.46806192398071	
1	2.2496609687805176	response	1	space						117.11797308921814	
2	2.5078749656677246	fix_pre	0		8.0	0.0	2.5	/experiments/knapen_aot/videos/S_yt-EuyfT0PuOoQ_91.mp4	0.0	117.37618708610535	0.06670594215393066
2	2.56642484664917	response	0	space		0.0	2.5	/experiments/knapen_aot/videos/S_yt-EuyfT0PuOoQ_91.mp4	0.0	117.43473696708679	
2	2.5745809078216553	movie	1		300.0	0.0	2.5	/experiments/knapen_aot/videos/S_yt-EuyfT0PuOoQ_91.mp4	0.0	117.44289302825928	2.5083279609680176
2	5.082908868789673	fix_post	2		12.0	0.0	2.5	/experiments/knapen_aot/videos/S_yt-EuyfT0PuOoQ_91.mp4	0.0	119.9512209892273	0.10001111030578613
3	5.182919979095459	fix_pre	0		36.0	1.0	2.5	/experiments/knapen_aot/videos/R_S_comp_CH_C002_C005_PSNK_v05_SDR_PS_FINAL_20180709_SDR_2K_AVC.mp4	0.0	120.05123209953308	0.30539584159851074
3	5.4789628982543945	response	0	2		1.0	2.5	/experiments/knapen_aot/videos/R_S_comp_CH_C002_C005_PSNK_v05_SDR_PS_FINAL_20180709_SDR_2K_AVC.mp4	0.0	120.34727501869202	
3	5.48831582069397	movie	1		183.0	1.0	2.5	/experiments/knapen_aot/videos/R_S_comp_CH_C002_C005_PSNK_v05_SDR_PS_FINAL_20180709_SDR_2K_AVC.mp4	0.0	120.35662794113159	2.5028960704803467
3	7.991211891174316	fix_post	2		12.0	1.0	2.5	/experiments/knapen_aot/videos/R_S_comp_CH_C002_C005_PSNK_v05_SDR_PS_FINAL_20180709_SDR_2K_AVC.mp4	0.0	122.85952401161194	0.10126900672912598
4	8.092480897903442	fix_pre	0		37.0	2.0	2.5	/experiments/knapen_aot/videos/S_yt-o0Hbe7kcPps_70.mp4	0.0	122.96079301834106	0.3070859909057617
4	8.391295909881592	response	0	2		2.0	2.5	/experiments/knapen_aot/videos/S_yt-o0Hbe7kcPps_70.mp4	0.0	123.25960803031921	
4	8.399566888809204	movie	1		301.0	2.0	2.5	/experiments/knapen_aot/videos/S_yt-o0Hbe7kcPps_70.mp4	0.0	123.26787900924683	2.5083119869232178
4	10.907878875732422	fix_post	2		12.0	2.0	2.5	/experiments/knapen_aot/videos/S_yt-o0Hbe7kcPps_70.mp4	0.0	125.77619099617004	0.09999895095825195
5	11.007877826690674	fix_pre	0		47.0	3.0	2.5	/experiments/knapen_aot/videos/S_yt-KpOAdMtPGFs_17.mp4	0.0	125.8761899471283	0.39159512519836426
5	11.391353845596313	response	0	2		3.0	2.5	/experiments/knapen_aot/videos/S_yt-KpOAdMtPGFs_17.mp4	0.0	126.25966596603394	
5	11.399472951889038	movie	1		301.0	3.0	2.5	/experiments/knapen_aot/videos/S_yt-KpOAdMtPGFs_17.mp4	0.0	126.26778507232666	2.50834584236145
5	13.907818794250488	fix_post	2		12.0	3.0	2.5	/experiments/knapen_aot/videos/S_yt-KpOAdMtPGFs_17.mp4	0.0	128.7761309146881	0.10008502006530762
6	14.007903814315796	fix_pre	0		35.0	4.0	2.5	/experiments/knapen_aot/videos/R_S_59eT4XDXNno_25.mp4	0.0	128.87621593475342	0.2928330898284912
6	14.29139494895935	response	0	2		4.0	2.5	/experiments/knapen_aot/videos/R_S_59eT4XDXNno_25.mp4	0.0	129.15970706939697	
6	14.300736904144287	movie	1		301.0	4.0	2.5	/experiments/knapen_aot/videos/R_S_59eT4XDXNno_25.mp4	0.0	129.1690490245819	2.50716495513916
6	16.807901859283447	fix_post	2		12.0	4.0	2.5	/experiments/knapen_aot/videos/R_S_59eT4XDXNno_25.mp4	0.0	131.67621397972107	0.10002899169921875
7	16.907930850982666	fix_pre	0		38.0	5.0	2.5	blank	1.0	131.7762429714203	0.3165769577026367
7	17.216442823410034	response	0	2		5.0	2.5	blank	1.0	132.08475494384766	
7	17.224507808685303	movie	1		301.0	5.0	2.5	blank	1.0	132.09281992912292	2.5082921981811523
7	19.732800006866455	fix_post	2		12.0	5.0	2.5	blank	1.0	134.60111212730408	0.1000528335571289
8	19.832852840423584	fix_pre	0		62.0	6.0	2.5	/experiments/knapen_aot/videos/S_yt-hWXr5bv2_uA_48.mp4	0.0	134.7011649608612	0.5166380405426025
8	20.34123992919922	response	0	2		6.0	2.5	/experiments/knapen_aot/videos/S_yt-hWXr5bv2_uA_48.mp4	0.0	135.20955204963684	
8	20.349490880966187	movie	1		301.0	6.0	2.5	/experiments/knapen_aot/videos/S_yt-hWXr5bv2_uA_48.mp4	0.0	135.2178030014038	2.5083820819854736
8	22.85787296295166	fix_post	2		12.0	6.0	2.5	/experiments/knapen_aot/videos/S_yt-hWXr5bv2_uA_48.mp4	0.0	137.72618508338928	0.09996604919433594
9	22.957839012145996	fix_pre	0		31.0	7.0	2.5	/experiments/knapen_aot/videos/R_S_yt-9qXwehMoX7o_50.mp4	0.0	137.82615113258362	0.2594749927520752
9	23.208000898361206	response	0	2		7.0	2.5	/experiments/knapen_aot/videos/R_S_yt-9qXwehMoX7o_50.mp4	0.0	138.07631301879883	
9	23.21731400489807	movie	1		298.0	7.0	2.5	/experiments/knapen_aot/videos/R_S_yt-9qXwehMoX7o_50.mp4	0.0	138.0856261253357	2.5072009563446045
9	25.724514961242676	fix_post	2		12.0	7.0	2.5	/experiments/knapen_aot/videos/R_S_yt-9qXwehMoX7o_50.mp4	0.0	140.5928270816803	0.10004687309265137
10	25.824561834335327	fix_pre	0		26.0	8.0	2.5	/experiments/knapen_aot/videos/S_ILSVRC2015_train_00654000.mp4	0.0	140.69287395477295	0.21660614013671875
10	26.032984972000122	response	0	2		8.0	2.5	/experiments/knapen_aot/videos/S_ILSVRC2015_train_00654000.mp4	0.0	140.90129709243774	
10	26.041167974472046	movie	1		301.0	8.0	2.5	/experiments/knapen_aot/videos/S_ILSVRC2015_train_00654000.mp4	0.0	140.90948009490967	2.508323907852173
10	28.54949188232422	fix_post	2		12.0	8.0	2.5	/experiments/knapen_aot/videos/S_ILSVRC2015_train_00654000.mp4	0.0	143.41780400276184	0.10004091262817383
11	28.649532794952393	fix_pre	0		41.0	9.0	2.5	/experiments/knapen_aot/videos/R_S_yt-14tjqjjjAEI_15.mp4	0.0	143.51784491539001	0.34157609939575195
11	28.982847929000854	response	0	2		9.0	2.5	/experiments/knapen_aot/videos/R_S_yt-14tjqjjjAEI_15.mp4	0.0	143.85116004943848	
11	28.991108894348145	movie	1		300.0	9.0	2.5	/experiments/knapen_aot/videos/R_S_yt-14tjqjjjAEI_15.mp4	0.0	143.85942101478577	2.508423089981079
11	31.499531984329224	fix_post	2		12.0	9.0	2.5	/experiments/knapen_aot/videos/R_S_yt-14tjqjjjAEI_15.mp4	0.0	146.36784410476685	0.09990882873535156
12	31.599440813064575	fix_pre	0		23.0	10.0	2.5	/experiments/knapen_aot/videos/R_S_BO_A012_C031_SDR_20190726_SDR_2K_AVC.mp4	0.0	146.4677529335022	0.19168400764465332
12	31.782811880111694	response	0	2		10.0	2.5	/experiments/knapen_aot/videos/R_S_BO_A012_C031_SDR_20190726_SDR_2K_AVC.mp4	0.0	146.65112400054932	
12	31.79112482070923	movie	1		166.0	10.0	2.5	/experiments/knapen_aot/videos/R_S_BO_A012_C031_SDR_20190726_SDR_2K_AVC.mp4	0.0	146.65943694114685	2.50838303565979
12	34.29950785636902	fix_post	2		12.0	10.0	2.5	/experiments/knapen_aot/videos/R_S_BO_A012_C031_SDR_20190726_SDR_2K_AVC.mp4	0.0	149.16781997680664	0.10021805763244629
13	34.399725914001465	fix_pre	0		71.0	11.0	2.5	/experiments/knapen_aot/videos/S_ILSVRC2015_train_00303008.mp4	0.0	149.2680380344391	0.5914139747619629
13	34.98450684547424	response	0	2		11.0	2.5	/experiments/knapen_aot/videos/S_ILSVRC2015_train_00303008.mp4	0.0	149.85281896591187	
13	34.99113988876343	movie	1		301.0	11.0	2.5	/experiments/knapen_aot/videos/S_ILSVRC2015_train_00303008.mp4	0.0	149.85945200920105	2.5083460807800293
13	37.49948596954346	fix_post	2		12.0	11.0	2.5	/experiments/knapen_aot/videos/S_ILSVRC2015_train_00303008.mp4	0.0	152.36779808998108	0.10001492500305176
14	37.59950089454651	fix_pre	0		40.0	12.0	2.5	blank	1.0	152.46781301498413	0.3333320617675781
14	37.924619913101196	response	0	2		12.0	2.5	blank	1.0	152.79293203353882	
14	37.93283295631409	movie	1		301.0	12.0	2.5	blank	1.0	152.8011450767517	2.508331060409546
14	40.44116401672363	fix_post	2		12.0	12.0	2.5	blank	1.0	155.30947613716125	0.09993386268615723
15	40.54109787940979	fix_pre	0		35.0	13.0	2.5	/experiments/knapen_aot/videos/S_pexels-ron-lach-8071987.mp4	0.0	155.4094099998474	0.2916741371154785
15	40.824522972106934	response	0	2		13.0	2.5	/experiments/knapen_aot/videos/S_pexels-ron-lach-8071987.mp4	0.0	155.69283509254456	
15	40.83277201652527	movie	1		196.0	13.0	2.5	/experiments/knapen_aot/videos/S_pexels-ron-lach-8071987.mp4	0.0	155.7010841369629	2.5086209774017334
15	43.341392993927	fix_post	2		12.0	13.0	2.5	/experiments/knapen_aot/videos/S_pexels-ron-lach-8071987.mp4	0.0	158.20970511436462	0.09975600242614746
16	43.44114899635315	fix_pre	0		54.0	14.0	2.5	/experiments/knapen_aot/videos/S_yt-tX5U0Lyo6Gs_376.mp4	0.0	158.30946111679077	0.44996190071105957
16	43.88297200202942	response	0	2		14.0	2.5	/experiments/knapen_aot/videos/S_yt-tX5U0Lyo6Gs_376.mp4	0.0	158.75128412246704	
16	43.89111089706421	movie	1		301.0	14.0	2.5	/experiments/knapen_aot/videos/S_yt-tX5U0Lyo6Gs_376.mp4	0.0	158.75942301750183	2.508359909057617
16	46.399470806121826	fix_post	2		12.0	14.0	2.5	/experiments/knapen_aot/videos/S_yt-tX5U0Lyo6Gs_376.mp4	0.0	161.26778292655945	0.09999704360961914
17	46.499467849731445	fix_pre	0		28.0	15.0	2.5	/experiments/knapen_aot/videos/S_yt-W00vtWnXgIk_73.mp4	0.0	161.36777997016907	0.2332780361175537
17	46.72460079193115	response	0	2		15.0	2.5	/experiments/knapen_aot/videos/S_yt-W00vtWnXgIk_73.mp4	0.0	161.59291291236877	
17	46.732745885849	movie	1		300.0	15.0	2.5	/experiments/knapen_aot/videos/S_yt-W00vtWnXgIk_73.mp4	0.0	161.60105800628662	2.5083439350128174
17	49.241089820861816	fix_post	2		12.0	15.0	2.5	/experiments/knapen_aot/videos/S_yt-W00vtWnXgIk_73.mp4	0.0	164.10940194129944	0.10002517700195312
18	49.34111499786377	fix_pre	0		26.0	16.0	2.5	/experiments/knapen_aot/videos/R_S_video-2_copy.mp4	0.0	164.2094271183014	0.21661901473999023
18	49.54953098297119	response	0	2		16.0	2.5	/experiments/knapen_aot/videos/R_S_video-2_copy.mp4	0.0	164.4178431034088	
18	49.55773401260376	movie	1		166.0	16.0	2.5	/experiments/knapen_aot/videos/R_S_video-2_copy.mp4	0.0	164.42604613304138	2.5083518028259277
18	52.06608581542969	fix_post	2		12.0	16.0	2.5	/experiments/knapen_aot/videos/R_S_video-2_copy.mp4	0.0	166.9343979358673	0.1000220775604248
19	52.16610789299011	fix_pre	0		35.0	17.0	2.5	/experiments/knapen_aot/videos/R_S_yt-fQGoTMausn8_88.mp4	0.0	167.03442001342773	0.29163289070129395
19	52.44956684112549	response	0	2		17.0	2.5	/experiments/knapen_aot/videos/R_S_yt-fQGoTMausn8_88.mp4	0.0	167.3178789615631	
19	52.457740783691406	movie	1		301.0	17.0	2.5	/experiments/knapen_aot/videos/R_S_yt-fQGoTMausn8_88.mp4	0.0	167.32605290412903	2.508341073989868
19	54.966081857681274	fix_post	2		12.0	17.0	2.5	/experiments/knapen_aot/videos/R_S_yt-fQGoTMausn8_88.mp4	0.0	169.8343939781189	0.10000896453857422
20	55.06609082221985	fix_pre	0		36.0	18.0	2.5	/experiments/knapen_aot/videos/R_S_comp_CH_C007_C004_PSNK_v02_SDR_PS_FINAL_20180709_SDR_2K_AVC.mp4	0.0	169.93440294265747	0.299968957901001
20	55.35797381401062	response	0	2		18.0	2.5	/experiments/knapen_aot/videos/R_S_comp_CH_C007_C004_PSNK_v02_SDR_PS_FINAL_20180709_SDR_2K_AVC.mp4	0.0	170.22628593444824	
20	55.36605978012085	movie	1		173.0	18.0	2.5	/experiments/knapen_aot/videos/R_S_comp_CH_C007_C004_PSNK_v02_SDR_PS_FINAL_20180709_SDR_2K_AVC.mp4	0.0	170.23437190055847	2.50834321975708
20	57.87440299987793	fix_post	2		12.0	18.0	2.5	/experiments/knapen_aot/videos/R_S_comp_CH_C007_C004_PSNK_v02_SDR_PS_FINAL_20180709_SDR_2K_AVC.mp4	0.0	172.74271512031555	0.10001683235168457
21	57.974419832229614	fix_pre	0		34.0	19.0	2.5	/experiments/knapen_aot/videos/R_S_yt-ZE8Af60eNsI_15.mp4	0.0	172.84273195266724	0.28426408767700195
21	58.249568939208984	response	0	2		19.0	2.5	/experiments/knapen_aot/videos/R_S_yt-ZE8Af60eNsI_15.mp4	0.0	173.1178810596466	
21	58.258683919906616	movie	1		301.0	19.0	2.5	/experiments/knapen_aot/videos/R_S_yt-ZE8Af60eNsI_15.mp4	0.0	173.12699604034424	2.507382869720459
21	60.766066789627075	fix_post	2		12.0	19.0	2.5	/experiments/knapen_aot/videos/R_S_yt-ZE8Af60eNsI_15.mp4	0.0	175.6343789100647	0.0999901294708252
22	60.8660569190979	fix_pre	0		55.0	20.0	2.5	blank	1.0	175.73436903953552	0.458345890045166
22	61.31619191169739	response	0	2		20.0	2.5	blank	1.0	176.184504032135	
22	61.324402809143066	movie	1		301.0	20.0	2.5	blank	1.0	176.1927149295807	2.5083281993865967
22	63.83273100852966	fix_post	2		12.0	20.0	2.5	blank	1.0	178.70104312896729	0.09998583793640137
23	63.932716846466064	fix_pre	0		158.0	21.0	2.5	/experiments/knapen_aot/videos/R_S_pexels-cottonbro-6789228.mp4	0.0	178.8010289669037	1.3165810108184814
23	65.24115180969238	response	0	2		21.0	2.5	/experiments/knapen_aot/videos/R_S_pexels-cottonbro-6789228.mp4	0.0	180.10946393013	
23	65.24929785728455	movie	1		198.0	21.0	2.5	/experiments/knapen_aot/videos/R_S_pexels-cottonbro-6789228.mp4	0.0	180.11760997772217	2.508392095565796
23	67.75768995285034	fix_post	2		12.0	21.0	2.5	/experiments/knapen_aot/videos/R_S_pexels-cottonbro-6789228.mp4	0.0	182.62600207328796	0.09999585151672363
24	67.85768580436707	fix_pre	0		33.0	22.0	2.5	/experiments/knapen_aot/videos/R_S_ahUa35lQM6E_44.mp4	0.0	182.7259979248047	0.27588510513305664
24	68.12442398071289	response	0	2		22.0	2.5	/experiments/knapen_aot/videos/R_S_ahUa35lQM6E_44.mp4	0.0	182.9927361011505	
24	68.13357090950012	movie	1		301.0	22.0	2.5	/experiments/knapen_aot/videos/R_S_ahUa35lQM6E_44.mp4	0.0	183.00188302993774	2.507422924041748
24	70.64099383354187	fix_post	2		12.0	22.0	2.5	/experiments/knapen_aot/videos/R_S_ahUa35lQM6E_44.mp4	0.0	185.5093059539795	0.0999600887298584
25	70.74095392227173	fix_pre	0		28.0	23.0	2.5	/experiments/knapen_aot/videos/S_video_inspire_oregon_lone-ranch-beach_00015.1080-h264.mp4	0.0	185.60926604270935	0.23335886001586914
25	70.96613883972168	response	0	2		23.0	2.5	/experiments/knapen_aot/videos/S_video_inspire_oregon_lone-ranch-beach_00015.1080-h264.mp4	0.0	185.8344509601593	
25	70.9743127822876	movie	1		164.0	23.0	2.5	/experiments/knapen_aot/videos/S_video_inspire_oregon_lone-ranch-beach_00015.1080-h264.mp4	0.0	185.84262490272522	2.5083940029144287
25	73.48270678520203	fix_post	2		12.0	23.0	2.5	/experiments/knapen_aot/videos/S_video_inspire_oregon_lone-ranch-beach_00015.1080-h264.mp4	0.0	188.35101890563965	0.09995722770690918
26	73.58266401290894	fix_pre	0		52.0	24.0	2.5	/experiments/knapen_aot/videos/S_yt-jy96-k8drRE_1.mp4	0.0	188.45097613334656	0.44167280197143555
26	74.00781583786011	response	0	2		24.0	2.5	/experiments/knapen_aot/videos/S_yt-jy96-k8drRE_1.mp4	0.0	188.87612795829773	
26	74.02433681488037	movie	1		300.0	24.0	2.5	/experiments/knapen_aot/videos/S_yt-jy96-k8drRE_1.mp4	0.0	188.892648935318	2.500009059906006
26	76.52434587478638	fix_post	2		12.0	24.0	2.5	/experiments/knapen_aot/videos/S_yt-jy96-k8drRE_1.mp4	0.0	191.392657995224	0.0999460220336914
27	76.62429189682007	fix_pre	0		29.0	25.0	2.5	/experiments/knapen_aot/videos/S_yt-PYHK810V_n8_1375.mp4	0.0	191.4926040172577	0.24170589447021484
27	76.85778594017029	response	0	2		25.0	2.5	/experiments/knapen_aot/videos/S_yt-PYHK810V_n8_1375.mp4	0.0	191.7260980606079	
27	76.86599779129028	movie	1		301.0	25.0	2.5	/experiments/knapen_aot/videos/S_yt-PYHK810V_n8_1375.mp4	0.0	191.7343099117279	2.5083110332489014
27	79.37430882453918	fix_post	2		12.0	25.0	2.5	/experiments/knapen_aot/videos/S_yt-PYHK810V_n8_1375.mp4	0.0	194.2426209449768	0.10002017021179199
28	79.47432899475098	fix_pre	0		96.0	26.0	2.5	/experiments/knapen_aot/videos/R_S_yt-5fZZrdwkFx0_28.mp4	0.0	194.3426411151886	0.7999629974365234
28	80.26615285873413	response	0	2		26.0	2.5	/experiments/knapen_aot/videos/R_S_yt-5fZZrdwkFx0_28.mp4	0.0	195.13446497917175	
28	80.2742919921875	movie	1		301.0	26.0	2.5	/experiments/knapen_aot/videos/R_S_yt-5fZZrdwkFx0_28.mp4	0.0	195.14260411262512	2.508327007293701
28	82.7826189994812	fix_post	2		12.0	26.0	2.5	/experiments/knapen_aot/videos/R_S_yt-5fZZrdwkFx0_28.mp4	0.0	197.65093111991882	0.09995198249816895
29	82.88257098197937	fix_pre	0		43.0	27.0	2.5	/experiments/knapen_aot/videos/S_yt-RXqc3JAmmPM_72.mp4	0.0	197.750883102417	0.3583698272705078
29	83.23271298408508	response	0	2		27.0	2.5	/experiments/knapen_aot/videos/S_yt-RXqc3JAmmPM_72.mp4	0.0	198.1010251045227	
29	83.24094080924988	movie	1		299.0	27.0	2.5	/experiments/knapen_aot/videos/S_yt-RXqc3JAmmPM_72.mp4	0.0	198.1092529296875	2.5083041191101074
29	85.74924492835999	fix_post	2		12.0	27.0	2.5	/experiments/knapen_aot/videos/S_yt-RXqc3JAmmPM_72.mp4	0.0	200.6175570487976	0.10002708435058594
30	85.84927201271057	fix_pre	0		39.0	28.0	2.5	blank	1.0	200.7175841331482	0.3258399963378906
30	86.16604089736938	response	0	2		28.0	2.5	blank	1.0	201.034353017807	
30	86.17511200904846	movie	1		301.0	28.0	2.5	blank	1.0	201.04342412948608	2.507420778274536
30	88.682532787323	fix_post	2		12.0	28.0	2.5	blank	1.0	203.55084490776062	0.10007214546203613
31	88.78260493278503	fix_pre	0		29.0	29.0	2.5	/experiments/knapen_aot/videos/S_yt-H3EadcgKySM_58.mp4	0.0	203.65091705322266	0.24159002304077148
31	89.01609992980957	response	0	2		29.0	2.5	/experiments/knapen_aot/videos/S_yt-H3EadcgKySM_58.mp4	0.0	203.8844120502472	
31	89.0241949558258	movie	1		301.0	29.0	2.5	/experiments/knapen_aot/videos/S_yt-H3EadcgKySM_58.mp4	0.0	203.89250707626343	2.5083940029144287
31	91.53258895874023	fix_post	2		12.0	29.0	2.5	/experiments/knapen_aot/videos/S_yt-H3EadcgKySM_58.mp4	0.0	206.40090107917786	0.09997797012329102
32	91.63256692886353	fix_pre	0		88.0	30.0	2.5	/experiments/knapen_aot/videos/S_production_ID_4787635.mp4	0.0	206.50087904930115	0.7332949638366699
32	92.35774397850037	response	0	2		30.0	2.5	/experiments/knapen_aot/videos/S_production_ID_4787635.mp4	0.0	207.226056098938	
32	92.3658618927002	movie	1		164.0	30.0	2.5	/experiments/knapen_aot/videos/S_production_ID_4787635.mp4	0.0	207.23417401313782	2.5082619190216064
32	94.8741238117218	fix_post	2		12.0	30.0	2.5	/experiments/knapen_aot/videos/S_production_ID_4787635.mp4	0.0	209.74243593215942	0.10004305839538574
33	94.97416687011719	fix_pre	0		28.0	31.0	2.5	/experiments/knapen_aot/videos/R_S_yt-J-tkAYy40uY_84.mp4	0.0	209.8424789905548	0.23335599899291992
33	95.19940996170044	response	0	2		31.0	2.5	/experiments/knapen_aot/videos/R_S_yt-J-tkAYy40uY_84.mp4	0.0	210.06772208213806	
33	95.20752286911011	movie	1		301.0	31.0	2.5	/experiments/knapen_aot/videos/R_S_yt-J-tkAYy40uY_84.mp4	0.0	210.07583498954773	2.5083720684051514
33	97.71589493751526	fix_post	2		12.0	31.0	2.5	/experiments/knapen_aot/videos/R_S_yt-J-tkAYy40uY_84.mp4	0.0	212.58420705795288	0.09999299049377441
34	97.81588792800903	fix_pre	0		62.0	32.0	2.5	/experiments/knapen_aot/videos/S_yt-MTo50ReVNmU_2.mp4	0.0	212.68420004844666	0.5165610313415527
34	98.32430982589722	response	0	2		32.0	2.5	/experiments/knapen_aot/videos/S_yt-MTo50ReVNmU_2.mp4	0.0	213.19262194633484	
34	98.33244895935059	movie	1		301.0	32.0	2.5	/experiments/knapen_aot/videos/S_yt-MTo50ReVNmU_2.mp4	0.0	213.2007610797882	2.508415937423706
34	100.84086489677429	fix_post	2		12.0	32.0	2.5	/experiments/knapen_aot/videos/S_yt-MTo50ReVNmU_2.mp4	0.0	215.7091770172119	0.10000395774841309
35	100.9408688545227	fix_pre	0		42.0	33.0	2.5	/experiments/knapen_aot/videos/S_Pexels_Videos_2795731_1.mp4	0.0	215.80918097496033	0.3499610424041748
35	101.2826018333435	response	0	2		33.0	2.5	/experiments/knapen_aot/videos/S_Pexels_Videos_2795731_1.mp4	0.0	216.15091395378113	
35	101.29082989692688	movie	1		162.0	33.0	2.5	/experiments/knapen_aot/videos/S_Pexels_Videos_2795731_1.mp4	0.0	216.1591420173645	2.5083060264587402
35	103.79913592338562	fix_post	2		12.0	33.0	2.5	/experiments/knapen_aot/videos/S_Pexels_Videos_2795731_1.mp4	0.0	218.66744804382324	0.10005307197570801
36	103.89918899536133	fix_pre	0		33.0	34.0	2.5	/experiments/knapen_aot/videos/S_yt-GfPep7IhZIU_47.mp4	0.0	218.76750111579895	0.2757229804992676
36	104.16600489616394	response	0	2		34.0	2.5	/experiments/knapen_aot/videos/S_yt-GfPep7IhZIU_47.mp4	0.0	219.03431701660156	
36	104.1749119758606	movie	1		301.0	34.0	2.5	/experiments/knapen_aot/videos/S_yt-GfPep7IhZIU_47.mp4	0.0	219.04322409629822	2.5075478553771973
36	106.6824598312378	fix_post	2		12.0	34.0	2.5	/experiments/knapen_aot/videos/S_yt-GfPep7IhZIU_47.mp4	0.0	221.55077195167542	0.10000014305114746
37	106.78245997428894	fix_pre	0		33.0	35.0	2.5	blank	1.0	221.65077209472656	0.2750380039215088
37	107.04925394058228	response	0	2		35.0	2.5	blank	1.0	221.9175660610199	
37	107.05749797821045	movie	1		301.0	35.0	2.5	blank	1.0	221.92581009864807	2.5083069801330566
37	109.5658049583435	fix_post	2		12.0	35.0	2.5	blank	1.0	224.43411707878113	0.09998703002929688
38	109.6657919883728	fix_pre	0		54.0	36.0	2.5	/experiments/knapen_aot/videos/S_yt-7v3kHYBe7-E_8.mp4	0.0	224.53410410881042	0.4500110149383545
38	110.10777878761292	response	0	2		36.0	2.5	/experiments/knapen_aot/videos/S_yt-7v3kHYBe7-E_8.mp4	0.0	224.97609090805054	
38	110.11580300331116	movie	1		300.0	36.0	2.5	/experiments/knapen_aot/videos/S_yt-7v3kHYBe7-E_8.mp4	0.0	224.98411512374878	2.508272886276245
38	112.6240758895874	fix_post	2		12.0	36.0	2.5	/experiments/knapen_aot/videos/S_yt-7v3kHYBe7-E_8.mp4	0.0	227.49238801002502	0.1000669002532959
39	112.7241427898407	fix_pre	0		61.0	37.0	2.5	/experiments/knapen_aot/videos/S_video_inspire_nevada_lasvegas_northstrip_021.1080-h264.mp4	0.0	227.59245491027832	0.5083072185516357
39	113.22425889968872	response	0	2		37.0	2.5	/experiments/knapen_aot/videos/S_video_inspire_nevada_lasvegas_northstrip_021.1080-h264.mp4	0.0	228.09257102012634	
39	113.23245000839233	movie	1		173.0	37.0	2.5	/experiments/knapen_aot/videos/S_video_inspire_nevada_lasvegas_northstrip_021.1080-h264.mp4	0.0	228.10076212882996	2.50836181640625
39	115.74081182479858	fix_post	2		12.0	37.0	2.5	/experiments/knapen_aot/videos/S_video_inspire_nevada_lasvegas_northstrip_021.1080-h264.mp4	0.0	230.6091239452362	0.0999760627746582
40	115.84078788757324	fix_pre	0		68.0	38.0	2.5	/experiments/knapen_aot/videos/R_S_ILSVRC2015_train_00251004.mp4	0.0	230.70910000801086	0.5666449069976807
40	116.3993628025055	response	0	2		38.0	2.5	/experiments/knapen_aot/videos/R_S_ILSVRC2015_train_00251004.mp4	0.0	231.26767492294312	
40	116.40743279457092	movie	1		301.0	38.0	2.5	/experiments/knapen_aot/videos/R_S_ILSVRC2015_train_00251004.mp4	0.0	231.27574491500854	2.508366107940674
40	118.9157989025116	fix_post	2		12.0	38.0	2.5	/experiments/knapen_aot/videos/R_S_ILSVRC2015_train_00251004.mp4	0.0	233.78411102294922	0.10000300407409668
41	119.0158019065857	fix_pre	0		35.0	39.0	2.5	/experiments/knapen_aot/videos/R_S_yt-kA0ybjmoiMc_284.mp4	0.0	233.88411402702332	0.2916600704193115
41	119.29923701286316	response	0	2		39.0	2.5	/experiments/knapen_aot/videos/R_S_yt-kA0ybjmoiMc_284.mp4	0.0	234.16754913330078	
41	119.307461977005	movie	1		301.0	39.0	2.5	/experiments/knapen_aot/videos/R_S_yt-kA0ybjmoiMc_284.mp4	0.0	234.17577409744263	2.5082919597625732
41	121.81575393676758	fix_post	2		12.0	39.0	2.5	/experiments/knapen_aot/videos/R_S_yt-kA0ybjmoiMc_284.mp4	0.0	236.6840660572052	0.09992003440856934
42	121.91567397117615	fix_pre	0		21.0	40.0	2.5	blank	1.0	236.78398609161377	0.17577099800109863
42	122.08258891105652	response	0	2		40.0	2.5	blank	1.0	236.95090103149414	
42	122.09144496917725	movie	1		301.0	40.0	2.5	blank	1.0	236.95975708961487	2.5076658725738525
42	124.5991108417511	fix_post	2		12.0	40.0	2.5	blank	1.0	239.46742296218872	0.09999895095825195
43	124.69910979270935	fix_pre	0		85.0	41.0	2.5	/experiments/knapen_aot/videos/S_b5-3.mp4	0.0	239.56742191314697	0.7082760334014893
43	125.39927291870117	response	0	2		41.0	2.5	/experiments/knapen_aot/videos/S_b5-3.mp4	0.0	240.2675850391388	
43	125.40738582611084	movie	1		166.0	41.0	2.5	/experiments/knapen_aot/videos/S_b5-3.mp4	0.0	240.27569794654846	2.5083670616149902
43	127.91575288772583	fix_post	2		12.0	41.0	2.5	/experiments/knapen_aot/videos/S_b5-3.mp4	0.0	242.78406500816345	0.09998607635498047
44	128.0157389640808	fix_pre	0		21.0	42.0	2.5	/experiments/knapen_aot/videos/R_S_yt-J_FnFAl1uL0_143.mp4	0.0	242.88405108451843	0.17497491836547852
44	128.18253087997437	response	0	2		42.0	2.5	/experiments/knapen_aot/videos/R_S_yt-J_FnFAl1uL0_143.mp4	0.0	243.050843000412	
44	128.1907138824463	movie	1		301.0	42.0	2.5	/experiments/knapen_aot/videos/R_S_yt-J_FnFAl1uL0_143.mp4	0.0	243.0590260028839	2.508362054824829
44	130.69907593727112	fix_post	2		12.0	42.0	2.5	/experiments/knapen_aot/videos/R_S_yt-J_FnFAl1uL0_143.mp4	0.0	245.56738805770874	0.10002303123474121
45	130.79909896850586	fix_pre	0		42.0	43.0	2.5	/experiments/knapen_aot/videos/R_S_ILSVRC2015_train_00572000.mp4	0.0	245.66741108894348	0.34993481636047363
45	131.1408908367157	response	0	2		43.0	2.5	/experiments/knapen_aot/videos/R_S_ILSVRC2015_train_00572000.mp4	0.0	246.00920295715332	
45	131.14903378486633	movie	1		300.0	43.0	2.5	/experiments/knapen_aot/videos/R_S_ILSVRC2015_train_00572000.mp4	0.0	246.01734590530396	2.508390188217163
45	133.6574239730835	fix_post	2		12.0	43.0	2.5	/experiments/knapen_aot/videos/R_S_ILSVRC2015_train_00572000.mp4	0.0	248.52573609352112	0.10001683235168457
46	133.75744080543518	fix_pre	0		24.0	44.0	2.5	/experiments/knapen_aot/videos/R_S_yt-4i1b6NQ9NKs_5.mp4	0.0	248.6257529258728	0.19993805885314941
46	133.94925785064697	response	0	2		44.0	2.5	/experiments/knapen_aot/videos/R_S_yt-4i1b6NQ9NKs_5.mp4	0.0	248.8175699710846	
46	133.95737886428833	movie	1		301.0	44.0	2.5	/experiments/knapen_aot/videos/R_S_yt-4i1b6NQ9NKs_5.mp4	0.0	248.82569098472595	2.508347988128662
46	136.465726852417	fix_post	2		12.0	44.0	2.5	/experiments/knapen_aot/videos/R_S_yt-4i1b6NQ9NKs_5.mp4	0.0	251.33403897285461	0.1000361442565918
47	136.56576299667358	fix_pre	0		23.0	45.0	2.5	/experiments/knapen_aot/videos/S_yt-fymgyhmYnMI_557.mp4	0.0	251.4340751171112	0.1922008991241455
47	136.7492229938507	response	0	2		45.0	2.5	/experiments/knapen_aot/videos/S_yt-fymgyhmYnMI_557.mp4	0.0	251.61753511428833	
47	136.75796389579773	movie	1		301.0	45.0	2.5	/experiments/knapen_aot/videos/S_yt-fymgyhmYnMI_557.mp4	0.0	251.62627601623535	2.507780075073242
47	139.26574397087097	fix_post	2		12.0	45.0	2.5	/experiments/knapen_aot/videos/S_yt-fymgyhmYnMI_557.mp4	0.0	254.1340560913086	0.1000058650970459
48	139.36574983596802	fix_pre	0		37.0	46.0	2.5	/experiments/knapen_aot/videos/S_yt-ak01CHYgEOs_1383.mp4	0.0	254.23406195640564	0.3088510036468506
48	139.66588377952576	response	0	2		46.0	2.5	/experiments/knapen_aot/videos/S_yt-ak01CHYgEOs_1383.mp4	0.0	254.53419589996338	
48	139.67460083961487	movie	1		301.0	46.0	2.5	/experiments/knapen_aot/videos/S_yt-ak01CHYgEOs_1383.mp4	0.0	254.5429129600525	2.507796049118042
48	142.1823968887329	fix_post	2		12.0	46.0	2.5	/experiments/knapen_aot/videos/S_yt-ak01CHYgEOs_1383.mp4	0.0	257.05070900917053	0.10002589225769043
49	142.2824227809906	fix_pre	0		43.0	47.0	2.5	blank	1.0	257.1507349014282	0.35831212997436523
49	142.6326048374176	response	0	2		47.0	2.5	blank	1.0	257.5009169578552	
49	142.64073491096497	movie	1		301.0	47.0	2.5	blank	1.0	257.5090470314026	2.5083110332489014
49	145.14904594421387	fix_post	2		12.0	47.0	2.5	blank	1.0	260.0173580646515	0.10016489028930664
50	145.24921083450317	fix_pre	0		39.0	48.0	2.5	/experiments/knapen_aot/videos/R_S_yt-6MwA-jx56AQ_612.mp4	0.0	260.1175229549408	0.32482194900512695
50	145.56579399108887	response	0	2		48.0	2.5	/experiments/knapen_aot/videos/R_S_yt-6MwA-jx56AQ_612.mp4	0.0	260.4341061115265	
50	145.5740327835083	movie	1		298.0	48.0	2.5	/experiments/knapen_aot/videos/R_S_yt-6MwA-jx56AQ_612.mp4	0.0	260.4423449039459	2.508305072784424
50	148.08233785629272	fix_post	2		12.0	48.0	2.5	/experiments/knapen_aot/videos/R_S_yt-6MwA-jx56AQ_612.mp4	0.0	262.95064997673035	0.1000370979309082
51	148.18237495422363	fix_pre	0		28.0	49.0	2.5	/experiments/knapen_aot/videos/R_S_pexels-kelly-lacy-6756531.mp4	0.0	263.05068707466125	0.23323988914489746
51	148.407399892807	response	0	2		49.0	2.5	/experiments/knapen_aot/videos/R_S_pexels-kelly-lacy-6756531.mp4	0.0	263.27571201324463	
51	148.41561484336853	movie	1		173.0	49.0	2.5	/experiments/knapen_aot/videos/R_S_pexels-kelly-lacy-6756531.mp4	0.0	263.28392696380615	2.508366107940674
51	150.9239809513092	fix_post	2		12.0	49.0	2.5	/experiments/knapen_aot/videos/R_S_pexels-kelly-lacy-6756531.mp4	0.0	265.7922930717468	0.10010194778442383
52	151.02408289909363	fix_pre	0		28.0	50.0	2.5	/experiments/knapen_aot/videos/S_yt-5fZZrdwkFx0_28.mp4	0.0	265.89239501953125	0.23368000984191895
52	151.24912881851196	response	0	2		50.0	2.5	/experiments/knapen_aot/videos/S_yt-5fZZrdwkFx0_28.mp4	0.0	266.1174409389496	
52	151.25776290893555	movie	1		301.0	50.0	2.5	/experiments/knapen_aot/videos/S_yt-5fZZrdwkFx0_28.mp4	0.0	266.12607502937317	2.5078558921813965
52	153.76561880111694	fix_post	2		12.0	50.0	2.5	/experiments/knapen_aot/videos/S_yt-5fZZrdwkFx0_28.mp4	0.0	268.63393092155457	0.10005903244018555
53	153.86567783355713	fix_pre	0		53.0	51.0	2.5	/experiments/knapen_aot/videos/R_S_yt-PyO8-WsbaLU_43.mp4	0.0	268.73398995399475	0.44154906272888184
53	154.29911398887634	response	0	2		51.0	2.5	/experiments/knapen_aot/videos/R_S_yt-PyO8-WsbaLU_43.mp4	0.0	269.16742610931396	
53	154.307226896286	movie	1		301.0	51.0	2.5	/experiments/knapen_aot/videos/R_S_yt-PyO8-WsbaLU_43.mp4	0.0	269.17553901672363	2.5084609985351562
53	156.81568789482117	fix_post	2		12.0	51.0	2.5	/experiments/knapen_aot/videos/R_S_yt-PyO8-WsbaLU_43.mp4	0.0	271.6840000152588	0.09997010231018066
54	156.91565799713135	fix_pre	0		87.0	52.0	2.5	/experiments/knapen_aot/videos/R_S_yt-bQRBtP9zkms_111.mp4	0.0	271.78397011756897	0.7249908447265625
54	157.6248598098755	response	0	2		52.0	2.5	/experiments/knapen_aot/videos/R_S_yt-bQRBtP9zkms_111.mp4	0.0	272.4931719303131	
54	157.6406488418579	movie	1		301.0	52.0	2.5	/experiments/knapen_aot/videos/R_S_yt-bQRBtP9zkms_111.mp4	0.0	272.50896096229553	2.5083250999450684
54	160.14897394180298	fix_post	2		12.0	52.0	2.5	/experiments/knapen_aot/videos/R_S_yt-bQRBtP9zkms_111.mp4	0.0	275.0172860622406	0.10003185272216797
55	160.24900579452515	fix_pre	0		94.0	53.0	2.5	/experiments/knapen_aot/videos/S_production_ID_4510883.mp4	0.0	275.11731791496277	0.7832040786743164
55	161.02411699295044	response	0	2		53.0	2.5	/experiments/knapen_aot/videos/S_production_ID_4510883.mp4	0.0	275.89242911338806	
55	161.03220987319946	movie	1		165.0	53.0	2.5	/experiments/knapen_aot/videos/S_production_ID_4510883.mp4	0.0	275.9005219936371	2.5083999633789062
55	163.54060983657837	fix_post	2		12.0	53.0	2.5	/experiments/knapen_aot/videos/S_production_ID_4510883.mp4	0.0	278.408921957016	0.10000205039978027
56	163.64061188697815	fix_pre	0		30.0	54.0	2.5	/experiments/knapen_aot/videos/S_yt-J1dw4AznwmQ_7.mp4	0.0	278.50892400741577	0.2499558925628662
56	163.88242101669312	response	0	2		54.0	2.5	/experiments/knapen_aot/videos/S_yt-J1dw4AznwmQ_7.mp4	0.0	278.75073313713074	
56	163.89056777954102	movie	1		301.0	54.0	2.5	/experiments/knapen_aot/videos/S_yt-J1dw4AznwmQ_7.mp4	0.0	278.75887989997864	2.5084121227264404
56	166.39897990226746	fix_post	2		12.0	54.0	2.5	/experiments/knapen_aot/videos/S_yt-J1dw4AznwmQ_7.mp4	0.0	281.2672920227051	0.1000220775604248
57	166.49900197982788	fix_pre	0		46.0	55.0	2.5	/experiments/knapen_aot/videos/S_video_inspire_california_big-sur_landscape_054.1080-h264.mp4	0.0	281.3673141002655	0.38365697860717773
57	166.86660289764404	response	0	2		55.0	2.5	/experiments/knapen_aot/videos/S_video_inspire_california_big-sur_landscape_054.1080-h264.mp4	0.0	281.73491501808167	
57	166.88265895843506	movie	1		168.0	55.0	2.5	/experiments/knapen_aot/videos/S_video_inspire_california_big-sur_landscape_054.1080-h264.mp4	0.0	281.7509710788727	2.5079638957977295
57	169.3906228542328	fix_post	2		12.0	55.0	2.5	/experiments/knapen_aot/videos/S_video_inspire_california_big-sur_landscape_054.1080-h264.mp4	0.0	284.2589349746704	0.09999895095825195
58	169.49062180519104	fix_pre	0		35.0	56.0	2.5	blank	1.0	284.35893392562866	0.2916901111602783
58	169.7741138935089	response	0	2		56.0	2.5	blank	1.0	284.64242601394653	
58	169.78231191635132	movie	1		301.0	56.0	2.5	blank	1.0	284.65062403678894	2.5082309246063232
58	172.29054284095764	fix_post	2		12.0	56.0	2.5	blank	1.0	287.15885496139526	0.10002708435058594
59	172.39056992530823	fix_pre	0		49.0	57.0	2.5	/experiments/knapen_aot/videos/S_yt-y6zr69M0yHI_76.mp4	0.0	287.25888204574585	0.4086740016937256
59	172.7907009124756	response	0	2		57.0	2.5	/experiments/knapen_aot/videos/S_yt-y6zr69M0yHI_76.mp4	0.0	287.6590130329132	
59	172.79924392700195	movie	1		301.0	57.0	2.5	/experiments/knapen_aot/videos/S_yt-y6zr69M0yHI_76.mp4	0.0	287.6675560474396	2.5079450607299805
59	175.30718898773193	fix_post	2		12.0	57.0	2.5	/experiments/knapen_aot/videos/S_yt-y6zr69M0yHI_76.mp4	0.0	290.17550110816956	0.10024595260620117
60	175.40743494033813	fix_pre	0		26.0	58.0	2.5	/experiments/knapen_aot/videos/S_yt-hRAqAwRhmwE_58.mp4	0.0	290.27574706077576	0.21644091606140137
60	175.60819387435913	response	0	2		58.0	2.5	/experiments/knapen_aot/videos/S_yt-hRAqAwRhmwE_58.mp4	0.0	290.47650599479675	
60	175.62387585639954	movie	1		301.0	58.0	2.5	/experiments/knapen_aot/videos/S_yt-hRAqAwRhmwE_58.mp4	0.0	290.49218797683716	2.50832200050354
60	178.13219785690308	fix_post	2		12.0	58.0	2.5	/experiments/knapen_aot/videos/S_yt-hRAqAwRhmwE_58.mp4	0.0	293.0005099773407	0.10005593299865723
61	178.23225378990173	fix_pre	0		52.0	59.0	2.5	/experiments/knapen_aot/videos/S_ILSVRC2015_train_00165008.mp4	0.0	293.10056591033936	0.4332430362701416
61	178.65728497505188	response	0	2		59.0	2.5	/experiments/knapen_aot/videos/S_ILSVRC2015_train_00165008.mp4	0.0	293.5255970954895	
61	178.66549682617188	movie	1		301.0	59.0	2.5	/experiments/knapen_aot/videos/S_ILSVRC2015_train_00165008.mp4	0.0	293.5338089466095	2.5084071159362793
61	181.17390394210815	fix_post	2		12.0	59.0	2.5	/experiments/knapen_aot/videos/S_ILSVRC2015_train_00165008.mp4	0.0	296.0422160625458	0.09987592697143555
62	181.2737798690796	fix_pre	0		37.0	60.0	2.5	/experiments/knapen_aot/videos/S_yt-ZtS7ZrJ_rtk_525.mp4	0.0	296.1420919895172	0.30841803550720215
62	181.57396483421326	response	0	2		60.0	2.5	/experiments/knapen_aot/videos/S_yt-ZtS7ZrJ_rtk_525.mp4	0.0	296.4422769546509	
62	181.5821979045868	movie	1		301.0	60.0	2.5	/experiments/knapen_aot/videos/S_yt-ZtS7ZrJ_rtk_525.mp4	0.0	296.4505100250244	2.508347988128662
62	184.09054589271545	fix_post	2		12.0	60.0	2.5	/experiments/knapen_aot/videos/S_yt-ZtS7ZrJ_rtk_525.mp4	0.0	298.9588580131531	0.09999203681945801
63	184.1905379295349	fix_pre	0		24.0	61.0	2.5	blank	1.0	299.05885004997253	0.19993901252746582
63	184.38222289085388	response	0	2		61.0	2.5	blank	1.0	299.2505350112915	
63	184.39047694206238	movie	1		301.0	61.0	2.5	blank	1.0	299.2587890625	2.508357048034668
63	186.89883399009705	fix_post	2		12.0	61.0	2.5	blank	1.0	301.76714611053467	0.09997081756591797
64	186.99880480766296	fix_pre	0		53.0	62.0	2.5	/experiments/knapen_aot/videos/S_yt-fLNDhX22diw_98.mp4	0.0	301.8671169281006	0.4416801929473877
64	187.43232083320618	response	0	2		62.0	2.5	/experiments/knapen_aot/videos/S_yt-fLNDhX22diw_98.mp4	0.0	302.3006329536438	
64	187.44048500061035	movie	1		301.0	62.0	2.5	/experiments/knapen_aot/videos/S_yt-fLNDhX22diw_98.mp4	0.0	302.308797121048	2.508344888687134
64	189.94882988929749	fix_post	2		12.0	62.0	2.5	/experiments/knapen_aot/videos/S_yt-fLNDhX22diw_98.mp4	0.0	304.8171420097351	0.10027194023132324
65	190.0491018295288	fix_pre	0		62.0	63.0	2.5	/experiments/knapen_aot/videos/S_yt-fIEGqReekCM_10.mp4	0.0	304.91741394996643	0.5163359642028809
65	190.5572988986969	response	0	2		63.0	2.5	/experiments/knapen_aot/videos/S_yt-fIEGqReekCM_10.mp4	0.0	305.4256110191345	
65	190.5654377937317	movie	1		301.0	63.0	2.5	/experiments/knapen_aot/videos/S_yt-fIEGqReekCM_10.mp4	0.0	305.4337499141693	2.5083940029144287
65	193.07383179664612	fix_post	2		12.0	63.0	2.5	/experiments/knapen_aot/videos/S_yt-fIEGqReekCM_10.mp4	0.0	307.94214391708374	0.10027813911437988
66	193.1741099357605	fix_pre	0		35.0	64.0	2.5	/experiments/knapen_aot/videos/R_S_yt-Gc1p5CnDbDY_22.mp4	0.0	308.0424220561981	0.29163289070129395
66	193.45727586746216	response	0	2		64.0	2.5	/experiments/knapen_aot/videos/R_S_yt-Gc1p5CnDbDY_22.mp4	0.0	308.3255879878998	
66	193.4657428264618	movie	1		301.0	64.0	2.5	/experiments/knapen_aot/videos/R_S_yt-Gc1p5CnDbDY_22.mp4	0.0	308.3340549468994	2.50811505317688
66	195.97385787963867	fix_post	2		12.0	64.0	2.5	/experiments/knapen_aot/videos/R_S_yt-Gc1p5CnDbDY_22.mp4	0.0	310.8421700000763	0.09996390342712402
67	196.0738217830658	fix_pre	0		57.0	65.0	2.5	/experiments/knapen_aot/videos/R_S_yt-bQRBtP9zkms_111.mp4	0.0	310.9421339035034	0.475208044052124
67	196.540668964386	response	0	2		65.0	2.5	/experiments/knapen_aot/videos/R_S_yt-bQRBtP9zkms_111.mp4	0.0	311.4089810848236	
67	196.54902982711792	movie	1		301.0	65.0	2.5	/experiments/knapen_aot/videos/R_S_yt-bQRBtP9zkms_111.mp4	0.0	311.41734194755554	2.508126974105835
67	199.05715680122375	fix_post	2		12.0	65.0	2.5	/experiments/knapen_aot/videos/R_S_yt-bQRBtP9zkms_111.mp4	0.0	313.9254689216614	0.10000419616699219
68	199.15716099739075	fix_pre	0		64.0	66.0	2.5	/experiments/knapen_aot/videos/S_ILSVRC2015_train_00556000.mp4	0.0	314.02547311782837	0.5333199501037598
68	199.68225979804993	response	0	2		66.0	2.5	/experiments/knapen_aot/videos/S_ILSVRC2015_train_00556000.mp4	0.0	314.55057191848755	
68	199.6904809474945	movie	1		301.0	66.0	2.5	/experiments/knapen_aot/videos/S_ILSVRC2015_train_00556000.mp4	0.0	314.55879306793213	2.5083398818969727
68	202.19882082939148	fix_post	2		12.0	66.0	2.5	/experiments/knapen_aot/videos/S_ILSVRC2015_train_00556000.mp4	0.0	317.0671329498291	0.10020208358764648
69	202.29902291297913	fix_pre	0		23.0	67.0	2.5	/experiments/knapen_aot/videos/R_S_pexels-cottonbro-6789228.mp4	0.0	317.16733503341675	0.1914520263671875
69	202.48229098320007	response	0	2		67.0	2.5	/experiments/knapen_aot/videos/R_S_pexels-cottonbro-6789228.mp4	0.0	317.3506031036377	
69	202.4904749393463	movie	1		213.0	67.0	2.5	/experiments/knapen_aot/videos/R_S_pexels-cottonbro-6789228.mp4	0.0	317.35878705978394	2.508362054824829
69	204.99883699417114	fix_post	2		12.0	67.0	2.5	/experiments/knapen_aot/videos/R_S_pexels-cottonbro-6789228.mp4	0.0	319.86714911460876	0.10000991821289062
70	205.09884691238403	fix_pre	0		26.0	68.0	2.5	/experiments/knapen_aot/videos/S_yt-3NMDWrZr1Z4_255.mp4	0.0	319.96715903282166	0.21660304069519043
70	205.30725383758545	response	0	2		68.0	2.5	/experiments/knapen_aot/videos/S_yt-3NMDWrZr1Z4_255.mp4	0.0	320.17556595802307	
70	205.31544995307922	movie	1		300.0	68.0	2.5	/experiments/knapen_aot/videos/S_yt-3NMDWrZr1Z4_255.mp4	0.0	320.18376207351685	2.50833797454834
70	207.82378792762756	fix_post	2		12.0	68.0	2.5	/experiments/knapen_aot/videos/S_yt-3NMDWrZr1Z4_255.mp4	0.0	322.6921000480652	0.1001579761505127
71	207.92394590377808	fix_pre	0		49.0	69.0	2.5	blank	1.0	322.7922580242157	0.4081730842590332
71	208.32393288612366	response	0	2		69.0	2.5	blank	1.0	323.1922450065613	
71	208.3321189880371	movie	1		301.0	69.0	2.5	blank	1.0	323.20043110847473	2.508476972579956
71	210.84059596061707	fix_post	2		12.0	69.0	2.5	blank	1.0	325.7089080810547	0.09979581832885742
72	210.94039177894592	fix_pre	0		31.0	70.0	2.5	/experiments/knapen_aot/videos/R_S_yt-MSdNCUWOp4o_4.mp4	0.0	325.80870389938354	0.25832104682922363
72	211.1830129623413	response	0	2		70.0	2.5	/experiments/knapen_aot/videos/R_S_yt-MSdNCUWOp4o_4.mp4	0.0	326.05132508277893	
72	211.19871282577515	movie	1		301.0	70.0	2.5	/experiments/knapen_aot/videos/R_S_yt-MSdNCUWOp4o_4.mp4	0.0	326.06702494621277	2.508409023284912
72	213.70712184906006	fix_post	2		12.0	70.0	2.5	/experiments/knapen_aot/videos/R_S_yt-MSdNCUWOp4o_4.mp4	0.0	328.5754339694977	0.09998011589050293
73	213.80710196495056	fix_pre	0		34.0	71.0	2.5	/experiments/knapen_aot/videos/R_S_video-2_copy.mp4	0.0	328.6754140853882	0.28348302841186523
73	214.08222889900208	response	0	2		71.0	2.5	/experiments/knapen_aot/videos/R_S_video-2_copy.mp4	0.0	328.9505410194397	
73	214.09058499336243	movie	1		162.0	71.0	2.5	/experiments/knapen_aot/videos/R_S_video-2_copy.mp4	0.0	328.95889711380005	2.508194923400879
73	216.5987799167633	fix_post	2		12.0	71.0	2.5	/experiments/knapen_aot/videos/R_S_video-2_copy.mp4	0.0	331.4670920372009	0.09998202323913574
74	216.69876194000244	fix_pre	0		31.0	72.0	2.5	/experiments/knapen_aot/videos/R_S_yt-r7PeFd-hIp0_378.mp4	0.0	331.56707406044006	0.25984787940979004
74	216.94889998435974	response	0	2		72.0	2.5	/experiments/knapen_aot/videos/R_S_yt-r7PeFd-hIp0_378.mp4	0.0	331.81721210479736	
74	216.95860981941223	movie	1		301.0	72.0	2.5	/experiments/knapen_aot/videos/R_S_yt-r7PeFd-hIp0_378.mp4	0.0	331.82692193984985	2.5069010257720947
74	219.46551084518433	fix_post	2		12.0	72.0	2.5	/experiments/knapen_aot/videos/R_S_yt-r7PeFd-hIp0_378.mp4	0.0	334.33382296562195	0.0999460220336914
75	219.56545686721802	fix_pre	0		44.0	73.0	2.5	/experiments/knapen_aot/videos/S_yt-giRwl4yChlw_9.mp4	0.0	334.43376898765564	0.36661195755004883
75	219.92380285263062	response	0	2		73.0	2.5	/experiments/knapen_aot/videos/S_yt-giRwl4yChlw_9.mp4	0.0	334.79211497306824	
75	219.93206882476807	movie	1		301.0	73.0	2.5	/experiments/knapen_aot/videos/S_yt-giRwl4yChlw_9.mp4	0.0	334.8003809452057	2.5083529949188232
75	222.4404218196869	fix_post	2		12.0	73.0	2.5	/experiments/knapen_aot/videos/S_yt-giRwl4yChlw_9.mp4	0.0	337.3087339401245	0.09999203681945801
76	222.54041385650635	fix_pre	0		19.0	74.0	2.5	/experiments/knapen_aot/videos/S_yt--Ra34zJ69AU_68.mp4	0.0	337.40872597694397	0.15829706192016602
76	222.69052481651306	response	0	2		74.0	2.5	/experiments/knapen_aot/videos/S_yt--Ra34zJ69AU_68.mp4	0.0	337.5588369369507	
76	222.6987109184265	movie	1		301.0	74.0	2.5	/experiments/knapen_aot/videos/S_yt--Ra34zJ69AU_68.mp4	0.0	337.56702303886414	2.5083999633789062
76	225.20711088180542	fix_post	2		12.0	74.0	2.5	/experiments/knapen_aot/videos/S_yt--Ra34zJ69AU_68.mp4	0.0	340.07542300224304	0.09995293617248535
77	225.3070638179779	fix_pre	0		43.0	75.0	2.5	blank	1.0	340.1753759384155	0.35831713676452637
77	225.65720295906067	response	0	2		75.0	2.5	blank	1.0	340.5255150794983	
77	225.66538095474243	movie	1		301.0	75.0	2.5	blank	1.0	340.53369307518005	2.5084519386291504
77	228.17383289337158	fix_post	2		12.0	75.0	2.5	blank	1.0	343.0421450138092	0.09989595413208008
78	228.27372884750366	fix_pre	0		46.0	76.0	2.5	/experiments/knapen_aot/videos/S_yt-3NMDWrZr1Z4_255.mp4	0.0	343.1420409679413	0.3833119869232178
78	228.6488139629364	response	0	2		76.0	2.5	/experiments/knapen_aot/videos/S_yt-3NMDWrZr1Z4_255.mp4	0.0	343.517126083374	
78	228.65704083442688	movie	1		301.0	76.0	2.5	/experiments/knapen_aot/videos/S_yt-3NMDWrZr1Z4_255.mp4	0.0	343.5253529548645	2.5082671642303467
78	231.16530799865723	fix_post	2		12.0	76.0	2.5	/experiments/knapen_aot/videos/S_yt-3NMDWrZr1Z4_255.mp4	0.0	346.03362011909485	0.10004401206970215
79	231.26535201072693	fix_pre	0		163.0	77.0	2.5	/experiments/knapen_aot/videos/S_bing-www_dailymotion_com_video_x64hzm7_8.mp4	0.0	346.13366413116455	1.358320951461792
79	232.6155068874359	response	0	2		77.0	2.5	/experiments/knapen_aot/videos/S_bing-www_dailymotion_com_video_x64hzm7_8.mp4	0.0	347.48381900787354	
79	232.62367296218872	movie	1		168.0	77.0	2.5	/experiments/knapen_aot/videos/S_bing-www_dailymotion_com_video_x64hzm7_8.mp4	0.0	347.49198508262634	2.508378028869629
79	235.13205099105835	fix_post	2		12.0	77.0	2.5	/experiments/knapen_aot/videos/S_bing-www_dailymotion_com_video_x64hzm7_8.mp4	0.0	350.000363111496	0.09989094734191895
80	235.23194193840027	fix_pre	0		47.0	78.0	2.5	/experiments/knapen_aot/videos/R_S_yt-JGKdBO2Ldzo_93.mp4	0.0	350.1002540588379	0.39170193672180176
80	235.61539483070374	response	0	2		78.0	2.5	/experiments/knapen_aot/videos/R_S_yt-JGKdBO2Ldzo_93.mp4	0.0	350.48370695114136	
80	235.62364387512207	movie	1		301.0	78.0	2.5	/experiments/knapen_aot/videos/R_S_yt-JGKdBO2Ldzo_93.mp4	0.0	350.4919559955597	2.5083959102630615
80	238.13203978538513	fix_post	2		12.0	78.0	2.5	/experiments/knapen_aot/videos/R_S_yt-JGKdBO2Ldzo_93.mp4	0.0	353.00035190582275	0.09996914863586426
81	238.232008934021	fix_pre	0		48.0	79.0	2.5	/experiments/knapen_aot/videos/R_S_production_ID_4325509.mp4	0.0	353.1003210544586	0.4000060558319092
81	238.6237678527832	response	0	2		79.0	2.5	/experiments/knapen_aot/videos/R_S_production_ID_4325509.mp4	0.0	353.4920799732208	
81	238.6320149898529	movie	1		199.0	79.0	2.5	/experiments/knapen_aot/videos/R_S_production_ID_4325509.mp4	0.0	353.5003271102905	2.508293867111206
81	241.1403088569641	fix_post	2		12.0	79.0	2.5	/experiments/knapen_aot/videos/R_S_production_ID_4325509.mp4	0.0	356.00862097740173	0.10005307197570801
82	241.24036192893982	fix_pre	0		18.0	80.0	2.5	/experiments/knapen_aot/videos/S_ILSVRC2015_train_00017007.mp4	0.0	356.10867404937744	0.15000486373901367
82	241.374666929245	response	0	2		80.0	2.5	/experiments/knapen_aot/videos/S_ILSVRC2015_train_00017007.mp4	0.0	356.2429790496826	
82	241.39036679267883	movie	1		301.0	80.0	2.5	/experiments/knapen_aot/videos/S_ILSVRC2015_train_00017007.mp4	0.0	356.25867891311646	2.5082461833953857
82	243.89861297607422	fix_post	2		12.0	80.0	2.5	/experiments/knapen_aot/videos/S_ILSVRC2015_train_00017007.mp4	0.0	358.76692509651184	0.0999608039855957
83	243.99857378005981	fix_pre	0		17.0	81.0	2.5	/experiments/knapen_aot/videos/S_pexels-mart-production-7698911.mp4	0.0	358.86688590049744	0.14172101020812988
83	244.13209986686707	response	0	2		81.0	2.5	/experiments/knapen_aot/videos/S_pexels-mart-production-7698911.mp4	0.0	359.0004119873047	
83	244.14029479026794	movie	1		196.0	81.0	2.5	/experiments/knapen_aot/videos/S_pexels-mart-production-7698911.mp4	0.0	359.00860691070557	2.508334159851074
83	246.64862895011902	fix_post	2		12.0	81.0	2.5	/experiments/knapen_aot/videos/S_pexels-mart-production-7698911.mp4	0.0	361.51694107055664	0.09996891021728516
84	246.7485978603363	fix_pre	0		51.0	82.0	2.5	/experiments/knapen_aot/videos/S_yt-9t5-3Qe_t9A_591.mp4	0.0	361.6169099807739	0.42501091957092285
84	247.16545987129211	response	0	2		82.0	2.5	/experiments/knapen_aot/videos/S_yt-9t5-3Qe_t9A_591.mp4	0.0	362.03377199172974	
84	247.17360877990723	movie	1		301.0	82.0	2.5	/experiments/knapen_aot/videos/S_yt-9t5-3Qe_t9A_591.mp4	0.0	362.04192090034485	2.5083580017089844
84	249.6819667816162	fix_post	2		12.0	82.0	2.5	/experiments/knapen_aot/videos/S_yt-9t5-3Qe_t9A_591.mp4	0.0	364.55027890205383	0.10014200210571289
85	249.78210878372192	fix_pre	0		39.0	83.0	2.5	blank	1.0	364.65042090415955	0.3249020576477051
85	250.0987048149109	response	0	2		83.0	2.5	blank	1.0	364.9670169353485	
85	250.10701084136963	movie	1		301.0	83.0	2.5	blank	1.0	364.97532296180725	2.508272171020508
85	252.61528301239014	fix_post	2		12.0	83.0	2.5	blank	1.0	367.48359513282776	0.1000669002532959
87	252.71534991264343	stim	0		145.0					367.58366203308105	1.2082040309906006
87	253.91552090644836	response	0	space						368.783833026886	
