trial_nr	onset	event_type	phase	response	nr_frames	movie_index	movie_duration	movie_file	blank	onset_abs	duration
0	0.14954686164855957	stim	0		45.0					262.0885319709778	0.37529802322387695
0	0.5169358253479004	response	0	space						262.4559209346771	
1	0.5248448848724365	stim	0		121.0					262.46382999420166	1.0080790519714355
1	1.532923936843872	stim	1		120.0					263.4719090461731	0.9999890327453613
1	2.2080368995666504	response	1	space						264.1470220088959	
2	2.5329129695892334	fix_pre	0		35.0	0.0	2.5	/experiments/knapen_aot/videos/S_pexels-mart-production-7279749.mp4	0.0	264.47189807891846	0.291640043258667
2	2.816340923309326	response	0	space		0.0	2.5	/experiments/knapen_aot/videos/S_pexels-mart-production-7279749.mp4	0.0	264.75532603263855	
2	2.8245530128479004	movie	1		168.0	0.0	2.5	/experiments/knapen_aot/videos/S_pexels-mart-production-7279749.mp4	0.0	264.7635381221771	2.508281946182251
2	5.332834959030151	fix_post	2		12.0	0.0	2.5	/experiments/knapen_aot/videos/S_pexels-mart-production-7279749.mp4	0.0	267.2718200683594	0.09999990463256836
3	5.43283486366272	fix_pre	0		59.0	1.0	2.5	/experiments/knapen_aot/videos/R_S_wc-PsidKmkEV7Km_14.mp4	0.0	267.37181997299194	0.49434399604797363
3	5.921090841293335	response	0	2		1.0	2.5	/experiments/knapen_aot/videos/R_S_wc-PsidKmkEV7Km_14.mp4	0.0	267.86007595062256	
3	5.927178859710693	movie	1		167.0	1.0	2.5	/experiments/knapen_aot/videos/R_S_wc-PsidKmkEV7Km_14.mp4	0.0	267.8661639690399	2.505711078643799
3	8.432889938354492	fix_post	2		12.0	1.0	2.5	/experiments/knapen_aot/videos/R_S_wc-PsidKmkEV7Km_14.mp4	0.0	270.3718750476837	0.099945068359375
4	8.532835006713867	fix_pre	0		19.0	2.0	2.5	/experiments/knapen_aot/videos/R_S_ILSVRC2015_train_00371013.mp4	0.0	270.4718201160431	0.15831899642944336
4	8.675431966781616	response	0	2		2.0	2.5	/experiments/knapen_aot/videos/R_S_ILSVRC2015_train_00371013.mp4	0.0	270.61441707611084	
4	8.69115400314331	movie	1		300.0	2.0	2.5	/experiments/knapen_aot/videos/R_S_ILSVRC2015_train_00371013.mp4	0.0	270.63013911247253	2.508357048034668
4	11.199511051177979	fix_post	2		12.0	2.0	2.5	/experiments/knapen_aot/videos/R_S_ILSVRC2015_train_00371013.mp4	0.0	273.1384961605072	0.10001492500305176
5	11.29952597618103	fix_pre	0		28.0	3.0	2.5	/experiments/knapen_aot/videos/S_video_inspire_california_santa-barbara_050.1080-h264.mp4	0.0	273.23851108551025	0.23325705528259277
5	11.524679899215698	response	0	2		3.0	2.5	/experiments/knapen_aot/videos/S_video_inspire_california_santa-barbara_050.1080-h264.mp4	0.0	273.4636650085449	
5	11.532783031463623	movie	1		166.0	3.0	2.5	/experiments/knapen_aot/videos/S_video_inspire_california_santa-barbara_050.1080-h264.mp4	0.0	273.47176814079285	2.508448839187622
5	14.041231870651245	fix_post	2		12.0	3.0	2.5	/experiments/knapen_aot/videos/S_video_inspire_california_santa-barbara_050.1080-h264.mp4	0.0	275.98021697998047	0.10003399848937988
6	14.141265869140625	fix_pre	0		40.0	4.0	2.5	/experiments/knapen_aot/videos/S_yt-1V0KJEc4cJ4_203.mp4	0.0	276.08025097846985	0.33445310592651367
6	14.46626591682434	response	0	2		4.0	2.5	/experiments/knapen_aot/videos/S_yt-1V0KJEc4cJ4_203.mp4	0.0	276.40525102615356	
6	14.475718975067139	movie	1		301.0	4.0	2.5	/experiments/knapen_aot/videos/S_yt-1V0KJEc4cJ4_203.mp4	0.0	276.41470408439636	2.5071568489074707
6	16.98287582397461	fix_post	2		12.0	4.0	2.5	/experiments/knapen_aot/videos/S_yt-1V0KJEc4cJ4_203.mp4	0.0	278.92186093330383	0.10008120536804199
7	17.08295702934265	fix_pre	0		56.0	5.0	2.5	blank	1.0	279.0219421386719	0.4665818214416504
7	17.541313886642456	response	0	2		5.0	2.5	blank	1.0	279.4802989959717	
7	17.5495388507843	movie	1		301.0	5.0	2.5	blank	1.0	279.4885239601135	2.50826096534729
7	20.057799816131592	fix_post	2		12.0	5.0	2.5	blank	1.0	281.9967849254608	0.1000511646270752
8	20.157850980758667	fix_pre	0		56.0	6.0	2.5	/experiments/knapen_aot/videos/S_yt-8fQ9LaF8U10_382.mp4	0.0	282.0968360900879	0.4665858745574951
8	20.616230010986328	response	0	2		6.0	2.5	/experiments/knapen_aot/videos/S_yt-8fQ9LaF8U10_382.mp4	0.0	282.55521512031555	
8	20.624436855316162	movie	1		301.0	6.0	2.5	/experiments/knapen_aot/videos/S_yt-8fQ9LaF8U10_382.mp4	0.0	282.5634219646454	2.5083770751953125
8	23.132813930511475	fix_post	2		12.0	6.0	2.5	/experiments/knapen_aot/videos/S_yt-8fQ9LaF8U10_382.mp4	0.0	285.0717990398407	0.10002303123474121
9	23.232836961746216	fix_pre	0		30.0	7.0	2.5	/experiments/knapen_aot/videos/S_wc-TAGpcap1KdAS_212.mp4	0.0	285.17182207107544	0.24989604949951172
9	23.47460699081421	response	0	2		7.0	2.5	/experiments/knapen_aot/videos/S_wc-TAGpcap1KdAS_212.mp4	0.0	285.41359210014343	
9	23.482733011245728	movie	1		301.0	7.0	2.5	/experiments/knapen_aot/videos/S_wc-TAGpcap1KdAS_212.mp4	0.0	285.42171812057495	2.5084238052368164
9	25.991156816482544	fix_post	2		12.0	7.0	2.5	/experiments/knapen_aot/videos/S_wc-TAGpcap1KdAS_212.mp4	0.0	287.93014192581177	0.09996414184570312
10	26.091120958328247	fix_pre	0		50.0	8.0	2.5	/experiments/knapen_aot/videos/R_S_yt-GETRVzxihhM_74.mp4	0.0	288.03010606765747	0.4166579246520996
10	26.49957299232483	response	0	2		8.0	2.5	/experiments/knapen_aot/videos/R_S_yt-GETRVzxihhM_74.mp4	0.0	288.43855810165405	
10	26.507778882980347	movie	1		301.0	8.0	2.5	/experiments/knapen_aot/videos/R_S_yt-GETRVzxihhM_74.mp4	0.0	288.44676399230957	2.5083720684051514
10	29.016150951385498	fix_post	2		12.0	8.0	2.5	/experiments/knapen_aot/videos/R_S_yt-GETRVzxihhM_74.mp4	0.0	290.9551360607147	0.09998607635498047
11	29.11613702774048	fix_pre	0		54.0	9.0	2.5	/experiments/knapen_aot/videos/S_yt-FoO02U39gy4_398.mp4	0.0	291.0551221370697	0.4498758316040039
11	29.55791187286377	response	0	2		9.0	2.5	/experiments/knapen_aot/videos/S_yt-FoO02U39gy4_398.mp4	0.0	291.496896982193	
11	29.566012859344482	movie	1		301.0	9.0	2.5	/experiments/knapen_aot/videos/S_yt-FoO02U39gy4_398.mp4	0.0	291.5049979686737	2.5084121227264404
11	32.07442498207092	fix_post	2		12.0	9.0	2.5	/experiments/knapen_aot/videos/S_yt-FoO02U39gy4_398.mp4	0.0	294.01341009140015	0.09999585151672363
12	32.17442083358765	fix_pre	0		128.0	10.0	2.5	/experiments/knapen_aot/videos/R_S_OdxWh1oU8e8_1.mp4	0.0	294.11340594291687	1.0666310787200928
12	33.23287796974182	response	0	2		10.0	2.5	/experiments/knapen_aot/videos/R_S_OdxWh1oU8e8_1.mp4	0.0	295.17186307907104	
12	33.24105191230774	movie	1		301.0	10.0	2.5	/experiments/knapen_aot/videos/R_S_OdxWh1oU8e8_1.mp4	0.0	295.18003702163696	2.508350133895874
12	35.74940204620361	fix_post	2		12.0	10.0	2.5	/experiments/knapen_aot/videos/R_S_OdxWh1oU8e8_1.mp4	0.0	297.68838715553284	0.10005497932434082
13	35.849457025527954	fix_pre	0		42.0	11.0	2.5	/experiments/knapen_aot/videos/R_S_yt-9CUR6mjzaiY_85.mp4	0.0	297.7884421348572	0.3499410152435303
13	36.19120383262634	response	0	2		11.0	2.5	/experiments/knapen_aot/videos/R_S_yt-9CUR6mjzaiY_85.mp4	0.0	298.13018894195557	
13	36.199398040771484	movie	1		301.0	11.0	2.5	/experiments/knapen_aot/videos/R_S_yt-9CUR6mjzaiY_85.mp4	0.0	298.1383831501007	2.5083189010620117
13	38.707716941833496	fix_post	2		12.0	11.0	2.5	/experiments/knapen_aot/videos/R_S_yt-9CUR6mjzaiY_85.mp4	0.0	300.6467020511627	0.10002708435058594
14	38.80774402618408	fix_pre	0		46.0	12.0	2.5	/experiments/knapen_aot/videos/S_production_ID_4802716.mp4	0.0	300.7467291355133	0.38335084915161133
14	39.175312995910645	response	0	2		12.0	2.5	/experiments/knapen_aot/videos/S_production_ID_4802716.mp4	0.0	301.11429810523987	
14	39.19109487533569	movie	1		165.0	12.0	2.5	/experiments/knapen_aot/videos/S_production_ID_4802716.mp4	0.0	301.1300799846649	2.508208990097046
14	41.69930386543274	fix_post	2		12.0	12.0	2.5	/experiments/knapen_aot/videos/S_production_ID_4802716.mp4	0.0	303.63828897476196	0.1000831127166748
15	41.799386978149414	fix_pre	0		42.0	13.0	2.5	/experiments/knapen_aot/videos/R_S_yt-8aJDzfAaArQ_75.mp4	0.0	303.73837208747864	0.35001206398010254
15	42.1411988735199	response	0	2		13.0	2.5	/experiments/knapen_aot/videos/R_S_yt-8aJDzfAaArQ_75.mp4	0.0	304.0801839828491	
15	42.14939904212952	movie	1		301.0	13.0	2.5	/experiments/knapen_aot/videos/R_S_yt-8aJDzfAaArQ_75.mp4	0.0	304.08838415145874	2.5082828998565674
15	44.657681941986084	fix_post	2		12.0	13.0	2.5	/experiments/knapen_aot/videos/R_S_yt-8aJDzfAaArQ_75.mp4	0.0	306.5966670513153	0.09991788864135742
16	44.75759983062744	fix_pre	0		43.0	14.0	2.5	blank	1.0	306.69658493995667	0.3584601879119873
16	45.10781002044678	response	0	2		14.0	2.5	blank	1.0	307.046795129776	
16	45.11606001853943	movie	1		301.0	14.0	2.5	blank	1.0	307.05504512786865	2.5083229541778564
16	47.624382972717285	fix_post	2		12.0	14.0	2.5	blank	1.0	309.5633680820465	0.099945068359375
17	47.72432804107666	fix_pre	0		57.0	15.0	2.5	/experiments/knapen_aot/videos/R_S_9smWynsk6sI_158.mp4	0.0	309.6633131504059	0.47500085830688477
17	48.191195011138916	response	0	2		15.0	2.5	/experiments/knapen_aot/videos/R_S_9smWynsk6sI_158.mp4	0.0	310.13018012046814	
17	48.199328899383545	movie	1		301.0	15.0	2.5	/experiments/knapen_aot/videos/R_S_9smWynsk6sI_158.mp4	0.0	310.13831400871277	2.5083630084991455
17	50.70769190788269	fix_post	2		12.0	15.0	2.5	/experiments/knapen_aot/videos/R_S_9smWynsk6sI_158.mp4	0.0	312.6466770172119	0.09999513626098633
18	50.80768704414368	fix_pre	0		192.0	16.0	2.5	/experiments/knapen_aot/videos/R_S_pexels-mart-production-7279749.mp4	0.0	312.7466721534729	1.5999798774719238
18	52.3994460105896	response	0	2		16.0	2.5	/experiments/knapen_aot/videos/R_S_pexels-mart-production-7279749.mp4	0.0	314.3384311199188	
18	52.4076669216156	movie	1		190.0	16.0	2.5	/experiments/knapen_aot/videos/R_S_pexels-mart-production-7279749.mp4	0.0	314.3466520309448	2.508286952972412
18	54.91595387458801	fix_post	2		12.0	16.0	2.5	/experiments/knapen_aot/videos/R_S_pexels-mart-production-7279749.mp4	0.0	316.85493898391724	0.10005617141723633
19	55.01601004600525	fix_pre	0		37.0	17.0	2.5	/experiments/knapen_aot/videos/R_S_yt-rlVzHENWufE_61.mp4	0.0	316.9549951553345	0.3082578182220459
19	55.31612801551819	response	0	2		17.0	2.5	/experiments/knapen_aot/videos/R_S_yt-rlVzHENWufE_61.mp4	0.0	317.2551131248474	
19	55.324267864227295	movie	1		300.0	17.0	2.5	/experiments/knapen_aot/videos/R_S_yt-rlVzHENWufE_61.mp4	0.0	317.2632529735565	2.5083580017089844
19	57.83262586593628	fix_post	2		12.0	17.0	2.5	/experiments/knapen_aot/videos/R_S_yt-rlVzHENWufE_61.mp4	0.0	319.7716109752655	0.09999418258666992
20	57.93262004852295	fix_pre	0		68.0	18.0	2.5	/experiments/knapen_aot/videos/S_yt-QFGyhhr1KSQ_9.mp4	0.0	319.8716051578522	0.566605806350708
20	58.49109697341919	response	0	2		18.0	2.5	/experiments/knapen_aot/videos/S_yt-QFGyhhr1KSQ_9.mp4	0.0	320.4300820827484	
20	58.49922585487366	movie	1		301.0	18.0	2.5	/experiments/knapen_aot/videos/S_yt-QFGyhhr1KSQ_9.mp4	0.0	320.4382109642029	2.5083529949188232
20	61.00757884979248	fix_post	2		12.0	18.0	2.5	/experiments/knapen_aot/videos/S_yt-QFGyhhr1KSQ_9.mp4	0.0	322.9465639591217	0.10003900527954102
21	61.10761785507202	fix_pre	0		28.0	19.0	2.5	/experiments/knapen_aot/videos/S_production_ID_5139371.mp4	0.0	323.04660296440125	0.23334002494812012
21	61.33273196220398	response	0	2		19.0	2.5	/experiments/knapen_aot/videos/S_production_ID_5139371.mp4	0.0	323.2717170715332	
21	61.34095788002014	movie	1		164.0	19.0	2.5	/experiments/knapen_aot/videos/S_production_ID_5139371.mp4	0.0	323.27994298934937	2.5082709789276123
21	63.849228858947754	fix_post	2		12.0	19.0	2.5	/experiments/knapen_aot/videos/S_production_ID_5139371.mp4	0.0	325.788213968277	0.10003805160522461
22	63.94926691055298	fix_pre	0		30.0	20.0	2.5	/experiments/knapen_aot/videos/R_S_yt-QD74nNliDvI_10.mp4	0.0	325.8882520198822	0.25004100799560547
22	64.19121789932251	response	0	2		20.0	2.5	/experiments/knapen_aot/videos/R_S_yt-QD74nNliDvI_10.mp4	0.0	326.13020300865173	
22	64.19930791854858	movie	1		301.0	20.0	2.5	/experiments/knapen_aot/videos/R_S_yt-QD74nNliDvI_10.mp4	0.0	326.1382930278778	2.5082459449768066
22	66.70755386352539	fix_post	2		12.0	20.0	2.5	/experiments/knapen_aot/videos/R_S_yt-QD74nNliDvI_10.mp4	0.0	328.6465389728546	0.10004210472106934
23	66.80759596824646	fix_pre	0		28.0	21.0	2.5	blank	1.0	328.7465810775757	0.2333240509033203
23	67.03283596038818	response	0	2		21.0	2.5	blank	1.0	328.9718210697174	
23	67.04092001914978	movie	1		301.0	21.0	2.5	blank	1.0	328.979905128479	2.508293867111206
23	69.54921388626099	fix_post	2		11.0	21.0	2.5	blank	1.0	331.4881989955902	0.09270906448364258
24	69.64192295074463	fix_pre	0		100.0	22.0	2.5	/experiments/knapen_aot/videos/R_S_yt-HFiRYTnMZxE_338.mp4	0.0	331.58090806007385	0.8332569599151611
24	70.46608686447144	response	0	2		22.0	2.5	/experiments/knapen_aot/videos/R_S_yt-HFiRYTnMZxE_338.mp4	0.0	332.40507197380066	
24	70.47517991065979	movie	1		301.0	22.0	2.5	/experiments/knapen_aot/videos/R_S_yt-HFiRYTnMZxE_338.mp4	0.0	332.414165019989	2.50740909576416
24	72.98258900642395	fix_post	2		12.0	22.0	2.5	/experiments/knapen_aot/videos/R_S_yt-HFiRYTnMZxE_338.mp4	0.0	334.9215741157532	0.09998083114624023
25	73.08256983757019	fix_pre	0		29.0	23.0	2.5	/experiments/knapen_aot/videos/R_S_yt-gDZnJCR2uXI_18.mp4	0.0	335.0215549468994	0.24164605140686035
25	73.31598496437073	response	0	2		23.0	2.5	/experiments/knapen_aot/videos/R_S_yt-gDZnJCR2uXI_18.mp4	0.0	335.25497007369995	
25	73.32421588897705	movie	1		301.0	23.0	2.5	/experiments/knapen_aot/videos/R_S_yt-gDZnJCR2uXI_18.mp4	0.0	335.2632009983063	2.5083701610565186
25	75.83258605003357	fix_post	2		12.0	23.0	2.5	/experiments/knapen_aot/videos/R_S_yt-gDZnJCR2uXI_18.mp4	0.0	337.7715711593628	0.10001182556152344
26	75.93259787559509	fix_pre	0		31.0	24.0	2.5	/experiments/knapen_aot/videos/S_yt-GETRVzxihhM_74.mp4	0.0	337.8715829849243	0.25827503204345703
26	76.17504000663757	response	0	2		24.0	2.5	/experiments/knapen_aot/videos/S_yt-GETRVzxihhM_74.mp4	0.0	338.1140251159668	
26	76.19087290763855	movie	1		300.0	24.0	2.5	/experiments/knapen_aot/videos/S_yt-GETRVzxihhM_74.mp4	0.0	338.1298580169678	2.508296012878418
26	78.69916892051697	fix_post	2		12.0	24.0	2.5	/experiments/knapen_aot/videos/S_yt-GETRVzxihhM_74.mp4	0.0	340.6381540298462	0.10001206398010254
27	78.79918098449707	fix_pre	0		31.0	25.0	2.5	/experiments/knapen_aot/videos/S_ILSVRC2015_train_00324002.mp4	0.0	340.7381660938263	0.2592959403991699
27	79.04181098937988	response	0	2		25.0	2.5	/experiments/knapen_aot/videos/S_ILSVRC2015_train_00324002.mp4	0.0	340.9807960987091	
27	79.05847692489624	movie	1		301.0	25.0	2.5	/experiments/knapen_aot/videos/S_ILSVRC2015_train_00324002.mp4	0.0	340.99746203422546	2.5073978900909424
27	81.56587481498718	fix_post	2		12.0	25.0	2.5	/experiments/knapen_aot/videos/S_ILSVRC2015_train_00324002.mp4	0.0	343.5048599243164	0.09999322891235352
28	81.66586804389954	fix_pre	0		37.0	26.0	2.5	/experiments/knapen_aot/videos/S_yt-J1dw4AznwmQ_7.mp4	0.0	343.60485315322876	0.30917787551879883
28	81.96597385406494	response	0	2		26.0	2.5	/experiments/knapen_aot/videos/S_yt-J1dw4AznwmQ_7.mp4	0.0	343.90495896339417	
28	81.97504591941833	movie	1		301.0	26.0	2.5	/experiments/knapen_aot/videos/S_yt-J1dw4AznwmQ_7.mp4	0.0	343.91403102874756	2.507477045059204
28	84.48252296447754	fix_post	2		12.0	26.0	2.5	/experiments/knapen_aot/videos/S_yt-J1dw4AznwmQ_7.mp4	0.0	346.42150807380676	0.10004305839538574
29	84.58256602287292	fix_pre	0		30.0	27.0	2.5	blank	1.0	346.52155113220215	0.24999594688415527
29	84.82421493530273	response	0	2		27.0	2.5	blank	1.0	346.76320004463196	
29	84.83256196975708	movie	1		301.0	27.0	2.5	blank	1.0	346.7715470790863	2.5082969665527344
29	87.34085893630981	fix_post	2		12.0	27.0	2.5	blank	1.0	349.27984404563904	0.10003900527954102
30	87.44089794158936	fix_pre	0		49.0	28.0	2.5	/experiments/knapen_aot/videos/S_yt-GbL63AmOIss_116.mp4	0.0	349.3798830509186	0.40911197662353516
30	87.8409149646759	response	0	2		28.0	2.5	/experiments/knapen_aot/videos/S_yt-GbL63AmOIss_116.mp4	0.0	349.7799000740051	
30	87.85000991821289	movie	1		301.0	28.0	2.5	/experiments/knapen_aot/videos/S_yt-GbL63AmOIss_116.mp4	0.0	349.7889950275421	2.5074429512023926
30	90.35745286941528	fix_post	2		12.0	28.0	2.5	/experiments/knapen_aot/videos/S_yt-GbL63AmOIss_116.mp4	0.0	352.2964379787445	0.10004210472106934
31	90.45749497413635	fix_pre	0		150.0	29.0	2.5	/experiments/knapen_aot/videos/S_yt-KLInd-KrK_w_19.mp4	0.0	352.3964800834656	1.249945878982544
31	91.69930982589722	response	0	2		29.0	2.5	/experiments/knapen_aot/videos/S_yt-KLInd-KrK_w_19.mp4	0.0	353.63829493522644	
31	91.7074408531189	movie	1		301.0	29.0	2.5	/experiments/knapen_aot/videos/S_yt-KLInd-KrK_w_19.mp4	0.0	353.6464259624481	2.508294105529785
31	94.21573495864868	fix_post	2		12.0	29.0	2.5	/experiments/knapen_aot/videos/S_yt-KLInd-KrK_w_19.mp4	0.0	356.1547200679779	0.10009098052978516
32	94.31582593917847	fix_pre	0		38.0	30.0	2.5	/experiments/knapen_aot/videos/S_pexels-pavel-danilyuk-8057714.mp4	0.0	356.2548110485077	0.3166489601135254
32	94.62423992156982	response	0	2		30.0	2.5	/experiments/knapen_aot/videos/S_pexels-pavel-danilyuk-8057714.mp4	0.0	356.56322503089905	
32	94.63247489929199	movie	1		166.0	30.0	2.5	/experiments/knapen_aot/videos/S_pexels-pavel-danilyuk-8057714.mp4	0.0	356.5714600086212	2.508362054824829
32	97.14083695411682	fix_post	2		12.0	30.0	2.5	/experiments/knapen_aot/videos/S_pexels-pavel-danilyuk-8057714.mp4	0.0	359.07982206344604	0.10000109672546387
33	97.24083805084229	fix_pre	0		53.0	31.0	2.5	/experiments/knapen_aot/videos/R_S_yt-TqVe93JCGmM_12.mp4	0.0	359.1798231601715	0.4424128532409668
33	97.67425298690796	response	0	2		31.0	2.5	/experiments/knapen_aot/videos/R_S_yt-TqVe93JCGmM_12.mp4	0.0	359.6132380962372	
33	97.68325090408325	movie	1		301.0	31.0	2.5	/experiments/knapen_aot/videos/R_S_yt-TqVe93JCGmM_12.mp4	0.0	359.6222360134125	2.507552146911621
33	100.19080305099487	fix_post	2		12.0	31.0	2.5	/experiments/knapen_aot/videos/R_S_yt-TqVe93JCGmM_12.mp4	0.0	362.1297881603241	0.09994697570800781
34	100.29075002670288	fix_pre	0		36.0	32.0	2.5	/experiments/knapen_aot/videos/R_S_yt-oVS_k_9upmo_205.mp4	0.0	362.2297351360321	0.29999279975891113
34	100.58262085914612	response	0	2		32.0	2.5	/experiments/knapen_aot/videos/R_S_yt-oVS_k_9upmo_205.mp4	0.0	362.52160596847534	
34	100.59074282646179	movie	1		299.0	32.0	2.5	/experiments/knapen_aot/videos/R_S_yt-oVS_k_9upmo_205.mp4	0.0	362.529727935791	2.508418083190918
34	103.09916090965271	fix_post	2		12.0	32.0	2.5	/experiments/knapen_aot/videos/R_S_yt-oVS_k_9upmo_205.mp4	0.0	365.03814601898193	0.09996199607849121
35	103.1991229057312	fix_pre	0		31.0	33.0	2.5	/experiments/knapen_aot/videos/S_bing-www_break_com_video_like-a-cat-catching-a-fly-3131008_12.mp4	0.0	365.1381080150604	0.2583580017089844
35	103.44926595687866	response	0	2		33.0	2.5	/experiments/knapen_aot/videos/S_bing-www_break_com_video_like-a-cat-catching-a-fly-3131008_12.mp4	0.0	365.3882510662079	
35	103.45748090744019	movie	1		301.0	33.0	2.5	/experiments/knapen_aot/videos/S_bing-www_break_com_video_like-a-cat-catching-a-fly-3131008_12.mp4	0.0	365.3964660167694	2.508315086364746
35	105.96579599380493	fix_post	2		12.0	33.0	2.5	/experiments/knapen_aot/videos/S_bing-www_break_com_video_like-a-cat-catching-a-fly-3131008_12.mp4	0.0	367.90478110313416	0.10004901885986328
36	106.0658450126648	fix_pre	0		39.0	34.0	2.5	/experiments/knapen_aot/videos/R_S_b2-4.mp4	0.0	368.004830121994	0.32567596435546875
36	106.3826539516449	response	0	2		34.0	2.5	/experiments/knapen_aot/videos/R_S_b2-4.mp4	0.0	368.3216390609741	
36	106.39152097702026	movie	1		168.0	34.0	2.5	/experiments/knapen_aot/videos/R_S_b2-4.mp4	0.0	368.3305060863495	2.5075058937072754
36	108.89902687072754	fix_post	2		12.0	34.0	2.5	/experiments/knapen_aot/videos/R_S_b2-4.mp4	0.0	370.83801198005676	0.1000521183013916
37	108.99907898902893	fix_pre	0		30.0	35.0	2.5	blank	1.0	370.93806409835815	0.24992084503173828
37	109.240886926651	response	0	2		35.0	2.5	blank	1.0	371.1798720359802	
37	109.24899983406067	movie	1		301.0	35.0	2.5	blank	1.0	371.1879849433899	2.508345127105713
37	111.75734496116638	fix_post	2		12.0	35.0	2.5	blank	1.0	373.6963300704956	0.10007905960083008
38	111.85742402076721	fix_pre	0		69.0	36.0	2.5	/experiments/knapen_aot/videos/S_yt-JDHApyT5ngs_128.mp4	0.0	373.79640913009644	0.5757718086242676
38	112.42424488067627	response	0	2		36.0	2.5	/experiments/knapen_aot/videos/S_yt-JDHApyT5ngs_128.mp4	0.0	374.3632299900055	
38	112.43319582939148	movie	1		301.0	36.0	2.5	/experiments/knapen_aot/videos/S_yt-JDHApyT5ngs_128.mp4	0.0	374.3721809387207	2.5075511932373047
38	114.94074702262878	fix_post	2		12.0	36.0	2.5	/experiments/knapen_aot/videos/S_yt-JDHApyT5ngs_128.mp4	0.0	376.879732131958	0.09996199607849121
39	115.04070901870728	fix_pre	0		62.0	37.0	2.5	/experiments/knapen_aot/videos/S_yt-Ul81y6R9YbE_12.mp4	0.0	376.9796941280365	0.5173690319061279
39	115.54922485351562	response	0	2		37.0	2.5	/experiments/knapen_aot/videos/S_yt-Ul81y6R9YbE_12.mp4	0.0	377.48820996284485	
39	115.5580780506134	movie	1		301.0	37.0	2.5	/experiments/knapen_aot/videos/S_yt-Ul81y6R9YbE_12.mp4	0.0	377.4970631599426	2.507643938064575
39	118.06572198867798	fix_post	2		12.0	37.0	2.5	/experiments/knapen_aot/videos/S_yt-Ul81y6R9YbE_12.mp4	0.0	380.0047070980072	0.09998488426208496
40	118.16570687294006	fix_pre	0		61.0	38.0	2.5	/experiments/knapen_aot/videos/R_S_yt-yAtHuDsadu8_102.mp4	0.0	380.1046919822693	0.5083210468292236
40	118.66578602790833	response	0	2		38.0	2.5	/experiments/knapen_aot/videos/R_S_yt-yAtHuDsadu8_102.mp4	0.0	380.60477113723755	
40	118.67402791976929	movie	1		301.0	38.0	2.5	/experiments/knapen_aot/videos/R_S_yt-yAtHuDsadu8_102.mp4	0.0	380.6130130290985	2.508368968963623
40	121.18239688873291	fix_post	2		12.0	38.0	2.5	/experiments/knapen_aot/videos/R_S_yt-yAtHuDsadu8_102.mp4	0.0	383.12138199806213	0.09992408752441406
41	121.28232097625732	fix_pre	0		55.0	39.0	2.5	/experiments/knapen_aot/videos/R_S_yt-iKe-0YNR5Eo_164.mp4	0.0	383.22130608558655	0.458359956741333
41	121.73248291015625	response	0	2		39.0	2.5	/experiments/knapen_aot/videos/R_S_yt-iKe-0YNR5Eo_164.mp4	0.0	383.6714680194855	
41	121.74068093299866	movie	1		301.0	39.0	2.5	/experiments/knapen_aot/videos/R_S_yt-iKe-0YNR5Eo_164.mp4	0.0	383.6796660423279	2.5082669258117676
41	124.24894785881042	fix_post	2		12.0	39.0	2.5	/experiments/knapen_aot/videos/R_S_yt-iKe-0YNR5Eo_164.mp4	0.0	386.18793296813965	0.10001897811889648
42	124.34896683692932	fix_pre	0		37.0	40.0	2.5	/experiments/knapen_aot/videos/R_S_ILSVRC2015_train_00696000.mp4	0.0	386.28795194625854	0.3083930015563965
42	124.64172387123108	response	0	2		40.0	2.5	/experiments/knapen_aot/videos/R_S_ILSVRC2015_train_00696000.mp4	0.0	386.5807089805603	
42	124.65735983848572	movie	1		301.0	40.0	2.5	/experiments/knapen_aot/videos/R_S_ILSVRC2015_train_00696000.mp4	0.0	386.59634494781494	2.508333206176758
42	127.16569304466248	fix_post	2		12.0	40.0	2.5	/experiments/knapen_aot/videos/R_S_ILSVRC2015_train_00696000.mp4	0.0	389.1046781539917	0.09994196891784668
43	127.26563501358032	fix_pre	0		46.0	41.0	2.5	/experiments/knapen_aot/videos/S_yt-BrepyEWKrPQ_20.mp4	0.0	389.20462012290955	0.383342981338501
43	127.64080786705017	response	0	2		41.0	2.5	/experiments/knapen_aot/videos/S_yt-BrepyEWKrPQ_20.mp4	0.0	389.5797929763794	
43	127.64897799491882	movie	1		301.0	41.0	2.5	/experiments/knapen_aot/videos/S_yt-BrepyEWKrPQ_20.mp4	0.0	389.58796310424805	2.508335828781128
43	130.15731382369995	fix_post	2		12.0	41.0	2.5	/experiments/knapen_aot/videos/S_yt-BrepyEWKrPQ_20.mp4	0.0	392.0962989330292	0.10000801086425781
44	130.2573218345642	fix_pre	0		45.0	42.0	2.5	blank	1.0	392.19630694389343	0.3749580383300781
44	130.62404990196228	response	0	2		42.0	2.5	blank	1.0	392.5630350112915	
44	130.6322798728943	movie	1		301.0	42.0	2.5	blank	1.0	392.5712649822235	2.508376121520996
44	133.14065599441528	fix_post	2		12.0	42.0	2.5	blank	1.0	395.0796411037445	0.10000801086425781
45	133.24066400527954	fix_pre	0		49.0	43.0	2.5	/experiments/knapen_aot/videos/S_yt-Dwgpjoikt84_122.mp4	0.0	395.17964911460876	0.40831899642944336
45	133.64082384109497	response	0	2		43.0	2.5	/experiments/knapen_aot/videos/S_yt-Dwgpjoikt84_122.mp4	0.0	395.5798089504242	
45	133.64898300170898	movie	1		301.0	43.0	2.5	/experiments/knapen_aot/videos/S_yt-Dwgpjoikt84_122.mp4	0.0	395.5879681110382	2.508335828781128
45	136.1573188304901	fix_post	2		12.0	43.0	2.5	/experiments/knapen_aot/videos/S_yt-Dwgpjoikt84_122.mp4	0.0	398.09630393981934	0.09996414184570312
46	136.25728297233582	fix_pre	0		54.0	44.0	2.5	/experiments/knapen_aot/videos/R_S_ILSVRC2015_train_00371013.mp4	0.0	398.19626808166504	0.45001792907714844
46	136.69923090934753	response	0	2		44.0	2.5	/experiments/knapen_aot/videos/R_S_ILSVRC2015_train_00371013.mp4	0.0	398.63821601867676	
46	136.70730090141296	movie	1		301.0	44.0	2.5	/experiments/knapen_aot/videos/R_S_ILSVRC2015_train_00371013.mp4	0.0	398.6462860107422	2.508307933807373
46	139.21560883522034	fix_post	2		12.0	44.0	2.5	/experiments/knapen_aot/videos/R_S_ILSVRC2015_train_00371013.mp4	0.0	401.15459394454956	0.100006103515625
47	139.31561493873596	fix_pre	0		46.0	45.0	2.5	/experiments/knapen_aot/videos/R_S_pexels-nkem-6237382.mp4	0.0	401.2546000480652	0.3833019733428955
47	139.69075798988342	response	0	2		45.0	2.5	/experiments/knapen_aot/videos/R_S_pexels-nkem-6237382.mp4	0.0	401.62974309921265	
47	139.69891691207886	movie	1		165.0	45.0	2.5	/experiments/knapen_aot/videos/R_S_pexels-nkem-6237382.mp4	0.0	401.6379020214081	2.508350133895874
47	142.20726704597473	fix_post	2		12.0	45.0	2.5	/experiments/knapen_aot/videos/R_S_pexels-nkem-6237382.mp4	0.0	404.14625215530396	0.09999799728393555
48	142.30726504325867	fix_pre	0		31.0	46.0	2.5	/experiments/knapen_aot/videos/R_S_nPwtvvPgdNc_39.mp4	0.0	404.2462501525879	0.2583498954772949
48	142.55736994743347	response	0	2		46.0	2.5	/experiments/knapen_aot/videos/R_S_nPwtvvPgdNc_39.mp4	0.0	404.4963550567627	
48	142.56561493873596	movie	1		301.0	46.0	2.5	/experiments/knapen_aot/videos/R_S_nPwtvvPgdNc_39.mp4	0.0	404.5046000480652	2.508310079574585
48	145.07392501831055	fix_post	2		12.0	46.0	2.5	/experiments/knapen_aot/videos/R_S_nPwtvvPgdNc_39.mp4	0.0	407.01291012763977	0.09997391700744629
49	145.173898935318	fix_pre	0		39.0	47.0	2.5	/experiments/knapen_aot/videos/R_S_production_ID_3709168.mp4	0.0	407.1128840446472	0.3249809741973877
49	145.4906668663025	response	0	2		47.0	2.5	/experiments/knapen_aot/videos/R_S_production_ID_3709168.mp4	0.0	407.4296519756317	
49	145.49887990951538	movie	1		201.0	47.0	2.5	/experiments/knapen_aot/videos/R_S_production_ID_3709168.mp4	0.0	407.4378650188446	2.5083141326904297
49	148.0071940422058	fix_post	2		12.0	47.0	2.5	/experiments/knapen_aot/videos/R_S_production_ID_3709168.mp4	0.0	409.94617915153503	0.10003280639648438
50	148.1072268486023	fix_pre	0		29.0	48.0	2.5	blank	1.0	410.0462119579315	0.24222517013549805
50	148.3406720161438	response	0	2		48.0	2.5	blank	1.0	410.279657125473	
50	148.3494520187378	movie	1		301.0	48.0	2.5	blank	1.0	410.288437128067	2.5077688694000244
50	150.85722088813782	fix_post	2		12.0	48.0	2.5	blank	1.0	412.79620599746704	0.10009312629699707
51	150.95731401443481	fix_pre	0		70.0	49.0	2.5	/experiments/knapen_aot/videos/S_I005_C008_CROP_SDR_2K_AVC.mp4	0.0	412.89629912376404	0.5832769870758057
51	151.53234481811523	response	0	2		49.0	2.5	/experiments/knapen_aot/videos/S_I005_C008_CROP_SDR_2K_AVC.mp4	0.0	413.47132992744446	
51	151.54059100151062	movie	1		171.0	49.0	2.5	/experiments/knapen_aot/videos/S_I005_C008_CROP_SDR_2K_AVC.mp4	0.0	413.47957611083984	2.5083630084991455
51	154.04895401000977	fix_post	2		12.0	49.0	2.5	/experiments/knapen_aot/videos/S_I005_C008_CROP_SDR_2K_AVC.mp4	0.0	415.987939119339	0.09995484352111816
52	154.14890885353088	fix_pre	0		72.0	50.0	2.5	/experiments/knapen_aot/videos/R_S_yt-9T99N7Cvi_o_112.mp4	0.0	416.0878939628601	0.5999910831451416
52	154.74067902565002	response	0	2		50.0	2.5	/experiments/knapen_aot/videos/R_S_yt-9T99N7Cvi_o_112.mp4	0.0	416.67966413497925	
52	154.74889993667603	movie	1		301.0	50.0	2.5	/experiments/knapen_aot/videos/R_S_yt-9T99N7Cvi_o_112.mp4	0.0	416.68788504600525	2.508301019668579
52	157.2572009563446	fix_post	2		12.0	50.0	2.5	/experiments/knapen_aot/videos/R_S_yt-9T99N7Cvi_o_112.mp4	0.0	419.1961860656738	0.09990596771240234
53	157.357106924057	fix_pre	0		31.0	51.0	2.5	/experiments/knapen_aot/videos/S_yt-Uv0dt_-fWJU_40.mp4	0.0	419.29609203338623	0.25833702087402344
53	157.60727381706238	response	0	2		51.0	2.5	/experiments/knapen_aot/videos/S_yt-Uv0dt_-fWJU_40.mp4	0.0	419.5462589263916	
53	157.61544394493103	movie	1		299.0	51.0	2.5	/experiments/knapen_aot/videos/S_yt-Uv0dt_-fWJU_40.mp4	0.0	419.55442905426025	2.5083329677581787
53	160.1237769126892	fix_post	2		12.0	51.0	2.5	/experiments/knapen_aot/videos/S_yt-Uv0dt_-fWJU_40.mp4	0.0	422.06276202201843	0.10058808326721191
54	160.22436499595642	fix_pre	0		17.0	52.0	2.5	/experiments/knapen_aot/videos/R_S_yt-Ul81y6R9YbE_12.mp4	0.0	422.16335010528564	0.14118695259094238
54	160.35731291770935	response	0	2		52.0	2.5	/experiments/knapen_aot/videos/R_S_yt-Ul81y6R9YbE_12.mp4	0.0	422.2962980270386	
54	160.36555194854736	movie	1		301.0	52.0	2.5	/experiments/knapen_aot/videos/R_S_yt-Ul81y6R9YbE_12.mp4	0.0	422.3045370578766	2.5082719326019287
54	162.8738238811493	fix_post	2		12.0	52.0	2.5	/experiments/knapen_aot/videos/R_S_yt-Ul81y6R9YbE_12.mp4	0.0	424.8128089904785	0.10051608085632324
55	162.97433996200562	fix_pre	0		58.0	53.0	2.5	/experiments/knapen_aot/videos/S_yt-O_4DgW-XKvA_35.mp4	0.0	424.91332507133484	0.48273491859436035
55	163.44896793365479	response	0	2		53.0	2.5	/experiments/knapen_aot/videos/S_yt-O_4DgW-XKvA_35.mp4	0.0	425.387953042984	
55	163.45707488059998	movie	1		301.0	53.0	2.5	/experiments/knapen_aot/videos/S_yt-O_4DgW-XKvA_35.mp4	0.0	425.3960599899292	2.508373975753784
55	165.96544885635376	fix_post	2		12.0	53.0	2.5	/experiments/knapen_aot/videos/S_yt-O_4DgW-XKvA_35.mp4	0.0	427.904433965683	0.10004496574401855
56	166.06549382209778	fix_pre	0		33.0	54.0	2.5	/experiments/knapen_aot/videos/R_S_flickr-seattlemcneals-996953_3.mp4	0.0	428.004478931427	0.274982213973999
56	166.3322548866272	response	0	2		54.0	2.5	/experiments/knapen_aot/videos/R_S_flickr-seattlemcneals-996953_3.mp4	0.0	428.2712399959564	
56	166.34047603607178	movie	1		298.0	54.0	2.5	/experiments/knapen_aot/videos/R_S_flickr-seattlemcneals-996953_3.mp4	0.0	428.279461145401	2.5083417892456055
56	168.84881782531738	fix_post	2		12.0	54.0	2.5	/experiments/knapen_aot/videos/R_S_flickr-seattlemcneals-996953_3.mp4	0.0	430.7878029346466	0.10004711151123047
57	168.9488649368286	fix_pre	0		32.0	55.0	2.5	/experiments/knapen_aot/videos/S_yt-6aqg1P9YqR8_38.mp4	0.0	430.88785004615784	0.2666010856628418
57	169.2072298526764	response	0	2		55.0	2.5	/experiments/knapen_aot/videos/S_yt-6aqg1P9YqR8_38.mp4	0.0	431.1462149620056	
57	169.21546602249146	movie	1		301.0	55.0	2.5	/experiments/knapen_aot/videos/S_yt-6aqg1P9YqR8_38.mp4	0.0	431.1544511318207	2.508333921432495
57	171.72379994392395	fix_post	2		12.0	55.0	2.5	/experiments/knapen_aot/videos/S_yt-6aqg1P9YqR8_38.mp4	0.0	433.6627850532532	0.10007309913635254
58	171.8238730430603	fix_pre	0		26.0	56.0	2.5	blank	1.0	433.7628581523895	0.216627836227417
58	172.0322949886322	response	0	2		56.0	2.5	blank	1.0	433.9712800979614	
58	172.04050087928772	movie	1		301.0	56.0	2.5	blank	1.0	433.97948598861694	2.508327007293701
58	174.54882788658142	fix_post	2		12.0	56.0	2.5	blank	1.0	436.48781299591064	0.09985995292663574
59	174.64868783950806	fix_pre	0		50.0	57.0	2.5	/experiments/knapen_aot/videos/S_yt-J1dw4AznwmQ_7.mp4	0.0	436.5876729488373	0.41675400733947754
59	175.05726289749146	response	0	2		57.0	2.5	/experiments/knapen_aot/videos/S_yt-J1dw4AznwmQ_7.mp4	0.0	436.9962480068207	
59	175.06544184684753	movie	1		301.0	57.0	2.5	/experiments/knapen_aot/videos/S_yt-J1dw4AznwmQ_7.mp4	0.0	437.00442695617676	2.508371114730835
59	177.57381296157837	fix_post	2		12.0	57.0	2.5	/experiments/knapen_aot/videos/S_yt-J1dw4AznwmQ_7.mp4	0.0	439.5127980709076	0.09998607635498047
60	177.67379903793335	fix_pre	0		24.0	58.0	2.5	/experiments/knapen_aot/videos/S_yt-y-boY803u9A_12.mp4	0.0	439.6127841472626	0.19992685317993164
60	177.86554789543152	response	0	2		58.0	2.5	/experiments/knapen_aot/videos/S_yt-y-boY803u9A_12.mp4	0.0	439.80453300476074	
60	177.87372589111328	movie	1		301.0	58.0	2.5	/experiments/knapen_aot/videos/S_yt-y-boY803u9A_12.mp4	0.0	439.8127110004425	2.508405923843384
60	180.38213181495667	fix_post	2		12.0	58.0	2.5	/experiments/knapen_aot/videos/S_yt-y-boY803u9A_12.mp4	0.0	442.3211169242859	0.09999918937683105
61	180.4821310043335	fix_pre	0		31.0	59.0	2.5	/experiments/knapen_aot/videos/S_flickr-southeasternstar-3464778323_10.mp4	0.0	442.4211161136627	0.258328914642334
61	180.73225784301758	response	0	2		59.0	2.5	/experiments/knapen_aot/videos/S_flickr-southeasternstar-3464778323_10.mp4	0.0	442.6712429523468	
61	180.74045991897583	movie	1		301.0	59.0	2.5	/experiments/knapen_aot/videos/S_flickr-southeasternstar-3464778323_10.mp4	0.0	442.67944502830505	2.5083000659942627
61	183.2487599849701	fix_post	2		12.0	59.0	2.5	/experiments/knapen_aot/videos/S_flickr-southeasternstar-3464778323_10.mp4	0.0	445.1877450942993	0.10001993179321289
62	183.3487799167633	fix_pre	0		28.0	60.0	2.5	/experiments/knapen_aot/videos/R_S_flickr-southeasternstar-3464778323_10.mp4	0.0	445.28776502609253	0.23325300216674805
62	183.5739288330078	response	0	2		60.0	2.5	/experiments/knapen_aot/videos/R_S_flickr-southeasternstar-3464778323_10.mp4	0.0	445.51291394233704	
62	183.58203291893005	movie	1		301.0	60.0	2.5	/experiments/knapen_aot/videos/R_S_flickr-southeasternstar-3464778323_10.mp4	0.0	445.5210180282593	2.5083749294281006
62	186.09040784835815	fix_post	2		12.0	60.0	2.5	/experiments/knapen_aot/videos/R_S_flickr-southeasternstar-3464778323_10.mp4	0.0	448.0293929576874	0.09998202323913574
63	186.1903898715973	fix_pre	0		31.0	61.0	2.5	/experiments/knapen_aot/videos/S_yt-Faxdis4m3Fw_9.mp4	0.0	448.1293749809265	0.25826597213745117
63	186.44053983688354	response	0	2		61.0	2.5	/experiments/knapen_aot/videos/S_yt-Faxdis4m3Fw_9.mp4	0.0	448.37952494621277	
63	186.44865584373474	movie	1		301.0	61.0	2.5	/experiments/knapen_aot/videos/S_yt-Faxdis4m3Fw_9.mp4	0.0	448.38764095306396	2.5083091259002686
63	188.956964969635	fix_post	2		12.0	61.0	2.5	/experiments/knapen_aot/videos/S_yt-Faxdis4m3Fw_9.mp4	0.0	450.89595007896423	0.10040903091430664
64	189.05737400054932	fix_pre	0		35.0	62.0	2.5	/experiments/knapen_aot/videos/R_S_yt-lADkWM79teI_18.mp4	0.0	450.99635910987854	0.2916548252105713
64	189.34042692184448	response	0	2		62.0	2.5	/experiments/knapen_aot/videos/R_S_yt-lADkWM79teI_18.mp4	0.0	451.2794120311737	
64	189.3490288257599	movie	1		301.0	62.0	2.5	/experiments/knapen_aot/videos/R_S_yt-lADkWM79teI_18.mp4	0.0	451.2880139350891	2.5079760551452637
64	191.85700488090515	fix_post	2		12.0	62.0	2.5	/experiments/knapen_aot/videos/R_S_yt-lADkWM79teI_18.mp4	0.0	453.7959899902344	0.09999704360961914
65	191.95700192451477	fix_pre	0		35.0	63.0	2.5	blank	1.0	453.895987033844	0.29166412353515625
65	192.24050283432007	response	0	2		63.0	2.5	blank	1.0	454.1794879436493	
65	192.24866604804993	movie	1		301.0	63.0	2.5	blank	1.0	454.18765115737915	2.5083580017089844
65	194.7570240497589	fix_post	2		12.0	63.0	2.5	blank	1.0	456.69600915908813	0.09995293617248535
66	194.8569769859314	fix_pre	0		53.0	64.0	2.5	/experiments/knapen_aot/videos/R_S_ILSVRC2015_train_00165008.mp4	0.0	456.7959620952606	0.44170284271240234
66	195.2904748916626	response	0	2		64.0	2.5	/experiments/knapen_aot/videos/R_S_ILSVRC2015_train_00165008.mp4	0.0	457.2294600009918	
66	195.2986798286438	movie	1		301.0	64.0	2.5	/experiments/knapen_aot/videos/R_S_ILSVRC2015_train_00165008.mp4	0.0	457.237664937973	2.508251190185547
66	197.80693101882935	fix_post	2		12.0	64.0	2.5	/experiments/knapen_aot/videos/R_S_ILSVRC2015_train_00165008.mp4	0.0	459.74591612815857	0.10004997253417969
67	197.90698099136353	fix_pre	0		33.0	65.0	2.5	/experiments/knapen_aot/videos/R_S_yt-J1dw4AznwmQ_7.mp4	0.0	459.84596610069275	0.27527284622192383
67	198.17377400398254	response	0	2		65.0	2.5	/experiments/knapen_aot/videos/R_S_yt-J1dw4AznwmQ_7.mp4	0.0	460.11275911331177	
67	198.18225383758545	movie	1		301.0	65.0	2.5	/experiments/knapen_aot/videos/R_S_yt-J1dw4AznwmQ_7.mp4	0.0	460.1212389469147	2.5080530643463135
67	200.69030690193176	fix_post	2		12.0	65.0	2.5	/experiments/knapen_aot/videos/R_S_yt-J1dw4AznwmQ_7.mp4	0.0	462.629292011261	0.09999394416809082
68	200.79030084609985	fix_pre	0		7.0	66.0	2.5	/experiments/knapen_aot/videos/R_S_yt-dWF89kq2JIA_13.mp4	0.0	462.7292859554291	0.05857515335083008
68	200.84049487113953	response	0	2		66.0	2.5	/experiments/knapen_aot/videos/R_S_yt-dWF89kq2JIA_13.mp4	0.0	462.77947998046875	
68	200.84887599945068	movie	1		299.0	66.0	2.5	/experiments/knapen_aot/videos/R_S_yt-dWF89kq2JIA_13.mp4	0.0	462.7878611087799	2.5081448554992676
68	203.35702085494995	fix_post	2		12.0	66.0	2.5	/experiments/knapen_aot/videos/R_S_yt-dWF89kq2JIA_13.mp4	0.0	465.2960059642792	0.09993696212768555
69	203.45695781707764	fix_pre	0		31.0	67.0	2.5	/experiments/knapen_aot/videos/R_S_yt-N1EsjM9gD5Q_21.mp4	0.0	465.39594292640686	0.2583482265472412
69	203.70710802078247	response	0	2		67.0	2.5	/experiments/knapen_aot/videos/R_S_yt-N1EsjM9gD5Q_21.mp4	0.0	465.6460931301117	
69	203.71530604362488	movie	1		301.0	67.0	2.5	/experiments/knapen_aot/videos/R_S_yt-N1EsjM9gD5Q_21.mp4	0.0	465.6542911529541	2.5083019733428955
69	206.22360801696777	fix_post	2		12.0	67.0	2.5	/experiments/knapen_aot/videos/R_S_yt-N1EsjM9gD5Q_21.mp4	0.0	468.162593126297	0.09993696212768555
70	206.32354497909546	fix_pre	0		39.0	68.0	2.5	blank	1.0	468.2625300884247	0.325070858001709
70	206.6405210494995	response	0	2		68.0	2.5	blank	1.0	468.57950615882874	
70	206.64861583709717	movie	1		301.0	68.0	2.5	blank	1.0	468.5876009464264	2.508371114730835
70	209.156986951828	fix_post	2		12.0	68.0	2.5	blank	1.0	471.0959720611572	0.1000220775604248
71	209.25700902938843	fix_pre	0		59.0	69.0	2.5	/experiments/knapen_aot/videos/S_yt-_6j2NXrB-zE_28.mp4	0.0	471.19599413871765	0.49152588844299316
71	209.74047088623047	response	0	2		69.0	2.5	/experiments/knapen_aot/videos/S_yt-_6j2NXrB-zE_28.mp4	0.0	471.6794559955597	
71	209.74853491783142	movie	1		301.0	69.0	2.5	/experiments/knapen_aot/videos/S_yt-_6j2NXrB-zE_28.mp4	0.0	471.68752002716064	2.5083959102630615
71	212.25693082809448	fix_post	2		12.0	69.0	2.5	/experiments/knapen_aot/videos/S_yt-_6j2NXrB-zE_28.mp4	0.0	474.1959159374237	0.10007309913635254
72	212.35700392723083	fix_pre	0		30.0	70.0	2.5	/experiments/knapen_aot/videos/S_yt--JnTDuElzXQ_121.mp4	0.0	474.29598903656006	0.24994206428527832
72	212.59873485565186	response	0	2		70.0	2.5	/experiments/knapen_aot/videos/S_yt--JnTDuElzXQ_121.mp4	0.0	474.5377199649811	
72	212.6069459915161	movie	1		301.0	70.0	2.5	/experiments/knapen_aot/videos/S_yt--JnTDuElzXQ_121.mp4	0.0	474.54593110084534	2.508283853530884
72	215.115229845047	fix_post	2		12.0	70.0	2.5	/experiments/knapen_aot/videos/S_yt--JnTDuElzXQ_121.mp4	0.0	477.0542149543762	0.10001707077026367
73	215.21524691581726	fix_pre	0		39.0	71.0	2.5	/experiments/knapen_aot/videos/R_S_yt-ILARvS15SDQ_741.mp4	0.0	477.1542320251465	0.3250110149383545
73	215.53203701972961	response	0	2		71.0	2.5	/experiments/knapen_aot/videos/R_S_yt-ILARvS15SDQ_741.mp4	0.0	477.47102212905884	
73	215.54025793075562	movie	1		301.0	71.0	2.5	/experiments/knapen_aot/videos/R_S_yt-ILARvS15SDQ_741.mp4	0.0	477.47924304008484	2.508357048034668
73	218.04861497879028	fix_post	2		12.0	71.0	2.5	/experiments/knapen_aot/videos/R_S_yt-ILARvS15SDQ_741.mp4	0.0	479.9876000881195	0.09999299049377441
74	218.14860796928406	fix_pre	0		44.0	72.0	2.5	/experiments/knapen_aot/videos/S_pexels-ron-lach-8071987.mp4	0.0	480.0875930786133	0.3668069839477539
74	218.5070879459381	response	0	2		72.0	2.5	/experiments/knapen_aot/videos/S_pexels-ron-lach-8071987.mp4	0.0	480.44607305526733	
74	218.5154149532318	movie	1		203.0	72.0	2.5	/experiments/knapen_aot/videos/S_pexels-ron-lach-8071987.mp4	0.0	480.45440006256104	2.5082149505615234
74	221.02362990379333	fix_post	2		12.0	72.0	2.5	/experiments/knapen_aot/videos/S_pexels-ron-lach-8071987.mp4	0.0	482.96261501312256	0.09993410110473633
75	221.12356400489807	fix_pre	0		37.0	73.0	2.5	/experiments/knapen_aot/videos/R_S_yt-kxWtOXNIsRA_329.mp4	0.0	483.0625491142273	0.3084449768066406
75	221.42369890213013	response	0	2		73.0	2.5	/experiments/knapen_aot/videos/R_S_yt-kxWtOXNIsRA_329.mp4	0.0	483.36268401145935	
75	221.4320089817047	movie	1		301.0	73.0	2.5	/experiments/knapen_aot/videos/R_S_yt-kxWtOXNIsRA_329.mp4	0.0	483.37099409103394	2.5082449913024902
75	223.9402539730072	fix_post	2		12.0	73.0	2.5	/experiments/knapen_aot/videos/R_S_yt-kxWtOXNIsRA_329.mp4	0.0	485.8792390823364	0.10000205039978027
76	224.04025602340698	fix_pre	0		35.0	74.0	2.5	/experiments/knapen_aot/videos/S_yt-gDZnJCR2uXI_18.mp4	0.0	485.9792411327362	0.29160189628601074
76	224.3162488937378	response	0	2		74.0	2.5	/experiments/knapen_aot/videos/S_yt-gDZnJCR2uXI_18.mp4	0.0	486.255234003067	
76	224.331857919693	movie	1		301.0	74.0	2.5	/experiments/knapen_aot/videos/S_yt-gDZnJCR2uXI_18.mp4	0.0	486.2708430290222	2.508368968963623
76	226.84022688865662	fix_post	2		12.0	74.0	2.5	/experiments/knapen_aot/videos/S_yt-gDZnJCR2uXI_18.mp4	0.0	488.77921199798584	0.10001802444458008
77	226.9402449131012	fix_pre	0		48.0	75.0	2.5	/experiments/knapen_aot/videos/S_yt-BAwvfRmE1LU_79.mp4	0.0	488.8792300224304	0.3999900817871094
77	227.3319709300995	response	0	2		75.0	2.5	/experiments/knapen_aot/videos/S_yt-BAwvfRmE1LU_79.mp4	0.0	489.2709560394287	
77	227.3402349948883	movie	1		300.0	75.0	2.5	/experiments/knapen_aot/videos/S_yt-BAwvfRmE1LU_79.mp4	0.0	489.27922010421753	2.508344888687134
77	229.84857988357544	fix_post	2		12.0	75.0	2.5	/experiments/knapen_aot/videos/S_yt-BAwvfRmE1LU_79.mp4	0.0	491.78756499290466	0.09998393058776855
78	229.9485638141632	fix_pre	0		39.0	76.0	2.5	/experiments/knapen_aot/videos/S_pexels-mart-production-7279749.mp4	0.0	491.88754892349243	0.3250010013580322
78	230.26534390449524	response	0	2		76.0	2.5	/experiments/knapen_aot/videos/S_pexels-mart-production-7279749.mp4	0.0	492.20432901382446	
78	230.27356481552124	movie	1		168.0	76.0	2.5	/experiments/knapen_aot/videos/S_pexels-mart-production-7279749.mp4	0.0	492.21254992485046	2.5083811283111572
78	232.7819459438324	fix_post	2		12.0	76.0	2.5	/experiments/knapen_aot/videos/S_pexels-mart-production-7279749.mp4	0.0	494.7209310531616	0.09998297691345215
79	232.88192892074585	fix_pre	0		32.0	77.0	2.5	blank	1.0	494.8209140300751	0.2666769027709961
79	233.1327919960022	response	0	2		77.0	2.5	blank	1.0	495.0717771053314	
79	233.14860582351685	movie	1		301.0	77.0	2.5	blank	1.0	495.08759093284607	2.508296012878418
79	235.65690183639526	fix_post	2		12.0	77.0	2.5	blank	1.0	497.5958869457245	0.1000821590423584
80	235.75698399543762	fix_pre	0		37.0	78.0	2.5	/experiments/knapen_aot/videos/S_ILSVRC2015_train_00444000.mp4	0.0	497.69596910476685	0.3081998825073242
80	236.05693888664246	response	0	2		78.0	2.5	/experiments/knapen_aot/videos/S_ILSVRC2015_train_00444000.mp4	0.0	497.9959239959717	
80	236.06518387794495	movie	1		301.0	78.0	2.5	/experiments/knapen_aot/videos/S_ILSVRC2015_train_00444000.mp4	0.0	498.00416898727417	2.5083470344543457
80	238.5735309123993	fix_post	2		12.0	78.0	2.5	/experiments/knapen_aot/videos/S_ILSVRC2015_train_00444000.mp4	0.0	500.5125160217285	0.09997797012329102
81	238.67350888252258	fix_pre	0		37.0	79.0	2.5	/experiments/knapen_aot/videos/R_S_comp_GMT329_113NC_396B_1105_CHINA_v04_SDR_FINAL_20180706_F900F2700_SDR_2K_AVC.mp4	0.0	500.6124939918518	0.3083491325378418
81	238.9736738204956	response	0	2		79.0	2.5	/experiments/knapen_aot/videos/R_S_comp_GMT329_113NC_396B_1105_CHINA_v04_SDR_FINAL_20180706_F900F2700_SDR_2K_AVC.mp4	0.0	500.91265892982483	
81	238.98185801506042	movie	1		168.0	79.0	2.5	/experiments/knapen_aot/videos/R_S_comp_GMT329_113NC_396B_1105_CHINA_v04_SDR_FINAL_20180706_F900F2700_SDR_2K_AVC.mp4	0.0	500.92084312438965	2.508333921432495
81	241.49019193649292	fix_post	2		12.0	79.0	2.5	/experiments/knapen_aot/videos/R_S_comp_GMT329_113NC_396B_1105_CHINA_v04_SDR_FINAL_20180706_F900F2700_SDR_2K_AVC.mp4	0.0	503.42917704582214	0.10011506080627441
82	241.5903069972992	fix_pre	0		63.0	80.0	2.5	/experiments/knapen_aot/videos/S_yt-XbigWWtnGL4_75.mp4	0.0	503.5292921066284	0.5261619091033936
82	242.10691905021667	response	0	2		80.0	2.5	/experiments/knapen_aot/videos/S_yt-XbigWWtnGL4_75.mp4	0.0	504.0459041595459	
82	242.1164689064026	movie	1		300.0	80.0	2.5	/experiments/knapen_aot/videos/S_yt-XbigWWtnGL4_75.mp4	0.0	504.0554540157318	2.507030963897705
82	244.6234998703003	fix_post	2		12.0	80.0	2.5	/experiments/knapen_aot/videos/S_yt-XbigWWtnGL4_75.mp4	0.0	506.5624849796295	0.10003900527954102
83	244.72353887557983	fix_pre	0		50.0	81.0	2.5	/experiments/knapen_aot/videos/S_production_ID_4820325.mp4	0.0	506.66252398490906	0.41667699813842773
83	245.13199281692505	response	0	2		81.0	2.5	/experiments/knapen_aot/videos/S_production_ID_4820325.mp4	0.0	507.0709779262543	
83	245.14021587371826	movie	1		168.0	81.0	2.5	/experiments/knapen_aot/videos/S_production_ID_4820325.mp4	0.0	507.0792009830475	2.508294105529785
83	247.64850997924805	fix_post	2		12.0	81.0	2.5	/experiments/knapen_aot/videos/S_production_ID_4820325.mp4	0.0	509.58749508857727	0.09995102882385254
84	247.7484610080719	fix_pre	0		76.0	82.0	2.5	/experiments/knapen_aot/videos/R_S_yt-i3-YlGenYmk_411.mp4	0.0	509.6874461174011	0.6332888603210449
84	248.37363004684448	response	0	2		82.0	2.5	/experiments/knapen_aot/videos/R_S_yt-i3-YlGenYmk_411.mp4	0.0	510.3126151561737	
84	248.38174986839294	movie	1		301.0	82.0	2.5	/experiments/knapen_aot/videos/R_S_yt-i3-YlGenYmk_411.mp4	0.0	510.32073497772217	2.5083820819854736
84	250.89013195037842	fix_post	2		12.0	82.0	2.5	/experiments/knapen_aot/videos/R_S_yt-i3-YlGenYmk_411.mp4	0.0	512.8291170597076	0.10005903244018555
85	250.9901909828186	fix_pre	0		40.0	83.0	2.5	blank	1.0	512.9291760921478	0.33324694633483887
85	251.31520986557007	response	0	2		83.0	2.5	blank	1.0	513.2541949748993	
85	251.32343792915344	movie	1		301.0	83.0	2.5	blank	1.0	513.2624230384827	2.508342981338501
85	253.83178091049194	fix_post	2		12.0	83.0	2.5	blank	1.0	515.7707660198212	0.10000205039978027
87	253.93178296089172	stim	0		309.0					515.870768070221	2.57650089263916
87	256.5029308795929	response	0	space						518.4419159889221	
