trial_nr	onset	event_type	phase	response	nr_frames	movie_index	movie_duration	movie_file	blank	onset_abs	duration
0	0.15566110610961914	stim	0		25.0					293.93905305862427	0.20830893516540527
0	0.3559129238128662	response	0	space						294.1393048763275	
1	0.3639700412750244	stim	0		121.0					294.1473619937897	1.0080909729003906
1	1.372061014175415	stim	1		120.0					295.15545296669006	0.9999399185180664
1	1.5682880878448486	response	1	2						295.3516800403595	
1	1.7231600284576416	response	1	space						295.5065519809723	
2	2.3720009326934814	fix_pre	0		46.0	0.0	2.5	/experiments/knapen_aot/videos/R_S_yt-I9uf7kAccFA_229.mp4	0.0	296.15539288520813	0.3845241069793701
2	2.747164011001587	response	0	space		0.0	2.5	/experiments/knapen_aot/videos/R_S_yt-I9uf7kAccFA_229.mp4	0.0	296.53055596351624	
2	2.7565250396728516	movie	1		301.0	0.0	2.5	/experiments/knapen_aot/videos/R_S_yt-I9uf7kAccFA_229.mp4	0.0	296.5399169921875	2.5071868896484375
2	5.263711929321289	fix_post	2		12.0	0.0	2.5	/experiments/knapen_aot/videos/R_S_yt-I9uf7kAccFA_229.mp4	0.0	299.04710388183594	0.09997916221618652
3	5.363691091537476	fix_pre	0		24.0	1.0	2.5	/experiments/knapen_aot/videos/S_yt-wUqpCtBOFBA_89.mp4	0.0	299.1470830440521	0.19999384880065918
3	5.557154893875122	response	0	2		1.0	2.5	/experiments/knapen_aot/videos/S_yt-wUqpCtBOFBA_89.mp4	0.0	299.34054684638977	
3	5.563684940338135	movie	1		301.0	1.0	2.5	/experiments/knapen_aot/videos/S_yt-wUqpCtBOFBA_89.mp4	0.0	299.3470768928528	2.5083680152893066
3	8.072052955627441	fix_post	2		12.0	1.0	2.5	/experiments/knapen_aot/videos/S_yt-wUqpCtBOFBA_89.mp4	0.0	301.8554449081421	0.09997200965881348
4	8.172024965286255	fix_pre	0		21.0	2.0	2.5	/experiments/knapen_aot/videos/S_m-aeoYPMqfg_185.mp4	0.0	301.9554169178009	0.17498111724853516
4	8.33871603012085	response	0	2		2.0	2.5	/experiments/knapen_aot/videos/S_m-aeoYPMqfg_185.mp4	0.0	302.1221079826355	
4	8.34700608253479	movie	1		301.0	2.0	2.5	/experiments/knapen_aot/videos/S_m-aeoYPMqfg_185.mp4	0.0	302.13039803504944	2.508354902267456
4	10.855360984802246	fix_post	2		12.0	2.0	2.5	/experiments/knapen_aot/videos/S_m-aeoYPMqfg_185.mp4	0.0	304.6387529373169	0.09992289543151855
5	10.955283880233765	fix_pre	0		14.0	3.0	2.5	/experiments/knapen_aot/videos/S_ILSVRC2015_train_00743005.mp4	0.0	304.7386758327484	0.11671018600463867
5	11.063827991485596	response	0	2		3.0	2.5	/experiments/knapen_aot/videos/S_ILSVRC2015_train_00743005.mp4	0.0	304.84721994400024	
5	11.071994066238403	movie	1		301.0	3.0	2.5	/experiments/knapen_aot/videos/S_ILSVRC2015_train_00743005.mp4	0.0	304.85538601875305	2.50834584236145
5	13.580339908599854	fix_post	2		12.0	3.0	2.5	/experiments/knapen_aot/videos/S_ILSVRC2015_train_00743005.mp4	0.0	307.3637318611145	0.10001611709594727
6	13.6803560256958	fix_pre	0		19.0	4.0	2.5	/experiments/knapen_aot/videos/S_yt-s73Xqkcq9Js_285.mp4	0.0	307.46374797821045	0.15938496589660645
6	13.83043098449707	response	0	2		4.0	2.5	/experiments/knapen_aot/videos/S_yt-s73Xqkcq9Js_285.mp4	0.0	307.6138229370117	
6	13.839740991592407	movie	1		301.0	4.0	2.5	/experiments/knapen_aot/videos/S_yt-s73Xqkcq9Js_285.mp4	0.0	307.62313294410706	2.507227897644043
6	16.34696888923645	fix_post	2		12.0	4.0	2.5	/experiments/knapen_aot/videos/S_yt-s73Xqkcq9Js_285.mp4	0.0	310.1303608417511	0.09999918937683105
7	16.44696807861328	fix_pre	0		7.0	5.0	2.5	blank	1.0	310.23036003112793	0.05837202072143555
7	16.49707794189453	response	0	2		5.0	2.5	blank	1.0	310.2804698944092	
7	16.505340099334717	movie	1		301.0	5.0	2.5	blank	1.0	310.28873205184937	2.508265972137451
7	19.013606071472168	fix_post	2		12.0	5.0	2.5	blank	1.0	312.7969980239868	0.10001397132873535
8	19.113620042800903	fix_pre	0		20.0	6.0	2.5	/experiments/knapen_aot/videos/R_S_yt-78k6vUHDWAI_206.mp4	0.0	312.89701199531555	0.16663599014282227
8	19.272018909454346	response	0	2		6.0	2.5	/experiments/knapen_aot/videos/R_S_yt-78k6vUHDWAI_206.mp4	0.0	313.055410861969	
8	19.280256032943726	movie	1		301.0	6.0	2.5	/experiments/knapen_aot/videos/R_S_yt-78k6vUHDWAI_206.mp4	0.0	313.0636479854584	2.5083670616149902
8	21.788623094558716	fix_post	2		12.0	6.0	2.5	/experiments/knapen_aot/videos/R_S_yt-78k6vUHDWAI_206.mp4	0.0	315.57201504707336	0.10000181198120117
9	21.888624906539917	fix_pre	0		25.0	7.0	2.5	/experiments/knapen_aot/videos/R_S_yt-s73Xqkcq9Js_285.mp4	0.0	315.67201685905457	0.2082819938659668
9	22.088762998580933	response	0	2		7.0	2.5	/experiments/knapen_aot/videos/R_S_yt-s73Xqkcq9Js_285.mp4	0.0	315.8721549510956	
9	22.096906900405884	movie	1		300.0	7.0	2.5	/experiments/knapen_aot/videos/R_S_yt-s73Xqkcq9Js_285.mp4	0.0	315.88029885292053	2.5083119869232178
9	24.6052188873291	fix_post	2		12.0	7.0	2.5	/experiments/knapen_aot/videos/R_S_yt-s73Xqkcq9Js_285.mp4	0.0	318.38861083984375	0.10007500648498535
10	24.705293893814087	fix_pre	0		9.0	8.0	2.5	/experiments/knapen_aot/videos/R_S_bing-www_yahoo_com_entertainment_anastasia-karanikolaou-chantel-jeffries-discuss-182400502_html_9.mp4	0.0	318.48868584632874	0.07509016990661621
10	24.772121906280518	response	0	2		8.0	2.5	/experiments/knapen_aot/videos/R_S_bing-www_yahoo_com_entertainment_anastasia-karanikolaou-chantel-jeffries-discuss-182400502_html_9.mp4	0.0	318.55551385879517	
10	24.780384063720703	movie	1		162.0	8.0	2.5	/experiments/knapen_aot/videos/R_S_bing-www_yahoo_com_entertainment_anastasia-karanikolaou-chantel-jeffries-discuss-182400502_html_9.mp4	0.0	318.56377601623535	2.5082008838653564
10	24.98040795326233	response	1	4		8.0	2.5	/experiments/knapen_aot/videos/R_S_bing-www_yahoo_com_entertainment_anastasia-karanikolaou-chantel-jeffries-discuss-182400502_html_9.mp4	0.0	318.763799905777	
10	27.28858494758606	fix_post	2		12.0	8.0	2.5	/experiments/knapen_aot/videos/R_S_bing-www_yahoo_com_entertainment_anastasia-karanikolaou-chantel-jeffries-discuss-182400502_html_9.mp4	0.0	321.0719769001007	0.10002708435058594
11	27.388612031936646	fix_pre	0		18.0	9.0	2.5	/experiments/knapen_aot/videos/R_S_yt-AHbFln6blfE_36.mp4	0.0	321.1720039844513	0.14995193481445312
11	27.530389070510864	response	0	4		9.0	2.5	/experiments/knapen_aot/videos/R_S_yt-AHbFln6blfE_36.mp4	0.0	321.3137810230255	
11	27.5385639667511	movie	1		301.0	9.0	2.5	/experiments/knapen_aot/videos/R_S_yt-AHbFln6blfE_36.mp4	0.0	321.32195591926575	2.5083799362182617
11	30.04694390296936	fix_post	2		12.0	9.0	2.5	/experiments/knapen_aot/videos/R_S_yt-AHbFln6blfE_36.mp4	0.0	323.830335855484	0.09997010231018066
12	30.14691400527954	fix_pre	0		18.0	10.0	2.5	/experiments/knapen_aot/videos/S_Y002_C013_SDR_2K_AVC.mp4	0.0	323.9303059577942	0.1511058807373047
12	30.28874897956848	response	0	4		10.0	2.5	/experiments/knapen_aot/videos/S_Y002_C013_SDR_2K_AVC.mp4	0.0	324.07214093208313	
12	30.298019886016846	movie	1		171.0	10.0	2.5	/experiments/knapen_aot/videos/S_Y002_C013_SDR_2K_AVC.mp4	0.0	324.0814118385315	2.5072309970855713
12	32.80525088310242	fix_post	2		12.0	10.0	2.5	/experiments/knapen_aot/videos/S_Y002_C013_SDR_2K_AVC.mp4	0.0	326.58864283561707	0.1000220775604248
13	32.90527296066284	fix_pre	0		13.0	11.0	2.5	/experiments/knapen_aot/videos/R_S_comp_GMT060_117NC_363D_1034_AUSTRALIA_v35_SDR_PS_FINAL_20180731_SDR_2K_AVC.mp4	0.0	326.6886649131775	0.10829496383666992
13	33.005348920822144	response	0	4		11.0	2.5	/experiments/knapen_aot/videos/R_S_comp_GMT060_117NC_363D_1034_AUSTRALIA_v35_SDR_PS_FINAL_20180731_SDR_2K_AVC.mp4	0.0	326.7887408733368	
13	33.01356792449951	movie	1		165.0	11.0	2.5	/experiments/knapen_aot/videos/R_S_comp_GMT060_117NC_363D_1034_AUSTRALIA_v35_SDR_PS_FINAL_20180731_SDR_2K_AVC.mp4	0.0	326.79695987701416	2.508352041244507
13	35.52191996574402	fix_post	2		12.0	11.0	2.5	/experiments/knapen_aot/videos/R_S_comp_GMT060_117NC_363D_1034_AUSTRALIA_v35_SDR_PS_FINAL_20180731_SDR_2K_AVC.mp4	0.0	329.30531191825867	0.09987306594848633
14	35.621793031692505	fix_pre	0		6.0	12.0	2.5	/experiments/knapen_aot/videos/S_yt-tX3slAQb9yY_13.mp4	0.0	329.40518498420715	0.051442861557006836
14	35.6637020111084	response	0	4		12.0	2.5	/experiments/knapen_aot/videos/S_yt-tX3slAQb9yY_13.mp4	0.0	329.44709396362305	
14	35.67323589324951	movie	1		301.0	12.0	2.5	/experiments/knapen_aot/videos/S_yt-tX3slAQb9yY_13.mp4	0.0	329.45662784576416	2.507052183151245
14	38.18028807640076	fix_post	2		12.0	12.0	2.5	/experiments/knapen_aot/videos/S_yt-tX3slAQb9yY_13.mp4	0.0	331.9636800289154	0.09991693496704102
15	38.2802050113678	fix_pre	0		20.0	13.0	2.5	blank	1.0	332.06359696388245	0.16671204566955566
15	38.43877696990967	response	0	4		13.0	2.5	blank	1.0	332.2221689224243	
15	38.44691705703735	movie	1		301.0	13.0	2.5	blank	1.0	332.230309009552	2.5082058906555176
15	40.95512294769287	fix_post	2		12.0	13.0	2.5	blank	1.0	334.7385149002075	0.10006499290466309
16	41.055187940597534	fix_pre	0		28.0	14.0	2.5	/experiments/knapen_aot/videos/S_ILSVRC2015_train_00485001.mp4	0.0	334.8385798931122	0.23333311080932617
16	41.280359983444214	response	0	4		14.0	2.5	/experiments/knapen_aot/videos/S_ILSVRC2015_train_00485001.mp4	0.0	335.06375193595886	
16	41.28852105140686	movie	1		301.0	14.0	2.5	/experiments/knapen_aot/videos/S_ILSVRC2015_train_00485001.mp4	0.0	335.0719130039215	2.5082948207855225
16	43.79681587219238	fix_post	2		12.0	14.0	2.5	/experiments/knapen_aot/videos/S_ILSVRC2015_train_00485001.mp4	0.0	337.58020782470703	0.10015010833740234
17	43.896965980529785	fix_pre	0		28.0	15.0	2.5	/experiments/knapen_aot/videos/R_S_yt-y3tyx6cZjmA_412.mp4	0.0	337.68035793304443	0.23411989212036133
17	44.12196493148804	response	0	4		15.0	2.5	/experiments/knapen_aot/videos/R_S_yt-y3tyx6cZjmA_412.mp4	0.0	337.9053568840027	
17	44.13108587265015	movie	1		301.0	15.0	2.5	/experiments/knapen_aot/videos/R_S_yt-y3tyx6cZjmA_412.mp4	0.0	337.9144778251648	2.5074892044067383
17	46.638575077056885	fix_post	2		12.0	15.0	2.5	/experiments/knapen_aot/videos/R_S_yt-y3tyx6cZjmA_412.mp4	0.0	340.42196702957153	0.09997081756591797
18	46.7385458946228	fix_pre	0		7.0	16.0	2.5	/experiments/knapen_aot/videos/S_yt-OLDm2slgfA4_3.mp4	0.0	340.52193784713745	0.059905052185058594
18	46.79102802276611	response	0	4		16.0	2.5	/experiments/knapen_aot/videos/S_yt-OLDm2slgfA4_3.mp4	0.0	340.57441997528076	
18	46.79845094680786	movie	1		296.0	16.0	2.5	/experiments/knapen_aot/videos/S_yt-OLDm2slgfA4_3.mp4	0.0	340.5818428993225	2.5066590309143066
18	49.30510997772217	fix_post	2		12.0	16.0	2.5	/experiments/knapen_aot/videos/S_yt-OLDm2slgfA4_3.mp4	0.0	343.0885019302368	0.10007309913635254
19	49.40518307685852	fix_pre	0		26.0	17.0	2.5	/experiments/knapen_aot/videos/R_S_ILSVRC2015_train_00485001.mp4	0.0	343.18857502937317	0.21665000915527344
19	49.61367201805115	response	0	4		17.0	2.5	/experiments/knapen_aot/videos/R_S_ILSVRC2015_train_00485001.mp4	0.0	343.3970639705658	
19	49.621833086013794	movie	1		301.0	17.0	2.5	/experiments/knapen_aot/videos/R_S_ILSVRC2015_train_00485001.mp4	0.0	343.40522503852844	2.508342981338501
19	52.130176067352295	fix_post	2		12.0	17.0	2.5	/experiments/knapen_aot/videos/R_S_ILSVRC2015_train_00485001.mp4	0.0	345.91356801986694	0.10003280639648438
20	52.23020887374878	fix_pre	0		47.0	18.0	2.5	/experiments/knapen_aot/videos/R_S_yt-1RVw8p6Dw2Q_20.mp4	0.0	346.0136008262634	0.39155006408691406
20	52.61363196372986	response	0	4		18.0	2.5	/experiments/knapen_aot/videos/R_S_yt-1RVw8p6Dw2Q_20.mp4	0.0	346.3970239162445	
20	52.62175893783569	movie	1		297.0	18.0	2.5	/experiments/knapen_aot/videos/R_S_yt-1RVw8p6Dw2Q_20.mp4	0.0	346.40515089035034	2.5084340572357178
20	55.13019299507141	fix_post	2		12.0	18.0	2.5	/experiments/knapen_aot/videos/R_S_yt-1RVw8p6Dw2Q_20.mp4	0.0	348.91358494758606	0.09999489784240723
21	55.23018789291382	fix_pre	0		4.0	19.0	2.5	/experiments/knapen_aot/videos/S_yt-c-H45QS0CF4_147.mp4	0.0	349.01357984542847	0.03331804275512695
21	55.255423069000244	response	0	4		19.0	2.5	/experiments/knapen_aot/videos/S_yt-c-H45QS0CF4_147.mp4	0.0	349.0388150215149	
21	55.263505935668945	movie	1		301.0	19.0	2.5	/experiments/knapen_aot/videos/S_yt-c-H45QS0CF4_147.mp4	0.0	349.0468978881836	2.508255958557129
21	57.771761894226074	fix_post	2		12.0	19.0	2.5	/experiments/knapen_aot/videos/S_yt-c-H45QS0CF4_147.mp4	0.0	351.5551538467407	0.10008716583251953
22	57.871849060058594	fix_pre	0		14.0	20.0	2.5	/experiments/knapen_aot/videos/S_pexels-kampus-production-5991896.mp4	0.0	351.65524101257324	0.11657190322875977
22	57.9802930355072	response	0	4		20.0	2.5	/experiments/knapen_aot/videos/S_pexels-kampus-production-5991896.mp4	0.0	351.76368498802185	
22	57.98842096328735	movie	1		171.0	20.0	2.5	/experiments/knapen_aot/videos/S_pexels-kampus-production-5991896.mp4	0.0	351.771812915802	2.5083940029144287
22	60.49681496620178	fix_post	2		12.0	20.0	2.5	/experiments/knapen_aot/videos/S_pexels-kampus-production-5991896.mp4	0.0	354.28020691871643	0.09995007514953613
23	60.59676504135132	fix_pre	0		7.0	21.0	2.5	blank	1.0	354.38015699386597	0.0583958625793457
23	60.646909952163696	response	0	4		21.0	2.5	blank	1.0	354.43030190467834	
23	60.655160903930664	movie	1		301.0	21.0	2.5	blank	1.0	354.4385528564453	2.5083141326904297
23	63.163475036621094	fix_post	2		12.0	21.0	2.5	blank	1.0	356.94686698913574	0.09999299049377441
24	63.26346802711487	fix_pre	0		42.0	22.0	2.5	/experiments/knapen_aot/videos/S_yt-Xs-YKSogfak_24.mp4	0.0	357.0468599796295	0.35002994537353516
24	63.59773302078247	response	0	4		22.0	2.5	/experiments/knapen_aot/videos/S_yt-Xs-YKSogfak_24.mp4	0.0	357.3811249732971	
24	63.6134979724884	movie	1		301.0	22.0	2.5	/experiments/knapen_aot/videos/S_yt-Xs-YKSogfak_24.mp4	0.0	357.39688992500305	2.508251905441284
24	66.12174987792969	fix_post	2		12.0	22.0	2.5	/experiments/knapen_aot/videos/S_yt-Xs-YKSogfak_24.mp4	0.0	359.90514183044434	0.10012221336364746
25	66.22187209129333	fix_pre	0		9.0	23.0	2.5	/experiments/knapen_aot/videos/R_S_comp_GMT306_139NC_139J_3066_CALI_TO_VEGAS_v08_SDR_PS_20180824_SDR_2K_AVC.mp4	0.0	360.005264043808	0.07573485374450684
25	66.28855490684509	response	0	2		23.0	2.5	/experiments/knapen_aot/videos/R_S_comp_GMT306_139NC_139J_3066_CALI_TO_VEGAS_v08_SDR_PS_20180824_SDR_2K_AVC.mp4	0.0	360.07194685935974	
25	66.29760694503784	movie	1		171.0	23.0	2.5	/experiments/knapen_aot/videos/R_S_comp_GMT306_139NC_139J_3066_CALI_TO_VEGAS_v08_SDR_PS_20180824_SDR_2K_AVC.mp4	0.0	360.0809988975525	2.50747013092041
25	68.80507707595825	fix_post	2		12.0	23.0	2.5	/experiments/knapen_aot/videos/R_S_comp_GMT306_139NC_139J_3066_CALI_TO_VEGAS_v08_SDR_PS_20180824_SDR_2K_AVC.mp4	0.0	362.5884690284729	0.10004782676696777
26	68.90512490272522	fix_pre	0		33.0	24.0	2.5	/experiments/knapen_aot/videos/R_S_ILSVRC2015_train_00743005.mp4	0.0	362.68851685523987	0.27501916885375977
26	69.17190194129944	response	0	2		24.0	2.5	/experiments/knapen_aot/videos/R_S_ILSVRC2015_train_00743005.mp4	0.0	362.9552938938141	
26	69.18014407157898	movie	1		301.0	24.0	2.5	/experiments/knapen_aot/videos/R_S_ILSVRC2015_train_00743005.mp4	0.0	362.9635360240936	2.5082428455352783
26	71.68838691711426	fix_post	2		12.0	24.0	2.5	/experiments/knapen_aot/videos/R_S_ILSVRC2015_train_00743005.mp4	0.0	365.4717788696289	0.10006499290466309
27	71.78845191001892	fix_pre	0		1.0	25.0	2.5	/experiments/knapen_aot/videos/R_S_wc-lItGMdwvEd_l_7.mp4	0.0	365.57184386253357	0.0092010498046875
27	71.79014492034912	response	0	2		25.0	2.5	/experiments/knapen_aot/videos/R_S_wc-lItGMdwvEd_l_7.mp4	0.0	365.57353687286377	
27	71.79765295982361	movie	1		163.0	25.0	2.5	/experiments/knapen_aot/videos/R_S_wc-lItGMdwvEd_l_7.mp4	0.0	365.58104491233826	2.507517099380493
27	74.3051700592041	fix_post	2		12.0	25.0	2.5	/experiments/knapen_aot/videos/R_S_wc-lItGMdwvEd_l_7.mp4	0.0	368.08856201171875	0.0999460220336914
28	74.4051160812378	fix_pre	0		12.0	26.0	2.5	blank	1.0	368.18850803375244	0.10078597068786621
28	74.4967999458313	response	0	2		26.0	2.5	blank	1.0	368.28019189834595	
28	74.50590205192566	movie	1		301.0	26.0	2.5	blank	1.0	368.2892940044403	2.507550001144409
28	77.01345205307007	fix_post	2		12.0	26.0	2.5	blank	1.0	370.7968440055847	0.10000300407409668
29	77.11345505714417	fix_pre	0		27.0	27.0	2.5	/experiments/knapen_aot/videos/S_ILSVRC2015_train_00044004.mp4	0.0	370.8968470096588	0.2256758213043213
29	77.33021187782288	response	0	2		27.0	2.5	/experiments/knapen_aot/videos/S_ILSVRC2015_train_00044004.mp4	0.0	371.1136038303375	
29	77.33913087844849	movie	1		301.0	27.0	2.5	/experiments/knapen_aot/videos/S_ILSVRC2015_train_00044004.mp4	0.0	371.12252283096313	2.5075762271881104
29	79.8467071056366	fix_post	2		12.0	27.0	2.5	/experiments/knapen_aot/videos/S_ILSVRC2015_train_00044004.mp4	0.0	373.63009905815125	0.10004782676696777
29	79.9302179813385	response	2	2		27.0	2.5	/experiments/knapen_aot/videos/S_ILSVRC2015_train_00044004.mp4	0.0	373.71360993385315	
30	79.94675493240356	fix_pre	0		118.0	28.0	2.5	/experiments/knapen_aot/videos/S_yt-mmvWYAttrIw_2.mp4	0.0	373.7301468849182	0.9833359718322754
30	80.92185688018799	response	0	2		28.0	2.5	/experiments/knapen_aot/videos/S_yt-mmvWYAttrIw_2.mp4	0.0	374.70524883270264	
30	80.93009090423584	movie	1		301.0	28.0	2.5	/experiments/knapen_aot/videos/S_yt-mmvWYAttrIw_2.mp4	0.0	374.7134828567505	2.508364200592041
30	83.43845510482788	fix_post	2		12.0	28.0	2.5	/experiments/knapen_aot/videos/S_yt-mmvWYAttrIw_2.mp4	0.0	377.22184705734253	0.09996485710144043
31	83.53841996192932	fix_pre	0		21.0	29.0	2.5	/experiments/knapen_aot/videos/S_yt-0bovQBIUZho_15.mp4	0.0	377.32181191444397	0.1757209300994873
31	83.70521903038025	response	0	2		29.0	2.5	/experiments/knapen_aot/videos/S_yt-0bovQBIUZho_15.mp4	0.0	377.4886109828949	
31	83.71414089202881	movie	1		301.0	29.0	2.5	/experiments/knapen_aot/videos/S_yt-0bovQBIUZho_15.mp4	0.0	377.49753284454346	2.5075759887695312
31	86.22171688079834	fix_post	2		12.0	29.0	2.5	/experiments/knapen_aot/videos/S_yt-0bovQBIUZho_15.mp4	0.0	380.005108833313	0.10004711151123047
32	86.32176399230957	fix_pre	0		9.0	30.0	2.5	/experiments/knapen_aot/videos/S_pexels-cottonbro-6789228.mp4	0.0	380.1051559448242	0.07497596740722656
32	86.3885428905487	response	0	2		30.0	2.5	/experiments/knapen_aot/videos/S_pexels-cottonbro-6789228.mp4	0.0	380.17193484306335	
32	86.3967399597168	movie	1		197.0	30.0	2.5	/experiments/knapen_aot/videos/S_pexels-cottonbro-6789228.mp4	0.0	380.18013191223145	2.5083179473876953
32	88.90505790710449	fix_post	2		12.0	30.0	2.5	/experiments/knapen_aot/videos/S_pexels-cottonbro-6789228.mp4	0.0	382.68844985961914	0.09990501403808594
33	89.00496292114258	fix_pre	0		17.0	31.0	2.5	/experiments/knapen_aot/videos/S_yt-bmGWhOCsvJo_128.mp4	0.0	382.7883548736572	0.14190101623535156
33	89.13857388496399	response	0	2		31.0	2.5	/experiments/knapen_aot/videos/S_yt-bmGWhOCsvJo_128.mp4	0.0	382.92196583747864	
33	89.14686393737793	movie	1		301.0	31.0	2.5	/experiments/knapen_aot/videos/S_yt-bmGWhOCsvJo_128.mp4	0.0	382.9302558898926	2.508151054382324
33	91.65501499176025	fix_post	2		12.0	31.0	2.5	/experiments/knapen_aot/videos/S_yt-bmGWhOCsvJo_128.mp4	0.0	385.4384069442749	0.10001611709594727
34	91.7550311088562	fix_pre	0		19.0	32.0	2.5	/experiments/knapen_aot/videos/S_yt-LhP0mZ6xxIg_111.mp4	0.0	385.53842306137085	0.15839481353759766
34	91.905198097229	response	0	2		32.0	2.5	/experiments/knapen_aot/videos/S_yt-LhP0mZ6xxIg_111.mp4	0.0	385.68859004974365	
34	91.9134259223938	movie	1		301.0	32.0	2.5	/experiments/knapen_aot/videos/S_yt-LhP0mZ6xxIg_111.mp4	0.0	385.69681787490845	2.5082480907440186
34	94.42167401313782	fix_post	2		12.0	32.0	2.5	/experiments/knapen_aot/videos/S_yt-LhP0mZ6xxIg_111.mp4	0.0	388.20506596565247	0.09994196891784668
35	94.52161598205566	fix_pre	0		10.0	33.0	2.5	/experiments/knapen_aot/videos/R_S_yt-OLDm2slgfA4_3.mp4	0.0	388.3050079345703	0.08342289924621582
35	94.59694910049438	response	0	2		33.0	2.5	/experiments/knapen_aot/videos/R_S_yt-OLDm2slgfA4_3.mp4	0.0	388.38034105300903	
35	94.60503888130188	movie	1		301.0	33.0	2.5	/experiments/knapen_aot/videos/R_S_yt-OLDm2slgfA4_3.mp4	0.0	388.3884308338165	2.5084152221679688
35	97.11345410346985	fix_post	2		12.0	33.0	2.5	/experiments/knapen_aot/videos/R_S_yt-OLDm2slgfA4_3.mp4	0.0	390.8968460559845	0.09993386268615723
36	97.213387966156	fix_pre	0		13.0	34.0	2.5	/experiments/knapen_aot/videos/S_yt-TBY8F6UMnJQ_51.mp4	0.0	390.99677991867065	0.10838508605957031
36	97.31357002258301	response	0	2		34.0	2.5	/experiments/knapen_aot/videos/S_yt-TBY8F6UMnJQ_51.mp4	0.0	391.09696197509766	
36	97.32177305221558	movie	1		301.0	34.0	2.5	/experiments/knapen_aot/videos/S_yt-TBY8F6UMnJQ_51.mp4	0.0	391.1051650047302	2.5082859992980957
36	99.83005905151367	fix_post	2		12.0	34.0	2.5	/experiments/knapen_aot/videos/S_yt-TBY8F6UMnJQ_51.mp4	0.0	393.6134510040283	0.10001683235168457
37	99.93007588386536	fix_pre	0		25.0	35.0	2.5	blank	1.0	393.71346783638	0.2083301544189453
37	100.13018989562988	response	0	2		35.0	2.5	blank	1.0	393.91358184814453	
37	100.1384060382843	movie	1		301.0	35.0	2.5	blank	1.0	393.92179799079895	2.5083680152893066
37	102.64677405357361	fix_post	2		12.0	35.0	2.5	blank	1.0	396.43016600608826	0.09999394416809082
38	102.7467679977417	fix_pre	0		27.0	36.0	2.5	/experiments/knapen_aot/videos/S_yt-TbdZrcl_Jso_5.mp4	0.0	396.53015995025635	0.22495603561401367
38	102.96356201171875	response	0	2		36.0	2.5	/experiments/knapen_aot/videos/S_yt-TbdZrcl_Jso_5.mp4	0.0	396.7469539642334	
38	102.97172403335571	movie	1		300.0	36.0	2.5	/experiments/knapen_aot/videos/S_yt-TbdZrcl_Jso_5.mp4	0.0	396.75511598587036	2.5083000659942627
38	105.48002409934998	fix_post	2		12.0	36.0	2.5	/experiments/knapen_aot/videos/S_yt-TbdZrcl_Jso_5.mp4	0.0	399.2634160518646	0.09989380836486816
39	105.57991790771484	fix_pre	0		39.0	37.0	2.5	/experiments/knapen_aot/videos/S_yt-ObT9gF8E_tU_250.mp4	0.0	399.3633098602295	0.3250579833984375
39	105.89674806594849	response	0	2		37.0	2.5	/experiments/knapen_aot/videos/S_yt-ObT9gF8E_tU_250.mp4	0.0	399.68014001846313	
39	105.90497589111328	movie	1		301.0	37.0	2.5	/experiments/knapen_aot/videos/S_yt-ObT9gF8E_tU_250.mp4	0.0	399.68836784362793	2.508362054824829
39	108.41333794593811	fix_post	2		12.0	37.0	2.5	/experiments/knapen_aot/videos/S_yt-ObT9gF8E_tU_250.mp4	0.0	402.19672989845276	0.10000014305114746
40	108.51333808898926	fix_pre	0		59.0	38.0	2.5	/experiments/knapen_aot/videos/S_yt-HQQws1Lp_rQ_10.mp4	0.0	402.2967300415039	0.4922599792480469
40	108.99681210517883	response	0	2		38.0	2.5	/experiments/knapen_aot/videos/S_yt-HQQws1Lp_rQ_10.mp4	0.0	402.7802040576935	
40	109.0055980682373	movie	1		301.0	38.0	2.5	/experiments/knapen_aot/videos/S_yt-HQQws1Lp_rQ_10.mp4	0.0	402.78899002075195	2.507676839828491
40	111.5132749080658	fix_post	2		12.0	38.0	2.5	/experiments/knapen_aot/videos/S_yt-HQQws1Lp_rQ_10.mp4	0.0	405.29666686058044	0.10009503364562988
41	111.61336994171143	fix_pre	0		9.0	39.0	2.5	/experiments/knapen_aot/videos/S_yt-XA6RBioito4_18.mp4	0.0	405.3967618942261	0.07495903968811035
41	111.68018388748169	response	0	2		39.0	2.5	/experiments/knapen_aot/videos/S_yt-XA6RBioito4_18.mp4	0.0	405.46357583999634	
41	111.68832898139954	movie	1		301.0	39.0	2.5	/experiments/knapen_aot/videos/S_yt-XA6RBioito4_18.mp4	0.0	405.4717209339142	2.5083670616149902
41	114.19669604301453	fix_post	2		12.0	39.0	2.5	/experiments/knapen_aot/videos/S_yt-XA6RBioito4_18.mp4	0.0	407.9800879955292	0.09993791580200195
42	114.29663395881653	fix_pre	0		6.0	40.0	2.5	blank	1.0	408.0800259113312	0.05010700225830078
42	114.33843898773193	response	0	2		40.0	2.5	blank	1.0	408.1218309402466	
42	114.34674096107483	movie	1		301.0	40.0	2.5	blank	1.0	408.1301329135895	2.5082781314849854
42	116.85501909255981	fix_post	2		12.0	40.0	2.5	blank	1.0	410.63841104507446	0.09993696212768555
43	116.9549560546875	fix_pre	0		14.0	41.0	2.5	/experiments/knapen_aot/videos/S_yt-TBY8F6UMnJQ_51.mp4	0.0	410.73834800720215	0.11666989326477051
43	117.06341910362244	response	0	2		41.0	2.5	/experiments/knapen_aot/videos/S_yt-TBY8F6UMnJQ_51.mp4	0.0	410.8468110561371	
43	117.07162594795227	movie	1		301.0	41.0	2.5	/experiments/knapen_aot/videos/S_yt-TBY8F6UMnJQ_51.mp4	0.0	410.8550179004669	2.5083200931549072
43	119.57994604110718	fix_post	2		12.0	41.0	2.5	/experiments/knapen_aot/videos/S_yt-TBY8F6UMnJQ_51.mp4	0.0	413.3633379936218	0.09997892379760742
44	119.67992496490479	fix_pre	0		19.0	42.0	2.5	/experiments/knapen_aot/videos/R_S_yt-y3tyx6cZjmA_412.mp4	0.0	413.46331691741943	0.15892601013183594
44	119.8300850391388	response	0	2		42.0	2.5	/experiments/knapen_aot/videos/R_S_yt-y3tyx6cZjmA_412.mp4	0.0	413.61347699165344	
44	119.83885097503662	movie	1		301.0	42.0	2.5	/experiments/knapen_aot/videos/R_S_yt-y3tyx6cZjmA_412.mp4	0.0	413.62224292755127	2.507791042327881
44	122.3466420173645	fix_post	2		12.0	42.0	2.5	/experiments/knapen_aot/videos/R_S_yt-y3tyx6cZjmA_412.mp4	0.0	416.13003396987915	0.09992194175720215
45	122.4465639591217	fix_pre	0		5.0	43.0	2.5	/experiments/knapen_aot/videos/R_S_pexels-kelly-lacy-6756531.mp4	0.0	416.22995591163635	0.04175114631652832
45	122.48015403747559	response	0	2		43.0	2.5	/experiments/knapen_aot/videos/R_S_pexels-kelly-lacy-6756531.mp4	0.0	416.26354598999023	
45	122.48831510543823	movie	1		163.0	43.0	2.5	/experiments/knapen_aot/videos/R_S_pexels-kelly-lacy-6756531.mp4	0.0	416.2717070579529	2.508258819580078
45	124.99657392501831	fix_post	2		12.0	43.0	2.5	/experiments/knapen_aot/videos/R_S_pexels-kelly-lacy-6756531.mp4	0.0	418.77996587753296	0.10006308555603027
46	125.09663701057434	fix_pre	0		3.0	44.0	2.5	/experiments/knapen_aot/videos/S_pexels-c-technical-6754008.mp4	0.0	418.880028963089	0.025011062622070312
46	125.11347794532776	response	0	2		44.0	2.5	/experiments/knapen_aot/videos/S_pexels-c-technical-6754008.mp4	0.0	418.8968698978424	
46	125.12164807319641	movie	1		193.0	44.0	2.5	/experiments/knapen_aot/videos/S_pexels-c-technical-6754008.mp4	0.0	418.90504002571106	2.508347988128662
46	127.62999606132507	fix_post	2		12.0	44.0	2.5	/experiments/knapen_aot/videos/S_pexels-c-technical-6754008.mp4	0.0	421.4133880138397	0.10004591941833496
46	127.72183394432068	response	2	2		44.0	2.5	/experiments/knapen_aot/videos/S_pexels-c-technical-6754008.mp4	0.0	421.5052258968353	
47	127.73004198074341	fix_pre	0		139.0	45.0	2.5	/experiments/knapen_aot/videos/S_yt-hRAqAwRhmwE_58.mp4	0.0	421.51343393325806	1.158262014389038
47	128.88002610206604	response	0	2		45.0	2.5	/experiments/knapen_aot/videos/S_yt-hRAqAwRhmwE_58.mp4	0.0	422.6634180545807	
47	128.88830399513245	movie	1		301.0	45.0	2.5	/experiments/knapen_aot/videos/S_yt-hRAqAwRhmwE_58.mp4	0.0	422.6716959476471	2.508323907852173
47	131.39662790298462	fix_post	2		12.0	45.0	2.5	/experiments/knapen_aot/videos/S_yt-hRAqAwRhmwE_58.mp4	0.0	425.18001985549927	0.1000051498413086
48	131.49663305282593	fix_pre	0		10.0	46.0	2.5	/experiments/knapen_aot/videos/S_KP_A010_C002_SDR_20190717_SDR_2K_AVC.mp4	0.0	425.2800250053406	0.08331584930419922
48	131.57178807258606	response	0	2		46.0	2.5	/experiments/knapen_aot/videos/S_KP_A010_C002_SDR_20190717_SDR_2K_AVC.mp4	0.0	425.3551800251007	
48	131.57994890213013	movie	1		198.0	46.0	2.5	/experiments/knapen_aot/videos/S_KP_A010_C002_SDR_20190717_SDR_2K_AVC.mp4	0.0	425.3633408546448	2.5082621574401855
48	134.0882110595703	fix_post	2		12.0	46.0	2.5	/experiments/knapen_aot/videos/S_KP_A010_C002_SDR_20190717_SDR_2K_AVC.mp4	0.0	427.87160301208496	0.10008001327514648
48	134.16414308547974	response	2	2		46.0	2.5	/experiments/knapen_aot/videos/S_KP_A010_C002_SDR_20190717_SDR_2K_AVC.mp4	0.0	427.9475350379944	
49	134.18829107284546	fix_pre	0		88.0	47.0	2.5	/experiments/knapen_aot/videos/R_S_yt-z16pdVTZK1o_3.mp4	0.0	427.9716830253601	0.7337818145751953
49	134.91331005096436	response	0	2		47.0	2.5	/experiments/knapen_aot/videos/R_S_yt-z16pdVTZK1o_3.mp4	0.0	428.696702003479	
49	134.92207288742065	movie	1		301.0	47.0	2.5	/experiments/knapen_aot/videos/R_S_yt-z16pdVTZK1o_3.mp4	0.0	428.7054648399353	2.507869005203247
49	137.4299418926239	fix_post	2		12.0	47.0	2.5	/experiments/knapen_aot/videos/R_S_yt-z16pdVTZK1o_3.mp4	0.0	431.21333384513855	0.09994220733642578
50	137.52988409996033	fix_pre	0		12.0	48.0	2.5	/experiments/knapen_aot/videos/S_yt-IX6uxR5DSKk_2.mp4	0.0	431.313276052475	0.10049796104431152
50	137.6216459274292	response	0	2		48.0	2.5	/experiments/knapen_aot/videos/S_yt-IX6uxR5DSKk_2.mp4	0.0	431.40503787994385	
50	137.63038206100464	movie	1		301.0	48.0	2.5	/experiments/knapen_aot/videos/S_yt-IX6uxR5DSKk_2.mp4	0.0	431.4137740135193	2.507859945297241
50	140.13824200630188	fix_post	2		12.0	48.0	2.5	/experiments/knapen_aot/videos/S_yt-IX6uxR5DSKk_2.mp4	0.0	433.9216339588165	0.09992289543151855
51	140.2381649017334	fix_pre	0		8.0	49.0	2.5	blank	1.0	434.02155685424805	0.06678009033203125
51	140.28985691070557	response	0	2		49.0	2.5	blank	1.0	434.0732488632202	
51	140.30494499206543	movie	1		301.0	49.0	2.5	blank	1.0	434.0883369445801	2.508301019668579
51	142.813246011734	fix_post	2		12.0	49.0	2.5	blank	1.0	436.59663796424866	0.09995102882385254
52	142.91319704055786	fix_pre	0		21.0	50.0	2.5	/experiments/knapen_aot/videos/R_S_yt-s2tZ2NIQrxg_175.mp4	0.0	436.6965889930725	0.1754610538482666
52	143.08004093170166	response	0	2		50.0	2.5	/experiments/knapen_aot/videos/R_S_yt-s2tZ2NIQrxg_175.mp4	0.0	436.8634328842163	
52	143.08865809440613	movie	1		301.0	50.0	2.5	/experiments/knapen_aot/videos/R_S_yt-s2tZ2NIQrxg_175.mp4	0.0	436.8720500469208	2.507967948913574
52	145.5966260433197	fix_post	2		12.0	50.0	2.5	/experiments/knapen_aot/videos/R_S_yt-s2tZ2NIQrxg_175.mp4	0.0	439.38001799583435	0.09987306594848633
53	145.6964991092682	fix_pre	0		10.0	51.0	2.5	/experiments/knapen_aot/videos/S_pexels-yaroslav-shuraev-8091356.mp4	0.0	439.47989106178284	0.08341097831726074
53	145.77178692817688	response	0	2		51.0	2.5	/experiments/knapen_aot/videos/S_pexels-yaroslav-shuraev-8091356.mp4	0.0	439.5551788806915	
53	145.77991008758545	movie	1		184.0	51.0	2.5	/experiments/knapen_aot/videos/S_pexels-yaroslav-shuraev-8091356.mp4	0.0	439.5633020401001	2.5083539485931396
53	148.2882640361786	fix_post	2		11.0	51.0	2.5	/experiments/knapen_aot/videos/S_pexels-yaroslav-shuraev-8091356.mp4	0.0	442.07165598869324	0.09206104278564453
53	148.37173891067505	response	2	2		51.0	2.5	/experiments/knapen_aot/videos/S_pexels-yaroslav-shuraev-8091356.mp4	0.0	442.1551308631897	
54	148.38032507896423	fix_pre	0		130.0	52.0	2.5	/experiments/knapen_aot/videos/R_S_yt-8RmEimCI80g_35.mp4	0.0	442.1637170314789	1.0833048820495605
54	149.45500993728638	response	0	2		52.0	2.5	/experiments/knapen_aot/videos/R_S_yt-8RmEimCI80g_35.mp4	0.0	443.238401889801	
54	149.4636299610138	movie	1		301.0	52.0	2.5	/experiments/knapen_aot/videos/R_S_yt-8RmEimCI80g_35.mp4	0.0	443.24702191352844	2.5079290866851807
54	151.97155904769897	fix_post	2		12.0	52.0	2.5	/experiments/knapen_aot/videos/R_S_yt-8RmEimCI80g_35.mp4	0.0	445.7549510002136	0.09999704360961914
55	152.0715560913086	fix_pre	0		10.0	53.0	2.5	/experiments/knapen_aot/videos/R_S_yt-UojTppgtyCE_121.mp4	0.0	445.85494804382324	0.08331584930419922
55	152.1466519832611	response	0	2		53.0	2.5	/experiments/knapen_aot/videos/R_S_yt-UojTppgtyCE_121.mp4	0.0	445.93004393577576	
55	152.1548719406128	movie	1		301.0	53.0	2.5	/experiments/knapen_aot/videos/R_S_yt-UojTppgtyCE_121.mp4	0.0	445.93826389312744	2.508366107940674
55	154.66323804855347	fix_post	2		12.0	53.0	2.5	/experiments/knapen_aot/videos/R_S_yt-UojTppgtyCE_121.mp4	0.0	448.4466300010681	0.09998893737792969
56	154.7632269859314	fix_pre	0		14.0	54.0	2.5	/experiments/knapen_aot/videos/S_yt-F1X_vq0Zioc_154.mp4	0.0	448.54661893844604	0.11701107025146484
56	154.8716630935669	response	0	2		54.0	2.5	/experiments/knapen_aot/videos/S_yt-F1X_vq0Zioc_154.mp4	0.0	448.65505504608154	
56	154.88023805618286	movie	1		301.0	54.0	2.5	/experiments/knapen_aot/videos/S_yt-F1X_vq0Zioc_154.mp4	0.0	448.6636300086975	2.5079519748687744
56	157.38819003105164	fix_post	2		12.0	54.0	2.5	/experiments/knapen_aot/videos/S_yt-F1X_vq0Zioc_154.mp4	0.0	451.1715819835663	0.10006499290466309
57	157.4882550239563	fix_pre	0		39.0	55.0	2.5	/experiments/knapen_aot/videos/R_S_yt-tVfYnm81ywo_82.mp4	0.0	451.27164697647095	0.32491302490234375
57	157.80505895614624	response	0	2		55.0	2.5	/experiments/knapen_aot/videos/R_S_yt-tVfYnm81ywo_82.mp4	0.0	451.5884509086609	
57	157.81316804885864	movie	1		301.0	55.0	2.5	/experiments/knapen_aot/videos/R_S_yt-tVfYnm81ywo_82.mp4	0.0	451.5965600013733	2.5083658695220947
57	160.32153391838074	fix_post	2		12.0	55.0	2.5	/experiments/knapen_aot/videos/R_S_yt-tVfYnm81ywo_82.mp4	0.0	454.1049258708954	0.09999418258666992
58	160.4215281009674	fix_pre	0		19.0	56.0	2.5	blank	1.0	454.20492005348206	0.1583268642425537
58	160.57179188728333	response	0	2		56.0	2.5	blank	1.0	454.355183839798	
58	160.57985496520996	movie	1		301.0	56.0	2.5	blank	1.0	454.3632469177246	2.5083179473876953
58	163.08817291259766	fix_post	2		12.0	56.0	2.5	blank	1.0	456.8715648651123	0.09998798370361328
59	163.18816089630127	fix_pre	0		20.0	57.0	2.5	/experiments/knapen_aot/videos/S_wc-Mf8SQpviaD6D_17.mp4	0.0	456.9715528488159	0.16668009757995605
59	163.3466670513153	response	0	2		57.0	2.5	/experiments/knapen_aot/videos/S_wc-Mf8SQpviaD6D_17.mp4	0.0	457.13005900382996	
59	163.35484099388123	movie	1		167.0	57.0	2.5	/experiments/knapen_aot/videos/S_wc-Mf8SQpviaD6D_17.mp4	0.0	457.1382329463959	2.5083730220794678
59	165.8632140159607	fix_post	2		12.0	57.0	2.5	/experiments/knapen_aot/videos/S_wc-Mf8SQpviaD6D_17.mp4	0.0	459.64660596847534	0.10028505325317383
60	165.96349906921387	fix_pre	0		13.0	58.0	2.5	/experiments/knapen_aot/videos/S_yt-EuyfT0PuOoQ_91.mp4	0.0	459.7468910217285	0.1080169677734375
60	166.0633521080017	response	0	2		58.0	2.5	/experiments/knapen_aot/videos/S_yt-EuyfT0PuOoQ_91.mp4	0.0	459.84674406051636	
60	166.0715160369873	movie	1		300.0	58.0	2.5	/experiments/knapen_aot/videos/S_yt-EuyfT0PuOoQ_91.mp4	0.0	459.85490798950195	2.508319854736328
60	168.57983589172363	fix_post	2		12.0	58.0	2.5	/experiments/knapen_aot/videos/S_yt-EuyfT0PuOoQ_91.mp4	0.0	462.3632278442383	0.09993815422058105
61	168.6797740459442	fix_pre	0		7.0	59.0	2.5	/experiments/knapen_aot/videos/S_video_inspire_sanfrancisco_castro_005.1080-h264.mp4	0.0	462.46316599845886	0.0583648681640625
61	168.72993993759155	response	0	2		59.0	2.5	/experiments/knapen_aot/videos/S_video_inspire_sanfrancisco_castro_005.1080-h264.mp4	0.0	462.5133318901062	
61	168.73813891410828	movie	1		165.0	59.0	2.5	/experiments/knapen_aot/videos/S_video_inspire_sanfrancisco_castro_005.1080-h264.mp4	0.0	462.5215308666229	2.5083441734313965
61	171.24648308753967	fix_post	2		12.0	59.0	2.5	/experiments/knapen_aot/videos/S_video_inspire_sanfrancisco_castro_005.1080-h264.mp4	0.0	465.0298750400543	0.0999898910522461
62	171.34647297859192	fix_pre	0		11.0	60.0	2.5	/experiments/knapen_aot/videos/R_S_video_copy.mp4	0.0	465.12986493110657	0.09168696403503418
62	171.43008708953857	response	0	2		60.0	2.5	/experiments/knapen_aot/videos/R_S_video_copy.mp4	0.0	465.2134790420532	
62	171.43815994262695	movie	1		164.0	60.0	2.5	/experiments/knapen_aot/videos/R_S_video_copy.mp4	0.0	465.2215518951416	2.5083439350128174
62	173.94650387763977	fix_post	2		12.0	60.0	2.5	/experiments/knapen_aot/videos/R_S_video_copy.mp4	0.0	467.7298958301544	0.10022616386413574
63	174.0467300415039	fix_pre	0		15.0	61.0	2.5	/experiments/knapen_aot/videos/S_yt-Ub5Xx5BqIOk_74.mp4	0.0	467.83012199401855	0.1249840259552002
63	174.16319108009338	response	0	2		61.0	2.5	/experiments/knapen_aot/videos/S_yt-Ub5Xx5BqIOk_74.mp4	0.0	467.94658303260803	
63	174.1717140674591	movie	1		301.0	61.0	2.5	/experiments/knapen_aot/videos/S_yt-Ub5Xx5BqIOk_74.mp4	0.0	467.95510601997375	2.5081539154052734
63	176.5549750328064	response	1	2		61.0	2.5	/experiments/knapen_aot/videos/S_yt-Ub5Xx5BqIOk_74.mp4	0.0	470.33836698532104	
63	176.67986798286438	fix_post	2		12.0	61.0	2.5	/experiments/knapen_aot/videos/S_yt-Ub5Xx5BqIOk_74.mp4	0.0	470.463259935379	0.09996700286865234
64	176.77983498573303	fix_pre	0		64.0	62.0	2.5	/experiments/knapen_aot/videos/R_S_yt-XtzmBXKYEWk_60.mp4	0.0	470.5632269382477	0.5332560539245605
64	177.3048529624939	response	0	2		62.0	2.5	/experiments/knapen_aot/videos/R_S_yt-XtzmBXKYEWk_60.mp4	0.0	471.08824491500854	
64	177.3130910396576	movie	1		298.0	62.0	2.5	/experiments/knapen_aot/videos/R_S_yt-XtzmBXKYEWk_60.mp4	0.0	471.09648299217224	2.508312940597534
64	179.82140398025513	fix_post	2		12.0	62.0	2.5	/experiments/knapen_aot/videos/R_S_yt-XtzmBXKYEWk_60.mp4	0.0	473.6047959327698	0.1002800464630127
65	179.92168402671814	fix_pre	0		22.0	63.0	2.5	blank	1.0	473.7050759792328	0.18310093879699707
65	180.089035987854	response	0	2		63.0	2.5	blank	1.0	473.87242794036865	
65	180.10478496551514	movie	1		301.0	63.0	2.5	blank	1.0	473.8881769180298	2.5082900524139404
65	182.61307501792908	fix_post	2		12.0	63.0	2.5	blank	1.0	476.3964669704437	0.10018706321716309
66	182.71326208114624	fix_pre	0		22.0	64.0	2.5	/experiments/knapen_aot/videos/R_S_yt-hZxbKZ1WCVg_24.mp4	0.0	476.4966540336609	0.18309879302978516
66	182.8881390094757	response	0	2		64.0	2.5	/experiments/knapen_aot/videos/R_S_yt-hZxbKZ1WCVg_24.mp4	0.0	476.67153096199036	
66	182.89636087417603	movie	1		301.0	64.0	2.5	/experiments/knapen_aot/videos/R_S_yt-hZxbKZ1WCVg_24.mp4	0.0	476.6797528266907	2.508364200592041
66	185.40472507476807	fix_post	2		12.0	64.0	2.5	/experiments/knapen_aot/videos/R_S_yt-hZxbKZ1WCVg_24.mp4	0.0	479.1881170272827	0.10025691986083984
67	185.5049819946289	fix_pre	0		1.0	65.0	2.5	/experiments/knapen_aot/videos/S_yt-OLDm2slgfA4_3.mp4	0.0	479.28837394714355	0.00807499885559082
67	185.50666689872742	response	0	2		65.0	2.5	/experiments/knapen_aot/videos/S_yt-OLDm2slgfA4_3.mp4	0.0	479.29005885124207	
67	185.5130569934845	movie	1		301.0	65.0	2.5	/experiments/knapen_aot/videos/S_yt-OLDm2slgfA4_3.mp4	0.0	479.29644894599915	2.5083398818969727
67	188.02139687538147	fix_post	2		12.0	65.0	2.5	/experiments/knapen_aot/videos/S_yt-OLDm2slgfA4_3.mp4	0.0	481.8047888278961	0.1000070571899414
68	188.1214039325714	fix_pre	0		1.0	66.0	2.5	/experiments/knapen_aot/videos/R_S_yt-TBY8F6UMnJQ_51.mp4	0.0	481.90479588508606	0.008541107177734375
68	188.11435508728027	response	0	2		66.0	2.5	/experiments/knapen_aot/videos/R_S_yt-TBY8F6UMnJQ_51.mp4	0.0	481.8977470397949	
68	188.12994503974915	movie	1		301.0	66.0	2.5	/experiments/knapen_aot/videos/R_S_yt-TBY8F6UMnJQ_51.mp4	0.0	481.9133369922638	2.50807785987854
68	190.5882749557495	response	1	2		66.0	2.5	/experiments/knapen_aot/videos/R_S_yt-TBY8F6UMnJQ_51.mp4	0.0	484.37166690826416	
68	190.63802289962769	fix_post	2		12.0	66.0	2.5	/experiments/knapen_aot/videos/R_S_yt-TBY8F6UMnJQ_51.mp4	0.0	484.42141485214233	0.09999918937683105
69	190.73802208900452	fix_pre	0		23.0	67.0	2.5	/experiments/knapen_aot/videos/S_yt-YOLaQ53ooks_195.mp4	0.0	484.52141404151917	0.191666841506958
69	190.92148900032043	response	0	2		67.0	2.5	/experiments/knapen_aot/videos/S_yt-YOLaQ53ooks_195.mp4	0.0	484.7048809528351	
69	190.92968893051147	movie	1		301.0	67.0	2.5	/experiments/knapen_aot/videos/S_yt-YOLaQ53ooks_195.mp4	0.0	484.7130808830261	2.5083179473876953
69	193.43800687789917	fix_post	2		12.0	67.0	2.5	/experiments/knapen_aot/videos/S_yt-YOLaQ53ooks_195.mp4	0.0	487.2213988304138	0.09995913505554199
70	193.5379660129547	fix_pre	0		10.0	68.0	2.5	blank	1.0	487.32135796546936	0.08337903022766113
70	193.61317706108093	response	0	2		68.0	2.5	blank	1.0	487.3965690135956	
70	193.62134504318237	movie	1		301.0	68.0	2.5	blank	1.0	487.404736995697	2.508518934249878
70	196.12986397743225	fix_post	2		12.0	68.0	2.5	blank	1.0	489.9132559299469	0.09985494613647461
71	196.22971892356873	fix_pre	0		29.0	69.0	2.5	/experiments/knapen_aot/videos/R_S_Pexels_Videos_2795737.mp4	0.0	490.0131108760834	0.2415599822998047
71	196.45555996894836	response	0	2		69.0	2.5	/experiments/knapen_aot/videos/R_S_Pexels_Videos_2795737.mp4	0.0	490.238951921463	
71	196.47127890586853	movie	1		159.0	69.0	2.5	/experiments/knapen_aot/videos/R_S_Pexels_Videos_2795737.mp4	0.0	490.2546708583832	2.5084781646728516
71	198.97975707054138	fix_post	2		12.0	69.0	2.5	/experiments/knapen_aot/videos/R_S_Pexels_Videos_2795737.mp4	0.0	492.76314902305603	0.09997391700744629
72	199.07973098754883	fix_pre	0		8.0	70.0	2.5	/experiments/knapen_aot/videos/R_S_ILSVRC2015_train_00574004.mp4	0.0	492.8631229400635	0.06666898727416992
72	199.1381869316101	response	0	2		70.0	2.5	/experiments/knapen_aot/videos/R_S_ILSVRC2015_train_00574004.mp4	0.0	492.92157888412476	
72	199.146399974823	movie	1		301.0	70.0	2.5	/experiments/knapen_aot/videos/R_S_ILSVRC2015_train_00574004.mp4	0.0	492.92979192733765	2.5083749294281006
72	201.6547749042511	fix_post	2		12.0	70.0	2.5	/experiments/knapen_aot/videos/R_S_ILSVRC2015_train_00574004.mp4	0.0	495.43816685676575	0.10001707077026367
73	201.75479197502136	fix_pre	0		9.0	71.0	2.5	/experiments/knapen_aot/videos/S_yt-hvuC_2YXsTQ_73.mp4	0.0	495.538183927536	0.0748600959777832
73	201.82147407531738	response	0	2		71.0	2.5	/experiments/knapen_aot/videos/S_yt-hvuC_2YXsTQ_73.mp4	0.0	495.60486602783203	
73	201.82965207099915	movie	1		301.0	71.0	2.5	/experiments/knapen_aot/videos/S_yt-hvuC_2YXsTQ_73.mp4	0.0	495.6130440235138	2.508445978164673
73	204.33809804916382	fix_post	2		12.0	71.0	2.5	/experiments/knapen_aot/videos/S_yt-hvuC_2YXsTQ_73.mp4	0.0	498.12149000167847	0.1001589298248291
74	204.43825697898865	fix_pre	0		15.0	72.0	2.5	/experiments/knapen_aot/videos/R_S_comp_GL_G002_C002_PSNK_v03_SDR_PS_20180925_SDR_2K_AVC.mp4	0.0	498.2216489315033	0.12469911575317383
74	204.55481910705566	response	0	2		72.0	2.5	/experiments/knapen_aot/videos/R_S_comp_GL_G002_C002_PSNK_v03_SDR_PS_20180925_SDR_2K_AVC.mp4	0.0	498.3382110595703	
74	204.56295609474182	movie	1		167.0	72.0	2.5	/experiments/knapen_aot/videos/R_S_comp_GL_G002_C002_PSNK_v03_SDR_PS_20180925_SDR_2K_AVC.mp4	0.0	498.34634804725647	2.5084078311920166
74	207.07136392593384	fix_post	2		12.0	72.0	2.5	/experiments/knapen_aot/videos/R_S_comp_GL_G002_C002_PSNK_v03_SDR_PS_20180925_SDR_2K_AVC.mp4	0.0	500.8547558784485	0.10011696815490723
75	207.17148089408875	fix_pre	0		21.0	73.0	2.5	/experiments/knapen_aot/videos/R_S_yt-HoRtvVuuvOs_5.mp4	0.0	500.9548728466034	0.17488813400268555
75	207.33812594413757	response	0	2		73.0	2.5	/experiments/knapen_aot/videos/R_S_yt-HoRtvVuuvOs_5.mp4	0.0	501.1215178966522	
75	207.34636902809143	movie	1		301.0	73.0	2.5	/experiments/knapen_aot/videos/R_S_yt-HoRtvVuuvOs_5.mp4	0.0	501.1297609806061	2.5083000659942627
75	209.8546690940857	fix_post	2		12.0	73.0	2.5	/experiments/knapen_aot/videos/R_S_yt-HoRtvVuuvOs_5.mp4	0.0	503.63806104660034	0.10018181800842285
76	209.95485091209412	fix_pre	0		8.0	74.0	2.5	/experiments/knapen_aot/videos/R_S_video_inspire_uk_edinburgh_arthursseat_010.1080-h264.mp4	0.0	503.73824286460876	0.06646108627319336
76	210.01311206817627	response	0	2		74.0	2.5	/experiments/knapen_aot/videos/R_S_video_inspire_uk_edinburgh_arthursseat_010.1080-h264.mp4	0.0	503.7965040206909	
76	210.0213119983673	movie	1		172.0	74.0	2.5	/experiments/knapen_aot/videos/R_S_video_inspire_uk_edinburgh_arthursseat_010.1080-h264.mp4	0.0	503.80470395088196	2.508312940597534
76	212.48803210258484	response	1	2		74.0	2.5	/experiments/knapen_aot/videos/R_S_video_inspire_uk_edinburgh_arthursseat_010.1080-h264.mp4	0.0	506.2714240550995	
76	212.52962493896484	fix_post	2		12.0	74.0	2.5	/experiments/knapen_aot/videos/R_S_video_inspire_uk_edinburgh_arthursseat_010.1080-h264.mp4	0.0	506.3130168914795	0.10005807876586914
77	212.6296830177307	fix_pre	0		66.0	75.0	2.5	/experiments/knapen_aot/videos/R_S_production_ID_5139371.mp4	0.0	506.41307497024536	0.5500118732452393
77	213.1714699268341	response	0	2		75.0	2.5	/experiments/knapen_aot/videos/R_S_production_ID_5139371.mp4	0.0	506.95486187934875	
77	213.17969489097595	movie	1		164.0	75.0	2.5	/experiments/knapen_aot/videos/R_S_production_ID_5139371.mp4	0.0	506.9630868434906	2.5082759857177734
77	215.68797087669373	fix_post	2		12.0	75.0	2.5	/experiments/knapen_aot/videos/R_S_production_ID_5139371.mp4	0.0	509.4713628292084	0.09993410110473633
78	215.78790497779846	fix_pre	0		12.0	76.0	2.5	/experiments/knapen_aot/videos/R_S_yt-c-H45QS0CF4_147.mp4	0.0	509.5712969303131	0.10001611709594727
78	215.8797469139099	response	0	2		76.0	2.5	/experiments/knapen_aot/videos/R_S_yt-c-H45QS0CF4_147.mp4	0.0	509.66313886642456	
78	215.8879210948944	movie	1		301.0	76.0	2.5	/experiments/knapen_aot/videos/R_S_yt-c-H45QS0CF4_147.mp4	0.0	509.67131304740906	2.508297920227051
78	218.39621901512146	fix_post	2		12.0	76.0	2.5	/experiments/knapen_aot/videos/R_S_yt-c-H45QS0CF4_147.mp4	0.0	512.1796109676361	0.10006093978881836
79	218.49627995491028	fix_pre	0		16.0	77.0	2.5	blank	1.0	512.2796719074249	0.13338613510131836
79	218.62140703201294	response	0	2		77.0	2.5	blank	1.0	512.4047989845276	
79	218.6296660900116	movie	1		301.0	77.0	2.5	blank	1.0	512.4130580425262	2.508211851119995
79	221.1378779411316	fix_post	2		12.0	77.0	2.5	blank	1.0	514.9212698936462	0.1000821590423584
80	221.23796010017395	fix_pre	0		29.0	78.0	2.5	/experiments/knapen_aot/videos/S_yt-Jo6PxivsTOg_247.mp4	0.0	515.0213520526886	0.24158096313476562
80	221.47128009796143	response	0	2		78.0	2.5	/experiments/knapen_aot/videos/S_yt-Jo6PxivsTOg_247.mp4	0.0	515.2546720504761	
80	221.47954106330872	movie	1		301.0	78.0	2.5	/experiments/knapen_aot/videos/S_yt-Jo6PxivsTOg_247.mp4	0.0	515.2629330158234	2.5083210468292236
80	223.98786211013794	fix_post	2		12.0	78.0	2.5	/experiments/knapen_aot/videos/S_yt-Jo6PxivsTOg_247.mp4	0.0	517.7712540626526	0.10008096694946289
81	224.0879430770874	fix_pre	0		40.0	79.0	2.5	/experiments/knapen_aot/videos/R_S_yt-FsylDeYfcxU_24.mp4	0.0	517.871335029602	0.333237886428833
81	224.41306495666504	response	0	2		79.0	2.5	/experiments/knapen_aot/videos/R_S_yt-FsylDeYfcxU_24.mp4	0.0	518.1964569091797	
81	224.42118096351624	movie	1		299.0	79.0	2.5	/experiments/knapen_aot/videos/R_S_yt-FsylDeYfcxU_24.mp4	0.0	518.2045729160309	2.508436918258667
81	226.9296178817749	fix_post	2		12.0	79.0	2.5	/experiments/knapen_aot/videos/R_S_yt-FsylDeYfcxU_24.mp4	0.0	520.7130098342896	0.09999418258666992
82	227.02961206436157	fix_pre	0		15.0	80.0	2.5	/experiments/knapen_aot/videos/R_S_Pexels_Videos_2786546.mp4	0.0	520.8130040168762	0.12499094009399414
82	227.14640593528748	response	0	2		80.0	2.5	/experiments/knapen_aot/videos/R_S_Pexels_Videos_2786546.mp4	0.0	520.9297978878021	
82	227.15460300445557	movie	1		165.0	80.0	2.5	/experiments/knapen_aot/videos/R_S_Pexels_Videos_2786546.mp4	0.0	520.9379949569702	2.5082969665527344
82	229.6628999710083	fix_post	2		12.0	80.0	2.5	/experiments/knapen_aot/videos/R_S_Pexels_Videos_2786546.mp4	0.0	523.446291923523	0.10002708435058594
83	229.7629270553589	fix_pre	0		3.0	81.0	2.5	/experiments/knapen_aot/videos/S_flickr-claywakening-27928940166_2.mp4	0.0	523.5463190078735	0.026468992233276367
83	229.78054809570312	response	0	2		81.0	2.5	/experiments/knapen_aot/videos/S_flickr-claywakening-27928940166_2.mp4	0.0	523.5639400482178	
83	229.78939604759216	movie	1		170.0	81.0	2.5	/experiments/knapen_aot/videos/S_flickr-claywakening-27928940166_2.mp4	0.0	523.5727880001068	2.5067989826202393
83	232.2961950302124	fix_post	2		12.0	81.0	2.5	/experiments/knapen_aot/videos/S_flickr-claywakening-27928940166_2.mp4	0.0	526.079586982727	0.09998297691345215
84	232.39617800712585	fix_pre	0		4.0	82.0	2.5	blank	1.0	526.1795699596405	0.033432960510253906
84	232.42137694358826	response	0	2		82.0	2.5	blank	1.0	526.2047688961029	
84	232.4296109676361	movie	1		301.0	82.0	2.5	blank	1.0	526.2130029201508	2.508216142654419
84	234.93782711029053	fix_post	2		12.0	82.0	2.5	blank	1.0	528.7212190628052	0.09998679161071777
85	235.03781390190125	fix_pre	0		23.0	83.0	2.5	/experiments/knapen_aot/videos/S_ILSVRC2015_train_00479004.mp4	0.0	528.8212058544159	0.19167709350585938
85	235.22131204605103	response	0	2		83.0	2.5	/experiments/knapen_aot/videos/S_ILSVRC2015_train_00479004.mp4	0.0	529.0047039985657	
85	235.2294909954071	movie	1		301.0	83.0	2.5	/experiments/knapen_aot/videos/S_ILSVRC2015_train_00479004.mp4	0.0	529.0128829479218	2.508312940597534
85	237.73780393600464	fix_post	2		12.0	83.0	2.5	/experiments/knapen_aot/videos/S_ILSVRC2015_train_00479004.mp4	0.0	531.5211958885193	0.09998297691345215
87	237.8377869129181	stim	0		250.0					531.6211788654327	2.083386182785034
87	237.92156600952148	response	0	2						531.7049579620361	
87	239.91009187698364	response	0	space						533.6934838294983	
