trial_nr	onset	event_type	phase	response	nr_frames	movie_index	movie_duration	movie_file	blank	onset_abs	duration
0	0.12503600120544434	stim	0		39.0					212.4555208683014	0.32630205154418945
0	0.44083499908447266	response	0	space						212.77131986618042	
1	0.4513380527496338	stim	0		121.0					212.78182291984558	1.0058610439300537
1	1.0904560089111328	response	0	space						213.42094087600708	
1	1.4321630001068115	response	0	space						213.76264786720276	
1	1.4571990966796875	stim	1		120.0					213.78768396377563	0.9998049736022949
1	1.8237531185150146	response	1	space						214.15423798561096	
2	2.4570040702819824	fix_pre	0		22.0	0.0	2.5	/experiments/knapen_aot/videos/S_yt-mQRzWCcKOR8_28.mp4	0.0	214.78748893737793	0.18329596519470215
2	2.6321699619293213	response	0	space		0.0	2.5	/experiments/knapen_aot/videos/S_yt-mQRzWCcKOR8_28.mp4	0.0	214.96265482902527	
2	2.6403000354766846	movie	1		301.0	0.0	2.5	/experiments/knapen_aot/videos/S_yt-mQRzWCcKOR8_28.mp4	0.0	214.97078490257263	2.5084140300750732
2	5.148714065551758	fix_post	2		12.0	0.0	2.5	/experiments/knapen_aot/videos/S_yt-mQRzWCcKOR8_28.mp4	0.0	217.4791989326477	0.09998798370361328
3	5.248702049255371	fix_pre	0		121.0	1.0	2.5	/experiments/knapen_aot/videos/R_S_yt-1iB2ofPY1U8_16.mp4	0.0	217.57918691635132	1.0083129405975342
3	6.249701976776123	response	0	2		1.0	2.5	/experiments/knapen_aot/videos/R_S_yt-1iB2ofPY1U8_16.mp4	0.0	218.58018684387207	
3	6.257014989852905	movie	1		301.0	1.0	2.5	/experiments/knapen_aot/videos/R_S_yt-1iB2ofPY1U8_16.mp4	0.0	218.58749985694885	2.508277177810669
3	8.765292167663574	fix_post	2		12.0	1.0	2.5	/experiments/knapen_aot/videos/R_S_yt-1iB2ofPY1U8_16.mp4	0.0	221.09577703475952	0.0999898910522461
4	8.86528205871582	fix_pre	0		56.0	2.0	2.5	/experiments/knapen_aot/videos/S_WCwb-DeQOSg_85.mp4	0.0	221.19576692581177	0.4676821231842041
4	9.323759078979492	response	0	2		2.0	2.5	/experiments/knapen_aot/videos/S_WCwb-DeQOSg_85.mp4	0.0	221.65424394607544	
4	9.332964181900024	movie	1		301.0	2.0	2.5	/experiments/knapen_aot/videos/S_WCwb-DeQOSg_85.mp4	0.0	221.66344904899597	2.5073587894439697
4	11.840322971343994	fix_post	2		12.0	2.0	2.5	/experiments/knapen_aot/videos/S_WCwb-DeQOSg_85.mp4	0.0	224.17080783843994	0.09990811347961426
5	11.940231084823608	fix_pre	0		72.0	3.0	2.5	/experiments/knapen_aot/videos/R_S_ILSVRC2015_train_00417000.mp4	0.0	224.27071595191956	0.6009120941162109
5	12.532076120376587	response	0	2		3.0	2.5	/experiments/knapen_aot/videos/R_S_ILSVRC2015_train_00417000.mp4	0.0	224.86256098747253	
5	12.54114317893982	movie	1		301.0	3.0	2.5	/experiments/knapen_aot/videos/R_S_ILSVRC2015_train_00417000.mp4	0.0	224.87162804603577	2.5074779987335205
5	15.04862117767334	fix_post	2		12.0	3.0	2.5	/experiments/knapen_aot/videos/R_S_ILSVRC2015_train_00417000.mp4	0.0	227.3791060447693	0.10000181198120117
6	15.148622989654541	fix_pre	0		32.0	4.0	2.5	/experiments/knapen_aot/videos/S_yt-aD-EAuBdpUo_163.mp4	0.0	227.4791078567505	0.26751112937927246
6	15.407080173492432	response	0	2		4.0	2.5	/experiments/knapen_aot/videos/S_yt-aD-EAuBdpUo_163.mp4	0.0	227.73756504058838	
6	15.416134119033813	movie	1		301.0	4.0	2.5	/experiments/knapen_aot/videos/S_yt-aD-EAuBdpUo_163.mp4	0.0	227.74661898612976	2.507467031478882
6	17.923601150512695	fix_post	2		12.0	4.0	2.5	/experiments/knapen_aot/videos/S_yt-aD-EAuBdpUo_163.mp4	0.0	230.25408601760864	0.0999460220336914
7	18.023547172546387	fix_pre	0		30.0	5.0	2.5	blank	1.0	230.35403203964233	0.25002098083496094
7	18.26537013053894	response	0	2		5.0	2.5	blank	1.0	230.5958549976349	
7	18.273568153381348	movie	1		301.0	5.0	2.5	blank	1.0	230.6040530204773	2.5083420276641846
7	20.781910181045532	fix_post	2		12.0	5.0	2.5	blank	1.0	233.11239504814148	0.10002994537353516
8	20.881940126419067	fix_pre	0		34.0	6.0	2.5	/experiments/knapen_aot/videos/S_ILSVRC2015_train_00364000.mp4	0.0	233.21242499351501	0.28415584564208984
8	21.156959056854248	response	0	2		6.0	2.5	/experiments/knapen_aot/videos/S_ILSVRC2015_train_00364000.mp4	0.0	233.4874439239502	
8	21.166095972061157	movie	1		301.0	6.0	2.5	/experiments/knapen_aot/videos/S_ILSVRC2015_train_00364000.mp4	0.0	233.4965808391571	2.5074820518493652
8	23.673578023910522	fix_post	2		12.0	6.0	2.5	/experiments/knapen_aot/videos/S_ILSVRC2015_train_00364000.mp4	0.0	236.00406289100647	0.09999394416809082
9	23.773571968078613	fix_pre	0		38.0	7.0	2.5	/experiments/knapen_aot/videos/S_video_inspire_nevada_lasvegas_northstrip_021.1080-h264.mp4	0.0	236.10405683517456	0.31664514541625977
9	24.082038164138794	response	0	2		7.0	2.5	/experiments/knapen_aot/videos/S_video_inspire_nevada_lasvegas_northstrip_021.1080-h264.mp4	0.0	236.41252303123474	
9	24.090217113494873	movie	1		168.0	7.0	2.5	/experiments/knapen_aot/videos/S_video_inspire_nevada_lasvegas_northstrip_021.1080-h264.mp4	0.0	236.42070198059082	2.508341073989868
9	26.59855818748474	fix_post	2		12.0	7.0	2.5	/experiments/knapen_aot/videos/S_video_inspire_nevada_lasvegas_northstrip_021.1080-h264.mp4	0.0	238.9290430545807	0.09999799728393555
10	26.698556184768677	fix_pre	0		34.0	8.0	2.5	/experiments/knapen_aot/videos/S_yt-7bSTxOajpjc_58.mp4	0.0	239.02904105186462	0.28330278396606445
10	26.973730087280273	response	0	2		8.0	2.5	/experiments/knapen_aot/videos/S_yt-7bSTxOajpjc_58.mp4	0.0	239.30421495437622	
10	26.98185896873474	movie	1		301.0	8.0	2.5	/experiments/knapen_aot/videos/S_yt-7bSTxOajpjc_58.mp4	0.0	239.3123438358307	2.5083541870117188
10	29.49021315574646	fix_post	2		12.0	8.0	2.5	/experiments/knapen_aot/videos/S_yt-7bSTxOajpjc_58.mp4	0.0	241.8206980228424	0.09997797012329102
11	29.59019112586975	fix_pre	0		42.0	9.0	2.5	/experiments/knapen_aot/videos/S_yt--vHa85DHvLU_31.mp4	0.0	241.9206759929657	0.3500099182128906
11	29.932095050811768	response	0	2		9.0	2.5	/experiments/knapen_aot/videos/S_yt--vHa85DHvLU_31.mp4	0.0	242.26257991790771	
11	29.94020104408264	movie	1		301.0	9.0	2.5	/experiments/knapen_aot/videos/S_yt--vHa85DHvLU_31.mp4	0.0	242.2706859111786	2.5082831382751465
11	32.44848418235779	fix_post	2		12.0	9.0	2.5	/experiments/knapen_aot/videos/S_yt--vHa85DHvLU_31.mp4	0.0	244.77896904945374	0.10006880760192871
12	32.54855298995972	fix_pre	0		36.0	10.0	2.5	/experiments/knapen_aot/videos/R_S_yt-8gCfc-o3pyk_85.mp4	0.0	244.87903785705566	0.2999441623687744
12	32.83274602890015	response	0	2		10.0	2.5	/experiments/knapen_aot/videos/R_S_yt-8gCfc-o3pyk_85.mp4	0.0	245.1632308959961	
12	32.84849715232849	movie	1		301.0	10.0	2.5	/experiments/knapen_aot/videos/R_S_yt-8gCfc-o3pyk_85.mp4	0.0	245.17898201942444	2.5085270404815674
12	35.35702419281006	fix_post	2		12.0	10.0	2.5	/experiments/knapen_aot/videos/R_S_yt-8gCfc-o3pyk_85.mp4	0.0	247.687509059906	0.09984278678894043
13	35.456866979599	fix_pre	0		31.0	11.0	2.5	/experiments/knapen_aot/videos/R_S_production_ID_5049072.mp4	0.0	247.78735184669495	0.25829315185546875
13	35.706942081451416	response	0	2		11.0	2.5	/experiments/knapen_aot/videos/R_S_production_ID_5049072.mp4	0.0	248.03742694854736	
13	35.71516013145447	movie	1		168.0	11.0	2.5	/experiments/knapen_aot/videos/R_S_production_ID_5049072.mp4	0.0	248.04564499855042	2.508359909057617
13	38.223520040512085	fix_post	2		12.0	11.0	2.5	/experiments/knapen_aot/videos/R_S_production_ID_5049072.mp4	0.0	250.55400490760803	0.10001111030578613
14	38.32353115081787	fix_pre	0		29.0	12.0	2.5	/experiments/knapen_aot/videos/R_S_yt-MEfljVFL0xw_375.mp4	0.0	250.65401601791382	0.24163484573364258
14	38.5494601726532	response	0	2		12.0	2.5	/experiments/knapen_aot/videos/R_S_yt-MEfljVFL0xw_375.mp4	0.0	250.87994503974915	
14	38.565165996551514	movie	1		301.0	12.0	2.5	/experiments/knapen_aot/videos/R_S_yt-MEfljVFL0xw_375.mp4	0.0	250.89565086364746	2.50846004486084
14	41.07362604141235	fix_post	2		12.0	12.0	2.5	/experiments/knapen_aot/videos/R_S_yt-MEfljVFL0xw_375.mp4	0.0	253.4041109085083	0.0998849868774414
15	41.173511028289795	fix_pre	0		20.0	13.0	2.5	blank	1.0	253.50399589538574	0.16662216186523438
15	41.33192300796509	response	0	2		13.0	2.5	blank	1.0	253.66240787506104	
15	41.34013319015503	movie	1		301.0	13.0	2.5	blank	1.0	253.67061805725098	2.5083389282226562
15	43.848472118377686	fix_post	2		12.0	13.0	2.5	blank	1.0	256.17895698547363	0.10004186630249023
16	43.948513984680176	fix_pre	0		35.0	14.0	2.5	/experiments/knapen_aot/videos/S_yt-xSGPe0KemD4_384.mp4	0.0	256.2789988517761	0.2916259765625
16	44.23185706138611	response	0	2		14.0	2.5	/experiments/knapen_aot/videos/S_yt-xSGPe0KemD4_384.mp4	0.0	256.56234192848206	
16	44.240139961242676	movie	1		301.0	14.0	2.5	/experiments/knapen_aot/videos/S_yt-xSGPe0KemD4_384.mp4	0.0	256.5706248283386	2.50835919380188
16	46.748499155044556	fix_post	2		12.0	14.0	2.5	/experiments/knapen_aot/videos/S_yt-xSGPe0KemD4_384.mp4	0.0	259.0789840221405	0.0999898910522461
17	46.8484890460968	fix_pre	0		37.0	15.0	2.5	/experiments/knapen_aot/videos/R_S_yt-lfDIg8kaXhA_169.mp4	0.0	259.17897391319275	0.30829501152038574
17	47.148574113845825	response	0	2		15.0	2.5	/experiments/knapen_aot/videos/R_S_yt-lfDIg8kaXhA_169.mp4	0.0	259.4790589809418	
17	47.15678405761719	movie	1		301.0	15.0	2.5	/experiments/knapen_aot/videos/R_S_yt-lfDIg8kaXhA_169.mp4	0.0	259.48726892471313	2.5083560943603516
17	49.66514015197754	fix_post	2		12.0	15.0	2.5	/experiments/knapen_aot/videos/R_S_yt-lfDIg8kaXhA_169.mp4	0.0	261.9956250190735	0.09993195533752441
18	49.76507210731506	fix_pre	0		54.0	16.0	2.5	/experiments/knapen_aot/videos/S_yt-NQSCGMpo-p8_118.mp4	0.0	262.095556974411	0.4500429630279541
18	50.206928968429565	response	0	2		16.0	2.5	/experiments/knapen_aot/videos/S_yt-NQSCGMpo-p8_118.mp4	0.0	262.5374138355255	
18	50.21511507034302	movie	1		301.0	16.0	2.5	/experiments/knapen_aot/videos/S_yt-NQSCGMpo-p8_118.mp4	0.0	262.54559993743896	2.508323907852173
18	52.72343897819519	fix_post	2		12.0	16.0	2.5	/experiments/knapen_aot/videos/S_yt-NQSCGMpo-p8_118.mp4	0.0	265.05392384529114	0.09991002082824707
19	52.82334899902344	fix_pre	0		40.0	17.0	2.5	/experiments/knapen_aot/videos/S_flickr-slruok-8006772217_6.mp4	0.0	265.1538338661194	0.3333561420440674
19	53.1485550403595	response	0	2		17.0	2.5	/experiments/knapen_aot/videos/S_flickr-slruok-8006772217_6.mp4	0.0	265.47903990745544	
19	53.156705141067505	movie	1		300.0	17.0	2.5	/experiments/knapen_aot/videos/S_flickr-slruok-8006772217_6.mp4	0.0	265.48719000816345	2.508330821990967
19	55.66503596305847	fix_post	2		12.0	17.0	2.5	/experiments/knapen_aot/videos/S_flickr-slruok-8006772217_6.mp4	0.0	267.9955208301544	0.10004210472106934
20	55.76507806777954	fix_pre	0		29.0	18.0	2.5	/experiments/knapen_aot/videos/S_yt-rIQoRErqnlI_17.mp4	0.0	268.0955629348755	0.24164795875549316
20	55.99858808517456	response	0	2		18.0	2.5	/experiments/knapen_aot/videos/S_yt-rIQoRErqnlI_17.mp4	0.0	268.3290729522705	
20	56.006726026535034	movie	1		301.0	18.0	2.5	/experiments/knapen_aot/videos/S_yt-rIQoRErqnlI_17.mp4	0.0	268.337210893631	2.508366107940674
20	57.176918029785156	response	1	2		18.0	2.5	/experiments/knapen_aot/videos/S_yt-rIQoRErqnlI_17.mp4	0.0	269.5074028968811	
20	58.51509213447571	fix_post	2		12.0	18.0	2.5	/experiments/knapen_aot/videos/S_yt-rIQoRErqnlI_17.mp4	0.0	270.84557700157166	0.09996700286865234
21	58.61505913734436	fix_pre	0		28.0	19.0	2.5	/experiments/knapen_aot/videos/R_S_wc-dwTccI0TNwps_15.mp4	0.0	270.9455440044403	0.23333382606506348
21	58.84019899368286	response	0	2		19.0	2.5	/experiments/knapen_aot/videos/R_S_wc-dwTccI0TNwps_15.mp4	0.0	271.1706838607788	
21	58.848392963409424	movie	1		301.0	19.0	2.5	/experiments/knapen_aot/videos/R_S_wc-dwTccI0TNwps_15.mp4	0.0	271.17887783050537	2.5083541870117188
21	61.35674715042114	fix_post	2		12.0	19.0	2.5	/experiments/knapen_aot/videos/R_S_wc-dwTccI0TNwps_15.mp4	0.0	273.6872320175171	0.0999748706817627
22	61.456722021102905	fix_pre	0		21.0	20.0	2.5	/experiments/knapen_aot/videos/R_S_yt-LsCCAQ8BRO8_7.mp4	0.0	273.78720688819885	0.17497611045837402
22	61.62349605560303	response	0	2		20.0	2.5	/experiments/knapen_aot/videos/R_S_yt-LsCCAQ8BRO8_7.mp4	0.0	273.953980922699	
22	61.63169813156128	movie	1		301.0	20.0	2.5	/experiments/knapen_aot/videos/R_S_yt-LsCCAQ8BRO8_7.mp4	0.0	273.9621829986572	2.508476972579956
22	64.14017510414124	fix_post	2		12.0	20.0	2.5	/experiments/knapen_aot/videos/R_S_yt-LsCCAQ8BRO8_7.mp4	0.0	276.4706599712372	0.09991288185119629
23	64.24008798599243	fix_pre	0		32.0	21.0	2.5	blank	1.0	276.5705728530884	0.26659512519836426
23	64.49849796295166	response	0	2		21.0	2.5	blank	1.0	276.8289828300476	
23	64.5066831111908	movie	1		301.0	21.0	2.5	blank	1.0	276.83716797828674	2.5083019733428955
23	67.01498508453369	fix_post	2		12.0	21.0	2.5	blank	1.0	279.34546995162964	0.10011506080627441
24	67.11510014533997	fix_pre	0		28.0	22.0	2.5	/experiments/knapen_aot/videos/S_pexels-mart-production-7698693.mp4	0.0	279.4455850124359	0.23324894905090332
24	67.34016919136047	response	0	2		22.0	2.5	/experiments/knapen_aot/videos/S_pexels-mart-production-7698693.mp4	0.0	279.6706540584564	
24	67.34834909439087	movie	1		186.0	22.0	2.5	/experiments/knapen_aot/videos/S_pexels-mart-production-7698693.mp4	0.0	279.6788339614868	2.5083439350128174
24	69.85669302940369	fix_post	2		12.0	22.0	2.5	/experiments/knapen_aot/videos/S_pexels-mart-production-7698693.mp4	0.0	282.18717789649963	0.10003805160522461
25	69.95673108100891	fix_pre	0		64.0	23.0	2.5	/experiments/knapen_aot/videos/S_yt-Fdv-V--QlR0_117.mp4	0.0	282.28721594810486	0.5332388877868652
25	70.48174595832825	response	0	2		23.0	2.5	/experiments/knapen_aot/videos/S_yt-Fdv-V--QlR0_117.mp4	0.0	282.8122308254242	
25	70.48996996879578	movie	1		301.0	23.0	2.5	/experiments/knapen_aot/videos/S_yt-Fdv-V--QlR0_117.mp4	0.0	282.8204548358917	2.5084140300750732
25	72.99838399887085	fix_post	2		12.0	23.0	2.5	/experiments/knapen_aot/videos/S_yt-Fdv-V--QlR0_117.mp4	0.0	285.3288688659668	0.09997415542602539
26	73.09835815429688	fix_pre	0		47.0	24.0	2.5	/experiments/knapen_aot/videos/R_S_ILSVRC2015_train_00568002.mp4	0.0	285.4288430213928	0.3915829658508301
26	73.48171210289001	response	0	2		24.0	2.5	/experiments/knapen_aot/videos/R_S_ILSVRC2015_train_00568002.mp4	0.0	285.81219696998596	
26	73.4899411201477	movie	1		301.0	24.0	2.5	/experiments/knapen_aot/videos/R_S_ILSVRC2015_train_00568002.mp4	0.0	285.82042598724365	2.5084340572357178
26	75.99837517738342	fix_post	2		12.0	24.0	2.5	/experiments/knapen_aot/videos/R_S_ILSVRC2015_train_00568002.mp4	0.0	288.32886004447937	0.09997797012329102
27	76.09835314750671	fix_pre	0		12.0	25.0	2.5	/experiments/knapen_aot/videos/S_comp_N008_C003_PS_v01_SDR_PS_20180925_SDR_2K_AVC.mp4	0.0	288.42883801460266	0.09995293617248535
27	76.19007611274719	response	0	2		25.0	2.5	/experiments/knapen_aot/videos/S_comp_N008_C003_PS_v01_SDR_PS_20180925_SDR_2K_AVC.mp4	0.0	288.52056097984314	
27	76.1983060836792	movie	1		164.0	25.0	2.5	/experiments/knapen_aot/videos/S_comp_N008_C003_PS_v01_SDR_PS_20180925_SDR_2K_AVC.mp4	0.0	288.52879095077515	2.508366107940674
27	78.70667219161987	fix_post	2		12.0	25.0	2.5	/experiments/knapen_aot/videos/S_comp_N008_C003_PS_v01_SDR_PS_20180925_SDR_2K_AVC.mp4	0.0	291.0371570587158	0.1001279354095459
28	78.80680012702942	fix_pre	0		25.0	26.0	2.5	/experiments/knapen_aot/videos/S_ILSVRC2015_train_00364000.mp4	0.0	291.13728499412537	0.20819091796875
28	79.00672006607056	response	0	2		26.0	2.5	/experiments/knapen_aot/videos/S_ILSVRC2015_train_00364000.mp4	0.0	291.3372049331665	
28	79.01499104499817	movie	1		301.0	26.0	2.5	/experiments/knapen_aot/videos/S_ILSVRC2015_train_00364000.mp4	0.0	291.3454759120941	2.508316993713379
28	81.52330803871155	fix_post	2		12.0	26.0	2.5	/experiments/knapen_aot/videos/S_ILSVRC2015_train_00364000.mp4	0.0	293.8537929058075	0.09996294975280762
29	81.62327098846436	fix_pre	0		48.0	27.0	2.5	blank	1.0	293.9537558555603	0.4083731174468994
29	82.02345108985901	response	0	2		27.0	2.5	blank	1.0	294.35393595695496	
29	82.03164410591125	movie	1		301.0	27.0	2.5	blank	1.0	294.3621289730072	2.508436918258667
29	84.54008102416992	fix_post	2		12.0	27.0	2.5	blank	1.0	296.87056589126587	0.09991812705993652
30	84.63999915122986	fix_pre	0		27.0	28.0	2.5	/experiments/knapen_aot/videos/S_m-aeoYPMqfg_185.mp4	0.0	296.9704840183258	0.22489380836486816
30	84.85673499107361	response	0	2		28.0	2.5	/experiments/knapen_aot/videos/S_m-aeoYPMqfg_185.mp4	0.0	297.18721985816956	
30	84.86489295959473	movie	1		301.0	28.0	2.5	/experiments/knapen_aot/videos/S_m-aeoYPMqfg_185.mp4	0.0	297.1953778266907	2.5084211826324463
30	87.37331414222717	fix_post	2		12.0	28.0	2.5	/experiments/knapen_aot/videos/S_m-aeoYPMqfg_185.mp4	0.0	299.7037990093231	0.10033297538757324
31	87.47364711761475	fix_pre	0		33.0	29.0	2.5	/experiments/knapen_aot/videos/S_yt-v9WGfC67DPk_50.mp4	0.0	299.8041319847107	0.2751040458679199
31	87.74009799957275	response	0	2		29.0	2.5	/experiments/knapen_aot/videos/S_yt-v9WGfC67DPk_50.mp4	0.0	300.0705828666687	
31	87.74875116348267	movie	1		301.0	29.0	2.5	/experiments/knapen_aot/videos/S_yt-v9WGfC67DPk_50.mp4	0.0	300.0792360305786	2.507845878601074
31	90.25659704208374	fix_post	2		12.0	29.0	2.5	/experiments/knapen_aot/videos/S_yt-v9WGfC67DPk_50.mp4	0.0	302.5870819091797	0.09997296333312988
32	90.35657000541687	fix_pre	0		50.0	30.0	2.5	/experiments/knapen_aot/videos/S_yt-urJgH6tpfkU_204.mp4	0.0	302.6870548725128	0.41666507720947266
32	90.76522016525269	response	0	2		30.0	2.5	/experiments/knapen_aot/videos/S_yt-urJgH6tpfkU_204.mp4	0.0	303.09570503234863	
32	90.77323508262634	movie	1		301.0	30.0	2.5	/experiments/knapen_aot/videos/S_yt-urJgH6tpfkU_204.mp4	0.0	303.1037199497223	2.50833797454834
32	93.28157305717468	fix_post	2		12.0	30.0	2.5	/experiments/knapen_aot/videos/S_yt-urJgH6tpfkU_204.mp4	0.0	305.61205792427063	0.10008692741394043
33	93.38165998458862	fix_pre	0		53.0	31.0	2.5	/experiments/knapen_aot/videos/S_ILSVRC2015_train_00405000.mp4	0.0	305.71214485168457	0.44161319732666016
33	93.80749917030334	response	0	2		31.0	2.5	/experiments/knapen_aot/videos/S_ILSVRC2015_train_00405000.mp4	0.0	306.1379840373993	
33	93.82327318191528	movie	1		301.0	31.0	2.5	/experiments/knapen_aot/videos/S_ILSVRC2015_train_00405000.mp4	0.0	306.15375804901123	2.5085439682006836
33	96.33181715011597	fix_post	2		12.0	31.0	2.5	/experiments/knapen_aot/videos/S_ILSVRC2015_train_00405000.mp4	0.0	308.6623020172119	0.09969496726989746
34	96.43151211738586	fix_pre	0		46.0	32.0	2.5	/experiments/knapen_aot/videos/R_S_yt-8LO59eN9om4_16.mp4	0.0	308.7619969844818	0.3833279609680176
34	96.8066999912262	response	0	2		32.0	2.5	/experiments/knapen_aot/videos/R_S_yt-8LO59eN9om4_16.mp4	0.0	309.13718485832214	
34	96.81484007835388	movie	1		301.0	32.0	2.5	/experiments/knapen_aot/videos/R_S_yt-8LO59eN9om4_16.mp4	0.0	309.14532494544983	2.5083370208740234
34	99.3231770992279	fix_post	2		12.0	32.0	2.5	/experiments/knapen_aot/videos/R_S_yt-8LO59eN9om4_16.mp4	0.0	311.65366196632385	0.10005807876586914
35	99.42323517799377	fix_pre	0		46.0	33.0	2.5	/experiments/knapen_aot/videos/S_ILSVRC2015_train_00450001.mp4	0.0	311.7537200450897	0.3833329677581787
35	99.79837608337402	response	0	2		33.0	2.5	/experiments/knapen_aot/videos/S_ILSVRC2015_train_00450001.mp4	0.0	312.12886095046997	
35	99.80656814575195	movie	1		301.0	33.0	2.5	/experiments/knapen_aot/videos/S_ILSVRC2015_train_00450001.mp4	0.0	312.1370530128479	2.5084168910980225
35	102.31498503684998	fix_post	2		12.0	33.0	2.5	/experiments/knapen_aot/videos/S_ILSVRC2015_train_00450001.mp4	0.0	314.6454699039459	0.10002493858337402
36	102.41500997543335	fix_pre	0		57.0	34.0	2.5	blank	1.0	314.7454948425293	0.4748561382293701
36	102.88167309761047	response	0	2		34.0	2.5	blank	1.0	315.2121579647064	
36	102.88986611366272	movie	1		301.0	34.0	2.5	blank	1.0	315.22035098075867	2.5083189010620117
36	105.39818501472473	fix_post	2		12.0	34.0	2.5	blank	1.0	317.7286698818207	0.09996294975280762
37	105.49814796447754	fix_pre	0		58.0	35.0	2.5	/experiments/knapen_aot/videos/R_S_yt-PCSXJ5YB_AE_3.mp4	0.0	317.8286328315735	0.4833681583404541
37	105.97332000732422	response	0	2		35.0	2.5	/experiments/knapen_aot/videos/R_S_yt-PCSXJ5YB_AE_3.mp4	0.0	318.30380487442017	
37	105.981516122818	movie	1		301.0	35.0	2.5	/experiments/knapen_aot/videos/R_S_yt-PCSXJ5YB_AE_3.mp4	0.0	318.31200098991394	2.5083558559417725
37	108.48987197875977	fix_post	2		12.0	35.0	2.5	/experiments/knapen_aot/videos/R_S_yt-PCSXJ5YB_AE_3.mp4	0.0	320.8203568458557	0.10001015663146973
38	108.58988213539124	fix_pre	0		33.0	36.0	2.5	/experiments/knapen_aot/videos/R_S_yt-lzXao6Reec4_14.mp4	0.0	320.9203670024872	0.27495384216308594
38	108.8566300868988	response	0	2		36.0	2.5	/experiments/knapen_aot/videos/R_S_yt-lzXao6Reec4_14.mp4	0.0	321.18711495399475	
38	108.86483597755432	movie	1		301.0	36.0	2.5	/experiments/knapen_aot/videos/R_S_yt-lzXao6Reec4_14.mp4	0.0	321.19532084465027	2.508364200592041
38	111.37320017814636	fix_post	2		12.0	36.0	2.5	/experiments/knapen_aot/videos/R_S_yt-lzXao6Reec4_14.mp4	0.0	323.7036850452423	0.09995889663696289
39	111.47315907478333	fix_pre	0		62.0	37.0	2.5	/experiments/knapen_aot/videos/R_S_yt-JtR6WZXT2kU_8.mp4	0.0	323.8036439418793	0.5166819095611572
39	111.98168015480042	response	0	2		37.0	2.5	/experiments/knapen_aot/videos/R_S_yt-JtR6WZXT2kU_8.mp4	0.0	324.31216502189636	
39	111.98984098434448	movie	1		301.0	37.0	2.5	/experiments/knapen_aot/videos/R_S_yt-JtR6WZXT2kU_8.mp4	0.0	324.32032585144043	2.508390188217163
39	114.49823117256165	fix_post	2		12.0	37.0	2.5	/experiments/knapen_aot/videos/R_S_yt-JtR6WZXT2kU_8.mp4	0.0	326.8287160396576	0.09992384910583496
40	114.59815502166748	fix_pre	0		50.0	38.0	2.5	/experiments/knapen_aot/videos/R_S_yt-mdLT282PVbE_6.mp4	0.0	326.9286398887634	0.41675496101379395
40	114.99911403656006	response	0	2		38.0	2.5	/experiments/knapen_aot/videos/R_S_yt-mdLT282PVbE_6.mp4	0.0	327.329598903656	
40	115.01490998268127	movie	1		301.0	38.0	2.5	/experiments/knapen_aot/videos/R_S_yt-mdLT282PVbE_6.mp4	0.0	327.3453948497772	2.508261203765869
40	117.52317118644714	fix_post	2		12.0	38.0	2.5	/experiments/knapen_aot/videos/R_S_yt-mdLT282PVbE_6.mp4	0.0	329.8536560535431	0.10016798973083496
41	117.62333917617798	fix_pre	0		47.0	39.0	2.5	/experiments/knapen_aot/videos/R_S_yt-zSSnQYeO_DE_338.mp4	0.0	329.9538240432739	0.39147186279296875
41	118.0065770149231	response	0	2		39.0	2.5	/experiments/knapen_aot/videos/R_S_yt-zSSnQYeO_DE_338.mp4	0.0	330.33706188201904	
41	118.01481103897095	movie	1		301.0	39.0	2.5	/experiments/knapen_aot/videos/R_S_yt-zSSnQYeO_DE_338.mp4	0.0	330.3452959060669	2.508301019668579
41	120.52311205863953	fix_post	2		12.0	39.0	2.5	/experiments/knapen_aot/videos/R_S_yt-zSSnQYeO_DE_338.mp4	0.0	332.8535969257355	0.10037493705749512
42	120.62348699569702	fix_pre	0		49.0	40.0	2.5	/experiments/knapen_aot/videos/S_yt-mQESmS4uqRU_208.mp4	0.0	332.95397186279297	0.40795207023620605
42	121.02323412895203	response	0	2		40.0	2.5	/experiments/knapen_aot/videos/S_yt-mQESmS4uqRU_208.mp4	0.0	333.353718996048	
42	121.03143906593323	movie	1		301.0	40.0	2.5	/experiments/knapen_aot/videos/S_yt-mQESmS4uqRU_208.mp4	0.0	333.3619239330292	2.5083420276641846
42	123.53978109359741	fix_post	2		12.0	40.0	2.5	/experiments/knapen_aot/videos/S_yt-mQESmS4uqRU_208.mp4	0.0	335.87026596069336	0.0999748706817627
43	123.63975596427917	fix_pre	0		39.0	41.0	2.5	/experiments/knapen_aot/videos/R_S_ILSVRC2015_train_00556000.mp4	0.0	335.9702408313751	0.3250110149383545
43	123.95659899711609	response	0	2		41.0	2.5	/experiments/knapen_aot/videos/R_S_ILSVRC2015_train_00556000.mp4	0.0	336.28708386421204	
43	123.96476697921753	movie	1		301.0	41.0	2.5	/experiments/knapen_aot/videos/R_S_ILSVRC2015_train_00556000.mp4	0.0	336.2952518463135	2.5084331035614014
43	126.47320008277893	fix_post	2		12.0	41.0	2.5	/experiments/knapen_aot/videos/R_S_ILSVRC2015_train_00556000.mp4	0.0	338.8036849498749	0.09990191459655762
44	126.57310199737549	fix_pre	0		59.0	42.0	2.5	blank	1.0	338.90358686447144	0.4916870594024658
44	127.05658912658691	response	0	2		42.0	2.5	blank	1.0	339.38707399368286	
44	127.06478905677795	movie	1		301.0	42.0	2.5	blank	1.0	339.3952739238739	2.508413076400757
44	129.5732021331787	fix_post	2		12.0	42.0	2.5	blank	1.0	341.90368700027466	0.09994697570800781
45	129.67314910888672	fix_pre	0		31.0	43.0	2.5	/experiments/knapen_aot/videos/S_yt-a0axt7n0GuQ_19.mp4	0.0	342.00363397598267	0.25824594497680664
45	129.92315411567688	response	0	2		43.0	2.5	/experiments/knapen_aot/videos/S_yt-a0axt7n0GuQ_19.mp4	0.0	342.2536389827728	
45	129.93139505386353	movie	1		301.0	43.0	2.5	/experiments/knapen_aot/videos/S_yt-a0axt7n0GuQ_19.mp4	0.0	342.2618799209595	2.508404016494751
45	132.43979907035828	fix_post	2		12.0	43.0	2.5	/experiments/knapen_aot/videos/S_yt-a0axt7n0GuQ_19.mp4	0.0	344.7702839374542	0.10029101371765137
46	132.54009008407593	fix_pre	0		46.0	44.0	2.5	/experiments/knapen_aot/videos/R_S_yt-kINZMjys3O4_112.mp4	0.0	344.8705749511719	0.3829529285430908
46	132.90734195709229	response	0	2		44.0	2.5	/experiments/knapen_aot/videos/R_S_yt-kINZMjys3O4_112.mp4	0.0	345.23782682418823	
46	132.92304301261902	movie	1		301.0	44.0	2.5	/experiments/knapen_aot/videos/R_S_yt-kINZMjys3O4_112.mp4	0.0	345.25352787971497	2.50838303565979
46	135.4314260482788	fix_post	2		12.0	44.0	2.5	/experiments/knapen_aot/videos/R_S_yt-kINZMjys3O4_112.mp4	0.0	347.76191091537476	0.09993600845336914
47	135.53136205673218	fix_pre	0		62.0	45.0	2.5	/experiments/knapen_aot/videos/R_S_production_ID_4101244.mp4	0.0	347.8618469238281	0.5166749954223633
47	136.03993797302246	response	0	2		45.0	2.5	/experiments/knapen_aot/videos/R_S_production_ID_4101244.mp4	0.0	348.3704228401184	
47	136.04803705215454	movie	1		193.0	45.0	2.5	/experiments/knapen_aot/videos/R_S_production_ID_4101244.mp4	0.0	348.3785219192505	2.50833797454834
47	138.55637502670288	fix_post	2		12.0	45.0	2.5	/experiments/knapen_aot/videos/R_S_production_ID_4101244.mp4	0.0	350.8868598937988	0.10002303123474121
48	138.65639805793762	fix_pre	0		38.0	46.0	2.5	/experiments/knapen_aot/videos/R_S_yt-R0gFQo85cAE_5.mp4	0.0	350.98688292503357	0.316662073135376
48	138.9648540019989	response	0	2		46.0	2.5	/experiments/knapen_aot/videos/R_S_yt-R0gFQo85cAE_5.mp4	0.0	351.29533886909485	
48	138.973060131073	movie	1		301.0	46.0	2.5	/experiments/knapen_aot/videos/R_S_yt-R0gFQo85cAE_5.mp4	0.0	351.30354499816895	2.5083370208740234
48	141.48139715194702	fix_post	2		12.0	46.0	2.5	/experiments/knapen_aot/videos/R_S_yt-R0gFQo85cAE_5.mp4	0.0	353.81188201904297	0.10027885437011719
49	141.58167600631714	fix_pre	0		20.0	47.0	2.5	/experiments/knapen_aot/videos/R_S_yt-xCh0LI9VKeI_28.mp4	0.0	353.9121608734131	0.1665029525756836
49	141.73980712890625	response	0	2		47.0	2.5	/experiments/knapen_aot/videos/R_S_yt-xCh0LI9VKeI_28.mp4	0.0	354.0702919960022	
49	141.74817895889282	movie	1		301.0	47.0	2.5	/experiments/knapen_aot/videos/R_S_yt-xCh0LI9VKeI_28.mp4	0.0	354.07866382598877	2.5081920623779297
49	144.25637102127075	fix_post	2		12.0	47.0	2.5	/experiments/knapen_aot/videos/R_S_yt-xCh0LI9VKeI_28.mp4	0.0	356.5868558883667	0.10000205039978027
50	144.35637307167053	fix_pre	0		29.0	48.0	2.5	blank	1.0	356.6868579387665	0.2416689395904541
50	144.58228015899658	response	0	2		48.0	2.5	blank	1.0	356.91276502609253	
50	144.598042011261	movie	1		301.0	48.0	2.5	blank	1.0	356.92852687835693	2.5083670616149902
50	147.10640907287598	fix_post	2		12.0	48.0	2.5	blank	1.0	359.4368939399719	0.10023808479309082
51	147.20664715766907	fix_pre	0		27.0	49.0	2.5	/experiments/knapen_aot/videos/S_ILSVRC2015_train_00042002.mp4	0.0	359.537132024765	0.22459197044372559
51	147.41569709777832	response	0	2		49.0	2.5	/experiments/knapen_aot/videos/S_ILSVRC2015_train_00042002.mp4	0.0	359.74618196487427	
51	147.4312391281128	movie	1		301.0	49.0	2.5	/experiments/knapen_aot/videos/S_ILSVRC2015_train_00042002.mp4	0.0	359.76172399520874	2.5084078311920166
51	149.9396469593048	fix_post	2		12.0	49.0	2.5	/experiments/knapen_aot/videos/S_ILSVRC2015_train_00042002.mp4	0.0	362.27013182640076	0.1002352237701416
52	150.03988218307495	fix_pre	0		219.0	50.0	2.5	/experiments/knapen_aot/videos/R_S_comp_A007_C017_01156B_v02_SDR_PS_20180925_SDR_2K_AVC.mp4	0.0	362.3703670501709	1.824774980545044
52	151.85646414756775	response	0	2		50.0	2.5	/experiments/knapen_aot/videos/R_S_comp_A007_C017_01156B_v02_SDR_PS_20180925_SDR_2K_AVC.mp4	0.0	364.1869490146637	
52	151.86465716362	movie	1		166.0	50.0	2.5	/experiments/knapen_aot/videos/R_S_comp_A007_C017_01156B_v02_SDR_PS_20180925_SDR_2K_AVC.mp4	0.0	364.19514203071594	2.508497953414917
52	154.3731551170349	fix_post	2		12.0	50.0	2.5	/experiments/knapen_aot/videos/R_S_comp_A007_C017_01156B_v02_SDR_PS_20180925_SDR_2K_AVC.mp4	0.0	366.70363998413086	0.09985804557800293
53	154.47301316261292	fix_pre	0		74.0	51.0	2.5	/experiments/knapen_aot/videos/S_yt-MEfljVFL0xw_375.mp4	0.0	366.80349802970886	0.6165268421173096
53	155.08148002624512	response	0	2		51.0	2.5	/experiments/knapen_aot/videos/S_yt-MEfljVFL0xw_375.mp4	0.0	367.41196489334106	
53	155.08954000473022	movie	1		301.0	51.0	2.5	/experiments/knapen_aot/videos/S_yt-MEfljVFL0xw_375.mp4	0.0	367.4200248718262	2.5084359645843506
53	157.59797596931458	fix_post	2		12.0	51.0	2.5	/experiments/knapen_aot/videos/S_yt-MEfljVFL0xw_375.mp4	0.0	369.9284608364105	0.10000300407409668
54	157.69797897338867	fix_pre	0		26.0	52.0	2.5	/experiments/knapen_aot/videos/R_S_yt-urJgH6tpfkU_204.mp4	0.0	370.0284638404846	0.21672701835632324
54	157.90644311904907	response	0	2		52.0	2.5	/experiments/knapen_aot/videos/R_S_yt-urJgH6tpfkU_204.mp4	0.0	370.236927986145	
54	157.914705991745	movie	1		300.0	52.0	2.5	/experiments/knapen_aot/videos/R_S_yt-urJgH6tpfkU_204.mp4	0.0	370.24519085884094	2.5081989765167236
54	160.42290496826172	fix_post	2		12.0	52.0	2.5	/experiments/knapen_aot/videos/R_S_yt-urJgH6tpfkU_204.mp4	0.0	372.75338983535767	0.10013413429260254
55	160.52303910255432	fix_pre	0		36.0	53.0	2.5	/experiments/knapen_aot/videos/R_S_yt-yB7mPODPTVw_74.mp4	0.0	372.85352396965027	0.2999289035797119
55	160.8147211074829	response	0	2		53.0	2.5	/experiments/knapen_aot/videos/R_S_yt-yB7mPODPTVw_74.mp4	0.0	373.14520597457886	
55	160.82296800613403	movie	1		301.0	53.0	2.5	/experiments/knapen_aot/videos/R_S_yt-yB7mPODPTVw_74.mp4	0.0	373.15345287323	2.5086560249328613
55	163.3316240310669	fix_post	2		12.0	53.0	2.5	/experiments/knapen_aot/videos/R_S_yt-yB7mPODPTVw_74.mp4	0.0	375.66210889816284	0.09981703758239746
56	163.4314410686493	fix_pre	0		47.0	54.0	2.5	blank	1.0	375.76192593574524	0.3914980888366699
56	163.814679145813	response	0	2		54.0	2.5	blank	1.0	376.14516401290894	
56	163.82293915748596	movie	1		301.0	54.0	2.5	blank	1.0	376.1534240245819	2.5084228515625
56	166.33136200904846	fix_post	2		12.0	54.0	2.5	blank	1.0	378.6618468761444	0.10013008117675781
57	166.43149209022522	fix_pre	0		44.0	55.0	2.5	/experiments/knapen_aot/videos/S_yt-JH6qCYAnX-I_70.mp4	0.0	378.76197695732117	0.36643409729003906
57	166.78971004486084	response	0	2		55.0	2.5	/experiments/knapen_aot/videos/S_yt-JH6qCYAnX-I_70.mp4	0.0	379.1201949119568	
57	166.79792618751526	movie	1		301.0	55.0	2.5	/experiments/knapen_aot/videos/S_yt-JH6qCYAnX-I_70.mp4	0.0	379.1284110546112	2.5083107948303223
57	169.30623698234558	fix_post	2		12.0	55.0	2.5	/experiments/knapen_aot/videos/S_yt-JH6qCYAnX-I_70.mp4	0.0	381.6367218494415	0.10009598731994629
58	169.40633296966553	fix_pre	0		33.0	56.0	2.5	/experiments/knapen_aot/videos/R_S_ILSVRC2015_train_00292006.mp4	0.0	381.7368178367615	0.27486300468444824
58	169.67319107055664	response	0	2		56.0	2.5	/experiments/knapen_aot/videos/R_S_ILSVRC2015_train_00292006.mp4	0.0	382.0036759376526	
58	169.68119597434998	movie	1		301.0	56.0	2.5	/experiments/knapen_aot/videos/R_S_ILSVRC2015_train_00292006.mp4	0.0	382.0116808414459	2.5083091259002686
58	172.18950510025024	fix_post	2		12.0	56.0	2.5	/experiments/knapen_aot/videos/R_S_ILSVRC2015_train_00292006.mp4	0.0	384.5199899673462	0.10017991065979004
59	172.28968501091003	fix_pre	0		34.0	57.0	2.5	/experiments/knapen_aot/videos/R_S_yt-VJ65ukWmdxQ_193.mp4	0.0	384.620169878006	0.28319597244262695
59	172.55711913108826	response	0	2		57.0	2.5	/experiments/knapen_aot/videos/R_S_yt-VJ65ukWmdxQ_193.mp4	0.0	384.8876039981842	
59	172.57288098335266	movie	1		301.0	57.0	2.5	/experiments/knapen_aot/videos/R_S_yt-VJ65ukWmdxQ_193.mp4	0.0	384.9033658504486	2.508418083190918
59	175.08129906654358	fix_post	2		12.0	57.0	2.5	/experiments/knapen_aot/videos/R_S_yt-VJ65ukWmdxQ_193.mp4	0.0	387.4117839336395	0.09993505477905273
60	175.18123412132263	fix_pre	0		40.0	58.0	2.5	/experiments/knapen_aot/videos/R_S_wc-eJe3wXMgTLRV_20.mp4	0.0	387.5117189884186	0.33333301544189453
60	175.50626707077026	response	0	2		58.0	2.5	/experiments/knapen_aot/videos/R_S_wc-eJe3wXMgTLRV_20.mp4	0.0	387.8367519378662	
60	175.51456713676453	movie	1		163.0	58.0	2.5	/experiments/knapen_aot/videos/R_S_wc-eJe3wXMgTLRV_20.mp4	0.0	387.8450520038605	2.508335828781128
60	178.02290296554565	fix_post	2		12.0	58.0	2.5	/experiments/knapen_aot/videos/R_S_wc-eJe3wXMgTLRV_20.mp4	0.0	390.3533878326416	0.10007715225219727
61	178.12298011779785	fix_pre	0		37.0	59.0	2.5	/experiments/knapen_aot/videos/R_S_OdxWh1oU8e8_1.mp4	0.0	390.4534649848938	0.3082280158996582
61	178.42298316955566	response	0	2		59.0	2.5	/experiments/knapen_aot/videos/R_S_OdxWh1oU8e8_1.mp4	0.0	390.7534680366516	
61	178.4312081336975	movie	1		301.0	59.0	2.5	/experiments/knapen_aot/videos/R_S_OdxWh1oU8e8_1.mp4	0.0	390.76169300079346	2.508327007293701
61	180.9395351409912	fix_post	2		12.0	59.0	2.5	/experiments/knapen_aot/videos/R_S_OdxWh1oU8e8_1.mp4	0.0	393.27002000808716	0.10005497932434082
62	181.03959012031555	fix_pre	0		30.0	60.0	2.5	/experiments/knapen_aot/videos/R_S_yt-83nimFMNhrM_131.mp4	0.0	393.3700749874115	0.2499399185180664
62	181.2812430858612	response	0	2		60.0	2.5	/experiments/knapen_aot/videos/R_S_yt-83nimFMNhrM_131.mp4	0.0	393.61172795295715	
62	181.28953003883362	movie	1		301.0	60.0	2.5	/experiments/knapen_aot/videos/R_S_yt-83nimFMNhrM_131.mp4	0.0	393.62001490592957	2.508373975753784
62	183.7979040145874	fix_post	2		12.0	60.0	2.5	/experiments/knapen_aot/videos/R_S_yt-83nimFMNhrM_131.mp4	0.0	396.12838888168335	0.09995794296264648
63	183.89786195755005	fix_pre	0		40.0	61.0	2.5	/experiments/knapen_aot/videos/R_S_yt-EKPrSw5xF7k_112.mp4	0.0	396.228346824646	0.3333241939544678
63	184.22295999526978	response	0	2		61.0	2.5	/experiments/knapen_aot/videos/R_S_yt-EKPrSw5xF7k_112.mp4	0.0	396.5534448623657	
63	184.23118615150452	movie	1		301.0	61.0	2.5	/experiments/knapen_aot/videos/R_S_yt-EKPrSw5xF7k_112.mp4	0.0	396.56167101860046	2.50833797454834
63	186.73952412605286	fix_post	2		12.0	61.0	2.5	/experiments/knapen_aot/videos/R_S_yt-EKPrSw5xF7k_112.mp4	0.0	399.0700089931488	0.10001397132873535
64	186.8395380973816	fix_pre	0		18.0	62.0	2.5	/experiments/knapen_aot/videos/R_S_yt-mQESmS4uqRU_208.mp4	0.0	399.17002296447754	0.1499319076538086
64	186.98130416870117	response	0	2		62.0	2.5	/experiments/knapen_aot/videos/R_S_yt-mQESmS4uqRU_208.mp4	0.0	399.3117890357971	
64	186.9894700050354	movie	1		301.0	62.0	2.5	/experiments/knapen_aot/videos/R_S_yt-mQESmS4uqRU_208.mp4	0.0	399.31995487213135	2.50839900970459
64	189.49786901474	fix_post	2		12.0	62.0	2.5	/experiments/knapen_aot/videos/R_S_yt-mQESmS4uqRU_208.mp4	0.0	401.82835388183594	0.09996795654296875
65	189.59783697128296	fix_pre	0		23.0	63.0	2.5	blank	1.0	401.9283218383789	0.1916031837463379
65	189.78145718574524	response	0	2		63.0	2.5	blank	1.0	402.1119420528412	
65	189.7894401550293	movie	1		301.0	63.0	2.5	blank	1.0	402.11992502212524	2.5083060264587402
65	192.29774618148804	fix_post	2		12.0	63.0	2.5	blank	1.0	404.628231048584	0.10014796257019043
66	192.39789414405823	fix_pre	0		51.0	64.0	2.5	/experiments/knapen_aot/videos/S_yt-mdLT282PVbE_6.mp4	0.0	404.7283790111542	0.42512083053588867
66	192.80706095695496	response	0	2		64.0	2.5	/experiments/knapen_aot/videos/S_yt-mdLT282PVbE_6.mp4	0.0	405.1375458240509	
66	192.82301497459412	movie	1		301.0	64.0	2.5	/experiments/knapen_aot/videos/S_yt-mdLT282PVbE_6.mp4	0.0	405.15349984169006	2.508172035217285
66	195.3311870098114	fix_post	2		12.0	64.0	2.5	/experiments/knapen_aot/videos/S_yt-mdLT282PVbE_6.mp4	0.0	407.66167187690735	0.09998703002929688
67	195.4311740398407	fix_pre	0		32.0	65.0	2.5	/experiments/knapen_aot/videos/S_Y005_C003_SDR_2K_AVC.mp4	0.0	407.76165890693665	0.26665806770324707
67	195.68966817855835	response	0	2		65.0	2.5	/experiments/knapen_aot/videos/S_Y005_C003_SDR_2K_AVC.mp4	0.0	408.0201530456543	
67	195.69783210754395	movie	1		165.0	65.0	2.5	/experiments/knapen_aot/videos/S_Y005_C003_SDR_2K_AVC.mp4	0.0	408.0283169746399	2.5083110332489014
67	198.20614314079285	fix_post	2		12.0	65.0	2.5	/experiments/knapen_aot/videos/S_Y005_C003_SDR_2K_AVC.mp4	0.0	410.5366280078888	0.09997701644897461
68	198.30612015724182	fix_pre	0		27.0	66.0	2.5	/experiments/knapen_aot/videos/R_S_yt-xrPrnzvWUkY_7.mp4	0.0	410.63660502433777	0.2277829647064209
68	198.52301597595215	response	0	2		66.0	2.5	/experiments/knapen_aot/videos/R_S_yt-xrPrnzvWUkY_7.mp4	0.0	410.8535008430481	
68	198.53390312194824	movie	1		301.0	66.0	2.5	/experiments/knapen_aot/videos/R_S_yt-xrPrnzvWUkY_7.mp4	0.0	410.8643879890442	2.505504846572876
68	201.03940796852112	fix_post	2		12.0	66.0	2.5	/experiments/knapen_aot/videos/R_S_yt-xrPrnzvWUkY_7.mp4	0.0	413.36989283561707	0.10003805160522461
69	201.13944602012634	fix_pre	0		39.0	67.0	2.5	/experiments/knapen_aot/videos/R_S_yt-urJgH6tpfkU_204.mp4	0.0	413.4699308872223	0.3249530792236328
69	201.4562029838562	response	0	2		67.0	2.5	/experiments/knapen_aot/videos/R_S_yt-urJgH6tpfkU_204.mp4	0.0	413.78668785095215	
69	201.46439909934998	movie	1		301.0	67.0	2.5	/experiments/knapen_aot/videos/R_S_yt-urJgH6tpfkU_204.mp4	0.0	413.7948839664459	2.5083680152893066
69	203.97276711463928	fix_post	2		12.0	67.0	2.5	/experiments/knapen_aot/videos/R_S_yt-urJgH6tpfkU_204.mp4	0.0	416.30325198173523	0.09998893737792969
70	204.0727560520172	fix_pre	0		57.0	68.0	2.5	/experiments/knapen_aot/videos/R_S_pexels-cottonbro-6844209.mp4	0.0	416.40324091911316	0.47502899169921875
70	204.53951907157898	response	0	2		68.0	2.5	/experiments/knapen_aot/videos/R_S_pexels-cottonbro-6844209.mp4	0.0	416.8700039386749	
70	204.54778504371643	movie	1		189.0	68.0	2.5	/experiments/knapen_aot/videos/R_S_pexels-cottonbro-6844209.mp4	0.0	416.8782699108124	2.5082969665527344
70	207.05608201026917	fix_post	2		12.0	68.0	2.5	/experiments/knapen_aot/videos/R_S_pexels-cottonbro-6844209.mp4	0.0	419.3865668773651	0.10001015663146973
71	207.15609216690063	fix_pre	0		45.0	69.0	2.5	/experiments/knapen_aot/videos/S_yt-1iB2ofPY1U8_16.mp4	0.0	419.4865770339966	0.3763599395751953
71	207.52299404144287	response	0	2		69.0	2.5	/experiments/knapen_aot/videos/S_yt-1iB2ofPY1U8_16.mp4	0.0	419.8534789085388	
71	207.53245210647583	movie	1		301.0	69.0	2.5	/experiments/knapen_aot/videos/S_yt-1iB2ofPY1U8_16.mp4	0.0	419.8629369735718	2.506964921951294
71	210.03941702842712	fix_post	2		12.0	69.0	2.5	/experiments/knapen_aot/videos/S_yt-1iB2ofPY1U8_16.mp4	0.0	422.36990189552307	0.10019803047180176
72	210.13961505889893	fix_pre	0		58.0	70.0	2.5	blank	1.0	422.4700999259949	0.4831221103668213
72	210.61456298828125	response	0	2		70.0	2.5	blank	1.0	422.9450478553772	
72	210.62273716926575	movie	1		301.0	70.0	2.5	blank	1.0	422.9532220363617	2.508349895477295
72	213.13108706474304	fix_post	2		12.0	70.0	2.5	blank	1.0	425.461571931839	0.10016012191772461
73	213.23124718666077	fix_pre	0		51.0	71.0	2.5	/experiments/knapen_aot/videos/S_yt-qYuLW5vSotM_160.mp4	0.0	425.5617320537567	0.42473888397216797
73	213.6477930545807	response	0	2		71.0	2.5	/experiments/knapen_aot/videos/S_yt-qYuLW5vSotM_160.mp4	0.0	425.97827792167664	
73	213.65598607063293	movie	1		301.0	71.0	2.5	/experiments/knapen_aot/videos/S_yt-qYuLW5vSotM_160.mp4	0.0	425.9864709377289	2.5084190368652344
73	216.16440510749817	fix_post	2		12.0	71.0	2.5	/experiments/knapen_aot/videos/S_yt-qYuLW5vSotM_160.mp4	0.0	428.4948899745941	0.09998607635498047
74	216.26439118385315	fix_pre	0		48.0	72.0	2.5	/experiments/knapen_aot/videos/R_S_ILSVRC2015_train_00405000.mp4	0.0	428.5948760509491	0.3999209403991699
74	216.6561210155487	response	0	2		72.0	2.5	/experiments/knapen_aot/videos/R_S_ILSVRC2015_train_00405000.mp4	0.0	428.98660588264465	
74	216.66431212425232	movie	1		301.0	72.0	2.5	/experiments/knapen_aot/videos/R_S_ILSVRC2015_train_00405000.mp4	0.0	428.99479699134827	2.508384943008423
74	219.17269706726074	fix_post	2		12.0	72.0	2.5	/experiments/knapen_aot/videos/R_S_ILSVRC2015_train_00405000.mp4	0.0	431.5031819343567	0.09996700286865234
75	219.2726640701294	fix_pre	0		59.0	73.0	2.5	/experiments/knapen_aot/videos/R_S_ux8Mvi8P16k_168.mp4	0.0	431.60314893722534	0.4916260242462158
75	219.75618410110474	response	0	2		73.0	2.5	/experiments/knapen_aot/videos/R_S_ux8Mvi8P16k_168.mp4	0.0	432.0866689682007	
75	219.7642900943756	movie	1		301.0	73.0	2.5	/experiments/knapen_aot/videos/R_S_ux8Mvi8P16k_168.mp4	0.0	432.09477496147156	2.5085110664367676
75	222.27280116081238	fix_post	2		12.0	73.0	2.5	/experiments/knapen_aot/videos/R_S_ux8Mvi8P16k_168.mp4	0.0	434.6032860279083	0.09991002082824707
76	222.37271118164062	fix_pre	0		60.0	74.0	2.5	/experiments/knapen_aot/videos/R_S_yt-qYuLW5vSotM_160.mp4	0.0	434.7031960487366	0.4999549388885498
76	222.85708904266357	response	0	2		74.0	2.5	/experiments/knapen_aot/videos/R_S_yt-qYuLW5vSotM_160.mp4	0.0	435.1875739097595	
76	222.87266612052917	movie	1		301.0	74.0	2.5	/experiments/knapen_aot/videos/R_S_yt-qYuLW5vSotM_160.mp4	0.0	435.2031509876251	2.508780002593994
76	225.38144612312317	fix_post	2		12.0	74.0	2.5	/experiments/knapen_aot/videos/R_S_yt-qYuLW5vSotM_160.mp4	0.0	437.7119309902191	0.0995638370513916
77	225.48100996017456	fix_pre	0		66.0	75.0	2.5	blank	1.0	437.8114948272705	0.549997091293335
77	226.022803068161	response	0	2		75.0	2.5	blank	1.0	438.35328793525696	
77	226.0310070514679	movie	1		301.0	75.0	2.5	blank	1.0	438.36149191856384	2.5083200931549072
77	228.5393271446228	fix_post	2		12.0	75.0	2.5	blank	1.0	440.86981201171875	0.09997892379760742
78	228.6393060684204	fix_pre	0		35.0	76.0	2.5	/experiments/knapen_aot/videos/S_video_inspire_california_catalina_avalon_00053.1080-h264.mp4	0.0	440.96979093551636	0.29158806800842285
78	228.9227650165558	response	0	2		76.0	2.5	/experiments/knapen_aot/videos/S_video_inspire_california_catalina_avalon_00053.1080-h264.mp4	0.0	441.25324988365173	
78	228.93089413642883	movie	1		170.0	76.0	2.5	/experiments/knapen_aot/videos/S_video_inspire_california_catalina_avalon_00053.1080-h264.mp4	0.0	441.2613790035248	2.5084388256073
78	231.43933296203613	fix_post	2		12.0	76.0	2.5	/experiments/knapen_aot/videos/S_video_inspire_california_catalina_avalon_00053.1080-h264.mp4	0.0	443.7698178291321	0.0999901294708252
79	231.53932309150696	fix_pre	0		36.0	77.0	2.5	/experiments/knapen_aot/videos/S_yt-Co4dzHwupRM_18.mp4	0.0	443.8698079586029	0.2999229431152344
79	231.8236541748047	response	0	2		77.0	2.5	/experiments/knapen_aot/videos/S_yt-Co4dzHwupRM_18.mp4	0.0	444.15413904190063	
79	231.8392460346222	movie	1		301.0	77.0	2.5	/experiments/knapen_aot/videos/S_yt-Co4dzHwupRM_18.mp4	0.0	444.16973090171814	2.5083889961242676
79	234.34763503074646	fix_post	2		12.0	77.0	2.5	/experiments/knapen_aot/videos/S_yt-Co4dzHwupRM_18.mp4	0.0	446.6781198978424	0.10003495216369629
80	234.44766998291016	fix_pre	0		49.0	78.0	2.5	/experiments/knapen_aot/videos/R_S_wc-AyT9mzwZsu0T_14.mp4	0.0	446.7781548500061	0.4083850383758545
80	234.8402600288391	response	0	2		78.0	2.5	/experiments/knapen_aot/videos/R_S_wc-AyT9mzwZsu0T_14.mp4	0.0	447.17074489593506	
80	234.856055021286	movie	1		182.0	78.0	2.5	/experiments/knapen_aot/videos/R_S_wc-AyT9mzwZsu0T_14.mp4	0.0	447.18653988838196	2.5082199573516846
80	237.3642749786377	fix_post	2		12.0	78.0	2.5	/experiments/knapen_aot/videos/R_S_wc-AyT9mzwZsu0T_14.mp4	0.0	449.69475984573364	0.09995603561401367
81	237.4642310142517	fix_pre	0		109.0	79.0	2.5	/experiments/knapen_aot/videos/R_S_yt-thmqgEV-sYY_91.mp4	0.0	449.79471588134766	0.9083349704742432
81	238.36441898345947	response	0	2		79.0	2.5	/experiments/knapen_aot/videos/R_S_yt-thmqgEV-sYY_91.mp4	0.0	450.6949038505554	
81	238.37256598472595	movie	1		301.0	79.0	2.5	/experiments/knapen_aot/videos/R_S_yt-thmqgEV-sYY_91.mp4	0.0	450.7030508518219	2.5083870887756348
81	240.8809530735016	fix_post	2		12.0	79.0	2.5	/experiments/knapen_aot/videos/R_S_yt-thmqgEV-sYY_91.mp4	0.0	453.21143794059753	0.10006594657897949
82	240.98101902008057	fix_pre	0		91.0	80.0	2.5	/experiments/knapen_aot/videos/R_S_yt-9Ow95khYa_M_91.mp4	0.0	453.3115038871765	0.7594139575958252
82	241.7310299873352	response	0	2		80.0	2.5	/experiments/knapen_aot/videos/R_S_yt-9Ow95khYa_M_91.mp4	0.0	454.06151485443115	
82	241.7404329776764	movie	1		301.0	80.0	2.5	/experiments/knapen_aot/videos/R_S_yt-9Ow95khYa_M_91.mp4	0.0	454.07091784477234	2.507526159286499
82	244.2479591369629	fix_post	2		12.0	80.0	2.5	/experiments/knapen_aot/videos/R_S_yt-9Ow95khYa_M_91.mp4	0.0	456.57844400405884	0.09964299201965332
83	244.34760212898254	fix_pre	0		62.0	81.0	2.5	/experiments/knapen_aot/videos/S_ILSVRC2015_train_00743005.mp4	0.0	456.6780869960785	0.5177979469299316
83	244.85605716705322	response	0	2		81.0	2.5	/experiments/knapen_aot/videos/S_ILSVRC2015_train_00743005.mp4	0.0	457.18654203414917	
83	244.86540007591248	movie	1		301.0	81.0	2.5	/experiments/knapen_aot/videos/S_ILSVRC2015_train_00743005.mp4	0.0	457.1958849430084	2.5071840286254883
83	247.37258410453796	fix_post	2		12.0	81.0	2.5	/experiments/knapen_aot/videos/S_ILSVRC2015_train_00743005.mp4	0.0	459.7030689716339	0.099945068359375
84	247.47252917289734	fix_pre	0		43.0	82.0	2.5	/experiments/knapen_aot/videos/S_yt-WASlRH1zA8c_175.mp4	0.0	459.8030140399933	0.3583548069000244
84	247.82267808914185	response	0	2		82.0	2.5	/experiments/knapen_aot/videos/S_yt-WASlRH1zA8c_175.mp4	0.0	460.1531629562378	
84	247.83088397979736	movie	1		301.0	82.0	2.5	/experiments/knapen_aot/videos/S_yt-WASlRH1zA8c_175.mp4	0.0	460.1613688468933	2.508331060409546
84	250.3392150402069	fix_post	2		12.0	82.0	2.5	/experiments/knapen_aot/videos/S_yt-WASlRH1zA8c_175.mp4	0.0	462.66969990730286	0.10001492500305176
85	250.43922996520996	fix_pre	0		51.0	83.0	2.5	blank	1.0	462.7697148323059	0.42490410804748535
85	250.85603713989258	response	0	2		83.0	2.5	blank	1.0	463.1865220069885	
85	250.86413407325745	movie	1		301.0	83.0	2.5	blank	1.0	463.1946189403534	2.5084269046783447
85	253.3725609779358	fix_post	2		12.0	83.0	2.5	blank	1.0	465.70304584503174	0.0999910831451416
87	253.47255206108093	stim	0		147.0					465.8030369281769	1.2259550094604492
87	254.6872000694275	response	0	space						467.01768493652344	
