trial_nr	onset	event_type	phase	response	nr_frames	movie_index	movie_duration	movie_file	blank	onset_abs	duration
0	0.1589820384979248	stim	0		24.0					59.27066707611084	0.19931292533874512
0	0.34277796745300293	response	0	space						59.45446300506592	
1	0.3582949638366699	stim	0		121.0					59.469980001449585	1.0082850456237793
1	0.8083570003509521	response	0	space						59.92004203796387	
1	1.249924898147583	response	0	space						60.3616099357605	
1	1.3665800094604492	stim	1		120.0					60.478265047073364	0.9998009204864502
1	1.5833039283752441	response	1	space						60.69498896598816	
1	1.8996360301971436	response	1	space						61.01132106781006	
1	2.1829750537872314	response	1	space						61.29466009140015	
2	2.3663809299468994	fix_pre	0		8.0	0.0	2.5	/experiments/knapen_aot/oldvideos/S_G010_C026_UHD_SDR_v02_2K_AVC.mp4	0.0	61.478065967559814	0.06653308868408203
2	2.424644947052002	response	0	space		0.0	2.5	/experiments/knapen_aot/oldvideos/S_G010_C026_UHD_SDR_v02_2K_AVC.mp4	0.0	61.53632998466492	
2	2.4329140186309814	movie	1		167.0	0.0	2.5	/experiments/knapen_aot/oldvideos/S_G010_C026_UHD_SDR_v02_2K_AVC.mp4	0.0	61.5445990562439	2.508405923843384
2	4.941319942474365	fix_post	2		12.0	0.0	2.5	/experiments/knapen_aot/oldvideos/S_G010_C026_UHD_SDR_v02_2K_AVC.mp4	0.0	64.05300498008728	0.09992408752441406
3	5.041244029998779	fix_pre	0		4.0	1.0	2.5	/experiments/knapen_aot/oldvideos/R_S_yt-V35ubrbe8gA_86.mp4	0.0	64.1529290676117	0.034364938735961914
3	5.0671610832214355	response	0	2		1.0	2.5	/experiments/knapen_aot/oldvideos/R_S_yt-V35ubrbe8gA_86.mp4	0.0	64.17884612083435	
3	5.075608968734741	movie	1		301.0	1.0	2.5	/experiments/knapen_aot/oldvideos/R_S_yt-V35ubrbe8gA_86.mp4	0.0	64.18729400634766	2.50730299949646
3	7.582911968231201	fix_post	2		12.0	1.0	2.5	/experiments/knapen_aot/oldvideos/R_S_yt-V35ubrbe8gA_86.mp4	0.0	66.69459700584412	0.10005998611450195
4	7.682971954345703	fix_pre	0		2.0	2.0	2.5	/experiments/knapen_aot/oldvideos/S_yt-ak01CHYgEOs_1383.mp4	0.0	66.79465699195862	0.01767897605895996
4	7.691361904144287	response	0	2		2.0	2.5	/experiments/knapen_aot/oldvideos/S_yt-ak01CHYgEOs_1383.mp4	0.0	66.8030469417572	
4	7.700650930404663	movie	1		301.0	2.0	2.5	/experiments/knapen_aot/oldvideos/S_yt-ak01CHYgEOs_1383.mp4	0.0	66.81233596801758	2.507244110107422
4	10.207895040512085	fix_post	2		12.0	2.0	2.5	/experiments/knapen_aot/oldvideos/S_yt-ak01CHYgEOs_1383.mp4	0.0	69.319580078125	0.1000669002532959
5	10.30796194076538	fix_pre	0		10.0	3.0	2.5	/experiments/knapen_aot/oldvideos/S_ILSVRC2015_train_00682003.mp4	0.0	69.4196469783783	0.08319807052612305
5	10.383030891418457	response	0	2		3.0	2.5	/experiments/knapen_aot/oldvideos/S_ILSVRC2015_train_00682003.mp4	0.0	69.49471592903137	
5	10.391160011291504	movie	1		301.0	3.0	2.5	/experiments/knapen_aot/oldvideos/S_ILSVRC2015_train_00682003.mp4	0.0	69.50284504890442	2.50838303565979
5	12.899543046951294	fix_post	2		12.0	3.0	2.5	/experiments/knapen_aot/oldvideos/S_ILSVRC2015_train_00682003.mp4	0.0	72.01122808456421	0.0999898910522461
6	12.99953293800354	fix_pre	0		6.0	4.0	2.5	/experiments/knapen_aot/oldvideos/R_S_-vPHq-7BJ70_15.mp4	0.0	72.11121797561646	0.049932003021240234
6	13.041336059570312	response	0	2		4.0	2.5	/experiments/knapen_aot/oldvideos/R_S_-vPHq-7BJ70_15.mp4	0.0	72.15302109718323	
6	13.04946494102478	movie	1		301.0	4.0	2.5	/experiments/knapen_aot/oldvideos/R_S_-vPHq-7BJ70_15.mp4	0.0	72.1611499786377	2.508378028869629
6	15.55784296989441	fix_post	2		12.0	4.0	2.5	/experiments/knapen_aot/oldvideos/R_S_-vPHq-7BJ70_15.mp4	0.0	74.66952800750732	0.09999203681945801
7	15.657835006713867	fix_pre	0		13.0	5.0	2.5	blank	1.0	74.76952004432678	0.10834407806396484
7	15.757884979248047	response	0	2		5.0	2.5	blank	1.0	74.86957001686096	
7	15.766179084777832	movie	1		301.0	5.0	2.5	blank	1.0	74.87786412239075	2.508283853530884
7	18.274462938308716	fix_post	2		12.0	5.0	2.5	blank	1.0	77.38614797592163	0.10003495216369629
8	18.374497890472412	fix_pre	0		19.0	6.0	2.5	/experiments/knapen_aot/oldvideos/S_yt-Fm97IY0Z2LU_79.mp4	0.0	77.48618292808533	0.1593310832977295
8	18.52452301979065	response	0	2		6.0	2.5	/experiments/knapen_aot/oldvideos/S_yt-Fm97IY0Z2LU_79.mp4	0.0	77.63620805740356	
8	18.53382897377014	movie	1		301.0	6.0	2.5	/experiments/knapen_aot/oldvideos/S_yt-Fm97IY0Z2LU_79.mp4	0.0	77.64551401138306	2.5075440406799316
8	21.041373014450073	fix_post	2		12.0	6.0	2.5	/experiments/knapen_aot/oldvideos/S_yt-Fm97IY0Z2LU_79.mp4	0.0	80.15305805206299	0.09980893135070801
9	21.14118194580078	fix_pre	0		16.0	7.0	2.5	/experiments/knapen_aot/oldvideos/S_yt-kINZMjys3O4_112.mp4	0.0	80.2528669834137	0.13321709632873535
9	21.266266107559204	response	0	2		7.0	2.5	/experiments/knapen_aot/oldvideos/S_yt-kINZMjys3O4_112.mp4	0.0	80.37795114517212	
9	21.274399042129517	movie	1		301.0	7.0	2.5	/experiments/knapen_aot/oldvideos/S_yt-kINZMjys3O4_112.mp4	0.0	80.38608407974243	2.508405923843384
9	23.7828049659729	fix_post	2		12.0	7.0	2.5	/experiments/knapen_aot/oldvideos/S_yt-kINZMjys3O4_112.mp4	0.0	82.89449000358582	0.10001111030578613
10	23.882816076278687	fix_pre	0		13.0	8.0	2.5	/experiments/knapen_aot/oldvideos/S_yt-xNKgc8sFYvU_35.mp4	0.0	82.9945011138916	0.10924100875854492
10	23.982939958572388	response	0	2		8.0	2.5	/experiments/knapen_aot/oldvideos/S_yt-xNKgc8sFYvU_35.mp4	0.0	83.0946249961853	
10	23.99205708503723	movie	1		301.0	8.0	2.5	/experiments/knapen_aot/oldvideos/S_yt-xNKgc8sFYvU_35.mp4	0.0	83.10374212265015	2.507394790649414
10	26.499451875686646	fix_post	2		12.0	8.0	2.5	/experiments/knapen_aot/oldvideos/S_yt-xNKgc8sFYvU_35.mp4	0.0	85.61113691329956	0.1000831127166748
11	26.59953498840332	fix_pre	0		7.0	9.0	2.5	/experiments/knapen_aot/oldvideos/R_S_video_inspire_california_catalina_avalon_00053.1080-h264.mp4	0.0	85.71122002601624	0.059226036071777344
11	26.64952802658081	response	0	2		9.0	2.5	/experiments/knapen_aot/oldvideos/R_S_video_inspire_california_catalina_avalon_00053.1080-h264.mp4	0.0	85.76121306419373	
11	26.658761024475098	movie	1		170.0	9.0	2.5	/experiments/knapen_aot/oldvideos/R_S_video_inspire_california_catalina_avalon_00053.1080-h264.mp4	0.0	85.77044606208801	2.5073630809783936
11	29.16612410545349	fix_post	2		12.0	9.0	2.5	/experiments/knapen_aot/oldvideos/R_S_video_inspire_california_catalina_avalon_00053.1080-h264.mp4	0.0	88.2778091430664	0.09995198249816895
11	29.241251945495605	response	2	2		9.0	2.5	/experiments/knapen_aot/oldvideos/R_S_video_inspire_california_catalina_avalon_00053.1080-h264.mp4	0.0	88.35293698310852	
12	29.26607608795166	fix_pre	0		64.0	10.0	2.5	/experiments/knapen_aot/oldvideos/S_yt-b29VtKvlnWE_430.mp4	0.0	88.37776112556458	0.5333149433135986
12	29.791303873062134	response	0	2		10.0	2.5	/experiments/knapen_aot/oldvideos/S_yt-b29VtKvlnWE_430.mp4	0.0	88.90298891067505	
12	29.79939103126526	movie	1		301.0	10.0	2.5	/experiments/knapen_aot/oldvideos/S_yt-b29VtKvlnWE_430.mp4	0.0	88.91107606887817	2.508349895477295
12	32.307740926742554	fix_post	2		12.0	10.0	2.5	/experiments/knapen_aot/oldvideos/S_yt-b29VtKvlnWE_430.mp4	0.0	91.41942596435547	0.10005497932434082
13	32.407795906066895	fix_pre	0		12.0	11.0	2.5	/experiments/knapen_aot/oldvideos/R_S_wc-b4Oquu3WQPRz_45.mp4	0.0	91.51948094367981	0.09993815422058105
13	32.49955201148987	response	0	2		11.0	2.5	/experiments/knapen_aot/oldvideos/R_S_wc-b4Oquu3WQPRz_45.mp4	0.0	91.61123704910278	
13	32.507734060287476	movie	1		171.0	11.0	2.5	/experiments/knapen_aot/oldvideos/R_S_wc-b4Oquu3WQPRz_45.mp4	0.0	91.61941909790039	2.5084660053253174
13	35.01620006561279	fix_post	2		12.0	11.0	2.5	/experiments/knapen_aot/oldvideos/R_S_wc-b4Oquu3WQPRz_45.mp4	0.0	94.12788510322571	0.09992384910583496
13	35.05793309211731	response	2	2		11.0	2.5	/experiments/knapen_aot/oldvideos/R_S_wc-b4Oquu3WQPRz_45.mp4	0.0	94.16961812973022	
14	35.11612391471863	fix_pre	0		51.0	12.0	2.5	/experiments/knapen_aot/oldvideos/S_wc-zkO_omg3nTvg_5.mp4	0.0	94.22780895233154	0.4249720573425293
14	35.5329270362854	response	0	2		12.0	2.5	/experiments/knapen_aot/oldvideos/S_wc-zkO_omg3nTvg_5.mp4	0.0	94.64461207389832	
14	35.54109597206116	movie	1		163.0	12.0	2.5	/experiments/knapen_aot/oldvideos/S_wc-zkO_omg3nTvg_5.mp4	0.0	94.65278100967407	2.5083041191101074
14	38.049400091171265	fix_post	2		12.0	12.0	2.5	/experiments/knapen_aot/oldvideos/S_wc-zkO_omg3nTvg_5.mp4	0.0	97.16108512878418	0.10002994537353516
15	38.1494300365448	fix_pre	0		13.0	13.0	2.5	blank	1.0	97.26111507415771	0.10833907127380371
15	38.24954390525818	response	0	2		13.0	2.5	blank	1.0	97.3612289428711	
15	38.2577691078186	movie	1		301.0	13.0	2.5	blank	1.0	97.36945414543152	2.5083999633789062
15	40.76616907119751	fix_post	2		12.0	13.0	2.5	blank	1.0	99.87785410881042	0.1001119613647461
16	40.866281032562256	fix_pre	0		24.0	14.0	2.5	/experiments/knapen_aot/oldvideos/R_S_yt-8RmEimCI80g_35.mp4	0.0	99.97796607017517	0.19975996017456055
16	41.05029106140137	response	0	2		14.0	2.5	/experiments/knapen_aot/oldvideos/R_S_yt-8RmEimCI80g_35.mp4	0.0	100.16197609901428	
16	41.066040992736816	movie	1		301.0	14.0	2.5	/experiments/knapen_aot/oldvideos/R_S_yt-8RmEimCI80g_35.mp4	0.0	100.17772603034973	2.508568048477173
16	43.57460904121399	fix_post	2		12.0	14.0	2.5	/experiments/knapen_aot/oldvideos/R_S_yt-8RmEimCI80g_35.mp4	0.0	102.6862940788269	0.09973788261413574
17	43.674346923828125	fix_pre	0		12.0	15.0	2.5	/experiments/knapen_aot/oldvideos/S_yt-CEQnXB0LxQU_278.mp4	0.0	102.78603196144104	0.10001707077026367
17	43.76612210273743	response	0	2		15.0	2.5	/experiments/knapen_aot/oldvideos/S_yt-CEQnXB0LxQU_278.mp4	0.0	102.87780714035034	
17	43.77436399459839	movie	1		301.0	15.0	2.5	/experiments/knapen_aot/oldvideos/S_yt-CEQnXB0LxQU_278.mp4	0.0	102.8860490322113	2.5083799362182617
17	46.28274393081665	fix_post	2		12.0	15.0	2.5	/experiments/knapen_aot/oldvideos/S_yt-CEQnXB0LxQU_278.mp4	0.0	105.39442896842957	0.09998011589050293
18	46.38272404670715	fix_pre	0		5.0	16.0	2.5	/experiments/knapen_aot/oldvideos/R_S_yt-XRQ_LSGGr3Y_712.mp4	0.0	105.49440908432007	0.0416109561920166
18	46.41635608673096	response	0	2		16.0	2.5	/experiments/knapen_aot/oldvideos/R_S_yt-XRQ_LSGGr3Y_712.mp4	0.0	105.52804112434387	
18	46.42433500289917	movie	1		301.0	16.0	2.5	/experiments/knapen_aot/oldvideos/R_S_yt-XRQ_LSGGr3Y_712.mp4	0.0	105.53602004051208	2.508431911468506
18	48.91612005233765	response	1	2		16.0	2.5	/experiments/knapen_aot/oldvideos/R_S_yt-XRQ_LSGGr3Y_712.mp4	0.0	108.02780508995056	
18	48.932766914367676	fix_post	2		12.0	16.0	2.5	/experiments/knapen_aot/oldvideos/R_S_yt-XRQ_LSGGr3Y_712.mp4	0.0	108.04445195198059	0.09993219375610352
19	49.03269910812378	fix_pre	0		35.0	17.0	2.5	/experiments/knapen_aot/oldvideos/S_ILSVRC2015_train_00682003.mp4	0.0	108.1443841457367	0.29242587089538574
19	49.30857300758362	response	0	2		17.0	2.5	/experiments/knapen_aot/oldvideos/S_ILSVRC2015_train_00682003.mp4	0.0	108.42025804519653	
19	49.325124979019165	movie	1		301.0	17.0	2.5	/experiments/knapen_aot/oldvideos/S_ILSVRC2015_train_00682003.mp4	0.0	108.43681001663208	2.5075600147247314
19	51.8326849937439	fix_post	2		12.0	17.0	2.5	/experiments/knapen_aot/oldvideos/S_ILSVRC2015_train_00682003.mp4	0.0	110.94437003135681	0.10001802444458008
19	51.92449593544006	response	2	2		17.0	2.5	/experiments/knapen_aot/oldvideos/S_ILSVRC2015_train_00682003.mp4	0.0	111.03618097305298	
20	51.93270301818848	fix_pre	0		45.0	18.0	2.5	/experiments/knapen_aot/oldvideos/S_pexels-kampus-production-5991896.mp4	0.0	111.04438805580139	0.37497687339782715
20	52.29949593544006	response	0	2		18.0	2.5	/experiments/knapen_aot/oldvideos/S_pexels-kampus-production-5991896.mp4	0.0	111.41118097305298	
20	52.307679891586304	movie	1		164.0	18.0	2.5	/experiments/knapen_aot/oldvideos/S_pexels-kampus-production-5991896.mp4	0.0	111.41936492919922	2.508371114730835
20	54.81605100631714	fix_post	2		12.0	18.0	2.5	/experiments/knapen_aot/oldvideos/S_pexels-kampus-production-5991896.mp4	0.0	113.92773604393005	0.09995889663696289
21	54.9160099029541	fix_pre	0		1.0	19.0	2.5	/experiments/knapen_aot/oldvideos/S_yt-fP2JRJAFGZ4_25.mp4	0.0	114.02769494056702	0.008310079574584961
21	54.91768789291382	response	0	2		19.0	2.5	/experiments/knapen_aot/oldvideos/S_yt-fP2JRJAFGZ4_25.mp4	0.0	114.02937293052673	
21	54.92431998252869	movie	1		301.0	19.0	2.5	/experiments/knapen_aot/oldvideos/S_yt-fP2JRJAFGZ4_25.mp4	0.0	114.0360050201416	2.5083389282226562
21	57.43265891075134	fix_post	2		12.0	19.0	2.5	/experiments/knapen_aot/oldvideos/S_yt-fP2JRJAFGZ4_25.mp4	0.0	116.54434394836426	0.09995412826538086
22	57.532613039016724	fix_pre	0		9.0	20.0	2.5	blank	1.0	116.64429807662964	0.07505393028259277
22	57.599432945251465	response	0	2		20.0	2.5	blank	1.0	116.71111798286438	
22	57.607666969299316	movie	1		301.0	20.0	2.5	blank	1.0	116.71935200691223	2.508291006088257
22	60.11595797538757	fix_post	2		12.0	20.0	2.5	blank	1.0	119.22764301300049	0.10013890266418457
23	60.21609687805176	fix_pre	0		15.0	21.0	2.5	/experiments/knapen_aot/oldvideos/R_S_yt-ujTY1igjc3E_2.mp4	0.0	119.32778191566467	0.12484312057495117
23	60.33276295661926	response	0	2		21.0	2.5	/experiments/knapen_aot/oldvideos/R_S_yt-ujTY1igjc3E_2.mp4	0.0	119.44444799423218	
23	60.34093999862671	movie	1		301.0	21.0	2.5	/experiments/knapen_aot/oldvideos/R_S_yt-ujTY1igjc3E_2.mp4	0.0	119.45262503623962	2.5083909034729004
23	62.84933090209961	fix_post	2		12.0	21.0	2.5	/experiments/knapen_aot/oldvideos/R_S_yt-ujTY1igjc3E_2.mp4	0.0	121.96101593971252	0.09999799728393555
24	62.949328899383545	fix_pre	0		10.0	22.0	2.5	/experiments/knapen_aot/oldvideos/S_comp_A007_C017_01156B_v02_SDR_PS_20180925_SDR_2K_AVC.mp4	0.0	122.06101393699646	0.08406615257263184
24	63.02440810203552	response	0	2		22.0	2.5	/experiments/knapen_aot/oldvideos/S_comp_A007_C017_01156B_v02_SDR_PS_20180925_SDR_2K_AVC.mp4	0.0	122.13609313964844	
24	63.03339505195618	movie	1		162.0	22.0	2.5	/experiments/knapen_aot/oldvideos/S_comp_A007_C017_01156B_v02_SDR_PS_20180925_SDR_2K_AVC.mp4	0.0	122.14508008956909	2.5075249671936035
24	65.54092001914978	fix_post	2		12.0	22.0	2.5	/experiments/knapen_aot/oldvideos/S_comp_A007_C017_01156B_v02_SDR_PS_20180925_SDR_2K_AVC.mp4	0.0	124.6526050567627	0.10003304481506348
25	65.64095306396484	fix_pre	0		3.0	23.0	2.5	/experiments/knapen_aot/oldvideos/S_bing-www_yahoo_com_entertainment_anastasia-karanikolaou-chantel-jeffries-discuss-182400502_html_9.mp4	0.0	124.75263810157776	0.02511000633239746
25	65.65776991844177	response	0	2		23.0	2.5	/experiments/knapen_aot/oldvideos/S_bing-www_yahoo_com_entertainment_anastasia-karanikolaou-chantel-jeffries-discuss-182400502_html_9.mp4	0.0	124.76945495605469	
25	65.66606307029724	movie	1		160.0	23.0	2.5	/experiments/knapen_aot/oldvideos/S_bing-www_yahoo_com_entertainment_anastasia-karanikolaou-chantel-jeffries-discuss-182400502_html_9.mp4	0.0	124.77774810791016	2.508227825164795
25	68.17429089546204	fix_post	2		12.0	23.0	2.5	/experiments/knapen_aot/oldvideos/S_bing-www_yahoo_com_entertainment_anastasia-karanikolaou-chantel-jeffries-discuss-182400502_html_9.mp4	0.0	127.28597593307495	0.09993910789489746
26	68.27423000335693	fix_pre	0		20.0	24.0	2.5	/experiments/knapen_aot/oldvideos/R_S_yt-4NjyKFnwHBo_13.mp4	0.0	127.38591504096985	0.16665387153625488
26	68.43269109725952	response	0	2		24.0	2.5	/experiments/knapen_aot/oldvideos/R_S_yt-4NjyKFnwHBo_13.mp4	0.0	127.54437613487244	
26	68.44088387489319	movie	1		300.0	24.0	2.5	/experiments/knapen_aot/oldvideos/R_S_yt-4NjyKFnwHBo_13.mp4	0.0	127.5525689125061	2.5083510875701904
26	70.94923496246338	fix_post	2		12.0	24.0	2.5	/experiments/knapen_aot/oldvideos/R_S_yt-4NjyKFnwHBo_13.mp4	0.0	130.0609200000763	0.10006403923034668
27	71.04929900169373	fix_pre	0		10.0	25.0	2.5	/experiments/knapen_aot/oldvideos/S_yt--jzScB82vKI_90.mp4	0.0	130.16098403930664	0.08322000503540039
27	71.1244170665741	response	0	2		25.0	2.5	/experiments/knapen_aot/oldvideos/S_yt--jzScB82vKI_90.mp4	0.0	130.236102104187	
27	71.13251900672913	movie	1		301.0	25.0	2.5	/experiments/knapen_aot/oldvideos/S_yt--jzScB82vKI_90.mp4	0.0	130.24420404434204	2.508359909057617
27	73.64087891578674	fix_post	2		12.0	25.0	2.5	/experiments/knapen_aot/oldvideos/S_yt--jzScB82vKI_90.mp4	0.0	132.75256395339966	0.10014104843139648
28	73.74101996421814	fix_pre	0		18.0	26.0	2.5	/experiments/knapen_aot/oldvideos/R_S_yt-savE5_jePKQ_25.mp4	0.0	132.85270500183105	0.1498730182647705
28	73.88266801834106	response	0	2		26.0	2.5	/experiments/knapen_aot/oldvideos/R_S_yt-savE5_jePKQ_25.mp4	0.0	132.99435305595398	
28	73.89089298248291	movie	1		301.0	26.0	2.5	/experiments/knapen_aot/oldvideos/R_S_yt-savE5_jePKQ_25.mp4	0.0	133.00257802009583	2.5083420276641846
28	76.0116651058197	response	1	2		26.0	2.5	/experiments/knapen_aot/oldvideos/R_S_yt-savE5_jePKQ_25.mp4	0.0	135.12335014343262	
28	76.3992350101471	fix_post	2		12.0	26.0	2.5	/experiments/knapen_aot/oldvideos/R_S_yt-savE5_jePKQ_25.mp4	0.0	135.51092004776	0.09995198249816895
28	76.48266005516052	response	2	2		26.0	2.5	/experiments/knapen_aot/oldvideos/R_S_yt-savE5_jePKQ_25.mp4	0.0	135.59434509277344	
29	76.49918699264526	fix_pre	0		68.0	27.0	2.5	/experiments/knapen_aot/oldvideos/R_S_yt-MTo50ReVNmU_2.mp4	0.0	135.61087203025818	0.5666460990905762
29	77.05769610404968	response	0	2		27.0	2.5	/experiments/knapen_aot/oldvideos/R_S_yt-MTo50ReVNmU_2.mp4	0.0	136.1693811416626	
29	77.06583309173584	movie	1		301.0	27.0	2.5	/experiments/knapen_aot/oldvideos/R_S_yt-MTo50ReVNmU_2.mp4	0.0	136.17751812934875	2.5085718631744385
29	79.57440495491028	fix_post	2		12.0	27.0	2.5	/experiments/knapen_aot/oldvideos/R_S_yt-MTo50ReVNmU_2.mp4	0.0	138.6860899925232	0.09983491897583008
30	79.67423987388611	fix_pre	0		7.0	28.0	2.5	blank	1.0	138.78592491149902	0.058303117752075195
30	79.72420597076416	response	0	4		28.0	2.5	blank	1.0	138.83589100837708	
30	79.73254299163818	movie	1		301.0	28.0	2.5	blank	1.0	138.8442280292511	2.508357048034668
30	81.99929594993591	response	1	4		28.0	2.5	blank	1.0	141.11098098754883	
30	82.24090003967285	fix_post	2		12.0	28.0	2.5	blank	1.0	141.35258507728577	0.09986305236816406
31	82.34076309204102	fix_pre	0		19.0	29.0	2.5	/experiments/knapen_aot/oldvideos/S_yt-2IN85w8ptmM_51.mp4	0.0	141.45244812965393	0.15835094451904297
31	82.49086093902588	response	0	4		29.0	2.5	/experiments/knapen_aot/oldvideos/S_yt-2IN85w8ptmM_51.mp4	0.0	141.6025459766388	
31	82.49911403656006	movie	1		301.0	29.0	2.5	/experiments/knapen_aot/oldvideos/S_yt-2IN85w8ptmM_51.mp4	0.0	141.61079907417297	2.508375883102417
31	85.00748991966248	fix_post	2		12.0	29.0	2.5	/experiments/knapen_aot/oldvideos/S_yt-2IN85w8ptmM_51.mp4	0.0	144.1191749572754	0.1000211238861084
32	85.10751104354858	fix_pre	0		25.0	30.0	2.5	/experiments/knapen_aot/oldvideos/S_comp_N008_C003_PS_v01_SDR_PS_20180925_SDR_2K_AVC.mp4	0.0	144.2191960811615	0.20826101303100586
32	85.30761098861694	response	0	4		30.0	2.5	/experiments/knapen_aot/oldvideos/S_comp_N008_C003_PS_v01_SDR_PS_20180925_SDR_2K_AVC.mp4	0.0	144.41929602622986	
32	85.31577205657959	movie	1		161.0	30.0	2.5	/experiments/knapen_aot/oldvideos/S_comp_N008_C003_PS_v01_SDR_PS_20180925_SDR_2K_AVC.mp4	0.0	144.4274570941925	2.508600950241089
32	87.82437300682068	fix_post	2		12.0	30.0	2.5	/experiments/knapen_aot/oldvideos/S_comp_N008_C003_PS_v01_SDR_PS_20180925_SDR_2K_AVC.mp4	0.0	146.9360580444336	0.09986495971679688
33	87.92423796653748	fix_pre	0		5.0	31.0	2.5	/experiments/knapen_aot/oldvideos/S_ILSVRC2015_train_00704000.mp4	0.0	147.0359230041504	0.04155111312866211
33	87.95757603645325	response	0	4		31.0	2.5	/experiments/knapen_aot/oldvideos/S_ILSVRC2015_train_00704000.mp4	0.0	147.06926107406616	
33	87.96578907966614	movie	1		301.0	31.0	2.5	/experiments/knapen_aot/oldvideos/S_ILSVRC2015_train_00704000.mp4	0.0	147.07747411727905	2.5083508491516113
33	90.47413992881775	fix_post	2		12.0	31.0	2.5	/experiments/knapen_aot/oldvideos/S_ILSVRC2015_train_00704000.mp4	0.0	149.58582496643066	0.09999895095825195
34	90.574138879776	fix_pre	0		3.0	32.0	2.5	/experiments/knapen_aot/oldvideos/R_S_g201_WH_D004_L014_SDR_20191031_SDR_2K_AVC.mp4	0.0	149.68582391738892	0.02495408058166504
34	90.59090089797974	response	0	4		32.0	2.5	/experiments/knapen_aot/oldvideos/R_S_g201_WH_D004_L014_SDR_20191031_SDR_2K_AVC.mp4	0.0	149.70258593559265	
34	90.59909296035767	movie	1		164.0	32.0	2.5	/experiments/knapen_aot/oldvideos/R_S_g201_WH_D004_L014_SDR_20191031_SDR_2K_AVC.mp4	0.0	149.71077799797058	2.508352041244507
34	93.10744500160217	fix_post	2		12.0	32.0	2.5	/experiments/knapen_aot/oldvideos/R_S_g201_WH_D004_L014_SDR_20191031_SDR_2K_AVC.mp4	0.0	152.2191300392151	0.09994792938232422
35	93.2073929309845	fix_pre	0		15.0	33.0	2.5	/experiments/knapen_aot/oldvideos/S_yt-JQOHHL30Y54_101.mp4	0.0	152.3190779685974	0.12492704391479492
35	93.32423806190491	response	0	4		33.0	2.5	/experiments/knapen_aot/oldvideos/S_yt-JQOHHL30Y54_101.mp4	0.0	152.43592309951782	
35	93.33231997489929	movie	1		301.0	33.0	2.5	/experiments/knapen_aot/oldvideos/S_yt-JQOHHL30Y54_101.mp4	0.0	152.4440050125122	2.508397102355957
35	95.84071707725525	fix_post	2		12.0	33.0	2.5	/experiments/knapen_aot/oldvideos/S_yt-JQOHHL30Y54_101.mp4	0.0	154.95240211486816	0.10016298294067383
36	95.94088006019592	fix_pre	0		12.0	34.0	2.5	/experiments/knapen_aot/oldvideos/R_S_yt-rqYMMAU_GJs_91.mp4	0.0	155.05256509780884	0.09996485710144043
36	96.02490997314453	response	0	4		34.0	2.5	/experiments/knapen_aot/oldvideos/R_S_yt-rqYMMAU_GJs_91.mp4	0.0	155.13659501075745	
36	96.04084491729736	movie	1		301.0	34.0	2.5	/experiments/knapen_aot/oldvideos/R_S_yt-rqYMMAU_GJs_91.mp4	0.0	155.15252995491028	2.5082221031188965
36	98.54906702041626	fix_post	2		12.0	34.0	2.5	/experiments/knapen_aot/oldvideos/R_S_yt-rqYMMAU_GJs_91.mp4	0.0	157.66075205802917	0.10000896453857422
37	98.64907598495483	fix_pre	0		16.0	35.0	2.5	blank	1.0	157.76076102256775	0.13398504257202148
37	98.77414107322693	response	0	4		35.0	2.5	blank	1.0	157.88582611083984	
37	98.78306102752686	movie	1		301.0	35.0	2.5	blank	1.0	157.89474606513977	2.507714033126831
37	101.29077506065369	fix_post	2		12.0	35.0	2.5	blank	1.0	160.4024600982666	0.09996294975280762
38	101.3907380104065	fix_pre	0		19.0	36.0	2.5	/experiments/knapen_aot/oldvideos/S_yt-GLK6LniTOK0_69.mp4	0.0	160.5024230480194	0.15830397605895996
38	101.54076504707336	response	0	4		36.0	2.5	/experiments/knapen_aot/oldvideos/S_yt-GLK6LniTOK0_69.mp4	0.0	160.65245008468628	
38	101.54904198646545	movie	1		301.0	36.0	2.5	/experiments/knapen_aot/oldvideos/S_yt-GLK6LniTOK0_69.mp4	0.0	160.66072702407837	2.508402109146118
38	104.05744409561157	fix_post	2		12.0	36.0	2.5	/experiments/knapen_aot/oldvideos/S_yt-GLK6LniTOK0_69.mp4	0.0	163.1691291332245	0.09997391700744629
39	104.15741801261902	fix_pre	0		18.0	37.0	2.5	/experiments/knapen_aot/oldvideos/S_yt-gOoDjhfSPj0_162.mp4	0.0	163.26910305023193	0.14995503425598145
39	104.29924988746643	response	0	4		37.0	2.5	/experiments/knapen_aot/oldvideos/S_yt-gOoDjhfSPj0_162.mp4	0.0	163.41093492507935	
39	104.307373046875	movie	1		301.0	37.0	2.5	/experiments/knapen_aot/oldvideos/S_yt-gOoDjhfSPj0_162.mp4	0.0	163.41905808448792	2.508391857147217
39	106.81576490402222	fix_post	2		12.0	37.0	2.5	/experiments/knapen_aot/oldvideos/S_yt-gOoDjhfSPj0_162.mp4	0.0	165.92744994163513	0.10005903244018555
40	106.9158239364624	fix_pre	0		23.0	38.0	2.5	/experiments/knapen_aot/oldvideos/S_ILSVRC2015_train_00074011.mp4	0.0	166.02750897407532	0.19156098365783691
40	107.0991780757904	response	0	4		38.0	2.5	/experiments/knapen_aot/oldvideos/S_ILSVRC2015_train_00074011.mp4	0.0	166.21086311340332	
40	107.10738492012024	movie	1		301.0	38.0	2.5	/experiments/knapen_aot/oldvideos/S_ILSVRC2015_train_00074011.mp4	0.0	166.21906995773315	2.508355140686035
40	109.61574006080627	fix_post	2		12.0	38.0	2.5	/experiments/knapen_aot/oldvideos/S_ILSVRC2015_train_00074011.mp4	0.0	168.7274250984192	0.10026097297668457
41	109.71600103378296	fix_pre	0		10.0	39.0	2.5	/experiments/knapen_aot/oldvideos/S_yt-OdTWn1U1mO4_68.mp4	0.0	168.82768607139587	0.08302903175354004
41	109.79079008102417	response	0	4		39.0	2.5	/experiments/knapen_aot/oldvideos/S_yt-OdTWn1U1mO4_68.mp4	0.0	168.90247511863708	
41	109.7990300655365	movie	1		301.0	39.0	2.5	/experiments/knapen_aot/oldvideos/S_yt-OdTWn1U1mO4_68.mp4	0.0	168.9107151031494	2.5083658695220947
41	112.3073959350586	fix_post	2		12.0	39.0	2.5	/experiments/knapen_aot/oldvideos/S_yt-OdTWn1U1mO4_68.mp4	0.0	171.4190809726715	0.10002613067626953
42	112.40742206573486	fix_pre	0		30.0	40.0	2.5	/experiments/knapen_aot/oldvideos/S_production_ID_4510883.mp4	0.0	171.51910710334778	0.2504448890686035
42	112.64913392066956	response	0	4		40.0	2.5	/experiments/knapen_aot/oldvideos/S_production_ID_4510883.mp4	0.0	171.76081895828247	
42	112.65786695480347	movie	1		165.0	40.0	2.5	/experiments/knapen_aot/oldvideos/S_production_ID_4510883.mp4	0.0	171.76955199241638	2.507797956466675
42	115.16566491127014	fix_post	2		12.0	40.0	2.5	/experiments/knapen_aot/oldvideos/S_production_ID_4510883.mp4	0.0	174.27734994888306	0.10001206398010254
43	115.26567697525024	fix_pre	0		7.0	41.0	2.5	blank	1.0	174.37736201286316	0.05882906913757324
43	115.31579208374023	response	0	4		41.0	2.5	blank	1.0	174.42747712135315	
43	115.32450604438782	movie	1		301.0	41.0	2.5	blank	1.0	174.43619108200073	2.50780987739563
43	117.83231592178345	fix_post	2		12.0	41.0	2.5	blank	1.0	176.94400095939636	0.0999290943145752
44	117.93224501609802	fix_pre	0		17.0	42.0	2.5	/experiments/knapen_aot/oldvideos/R_S_yt-M_ApPnq00iE_67.mp4	0.0	177.04393005371094	0.14209508895874023
44	118.06594896316528	response	0	4		42.0	2.5	/experiments/knapen_aot/oldvideos/R_S_yt-M_ApPnq00iE_67.mp4	0.0	177.1776340007782	
44	118.07434010505676	movie	1		301.0	42.0	2.5	/experiments/knapen_aot/oldvideos/R_S_yt-M_ApPnq00iE_67.mp4	0.0	177.18602514266968	2.5080738067626953
44	120.58241391181946	fix_post	2		12.0	42.0	2.5	/experiments/knapen_aot/oldvideos/R_S_yt-M_ApPnq00iE_67.mp4	0.0	179.69409894943237	0.09986996650695801
45	120.68228387832642	fix_pre	0		14.0	43.0	2.5	/experiments/knapen_aot/oldvideos/R_S_ILSVRC2015_train_00042002.mp4	0.0	179.79396891593933	0.11666607856750488
45	120.79069805145264	response	0	4		43.0	2.5	/experiments/knapen_aot/oldvideos/R_S_ILSVRC2015_train_00042002.mp4	0.0	179.90238308906555	
45	120.79894995689392	movie	1		301.0	43.0	2.5	/experiments/knapen_aot/oldvideos/R_S_ILSVRC2015_train_00042002.mp4	0.0	179.91063499450684	2.5084171295166016
45	121.04904103279114	response	1	2		43.0	2.5	/experiments/knapen_aot/oldvideos/R_S_ILSVRC2015_train_00042002.mp4	0.0	180.16072607040405	
45	123.30736708641052	fix_post	2		12.0	43.0	2.5	/experiments/knapen_aot/oldvideos/R_S_ILSVRC2015_train_00042002.mp4	0.0	182.41905212402344	0.10040998458862305
46	123.40777707099915	fix_pre	0		18.0	44.0	2.5	/experiments/knapen_aot/oldvideos/R_S_bing-www_nbcnews_com_storyline_isis-terror_fall-isis-stronghold-raqqa-will-change-war-extremists-not-end-n808621_86.mp4	0.0	182.51946210861206	0.1494438648223877
46	123.5490620136261	response	0	4		44.0	2.5	/experiments/knapen_aot/oldvideos/R_S_bing-www_nbcnews_com_storyline_isis-terror_fall-isis-stronghold-raqqa-will-change-war-extremists-not-end-n808621_86.mp4	0.0	182.660747051239	
46	123.55722093582153	movie	1		166.0	44.0	2.5	/experiments/knapen_aot/oldvideos/R_S_bing-www_nbcnews_com_storyline_isis-terror_fall-isis-stronghold-raqqa-will-change-war-extremists-not-end-n808621_86.mp4	0.0	182.66890597343445	2.508411169052124
46	126.06563210487366	fix_post	2		12.0	44.0	2.5	/experiments/knapen_aot/oldvideos/R_S_bing-www_nbcnews_com_storyline_isis-terror_fall-isis-stronghold-raqqa-will-change-war-extremists-not-end-n808621_86.mp4	0.0	185.17731714248657	0.10005688667297363
47	126.16568899154663	fix_pre	0		5.0	45.0	2.5	/experiments/knapen_aot/oldvideos/S_yt-Co4dzHwupRM_18.mp4	0.0	185.27737402915955	0.04172110557556152
47	126.19904208183289	response	0	4		45.0	2.5	/experiments/knapen_aot/oldvideos/S_yt-Co4dzHwupRM_18.mp4	0.0	185.3107271194458	
47	126.20741009712219	movie	1		301.0	45.0	2.5	/experiments/knapen_aot/oldvideos/S_yt-Co4dzHwupRM_18.mp4	0.0	185.3190951347351	2.5081918239593506
47	128.71560192108154	fix_post	2		12.0	45.0	2.5	/experiments/knapen_aot/oldvideos/S_yt-Co4dzHwupRM_18.mp4	0.0	187.82728695869446	0.10002613067626953
48	128.8156280517578	fix_pre	0		13.0	46.0	2.5	/experiments/knapen_aot/oldvideos/S_yt-g_CLzrCYHoc_7.mp4	0.0	187.92731308937073	0.10832905769348145
48	128.91564989089966	response	0	4		46.0	2.5	/experiments/knapen_aot/oldvideos/S_yt-g_CLzrCYHoc_7.mp4	0.0	188.02733492851257	
48	128.9239571094513	movie	1		301.0	46.0	2.5	/experiments/knapen_aot/oldvideos/S_yt-g_CLzrCYHoc_7.mp4	0.0	188.0356421470642	2.5082998275756836
48	131.43225693702698	fix_post	2		12.0	46.0	2.5	/experiments/knapen_aot/oldvideos/S_yt-g_CLzrCYHoc_7.mp4	0.0	190.5439419746399	0.09999513626098633
49	131.53225207328796	fix_pre	0		8.0	47.0	2.5	/experiments/knapen_aot/oldvideos/S_yt-xrPrnzvWUkY_7.mp4	0.0	190.64393711090088	0.066802978515625
49	131.59062910079956	response	0	4		47.0	2.5	/experiments/knapen_aot/oldvideos/S_yt-xrPrnzvWUkY_7.mp4	0.0	190.70231413841248	
49	131.5990550518036	movie	1		301.0	47.0	2.5	/experiments/knapen_aot/oldvideos/S_yt-xrPrnzvWUkY_7.mp4	0.0	190.7107400894165	2.508275032043457
49	134.10733008384705	fix_post	2		12.0	47.0	2.5	/experiments/knapen_aot/oldvideos/S_yt-xrPrnzvWUkY_7.mp4	0.0	193.21901512145996	0.0999758243560791
50	134.20730590820312	fix_pre	0		20.0	48.0	2.5	/experiments/knapen_aot/oldvideos/R_S_g201_WH_D004_L014_SDR_20191031_SDR_2K_AVC.mp4	0.0	193.31899094581604	0.16653704643249512
50	134.36564302444458	response	0	4		48.0	2.5	/experiments/knapen_aot/oldvideos/R_S_g201_WH_D004_L014_SDR_20191031_SDR_2K_AVC.mp4	0.0	193.4773280620575	
50	134.37384295463562	movie	1		164.0	48.0	2.5	/experiments/knapen_aot/oldvideos/R_S_g201_WH_D004_L014_SDR_20191031_SDR_2K_AVC.mp4	0.0	193.48552799224854	2.508415937423706
50	136.88225889205933	fix_post	2		12.0	48.0	2.5	/experiments/knapen_aot/oldvideos/R_S_g201_WH_D004_L014_SDR_20191031_SDR_2K_AVC.mp4	0.0	195.99394392967224	0.09993910789489746
51	136.98219799995422	fix_pre	0		13.0	49.0	2.5	blank	1.0	196.09388303756714	0.10825991630554199
51	137.08236598968506	response	0	4		49.0	2.5	blank	1.0	196.19405102729797	
51	137.09045791625977	movie	1		301.0	49.0	2.5	blank	1.0	196.20214295387268	2.5083751678466797
51	137.29053807258606	response	1	2		49.0	2.5	blank	1.0	196.40222311019897	
51	139.59883308410645	fix_post	2		12.0	49.0	2.5	blank	1.0	198.71051812171936	0.10004401206970215
52	139.69887709617615	fix_pre	0		19.0	50.0	2.5	/experiments/knapen_aot/oldvideos/S_pexels-koolshooters-7689098.mp4	0.0	198.81056213378906	0.1584467887878418
52	139.8489511013031	response	0	4		50.0	2.5	/experiments/knapen_aot/oldvideos/S_pexels-koolshooters-7689098.mp4	0.0	198.96063613891602	
52	139.857323884964	movie	1		179.0	50.0	2.5	/experiments/knapen_aot/oldvideos/S_pexels-koolshooters-7689098.mp4	0.0	198.9690089225769	2.5085840225219727
52	142.36590790748596	fix_post	2		12.0	50.0	2.5	/experiments/knapen_aot/oldvideos/S_pexels-koolshooters-7689098.mp4	0.0	201.47759294509888	0.0996861457824707
52	142.4489688873291	response	2	4		50.0	2.5	/experiments/knapen_aot/oldvideos/S_pexels-koolshooters-7689098.mp4	0.0	201.56065392494202	
53	142.46559405326843	fix_pre	0		48.0	51.0	2.5	/experiments/knapen_aot/oldvideos/R_S_yt-hvuC_2YXsTQ_159.mp4	0.0	201.57727909088135	0.40018796920776367
53	142.85724401474	response	0	4		51.0	2.5	/experiments/knapen_aot/oldvideos/R_S_yt-hvuC_2YXsTQ_159.mp4	0.0	201.9689290523529	
53	142.8657820224762	movie	1		301.0	51.0	2.5	/experiments/knapen_aot/oldvideos/R_S_yt-hvuC_2YXsTQ_159.mp4	0.0	201.9774670600891	2.508013963699341
53	145.37379598617554	fix_post	2		12.0	51.0	2.5	/experiments/knapen_aot/oldvideos/R_S_yt-hvuC_2YXsTQ_159.mp4	0.0	204.48548102378845	0.10006499290466309
53	145.44895887374878	response	2	4		51.0	2.5	/experiments/knapen_aot/oldvideos/R_S_yt-hvuC_2YXsTQ_159.mp4	0.0	204.5606439113617	
54	145.4738609790802	fix_pre	0		41.0	52.0	2.5	/experiments/knapen_aot/oldvideos/R_S_yt-rY_ra5Tb9XU_51.mp4	0.0	204.58554601669312	0.341602087020874
54	145.8073000907898	response	0	4		52.0	2.5	/experiments/knapen_aot/oldvideos/R_S_yt-rY_ra5Tb9XU_51.mp4	0.0	204.9189851284027	
54	145.81546306610107	movie	1		301.0	52.0	2.5	/experiments/knapen_aot/oldvideos/R_S_yt-rY_ra5Tb9XU_51.mp4	0.0	204.927148103714	2.508319854736328
54	148.3237829208374	fix_post	2		12.0	52.0	2.5	/experiments/knapen_aot/oldvideos/R_S_yt-rY_ra5Tb9XU_51.mp4	0.0	207.43546795845032	0.10006999969482422
55	148.42385292053223	fix_pre	0		21.0	53.0	2.5	/experiments/knapen_aot/oldvideos/S_yt-i4kSCZ8rNC0_11.mp4	0.0	207.53553795814514	0.17493295669555664
55	148.58307909965515	response	0	4		53.0	2.5	/experiments/knapen_aot/oldvideos/S_yt-i4kSCZ8rNC0_11.mp4	0.0	207.69476413726807	
55	148.59878587722778	movie	1		301.0	53.0	2.5	/experiments/knapen_aot/oldvideos/S_yt-i4kSCZ8rNC0_11.mp4	0.0	207.7104709148407	2.508406162261963
55	151.10719203948975	fix_post	2		12.0	53.0	2.5	/experiments/knapen_aot/oldvideos/S_yt-i4kSCZ8rNC0_11.mp4	0.0	210.21887707710266	0.09998488426208496
56	151.20717692375183	fix_pre	0		9.0	54.0	2.5	/experiments/knapen_aot/oldvideos/R_S_yt-LYnwnfi1JJ4_120.mp4	0.0	210.31886196136475	0.07519698143005371
56	151.26646494865417	response	0	2		54.0	2.5	/experiments/knapen_aot/oldvideos/R_S_yt-LYnwnfi1JJ4_120.mp4	0.0	210.3781499862671	
56	151.28237390518188	movie	1		301.0	54.0	2.5	/experiments/knapen_aot/oldvideos/R_S_yt-LYnwnfi1JJ4_120.mp4	0.0	210.3940589427948	2.508153200149536
56	153.79052710533142	fix_post	2		12.0	54.0	2.5	/experiments/knapen_aot/oldvideos/R_S_yt-LYnwnfi1JJ4_120.mp4	0.0	212.90221214294434	0.09998488426208496
57	153.8905119895935	fix_pre	0		12.0	55.0	2.5	/experiments/knapen_aot/oldvideos/R_S_yt-W00vtWnXgIk_73.mp4	0.0	213.00219702720642	0.1001429557800293
57	153.98238706588745	response	0	2		55.0	2.5	/experiments/knapen_aot/oldvideos/R_S_yt-W00vtWnXgIk_73.mp4	0.0	213.09407210350037	
57	153.99065494537354	movie	1		301.0	55.0	2.5	/experiments/knapen_aot/oldvideos/R_S_yt-W00vtWnXgIk_73.mp4	0.0	213.10233998298645	2.5081989765167236
57	156.49885392189026	fix_post	2		12.0	55.0	2.5	/experiments/knapen_aot/oldvideos/R_S_yt-W00vtWnXgIk_73.mp4	0.0	215.61053895950317	0.09998416900634766
58	156.5988380908966	fix_pre	0		19.0	56.0	2.5	blank	1.0	215.71052312850952	0.15832781791687012
58	156.74897694587708	response	0	2		56.0	2.5	blank	1.0	215.86066198349	
58	156.75716590881348	movie	1		301.0	56.0	2.5	blank	1.0	215.8688509464264	2.5084359645843506
58	159.26560187339783	fix_post	2		12.0	56.0	2.5	blank	1.0	218.37728691101074	0.10020208358764648
59	159.36580395698547	fix_pre	0		32.0	57.0	2.5	/experiments/knapen_aot/oldvideos/S_yt-yyIimWrvRyI_246.mp4	0.0	218.4774889945984	0.26633501052856445
59	159.6239149570465	response	0	2		57.0	2.5	/experiments/knapen_aot/oldvideos/S_yt-yyIimWrvRyI_246.mp4	0.0	218.73559999465942	
59	159.63213896751404	movie	1		301.0	57.0	2.5	/experiments/knapen_aot/oldvideos/S_yt-yyIimWrvRyI_246.mp4	0.0	218.74382400512695	2.5083260536193848
59	162.14046502113342	fix_post	2		12.0	57.0	2.5	/experiments/knapen_aot/oldvideos/S_yt-yyIimWrvRyI_246.mp4	0.0	221.25215005874634	0.10043907165527344
60	162.2409040927887	fix_pre	0		9.0	58.0	2.5	/experiments/knapen_aot/oldvideos/R_S_yt-QI6k6mhpxLo_453.mp4	0.0	221.3525891304016	0.07466292381286621
60	162.29973101615906	response	0	2		58.0	2.5	/experiments/knapen_aot/oldvideos/R_S_yt-QI6k6mhpxLo_453.mp4	0.0	221.41141605377197	
60	162.31556701660156	movie	1		301.0	58.0	2.5	/experiments/knapen_aot/oldvideos/R_S_yt-QI6k6mhpxLo_453.mp4	0.0	221.42725205421448	2.508476972579956
60	164.82404398918152	fix_post	2		12.0	58.0	2.5	/experiments/knapen_aot/oldvideos/R_S_yt-QI6k6mhpxLo_453.mp4	0.0	223.93572902679443	0.09974789619445801
61	164.92379188537598	fix_pre	0		18.0	59.0	2.5	/experiments/knapen_aot/oldvideos/R_S_yt-CEQnXB0LxQU_278.mp4	0.0	224.0354769229889	0.15009403228759766
61	165.06557202339172	response	0	2		59.0	2.5	/experiments/knapen_aot/oldvideos/R_S_yt-CEQnXB0LxQU_278.mp4	0.0	224.17725706100464	
61	165.07388591766357	movie	1		301.0	59.0	2.5	/experiments/knapen_aot/oldvideos/R_S_yt-CEQnXB0LxQU_278.mp4	0.0	224.1855709552765	2.5081961154937744
61	167.58208203315735	fix_post	2		12.0	59.0	2.5	/experiments/knapen_aot/oldvideos/R_S_yt-CEQnXB0LxQU_278.mp4	0.0	226.69376707077026	0.10012102127075195
62	167.6822030544281	fix_pre	0		8.0	60.0	2.5	/experiments/knapen_aot/oldvideos/R_S_yt-QD74nNliDvI_10.mp4	0.0	226.79388809204102	0.06652998924255371
62	167.74056100845337	response	0	2		60.0	2.5	/experiments/knapen_aot/oldvideos/R_S_yt-QD74nNliDvI_10.mp4	0.0	226.85224604606628	
62	167.74873304367065	movie	1		301.0	60.0	2.5	/experiments/knapen_aot/oldvideos/R_S_yt-QD74nNliDvI_10.mp4	0.0	226.86041808128357	2.508363962173462
62	170.25709700584412	fix_post	2		12.0	60.0	2.5	/experiments/knapen_aot/oldvideos/R_S_yt-QD74nNliDvI_10.mp4	0.0	229.36878204345703	0.10001897811889648
62	170.34054803848267	response	2	2		60.0	2.5	/experiments/knapen_aot/oldvideos/R_S_yt-QD74nNliDvI_10.mp4	0.0	229.45223307609558	
63	170.357115983963	fix_pre	0		65.0	61.0	2.5	/experiments/knapen_aot/oldvideos/R_S_yt-CEQnXB0LxQU_278.mp4	0.0	229.46880102157593	0.5415909290313721
63	170.89049196243286	response	0	2		61.0	2.5	/experiments/knapen_aot/oldvideos/R_S_yt-CEQnXB0LxQU_278.mp4	0.0	230.00217700004578	
63	170.89870691299438	movie	1		301.0	61.0	2.5	/experiments/knapen_aot/oldvideos/R_S_yt-CEQnXB0LxQU_278.mp4	0.0	230.0103919506073	2.508514165878296
63	173.40722107887268	fix_post	2		12.0	61.0	2.5	/experiments/knapen_aot/oldvideos/R_S_yt-CEQnXB0LxQU_278.mp4	0.0	232.5189061164856	0.09987998008728027
64	173.50710105895996	fix_pre	0		9.0	62.0	2.5	blank	1.0	232.61878609657288	0.07499504089355469
64	173.57386994361877	response	0	4		62.0	2.5	blank	1.0	232.6855549812317	
64	173.58209609985352	movie	1		301.0	62.0	2.5	blank	1.0	232.69378113746643	2.508344888687134
64	176.09044098854065	fix_post	2		12.0	62.0	2.5	blank	1.0	235.20212602615356	0.09993290901184082
65	176.1903738975525	fix_pre	0		13.0	63.0	2.5	/experiments/knapen_aot/oldvideos/R_S_Y011_C001_SDR_2K_AVC.mp4	0.0	235.3020589351654	0.1083521842956543
65	176.29049706459045	response	0	4		63.0	2.5	/experiments/knapen_aot/oldvideos/R_S_Y011_C001_SDR_2K_AVC.mp4	0.0	235.40218210220337	
65	176.29872608184814	movie	1		176.0	63.0	2.5	/experiments/knapen_aot/oldvideos/R_S_Y011_C001_SDR_2K_AVC.mp4	0.0	235.41041111946106	2.508471965789795
65	176.4896960258484	response	1	2		63.0	2.5	/experiments/knapen_aot/oldvideos/R_S_Y011_C001_SDR_2K_AVC.mp4	0.0	235.6013810634613	
65	178.80719804763794	fix_post	2		12.0	63.0	2.5	/experiments/knapen_aot/oldvideos/R_S_Y011_C001_SDR_2K_AVC.mp4	0.0	237.91888308525085	0.09996604919433594
65	178.82450199127197	response	2	4		63.0	2.5	/experiments/knapen_aot/oldvideos/R_S_Y011_C001_SDR_2K_AVC.mp4	0.0	237.9361870288849	
66	178.90716409683228	fix_pre	0		36.0	64.0	2.5	/experiments/knapen_aot/oldvideos/S_yt-dQRqGgpS9mE_288.mp4	0.0	238.0188491344452	0.2998988628387451
66	179.1987659931183	response	0	4		64.0	2.5	/experiments/knapen_aot/oldvideos/S_yt-dQRqGgpS9mE_288.mp4	0.0	238.3104510307312	
66	179.20706295967102	movie	1		301.0	64.0	2.5	/experiments/knapen_aot/oldvideos/S_yt-dQRqGgpS9mE_288.mp4	0.0	238.31874799728394	2.5083539485931396
66	181.71541690826416	fix_post	2		12.0	64.0	2.5	/experiments/knapen_aot/oldvideos/S_yt-dQRqGgpS9mE_288.mp4	0.0	240.82710194587708	0.09999918937683105
67	181.815416097641	fix_pre	0		9.0	65.0	2.5	/experiments/knapen_aot/oldvideos/S_yt-RKo978aBdzw_173.mp4	0.0	240.9271011352539	0.0749509334564209
67	181.8821349143982	response	0	4		65.0	2.5	/experiments/knapen_aot/oldvideos/S_yt-RKo978aBdzw_173.mp4	0.0	240.9938199520111	
67	181.8903670310974	movie	1		301.0	65.0	2.5	/experiments/knapen_aot/oldvideos/S_yt-RKo978aBdzw_173.mp4	0.0	241.00205206871033	2.508417844772339
67	184.39878487586975	fix_post	2		12.0	65.0	2.5	/experiments/knapen_aot/oldvideos/S_yt-RKo978aBdzw_173.mp4	0.0	243.51046991348267	0.09993600845336914
68	184.49872088432312	fix_pre	0		7.0	66.0	2.5	/experiments/knapen_aot/oldvideos/S_yt-he_RSdeVinA_68.mp4	0.0	243.61040592193604	0.05833911895751953
68	184.5487859249115	response	0	4		66.0	2.5	/experiments/knapen_aot/oldvideos/S_yt-he_RSdeVinA_68.mp4	0.0	243.6604709625244	
68	184.55706000328064	movie	1		301.0	66.0	2.5	/experiments/knapen_aot/oldvideos/S_yt-he_RSdeVinA_68.mp4	0.0	243.66874504089355	2.5084710121154785
68	187.06553101539612	fix_post	2		12.0	66.0	2.5	/experiments/knapen_aot/oldvideos/S_yt-he_RSdeVinA_68.mp4	0.0	246.17721605300903	0.09981298446655273
69	187.16534399986267	fix_pre	0		25.0	67.0	2.5	/experiments/knapen_aot/oldvideos/R_S_yt-RKo978aBdzw_173.mp4	0.0	246.2770290374756	0.20829391479492188
69	187.36562490463257	response	0	4		67.0	2.5	/experiments/knapen_aot/oldvideos/R_S_yt-RKo978aBdzw_173.mp4	0.0	246.47730994224548	
69	187.3736379146576	movie	1		301.0	67.0	2.5	/experiments/knapen_aot/oldvideos/R_S_yt-RKo978aBdzw_173.mp4	0.0	246.4853229522705	2.5083911418914795
69	189.88202905654907	fix_post	2		12.0	67.0	2.5	/experiments/knapen_aot/oldvideos/R_S_yt-RKo978aBdzw_173.mp4	0.0	248.993714094162	0.09995603561401367
70	189.9819850921631	fix_pre	0		3.0	68.0	2.5	/experiments/knapen_aot/oldvideos/R_S_yt-STL3ejY9u_Q_73.mp4	0.0	249.093670129776	0.025007963180541992
70	189.99872493743896	response	0	4		68.0	2.5	/experiments/knapen_aot/oldvideos/R_S_yt-STL3ejY9u_Q_73.mp4	0.0	249.11040997505188	
70	190.00699305534363	movie	1		301.0	68.0	2.5	/experiments/knapen_aot/oldvideos/R_S_yt-STL3ejY9u_Q_73.mp4	0.0	249.11867809295654	2.508380889892578
70	192.44870710372925	response	1	4		68.0	2.5	/experiments/knapen_aot/oldvideos/R_S_yt-STL3ejY9u_Q_73.mp4	0.0	251.56039214134216	
70	192.5153739452362	fix_post	2		12.0	68.0	2.5	/experiments/knapen_aot/oldvideos/R_S_yt-STL3ejY9u_Q_73.mp4	0.0	251.62705898284912	0.09992313385009766
71	192.6152970790863	fix_pre	0		16.0	69.0	2.5	/experiments/knapen_aot/oldvideos/S_yt-d5jBQ-LOW2I_17.mp4	0.0	251.72698211669922	0.13332486152648926
71	192.7403919696808	response	0	4		69.0	2.5	/experiments/knapen_aot/oldvideos/S_yt-d5jBQ-LOW2I_17.mp4	0.0	251.8520770072937	
71	192.7486219406128	movie	1		301.0	69.0	2.5	/experiments/knapen_aot/oldvideos/S_yt-d5jBQ-LOW2I_17.mp4	0.0	251.8603069782257	2.5083279609680176
71	195.2569499015808	fix_post	2		12.0	69.0	2.5	/experiments/knapen_aot/oldvideos/S_yt-d5jBQ-LOW2I_17.mp4	0.0	254.36863493919373	0.10009098052978516
72	195.3570408821106	fix_pre	0		29.0	70.0	2.5	blank	1.0	254.4687259197235	0.24155402183532715
72	195.59037590026855	response	0	4		70.0	2.5	blank	1.0	254.70206093788147	
72	195.59859490394592	movie	1		301.0	70.0	2.5	blank	1.0	254.71027994155884	2.508413076400757
72	198.10700798034668	fix_post	2		12.0	70.0	2.5	blank	1.0	257.2186930179596	0.09996795654296875
73	198.20697593688965	fix_pre	0		25.0	71.0	2.5	/experiments/knapen_aot/oldvideos/R_S_bing-www_nbcnews_com_storyline_isis-terror_fall-isis-stronghold-raqqa-will-change-war-extremists-not-end-n808621_86.mp4	0.0	257.31866097450256	0.20833897590637207
73	198.40706706047058	response	0	4		71.0	2.5	/experiments/knapen_aot/oldvideos/R_S_bing-www_nbcnews_com_storyline_isis-terror_fall-isis-stronghold-raqqa-will-change-war-extremists-not-end-n808621_86.mp4	0.0	257.5187520980835	
73	198.41531491279602	movie	1		162.0	71.0	2.5	/experiments/knapen_aot/oldvideos/R_S_bing-www_nbcnews_com_storyline_isis-terror_fall-isis-stronghold-raqqa-will-change-war-extremists-not-end-n808621_86.mp4	0.0	257.52699995040894	2.5082271099090576
73	200.92354202270508	fix_post	2		12.0	71.0	2.5	/experiments/knapen_aot/oldvideos/R_S_bing-www_nbcnews_com_storyline_isis-terror_fall-isis-stronghold-raqqa-will-change-war-extremists-not-end-n808621_86.mp4	0.0	260.035227060318	0.1000669002532959
74	201.02360892295837	fix_pre	0		2.0	72.0	2.5	/experiments/knapen_aot/oldvideos/S_ILSVRC2015_train_00572000.mp4	0.0	260.1352939605713	0.016690969467163086
74	201.0320439338684	response	0	4		72.0	2.5	/experiments/knapen_aot/oldvideos/S_ILSVRC2015_train_00572000.mp4	0.0	260.1437289714813	
74	201.04029989242554	movie	1		301.0	72.0	2.5	/experiments/knapen_aot/oldvideos/S_ILSVRC2015_train_00572000.mp4	0.0	260.15198493003845	2.5085229873657227
74	203.54882287979126	fix_post	2		12.0	72.0	2.5	/experiments/knapen_aot/oldvideos/S_ILSVRC2015_train_00572000.mp4	0.0	262.6605079174042	0.09979605674743652
75	203.6486189365387	fix_pre	0		19.0	73.0	2.5	/experiments/knapen_aot/oldvideos/R_S_yt-BqJHT4K7Qf8_127.mp4	0.0	262.7603039741516	0.15827608108520508
75	203.79873991012573	response	0	4		73.0	2.5	/experiments/knapen_aot/oldvideos/R_S_yt-BqJHT4K7Qf8_127.mp4	0.0	262.91042494773865	
75	203.8068950176239	movie	1		301.0	73.0	2.5	/experiments/knapen_aot/oldvideos/R_S_yt-BqJHT4K7Qf8_127.mp4	0.0	262.9185800552368	2.508380889892578
75	206.31527590751648	fix_post	2		12.0	73.0	2.5	/experiments/knapen_aot/oldvideos/R_S_yt-BqJHT4K7Qf8_127.mp4	0.0	265.4269609451294	0.0999751091003418
76	206.41525101661682	fix_pre	0		13.0	74.0	2.5	/experiments/knapen_aot/oldvideos/S_ILSVRC2015_train_00594000.mp4	0.0	265.52693605422974	0.10821104049682617
76	206.5153350830078	response	0	4		74.0	2.5	/experiments/knapen_aot/oldvideos/S_ILSVRC2015_train_00594000.mp4	0.0	265.6270201206207	
76	206.52346205711365	movie	1		301.0	74.0	2.5	/experiments/knapen_aot/oldvideos/S_ILSVRC2015_train_00594000.mp4	0.0	265.63514709472656	2.5084259510040283
76	209.03188800811768	fix_post	2		12.0	74.0	2.5	/experiments/knapen_aot/oldvideos/S_ILSVRC2015_train_00594000.mp4	0.0	268.1435730457306	0.10000896453857422
77	209.13189697265625	fix_pre	0		10.0	75.0	2.5	/experiments/knapen_aot/oldvideos/S_yt-V4ptcLegCiw_161.mp4	0.0	268.24358201026917	0.08325505256652832
77	209.2069709300995	response	0	4		75.0	2.5	/experiments/knapen_aot/oldvideos/S_yt-V4ptcLegCiw_161.mp4	0.0	268.3186559677124	
77	209.21515202522278	movie	1		301.0	75.0	2.5	/experiments/knapen_aot/oldvideos/S_yt-V4ptcLegCiw_161.mp4	0.0	268.3268370628357	2.5084400177001953
77	211.72359204292297	fix_post	2		12.0	75.0	2.5	/experiments/knapen_aot/oldvideos/S_yt-V4ptcLegCiw_161.mp4	0.0	270.8352770805359	0.09994888305664062
78	211.82354092597961	fix_pre	0		18.0	76.0	2.5	/experiments/knapen_aot/oldvideos/S_yt-M_ApPnq00iE_67.mp4	0.0	270.93522596359253	0.14996910095214844
78	211.96534609794617	response	0	4		76.0	2.5	/experiments/knapen_aot/oldvideos/S_yt-M_ApPnq00iE_67.mp4	0.0	271.0770311355591	
78	211.97351002693176	movie	1		301.0	76.0	2.5	/experiments/knapen_aot/oldvideos/S_yt-M_ApPnq00iE_67.mp4	0.0	271.0851950645447	2.5083460807800293
78	214.4818561077118	fix_post	2		12.0	76.0	2.5	/experiments/knapen_aot/oldvideos/S_yt-M_ApPnq00iE_67.mp4	0.0	273.5935411453247	0.10000991821289062
79	214.58186602592468	fix_pre	0		31.0	77.0	2.5	blank	1.0	273.6935510635376	0.2582559585571289
79	214.82447409629822	response	0	4		77.0	2.5	blank	1.0	273.93615913391113	
79	214.8401219844818	movie	1		301.0	77.0	2.5	blank	1.0	273.9518070220947	2.508366107940674
79	217.34848809242249	fix_post	2		12.0	77.0	2.5	blank	1.0	276.4601731300354	0.10004782676696777
80	217.44853591918945	fix_pre	0		19.0	78.0	2.5	/experiments/knapen_aot/oldvideos/R_S_yt-RKo978aBdzw_173.mp4	0.0	276.56022095680237	0.15824198722839355
80	217.59865498542786	response	0	4		78.0	2.5	/experiments/knapen_aot/oldvideos/R_S_yt-RKo978aBdzw_173.mp4	0.0	276.71034002304077	
80	217.60677790641785	movie	1		301.0	78.0	2.5	/experiments/knapen_aot/oldvideos/R_S_yt-RKo978aBdzw_173.mp4	0.0	276.71846294403076	2.5083870887756348
80	220.11516499519348	fix_post	2		12.0	78.0	2.5	/experiments/knapen_aot/oldvideos/R_S_yt-RKo978aBdzw_173.mp4	0.0	279.2268500328064	0.09999990463256836
81	220.21516489982605	fix_pre	0		12.0	79.0	2.5	/experiments/knapen_aot/oldvideos/R_S_yt-PaxmJhMoP3w_87.mp4	0.0	279.32684993743896	0.10001516342163086
81	220.30693006515503	response	0	4		79.0	2.5	/experiments/knapen_aot/oldvideos/R_S_yt-PaxmJhMoP3w_87.mp4	0.0	279.41861510276794	
81	220.31518006324768	movie	1		301.0	79.0	2.5	/experiments/knapen_aot/oldvideos/R_S_yt-PaxmJhMoP3w_87.mp4	0.0	279.4268651008606	2.5083439350128174
81	222.8235239982605	fix_post	2		12.0	79.0	2.5	/experiments/knapen_aot/oldvideos/R_S_yt-PaxmJhMoP3w_87.mp4	0.0	281.9352090358734	0.0999290943145752
82	222.92345309257507	fix_pre	0		10.0	80.0	2.5	/experiments/knapen_aot/oldvideos/S_yt-Ja7d2a6e5xE_279.mp4	0.0	282.035138130188	0.08336281776428223
82	222.99851202964783	response	0	4		80.0	2.5	/experiments/knapen_aot/oldvideos/S_yt-Ja7d2a6e5xE_279.mp4	0.0	282.11019706726074	
82	223.00681591033936	movie	1		301.0	80.0	2.5	/experiments/knapen_aot/oldvideos/S_yt-Ja7d2a6e5xE_279.mp4	0.0	282.11850094795227	2.508455991744995
82	225.51527190208435	fix_post	2		12.0	80.0	2.5	/experiments/knapen_aot/oldvideos/S_yt-Ja7d2a6e5xE_279.mp4	0.0	284.62695693969727	0.10011410713195801
83	225.6153860092163	fix_pre	0		10.0	81.0	2.5	/experiments/knapen_aot/oldvideos/R_S_yt-fk-z6WCvjjA_3.mp4	0.0	284.7270710468292	0.08306407928466797
83	225.690358877182	response	0	4		81.0	2.5	/experiments/knapen_aot/oldvideos/R_S_yt-fk-z6WCvjjA_3.mp4	0.0	284.8020439147949	
83	225.69845008850098	movie	1		301.0	81.0	2.5	/experiments/knapen_aot/oldvideos/R_S_yt-fk-z6WCvjjA_3.mp4	0.0	284.8101351261139	2.508382797241211
83	228.2068328857422	fix_post	2		12.0	81.0	2.5	/experiments/knapen_aot/oldvideos/R_S_yt-fk-z6WCvjjA_3.mp4	0.0	287.3185179233551	0.09995818138122559
84	228.3067910671234	fix_pre	0		12.0	82.0	2.5	blank	1.0	287.4184761047363	0.10001683235168457
84	228.39104008674622	response	0	4		82.0	2.5	blank	1.0	287.50272512435913	
84	228.4068078994751	movie	1		301.0	82.0	2.5	blank	1.0	287.518492937088	2.508244037628174
84	230.91505193710327	fix_post	2		12.0	82.0	2.5	blank	1.0	290.0267369747162	0.10005497932434082
85	231.0151069164276	fix_pre	0		21.0	83.0	2.5	/experiments/knapen_aot/oldvideos/S_Person_Going_Through_A_Bible.mp4	0.0	290.1267919540405	0.17623305320739746
85	231.18188095092773	response	0	4		83.0	2.5	/experiments/knapen_aot/oldvideos/S_Person_Going_Through_A_Bible.mp4	0.0	290.29356598854065	
85	231.191339969635	movie	1		166.0	83.0	2.5	/experiments/knapen_aot/oldvideos/S_Person_Going_Through_A_Bible.mp4	0.0	290.3030250072479	2.5070979595184326
85	233.69843792915344	fix_post	2		12.0	83.0	2.5	/experiments/knapen_aot/oldvideos/S_Person_Going_Through_A_Bible.mp4	0.0	292.81012296676636	0.10001301765441895
85	233.78190803527832	response	2	4		83.0	2.5	/experiments/knapen_aot/oldvideos/S_Person_Going_Through_A_Bible.mp4	0.0	292.89359307289124	
87	233.79845094680786	stim	0		301.0					292.9101359844208	2.5108349323272705
87	234.04021501541138	response	0	2						293.1519000530243	
87	236.30205297470093	response	0	space						295.41373801231384	
