trial_nr	onset	event_type	phase	response	nr_frames	movie_index	movie_duration	movie_file	blank	onset_abs	duration
0	0.12497401237487793	stim	0		31.0					156.68026614189148	0.26113295555114746
0	0.367872953414917	response	0	space						156.92316508293152	
1	0.3861069679260254	stim	0		121.0					156.94139909744263	1.0053460597991943
1	1.3914530277252197	stim	1		120.0					157.94674515724182	0.9999070167541504
1	2.1499099731445312	response	1	space						158.70520210266113	
2	2.39136004447937	fix_pre	0		43.0	0.0	2.5	/experiments/knapen_aot/videos/S_yt-N7ztk2fa3Ls_137.mp4	0.0	158.94665217399597	0.35832691192626953
2	2.741426944732666	response	0	space		0.0	2.5	/experiments/knapen_aot/videos/S_yt-N7ztk2fa3Ls_137.mp4	0.0	159.29671907424927	
2	2.7496869564056396	movie	1		300.0	0.0	2.5	/experiments/knapen_aot/videos/S_yt-N7ztk2fa3Ls_137.mp4	0.0	159.30497908592224	2.5083940029144287
2	5.258080959320068	fix_post	2		12.0	0.0	2.5	/experiments/knapen_aot/videos/S_yt-N7ztk2fa3Ls_137.mp4	0.0	161.81337308883667	0.09995198249816895
2	5.353013038635254	response	2	2		0.0	2.5	/experiments/knapen_aot/videos/S_yt-N7ztk2fa3Ls_137.mp4	0.0	161.90830516815186	
3	5.358032941818237	fix_pre	0		38.0	1.0	2.5	/experiments/knapen_aot/videos/S_comp_H004_C007_PS_v02_SDR_PS_20180925_SDR_2K_AVC.mp4	0.0	161.91332507133484	0.31668591499328613
3	5.666492938995361	response	0	2		1.0	2.5	/experiments/knapen_aot/videos/S_comp_H004_C007_PS_v02_SDR_PS_20180925_SDR_2K_AVC.mp4	0.0	162.22178506851196	
3	5.674718856811523	movie	1		166.0	1.0	2.5	/experiments/knapen_aot/videos/S_comp_H004_C007_PS_v02_SDR_PS_20180925_SDR_2K_AVC.mp4	0.0	162.23001098632812	2.5082881450653076
3	8.183007001876831	fix_post	2		12.0	1.0	2.5	/experiments/knapen_aot/videos/S_comp_H004_C007_PS_v02_SDR_PS_20180925_SDR_2K_AVC.mp4	0.0	164.73829913139343	0.09999394416809082
4	8.283000946044922	fix_pre	0		13.0	2.0	2.5	/experiments/knapen_aot/videos/S_production_ID_5199636.mp4	0.0	164.83829307556152	0.10936403274536133
4	8.383065938949585	response	0	2		2.0	2.5	/experiments/knapen_aot/videos/S_production_ID_5199636.mp4	0.0	164.9383580684662	
4	8.392364978790283	movie	1		173.0	2.0	2.5	/experiments/knapen_aot/videos/S_production_ID_5199636.mp4	0.0	164.94765710830688	2.507222890853882
4	10.899587869644165	fix_post	2		12.0	2.0	2.5	/experiments/knapen_aot/videos/S_production_ID_5199636.mp4	0.0	167.45487999916077	0.10008502006530762
5	10.999672889709473	fix_pre	0		5.0	3.0	2.5	/experiments/knapen_aot/videos/S_yt-VQtbKGzI9SE_431.mp4	0.0	167.55496501922607	0.041686058044433594
5	11.0331289768219	response	0	2		3.0	2.5	/experiments/knapen_aot/videos/S_yt-VQtbKGzI9SE_431.mp4	0.0	167.5884211063385	
5	11.041358947753906	movie	1		301.0	3.0	2.5	/experiments/knapen_aot/videos/S_yt-VQtbKGzI9SE_431.mp4	0.0	167.5966510772705	2.5083200931549072
5	13.549679040908813	fix_post	2		12.0	3.0	2.5	/experiments/knapen_aot/videos/S_yt-VQtbKGzI9SE_431.mp4	0.0	170.10497117042542	0.09998297691345215
5	13.6163489818573	response	2	2		3.0	2.5	/experiments/knapen_aot/videos/S_yt-VQtbKGzI9SE_431.mp4	0.0	170.1716411113739	
6	13.649662017822266	fix_pre	0		44.0	4.0	2.5	/experiments/knapen_aot/videos/S_yt-icd9UxxxeW0_255.mp4	0.0	170.20495414733887	0.36762189865112305
6	14.008079051971436	response	0	2		4.0	2.5	/experiments/knapen_aot/videos/S_yt-icd9UxxxeW0_255.mp4	0.0	170.56337118148804	
6	14.017283916473389	movie	1		301.0	4.0	2.5	/experiments/knapen_aot/videos/S_yt-icd9UxxxeW0_255.mp4	0.0	170.57257604599	2.5072860717773438
6	16.524569988250732	fix_post	2		12.0	4.0	2.5	/experiments/knapen_aot/videos/S_yt-icd9UxxxeW0_255.mp4	0.0	173.07986211776733	0.10001707077026367
7	16.624587059020996	fix_pre	0		12.0	5.0	2.5	/experiments/knapen_aot/videos/S_comp_GL_G004_C010_PSNK_v04_SDR_PS_FINAL_20180709_SDR_2K_AVC.mp4	0.0	173.1798791885376	0.10097193717956543
7	16.716409921646118	response	0	2		5.0	2.5	/experiments/knapen_aot/videos/S_comp_GL_G004_C010_PSNK_v04_SDR_PS_FINAL_20180709_SDR_2K_AVC.mp4	0.0	173.27170205116272	
7	16.72555899620056	movie	1		170.0	5.0	2.5	/experiments/knapen_aot/videos/S_comp_GL_G004_C010_PSNK_v04_SDR_PS_FINAL_20180709_SDR_2K_AVC.mp4	0.0	173.28085112571716	2.5074288845062256
7	19.232987880706787	fix_post	2		12.0	5.0	2.5	/experiments/knapen_aot/videos/S_comp_GL_G004_C010_PSNK_v04_SDR_PS_FINAL_20180709_SDR_2K_AVC.mp4	0.0	175.7882800102234	0.09996199607849121
7	19.24141502380371	response	2	2		5.0	2.5	/experiments/knapen_aot/videos/S_comp_GL_G004_C010_PSNK_v04_SDR_PS_FINAL_20180709_SDR_2K_AVC.mp4	0.0	175.7967071533203	
8	19.33294987678528	fix_pre	0		36.0	6.0	2.5	/experiments/knapen_aot/videos/R_S_yt-O6FS0xnF0CU_106.mp4	0.0	175.88824200630188	0.2999691963195801
8	19.6246280670166	response	0	2		6.0	2.5	/experiments/knapen_aot/videos/R_S_yt-O6FS0xnF0CU_106.mp4	0.0	176.1799201965332	
8	19.63291907310486	movie	1		301.0	6.0	2.5	/experiments/knapen_aot/videos/R_S_yt-O6FS0xnF0CU_106.mp4	0.0	176.18821120262146	2.5084547996520996
8	22.141373872756958	fix_post	2		12.0	6.0	2.5	/experiments/knapen_aot/videos/R_S_yt-O6FS0xnF0CU_106.mp4	0.0	178.69666600227356	0.09992814064025879
9	22.241302013397217	fix_pre	0		5.0	7.0	2.5	blank	1.0	178.79659414291382	0.041578054428100586
9	22.27472996711731	response	0	2		7.0	2.5	blank	1.0	178.8300220966339	
9	22.282880067825317	movie	1		301.0	7.0	2.5	blank	1.0	178.83817219734192	2.508380889892578
9	24.791260957717896	fix_post	2		12.0	7.0	2.5	blank	1.0	181.3465530872345	0.1001279354095459
10	24.89138889312744	fix_pre	0		14.0	8.0	2.5	/experiments/knapen_aot/videos/R_S_yt-IC62JSYpq9w_71.mp4	0.0	181.44668102264404	0.11647605895996094
10	24.9996919631958	response	0	2		8.0	2.5	/experiments/knapen_aot/videos/R_S_yt-IC62JSYpq9w_71.mp4	0.0	181.5549840927124	
10	25.007864952087402	movie	1		301.0	8.0	2.5	/experiments/knapen_aot/videos/R_S_yt-IC62JSYpq9w_71.mp4	0.0	181.563157081604	2.5083351135253906
10	27.516200065612793	fix_post	2		12.0	8.0	2.5	/experiments/knapen_aot/videos/R_S_yt-IC62JSYpq9w_71.mp4	0.0	184.0714921951294	0.10006499290466309
11	27.616265058517456	fix_pre	0		21.0	9.0	2.5	/experiments/knapen_aot/videos/R_S_yt-HRuCkU_kBoE_239.mp4	0.0	184.17155718803406	0.17491483688354492
11	27.78302788734436	response	0	2		9.0	2.5	/experiments/knapen_aot/videos/R_S_yt-HRuCkU_kBoE_239.mp4	0.0	184.33832001686096	
11	27.791179895401	movie	1		301.0	9.0	2.5	/experiments/knapen_aot/videos/R_S_yt-HRuCkU_kBoE_239.mp4	0.0	184.3464720249176	2.5084030628204346
11	30.299582958221436	fix_post	2		12.0	9.0	2.5	/experiments/knapen_aot/videos/R_S_yt-HRuCkU_kBoE_239.mp4	0.0	186.85487508773804	0.1000370979309082
12	30.399620056152344	fix_pre	0		2.0	10.0	2.5	/experiments/knapen_aot/videos/S_yt-n1snPiGfg0A_45.mp4	0.0	186.95491218566895	0.016592025756835938
12	30.40802502632141	response	0	2		10.0	2.5	/experiments/knapen_aot/videos/S_yt-n1snPiGfg0A_45.mp4	0.0	186.963317155838	
12	30.41621208190918	movie	1		301.0	10.0	2.5	/experiments/knapen_aot/videos/S_yt-n1snPiGfg0A_45.mp4	0.0	186.97150421142578	2.5083699226379395
12	32.92458200454712	fix_post	2		12.0	10.0	2.5	/experiments/knapen_aot/videos/S_yt-n1snPiGfg0A_45.mp4	0.0	189.47987413406372	0.09999394416809082
13	33.02457594871521	fix_pre	0		9.0	11.0	2.5	/experiments/knapen_aot/videos/R_S_yt-AOP7QYQntPI_28.mp4	0.0	189.5798680782318	0.07591795921325684
13	33.083853006362915	response	0	2		11.0	2.5	/experiments/knapen_aot/videos/R_S_yt-AOP7QYQntPI_28.mp4	0.0	189.63914513587952	
13	33.10049390792847	movie	1		301.0	11.0	2.5	/experiments/knapen_aot/videos/R_S_yt-AOP7QYQntPI_28.mp4	0.0	189.65578603744507	2.5073599815368652
13	35.60785388946533	fix_post	2		11.0	11.0	2.5	/experiments/knapen_aot/videos/R_S_yt-AOP7QYQntPI_28.mp4	0.0	192.16314601898193	0.0917050838470459
13	35.69133901596069	response	2	2		11.0	2.5	/experiments/knapen_aot/videos/R_S_yt-AOP7QYQntPI_28.mp4	0.0	192.2466311454773	
14	35.69955897331238	fix_pre	0		41.0	12.0	2.5	/experiments/knapen_aot/videos/S_ILSVRC2015_train_00682005.mp4	0.0	192.25485110282898	0.34159302711486816
14	36.03298306465149	response	0	2		12.0	2.5	/experiments/knapen_aot/videos/S_ILSVRC2015_train_00682005.mp4	0.0	192.5882751941681	
14	36.041152000427246	movie	1		301.0	12.0	2.5	/experiments/knapen_aot/videos/S_ILSVRC2015_train_00682005.mp4	0.0	192.59644412994385	2.5083999633789062
14	38.54955196380615	fix_post	2		12.0	12.0	2.5	/experiments/knapen_aot/videos/S_ILSVRC2015_train_00682005.mp4	0.0	195.10484409332275	0.09998798370361328
15	38.649539947509766	fix_pre	0		5.0	13.0	2.5	blank	1.0	195.20483207702637	0.041676998138427734
15	38.6830370426178	response	0	2		13.0	2.5	blank	1.0	195.2383291721344	
15	38.69121694564819	movie	1		301.0	13.0	2.5	blank	1.0	195.2465090751648	2.5083401203155518
15	41.199557065963745	fix_post	2		12.0	13.0	2.5	blank	1.0	197.75484919548035	0.09996390342712402
16	41.29952096939087	fix_pre	0		59.0	14.0	2.5	/experiments/knapen_aot/videos/R_S_yt-rbJOb1spY9M_16.mp4	0.0	197.85481309890747	0.49163103103637695
16	41.78299689292908	response	0	2		14.0	2.5	/experiments/knapen_aot/videos/R_S_yt-rbJOb1spY9M_16.mp4	0.0	198.33828902244568	
16	41.791152000427246	movie	1		301.0	14.0	2.5	/experiments/knapen_aot/videos/R_S_yt-rbJOb1spY9M_16.mp4	0.0	198.34644412994385	2.5082828998565674
16	44.29943490028381	fix_post	2		12.0	14.0	2.5	/experiments/knapen_aot/videos/R_S_yt-rbJOb1spY9M_16.mp4	0.0	200.85472702980042	0.10010218620300293
17	44.399537086486816	fix_pre	0		3.0	15.0	2.5	/experiments/knapen_aot/videos/S_pexels-marcus-aurelius-6785014.mp4	0.0	200.95482921600342	0.02495288848876953
17	44.41639494895935	response	0	2		15.0	2.5	/experiments/knapen_aot/videos/S_pexels-marcus-aurelius-6785014.mp4	0.0	200.97168707847595	
17	44.424489974975586	movie	1		172.0	15.0	2.5	/experiments/knapen_aot/videos/S_pexels-marcus-aurelius-6785014.mp4	0.0	200.9797821044922	2.5083189010620117
17	46.9328088760376	fix_post	2		12.0	15.0	2.5	/experiments/knapen_aot/videos/S_pexels-marcus-aurelius-6785014.mp4	0.0	203.4881010055542	0.0999600887298584
18	47.032768964767456	fix_pre	0		10.0	16.0	2.5	/experiments/knapen_aot/videos/S_yt-GO26QIueqRw_385.mp4	0.0	203.58806109428406	0.08336806297302246
18	47.10784101486206	response	0	2		16.0	2.5	/experiments/knapen_aot/videos/S_yt-GO26QIueqRw_385.mp4	0.0	203.66313314437866	
18	47.11613702774048	movie	1		301.0	16.0	2.5	/experiments/knapen_aot/videos/S_yt-GO26QIueqRw_385.mp4	0.0	203.67142915725708	2.508352041244507
18	49.624489068984985	fix_post	2		12.0	16.0	2.5	/experiments/knapen_aot/videos/S_yt-GO26QIueqRw_385.mp4	0.0	206.1797811985016	0.10005998611450195
19	49.72454905509949	fix_pre	0		5.0	17.0	2.5	/experiments/knapen_aot/videos/R_S_ILSVRC2015_train_00708000.mp4	0.0	206.2798411846161	0.04240989685058594
19	49.7579619884491	response	0	2		17.0	2.5	/experiments/knapen_aot/videos/R_S_ILSVRC2015_train_00708000.mp4	0.0	206.3132541179657	
19	49.76695895195007	movie	1		301.0	17.0	2.5	/experiments/knapen_aot/videos/R_S_ILSVRC2015_train_00708000.mp4	0.0	206.32225108146667	2.507542133331299
19	52.27450108528137	fix_post	2		12.0	17.0	2.5	/experiments/knapen_aot/videos/R_S_ILSVRC2015_train_00708000.mp4	0.0	208.82979321479797	0.09996891021728516
20	52.37446999549866	fix_pre	0		27.0	18.0	2.5	/experiments/knapen_aot/videos/S_production_ID_4835060.mp4	0.0	208.92976212501526	0.22576689720153809
20	52.58368492126465	response	0	2		18.0	2.5	/experiments/knapen_aot/videos/S_production_ID_4835060.mp4	0.0	209.13897705078125	
20	52.600236892700195	movie	1		177.0	18.0	2.5	/experiments/knapen_aot/videos/S_production_ID_4835060.mp4	0.0	209.1555290222168	2.507554054260254
20	55.10779094696045	fix_post	2		12.0	18.0	2.5	/experiments/knapen_aot/videos/S_production_ID_4835060.mp4	0.0	211.66308307647705	0.09999299049377441
21	55.207783937454224	fix_pre	0		1.0	19.0	2.5	/experiments/knapen_aot/videos/S_yt-qurTr1BJMec_244.mp4	0.0	211.76307606697083	0.010499954223632812
21	55.20935106277466	response	0	2		19.0	2.5	/experiments/knapen_aot/videos/S_yt-qurTr1BJMec_244.mp4	0.0	211.76464319229126	
21	55.218283891677856	movie	1		301.0	19.0	2.5	/experiments/knapen_aot/videos/S_yt-qurTr1BJMec_244.mp4	0.0	211.77357602119446	2.5062031745910645
21	57.72448706626892	fix_post	2		12.0	19.0	2.5	/experiments/knapen_aot/videos/S_yt-qurTr1BJMec_244.mp4	0.0	214.27977919578552	0.09999299049377441
22	57.824480056762695	fix_pre	0		100.0	20.0	2.5	/experiments/knapen_aot/videos/S_yt-LZS1RrEtTeQ_136.mp4	0.0	214.3797721862793	0.8332748413085938
22	58.649555921554565	response	0	2		20.0	2.5	/experiments/knapen_aot/videos/S_yt-LZS1RrEtTeQ_136.mp4	0.0	215.20484805107117	
22	58.65775489807129	movie	1		300.0	20.0	2.5	/experiments/knapen_aot/videos/S_yt-LZS1RrEtTeQ_136.mp4	0.0	215.2130470275879	2.5086441040039062
22	61.166399002075195	fix_post	2		12.0	20.0	2.5	/experiments/knapen_aot/videos/S_yt-LZS1RrEtTeQ_136.mp4	0.0	217.7216911315918	0.09975790977478027
23	61.266156911849976	fix_pre	0		17.0	21.0	2.5	blank	1.0	217.82144904136658	0.14159297943115234
23	61.39951992034912	response	0	2		21.0	2.5	blank	1.0	217.95481204986572	
23	61.40774989128113	movie	1		301.0	21.0	2.5	blank	1.0	217.96304202079773	2.508754014968872
23	63.91650390625	fix_post	2		12.0	21.0	2.5	blank	1.0	220.4717960357666	0.09953999519348145
24	64.01604390144348	fix_pre	0		26.0	22.0	2.5	/experiments/knapen_aot/videos/S_yt-F3hhts3bwWg_25.mp4	0.0	220.57133603096008	0.2167069911956787
24	64.22443795204163	response	0	2		22.0	2.5	/experiments/knapen_aot/videos/S_yt-F3hhts3bwWg_25.mp4	0.0	220.77973008155823	
24	64.23275089263916	movie	1		301.0	22.0	2.5	/experiments/knapen_aot/videos/S_yt-F3hhts3bwWg_25.mp4	0.0	220.78804302215576	2.5083250999450684
24	66.74107599258423	fix_post	2		12.0	22.0	2.5	/experiments/knapen_aot/videos/S_yt-F3hhts3bwWg_25.mp4	0.0	223.29636812210083	0.1000220775604248
25	66.84109807014465	fix_pre	0		9.0	23.0	2.5	/experiments/knapen_aot/videos/S_ILSVRC2015_train_00654000.mp4	0.0	223.39639019966125	0.07490181922912598
25	66.90788102149963	response	0	2		23.0	2.5	/experiments/knapen_aot/videos/S_ILSVRC2015_train_00654000.mp4	0.0	223.46317315101624	
25	66.91599988937378	movie	1		301.0	23.0	2.5	/experiments/knapen_aot/videos/S_ILSVRC2015_train_00654000.mp4	0.0	223.47129201889038	2.5084240436553955
25	69.42442393302917	fix_post	2		12.0	23.0	2.5	/experiments/knapen_aot/videos/S_ILSVRC2015_train_00654000.mp4	0.0	225.97971606254578	0.1000051498413086
26	69.52442908287048	fix_pre	0		6.0	24.0	2.5	/experiments/knapen_aot/videos/S_yt-WFiEvQuOqqg_18.mp4	0.0	226.07972121238708	0.04993391036987305
26	69.56614589691162	response	0	2		24.0	2.5	/experiments/knapen_aot/videos/S_yt-WFiEvQuOqqg_18.mp4	0.0	226.12143802642822	
26	69.57436299324036	movie	1		301.0	24.0	2.5	/experiments/knapen_aot/videos/S_yt-WFiEvQuOqqg_18.mp4	0.0	226.12965512275696	2.5083439350128174
26	72.08270692825317	fix_post	2		12.0	24.0	2.5	/experiments/knapen_aot/videos/S_yt-WFiEvQuOqqg_18.mp4	0.0	228.63799905776978	0.10008811950683594
27	72.18279504776001	fix_pre	0		17.0	25.0	2.5	/experiments/knapen_aot/videos/R_S_yt-qurTr1BJMec_244.mp4	0.0	228.7380871772766	0.14156699180603027
27	72.31612586975098	response	0	2		25.0	2.5	/experiments/knapen_aot/videos/R_S_yt-qurTr1BJMec_244.mp4	0.0	228.87141799926758	
27	72.32436203956604	movie	1		301.0	25.0	2.5	/experiments/knapen_aot/videos/R_S_yt-qurTr1BJMec_244.mp4	0.0	228.87965416908264	2.508435010910034
27	74.83279705047607	fix_post	2		12.0	25.0	2.5	/experiments/knapen_aot/videos/R_S_yt-qurTr1BJMec_244.mp4	0.0	231.38808917999268	0.09991288185119629
28	74.93270993232727	fix_pre	0		39.0	26.0	2.5	blank	1.0	231.48800206184387	0.32497501373291016
28	75.24949789047241	response	0	2		26.0	2.5	blank	1.0	231.804790019989	
28	75.25768494606018	movie	1		301.0	26.0	2.5	blank	1.0	231.81297707557678	2.508355140686035
28	77.76604008674622	fix_post	2		12.0	26.0	2.5	blank	1.0	234.32133221626282	0.10000491142272949
29	77.86604499816895	fix_pre	0		18.0	27.0	2.5	/experiments/knapen_aot/videos/R_S_1y-EvnfGO9Y_70.mp4	0.0	234.42133712768555	0.15059494972229004
29	78.00778198242188	response	0	2		27.0	2.5	/experiments/knapen_aot/videos/R_S_1y-EvnfGO9Y_70.mp4	0.0	234.56307411193848	
29	78.01663994789124	movie	1		301.0	27.0	2.5	/experiments/knapen_aot/videos/R_S_1y-EvnfGO9Y_70.mp4	0.0	234.57193207740784	2.507775068283081
29	80.52441501617432	fix_post	2		12.0	27.0	2.5	/experiments/knapen_aot/videos/R_S_1y-EvnfGO9Y_70.mp4	0.0	237.07970714569092	0.1000368595123291
30	80.62445187568665	fix_pre	0		5.0	28.0	2.5	/experiments/knapen_aot/videos/S_yt-H-qQ0oE1kwM_6.mp4	0.0	237.17974400520325	0.041552066802978516
30	80.65784192085266	response	0	2		28.0	2.5	/experiments/knapen_aot/videos/S_yt-H-qQ0oE1kwM_6.mp4	0.0	237.21313405036926	
30	80.66600394248962	movie	1		301.0	28.0	2.5	/experiments/knapen_aot/videos/S_yt-H-qQ0oE1kwM_6.mp4	0.0	237.22129607200623	2.50832200050354
30	83.17432594299316	fix_post	2		12.0	28.0	2.5	/experiments/knapen_aot/videos/S_yt-H-qQ0oE1kwM_6.mp4	0.0	239.72961807250977	0.10000395774841309
31	83.27432990074158	fix_pre	0		38.0	29.0	2.5	/experiments/knapen_aot/videos/R_S_yt-zQnaVApUPH0_14.mp4	0.0	239.82962203025818	0.31664419174194336
31	83.58271789550781	response	0	2		29.0	2.5	/experiments/knapen_aot/videos/R_S_yt-zQnaVApUPH0_14.mp4	0.0	240.1380100250244	
31	83.59097409248352	movie	1		301.0	29.0	2.5	/experiments/knapen_aot/videos/R_S_yt-zQnaVApUPH0_14.mp4	0.0	240.14626622200012	2.508330821990967
31	86.09930491447449	fix_post	2		12.0	29.0	2.5	/experiments/knapen_aot/videos/R_S_yt-zQnaVApUPH0_14.mp4	0.0	242.6545970439911	0.09998917579650879
32	86.199294090271	fix_pre	0		10.0	30.0	2.5	/experiments/knapen_aot/videos/R_S_comp_A009_C001_010181A_v09_SDR_PS_FINAL_20180725_SDR_2K_AVC.mp4	0.0	242.7545862197876	0.08334088325500488
32	86.26692605018616	response	0	2		30.0	2.5	/experiments/knapen_aot/videos/R_S_comp_A009_C001_010181A_v09_SDR_PS_FINAL_20180725_SDR_2K_AVC.mp4	0.0	242.82221817970276	
32	86.282634973526	movie	1		166.0	30.0	2.5	/experiments/knapen_aot/videos/R_S_comp_A009_C001_010181A_v09_SDR_PS_FINAL_20180725_SDR_2K_AVC.mp4	0.0	242.8379271030426	2.5083320140838623
32	88.79096698760986	fix_post	2		12.0	30.0	2.5	/experiments/knapen_aot/videos/R_S_comp_A009_C001_010181A_v09_SDR_PS_FINAL_20180725_SDR_2K_AVC.mp4	0.0	245.34625911712646	0.1000680923461914
33	88.89103507995605	fix_pre	0		13.0	31.0	2.5	/experiments/knapen_aot/videos/S_yt-33PKaLVxDC4_2703.mp4	0.0	245.44632720947266	0.108245849609375
33	88.983726978302	response	0	2		31.0	2.5	/experiments/knapen_aot/videos/S_yt-33PKaLVxDC4_2703.mp4	0.0	245.5390191078186	
33	88.99928092956543	movie	1		301.0	31.0	2.5	/experiments/knapen_aot/videos/S_yt-33PKaLVxDC4_2703.mp4	0.0	245.55457305908203	2.5083770751953125
33	91.50765800476074	fix_post	2		12.0	31.0	2.5	/experiments/knapen_aot/videos/S_yt-33PKaLVxDC4_2703.mp4	0.0	248.06295013427734	0.09993100166320801
34	91.60758900642395	fix_pre	0		40.0	32.0	2.5	/experiments/knapen_aot/videos/R_S_yt-TZ107yBhXoA_1.mp4	0.0	248.16288113594055	0.33332085609436035
34	91.9328019618988	response	0	2		32.0	2.5	/experiments/knapen_aot/videos/R_S_yt-TZ107yBhXoA_1.mp4	0.0	248.4880940914154	
34	91.94090986251831	movie	1		301.0	32.0	2.5	/experiments/knapen_aot/videos/R_S_yt-TZ107yBhXoA_1.mp4	0.0	248.4962019920349	2.508327007293701
34	94.44923686981201	fix_post	2		12.0	32.0	2.5	/experiments/knapen_aot/videos/R_S_yt-TZ107yBhXoA_1.mp4	0.0	251.0045289993286	0.10013699531555176
35	94.54937386512756	fix_pre	0		19.0	33.0	2.5	/experiments/knapen_aot/videos/R_S_yt-qurTr1BJMec_244.mp4	0.0	251.10466599464417	0.15818214416503906
35	94.69942808151245	response	0	2		33.0	2.5	/experiments/knapen_aot/videos/R_S_yt-qurTr1BJMec_244.mp4	0.0	251.25472021102905	
35	94.7075560092926	movie	1		301.0	33.0	2.5	/experiments/knapen_aot/videos/R_S_yt-qurTr1BJMec_244.mp4	0.0	251.2628481388092	2.508362054824829
35	97.21591806411743	fix_post	2		12.0	33.0	2.5	/experiments/knapen_aot/videos/R_S_yt-qurTr1BJMec_244.mp4	0.0	253.77121019363403	0.10004782676696777
36	97.3159658908844	fix_pre	0		26.0	34.0	2.5	/experiments/knapen_aot/videos/S_yt-TSSPDwAQLXs_158.mp4	0.0	253.871258020401	0.21657514572143555
36	97.52432990074158	response	0	2		34.0	2.5	/experiments/knapen_aot/videos/S_yt-TSSPDwAQLXs_158.mp4	0.0	254.07962203025818	
36	97.53254103660583	movie	1		301.0	34.0	2.5	/experiments/knapen_aot/videos/S_yt-TSSPDwAQLXs_158.mp4	0.0	254.08783316612244	2.5084328651428223
36	100.04097390174866	fix_post	2		12.0	34.0	2.5	/experiments/knapen_aot/videos/S_yt-TSSPDwAQLXs_158.mp4	0.0	256.59626603126526	0.09998416900634766
37	100.140958070755	fix_pre	0		44.0	35.0	2.5	blank	1.0	256.6962502002716	0.366635799407959
37	100.49935102462769	response	0	2		35.0	2.5	blank	1.0	257.0546431541443	
37	100.50759387016296	movie	1		301.0	35.0	2.5	blank	1.0	257.06288599967957	2.508395195007324
37	103.01598906517029	fix_post	2		12.0	35.0	2.5	blank	1.0	259.5712811946869	0.09997797012329102
38	103.11596703529358	fix_pre	0		70.0	36.0	2.5	/experiments/knapen_aot/videos/S_comp_H004_C009_PS_v01_SDR_PS_20180925_SDR_2K_AVC.mp4	0.0	259.6712591648102	0.5832409858703613
38	103.69098901748657	response	0	2		36.0	2.5	/experiments/knapen_aot/videos/S_comp_H004_C009_PS_v01_SDR_PS_20180925_SDR_2K_AVC.mp4	0.0	260.2462811470032	
38	103.69920802116394	movie	1		167.0	36.0	2.5	/experiments/knapen_aot/videos/S_comp_H004_C009_PS_v01_SDR_PS_20180925_SDR_2K_AVC.mp4	0.0	260.25450015068054	2.5083789825439453
38	106.20758700370789	fix_post	2		12.0	36.0	2.5	/experiments/knapen_aot/videos/S_comp_H004_C009_PS_v01_SDR_PS_20180925_SDR_2K_AVC.mp4	0.0	262.7628791332245	0.10061001777648926
39	106.30819702148438	fix_pre	0		5.0	37.0	2.5	/experiments/knapen_aot/videos/S_wc-8bTJmWfuVyJ4_8.mp4	0.0	262.863489151001	0.0415189266204834
39	106.3410279750824	response	0	2		37.0	2.5	/experiments/knapen_aot/videos/S_wc-8bTJmWfuVyJ4_8.mp4	0.0	262.896320104599	
39	106.34971594810486	movie	1		167.0	37.0	2.5	/experiments/knapen_aot/videos/S_wc-8bTJmWfuVyJ4_8.mp4	0.0	262.90500807762146	2.507823944091797
39	108.58268404006958	response	1	2		37.0	2.5	/experiments/knapen_aot/videos/S_wc-8bTJmWfuVyJ4_8.mp4	0.0	265.1379761695862	
39	108.85753989219666	fix_post	2		12.0	37.0	2.5	/experiments/knapen_aot/videos/S_wc-8bTJmWfuVyJ4_8.mp4	0.0	265.41283202171326	0.1000051498413086
40	108.95754504203796	fix_pre	0		6.0	38.0	2.5	/experiments/knapen_aot/videos/R_S_ILSVRC2015_train_00373000.mp4	0.0	265.51283717155457	0.050032854080200195
40	108.99941086769104	response	0	2		38.0	2.5	/experiments/knapen_aot/videos/R_S_ILSVRC2015_train_00373000.mp4	0.0	265.55470299720764	
40	109.00757789611816	movie	1		301.0	38.0	2.5	/experiments/knapen_aot/videos/R_S_ILSVRC2015_train_00373000.mp4	0.0	265.56287002563477	2.5082759857177734
40	111.51585388183594	fix_post	2		12.0	38.0	2.5	/experiments/knapen_aot/videos/R_S_ILSVRC2015_train_00373000.mp4	0.0	268.07114601135254	0.10007810592651367
41	111.61593198776245	fix_pre	0		26.0	39.0	2.5	/experiments/knapen_aot/videos/R_S_b1-3.mp4	0.0	268.17122411727905	0.2165839672088623
41	111.82428097724915	response	0	2		39.0	2.5	/experiments/knapen_aot/videos/R_S_b1-3.mp4	0.0	268.37957310676575	
41	111.83251595497131	movie	1		172.0	39.0	2.5	/experiments/knapen_aot/videos/R_S_b1-3.mp4	0.0	268.3878080844879	2.508458137512207
41	114.34097409248352	fix_post	2		12.0	39.0	2.5	/experiments/knapen_aot/videos/R_S_b1-3.mp4	0.0	270.8962662220001	0.09986686706542969
41	114.40759587287903	response	2	2		39.0	2.5	/experiments/knapen_aot/videos/R_S_b1-3.mp4	0.0	270.96288800239563	
42	114.44084095954895	fix_pre	0		69.0	40.0	2.5	blank	1.0	270.99613308906555	0.5754680633544922
42	115.0076220035553	response	0	2		40.0	2.5	blank	1.0	271.5629141330719	
42	115.01630902290344	movie	1		301.0	40.0	2.5	blank	1.0	271.57160115242004	2.5078530311584473
42	117.52416205406189	fix_post	2		12.0	40.0	2.5	blank	1.0	274.0794541835785	0.09999680519104004
42	117.59093499183655	response	2	2		40.0	2.5	blank	1.0	274.14622712135315	
43	117.62415885925293	fix_pre	0		34.0	41.0	2.5	/experiments/knapen_aot/videos/S_yt-pKl8nduxfTI_798.mp4	0.0	274.17945098876953	0.28326416015625
43	117.89923191070557	response	0	2		41.0	2.5	/experiments/knapen_aot/videos/S_yt-pKl8nduxfTI_798.mp4	0.0	274.45452404022217	
43	117.90742301940918	movie	1		301.0	41.0	2.5	/experiments/knapen_aot/videos/S_yt-pKl8nduxfTI_798.mp4	0.0	274.4627151489258	2.5085649490356445
43	120.41598796844482	fix_post	2		12.0	41.0	2.5	/experiments/knapen_aot/videos/S_yt-pKl8nduxfTI_798.mp4	0.0	276.9712800979614	0.10035395622253418
44	120.51634192466736	fix_pre	0		27.0	42.0	2.5	/experiments/knapen_aot/videos/R_S_g201_TH_803_A001_8_SDR_20191031_SDR_2K_AVC.mp4	0.0	277.07163405418396	0.2244560718536377
44	120.7325599193573	response	0	2		42.0	2.5	/experiments/knapen_aot/videos/R_S_g201_TH_803_A001_8_SDR_20191031_SDR_2K_AVC.mp4	0.0	277.2878520488739	
44	120.740797996521	movie	1		171.0	42.0	2.5	/experiments/knapen_aot/videos/R_S_g201_TH_803_A001_8_SDR_20191031_SDR_2K_AVC.mp4	0.0	277.2960901260376	2.5083470344543457
44	123.24914503097534	fix_post	2		12.0	42.0	2.5	/experiments/knapen_aot/videos/R_S_g201_TH_803_A001_8_SDR_20191031_SDR_2K_AVC.mp4	0.0	279.80443716049194	0.10003805160522461
45	123.34918308258057	fix_pre	0		8.0	43.0	2.5	/experiments/knapen_aot/videos/S_yt-alGXD2Drh_g_19.mp4	0.0	279.90447521209717	0.06662893295288086
45	123.40754294395447	response	0	2		43.0	2.5	/experiments/knapen_aot/videos/S_yt-alGXD2Drh_g_19.mp4	0.0	279.96283507347107	
45	123.41581201553345	movie	1		301.0	43.0	2.5	/experiments/knapen_aot/videos/S_yt-alGXD2Drh_g_19.mp4	0.0	279.97110414505005	2.5083699226379395
45	125.92418193817139	fix_post	2		12.0	43.0	2.5	/experiments/knapen_aot/videos/S_yt-alGXD2Drh_g_19.mp4	0.0	282.479474067688	0.10018205642700195
46	126.02436399459839	fix_pre	0		38.0	44.0	2.5	/experiments/knapen_aot/videos/S_video_inspire_oregon_lone-ranch-beach_00021.1080-h264.mp4	0.0	282.579656124115	0.3164370059967041
46	126.332603931427	response	0	2		44.0	2.5	/experiments/knapen_aot/videos/S_video_inspire_oregon_lone-ranch-beach_00021.1080-h264.mp4	0.0	282.8878960609436	
46	126.34080100059509	movie	1		169.0	44.0	2.5	/experiments/knapen_aot/videos/S_video_inspire_oregon_lone-ranch-beach_00021.1080-h264.mp4	0.0	282.8960931301117	2.508514881134033
46	128.84931588172913	fix_post	2		12.0	44.0	2.5	/experiments/knapen_aot/videos/S_video_inspire_oregon_lone-ranch-beach_00021.1080-h264.mp4	0.0	285.4046080112457	0.0998220443725586
47	128.94913792610168	fix_pre	0		9.0	45.0	2.5	/experiments/knapen_aot/videos/R_S_comp_A103_C002_0205DG_v12_SDR_FINAL_20180706_SDR_2K_AVC.mp4	0.0	285.5044300556183	0.07499098777770996
47	129.0159809589386	response	0	2		45.0	2.5	/experiments/knapen_aot/videos/R_S_comp_A103_C002_0205DG_v12_SDR_FINAL_20180706_SDR_2K_AVC.mp4	0.0	285.5712730884552	
47	129.0241289138794	movie	1		168.0	45.0	2.5	/experiments/knapen_aot/videos/R_S_comp_A103_C002_0205DG_v12_SDR_FINAL_20180706_SDR_2K_AVC.mp4	0.0	285.579421043396	2.5082790851593018
47	131.5324079990387	fix_post	2		12.0	45.0	2.5	/experiments/knapen_aot/videos/R_S_comp_A103_C002_0205DG_v12_SDR_FINAL_20180706_SDR_2K_AVC.mp4	0.0	288.0877001285553	0.10009193420410156
48	131.6324999332428	fix_pre	0		3.0	46.0	2.5	/experiments/knapen_aot/videos/R_S_yt-ujdFTAUE8rc_34.mp4	0.0	288.1877920627594	0.0249330997467041
48	131.64917993545532	response	0	2		46.0	2.5	/experiments/knapen_aot/videos/R_S_yt-ujdFTAUE8rc_34.mp4	0.0	288.2044720649719	
48	131.6574330329895	movie	1		301.0	46.0	2.5	/experiments/knapen_aot/videos/R_S_yt-ujdFTAUE8rc_34.mp4	0.0	288.2127251625061	2.508535861968994
48	134.1659688949585	fix_post	2		12.0	46.0	2.5	/experiments/knapen_aot/videos/R_S_yt-ujdFTAUE8rc_34.mp4	0.0	290.7212610244751	0.0998380184173584
49	134.26580691337585	fix_pre	0		14.0	47.0	2.5	blank	1.0	290.82109904289246	0.11669206619262695
49	134.37422704696655	response	0	2		47.0	2.5	blank	1.0	290.92951917648315	
49	134.38249897956848	movie	1		301.0	47.0	2.5	blank	1.0	290.9377911090851	2.508289098739624
49	136.8907880783081	fix_post	2		12.0	47.0	2.5	blank	1.0	293.4460802078247	0.09996891021728516
50	136.9907569885254	fix_pre	0		28.0	48.0	2.5	/experiments/knapen_aot/videos/S_yt-wLylWnZs3z0_27.mp4	0.0	293.546049118042	0.2336750030517578
50	137.21588492393494	response	0	2		48.0	2.5	/experiments/knapen_aot/videos/S_yt-wLylWnZs3z0_27.mp4	0.0	293.77117705345154	
50	137.22443199157715	movie	1		301.0	48.0	2.5	/experiments/knapen_aot/videos/S_yt-wLylWnZs3z0_27.mp4	0.0	293.77972412109375	2.5080440044403076
50	139.73247599601746	fix_post	2		12.0	48.0	2.5	/experiments/knapen_aot/videos/S_yt-wLylWnZs3z0_27.mp4	0.0	296.28776812553406	0.09992408752441406
51	139.83240008354187	fix_pre	0		12.0	49.0	2.5	/experiments/knapen_aot/videos/R_S_pexels-ron-lach-8071987.mp4	0.0	296.3876922130585	0.10032892227172852
51	139.92420887947083	response	0	2		49.0	2.5	/experiments/knapen_aot/videos/R_S_pexels-ron-lach-8071987.mp4	0.0	296.4795010089874	
51	139.9327290058136	movie	1		202.0	49.0	2.5	/experiments/knapen_aot/videos/R_S_pexels-ron-lach-8071987.mp4	0.0	296.4880211353302	2.507982015609741
51	142.44071102142334	fix_post	2		12.0	49.0	2.5	/experiments/knapen_aot/videos/R_S_pexels-ron-lach-8071987.mp4	0.0	298.99600315093994	0.09998703002929688
51	142.5241858959198	response	2	2		49.0	2.5	/experiments/knapen_aot/videos/R_S_pexels-ron-lach-8071987.mp4	0.0	299.0794780254364	
52	142.54069805145264	fix_pre	0		47.0	50.0	2.5	/experiments/knapen_aot/videos/R_S_pexels-mart-production-7698911_1.mp4	0.0	299.09599018096924	0.39193296432495117
52	142.92417001724243	response	0	2		50.0	2.5	/experiments/knapen_aot/videos/R_S_pexels-mart-production-7698911_1.mp4	0.0	299.47946214675903	
52	142.9326310157776	movie	1		208.0	50.0	2.5	/experiments/knapen_aot/videos/R_S_pexels-mart-production-7698911_1.mp4	0.0	299.4879231452942	2.5081260204315186
52	145.4407570362091	fix_post	2		12.0	50.0	2.5	/experiments/knapen_aot/videos/R_S_pexels-mart-production-7698911_1.mp4	0.0	301.9960491657257	0.10001301765441895
53	145.54077005386353	fix_pre	0		7.0	51.0	2.5	/experiments/knapen_aot/videos/R_S_yt-VQtbKGzI9SE_431.mp4	0.0	302.0960621833801	0.05864596366882324
53	145.5908489227295	response	0	2		51.0	2.5	/experiments/knapen_aot/videos/R_S_yt-VQtbKGzI9SE_431.mp4	0.0	302.1461410522461	
53	145.59941601753235	movie	1		301.0	51.0	2.5	/experiments/knapen_aot/videos/R_S_yt-VQtbKGzI9SE_431.mp4	0.0	302.15470814704895	2.5080349445343018
53	148.10745096206665	fix_post	2		12.0	51.0	2.5	/experiments/knapen_aot/videos/R_S_yt-VQtbKGzI9SE_431.mp4	0.0	304.66274309158325	0.09988689422607422
54	148.20733785629272	fix_pre	0		18.0	52.0	2.5	/experiments/knapen_aot/videos/R_S_yt-d5jBQ-LOW2I_17.mp4	0.0	304.7626299858093	0.1500091552734375
54	148.349191904068	response	0	2		52.0	2.5	/experiments/knapen_aot/videos/R_S_yt-d5jBQ-LOW2I_17.mp4	0.0	304.9044840335846	
54	148.35734701156616	movie	1		301.0	52.0	2.5	/experiments/knapen_aot/videos/R_S_yt-d5jBQ-LOW2I_17.mp4	0.0	304.91263914108276	2.5085489749908447
54	150.865895986557	fix_post	2		12.0	52.0	2.5	/experiments/knapen_aot/videos/R_S_yt-d5jBQ-LOW2I_17.mp4	0.0	307.4211881160736	0.09978199005126953
55	150.96567797660828	fix_pre	0		22.0	53.0	2.5	/experiments/knapen_aot/videos/R_S_yt-ZzC953ahaxs_195.mp4	0.0	307.5209701061249	0.18333005905151367
55	151.1407299041748	response	0	2		53.0	2.5	/experiments/knapen_aot/videos/R_S_yt-ZzC953ahaxs_195.mp4	0.0	307.6960220336914	
55	151.1490080356598	movie	1		301.0	53.0	2.5	/experiments/knapen_aot/videos/R_S_yt-ZzC953ahaxs_195.mp4	0.0	307.7043001651764	2.5083348751068115
55	153.6573429107666	fix_post	2		12.0	53.0	2.5	/experiments/knapen_aot/videos/R_S_yt-ZzC953ahaxs_195.mp4	0.0	310.2126350402832	0.0999751091003418
56	153.75731801986694	fix_pre	0		10.0	54.0	2.5	blank	1.0	310.31261014938354	0.08335494995117188
56	153.83244490623474	response	0	2		54.0	2.5	blank	1.0	310.38773703575134	
56	153.84067296981812	movie	1		301.0	54.0	2.5	blank	1.0	310.3959650993347	2.5083510875701904
56	156.3490240573883	fix_post	2		12.0	54.0	2.5	blank	1.0	312.9043161869049	0.0999598503112793
57	156.44898390769958	fix_pre	0		21.0	55.0	2.5	/experiments/knapen_aot/videos/R_S_yt-icd9UxxxeW0_255.mp4	0.0	313.0042760372162	0.17495107650756836
57	156.61576986312866	response	0	2		55.0	2.5	/experiments/knapen_aot/videos/R_S_yt-icd9UxxxeW0_255.mp4	0.0	313.17106199264526	
57	156.62393498420715	movie	1		301.0	55.0	2.5	/experiments/knapen_aot/videos/R_S_yt-icd9UxxxeW0_255.mp4	0.0	313.17922711372375	2.508394956588745
57	159.1323299407959	fix_post	2		12.0	55.0	2.5	/experiments/knapen_aot/videos/R_S_yt-icd9UxxxeW0_255.mp4	0.0	315.6876220703125	0.09992194175720215
58	159.2322518825531	fix_pre	0		19.0	56.0	2.5	/experiments/knapen_aot/videos/R_S_g201_TH_804_A001_8_SDR_20191031_SDR_2K_AVC.mp4	0.0	315.7875440120697	0.1585531234741211
58	159.38245391845703	response	0	2		56.0	2.5	/experiments/knapen_aot/videos/R_S_g201_TH_804_A001_8_SDR_20191031_SDR_2K_AVC.mp4	0.0	315.93774604797363	
58	159.39080500602722	movie	1		168.0	56.0	2.5	/experiments/knapen_aot/videos/R_S_g201_TH_804_A001_8_SDR_20191031_SDR_2K_AVC.mp4	0.0	315.9460971355438	2.5082149505615234
58	161.89901995658875	fix_post	2		12.0	56.0	2.5	/experiments/knapen_aot/videos/R_S_g201_TH_804_A001_8_SDR_20191031_SDR_2K_AVC.mp4	0.0	318.45431208610535	0.0999910831451416
59	161.9990110397339	fix_pre	0		1.0	57.0	2.5	/experiments/knapen_aot/videos/R_S_yt-Fdv-V--QlR0_117.mp4	0.0	318.5543031692505	0.009860992431640625
59	162.0008099079132	response	0	2		57.0	2.5	/experiments/knapen_aot/videos/R_S_yt-Fdv-V--QlR0_117.mp4	0.0	318.5561020374298	
59	162.00887203216553	movie	1		301.0	57.0	2.5	/experiments/knapen_aot/videos/R_S_yt-Fdv-V--QlR0_117.mp4	0.0	318.56416416168213	2.5070018768310547
59	164.51587390899658	fix_post	2		12.0	57.0	2.5	/experiments/knapen_aot/videos/R_S_yt-Fdv-V--QlR0_117.mp4	0.0	321.0711660385132	0.09979796409606934
60	164.61567187309265	fix_pre	0		39.0	58.0	2.5	/experiments/knapen_aot/videos/S_pexels-ron-lach-8071987.mp4	0.0	321.17096400260925	0.32498717308044434
60	164.924870967865	response	0	2		58.0	2.5	/experiments/knapen_aot/videos/S_pexels-ron-lach-8071987.mp4	0.0	321.4801630973816	
60	164.9406590461731	movie	1		212.0	58.0	2.5	/experiments/knapen_aot/videos/S_pexels-ron-lach-8071987.mp4	0.0	321.4959511756897	2.508253812789917
60	167.448912858963	fix_post	2		12.0	58.0	2.5	/experiments/knapen_aot/videos/S_pexels-ron-lach-8071987.mp4	0.0	324.0042049884796	0.10017013549804688
61	167.54908299446106	fix_pre	0		8.0	59.0	2.5	/experiments/knapen_aot/videos/R_S_yt-i1h9ZiYZ86U_28.mp4	0.0	324.10437512397766	0.06646299362182617
61	167.6073820590973	response	0	2		59.0	2.5	/experiments/knapen_aot/videos/R_S_yt-i1h9ZiYZ86U_28.mp4	0.0	324.1626741886139	
61	167.61554598808289	movie	1		301.0	59.0	2.5	/experiments/knapen_aot/videos/R_S_yt-i1h9ZiYZ86U_28.mp4	0.0	324.1708381175995	2.508357048034668
61	170.12390303611755	fix_post	2		12.0	59.0	2.5	/experiments/knapen_aot/videos/R_S_yt-i1h9ZiYZ86U_28.mp4	0.0	326.67919516563416	0.10024785995483398
62	170.2241508960724	fix_pre	0		23.0	60.0	2.5	/experiments/knapen_aot/videos/S_g201_TH_804_A001_8_SDR_20191031_SDR_2K_AVC.mp4	0.0	326.779443025589	0.19150996208190918
62	170.40735793113708	response	0	2		60.0	2.5	/experiments/knapen_aot/videos/S_g201_TH_804_A001_8_SDR_20191031_SDR_2K_AVC.mp4	0.0	326.9626500606537	
62	170.4156608581543	movie	1		169.0	60.0	2.5	/experiments/knapen_aot/videos/S_g201_TH_804_A001_8_SDR_20191031_SDR_2K_AVC.mp4	0.0	326.9709529876709	2.508258104324341
62	172.92391896247864	fix_post	2		12.0	60.0	2.5	/experiments/knapen_aot/videos/S_g201_TH_804_A001_8_SDR_20191031_SDR_2K_AVC.mp4	0.0	329.47921109199524	0.09994101524353027
63	173.02385997772217	fix_pre	0		10.0	61.0	2.5	blank	1.0	329.57915210723877	0.08331894874572754
63	173.09908890724182	response	0	2		61.0	2.5	blank	1.0	329.6543810367584	
63	173.1071789264679	movie	1		301.0	61.0	2.5	blank	1.0	329.6624710559845	2.5084221363067627
63	175.61560106277466	fix_post	2		12.0	61.0	2.5	blank	1.0	332.17089319229126	0.09990191459655762
64	175.71550297737122	fix_pre	0		122.0	62.0	2.5	/experiments/knapen_aot/videos/R_S_pexels-mart-production-7698911_1.mp4	0.0	332.2707951068878	1.016690969467163
64	176.72401905059814	response	0	2		62.0	2.5	/experiments/knapen_aot/videos/R_S_pexels-mart-production-7698911_1.mp4	0.0	333.27931118011475	
64	176.73219394683838	movie	1		194.0	62.0	2.5	/experiments/knapen_aot/videos/R_S_pexels-mart-production-7698911_1.mp4	0.0	333.287486076355	2.508392095565796
64	179.24058604240417	fix_post	2		12.0	62.0	2.5	/experiments/knapen_aot/videos/R_S_pexels-mart-production-7698911_1.mp4	0.0	335.7958781719208	0.09998297691345215
65	179.34056901931763	fix_pre	0		12.0	63.0	2.5	/experiments/knapen_aot/videos/S_ILSVRC2015_train_00745000.mp4	0.0	335.89586114883423	0.09992289543151855
65	179.43239188194275	response	0	2		63.0	2.5	/experiments/knapen_aot/videos/S_ILSVRC2015_train_00745000.mp4	0.0	335.98768401145935	
65	179.44049191474915	movie	1		301.0	63.0	2.5	/experiments/knapen_aot/videos/S_ILSVRC2015_train_00745000.mp4	0.0	335.99578404426575	2.5085649490356445
65	181.9490568637848	fix_post	2		12.0	63.0	2.5	/experiments/knapen_aot/videos/S_ILSVRC2015_train_00745000.mp4	0.0	338.5043489933014	0.0998220443725586
66	182.04887890815735	fix_pre	0		32.0	64.0	2.5	/experiments/knapen_aot/videos/R_S_yt-lADkWM79teI_18.mp4	0.0	338.60417103767395	0.2666311264038086
66	182.30729389190674	response	0	2		64.0	2.5	/experiments/knapen_aot/videos/R_S_yt-lADkWM79teI_18.mp4	0.0	338.86258602142334	
66	182.31551003456116	movie	1		301.0	64.0	2.5	/experiments/knapen_aot/videos/R_S_yt-lADkWM79teI_18.mp4	0.0	338.87080216407776	2.5084190368652344
66	184.8239290714264	fix_post	2		12.0	64.0	2.5	/experiments/knapen_aot/videos/R_S_yt-lADkWM79teI_18.mp4	0.0	341.379221200943	0.09997391700744629
67	184.92390298843384	fix_pre	0		21.0	65.0	2.5	/experiments/knapen_aot/videos/R_S_yt-ZE8Af60eNsI_15.mp4	0.0	341.47919511795044	0.17523503303527832
67	185.09065008163452	response	0	2		65.0	2.5	/experiments/knapen_aot/videos/R_S_yt-ZE8Af60eNsI_15.mp4	0.0	341.6459422111511	
67	185.09913802146912	movie	1		301.0	65.0	2.5	/experiments/knapen_aot/videos/R_S_yt-ZE8Af60eNsI_15.mp4	0.0	341.6544301509857	2.5080599784851074
67	187.60719799995422	fix_post	2		12.0	65.0	2.5	/experiments/knapen_aot/videos/R_S_yt-ZE8Af60eNsI_15.mp4	0.0	344.1624901294708	0.09998893737792969
68	187.70718693733215	fix_pre	0		18.0	66.0	2.5	/experiments/knapen_aot/videos/R_S_yt-5doJmCcFL7s_3.mp4	0.0	344.26247906684875	0.14997506141662598
68	187.84900093078613	response	0	2		66.0	2.5	/experiments/knapen_aot/videos/R_S_yt-5doJmCcFL7s_3.mp4	0.0	344.40429306030273	
68	187.85716199874878	movie	1		301.0	66.0	2.5	/experiments/knapen_aot/videos/R_S_yt-5doJmCcFL7s_3.mp4	0.0	344.4124541282654	2.5083389282226562
68	190.36550092697144	fix_post	2		12.0	66.0	2.5	/experiments/knapen_aot/videos/R_S_yt-5doJmCcFL7s_3.mp4	0.0	346.92079305648804	0.10000896453857422
69	190.46550989151	fix_pre	0		17.0	67.0	2.5	/experiments/knapen_aot/videos/R_S_yt-F1vQ5nZWhDg_21.mp4	0.0	347.0208020210266	0.1417829990386963
69	190.59892201423645	response	0	2		67.0	2.5	/experiments/knapen_aot/videos/R_S_yt-F1vQ5nZWhDg_21.mp4	0.0	347.15421414375305	
69	190.6072928905487	movie	1		301.0	67.0	2.5	/experiments/knapen_aot/videos/R_S_yt-F1vQ5nZWhDg_21.mp4	0.0	347.1625850200653	2.508228063583374
69	193.11552095413208	fix_post	2		12.0	67.0	2.5	/experiments/knapen_aot/videos/R_S_yt-F1vQ5nZWhDg_21.mp4	0.0	349.6708130836487	0.10019397735595703
70	193.21571493148804	fix_pre	0		54.0	68.0	2.5	/experiments/knapen_aot/videos/S_yt-074ygGXNoQ8_64.mp4	0.0	349.77100706100464	0.44975996017456055
70	193.64972496032715	response	0	2		68.0	2.5	/experiments/knapen_aot/videos/S_yt-074ygGXNoQ8_64.mp4	0.0	350.20501708984375	
70	193.6654748916626	movie	1		301.0	68.0	2.5	/experiments/knapen_aot/videos/S_yt-074ygGXNoQ8_64.mp4	0.0	350.2207670211792	2.5083940029144287
70	196.17386889457703	fix_post	2		12.0	68.0	2.5	/experiments/knapen_aot/videos/S_yt-074ygGXNoQ8_64.mp4	0.0	352.7291610240936	0.10031914710998535
71	196.274188041687	fix_pre	0		43.0	69.0	2.5	blank	1.0	352.8294801712036	0.35796403884887695
71	196.62383699417114	response	0	2		69.0	2.5	blank	1.0	353.17912912368774	
71	196.6321520805359	movie	1		301.0	69.0	2.5	blank	1.0	353.1874442100525	2.5084068775177
71	199.1405589580536	fix_post	2		12.0	69.0	2.5	blank	1.0	355.6958510875702	0.09987807273864746
72	199.24043703079224	fix_pre	0		18.0	70.0	2.5	/experiments/knapen_aot/videos/S_1y-EvnfGO9Y_70.mp4	0.0	355.79572916030884	0.14998984336853027
72	199.38230299949646	response	0	2		70.0	2.5	/experiments/knapen_aot/videos/S_1y-EvnfGO9Y_70.mp4	0.0	355.93759512901306	
72	199.39042687416077	movie	1		301.0	70.0	2.5	/experiments/knapen_aot/videos/S_1y-EvnfGO9Y_70.mp4	0.0	355.94571900367737	2.5083041191101074
72	201.89873099327087	fix_post	2		12.0	70.0	2.5	/experiments/knapen_aot/videos/S_1y-EvnfGO9Y_70.mp4	0.0	358.4540231227875	0.10008096694946289
73	201.99881196022034	fix_pre	0		2.0	71.0	2.5	/experiments/knapen_aot/videos/S_yt-NuZy8Rjk4d0_156.mp4	0.0	358.55410408973694	0.01662611961364746
73	202.00899600982666	response	0	2		71.0	2.5	/experiments/knapen_aot/videos/S_yt-NuZy8Rjk4d0_156.mp4	0.0	358.56428813934326	
73	202.01543807983398	movie	1		301.0	71.0	2.5	/experiments/knapen_aot/videos/S_yt-NuZy8Rjk4d0_156.mp4	0.0	358.5707302093506	2.5083978176116943
73	204.52383589744568	fix_post	2		12.0	71.0	2.5	/experiments/knapen_aot/videos/S_yt-NuZy8Rjk4d0_156.mp4	0.0	361.0791280269623	0.09999513626098633
74	204.62383103370667	fix_pre	0		28.0	72.0	2.5	/experiments/knapen_aot/videos/R_S_comp_LA_A005_C009_PSNK_ALT_v09_SDR_PS_201809134_SDR_2K_AVC.mp4	0.0	361.17912316322327	0.23331594467163086
74	204.84884595870972	response	0	2		72.0	2.5	/experiments/knapen_aot/videos/R_S_comp_LA_A005_C009_PSNK_ALT_v09_SDR_PS_201809134_SDR_2K_AVC.mp4	0.0	361.4041380882263	
74	204.8571469783783	movie	1		169.0	72.0	2.5	/experiments/knapen_aot/videos/R_S_comp_LA_A005_C009_PSNK_ALT_v09_SDR_PS_201809134_SDR_2K_AVC.mp4	0.0	361.4124391078949	2.5082409381866455
74	207.36538791656494	fix_post	2		12.0	72.0	2.5	/experiments/knapen_aot/videos/R_S_comp_LA_A005_C009_PSNK_ALT_v09_SDR_PS_201809134_SDR_2K_AVC.mp4	0.0	363.92068004608154	0.10005617141723633
75	207.46544408798218	fix_pre	0		9.0	73.0	2.5	/experiments/knapen_aot/videos/R_S_Y004_C015_SDR_2K_AVC.mp4	0.0	364.0207362174988	0.07498693466186523
75	207.53219199180603	response	0	2		73.0	2.5	/experiments/knapen_aot/videos/R_S_Y004_C015_SDR_2K_AVC.mp4	0.0	364.08748412132263	
75	207.54043102264404	movie	1		199.0	73.0	2.5	/experiments/knapen_aot/videos/R_S_Y004_C015_SDR_2K_AVC.mp4	0.0	364.09572315216064	2.5083680152893066
75	210.04879903793335	fix_post	2		12.0	73.0	2.5	/experiments/knapen_aot/videos/R_S_Y004_C015_SDR_2K_AVC.mp4	0.0	366.60409116744995	0.09995484352111816
75	210.06643104553223	response	2	2		73.0	2.5	/experiments/knapen_aot/videos/R_S_Y004_C015_SDR_2K_AVC.mp4	0.0	366.6217231750488	
76	210.14875388145447	fix_pre	0		40.0	74.0	2.5	/experiments/knapen_aot/videos/R_S_pexels-roman-odintsov-8232443_1.mp4	0.0	366.70404601097107	0.33333301544189453
76	210.46628189086914	response	0	2		74.0	2.5	/experiments/knapen_aot/videos/R_S_pexels-roman-odintsov-8232443_1.mp4	0.0	367.02157402038574	
76	210.48208689689636	movie	1		205.0	74.0	2.5	/experiments/knapen_aot/videos/R_S_pexels-roman-odintsov-8232443_1.mp4	0.0	367.03737902641296	2.5083069801330566
76	212.99039387702942	fix_post	2		12.0	74.0	2.5	/experiments/knapen_aot/videos/R_S_pexels-roman-odintsov-8232443_1.mp4	0.0	369.545686006546	0.10005307197570801
77	213.09044694900513	fix_pre	0		10.0	75.0	2.5	blank	1.0	369.64573907852173	0.08331108093261719
77	213.16552305221558	response	0	2		75.0	2.5	blank	1.0	369.7208151817322	
77	213.17375802993774	movie	1		301.0	75.0	2.5	blank	1.0	369.72905015945435	2.5083260536193848
77	215.68208408355713	fix_post	2		12.0	75.0	2.5	blank	1.0	372.23737621307373	0.10002589225769043
78	215.78210997581482	fix_pre	0		21.0	76.0	2.5	/experiments/knapen_aot/videos/S_yt-OEY9O2MglQM_7.mp4	0.0	372.3374021053314	0.17492294311523438
78	215.94886302947998	response	0	2		76.0	2.5	/experiments/knapen_aot/videos/S_yt-OEY9O2MglQM_7.mp4	0.0	372.5041551589966	
78	215.95703291893005	movie	1		301.0	76.0	2.5	/experiments/knapen_aot/videos/S_yt-OEY9O2MglQM_7.mp4	0.0	372.51232504844666	2.508371114730835
78	218.4654040336609	fix_post	2		12.0	76.0	2.5	/experiments/knapen_aot/videos/S_yt-OEY9O2MglQM_7.mp4	0.0	375.0206961631775	0.10000991821289062
79	218.56541395187378	fix_pre	0		9.0	77.0	2.5	/experiments/knapen_aot/videos/S_ILSVRC2015_train_00373001.mp4	0.0	375.1207060813904	0.0749669075012207
79	218.63215589523315	response	0	2		77.0	2.5	/experiments/knapen_aot/videos/S_ILSVRC2015_train_00373001.mp4	0.0	375.18744802474976	
79	218.640380859375	movie	1		301.0	77.0	2.5	/experiments/knapen_aot/videos/S_ILSVRC2015_train_00373001.mp4	0.0	375.1956729888916	2.5083441734313965
79	221.1487250328064	fix_post	2		12.0	77.0	2.5	/experiments/knapen_aot/videos/S_ILSVRC2015_train_00373001.mp4	0.0	377.704017162323	0.10001397132873535
80	221.24873900413513	fix_pre	0		14.0	78.0	2.5	/experiments/knapen_aot/videos/S_yt-Ul81y6R9YbE_12.mp4	0.0	377.80403113365173	0.11657500267028809
80	221.35716700553894	response	0	2		78.0	2.5	/experiments/knapen_aot/videos/S_yt-Ul81y6R9YbE_12.mp4	0.0	377.91245913505554	
80	221.36531400680542	movie	1		301.0	78.0	2.5	/experiments/knapen_aot/videos/S_yt-Ul81y6R9YbE_12.mp4	0.0	377.920606136322	2.50838303565979
80	223.8736970424652	fix_post	2		12.0	78.0	2.5	/experiments/knapen_aot/videos/S_yt-Ul81y6R9YbE_12.mp4	0.0	380.4289891719818	0.10000205039978027
81	223.973699092865	fix_pre	0		10.0	79.0	2.5	/experiments/knapen_aot/videos/S_ILSVRC2015_train_00551000.mp4	0.0	380.5289912223816	0.08328390121459961
81	224.04878902435303	response	0	2		79.0	2.5	/experiments/knapen_aot/videos/S_ILSVRC2015_train_00551000.mp4	0.0	380.60408115386963	
81	224.0569829940796	movie	1		301.0	79.0	2.5	/experiments/knapen_aot/videos/S_ILSVRC2015_train_00551000.mp4	0.0	380.6122751235962	2.5084290504455566
81	226.56541204452515	fix_post	2		12.0	79.0	2.5	/experiments/knapen_aot/videos/S_ILSVRC2015_train_00551000.mp4	0.0	383.12070417404175	0.09994292259216309
82	226.6653549671173	fix_pre	0		59.0	80.0	2.5	/experiments/knapen_aot/videos/R_S_video_inspire_florida_miami_brickell_sunset_00036.1080-h264.mp4	0.0	383.2206470966339	0.49158191680908203
82	227.14879894256592	response	0	2		80.0	2.5	/experiments/knapen_aot/videos/R_S_video_inspire_florida_miami_brickell_sunset_00036.1080-h264.mp4	0.0	383.7040910720825	
82	227.1569368839264	movie	1		169.0	80.0	2.5	/experiments/knapen_aot/videos/R_S_video_inspire_florida_miami_brickell_sunset_00036.1080-h264.mp4	0.0	383.712229013443	2.50846004486084
82	229.66539692878723	fix_post	2		12.0	80.0	2.5	/experiments/knapen_aot/videos/R_S_video_inspire_florida_miami_brickell_sunset_00036.1080-h264.mp4	0.0	386.22068905830383	0.09997296333312988
83	229.76536989212036	fix_pre	0		3.0	81.0	2.5	/experiments/knapen_aot/videos/R_S_yt--OkafQ5VFHs_51.mp4	0.0	386.32066202163696	0.025037050247192383
83	229.7822060585022	response	0	2		81.0	2.5	/experiments/knapen_aot/videos/R_S_yt--OkafQ5VFHs_51.mp4	0.0	386.3374981880188	
83	229.79040694236755	movie	1		301.0	81.0	2.5	/experiments/knapen_aot/videos/R_S_yt--OkafQ5VFHs_51.mp4	0.0	386.34569907188416	2.5082809925079346
83	232.2986879348755	fix_post	2		12.0	81.0	2.5	/experiments/knapen_aot/videos/R_S_yt--OkafQ5VFHs_51.mp4	0.0	388.8539800643921	0.10002493858337402
84	232.39871287345886	fix_pre	0		38.0	82.0	2.5	blank	1.0	388.95400500297546	0.3166060447692871
84	232.69962787628174	response	0	2		82.0	2.5	blank	1.0	389.25492000579834	
84	232.71531891822815	movie	1		301.0	82.0	2.5	blank	1.0	389.27061104774475	2.50838303565979
84	235.22370195388794	fix_post	2		12.0	82.0	2.5	blank	1.0	391.77899408340454	0.10013794898986816
85	235.3238399028778	fix_pre	0		23.0	83.0	2.5	/experiments/knapen_aot/videos/R_S_yt-WFiEvQuOqqg_18.mp4	0.0	391.8791320323944	0.19144415855407715
85	235.50707602500916	response	0	2		83.0	2.5	/experiments/knapen_aot/videos/R_S_yt-WFiEvQuOqqg_18.mp4	0.0	392.06236815452576	
85	235.51528406143188	movie	1		301.0	83.0	2.5	/experiments/knapen_aot/videos/R_S_yt-WFiEvQuOqqg_18.mp4	0.0	392.0705761909485	2.508356809616089
85	238.02364087104797	fix_post	2		12.0	83.0	2.5	/experiments/knapen_aot/videos/R_S_yt-WFiEvQuOqqg_18.mp4	0.0	394.5789330005646	0.10011005401611328
87	238.1237509250641	stim	0		318.0					394.6790430545807	2.649790048599243
87	238.2404260635376	response	0	2						394.7957181930542	
87	240.76791191101074	response	0	space						397.32320404052734	
