trial_nr	onset	event_type	phase	response	nr_frames	movie_index	movie_duration	movie_file	blank	onset_abs	duration
0	0.1303260326385498	stim	0		50.0					68.96199703216553	0.41805195808410645
0	0.538438081741333	response	0	space						69.37010908126831	
1	0.5483779907226562	stim	0		121.0					69.38004899024963	1.0062921047210693
1	1.338073968887329	response	0	space						70.1697449684143	
1	1.5546700954437256	stim	1		120.0					70.3863410949707	1.0007238388061523
1	2.5464799404144287	response	1	space						71.3781509399414	
2	2.555393934249878	fix_pre	0		75.0	0.0	2.5	/experiments/knapen_aot/videos/R_S_pexels-rodnae-productions-7467585.mp4	0.0	71.38706493377686	0.6248199939727783
2	3.1713619232177734	response	0	space		0.0	2.5	/experiments/knapen_aot/videos/R_S_pexels-rodnae-productions-7467585.mp4	0.0	72.00303292274475	
2	3.1802139282226562	movie	1		166.0	0.0	2.5	/experiments/knapen_aot/videos/R_S_pexels-rodnae-productions-7467585.mp4	0.0	72.01188492774963	2.5077359676361084
2	3.8556900024414062	response	1	2		0.0	2.5	/experiments/knapen_aot/videos/R_S_pexels-rodnae-productions-7467585.mp4	0.0	72.68736100196838	
2	5.687949895858765	fix_post	2		12.0	0.0	2.5	/experiments/knapen_aot/videos/R_S_pexels-rodnae-productions-7467585.mp4	0.0	74.51962089538574	0.10009312629699707
3	5.788043022155762	fix_pre	0		7.0	1.0	2.5	/experiments/knapen_aot/videos/S_yt-K7viJXt9vX8_143.mp4	0.0	74.61971402168274	0.05883193016052246
3	5.83806300163269	response	0	2		1.0	2.5	/experiments/knapen_aot/videos/S_yt-K7viJXt9vX8_143.mp4	0.0	74.66973400115967	
3	5.846874952316284	movie	1		301.0	1.0	2.5	/experiments/knapen_aot/videos/S_yt-K7viJXt9vX8_143.mp4	0.0	74.67854595184326	2.507707118988037
3	8.354582071304321	fix_post	2		12.0	1.0	2.5	/experiments/knapen_aot/videos/S_yt-K7viJXt9vX8_143.mp4	0.0	77.1862530708313	0.1000218391418457
4	8.454603910446167	fix_pre	0		13.0	2.0	2.5	/experiments/knapen_aot/videos/R_S_yt-iAQ98zgVlds_97.mp4	0.0	77.28627490997314	0.10832905769348145
4	8.554751873016357	response	0	2		2.0	2.5	/experiments/knapen_aot/videos/R_S_yt-iAQ98zgVlds_97.mp4	0.0	77.38642287254333	
4	8.562932968139648	movie	1		301.0	2.0	2.5	/experiments/knapen_aot/videos/R_S_yt-iAQ98zgVlds_97.mp4	0.0	77.39460396766663	2.5085480213165283
4	11.071480989456177	fix_post	2		12.0	2.0	2.5	/experiments/knapen_aot/videos/R_S_yt-iAQ98zgVlds_97.mp4	0.0	79.90315198898315	0.0999290943145752
5	11.171410083770752	fix_pre	0		6.0	3.0	2.5	/experiments/knapen_aot/videos/R_S_wc-1MzpHfRq1MUK_32.mp4	0.0	80.00308108329773	0.050421953201293945
5	11.213100910186768	response	0	2		3.0	2.5	/experiments/knapen_aot/videos/R_S_wc-1MzpHfRq1MUK_32.mp4	0.0	80.04477190971375	
5	11.221832036972046	movie	1		301.0	3.0	2.5	/experiments/knapen_aot/videos/R_S_wc-1MzpHfRq1MUK_32.mp4	0.0	80.05350303649902	2.507775068283081
5	13.729607105255127	fix_post	2		12.0	3.0	2.5	/experiments/knapen_aot/videos/R_S_wc-1MzpHfRq1MUK_32.mp4	0.0	82.5612781047821	0.09997797012329102
6	13.829585075378418	fix_pre	0		5.0	4.0	2.5	/experiments/knapen_aot/videos/R_S_yt-z68VLDDCFdw_93.mp4	0.0	82.6612560749054	0.04162096977233887
6	13.863063097000122	response	0	2		4.0	2.5	/experiments/knapen_aot/videos/R_S_yt-z68VLDDCFdw_93.mp4	0.0	82.6947340965271	
6	13.871206045150757	movie	1		301.0	4.0	2.5	/experiments/knapen_aot/videos/R_S_yt-z68VLDDCFdw_93.mp4	0.0	82.70287704467773	2.508394956588745
6	16.379601001739502	fix_post	2		12.0	4.0	2.5	/experiments/knapen_aot/videos/R_S_yt-z68VLDDCFdw_93.mp4	0.0	85.21127200126648	0.09996509552001953
7	16.47956609725952	fix_pre	0		4.0	5.0	2.5	/experiments/knapen_aot/videos/S_yt-dj0XQUJos38_14.mp4	0.0	85.3112370967865	0.034071922302246094
7	16.50465989112854	response	0	2		5.0	2.5	/experiments/knapen_aot/videos/S_yt-dj0XQUJos38_14.mp4	0.0	85.33633089065552	
7	16.513638019561768	movie	1		301.0	5.0	2.5	/experiments/knapen_aot/videos/S_yt-dj0XQUJos38_14.mp4	0.0	85.34530901908875	2.507516860961914
7	19.02115488052368	fix_post	2		12.0	5.0	2.5	/experiments/knapen_aot/videos/S_yt-dj0XQUJos38_14.mp4	0.0	87.85282588005066	0.10010409355163574
7	19.1129629611969	response	2	2		5.0	2.5	/experiments/knapen_aot/videos/S_yt-dj0XQUJos38_14.mp4	0.0	87.94463396072388	
8	19.121258974075317	fix_pre	0		44.0	6.0	2.5	/experiments/knapen_aot/videos/R_S_yt-4ouMuGUuPHI_193.mp4	0.0	87.9529299736023	0.3666059970855713
8	19.479583978652954	response	0	2		6.0	2.5	/experiments/knapen_aot/videos/R_S_yt-4ouMuGUuPHI_193.mp4	0.0	88.31125497817993	
8	19.48786497116089	movie	1		301.0	6.0	2.5	/experiments/knapen_aot/videos/R_S_yt-4ouMuGUuPHI_193.mp4	0.0	88.31953597068787	2.5084121227264404
8	21.99627709388733	fix_post	2		12.0	6.0	2.5	/experiments/knapen_aot/videos/R_S_yt-4ouMuGUuPHI_193.mp4	0.0	90.8279480934143	0.09992098808288574
8	22.071285009384155	response	2	2		6.0	2.5	/experiments/knapen_aot/videos/R_S_yt-4ouMuGUuPHI_193.mp4	0.0	90.90295600891113	
9	22.096198081970215	fix_pre	0		39.0	7.0	2.5	blank	1.0	90.92786908149719	0.3249959945678711
9	22.412993907928467	response	0	2		7.0	2.5	blank	1.0	91.24466490745544	
9	22.421194076538086	movie	1		301.0	7.0	2.5	blank	1.0	91.25286507606506	2.508410930633545
9	24.92960500717163	fix_post	2		12.0	7.0	2.5	blank	1.0	93.76127600669861	0.09988188743591309
10	25.029486894607544	fix_pre	0		14.0	8.0	2.5	/experiments/knapen_aot/videos/R_S_yt-O_6CyqHeJig_132.mp4	0.0	93.86115789413452	0.11670517921447754
10	25.137871026992798	response	0	2		8.0	2.5	/experiments/knapen_aot/videos/R_S_yt-O_6CyqHeJig_132.mp4	0.0	93.96954202651978	
10	25.14619207382202	movie	1		301.0	8.0	2.5	/experiments/knapen_aot/videos/R_S_yt-O_6CyqHeJig_132.mp4	0.0	93.977863073349	2.5083818435668945
10	27.654573917388916	fix_post	2		12.0	8.0	2.5	/experiments/knapen_aot/videos/R_S_yt-O_6CyqHeJig_132.mp4	0.0	96.4862449169159	0.09998917579650879
10	27.712960958480835	response	2	2		8.0	2.5	/experiments/knapen_aot/videos/R_S_yt-O_6CyqHeJig_132.mp4	0.0	96.54463195800781	
11	27.754563093185425	fix_pre	0		40.0	9.0	2.5	/experiments/knapen_aot/videos/S_yt-wz2opOBqClo_14.mp4	0.0	96.5862340927124	0.33321595191955566
11	28.07970905303955	response	0	2		9.0	2.5	/experiments/knapen_aot/videos/S_yt-wz2opOBqClo_14.mp4	0.0	96.91138005256653	
11	28.08777904510498	movie	1		301.0	9.0	2.5	/experiments/knapen_aot/videos/S_yt-wz2opOBqClo_14.mp4	0.0	96.91945004463196	2.508424997329712
11	30.596204042434692	fix_post	2		12.0	9.0	2.5	/experiments/knapen_aot/videos/S_yt-wz2opOBqClo_14.mp4	0.0	99.42787504196167	0.09996700286865234
12	30.696171045303345	fix_pre	0		7.0	10.0	2.5	/experiments/knapen_aot/videos/S_yt-XY1n_Oze1kQ_9.mp4	0.0	99.52784204483032	0.058506011962890625
12	30.74622106552124	response	0	2		10.0	2.5	/experiments/knapen_aot/videos/S_yt-XY1n_Oze1kQ_9.mp4	0.0	99.57789206504822	
12	30.754677057266235	movie	1		301.0	10.0	2.5	/experiments/knapen_aot/videos/S_yt-XY1n_Oze1kQ_9.mp4	0.0	99.58634805679321	2.5081489086151123
12	33.26282596588135	fix_post	2		12.0	10.0	2.5	/experiments/knapen_aot/videos/S_yt-XY1n_Oze1kQ_9.mp4	0.0	102.09449696540833	0.09999394416809082
13	33.36281991004944	fix_pre	0		3.0	11.0	2.5	/experiments/knapen_aot/videos/R_S_ILSVRC2015_train_00768000.mp4	0.0	102.19449090957642	0.025527000427246094
13	33.37963509559631	response	0	2		11.0	2.5	/experiments/knapen_aot/videos/R_S_ILSVRC2015_train_00768000.mp4	0.0	102.21130609512329	
13	33.388346910476685	movie	1		301.0	11.0	2.5	/experiments/knapen_aot/videos/R_S_ILSVRC2015_train_00768000.mp4	0.0	102.22001791000366	2.507866144180298
13	35.89621305465698	fix_post	2		12.0	11.0	2.5	/experiments/knapen_aot/videos/R_S_ILSVRC2015_train_00768000.mp4	0.0	104.72788405418396	0.09995698928833008
14	35.99617004394531	fix_pre	0		14.0	12.0	2.5	blank	1.0	104.82784104347229	0.1166849136352539
14	36.10461688041687	response	0	2		12.0	2.5	blank	1.0	104.93628787994385	
14	36.112854957580566	movie	1		301.0	12.0	2.5	blank	1.0	104.94452595710754	2.508254051208496
14	38.62110900878906	fix_post	2		12.0	12.0	2.5	blank	1.0	107.45278000831604	0.1005399227142334
15	38.721648931503296	fix_pre	0		54.0	13.0	2.5	/experiments/knapen_aot/videos/S_ILSVRC2015_train_00323000.mp4	0.0	107.55331993103027	0.44940710067749023
15	39.16286587715149	response	0	2		13.0	2.5	/experiments/knapen_aot/videos/S_ILSVRC2015_train_00323000.mp4	0.0	107.99453687667847	
15	39.171056032180786	movie	1		301.0	13.0	2.5	/experiments/knapen_aot/videos/S_ILSVRC2015_train_00323000.mp4	0.0	108.00272703170776	2.508349895477295
15	41.67940592765808	fix_post	2		12.0	13.0	2.5	/experiments/knapen_aot/videos/S_ILSVRC2015_train_00323000.mp4	0.0	110.51107692718506	0.10005497932434082
15	41.77114701271057	response	2	2		13.0	2.5	/experiments/knapen_aot/videos/S_ILSVRC2015_train_00323000.mp4	0.0	110.60281801223755	
16	41.77946090698242	fix_pre	0		49.0	14.0	2.5	/experiments/knapen_aot/videos/S_yt-mJzkLd3Mr_c_35.mp4	0.0	110.6111319065094	0.40838098526000977
16	42.179481983184814	response	0	2		14.0	2.5	/experiments/knapen_aot/videos/S_yt-mJzkLd3Mr_c_35.mp4	0.0	111.01115298271179	
16	42.18784189224243	movie	1		301.0	14.0	2.5	/experiments/knapen_aot/videos/S_yt-mJzkLd3Mr_c_35.mp4	0.0	111.01951289176941	2.5082921981811523
16	44.696134090423584	fix_post	2		12.0	14.0	2.5	/experiments/knapen_aot/videos/S_yt-mJzkLd3Mr_c_35.mp4	0.0	113.52780508995056	0.09998679161071777
17	44.7961208820343	fix_pre	0		19.0	15.0	2.5	/experiments/knapen_aot/videos/R_S_yt-hMyqUMAbFAk_303.mp4	0.0	113.62779188156128	0.15825510025024414
17	44.93871092796326	response	0	2		15.0	2.5	/experiments/knapen_aot/videos/R_S_yt-hMyqUMAbFAk_303.mp4	0.0	113.77038192749023	
17	44.954375982284546	movie	1		301.0	15.0	2.5	/experiments/knapen_aot/videos/R_S_yt-hMyqUMAbFAk_303.mp4	0.0	113.78604698181152	2.508650064468384
17	47.46302604675293	fix_post	2		12.0	15.0	2.5	/experiments/knapen_aot/videos/R_S_yt-hMyqUMAbFAk_303.mp4	0.0	116.29469704627991	0.09976983070373535
17	47.505309104919434	response	2	2		15.0	2.5	/experiments/knapen_aot/videos/R_S_yt-hMyqUMAbFAk_303.mp4	0.0	116.33698010444641	
18	47.562795877456665	fix_pre	0		35.0	16.0	2.5	/experiments/knapen_aot/videos/R_S_yt--JnTDuElzXQ_121.mp4	0.0	116.39446687698364	0.2916140556335449
18	47.846165895462036	response	0	2		16.0	2.5	/experiments/knapen_aot/videos/R_S_yt--JnTDuElzXQ_121.mp4	0.0	116.67783689498901	
18	47.85440993309021	movie	1		301.0	16.0	2.5	/experiments/knapen_aot/videos/R_S_yt--JnTDuElzXQ_121.mp4	0.0	116.68608093261719	2.508362054824829
18	50.36277198791504	fix_post	2		12.0	16.0	2.5	/experiments/knapen_aot/videos/R_S_yt--JnTDuElzXQ_121.mp4	0.0	119.19444298744202	0.100006103515625
19	50.462778091430664	fix_pre	0		20.0	17.0	2.5	/experiments/knapen_aot/videos/R_S_pexels-rodnae-productions-5993237.mp4	0.0	119.29444909095764	0.16662096977233887
19	50.62112903594971	response	0	2		17.0	2.5	/experiments/knapen_aot/videos/R_S_pexels-rodnae-productions-5993237.mp4	0.0	119.45280003547668	
19	50.629399061203	movie	1		167.0	17.0	2.5	/experiments/knapen_aot/videos/R_S_pexels-rodnae-productions-5993237.mp4	0.0	119.46107006072998	2.508366823196411
19	53.137765884399414	fix_post	2		12.0	17.0	2.5	/experiments/knapen_aot/videos/R_S_pexels-rodnae-productions-5993237.mp4	0.0	121.96943688392639	0.10010218620300293
20	53.23786807060242	fix_pre	0		17.0	18.0	2.5	/experiments/knapen_aot/videos/R_S_yt-XpM1Jtwlvvk_42.mp4	0.0	122.0695390701294	0.14152097702026367
20	53.37112593650818	response	0	2		18.0	2.5	/experiments/knapen_aot/videos/R_S_yt-XpM1Jtwlvvk_42.mp4	0.0	122.20279693603516	
20	53.37938904762268	movie	1		301.0	18.0	2.5	/experiments/knapen_aot/videos/R_S_yt-XpM1Jtwlvvk_42.mp4	0.0	122.21106004714966	2.508375883102417
20	55.8877649307251	fix_post	2		12.0	18.0	2.5	/experiments/knapen_aot/videos/R_S_yt-XpM1Jtwlvvk_42.mp4	0.0	124.71943593025208	0.09999513626098633
21	55.987760066986084	fix_pre	0		23.0	19.0	2.5	blank	1.0	124.81943106651306	0.19195985794067383
21	56.163654088974	response	0	2		19.0	2.5	blank	1.0	124.99532508850098	
21	56.17971992492676	movie	1		301.0	19.0	2.5	blank	1.0	125.01139092445374	2.507991075515747
21	58.687711000442505	fix_post	2		12.0	19.0	2.5	blank	1.0	127.51938199996948	0.100006103515625
22	58.78771710395813	fix_pre	0		99.0	20.0	2.5	/experiments/knapen_aot/videos/S_ILSVRC2015_train_00322000.mp4	0.0	127.61938810348511	0.8249509334564209
22	59.604536056518555	response	0	2		20.0	2.5	/experiments/knapen_aot/videos/S_ILSVRC2015_train_00322000.mp4	0.0	128.43620705604553	
22	59.61266803741455	movie	1		301.0	20.0	2.5	/experiments/knapen_aot/videos/S_ILSVRC2015_train_00322000.mp4	0.0	128.44433903694153	2.5087530612945557
22	62.121421098709106	fix_post	2		12.0	20.0	2.5	/experiments/knapen_aot/videos/S_ILSVRC2015_train_00322000.mp4	0.0	130.95309209823608	0.09998178482055664
23	62.22140288352966	fix_pre	0		13.0	21.0	2.5	/experiments/knapen_aot/videos/S_yt-HoRtvVuuvOs_5.mp4	0.0	131.05307388305664	0.10793900489807129
23	62.32117199897766	response	0	2		21.0	2.5	/experiments/knapen_aot/videos/S_yt-HoRtvVuuvOs_5.mp4	0.0	131.15284299850464	
23	62.329341888427734	movie	1		301.0	21.0	2.5	/experiments/knapen_aot/videos/S_yt-HoRtvVuuvOs_5.mp4	0.0	131.1610128879547	2.5085442066192627
23	64.837886095047	fix_post	2		12.0	21.0	2.5	/experiments/knapen_aot/videos/S_yt-HoRtvVuuvOs_5.mp4	0.0	133.66955709457397	0.09983301162719727
24	64.9377191066742	fix_pre	0		30.0	22.0	2.5	/experiments/knapen_aot/videos/R_S_yt-GOgS--rzmKQ_51.mp4	0.0	133.76939010620117	0.24987292289733887
24	65.1794068813324	response	0	2		22.0	2.5	/experiments/knapen_aot/videos/R_S_yt-GOgS--rzmKQ_51.mp4	0.0	134.01107788085938	
24	65.18759202957153	movie	1		301.0	22.0	2.5	/experiments/knapen_aot/videos/R_S_yt-GOgS--rzmKQ_51.mp4	0.0	134.0192630290985	2.5084118843078613
24	67.6960039138794	fix_post	2		12.0	22.0	2.5	/experiments/knapen_aot/videos/R_S_yt-GOgS--rzmKQ_51.mp4	0.0	136.52767491340637	0.10004496574401855
25	67.79604887962341	fix_pre	0		18.0	23.0	2.5	/experiments/knapen_aot/videos/S_P005_C002_UHD_SDR_2K_AVC.mp4	0.0	136.6277198791504	0.14993000030517578
25	67.93778705596924	response	0	2		23.0	2.5	/experiments/knapen_aot/videos/S_P005_C002_UHD_SDR_2K_AVC.mp4	0.0	136.76945805549622	
25	67.94597887992859	movie	1		171.0	23.0	2.5	/experiments/knapen_aot/videos/S_P005_C002_UHD_SDR_2K_AVC.mp4	0.0	136.77764987945557	2.5083060264587402
25	70.45428490638733	fix_post	2		12.0	23.0	2.5	/experiments/knapen_aot/videos/S_P005_C002_UHD_SDR_2K_AVC.mp4	0.0	139.2859559059143	0.10004901885986328
26	70.55433392524719	fix_pre	0		20.0	24.0	2.5	/experiments/knapen_aot/videos/S_yt-1UFhynm5g6Y_266.mp4	0.0	139.38600492477417	0.1668701171875
26	70.71276307106018	response	0	2		24.0	2.5	/experiments/knapen_aot/videos/S_yt-1UFhynm5g6Y_266.mp4	0.0	139.54443407058716	
26	70.72120404243469	movie	1		301.0	24.0	2.5	/experiments/knapen_aot/videos/S_yt-1UFhynm5g6Y_266.mp4	0.0	139.55287504196167	2.5081188678741455
26	73.22932291030884	fix_post	2		12.0	24.0	2.5	/experiments/knapen_aot/videos/S_yt-1UFhynm5g6Y_266.mp4	0.0	142.06099390983582	0.0999760627746582
27	73.3292989730835	fix_pre	0		36.0	25.0	2.5	/experiments/knapen_aot/videos/S_yt-zhQ32_OayBQ_39.mp4	0.0	142.16096997261047	0.29999494552612305
27	73.6210629940033	response	0	2		25.0	2.5	/experiments/knapen_aot/videos/S_yt-zhQ32_OayBQ_39.mp4	0.0	142.45273399353027	
27	73.62929391860962	movie	1		301.0	25.0	2.5	/experiments/knapen_aot/videos/S_yt-zhQ32_OayBQ_39.mp4	0.0	142.4609649181366	2.5086309909820557
27	76.13792490959167	fix_post	2		12.0	25.0	2.5	/experiments/knapen_aot/videos/S_yt-zhQ32_OayBQ_39.mp4	0.0	144.96959590911865	0.0998070240020752
28	76.23773193359375	fix_pre	0		49.0	26.0	2.5	blank	1.0	145.06940293312073	0.4081699848175049
28	76.63784790039062	response	0	2		26.0	2.5	blank	1.0	145.4695188999176	
28	76.64590191841125	movie	1		301.0	26.0	2.5	blank	1.0	145.47757291793823	2.508500099182129
28	79.15440201759338	fix_post	2		12.0	26.0	2.5	blank	1.0	147.98607301712036	0.0998690128326416
29	79.25427103042603	fix_pre	0		161.0	27.0	2.5	/experiments/knapen_aot/videos/R_S_yt-Rqwi-Fk9IJQ_114.mp4	0.0	148.085942029953	1.3418309688568115
29	80.58767008781433	response	0	2		27.0	2.5	/experiments/knapen_aot/videos/R_S_yt-Rqwi-Fk9IJQ_114.mp4	0.0	149.4193410873413	
29	80.59610199928284	movie	1		301.0	27.0	2.5	/experiments/knapen_aot/videos/R_S_yt-Rqwi-Fk9IJQ_114.mp4	0.0	149.42777299880981	2.5081939697265625
29	83.1042959690094	fix_post	2		12.0	27.0	2.5	/experiments/knapen_aot/videos/R_S_yt-Rqwi-Fk9IJQ_114.mp4	0.0	151.93596696853638	0.09999990463256836
30	83.20429587364197	fix_pre	0		14.0	28.0	2.5	/experiments/knapen_aot/videos/S_comp_GMT110_112NC_364D_1054_AURORA_ANTARTICA__COMP_FINAL_v34_PS_SDR_20181107_SDR_2K_AVC.mp4	0.0	152.03596687316895	0.1166391372680664
30	83.31263089179993	response	0	2		28.0	2.5	/experiments/knapen_aot/videos/S_comp_GMT110_112NC_364D_1054_AURORA_ANTARTICA__COMP_FINAL_v34_PS_SDR_20181107_SDR_2K_AVC.mp4	0.0	152.1443018913269	
30	83.32093501091003	movie	1		164.0	28.0	2.5	/experiments/knapen_aot/videos/S_comp_GMT110_112NC_364D_1054_AURORA_ANTARTICA__COMP_FINAL_v34_PS_SDR_20181107_SDR_2K_AVC.mp4	0.0	152.152606010437	2.5083398818969727
30	85.829274892807	fix_post	2		12.0	28.0	2.5	/experiments/knapen_aot/videos/S_comp_GMT110_112NC_364D_1054_AURORA_ANTARTICA__COMP_FINAL_v34_PS_SDR_20181107_SDR_2K_AVC.mp4	0.0	154.66094589233398	0.100189208984375
31	85.92946410179138	fix_pre	0		15.0	29.0	2.5	/experiments/knapen_aot/videos/R_S_ILSVRC2015_train_00696000.mp4	0.0	154.76113510131836	0.1248929500579834
31	86.04605793952942	response	0	2		29.0	2.5	/experiments/knapen_aot/videos/R_S_ILSVRC2015_train_00696000.mp4	0.0	154.8777289390564	
31	86.05435705184937	movie	1		301.0	29.0	2.5	/experiments/knapen_aot/videos/R_S_ILSVRC2015_train_00696000.mp4	0.0	154.88602805137634	2.50815486907959
31	88.56251192092896	fix_post	2		12.0	29.0	2.5	/experiments/knapen_aot/videos/R_S_ILSVRC2015_train_00696000.mp4	0.0	157.39418292045593	0.10010194778442383
31	88.60437798500061	response	2	2		29.0	2.5	/experiments/knapen_aot/videos/R_S_ILSVRC2015_train_00696000.mp4	0.0	157.4360489845276	
32	88.66261386871338	fix_pre	0		34.0	30.0	2.5	/experiments/knapen_aot/videos/R_S_yt-TvU-aYjNa2c_21.mp4	0.0	157.49428486824036	0.2832942008972168
32	88.93764805793762	response	0	2		30.0	2.5	/experiments/knapen_aot/videos/R_S_yt-TvU-aYjNa2c_21.mp4	0.0	157.7693190574646	
32	88.9459080696106	movie	1		301.0	30.0	2.5	/experiments/knapen_aot/videos/R_S_yt-TvU-aYjNa2c_21.mp4	0.0	157.77757906913757	2.508589029312134
32	91.45449709892273	fix_post	2		12.0	30.0	2.5	/experiments/knapen_aot/videos/R_S_yt-TvU-aYjNa2c_21.mp4	0.0	160.2861680984497	0.09992599487304688
33	91.55442309379578	fix_pre	0		14.0	31.0	2.5	/experiments/knapen_aot/videos/R_S_comp_GMT110_112NC_364D_1054_AURORA_ANTARTICA__COMP_FINAL_v34_PS_SDR_20181107_SDR_2K_AVC.mp4	0.0	160.38609409332275	0.1164548397064209
33	91.66256189346313	response	0	2		31.0	2.5	/experiments/knapen_aot/videos/R_S_comp_GMT110_112NC_364D_1054_AURORA_ANTARTICA__COMP_FINAL_v34_PS_SDR_20181107_SDR_2K_AVC.mp4	0.0	160.4942328929901	
33	91.6708779335022	movie	1		164.0	31.0	2.5	/experiments/knapen_aot/videos/R_S_comp_GMT110_112NC_364D_1054_AURORA_ANTARTICA__COMP_FINAL_v34_PS_SDR_20181107_SDR_2K_AVC.mp4	0.0	160.50254893302917	2.508519172668457
33	94.17939710617065	fix_post	2		12.0	31.0	2.5	/experiments/knapen_aot/videos/R_S_comp_GMT110_112NC_364D_1054_AURORA_ANTARTICA__COMP_FINAL_v34_PS_SDR_20181107_SDR_2K_AVC.mp4	0.0	163.01106810569763	0.09991979598999023
33	94.22115206718445	response	2	2		31.0	2.5	/experiments/knapen_aot/videos/R_S_comp_GMT110_112NC_364D_1054_AURORA_ANTARTICA__COMP_FINAL_v34_PS_SDR_20181107_SDR_2K_AVC.mp4	0.0	163.05282306671143	
34	94.27931690216064	fix_pre	0		34.0	32.0	2.5	/experiments/knapen_aot/videos/R_S_yt-qBPDvSQD0XY_5.mp4	0.0	163.11098790168762	0.28322601318359375
34	94.55432605743408	response	0	2		32.0	2.5	/experiments/knapen_aot/videos/R_S_yt-qBPDvSQD0XY_5.mp4	0.0	163.38599705696106	
34	94.56254291534424	movie	1		301.0	32.0	2.5	/experiments/knapen_aot/videos/R_S_yt-qBPDvSQD0XY_5.mp4	0.0	163.39421391487122	2.5083250999450684
34	97.0708680152893	fix_post	2		12.0	32.0	2.5	/experiments/knapen_aot/videos/R_S_yt-qBPDvSQD0XY_5.mp4	0.0	165.90253901481628	0.10002493858337402
35	97.17089295387268	fix_pre	0		8.0	33.0	2.5	/experiments/knapen_aot/videos/R_S_comp_A006_C003_1219EE_CC_v01_SDR_PS_FINAL_20180709_SDR_2K_AVC.mp4	0.0	166.00256395339966	0.06661415100097656
35	97.22930192947388	response	0	2		33.0	2.5	/experiments/knapen_aot/videos/R_S_comp_A006_C003_1219EE_CC_v01_SDR_PS_FINAL_20180709_SDR_2K_AVC.mp4	0.0	166.06097292900085	
35	97.23750710487366	movie	1		171.0	33.0	2.5	/experiments/knapen_aot/videos/R_S_comp_A006_C003_1219EE_CC_v01_SDR_PS_FINAL_20180709_SDR_2K_AVC.mp4	0.0	166.06917810440063	2.5083658695220947
35	99.74587297439575	fix_post	2		12.0	33.0	2.5	/experiments/knapen_aot/videos/R_S_comp_A006_C003_1219EE_CC_v01_SDR_PS_FINAL_20180709_SDR_2K_AVC.mp4	0.0	168.57754397392273	0.10009598731994629
35	99.82087898254395	response	2	2		33.0	2.5	/experiments/knapen_aot/videos/R_S_comp_A006_C003_1219EE_CC_v01_SDR_PS_FINAL_20180709_SDR_2K_AVC.mp4	0.0	168.65254998207092	
36	99.8459689617157	fix_pre	0		37.0	34.0	2.5	blank	1.0	168.67763996124268	0.3082411289215088
36	100.14587807655334	response	0	2		34.0	2.5	blank	1.0	168.97754907608032	
36	100.1542100906372	movie	1		301.0	34.0	2.5	blank	1.0	168.98588109016418	2.5083329677581787
36	102.66254305839539	fix_post	2		12.0	34.0	2.5	blank	1.0	171.49421405792236	0.10013699531555176
37	102.76268005371094	fix_pre	0		27.0	35.0	2.5	/experiments/knapen_aot/videos/S_yt-tEzCpMrjOHs_24.mp4	0.0	171.59435105323792	0.2247459888458252
37	102.97934103012085	response	0	2		35.0	2.5	/experiments/knapen_aot/videos/S_yt-tEzCpMrjOHs_24.mp4	0.0	171.81101202964783	
37	102.98742604255676	movie	1		301.0	35.0	2.5	/experiments/knapen_aot/videos/S_yt-tEzCpMrjOHs_24.mp4	0.0	171.81909704208374	2.5084099769592285
37	105.49583601951599	fix_post	2		12.0	35.0	2.5	/experiments/knapen_aot/videos/S_yt-tEzCpMrjOHs_24.mp4	0.0	174.32750701904297	0.1000819206237793
38	105.59591794013977	fix_pre	0		12.0	36.0	2.5	/experiments/knapen_aot/videos/S_pexels-rodnae-productions-7467585.mp4	0.0	174.42758893966675	0.09991312026977539
38	105.68761491775513	response	0	2		36.0	2.5	/experiments/knapen_aot/videos/S_pexels-rodnae-productions-7467585.mp4	0.0	174.5192859172821	
38	105.69583106040955	movie	1		168.0	36.0	2.5	/experiments/knapen_aot/videos/S_pexels-rodnae-productions-7467585.mp4	0.0	174.52750205993652	2.508327007293701
38	108.20415806770325	fix_post	2		12.0	36.0	2.5	/experiments/knapen_aot/videos/S_pexels-rodnae-productions-7467585.mp4	0.0	177.03582906723022	0.10007095336914062
39	108.30422902107239	fix_pre	0		6.0	37.0	2.5	/experiments/knapen_aot/videos/S_yt-b7bIulV49DQ_81.mp4	0.0	177.13590002059937	0.04993104934692383
39	108.34590697288513	response	0	2		37.0	2.5	/experiments/knapen_aot/videos/S_yt-b7bIulV49DQ_81.mp4	0.0	177.1775779724121	
39	108.35416007041931	movie	1		301.0	37.0	2.5	/experiments/knapen_aot/videos/S_yt-b7bIulV49DQ_81.mp4	0.0	177.1858310699463	2.50834584236145
39	110.86250591278076	fix_post	2		12.0	37.0	2.5	/experiments/knapen_aot/videos/S_yt-b7bIulV49DQ_81.mp4	0.0	179.69417691230774	0.09988713264465332
40	110.96239304542542	fix_pre	0		3.0	38.0	2.5	/experiments/knapen_aot/videos/R_S_yt-2ZsK7zSCJ2w_67.mp4	0.0	179.7940640449524	0.025094985961914062
40	110.97931599617004	response	0	2		38.0	2.5	/experiments/knapen_aot/videos/R_S_yt-2ZsK7zSCJ2w_67.mp4	0.0	179.81098699569702	
40	110.98748803138733	movie	1		301.0	38.0	2.5	/experiments/knapen_aot/videos/R_S_yt-2ZsK7zSCJ2w_67.mp4	0.0	179.8191590309143	2.5084469318389893
40	113.49593496322632	fix_post	2		12.0	38.0	2.5	/experiments/knapen_aot/videos/R_S_yt-2ZsK7zSCJ2w_67.mp4	0.0	182.3276059627533	0.09991812705993652
41	113.59585309028625	fix_pre	0		8.0	39.0	2.5	/experiments/knapen_aot/videos/R_S_yt-T7RmOAme5dU_213.mp4	0.0	182.42752408981323	0.06661200523376465
41	113.64683294296265	response	0	2		39.0	2.5	/experiments/knapen_aot/videos/R_S_yt-T7RmOAme5dU_213.mp4	0.0	182.47850394248962	
41	113.66246509552002	movie	1		301.0	39.0	2.5	/experiments/knapen_aot/videos/R_S_yt-T7RmOAme5dU_213.mp4	0.0	182.494136095047	2.5083699226379395
41	116.17083501815796	fix_post	2		12.0	39.0	2.5	/experiments/knapen_aot/videos/R_S_yt-T7RmOAme5dU_213.mp4	0.0	185.00250601768494	0.09996390342712402
42	116.27079892158508	fix_pre	0		9.0	40.0	2.5	blank	1.0	185.10246992111206	0.07517099380493164
42	116.33757901191711	response	0	2		40.0	2.5	blank	1.0	185.1692500114441	
42	116.34596991539001	movie	1		301.0	40.0	2.5	blank	1.0	185.177640914917	2.508146047592163
42	118.85411596298218	fix_post	2		12.0	40.0	2.5	blank	1.0	187.68578696250916	0.09996700286865234
43	118.95408296585083	fix_pre	0		53.0	41.0	2.5	/experiments/knapen_aot/videos/S_yt-Rqwi-Fk9IJQ_114.mp4	0.0	187.7857539653778	0.44164109230041504
43	119.38762092590332	response	0	2		41.0	2.5	/experiments/knapen_aot/videos/S_yt-Rqwi-Fk9IJQ_114.mp4	0.0	188.2192919254303	
43	119.39572405815125	movie	1		301.0	41.0	2.5	/experiments/knapen_aot/videos/S_yt-Rqwi-Fk9IJQ_114.mp4	0.0	188.22739505767822	2.5083119869232178
43	121.90403604507446	fix_post	2		12.0	41.0	2.5	/experiments/knapen_aot/videos/S_yt-Rqwi-Fk9IJQ_114.mp4	0.0	190.73570704460144	0.10009288787841797
44	122.00412893295288	fix_pre	0		17.0	42.0	2.5	/experiments/knapen_aot/videos/R_S_yt-XbigWWtnGL4_75.mp4	0.0	190.83579993247986	0.14161109924316406
44	122.12998294830322	response	0	2		42.0	2.5	/experiments/knapen_aot/videos/R_S_yt-XbigWWtnGL4_75.mp4	0.0	190.9616539478302	
44	122.14574003219604	movie	1		301.0	42.0	2.5	/experiments/knapen_aot/videos/R_S_yt-XbigWWtnGL4_75.mp4	0.0	190.97741103172302	2.5083320140838623
44	124.65407204627991	fix_post	2		12.0	42.0	2.5	/experiments/knapen_aot/videos/R_S_yt-XbigWWtnGL4_75.mp4	0.0	193.48574304580688	0.10004997253417969
45	124.75412201881409	fix_pre	0		7.0	43.0	2.5	/experiments/knapen_aot/videos/S_Y002_C013_SDR_2K_AVC.mp4	0.0	193.58579301834106	0.058296918869018555
45	124.80416202545166	response	0	2		43.0	2.5	/experiments/knapen_aot/videos/S_Y002_C013_SDR_2K_AVC.mp4	0.0	193.63583302497864	
45	124.8124189376831	movie	1		176.0	43.0	2.5	/experiments/knapen_aot/videos/S_Y002_C013_SDR_2K_AVC.mp4	0.0	193.64408993721008	2.508357048034668
45	127.32077598571777	fix_post	2		12.0	43.0	2.5	/experiments/knapen_aot/videos/S_Y002_C013_SDR_2K_AVC.mp4	0.0	196.15244698524475	0.09998703002929688
45	127.36255192756653	response	2	2		43.0	2.5	/experiments/knapen_aot/videos/S_Y002_C013_SDR_2K_AVC.mp4	0.0	196.1942229270935	
46	127.42076301574707	fix_pre	0		34.0	44.0	2.5	/experiments/knapen_aot/videos/S_yt-zSSnQYeO_DE_338.mp4	0.0	196.25243401527405	0.2833108901977539
46	127.69584894180298	response	0	2		44.0	2.5	/experiments/knapen_aot/videos/S_yt-zSSnQYeO_DE_338.mp4	0.0	196.52751994132996	
46	127.70407390594482	movie	1		301.0	44.0	2.5	/experiments/knapen_aot/videos/S_yt-zSSnQYeO_DE_338.mp4	0.0	196.5357449054718	2.5083210468292236
46	130.21239495277405	fix_post	2		12.0	44.0	2.5	/experiments/knapen_aot/videos/S_yt-zSSnQYeO_DE_338.mp4	0.0	199.04406595230103	0.10000205039978027
47	130.31239700317383	fix_pre	0		11.0	45.0	2.5	/experiments/knapen_aot/videos/S_yt-kXarkCFJLeg_46.mp4	0.0	199.1440680027008	0.09165596961975098
47	130.39582109451294	response	0	2		45.0	2.5	/experiments/knapen_aot/videos/S_yt-kXarkCFJLeg_46.mp4	0.0	199.22749209403992	
47	130.40405297279358	movie	1		301.0	45.0	2.5	/experiments/knapen_aot/videos/S_yt-kXarkCFJLeg_46.mp4	0.0	199.23572397232056	2.5083580017089844
47	132.91241097450256	fix_post	2		12.0	45.0	2.5	/experiments/knapen_aot/videos/S_yt-kXarkCFJLeg_46.mp4	0.0	201.74408197402954	0.09994006156921387
48	133.01235103607178	fix_pre	0		23.0	46.0	2.5	/experiments/knapen_aot/videos/S_ILSVRC2015_train_00549000.mp4	0.0	201.84402203559875	0.19167089462280273
48	133.19579100608826	response	0	2		46.0	2.5	/experiments/knapen_aot/videos/S_ILSVRC2015_train_00549000.mp4	0.0	202.02746200561523	
48	133.20402193069458	movie	1		301.0	46.0	2.5	/experiments/knapen_aot/videos/S_ILSVRC2015_train_00549000.mp4	0.0	202.03569293022156	2.5084400177001953
48	135.71246194839478	fix_post	2		12.0	46.0	2.5	/experiments/knapen_aot/videos/S_ILSVRC2015_train_00549000.mp4	0.0	204.54413294792175	0.1001429557800293
49	135.8126049041748	fix_pre	0		14.0	47.0	2.5	blank	1.0	204.64427590370178	0.11646509170532227
49	135.92091298103333	response	0	2		47.0	2.5	blank	1.0	204.7525839805603	
49	135.92906999588013	movie	1		301.0	47.0	2.5	blank	1.0	204.7607409954071	2.5082509517669678
49	138.4373209476471	fix_post	2		12.0	47.0	2.5	blank	1.0	207.26899194717407	0.10003805160522461
50	138.53735899925232	fix_pre	0		32.0	48.0	2.5	/experiments/knapen_aot/videos/S_yt-rZA9zXR-A6s_426.mp4	0.0	207.3690299987793	0.26670098304748535
50	138.7957820892334	response	0	2		48.0	2.5	/experiments/knapen_aot/videos/S_yt-rZA9zXR-A6s_426.mp4	0.0	207.62745308876038	
50	138.8040599822998	movie	1		301.0	48.0	2.5	/experiments/knapen_aot/videos/S_yt-rZA9zXR-A6s_426.mp4	0.0	207.63573098182678	2.5083000659942627
50	141.31236004829407	fix_post	2		12.0	48.0	2.5	/experiments/knapen_aot/videos/S_yt-rZA9zXR-A6s_426.mp4	0.0	210.14403104782104	0.10000205039978027
51	141.41236209869385	fix_pre	0		22.0	49.0	2.5	/experiments/knapen_aot/videos/S_wc-1MzpHfRq1MUK_32.mp4	0.0	210.24403309822083	0.18334197998046875
51	141.58749294281006	response	0	2		49.0	2.5	/experiments/knapen_aot/videos/S_wc-1MzpHfRq1MUK_32.mp4	0.0	210.41916394233704	
51	141.59570407867432	movie	1		301.0	49.0	2.5	/experiments/knapen_aot/videos/S_wc-1MzpHfRq1MUK_32.mp4	0.0	210.4273750782013	2.5082788467407227
51	144.10398292541504	fix_post	2		12.0	49.0	2.5	/experiments/knapen_aot/videos/S_wc-1MzpHfRq1MUK_32.mp4	0.0	212.93565392494202	0.10019207000732422
52	144.20417499542236	fix_pre	0		60.0	50.0	2.5	/experiments/knapen_aot/videos/S_yt-158C6xUMi5Y_75.mp4	0.0	213.03584599494934	0.499798059463501
52	144.68817901611328	response	0	2		50.0	2.5	/experiments/knapen_aot/videos/S_yt-158C6xUMi5Y_75.mp4	0.0	213.51985001564026	
52	144.70397305488586	movie	1		301.0	50.0	2.5	/experiments/knapen_aot/videos/S_yt-158C6xUMi5Y_75.mp4	0.0	213.53564405441284	2.5083768367767334
52	147.2123498916626	fix_post	2		12.0	50.0	2.5	/experiments/knapen_aot/videos/S_yt-158C6xUMi5Y_75.mp4	0.0	216.04402089118958	0.09999513626098633
53	147.31234502792358	fix_pre	0		390.0	51.0	2.5	/experiments/knapen_aot/videos/R_S_yt-uY5xsUKn8zU_17.mp4	0.0	216.14401602745056	3.2499120235443115
53	150.55406594276428	response	0	2		51.0	2.5	/experiments/knapen_aot/videos/R_S_yt-uY5xsUKn8zU_17.mp4	0.0	219.38573694229126	
53	150.5622570514679	movie	1		301.0	51.0	2.5	/experiments/knapen_aot/videos/R_S_yt-uY5xsUKn8zU_17.mp4	0.0	219.39392805099487	2.5085089206695557
53	153.07076597213745	fix_post	2		12.0	51.0	2.5	/experiments/knapen_aot/videos/R_S_yt-uY5xsUKn8zU_17.mp4	0.0	221.90243697166443	0.09992504119873047
54	153.17069101333618	fix_pre	0		11.0	52.0	2.5	/experiments/knapen_aot/videos/S_MEX_A006_C008_SDR_20190923_SDR_2K_AVC.mp4	0.0	222.00236201286316	0.09163093566894531
54	153.2541389465332	response	0	2		52.0	2.5	/experiments/knapen_aot/videos/S_MEX_A006_C008_SDR_20190923_SDR_2K_AVC.mp4	0.0	222.08580994606018	
54	153.26232194900513	movie	1		167.0	52.0	2.5	/experiments/knapen_aot/videos/S_MEX_A006_C008_SDR_20190923_SDR_2K_AVC.mp4	0.0	222.0939929485321	2.50832200050354
54	155.77064394950867	fix_post	2		12.0	52.0	2.5	/experiments/knapen_aot/videos/S_MEX_A006_C008_SDR_20190923_SDR_2K_AVC.mp4	0.0	224.60231494903564	0.09998202323913574
54	155.81238293647766	response	2	2		52.0	2.5	/experiments/knapen_aot/videos/S_MEX_A006_C008_SDR_20190923_SDR_2K_AVC.mp4	0.0	224.64405393600464	
55	155.8706259727478	fix_pre	0		36.0	53.0	2.5	/experiments/knapen_aot/videos/R_S_yt-F3hhts3bwWg_25.mp4	0.0	224.70229697227478	0.30116796493530273
55	156.16236996650696	response	0	2		53.0	2.5	/experiments/knapen_aot/videos/R_S_yt-F3hhts3bwWg_25.mp4	0.0	224.99404096603394	
55	156.1717939376831	movie	1		301.0	53.0	2.5	/experiments/knapen_aot/videos/R_S_yt-F3hhts3bwWg_25.mp4	0.0	225.00346493721008	2.5071680545806885
55	158.6789619922638	fix_post	2		12.0	53.0	2.5	/experiments/knapen_aot/videos/R_S_yt-F3hhts3bwWg_25.mp4	0.0	227.51063299179077	0.09994196891784668
56	158.77890396118164	fix_pre	0		4.0	54.0	2.5	/experiments/knapen_aot/videos/S_P001_C005_UHD_SDR_2K_AVC.mp4	0.0	227.61057496070862	0.0333709716796875
56	158.80409693717957	response	0	2		54.0	2.5	/experiments/knapen_aot/videos/S_P001_C005_UHD_SDR_2K_AVC.mp4	0.0	227.63576793670654	
56	158.81227493286133	movie	1		168.0	54.0	2.5	/experiments/knapen_aot/videos/S_P001_C005_UHD_SDR_2K_AVC.mp4	0.0	227.6439459323883	2.508352041244507
56	161.32062697410583	fix_post	2		12.0	54.0	2.5	/experiments/knapen_aot/videos/S_P001_C005_UHD_SDR_2K_AVC.mp4	0.0	230.1522979736328	0.09993600845336914
56	161.39568996429443	response	2	2		54.0	2.5	/experiments/knapen_aot/videos/S_P001_C005_UHD_SDR_2K_AVC.mp4	0.0	230.2273609638214	
57	161.4205629825592	fix_pre	0		83.0	55.0	2.5	/experiments/knapen_aot/videos/S_yt-szXWk_X_67Q_10.mp4	0.0	230.25223398208618	0.691680908203125
57	162.0964639186859	response	0	2		55.0	2.5	/experiments/knapen_aot/videos/S_yt-szXWk_X_67Q_10.mp4	0.0	230.9281349182129	
57	162.11224389076233	movie	1		301.0	55.0	2.5	/experiments/knapen_aot/videos/S_yt-szXWk_X_67Q_10.mp4	0.0	230.9439148902893	2.508350133895874
57	164.6205940246582	fix_post	2		12.0	55.0	2.5	/experiments/knapen_aot/videos/S_yt-szXWk_X_67Q_10.mp4	0.0	233.45226502418518	0.10002398490905762
58	164.72061800956726	fix_pre	0		11.0	56.0	2.5	blank	1.0	233.55228900909424	0.0918729305267334
58	164.79647994041443	response	0	2		56.0	2.5	blank	1.0	233.6281509399414	
58	164.812490940094	movie	1		301.0	56.0	2.5	blank	1.0	233.64416193962097	2.5080599784851074
58	167.3205509185791	fix_post	2		12.0	56.0	2.5	blank	1.0	236.15222191810608	0.10001611709594727
59	167.42056703567505	fix_pre	0		15.0	57.0	2.5	/experiments/knapen_aot/videos/S_yt-aiDGx4AN8J0_9.mp4	0.0	236.25223803520203	0.12616491317749023
59	167.5372920036316	response	0	2		57.0	2.5	/experiments/knapen_aot/videos/S_yt-aiDGx4AN8J0_9.mp4	0.0	236.36896300315857	
59	167.54673194885254	movie	1		301.0	57.0	2.5	/experiments/knapen_aot/videos/S_yt-aiDGx4AN8J0_9.mp4	0.0	236.37840294837952	2.5071449279785156
59	170.05387687683105	fix_post	2		11.0	57.0	2.5	/experiments/knapen_aot/videos/S_yt-aiDGx4AN8J0_9.mp4	0.0	238.88554787635803	0.09163808822631836
59	170.13744497299194	response	2	2		57.0	2.5	/experiments/knapen_aot/videos/S_yt-aiDGx4AN8J0_9.mp4	0.0	238.96911597251892	
60	170.14551496505737	fix_pre	0		51.0	58.0	2.5	/experiments/knapen_aot/videos/R_S_yt--vHa85DHvLU_31.mp4	0.0	238.97718596458435	0.42503905296325684
60	170.56221795082092	response	0	2		58.0	2.5	/experiments/knapen_aot/videos/R_S_yt--vHa85DHvLU_31.mp4	0.0	239.3938889503479	
60	170.57055401802063	movie	1		301.0	58.0	2.5	/experiments/knapen_aot/videos/R_S_yt--vHa85DHvLU_31.mp4	0.0	239.4022250175476	2.508331060409546
60	173.07888507843018	fix_post	2		12.0	58.0	2.5	/experiments/knapen_aot/videos/R_S_yt--vHa85DHvLU_31.mp4	0.0	241.91055607795715	0.09999585151672363
61	173.1788809299469	fix_pre	0		2.0	59.0	2.5	/experiments/knapen_aot/videos/S_yt-4ouMuGUuPHI_193.mp4	0.0	242.01055192947388	0.01665210723876953
61	173.1872820854187	response	0	2		59.0	2.5	/experiments/knapen_aot/videos/S_yt-4ouMuGUuPHI_193.mp4	0.0	242.01895308494568	
61	173.19553303718567	movie	1		301.0	59.0	2.5	/experiments/knapen_aot/videos/S_yt-4ouMuGUuPHI_193.mp4	0.0	242.02720403671265	2.5083630084991455
61	175.70389604568481	fix_post	2		12.0	59.0	2.5	/experiments/knapen_aot/videos/S_yt-4ouMuGUuPHI_193.mp4	0.0	244.5355670452118	0.09994983673095703
62	175.80384588241577	fix_pre	0		4.0	60.0	2.5	/experiments/knapen_aot/videos/R_S_yt-YFl_NAWBFAw_166.mp4	0.0	244.63551688194275	0.034426212310791016
62	175.82900404930115	response	0	2		60.0	2.5	/experiments/knapen_aot/videos/R_S_yt-YFl_NAWBFAw_166.mp4	0.0	244.66067504882812	
62	175.83827209472656	movie	1		301.0	60.0	2.5	/experiments/knapen_aot/videos/R_S_yt-YFl_NAWBFAw_166.mp4	0.0	244.66994309425354	2.507258892059326
62	178.3455309867859	fix_post	2		12.0	60.0	2.5	/experiments/knapen_aot/videos/R_S_yt-YFl_NAWBFAw_166.mp4	0.0	247.17720198631287	0.09998703002929688
63	178.44551801681519	fix_pre	0		5.0	61.0	2.5	/experiments/knapen_aot/videos/S_yt-BLmwmX-mni8_56.mp4	0.0	247.27718901634216	0.04168987274169922
63	178.47146105766296	response	0	2		61.0	2.5	/experiments/knapen_aot/videos/S_yt-BLmwmX-mni8_56.mp4	0.0	247.30313205718994	
63	178.48720788955688	movie	1		301.0	61.0	2.5	/experiments/knapen_aot/videos/S_yt-BLmwmX-mni8_56.mp4	0.0	247.31887888908386	2.5083401203155518
63	180.99554800987244	fix_post	2		12.0	61.0	2.5	/experiments/knapen_aot/videos/S_yt-BLmwmX-mni8_56.mp4	0.0	249.8272190093994	0.10003399848937988
64	181.09558200836182	fix_pre	0		1.0	62.0	2.5	blank	1.0	249.9272530078888	0.008250951766967773
64	181.09716486930847	response	0	2		62.0	2.5	blank	1.0	249.92883586883545	
64	181.10383296012878	movie	1		301.0	62.0	2.5	blank	1.0	249.93550395965576	2.508280038833618
64	183.6121129989624	fix_post	2		12.0	62.0	2.5	blank	1.0	252.44378399848938	0.10006403923034668
65	183.71217703819275	fix_pre	0		40.0	63.0	2.5	/experiments/knapen_aot/videos/S_yt-8N5UuN5WQcY_72.mp4	0.0	252.54384803771973	0.3343629837036133
65	184.0372109413147	response	0	2		63.0	2.5	/experiments/knapen_aot/videos/S_yt-8N5UuN5WQcY_72.mp4	0.0	252.86888194084167	
65	184.04654002189636	movie	1		301.0	63.0	2.5	/experiments/knapen_aot/videos/S_yt-8N5UuN5WQcY_72.mp4	0.0	252.87821102142334	2.5076868534088135
65	186.55422687530518	fix_post	2		12.0	63.0	2.5	/experiments/knapen_aot/videos/S_yt-8N5UuN5WQcY_72.mp4	0.0	255.38589787483215	0.0995950698852539
66	186.65382194519043	fix_pre	0		108.0	64.0	2.5	/experiments/knapen_aot/videos/S_yt-hMyqUMAbFAk_303.mp4	0.0	255.4854929447174	0.8999330997467041
66	187.5457649230957	response	0	2		64.0	2.5	/experiments/knapen_aot/videos/S_yt-hMyqUMAbFAk_303.mp4	0.0	256.3774359226227	
66	187.55375504493713	movie	1		301.0	64.0	2.5	/experiments/knapen_aot/videos/S_yt-hMyqUMAbFAk_303.mp4	0.0	256.3854260444641	2.508410930633545
66	190.06216597557068	fix_post	2		12.0	64.0	2.5	/experiments/knapen_aot/videos/S_yt-hMyqUMAbFAk_303.mp4	0.0	258.89383697509766	0.0999901294708252
67	190.1621561050415	fix_pre	0		8.0	65.0	2.5	/experiments/knapen_aot/videos/R_S_yt-3aTDYxyF6bc_35.mp4	0.0	258.9938271045685	0.06662988662719727
67	190.2204818725586	response	0	2		65.0	2.5	/experiments/knapen_aot/videos/R_S_yt-3aTDYxyF6bc_35.mp4	0.0	259.05215287208557	
67	190.2287859916687	movie	1		301.0	65.0	2.5	/experiments/knapen_aot/videos/R_S_yt-3aTDYxyF6bc_35.mp4	0.0	259.0604569911957	2.508363962173462
67	192.73714995384216	fix_post	2		12.0	65.0	2.5	/experiments/knapen_aot/videos/R_S_yt-3aTDYxyF6bc_35.mp4	0.0	261.56882095336914	0.10013103485107422
68	192.83728098869324	fix_pre	0		405.0	66.0	2.5	/experiments/knapen_aot/videos/R_S_yt-aiDGx4AN8J0_9.mp4	0.0	261.6689519882202	3.3758740425109863
68	196.20389890670776	response	0	2		66.0	2.5	/experiments/knapen_aot/videos/R_S_yt-aiDGx4AN8J0_9.mp4	0.0	265.03556990623474	
68	196.21315503120422	movie	1		301.0	66.0	2.5	/experiments/knapen_aot/videos/R_S_yt-aiDGx4AN8J0_9.mp4	0.0	265.0448260307312	2.5073039531707764
68	198.720458984375	fix_post	2		12.0	66.0	2.5	/experiments/knapen_aot/videos/R_S_yt-aiDGx4AN8J0_9.mp4	0.0	267.552129983902	0.09991598129272461
68	198.795490026474	response	2	2		66.0	2.5	/experiments/knapen_aot/videos/R_S_yt-aiDGx4AN8J0_9.mp4	0.0	267.627161026001	
69	198.82037496566772	fix_pre	0		37.0	67.0	2.5	/experiments/knapen_aot/videos/R_S_pexels-rodnae-productions-5993237.mp4	0.0	267.6520459651947	0.3094980716705322
69	199.12047791481018	response	0	2		67.0	2.5	/experiments/knapen_aot/videos/R_S_pexels-rodnae-productions-5993237.mp4	0.0	267.95214891433716	
69	199.12987303733826	movie	1		167.0	67.0	2.5	/experiments/knapen_aot/videos/R_S_pexels-rodnae-productions-5993237.mp4	0.0	267.96154403686523	2.5073139667510986
69	201.63718700408936	fix_post	2		12.0	67.0	2.5	/experiments/knapen_aot/videos/R_S_pexels-rodnae-productions-5993237.mp4	0.0	270.46885800361633	0.1000518798828125
70	201.73723888397217	fix_pre	0		23.0	68.0	2.5	/experiments/knapen_aot/videos/S_yt-AjyR9--Mx3A_44.mp4	0.0	270.56890988349915	0.1914970874786377
70	201.92040395736694	response	0	2		68.0	2.5	/experiments/knapen_aot/videos/S_yt-AjyR9--Mx3A_44.mp4	0.0	270.7520749568939	
70	201.9287359714508	movie	1		301.0	68.0	2.5	/experiments/knapen_aot/videos/S_yt-AjyR9--Mx3A_44.mp4	0.0	270.7604069709778	2.508357048034668
70	204.43709301948547	fix_post	2		12.0	68.0	2.5	/experiments/knapen_aot/videos/S_yt-AjyR9--Mx3A_44.mp4	0.0	273.26876401901245	0.0999460220336914
71	204.53703904151917	fix_pre	0		18.0	69.0	2.5	blank	1.0	273.36871004104614	0.15003395080566406
71	204.6789391040802	response	0	2		69.0	2.5	blank	1.0	273.5106101036072	
71	204.68707299232483	movie	1		301.0	69.0	2.5	blank	1.0	273.5187439918518	2.508331060409546
71	207.19540405273438	fix_post	2		12.0	69.0	2.5	blank	1.0	276.02707505226135	0.10015296936035156
72	207.29555702209473	fix_pre	0		40.0	70.0	2.5	/experiments/knapen_aot/videos/R_S_yt-dqcUJzNOzbM_156.mp4	0.0	276.1272280216217	0.33408689498901367
72	207.62046599388123	response	0	2		70.0	2.5	/experiments/knapen_aot/videos/R_S_yt-dqcUJzNOzbM_156.mp4	0.0	276.4521369934082	
72	207.62964391708374	movie	1		301.0	70.0	2.5	/experiments/knapen_aot/videos/R_S_yt-dqcUJzNOzbM_156.mp4	0.0	276.4613149166107	2.507405996322632
72	210.13704991340637	fix_post	2		12.0	70.0	2.5	/experiments/knapen_aot/videos/R_S_yt-dqcUJzNOzbM_156.mp4	0.0	278.96872091293335	0.10019612312316895
73	210.23724603652954	fix_pre	0		19.0	71.0	2.5	/experiments/knapen_aot/videos/S_yt-K7viJXt9vX8_143.mp4	0.0	279.0689170360565	0.15812087059020996
73	210.3871669769287	response	0	2		71.0	2.5	/experiments/knapen_aot/videos/S_yt-K7viJXt9vX8_143.mp4	0.0	279.2188379764557	
73	210.39536690711975	movie	1		301.0	71.0	2.5	/experiments/knapen_aot/videos/S_yt-K7viJXt9vX8_143.mp4	0.0	279.22703790664673	2.508305072784424
73	212.90367197990417	fix_post	2		12.0	71.0	2.5	/experiments/knapen_aot/videos/S_yt-K7viJXt9vX8_143.mp4	0.0	281.73534297943115	0.10099101066589355
74	213.00466299057007	fix_pre	0		5.0	72.0	2.5	/experiments/knapen_aot/videos/R_S_yt-uY5xsUKn8zU_17.mp4	0.0	281.83633399009705	0.04158806800842285
74	213.03719091415405	response	0	2		72.0	2.5	/experiments/knapen_aot/videos/R_S_yt-uY5xsUKn8zU_17.mp4	0.0	281.86886191368103	
74	213.0462510585785	movie	1		301.0	72.0	2.5	/experiments/knapen_aot/videos/R_S_yt-uY5xsUKn8zU_17.mp4	0.0	281.87792205810547	2.5075290203094482
74	215.55378007888794	fix_post	2		12.0	72.0	2.5	/experiments/knapen_aot/videos/R_S_yt-uY5xsUKn8zU_17.mp4	0.0	284.3854510784149	0.09992694854736328
75	215.6537070274353	fix_pre	0		12.0	73.0	2.5	/experiments/knapen_aot/videos/S_yt-zhQ32_OayBQ_39.mp4	0.0	284.4853780269623	0.10091996192932129
75	215.74544310569763	response	0	2		73.0	2.5	/experiments/knapen_aot/videos/S_yt-zhQ32_OayBQ_39.mp4	0.0	284.5771141052246	
75	215.75462698936462	movie	1		301.0	73.0	2.5	/experiments/knapen_aot/videos/S_yt-zhQ32_OayBQ_39.mp4	0.0	284.5862979888916	2.5073249340057373
75	218.26195192337036	fix_post	2		12.0	73.0	2.5	/experiments/knapen_aot/videos/S_yt-zhQ32_OayBQ_39.mp4	0.0	287.09362292289734	0.10016202926635742
75	218.27049088478088	response	2	2		73.0	2.5	/experiments/knapen_aot/videos/S_yt-zhQ32_OayBQ_39.mp4	0.0	287.10216188430786	
76	218.36211395263672	fix_pre	0		32.0	74.0	2.5	/experiments/knapen_aot/videos/R_S_pexels-c-technical-6809719.mp4	0.0	287.1937849521637	0.2674601078033447
76	218.6204149723053	response	0	2		74.0	2.5	/experiments/knapen_aot/videos/R_S_pexels-c-technical-6809719.mp4	0.0	287.4520859718323	
76	218.62957406044006	movie	1		197.0	74.0	2.5	/experiments/knapen_aot/videos/R_S_pexels-c-technical-6809719.mp4	0.0	287.46124505996704	2.5074329376220703
76	221.07042694091797	response	1	2		74.0	2.5	/experiments/knapen_aot/videos/R_S_pexels-c-technical-6809719.mp4	0.0	289.90209794044495	
76	221.13700699806213	fix_post	2		12.0	74.0	2.5	/experiments/knapen_aot/videos/R_S_pexels-c-technical-6809719.mp4	0.0	289.9686779975891	0.10007810592651367
77	221.23708510398865	fix_pre	0		18.0	75.0	2.5	blank	1.0	290.0687561035156	0.1499319076538086
77	221.3787169456482	response	0	2		75.0	2.5	blank	1.0	290.21038794517517	
77	221.38701701164246	movie	1		301.0	75.0	2.5	blank	1.0	290.21868801116943	2.5083060264587402
77	223.8953230381012	fix_post	2		12.0	75.0	2.5	blank	1.0	292.7269940376282	0.09997701644897461
78	223.99530005455017	fix_pre	0		24.0	76.0	2.5	/experiments/knapen_aot/videos/S_production_ID_4325509.mp4	0.0	292.82697105407715	0.20004582405090332
78	224.18709993362427	response	0	2		76.0	2.5	/experiments/knapen_aot/videos/S_production_ID_4325509.mp4	0.0	293.01877093315125	
78	224.19534587860107	movie	1		209.0	76.0	2.5	/experiments/knapen_aot/videos/S_production_ID_4325509.mp4	0.0	293.02701687812805	2.5083281993865967
78	226.6787359714508	response	1	2		76.0	2.5	/experiments/knapen_aot/videos/S_production_ID_4325509.mp4	0.0	295.5104069709778	
78	226.70367407798767	fix_post	2		12.0	76.0	2.5	/experiments/knapen_aot/videos/S_production_ID_4325509.mp4	0.0	295.53534507751465	0.1000509262084961
79	226.80372500419617	fix_pre	0		25.0	77.0	2.5	/experiments/knapen_aot/videos/R_S_P005_C002_UHD_SDR_2K_AVC.mp4	0.0	295.63539600372314	0.2082839012145996
79	227.0037488937378	response	0	2		77.0	2.5	/experiments/knapen_aot/videos/R_S_P005_C002_UHD_SDR_2K_AVC.mp4	0.0	295.83541989326477	
79	227.01200890541077	movie	1		170.0	77.0	2.5	/experiments/knapen_aot/videos/R_S_P005_C002_UHD_SDR_2K_AVC.mp4	0.0	295.84367990493774	2.508655071258545
79	229.5206639766693	fix_post	2		12.0	77.0	2.5	/experiments/knapen_aot/videos/R_S_P005_C002_UHD_SDR_2K_AVC.mp4	0.0	298.3523349761963	0.09970498085021973
79	229.59540796279907	response	2	2		77.0	2.5	/experiments/knapen_aot/videos/R_S_P005_C002_UHD_SDR_2K_AVC.mp4	0.0	298.42707896232605	
80	229.62036895751953	fix_pre	0		48.0	78.0	2.5	/experiments/knapen_aot/videos/R_S_yt-3EZOeAbiMQE_10.mp4	0.0	298.4520399570465	0.4000101089477539
80	230.0119709968567	response	0	2		78.0	2.5	/experiments/knapen_aot/videos/R_S_yt-3EZOeAbiMQE_10.mp4	0.0	298.84364199638367	
80	230.02037906646729	movie	1		301.0	78.0	2.5	/experiments/knapen_aot/videos/R_S_yt-3EZOeAbiMQE_10.mp4	0.0	298.85205006599426	2.5083160400390625
80	232.52869510650635	fix_post	2		12.0	78.0	2.5	/experiments/knapen_aot/videos/R_S_yt-3EZOeAbiMQE_10.mp4	0.0	301.3603661060333	0.10077977180480957
81	232.62947487831116	fix_pre	0		13.0	79.0	2.5	/experiments/knapen_aot/videos/S_comp_LW_L001_C006_PSNK_DENOISE_v02_SDR_PS_FINAL_20180709_SDR_2K_AVC.mp4	0.0	301.46114587783813	0.10746312141418457
81	232.72876000404358	response	0	2		79.0	2.5	/experiments/knapen_aot/videos/S_comp_LW_L001_C006_PSNK_DENOISE_v02_SDR_PS_FINAL_20180709_SDR_2K_AVC.mp4	0.0	301.56043100357056	
81	232.73693799972534	movie	1		164.0	79.0	2.5	/experiments/knapen_aot/videos/S_comp_LW_L001_C006_PSNK_DENOISE_v02_SDR_PS_FINAL_20180709_SDR_2K_AVC.mp4	0.0	301.5686089992523	2.5084760189056396
81	235.24541401863098	fix_post	2		12.0	79.0	2.5	/experiments/knapen_aot/videos/S_comp_LW_L001_C006_PSNK_DENOISE_v02_SDR_PS_FINAL_20180709_SDR_2K_AVC.mp4	0.0	304.07708501815796	0.0999140739440918
82	235.34532809257507	fix_pre	0		12.0	80.0	2.5	/experiments/knapen_aot/videos/S_yt-SGTgMItFkxY_172.mp4	0.0	304.17699909210205	0.10009980201721191
82	235.42978596687317	response	0	2		80.0	2.5	/experiments/knapen_aot/videos/S_yt-SGTgMItFkxY_172.mp4	0.0	304.26145696640015	
82	235.44542789459229	movie	1		301.0	80.0	2.5	/experiments/knapen_aot/videos/S_yt-SGTgMItFkxY_172.mp4	0.0	304.27709889411926	2.508174180984497
82	237.95360207557678	fix_post	2		12.0	80.0	2.5	/experiments/knapen_aot/videos/S_yt-SGTgMItFkxY_172.mp4	0.0	306.78527307510376	0.10017991065979004
83	238.05378198623657	fix_pre	0		13.0	81.0	2.5	/experiments/knapen_aot/videos/R_S_yt-VQtbKGzI9SE_431.mp4	0.0	306.88545298576355	0.10808300971984863
83	238.1536729335785	response	0	2		81.0	2.5	/experiments/knapen_aot/videos/R_S_yt-VQtbKGzI9SE_431.mp4	0.0	306.98534393310547	
83	238.16186499595642	movie	1		301.0	81.0	2.5	/experiments/knapen_aot/videos/R_S_yt-VQtbKGzI9SE_431.mp4	0.0	306.9935359954834	2.508347988128662
83	240.67021298408508	fix_post	2		12.0	81.0	2.5	/experiments/knapen_aot/videos/R_S_yt-VQtbKGzI9SE_431.mp4	0.0	309.50188398361206	0.1000370979309082
84	240.770250082016	fix_pre	0		15.0	82.0	2.5	/experiments/knapen_aot/videos/R_S_yt-c5KPuyzO-50_4.mp4	0.0	309.60192108154297	0.1250009536743164
84	240.88706302642822	response	0	2		82.0	2.5	/experiments/knapen_aot/videos/R_S_yt-c5KPuyzO-50_4.mp4	0.0	309.7187340259552	
84	240.8952510356903	movie	1		301.0	82.0	2.5	/experiments/knapen_aot/videos/R_S_yt-c5KPuyzO-50_4.mp4	0.0	309.7269220352173	2.508316993713379
84	243.4035680294037	fix_post	2		12.0	82.0	2.5	/experiments/knapen_aot/videos/R_S_yt-c5KPuyzO-50_4.mp4	0.0	312.23523902893066	0.10002899169921875
85	243.5035970211029	fix_pre	0		10.0	83.0	2.5	blank	1.0	312.3352680206299	0.08416390419006348
85	243.5786509513855	response	0	2		83.0	2.5	blank	1.0	312.4103219509125	
85	243.58776092529297	movie	1		301.0	83.0	2.5	blank	1.0	312.41943192481995	2.5074400901794434
85	246.0952010154724	fix_post	2		12.0	83.0	2.5	blank	1.0	314.9268720149994	0.10005998611450195
87	246.1952610015869	stim	0		159.0					315.0269320011139	1.3249270915985107
87	246.36204600334167	response	0	2						315.19371700286865	
87	247.51592087745667	response	0	space						316.34759187698364	
