trial_nr	onset	event_type	phase	response	nr_frames	movie_index	movie_duration	movie_file	blank	onset_abs	duration
0	0.1625511646270752	stim	0		65.0					101.80548620223999	0.5373117923736572
0	0.6918330192565918	response	0	space						102.3347680568695	
1	0.6998629570007324	stim	0		121.0					102.34279799461365	1.00801420211792
1	1.7078771591186523	stim	1		120.0					103.35081219673157	1.0000419616699219
1	2.091402053833008	response	1	return						103.73433709144592	
1	2.6496260166168213	response	1	space						104.29256105422974	
2	2.707919120788574	fix_pre	0		57.0	0.0	2.5	/experiments/knapen_aot/videos/S_yt-w5lh_rKyKtE_21.mp4	0.0	104.35085415840149	0.4749770164489746
2	3.174816131591797	response	0	space		0.0	2.5	/experiments/knapen_aot/videos/S_yt-w5lh_rKyKtE_21.mp4	0.0	104.81775116920471	
2	3.182896137237549	movie	1		300.0	0.0	2.5	/experiments/knapen_aot/videos/S_yt-w5lh_rKyKtE_21.mp4	0.0	104.82583117485046	2.508373975753784
2	5.691270112991333	fix_post	2		12.0	0.0	2.5	/experiments/knapen_aot/videos/S_yt-w5lh_rKyKtE_21.mp4	0.0	107.33420515060425	0.1000669002532959
3	5.791337013244629	fix_pre	0		35.0	1.0	2.5	/experiments/knapen_aot/videos/R_S_ILSVRC2015_train_00599000.mp4	0.0	107.43427205085754	0.2939789295196533
3	6.075865983963013	response	0	2		1.0	2.5	/experiments/knapen_aot/videos/R_S_ILSVRC2015_train_00599000.mp4	0.0	107.71880102157593	
3	6.085315942764282	movie	1		301.0	1.0	2.5	/experiments/knapen_aot/videos/R_S_ILSVRC2015_train_00599000.mp4	0.0	107.7282509803772	2.5058791637420654
3	8.591195106506348	fix_post	2		12.0	1.0	2.5	/experiments/knapen_aot/videos/R_S_ILSVRC2015_train_00599000.mp4	0.0	110.23413014411926	0.09998202323913574
4	8.691177129745483	fix_pre	0		63.0	2.0	2.5	/experiments/knapen_aot/videos/R_S_ILSVRC2015_train_00447000.mp4	0.0	110.3341121673584	0.5260210037231445
4	9.208064079284668	response	0	2		2.0	2.5	/experiments/knapen_aot/videos/R_S_ILSVRC2015_train_00447000.mp4	0.0	110.85099911689758	
4	9.217198133468628	movie	1		301.0	2.0	2.5	/experiments/knapen_aot/videos/R_S_ILSVRC2015_train_00447000.mp4	0.0	110.86013317108154	2.507412910461426
4	11.649635076522827	response	1	2		2.0	2.5	/experiments/knapen_aot/videos/R_S_ILSVRC2015_train_00447000.mp4	0.0	113.29257011413574	
4	11.724611043930054	fix_post	2		12.0	2.0	2.5	/experiments/knapen_aot/videos/R_S_ILSVRC2015_train_00447000.mp4	0.0	113.36754608154297	0.09994697570800781
5	11.824558019638062	fix_pre	0		29.0	3.0	2.5	/experiments/knapen_aot/videos/R_S_yt-vQGD-rJyMw4_166.mp4	0.0	113.46749305725098	0.24165010452270508
5	12.057997941970825	response	0	2		3.0	2.5	/experiments/knapen_aot/videos/R_S_yt-vQGD-rJyMw4_166.mp4	0.0	113.70093297958374	
5	12.066208124160767	movie	1		301.0	3.0	2.5	/experiments/knapen_aot/videos/R_S_yt-vQGD-rJyMw4_166.mp4	0.0	113.70914316177368	2.5082290172576904
5	14.574437141418457	fix_post	2		12.0	3.0	2.5	/experiments/knapen_aot/videos/R_S_yt-vQGD-rJyMw4_166.mp4	0.0	116.21737217903137	0.10004687309265137
6	14.674484014511108	fix_pre	0		1.0	4.0	2.5	/experiments/knapen_aot/videos/S_yt-OTNdgakSIJE_97.mp4	0.0	116.31741905212402	0.00834202766418457
6	14.676226139068604	response	0	2		4.0	2.5	/experiments/knapen_aot/videos/S_yt-OTNdgakSIJE_97.mp4	0.0	116.31916117668152	
6	14.682826042175293	movie	1		301.0	4.0	2.5	/experiments/knapen_aot/videos/S_yt-OTNdgakSIJE_97.mp4	0.0	116.32576107978821	2.508328914642334
6	17.191154956817627	fix_post	2		12.0	4.0	2.5	/experiments/knapen_aot/videos/S_yt-OTNdgakSIJE_97.mp4	0.0	118.83408999443054	0.10004210472106934
6	17.28297209739685	response	2	2		4.0	2.5	/experiments/knapen_aot/videos/S_yt-OTNdgakSIJE_97.mp4	0.0	118.92590713500977	
7	17.291197061538696	fix_pre	0		44.0	5.0	2.5	/experiments/knapen_aot/videos/S_yt-oPq1uvbw-lQ_62.mp4	0.0	118.93413209915161	0.3666360378265381
7	17.649696111679077	response	0	2		5.0	2.5	/experiments/knapen_aot/videos/S_yt-oPq1uvbw-lQ_62.mp4	0.0	119.29263114929199	
7	17.657833099365234	movie	1		301.0	5.0	2.5	/experiments/knapen_aot/videos/S_yt-oPq1uvbw-lQ_62.mp4	0.0	119.30076813697815	2.508401870727539
7	20.166234970092773	fix_post	2		12.0	5.0	2.5	/experiments/knapen_aot/videos/S_yt-oPq1uvbw-lQ_62.mp4	0.0	121.80917000770569	0.0999460220336914
8	20.266180992126465	fix_pre	0		19.0	6.0	2.5	/experiments/knapen_aot/videos/S_yt-lv6mhnH7_g4_134.mp4	0.0	121.90911602973938	0.15926098823547363
8	20.41630506515503	response	0	2		6.0	2.5	/experiments/knapen_aot/videos/S_yt-lv6mhnH7_g4_134.mp4	0.0	122.05924010276794	
8	20.42544198036194	movie	1		301.0	6.0	2.5	/experiments/knapen_aot/videos/S_yt-lv6mhnH7_g4_134.mp4	0.0	122.06837701797485	2.5073959827423096
8	22.932837963104248	fix_post	2		12.0	6.0	2.5	/experiments/knapen_aot/videos/S_yt-lv6mhnH7_g4_134.mp4	0.0	124.57577300071716	0.09995698928833008
9	23.032794952392578	fix_pre	0		99.0	7.0	2.5	blank	1.0	124.6757299900055	0.8250710964202881
9	23.849634170532227	response	0	2		7.0	2.5	blank	1.0	125.49256920814514	
9	23.857866048812866	movie	1		301.0	7.0	2.5	blank	1.0	125.50080108642578	2.5083069801330566
9	26.366173028945923	fix_post	2		12.0	7.0	2.5	blank	1.0	128.00910806655884	0.10086607933044434
10	26.467039108276367	fix_pre	0		22.0	8.0	2.5	/experiments/knapen_aot/videos/S_yt-NLfzvAJgyJ4_120.mp4	0.0	128.10997414588928	0.18242883682250977
10	26.641261100769043	response	0	2		8.0	2.5	/experiments/knapen_aot/videos/S_yt-NLfzvAJgyJ4_120.mp4	0.0	128.28419613838196	
10	26.649467945098877	movie	1		301.0	8.0	2.5	/experiments/knapen_aot/videos/S_yt-NLfzvAJgyJ4_120.mp4	0.0	128.2924029827118	2.5082831382751465
10	29.157751083374023	fix_post	2		12.0	8.0	2.5	/experiments/knapen_aot/videos/S_yt-NLfzvAJgyJ4_120.mp4	0.0	130.80068612098694	0.10005497932434082
11	29.257806062698364	fix_pre	0		14.0	9.0	2.5	/experiments/knapen_aot/videos/S_yt-3EZOeAbiMQE_10.mp4	0.0	130.90074110031128	0.11664605140686035
11	29.366233110427856	response	0	2		9.0	2.5	/experiments/knapen_aot/videos/S_yt-3EZOeAbiMQE_10.mp4	0.0	131.00916814804077	
11	29.374452114105225	movie	1		301.0	9.0	2.5	/experiments/knapen_aot/videos/S_yt-3EZOeAbiMQE_10.mp4	0.0	131.01738715171814	2.5083539485931396
11	31.882806062698364	fix_post	2		12.0	9.0	2.5	/experiments/knapen_aot/videos/S_yt-3EZOeAbiMQE_10.mp4	0.0	133.52574110031128	0.09998703002929688
12	31.98279309272766	fix_pre	0		25.0	10.0	2.5	/experiments/knapen_aot/videos/R_S_yt-NuZy8Rjk4d0_156.mp4	0.0	133.62572813034058	0.208327054977417
12	32.18292498588562	response	0	2		10.0	2.5	/experiments/knapen_aot/videos/R_S_yt-NuZy8Rjk4d0_156.mp4	0.0	133.82586002349854	
12	32.19112014770508	movie	1		300.0	10.0	2.5	/experiments/knapen_aot/videos/R_S_yt-NuZy8Rjk4d0_156.mp4	0.0	133.834055185318	2.508296012878418
12	34.699416160583496	fix_post	2		12.0	10.0	2.5	/experiments/knapen_aot/videos/R_S_yt-NuZy8Rjk4d0_156.mp4	0.0	136.3423511981964	0.10000896453857422
13	34.79942512512207	fix_pre	0		16.0	11.0	2.5	/experiments/knapen_aot/videos/R_S_yt-KK6fVRAMm-c_476.mp4	0.0	136.44236016273499	0.1333448886871338
13	34.924623012542725	response	0	2		11.0	2.5	/experiments/knapen_aot/videos/R_S_yt-KK6fVRAMm-c_476.mp4	0.0	136.56755805015564	
13	34.932770013809204	movie	1		301.0	11.0	2.5	/experiments/knapen_aot/videos/R_S_yt-KK6fVRAMm-c_476.mp4	0.0	136.57570505142212	2.508363962173462
13	37.441133975982666	fix_post	2		12.0	11.0	2.5	/experiments/knapen_aot/videos/R_S_yt-KK6fVRAMm-c_476.mp4	0.0	139.08406901359558	0.09999918937683105
14	37.5411331653595	fix_pre	0		96.0	12.0	2.5	/experiments/knapen_aot/videos/S_yt--UhwpukdyBg_51.mp4	0.0	139.1840682029724	0.8008348941802979
14	38.33296012878418	response	0	2		12.0	2.5	/experiments/knapen_aot/videos/S_yt--UhwpukdyBg_51.mp4	0.0	139.9758951663971	
14	38.341968059539795	movie	1		301.0	12.0	2.5	/experiments/knapen_aot/videos/S_yt--UhwpukdyBg_51.mp4	0.0	139.9849030971527	2.5075149536132812
14	40.849483013153076	fix_post	2		12.0	12.0	2.5	/experiments/knapen_aot/videos/S_yt--UhwpukdyBg_51.mp4	0.0	142.492418050766	0.0999901294708252
15	40.9494731426239	fix_pre	0		8.0	13.0	2.5	blank	1.0	142.59240818023682	0.06682395935058594
15	41.00888109207153	response	0	2		13.0	2.5	blank	1.0	142.65181612968445	
15	41.01629710197449	movie	1		301.0	13.0	2.5	blank	1.0	142.6592321395874	2.508072853088379
15	43.524369955062866	fix_post	2		12.0	13.0	2.5	blank	1.0	145.16730499267578	0.10007405281066895
16	43.624444007873535	fix_pre	0		45.0	14.0	2.5	/experiments/knapen_aot/videos/R_S_ILSVRC2015_train_00165009.mp4	0.0	145.26737904548645	0.37502193450927734
16	43.991196155548096	response	0	2		14.0	2.5	/experiments/knapen_aot/videos/R_S_ILSVRC2015_train_00165009.mp4	0.0	145.634131193161	
16	43.99946594238281	movie	1		301.0	14.0	2.5	/experiments/knapen_aot/videos/R_S_ILSVRC2015_train_00165009.mp4	0.0	145.64240097999573	2.508329153060913
16	46.507795095443726	fix_post	2		12.0	14.0	2.5	/experiments/knapen_aot/videos/R_S_ILSVRC2015_train_00165009.mp4	0.0	148.15073013305664	0.1000819206237793
17	46.607877016067505	fix_pre	0		8.0	15.0	2.5	/experiments/knapen_aot/videos/S_video_inspire_italy_como_cerano-dintelvi_006.1080-h264.mp4	0.0	148.25081205368042	0.06734609603881836
17	46.6662700176239	response	0	2		15.0	2.5	/experiments/knapen_aot/videos/S_video_inspire_italy_como_cerano-dintelvi_006.1080-h264.mp4	0.0	148.30920505523682	
17	46.67522311210632	movie	1		166.0	15.0	2.5	/experiments/knapen_aot/videos/S_video_inspire_italy_como_cerano-dintelvi_006.1080-h264.mp4	0.0	148.31815814971924	2.5074639320373535
17	49.18268704414368	fix_post	2		12.0	15.0	2.5	/experiments/knapen_aot/videos/S_video_inspire_italy_como_cerano-dintelvi_006.1080-h264.mp4	0.0	150.8256220817566	0.10004305839538574
18	49.28273010253906	fix_pre	0		25.0	16.0	2.5	/experiments/knapen_aot/videos/S_pexels-rodnae-productions-5993671.mp4	0.0	150.92566514015198	0.20824790000915527
18	49.482831954956055	response	0	2		16.0	2.5	/experiments/knapen_aot/videos/S_pexels-rodnae-productions-5993671.mp4	0.0	151.12576699256897	
18	49.49097800254822	movie	1		167.0	16.0	2.5	/experiments/knapen_aot/videos/S_pexels-rodnae-productions-5993671.mp4	0.0	151.13391304016113	2.5083999633789062
18	51.999377965927124	fix_post	2		12.0	16.0	2.5	/experiments/knapen_aot/videos/S_pexels-rodnae-productions-5993671.mp4	0.0	153.64231300354004	0.09995508193969727
19	52.09933304786682	fix_pre	0		38.0	17.0	2.5	/experiments/knapen_aot/videos/R_S_yt-HMAa2QbfFPI_216.mp4	0.0	153.74226808547974	0.3166990280151367
19	52.407849073410034	response	0	2		17.0	2.5	/experiments/knapen_aot/videos/R_S_yt-HMAa2QbfFPI_216.mp4	0.0	154.05078411102295	
19	52.41603207588196	movie	1		301.0	17.0	2.5	/experiments/knapen_aot/videos/R_S_yt-HMAa2QbfFPI_216.mp4	0.0	154.05896711349487	2.5083110332489014
19	54.92434310913086	fix_post	2		12.0	17.0	2.5	/experiments/knapen_aot/videos/R_S_yt-HMAa2QbfFPI_216.mp4	0.0	156.56727814674377	0.10002803802490234
20	55.02437114715576	fix_pre	0		11.0	18.0	2.5	/experiments/knapen_aot/videos/R_S_b3TCugtX0h0_108.mp4	0.0	156.66730618476868	0.09166097640991211
20	55.10783505439758	response	0	2		18.0	2.5	/experiments/knapen_aot/videos/R_S_b3TCugtX0h0_108.mp4	0.0	156.7507700920105	
20	55.116032123565674	movie	1		301.0	18.0	2.5	/experiments/knapen_aot/videos/R_S_b3TCugtX0h0_108.mp4	0.0	156.7589671611786	2.508283853530884
20	57.62431597709656	fix_post	2		12.0	18.0	2.5	/experiments/knapen_aot/videos/R_S_b3TCugtX0h0_108.mp4	0.0	159.26725101470947	0.10005402565002441
21	57.72437000274658	fix_pre	0		84.0	19.0	2.5	/experiments/knapen_aot/videos/S_yt-QJ2k6vA8aco_12.mp4	0.0	159.3673050403595	0.7006950378417969
21	58.41615009307861	response	0	2		19.0	2.5	/experiments/knapen_aot/videos/S_yt-QJ2k6vA8aco_12.mp4	0.0	160.05908513069153	
21	58.42506504058838	movie	1		300.0	19.0	2.5	/experiments/knapen_aot/videos/S_yt-QJ2k6vA8aco_12.mp4	0.0	160.0680000782013	2.5075600147247314
21	60.93262505531311	fix_post	2		12.0	19.0	2.5	/experiments/knapen_aot/videos/S_yt-QJ2k6vA8aco_12.mp4	0.0	162.57556009292603	0.10000896453857422
22	61.032634019851685	fix_pre	0		21.0	20.0	2.5	/experiments/knapen_aot/videos/R_S_comp_A103_C002_0205DG_v12_SDR_FINAL_20180706_SDR_2K_AVC.mp4	0.0	162.6755690574646	0.17507100105285645
22	61.19938611984253	response	0	2		20.0	2.5	/experiments/knapen_aot/videos/R_S_comp_A103_C002_0205DG_v12_SDR_FINAL_20180706_SDR_2K_AVC.mp4	0.0	162.84232115745544	
22	61.20770502090454	movie	1		168.0	20.0	2.5	/experiments/knapen_aot/videos/R_S_comp_A103_C002_0205DG_v12_SDR_FINAL_20180706_SDR_2K_AVC.mp4	0.0	162.85064005851746	2.508270025253296
22	63.71597504615784	fix_post	2		12.0	20.0	2.5	/experiments/knapen_aot/videos/R_S_comp_A103_C002_0205DG_v12_SDR_FINAL_20180706_SDR_2K_AVC.mp4	0.0	165.35891008377075	0.10008502006530762
23	63.816060066223145	fix_pre	0		66.0	21.0	2.5	blank	1.0	165.45899510383606	0.549980878829956
23	64.35924911499023	response	0	2		21.0	2.5	blank	1.0	166.00218415260315	
23	64.3660409450531	movie	1		301.0	21.0	2.5	blank	1.0	166.00897598266602	2.5083231925964355
23	65.7744791507721	response	1	2		21.0	2.5	blank	1.0	167.417414188385	
23	66.64113211631775	response	1	2		21.0	2.5	blank	1.0	168.28406715393066	
23	66.87436413764954	fix_post	2		12.0	21.0	2.5	blank	1.0	168.51729917526245	0.09998798370361328
24	66.97435212135315	fix_pre	0		27.0	22.0	2.5	/experiments/knapen_aot/videos/R_S_yt-SgiTZNjCPCo_19.mp4	0.0	168.61728715896606	0.22496485710144043
24	67.19117999076843	response	0	2		22.0	2.5	/experiments/knapen_aot/videos/R_S_yt-SgiTZNjCPCo_19.mp4	0.0	168.83411502838135	
24	67.19931697845459	movie	1		301.0	22.0	2.5	/experiments/knapen_aot/videos/R_S_yt-SgiTZNjCPCo_19.mp4	0.0	168.8422520160675	2.5083231925964355
24	69.70764017105103	fix_post	2		12.0	22.0	2.5	/experiments/knapen_aot/videos/R_S_yt-SgiTZNjCPCo_19.mp4	0.0	171.35057520866394	0.10007596015930176
24	69.79116702079773	response	2	2		22.0	2.5	/experiments/knapen_aot/videos/R_S_yt-SgiTZNjCPCo_19.mp4	0.0	171.43410205841064	
25	69.80771613121033	fix_pre	0		90.0	23.0	2.5	/experiments/knapen_aot/videos/R_S_yt_R-lST38EdfMMQ_5.mp4	0.0	171.45065116882324	0.7499270439147949
25	70.54944515228271	response	0	2		23.0	2.5	/experiments/knapen_aot/videos/R_S_yt_R-lST38EdfMMQ_5.mp4	0.0	172.19238018989563	
25	70.55764317512512	movie	1		301.0	23.0	2.5	/experiments/knapen_aot/videos/R_S_yt_R-lST38EdfMMQ_5.mp4	0.0	172.20057821273804	2.508368968963623
25	73.06601214408875	fix_post	2		12.0	23.0	2.5	/experiments/knapen_aot/videos/R_S_yt_R-lST38EdfMMQ_5.mp4	0.0	174.70894718170166	0.0999758243560791
26	73.16598796844482	fix_pre	0		31.0	24.0	2.5	/experiments/knapen_aot/videos/S_video-7.mp4	0.0	174.80892300605774	0.25896120071411133
26	73.4161319732666	response	0	2		24.0	2.5	/experiments/knapen_aot/videos/S_video-7.mp4	0.0	175.05906701087952	
26	73.42494916915894	movie	1		171.0	24.0	2.5	/experiments/knapen_aot/videos/S_video-7.mp4	0.0	175.06788420677185	2.5077009201049805
26	75.93265008926392	fix_post	2		12.0	24.0	2.5	/experiments/knapen_aot/videos/S_video-7.mp4	0.0	177.57558512687683	0.1000220775604248
27	76.03267216682434	fix_pre	0		21.0	25.0	2.5	/experiments/knapen_aot/videos/S_yt-QJHe-CoK4iI_170.mp4	0.0	177.67560720443726	0.17496085166931152
27	76.19940614700317	response	0	2		25.0	2.5	/experiments/knapen_aot/videos/S_yt-QJHe-CoK4iI_170.mp4	0.0	177.8423411846161	
27	76.20763301849365	movie	1		299.0	25.0	2.5	/experiments/knapen_aot/videos/S_yt-QJHe-CoK4iI_170.mp4	0.0	177.85056805610657	2.50832200050354
27	78.71595501899719	fix_post	2		12.0	25.0	2.5	/experiments/knapen_aot/videos/S_yt-QJHe-CoK4iI_170.mp4	0.0	180.3588900566101	0.09999203681945801
28	78.81594705581665	fix_pre	0		8.0	26.0	2.5	/experiments/knapen_aot/videos/S_pexels-koolshooters-7327401.mp4	0.0	180.45888209342957	0.06725692749023438
28	78.87429404258728	response	0	2		26.0	2.5	/experiments/knapen_aot/videos/S_pexels-koolshooters-7327401.mp4	0.0	180.5172290802002	
28	78.88320398330688	movie	1		170.0	26.0	2.5	/experiments/knapen_aot/videos/S_pexels-koolshooters-7327401.mp4	0.0	180.5261390209198	2.50775408744812
28	81.390958070755	fix_post	2		12.0	26.0	2.5	/experiments/knapen_aot/videos/S_pexels-koolshooters-7327401.mp4	0.0	183.03389310836792	0.09998297691345215
29	81.49094104766846	fix_pre	0		53.0	27.0	2.5	/experiments/knapen_aot/videos/R_S_comp_LA_A011_C003_DGRN_LNFIX_STAB_v57_SDR_PS_20181002_SDR_2K_AVC.mp4	0.0	183.13387608528137	0.4416680335998535
29	81.92450594902039	response	0	2		27.0	2.5	/experiments/knapen_aot/videos/R_S_comp_LA_A011_C003_DGRN_LNFIX_STAB_v57_SDR_PS_20181002_SDR_2K_AVC.mp4	0.0	183.5674409866333	
29	81.93260908126831	movie	1		176.0	27.0	2.5	/experiments/knapen_aot/videos/R_S_comp_LA_A011_C003_DGRN_LNFIX_STAB_v57_SDR_PS_20181002_SDR_2K_AVC.mp4	0.0	183.57554411888123	2.508331060409546
29	84.44094014167786	fix_post	2		12.0	27.0	2.5	/experiments/knapen_aot/videos/R_S_comp_LA_A011_C003_DGRN_LNFIX_STAB_v57_SDR_PS_20181002_SDR_2K_AVC.mp4	0.0	186.08387517929077	0.10002398490905762
29	84.45985412597656	response	2	2		27.0	2.5	/experiments/knapen_aot/videos/R_S_comp_LA_A011_C003_DGRN_LNFIX_STAB_v57_SDR_PS_20181002_SDR_2K_AVC.mp4	0.0	186.10278916358948	
30	84.54096412658691	fix_pre	0		38.0	28.0	2.5	blank	1.0	186.18389916419983	0.31665587425231934
30	84.84938216209412	response	0	2		28.0	2.5	blank	1.0	186.49231719970703	
30	84.85762000083923	movie	1		301.0	28.0	2.5	blank	1.0	186.50055503845215	2.5083110332489014
30	87.36593103408813	fix_post	2		12.0	28.0	2.5	blank	1.0	189.00886607170105	0.1000211238861084
31	87.46595215797424	fix_pre	0		20.0	29.0	2.5	/experiments/knapen_aot/videos/S_yt-sTBOjPxix5c_1072.mp4	0.0	189.10888719558716	0.167205810546875
31	87.62441802024841	response	0	2		29.0	2.5	/experiments/knapen_aot/videos/S_yt-sTBOjPxix5c_1072.mp4	0.0	189.26735305786133	
31	87.63315796852112	movie	1		301.0	29.0	2.5	/experiments/knapen_aot/videos/S_yt-sTBOjPxix5c_1072.mp4	0.0	189.27609300613403	2.5077550411224365
31	90.14091300964355	fix_post	2		12.0	29.0	2.5	/experiments/knapen_aot/videos/S_yt-sTBOjPxix5c_1072.mp4	0.0	191.78384804725647	0.10008001327514648
32	90.2409930229187	fix_pre	0		22.0	30.0	2.5	/experiments/knapen_aot/videos/R_S_yt-4wjGeLyvfjY_223.mp4	0.0	191.88392806053162	0.18395113945007324
32	90.40850400924683	response	0	2		30.0	2.5	/experiments/knapen_aot/videos/R_S_yt-4wjGeLyvfjY_223.mp4	0.0	192.05143904685974	
32	90.42494416236877	movie	1		301.0	30.0	2.5	/experiments/knapen_aot/videos/R_S_yt-4wjGeLyvfjY_223.mp4	0.0	192.0678791999817	2.507629871368408
32	92.93257403373718	fix_post	2		12.0	30.0	2.5	/experiments/knapen_aot/videos/R_S_yt-4wjGeLyvfjY_223.mp4	0.0	194.5755090713501	0.09997296333312988
33	93.03254699707031	fix_pre	0		33.0	31.0	2.5	/experiments/knapen_aot/videos/R_S_yt-Jro_TRE8NUQ_234.mp4	0.0	194.67548203468323	0.2749760150909424
33	93.29938697814941	response	0	2		31.0	2.5	/experiments/knapen_aot/videos/R_S_yt-Jro_TRE8NUQ_234.mp4	0.0	194.94232201576233	
33	93.30752301216125	movie	1		301.0	31.0	2.5	/experiments/knapen_aot/videos/R_S_yt-Jro_TRE8NUQ_234.mp4	0.0	194.95045804977417	2.508384943008423
33	95.81590795516968	fix_post	2		12.0	31.0	2.5	/experiments/knapen_aot/videos/R_S_yt-Jro_TRE8NUQ_234.mp4	0.0	197.4588429927826	0.09998607635498047
34	95.91589403152466	fix_pre	0		47.0	32.0	2.5	/experiments/knapen_aot/videos/S_yt-qYuLW5vSotM_160.mp4	0.0	197.55882906913757	0.3916599750518799
34	96.29938101768494	response	0	2		32.0	2.5	/experiments/knapen_aot/videos/S_yt-qYuLW5vSotM_160.mp4	0.0	197.94231605529785	
34	96.30755400657654	movie	1		301.0	32.0	2.5	/experiments/knapen_aot/videos/S_yt-qYuLW5vSotM_160.mp4	0.0	197.95048904418945	2.5082991123199463
34	98.81585311889648	fix_post	2		12.0	32.0	2.5	/experiments/knapen_aot/videos/S_yt-qYuLW5vSotM_160.mp4	0.0	200.4587881565094	0.10002589225769043
35	98.91587901115417	fix_pre	0		24.0	33.0	2.5	/experiments/knapen_aot/videos/S_ILSVRC2015_train_00364000.mp4	0.0	200.5588140487671	0.19998502731323242
35	99.10764503479004	response	0	2		33.0	2.5	/experiments/knapen_aot/videos/S_ILSVRC2015_train_00364000.mp4	0.0	200.75058007240295	
35	99.11586403846741	movie	1		301.0	33.0	2.5	/experiments/knapen_aot/videos/S_ILSVRC2015_train_00364000.mp4	0.0	200.75879907608032	2.5083389282226562
35	101.62420296669006	fix_post	2		12.0	33.0	2.5	/experiments/knapen_aot/videos/S_ILSVRC2015_train_00364000.mp4	0.0	203.26713800430298	0.1000070571899414
36	101.72421002388	fix_pre	0		28.0	34.0	2.5	blank	1.0	203.36714506149292	0.23334908485412598
36	101.94926500320435	response	0	2		34.0	2.5	blank	1.0	203.59220004081726	
36	101.95755910873413	movie	1		301.0	34.0	2.5	blank	1.0	203.60049414634705	2.5082268714904785
36	104.46578598022461	fix_post	2		12.0	34.0	2.5	blank	1.0	206.10872101783752	0.10004401206970215
37	104.56582999229431	fix_pre	0		25.0	35.0	2.5	/experiments/knapen_aot/videos/S_Y004_C015_SDR_2K_AVC.mp4	0.0	206.20876502990723	0.20826315879821777
37	104.76608610153198	response	0	2		35.0	2.5	/experiments/knapen_aot/videos/S_Y004_C015_SDR_2K_AVC.mp4	0.0	206.4090211391449	
37	104.77409315109253	movie	1		167.0	35.0	2.5	/experiments/knapen_aot/videos/S_Y004_C015_SDR_2K_AVC.mp4	0.0	206.41702818870544	2.5083279609680176
37	107.28242111206055	fix_post	2		12.0	35.0	2.5	/experiments/knapen_aot/videos/S_Y004_C015_SDR_2K_AVC.mp4	0.0	208.92535614967346	0.10007786750793457
38	107.38249897956848	fix_pre	0		24.0	36.0	2.5	/experiments/knapen_aot/videos/R_S_yt-w5lh_rKyKtE_21.mp4	0.0	209.0254340171814	0.1999351978302002
38	107.57419395446777	response	0	2		36.0	2.5	/experiments/knapen_aot/videos/R_S_yt-w5lh_rKyKtE_21.mp4	0.0	209.2171289920807	
38	107.58243417739868	movie	1		301.0	36.0	2.5	/experiments/knapen_aot/videos/R_S_yt-w5lh_rKyKtE_21.mp4	0.0	209.2253692150116	2.5083189010620117
38	110.0907530784607	fix_post	2		12.0	36.0	2.5	/experiments/knapen_aot/videos/R_S_yt-w5lh_rKyKtE_21.mp4	0.0	211.7336881160736	0.10002994537353516
39	110.19078302383423	fix_pre	0		100.0	37.0	2.5	/experiments/knapen_aot/videos/R_S_ILSVRC2015_train_00682009.mp4	0.0	211.83371806144714	0.8333220481872559
39	111.01591110229492	response	0	2		37.0	2.5	/experiments/knapen_aot/videos/R_S_ILSVRC2015_train_00682009.mp4	0.0	212.65884613990784	
39	111.02410507202148	movie	1		301.0	37.0	2.5	/experiments/knapen_aot/videos/R_S_ILSVRC2015_train_00682009.mp4	0.0	212.6670401096344	2.5082719326019287
39	113.53237700462341	fix_post	2		12.0	37.0	2.5	/experiments/knapen_aot/videos/R_S_ILSVRC2015_train_00682009.mp4	0.0	215.17531204223633	0.10008406639099121
40	113.6324610710144	fix_pre	0		10.0	38.0	2.5	/experiments/knapen_aot/videos/S_yt-uXDyvrm0Tw0_17.mp4	0.0	215.27539610862732	0.08372092247009277
40	113.70752596855164	response	0	2		38.0	2.5	/experiments/knapen_aot/videos/S_yt-uXDyvrm0Tw0_17.mp4	0.0	215.35046100616455	
40	113.7161819934845	movie	1		299.0	38.0	2.5	/experiments/knapen_aot/videos/S_yt-uXDyvrm0Tw0_17.mp4	0.0	215.3591170310974	2.5078980922698975
40	116.2240800857544	fix_post	2		12.0	38.0	2.5	/experiments/knapen_aot/videos/S_yt-uXDyvrm0Tw0_17.mp4	0.0	217.8670151233673	0.10007905960083008
41	116.32415914535522	fix_pre	0		16.0	39.0	2.5	/experiments/knapen_aot/videos/R_S_yt-hQ5pge893b4_6.mp4	0.0	217.96709418296814	0.13329100608825684
41	116.44924807548523	response	0	2		39.0	2.5	/experiments/knapen_aot/videos/R_S_yt-hQ5pge893b4_6.mp4	0.0	218.09218311309814	
41	116.45745015144348	movie	1		301.0	39.0	2.5	/experiments/knapen_aot/videos/R_S_yt-hQ5pge893b4_6.mp4	0.0	218.1003851890564	2.5082669258117676
41	118.96571707725525	fix_post	2		12.0	39.0	2.5	/experiments/knapen_aot/videos/R_S_yt-hQ5pge893b4_6.mp4	0.0	220.60865211486816	0.09998106956481934
42	119.06569814682007	fix_pre	0		32.0	40.0	2.5	/experiments/knapen_aot/videos/S_yt-FhnT_42bV7M_11.mp4	0.0	220.70863318443298	0.26670098304748535
42	119.31674313545227	response	0	2		40.0	2.5	/experiments/knapen_aot/videos/S_yt-FhnT_42bV7M_11.mp4	0.0	220.95967817306519	
42	119.33239912986755	movie	1		301.0	40.0	2.5	/experiments/knapen_aot/videos/S_yt-FhnT_42bV7M_11.mp4	0.0	220.97533416748047	2.508340835571289
42	121.84073996543884	fix_post	2		12.0	40.0	2.5	/experiments/knapen_aot/videos/S_yt-FhnT_42bV7M_11.mp4	0.0	223.48367500305176	0.09996914863586426
43	121.9407091140747	fix_pre	0		6.0	41.0	2.5	blank	1.0	223.58364415168762	0.05005383491516113
43	121.97495913505554	response	0	2		41.0	2.5	blank	1.0	223.61789417266846	
43	121.99076294898987	movie	1		301.0	41.0	2.5	blank	1.0	223.63369798660278	2.5082101821899414
43	124.49897313117981	fix_post	2		12.0	41.0	2.5	blank	1.0	226.14190816879272	0.10005688667297363
44	124.59903001785278	fix_pre	0		29.0	42.0	2.5	/experiments/knapen_aot/videos/R_S_yt-tQ-hgwTcMqU_43.mp4	0.0	226.2419650554657	0.24207115173339844
44	124.83245205879211	response	0	2		42.0	2.5	/experiments/knapen_aot/videos/R_S_yt-tQ-hgwTcMqU_43.mp4	0.0	226.47538709640503	
44	124.84110116958618	movie	1		301.0	42.0	2.5	/experiments/knapen_aot/videos/R_S_yt-tQ-hgwTcMqU_43.mp4	0.0	226.4840362071991	2.5079779624938965
44	127.34907913208008	fix_post	2		12.0	42.0	2.5	/experiments/knapen_aot/videos/R_S_yt-tQ-hgwTcMqU_43.mp4	0.0	228.992014169693	0.09990096092224121
45	127.44898009300232	fix_pre	0		32.0	43.0	2.5	/experiments/knapen_aot/videos/S_pexels-marcus-aurelius-6785014.mp4	0.0	229.09191513061523	0.267117977142334
45	127.7074830532074	response	0	2		43.0	2.5	/experiments/knapen_aot/videos/S_pexels-marcus-aurelius-6785014.mp4	0.0	229.3504180908203	
45	127.71609807014465	movie	1		167.0	43.0	2.5	/experiments/knapen_aot/videos/S_pexels-marcus-aurelius-6785014.mp4	0.0	229.35903310775757	2.5079290866851807
45	130.22402715682983	fix_post	2		12.0	43.0	2.5	/experiments/knapen_aot/videos/S_pexels-marcus-aurelius-6785014.mp4	0.0	231.86696219444275	0.1000359058380127
46	130.32406306266785	fix_pre	0		10.0	44.0	2.5	/experiments/knapen_aot/videos/S_pexels-koolshooters-7327401_1.mp4	0.0	231.96699810028076	0.08331108093261719
46	130.39920616149902	response	0	2		44.0	2.5	/experiments/knapen_aot/videos/S_pexels-koolshooters-7327401_1.mp4	0.0	232.04214119911194	
46	130.40737414360046	movie	1		166.0	44.0	2.5	/experiments/knapen_aot/videos/S_pexels-koolshooters-7327401_1.mp4	0.0	232.05030918121338	2.5082569122314453
46	132.9156310558319	fix_post	2		12.0	44.0	2.5	/experiments/knapen_aot/videos/S_pexels-koolshooters-7327401_1.mp4	0.0	234.55856609344482	0.10009598731994629
47	133.01572704315186	fix_pre	0		19.0	45.0	2.5	/experiments/knapen_aot/videos/S_ILSVRC2015_train_00408000.mp4	0.0	234.65866208076477	0.1586589813232422
47	133.16586995124817	response	0	2		45.0	2.5	/experiments/knapen_aot/videos/S_ILSVRC2015_train_00408000.mp4	0.0	234.80880498886108	
47	133.1743860244751	movie	1		301.0	45.0	2.5	/experiments/knapen_aot/videos/S_ILSVRC2015_train_00408000.mp4	0.0	234.817321062088	2.5079779624938965
47	135.682363986969	fix_post	2		12.0	45.0	2.5	/experiments/knapen_aot/videos/S_ILSVRC2015_train_00408000.mp4	0.0	237.3252990245819	0.10002613067626953
48	135.78239011764526	fix_pre	0		15.0	46.0	2.5	/experiments/knapen_aot/videos/S_yt-54kx8P3L1ns_6.mp4	0.0	237.42532515525818	0.12500786781311035
48	135.89919114112854	response	0	2		46.0	2.5	/experiments/knapen_aot/videos/S_yt-54kx8P3L1ns_6.mp4	0.0	237.54212617874146	
48	135.90739798545837	movie	1		301.0	46.0	2.5	/experiments/knapen_aot/videos/S_yt-54kx8P3L1ns_6.mp4	0.0	237.5503330230713	2.5082151889801025
48	138.41561317443848	fix_post	2		12.0	46.0	2.5	/experiments/knapen_aot/videos/S_yt-54kx8P3L1ns_6.mp4	0.0	240.0585482120514	0.09996795654296875
49	138.51558113098145	fix_pre	0		30.0	47.0	2.5	/experiments/knapen_aot/videos/R_S_production_ID_5020960.mp4	0.0	240.15851616859436	0.2500588893890381
49	138.7499840259552	response	0	2		47.0	2.5	/experiments/knapen_aot/videos/R_S_production_ID_5020960.mp4	0.0	240.39291906356812	
49	138.76564002037048	movie	1		196.0	47.0	2.5	/experiments/knapen_aot/videos/R_S_production_ID_5020960.mp4	0.0	240.4085750579834	2.50833797454834
49	141.27397799491882	fix_post	2		12.0	47.0	2.5	/experiments/knapen_aot/videos/R_S_production_ID_5020960.mp4	0.0	242.91691303253174	0.1000211238861084
50	141.37399911880493	fix_pre	0		9.0	48.0	2.5	blank	1.0	243.01693415641785	0.07491302490234375
50	141.44078707695007	response	0	2		48.0	2.5	blank	1.0	243.083722114563	
50	141.44891214370728	movie	1		301.0	48.0	2.5	blank	1.0	243.0918471813202	2.508380889892578
50	143.95729303359985	fix_post	2		12.0	48.0	2.5	blank	1.0	245.60022807121277	0.10000300407409668
51	144.05729603767395	fix_pre	0		31.0	49.0	2.5	/experiments/knapen_aot/videos/S_bing-www_dailymotion_com_video_x64c56w_164.mp4	0.0	245.70023107528687	0.2583010196685791
51	144.3073971271515	response	0	2		49.0	2.5	/experiments/knapen_aot/videos/S_bing-www_dailymotion_com_video_x64c56w_164.mp4	0.0	245.9503321647644	
51	144.31559705734253	movie	1		166.0	49.0	2.5	/experiments/knapen_aot/videos/S_bing-www_dailymotion_com_video_x64c56w_164.mp4	0.0	245.95853209495544	2.5083820819854736
51	146.823979139328	fix_post	2		12.0	49.0	2.5	/experiments/knapen_aot/videos/S_bing-www_dailymotion_com_video_x64c56w_164.mp4	0.0	248.46691417694092	0.09997701644897461
52	146.92395615577698	fix_pre	0		58.0	50.0	2.5	/experiments/knapen_aot/videos/S_yt-aSEKRE_FNaI_62.mp4	0.0	248.5668911933899	0.48325681686401367
52	147.39909410476685	response	0	2		50.0	2.5	/experiments/knapen_aot/videos/S_yt-aSEKRE_FNaI_62.mp4	0.0	249.04202914237976	
52	147.407212972641	movie	1		301.0	50.0	2.5	/experiments/knapen_aot/videos/S_yt-aSEKRE_FNaI_62.mp4	0.0	249.0501480102539	2.508419990539551
52	149.91563296318054	fix_post	2		12.0	50.0	2.5	/experiments/knapen_aot/videos/S_yt-aSEKRE_FNaI_62.mp4	0.0	251.55856800079346	0.09995317459106445
53	150.0155861377716	fix_pre	0		75.0	51.0	2.5	/experiments/knapen_aot/videos/S_yt-H-2Vvouw9VI_85.mp4	0.0	251.65852117538452	0.6249790191650391
53	150.63238215446472	response	0	2		51.0	2.5	/experiments/knapen_aot/videos/S_yt-H-2Vvouw9VI_85.mp4	0.0	252.27531719207764	
53	150.64056515693665	movie	1		301.0	51.0	2.5	/experiments/knapen_aot/videos/S_yt-H-2Vvouw9VI_85.mp4	0.0	252.28350019454956	2.5084009170532227
53	153.14896607398987	fix_post	2		12.0	51.0	2.5	/experiments/knapen_aot/videos/S_yt-H-2Vvouw9VI_85.mp4	0.0	254.79190111160278	0.09997892379760742
54	153.24894499778748	fix_pre	0		21.0	52.0	2.5	/experiments/knapen_aot/videos/R_S_yt-QTGIhecBZjc_19.mp4	0.0	254.8918800354004	0.1752331256866455
54	153.415678024292	response	0	2		52.0	2.5	/experiments/knapen_aot/videos/R_S_yt-QTGIhecBZjc_19.mp4	0.0	255.0586130619049	
54	153.42417812347412	movie	1		301.0	52.0	2.5	/experiments/knapen_aot/videos/R_S_yt-QTGIhecBZjc_19.mp4	0.0	255.06711316108704	2.508100986480713
54	155.93227910995483	fix_post	2		12.0	52.0	2.5	/experiments/knapen_aot/videos/R_S_yt-QTGIhecBZjc_19.mp4	0.0	257.57521414756775	0.0999898910522461
55	156.03226900100708	fix_pre	0		4.0	53.0	2.5	/experiments/knapen_aot/videos/R_S_yt-7WYXuBHeorw_188.mp4	0.0	257.67520403862	0.03338313102722168
55	156.0576560497284	response	0	2		53.0	2.5	/experiments/knapen_aot/videos/R_S_yt-7WYXuBHeorw_188.mp4	0.0	257.7005910873413	
55	156.0656521320343	movie	1		300.0	53.0	2.5	/experiments/knapen_aot/videos/R_S_yt-7WYXuBHeorw_188.mp4	0.0	257.7085871696472	2.508319854736328
55	158.57397198677063	fix_post	2		12.0	53.0	2.5	/experiments/knapen_aot/videos/R_S_yt-7WYXuBHeorw_188.mp4	0.0	260.21690702438354	0.10017800331115723
56	158.6741499900818	fix_pre	0		20.0	54.0	2.5	/experiments/knapen_aot/videos/S_yt-HMAa2QbfFPI_216.mp4	0.0	260.3170850276947	0.16662001609802246
56	158.83232998847961	response	0	2		54.0	2.5	/experiments/knapen_aot/videos/S_yt-HMAa2QbfFPI_216.mp4	0.0	260.47526502609253	
56	158.8407700061798	movie	1		301.0	54.0	2.5	/experiments/knapen_aot/videos/S_yt-HMAa2QbfFPI_216.mp4	0.0	260.4837050437927	2.508139133453369
56	161.34890913963318	fix_post	2		12.0	54.0	2.5	/experiments/knapen_aot/videos/S_yt-HMAa2QbfFPI_216.mp4	0.0	262.9918441772461	0.10001087188720703
57	161.44892001152039	fix_pre	0		10.0	55.0	2.5	blank	1.0	263.0918550491333	0.08330512046813965
57	161.52406311035156	response	0	2		55.0	2.5	blank	1.0	263.1669981479645	
57	161.53222513198853	movie	1		301.0	55.0	2.5	blank	1.0	263.17516016960144	2.5082809925079346
57	164.04050612449646	fix_post	2		12.0	55.0	2.5	blank	1.0	265.6834411621094	0.09999394416809082
58	164.14050006866455	fix_pre	0		23.0	56.0	2.5	/experiments/knapen_aot/videos/R_S_b2-4.mp4	0.0	265.78343510627747	0.19165587425231934
58	164.32401609420776	response	0	2		56.0	2.5	/experiments/knapen_aot/videos/R_S_b2-4.mp4	0.0	265.9669511318207	
58	164.33215594291687	movie	1		167.0	56.0	2.5	/experiments/knapen_aot/videos/R_S_b2-4.mp4	0.0	265.9750909805298	2.5086090564727783
58	166.84076499938965	fix_post	2		12.0	56.0	2.5	/experiments/knapen_aot/videos/R_S_b2-4.mp4	0.0	268.48370003700256	0.0997469425201416
59	166.9405119419098	fix_pre	0		19.0	57.0	2.5	/experiments/knapen_aot/videos/R_S_yt--UhwpukdyBg_51.mp4	0.0	268.5834469795227	0.1583240032196045
59	167.09067511558533	response	0	2		57.0	2.5	/experiments/knapen_aot/videos/R_S_yt--UhwpukdyBg_51.mp4	0.0	268.73361015319824	
59	167.0988359451294	movie	1		301.0	57.0	2.5	/experiments/knapen_aot/videos/R_S_yt--UhwpukdyBg_51.mp4	0.0	268.7417709827423	2.5083680152893066
59	169.6072039604187	fix_post	2		12.0	57.0	2.5	/experiments/knapen_aot/videos/R_S_yt--UhwpukdyBg_51.mp4	0.0	271.2501389980316	0.09999799728393555
60	169.70720195770264	fix_pre	0		24.0	58.0	2.5	/experiments/knapen_aot/videos/S_yt-1V0KJEc4cJ4_203.mp4	0.0	271.35013699531555	0.19991016387939453
60	169.89898800849915	response	0	2		58.0	2.5	/experiments/knapen_aot/videos/S_yt-1V0KJEc4cJ4_203.mp4	0.0	271.54192304611206	
60	169.90711212158203	movie	1		301.0	58.0	2.5	/experiments/knapen_aot/videos/S_yt-1V0KJEc4cJ4_203.mp4	0.0	271.55004715919495	2.5084118843078613
60	172.4155240058899	fix_post	2		12.0	58.0	2.5	/experiments/knapen_aot/videos/S_yt-1V0KJEc4cJ4_203.mp4	0.0	274.0584590435028	0.09995412826538086
61	172.51547813415527	fix_pre	0		30.0	59.0	2.5	/experiments/knapen_aot/videos/R_S_pexels-marcus-aurelius-6785014.mp4	0.0	274.1584131717682	0.25008487701416016
61	172.75737595558167	response	0	2		59.0	2.5	/experiments/knapen_aot/videos/R_S_pexels-marcus-aurelius-6785014.mp4	0.0	274.4003109931946	
61	172.76556301116943	movie	1		179.0	59.0	2.5	/experiments/knapen_aot/videos/R_S_pexels-marcus-aurelius-6785014.mp4	0.0	274.40849804878235	2.5082221031188965
61	175.27378511428833	fix_post	2		12.0	59.0	2.5	/experiments/knapen_aot/videos/R_S_pexels-marcus-aurelius-6785014.mp4	0.0	276.91672015190125	0.10002899169921875
61	175.31564116477966	response	2	2		59.0	2.5	/experiments/knapen_aot/videos/R_S_pexels-marcus-aurelius-6785014.mp4	0.0	276.9585762023926	
62	175.37381410598755	fix_pre	0		51.0	60.0	2.5	/experiments/knapen_aot/videos/R_S_yt-r7brAHgxZSU_248.mp4	0.0	277.01674914360046	0.4251070022583008
62	175.7905249595642	response	0	2		60.0	2.5	/experiments/knapen_aot/videos/R_S_yt-r7brAHgxZSU_248.mp4	0.0	277.4334599971771	
62	175.79892110824585	movie	1		301.0	60.0	2.5	/experiments/knapen_aot/videos/R_S_yt-r7brAHgxZSU_248.mp4	0.0	277.44185614585876	2.508244037628174
62	178.30716514587402	fix_post	2		12.0	60.0	2.5	/experiments/knapen_aot/videos/R_S_yt-r7brAHgxZSU_248.mp4	0.0	279.95010018348694	0.10003280639648438
63	178.4071979522705	fix_pre	0		48.0	61.0	2.5	blank	1.0	280.0501329898834	0.3999600410461426
63	178.79906606674194	response	0	2		61.0	2.5	blank	1.0	280.44200110435486	
63	178.80715799331665	movie	1		301.0	61.0	2.5	blank	1.0	280.45009303092957	2.5083110332489014
63	181.31546902656555	fix_post	2		12.0	61.0	2.5	blank	1.0	282.95840406417847	0.0999751091003418
64	181.4154441356659	fix_pre	0		26.0	62.0	2.5	/experiments/knapen_aot/videos/R_S_yt-LdHRVIb4nIE_6.mp4	0.0	283.0583791732788	0.21676397323608398
64	181.62400007247925	response	0	2		62.0	2.5	/experiments/knapen_aot/videos/R_S_yt-LdHRVIb4nIE_6.mp4	0.0	283.26693511009216	
64	181.63220810890198	movie	1		301.0	62.0	2.5	/experiments/knapen_aot/videos/R_S_yt-LdHRVIb4nIE_6.mp4	0.0	283.2751431465149	2.5083038806915283
64	184.1405119895935	fix_post	2		12.0	62.0	2.5	/experiments/knapen_aot/videos/R_S_yt-LdHRVIb4nIE_6.mp4	0.0	285.7834470272064	0.09988713264465332
65	184.24039912223816	fix_pre	0		18.0	63.0	2.5	/experiments/knapen_aot/videos/S_yt-vQGD-rJyMw4_166.mp4	0.0	285.8833341598511	0.150054931640625
65	184.382395029068	response	0	2		63.0	2.5	/experiments/knapen_aot/videos/S_yt-vQGD-rJyMw4_166.mp4	0.0	286.0253300666809	
65	184.39045405387878	movie	1		301.0	63.0	2.5	/experiments/knapen_aot/videos/S_yt-vQGD-rJyMw4_166.mp4	0.0	286.0333890914917	2.5084140300750732
65	186.89886808395386	fix_post	2		12.0	63.0	2.5	/experiments/knapen_aot/videos/S_yt-vQGD-rJyMw4_166.mp4	0.0	288.5418031215668	0.0999300479888916
66	186.99879813194275	fix_pre	0		14.0	64.0	2.5	/experiments/knapen_aot/videos/R_S_yt-QJ2k6vA8aco_12.mp4	0.0	288.64173316955566	0.11660981178283691
66	187.0999219417572	response	0	2		64.0	2.5	/experiments/knapen_aot/videos/R_S_yt-QJ2k6vA8aco_12.mp4	0.0	288.7428569793701	
66	187.1154079437256	movie	1		301.0	64.0	2.5	/experiments/knapen_aot/videos/R_S_yt-QJ2k6vA8aco_12.mp4	0.0	288.7583429813385	2.50838303565979
66	189.62379097938538	fix_post	2		12.0	64.0	2.5	/experiments/knapen_aot/videos/R_S_yt-QJ2k6vA8aco_12.mp4	0.0	291.2667260169983	0.09999203681945801
67	189.72378301620483	fix_pre	0		60.0	65.0	2.5	/experiments/knapen_aot/videos/S_ILSVRC2015_train_00654000.mp4	0.0	291.36671805381775	0.4999661445617676
67	190.21555495262146	response	0	2		65.0	2.5	/experiments/knapen_aot/videos/S_ILSVRC2015_train_00654000.mp4	0.0	291.8584899902344	
67	190.2237491607666	movie	1		301.0	65.0	2.5	/experiments/knapen_aot/videos/S_ILSVRC2015_train_00654000.mp4	0.0	291.8666841983795	2.50834584236145
67	192.73209500312805	fix_post	2		12.0	65.0	2.5	/experiments/knapen_aot/videos/S_ILSVRC2015_train_00654000.mp4	0.0	294.37503004074097	0.1000070571899414
68	192.832102060318	fix_pre	0		17.0	66.0	2.5	/experiments/knapen_aot/videos/S_pexels-cottonbro-5780808.mp4	0.0	294.4750370979309	0.1416609287261963
68	192.96556305885315	response	0	2		66.0	2.5	/experiments/knapen_aot/videos/S_pexels-cottonbro-5780808.mp4	0.0	294.60849809646606	
68	192.9737629890442	movie	1		164.0	66.0	2.5	/experiments/knapen_aot/videos/S_pexels-cottonbro-5780808.mp4	0.0	294.6166980266571	2.5083789825439453
68	195.48214197158813	fix_post	2		12.0	66.0	2.5	/experiments/knapen_aot/videos/S_pexels-cottonbro-5780808.mp4	0.0	297.12507700920105	0.0999760627746582
69	195.5821180343628	fix_pre	0		56.0	67.0	2.5	/experiments/knapen_aot/videos/R_S_yt-CEQnXB0LxQU_278.mp4	0.0	297.2250530719757	0.46668100357055664
69	196.04052996635437	response	0	2		67.0	2.5	/experiments/knapen_aot/videos/R_S_yt-CEQnXB0LxQU_278.mp4	0.0	297.6834650039673	
69	196.04879903793335	movie	1		301.0	67.0	2.5	/experiments/knapen_aot/videos/R_S_yt-CEQnXB0LxQU_278.mp4	0.0	297.69173407554626	2.5083060264587402
69	198.5571050643921	fix_post	2		12.0	67.0	2.5	/experiments/knapen_aot/videos/R_S_yt-CEQnXB0LxQU_278.mp4	0.0	300.200040102005	0.09996509552001953
70	198.6570701599121	fix_pre	0		20.0	68.0	2.5	/experiments/knapen_aot/videos/S_wc-PX_MIe5L43_3_16.mp4	0.0	300.300005197525	0.16666483879089355
70	198.81561708450317	response	0	2		68.0	2.5	/experiments/knapen_aot/videos/S_wc-PX_MIe5L43_3_16.mp4	0.0	300.4585521221161	
70	198.823734998703	movie	1		301.0	68.0	2.5	/experiments/knapen_aot/videos/S_wc-PX_MIe5L43_3_16.mp4	0.0	300.4666700363159	2.508378028869629
70	201.33211302757263	fix_post	2		12.0	68.0	2.5	/experiments/knapen_aot/videos/S_wc-PX_MIe5L43_3_16.mp4	0.0	302.97504806518555	0.09998607635498047
71	201.4320991039276	fix_pre	0		20.0	69.0	2.5	blank	1.0	303.0750341415405	0.16668295860290527
71	201.59058594703674	response	0	2		69.0	2.5	blank	1.0	303.23352098464966	
71	201.59878206253052	movie	1		301.0	69.0	2.5	blank	1.0	303.24171710014343	2.508294105529785
71	204.1070761680603	fix_post	2		12.0	69.0	2.5	blank	1.0	305.7500112056732	0.10004281997680664
72	204.2071189880371	fix_pre	0		23.0	70.0	2.5	/experiments/knapen_aot/videos/S_ILSVRC2015_train_00425000.mp4	0.0	305.85005402565	0.19165802001953125
72	204.39057207107544	response	0	2		70.0	2.5	/experiments/knapen_aot/videos/S_ILSVRC2015_train_00425000.mp4	0.0	306.03350710868835	
72	204.39877700805664	movie	1		298.0	70.0	2.5	/experiments/knapen_aot/videos/S_ILSVRC2015_train_00425000.mp4	0.0	306.04171204566956	2.508303165435791
72	206.90708017349243	fix_post	2		12.0	70.0	2.5	/experiments/knapen_aot/videos/S_ILSVRC2015_train_00425000.mp4	0.0	308.55001521110535	0.10001492500305176
73	207.00709509849548	fix_pre	0		30.0	71.0	2.5	/experiments/knapen_aot/videos/S_Pexels_Videos_2795731_1.mp4	0.0	308.6500301361084	0.24995994567871094
73	207.24877500534058	response	0	2		71.0	2.5	/experiments/knapen_aot/videos/S_Pexels_Videos_2795731_1.mp4	0.0	308.8917100429535	
73	207.2570550441742	movie	1		166.0	71.0	2.5	/experiments/knapen_aot/videos/S_Pexels_Videos_2795731_1.mp4	0.0	308.8999900817871	2.5082390308380127
73	209.7652940750122	fix_post	2		12.0	71.0	2.5	/experiments/knapen_aot/videos/S_Pexels_Videos_2795731_1.mp4	0.0	311.4082291126251	0.10000896453857422
74	209.86530303955078	fix_pre	0		87.0	72.0	2.5	/experiments/knapen_aot/videos/R_S_yt-l6WPyKg_3is_154.mp4	0.0	311.5082380771637	0.7249679565429688
74	210.58218908309937	response	0	2		72.0	2.5	/experiments/knapen_aot/videos/R_S_yt-l6WPyKg_3is_154.mp4	0.0	312.2251241207123	
74	210.59027099609375	movie	1		301.0	72.0	2.5	/experiments/knapen_aot/videos/R_S_yt-l6WPyKg_3is_154.mp4	0.0	312.23320603370667	2.5084171295166016
74	213.09868812561035	fix_post	2		12.0	72.0	2.5	/experiments/knapen_aot/videos/R_S_yt-l6WPyKg_3is_154.mp4	0.0	314.74162316322327	0.09996604919433594
75	213.1986541748047	fix_pre	0		40.0	73.0	2.5	/experiments/knapen_aot/videos/R_S_ILSVRC2015_train_00515000.mp4	0.0	314.8415892124176	0.3333449363708496
75	213.5162980556488	response	0	2		73.0	2.5	/experiments/knapen_aot/videos/R_S_ILSVRC2015_train_00515000.mp4	0.0	315.1592330932617	
75	213.53199911117554	movie	1		299.0	73.0	2.5	/experiments/knapen_aot/videos/R_S_ILSVRC2015_train_00515000.mp4	0.0	315.17493414878845	2.508286952972412
75	216.04028606414795	fix_post	2		12.0	73.0	2.5	/experiments/knapen_aot/videos/R_S_ILSVRC2015_train_00515000.mp4	0.0	317.68322110176086	0.09997105598449707
76	216.14025712013245	fix_pre	0		111.0	74.0	2.5	/experiments/knapen_aot/videos/R_S_yt-uXDyvrm0Tw0_17.mp4	0.0	317.78319215774536	0.9250600337982178
76	217.05708694458008	response	0	2		74.0	2.5	/experiments/knapen_aot/videos/R_S_yt-uXDyvrm0Tw0_17.mp4	0.0	318.700021982193	
76	217.06531715393066	movie	1		301.0	74.0	2.5	/experiments/knapen_aot/videos/R_S_yt-uXDyvrm0Tw0_17.mp4	0.0	318.7082521915436	2.508347988128662
76	219.57366514205933	fix_post	2		12.0	74.0	2.5	/experiments/knapen_aot/videos/R_S_yt-uXDyvrm0Tw0_17.mp4	0.0	321.21660017967224	0.0999748706817627
77	219.6736400127411	fix_pre	0		4.0	75.0	2.5	blank	1.0	321.316575050354	0.03347897529602051
77	219.69871997833252	response	0	2		75.0	2.5	blank	1.0	321.34165501594543	
77	219.7071189880371	movie	1		301.0	75.0	2.5	blank	1.0	321.35005402565	2.5081980228424072
77	222.21531701087952	fix_post	2		12.0	75.0	2.5	blank	1.0	323.85825204849243	0.09999704360961914
78	222.31531405448914	fix_pre	0		26.0	76.0	2.5	/experiments/knapen_aot/videos/S_yt-zKnjBBYWe90_369.mp4	0.0	323.95824909210205	0.21664190292358398
78	222.52373504638672	response	0	2		76.0	2.5	/experiments/knapen_aot/videos/S_yt-zKnjBBYWe90_369.mp4	0.0	324.16667008399963	
78	222.53195595741272	movie	1		301.0	76.0	2.5	/experiments/knapen_aot/videos/S_yt-zKnjBBYWe90_369.mp4	0.0	324.17489099502563	2.5082859992980957
78	225.04024195671082	fix_post	2		12.0	76.0	2.5	/experiments/knapen_aot/videos/S_yt-zKnjBBYWe90_369.mp4	0.0	326.68317699432373	0.10006403923034668
79	225.14030599594116	fix_pre	0		5.0	77.0	2.5	/experiments/knapen_aot/videos/S_ILSVRC2015_train_00371006.mp4	0.0	326.7832410335541	0.04167914390563965
79	225.17371606826782	response	0	2		77.0	2.5	/experiments/knapen_aot/videos/S_ILSVRC2015_train_00371006.mp4	0.0	326.81665110588074	
79	225.1819851398468	movie	1		301.0	77.0	2.5	/experiments/knapen_aot/videos/S_ILSVRC2015_train_00371006.mp4	0.0	326.8249201774597	2.508307933807373
79	227.69029307365417	fix_post	2		12.0	77.0	2.5	/experiments/knapen_aot/videos/S_ILSVRC2015_train_00371006.mp4	0.0	329.3332281112671	0.09998893737792969
80	227.7902820110321	fix_pre	0		75.0	78.0	2.5	/experiments/knapen_aot/videos/S_ILSVRC2015_train_00575000.mp4	0.0	329.433217048645	0.6261899471282959
80	228.40707206726074	response	0	2		78.0	2.5	/experiments/knapen_aot/videos/S_ILSVRC2015_train_00575000.mp4	0.0	330.05000710487366	
80	228.4164719581604	movie	1		301.0	78.0	2.5	/experiments/knapen_aot/videos/S_ILSVRC2015_train_00575000.mp4	0.0	330.0594069957733	2.507209062576294
80	230.9236810207367	fix_post	2		12.0	78.0	2.5	/experiments/knapen_aot/videos/S_ILSVRC2015_train_00575000.mp4	0.0	332.5666160583496	0.09996199607849121
81	231.02364301681519	fix_pre	0		25.0	79.0	2.5	/experiments/knapen_aot/videos/S_yt-gOoDjhfSPj0_162.mp4	0.0	332.6665780544281	0.20837807655334473
81	231.2164330482483	response	0	2		79.0	2.5	/experiments/knapen_aot/videos/S_yt-gOoDjhfSPj0_162.mp4	0.0	332.8593680858612	
81	231.23202109336853	movie	1		301.0	79.0	2.5	/experiments/knapen_aot/videos/S_yt-gOoDjhfSPj0_162.mp4	0.0	332.87495613098145	2.5082359313964844
81	233.74025702476501	fix_post	2		12.0	79.0	2.5	/experiments/knapen_aot/videos/S_yt-gOoDjhfSPj0_162.mp4	0.0	335.38319206237793	0.100006103515625
82	233.84026312828064	fix_pre	0		16.0	80.0	2.5	/experiments/knapen_aot/videos/S_yt-Y3pi1bgUwIg_78.mp4	0.0	335.48319816589355	0.13327288627624512
82	233.96536111831665	response	0	2		80.0	2.5	/experiments/knapen_aot/videos/S_yt-Y3pi1bgUwIg_78.mp4	0.0	335.60829615592957	
82	233.97353601455688	movie	1		300.0	80.0	2.5	/experiments/knapen_aot/videos/S_yt-Y3pi1bgUwIg_78.mp4	0.0	335.6164710521698	2.5083580017089844
82	236.48189401626587	fix_post	2		12.0	80.0	2.5	/experiments/knapen_aot/videos/S_yt-Y3pi1bgUwIg_78.mp4	0.0	338.1248290538788	0.09998893737792969
83	236.5818829536438	fix_pre	0		29.0	81.0	2.5	/experiments/knapen_aot/videos/S_comp_A114_C001_0305OT_v10_SDR_FINAL_22062018_SDR_2K_AVC.mp4	0.0	338.2248179912567	0.2416532039642334
83	236.8153760433197	response	0	2		81.0	2.5	/experiments/knapen_aot/videos/S_comp_A114_C001_0305OT_v10_SDR_FINAL_22062018_SDR_2K_AVC.mp4	0.0	338.4583110809326	
83	236.82353615760803	movie	1		169.0	81.0	2.5	/experiments/knapen_aot/videos/S_comp_A114_C001_0305OT_v10_SDR_FINAL_22062018_SDR_2K_AVC.mp4	0.0	338.46647119522095	2.508435010910034
83	239.33197116851807	fix_post	2		12.0	81.0	2.5	/experiments/knapen_aot/videos/S_comp_A114_C001_0305OT_v10_SDR_FINAL_22062018_SDR_2K_AVC.mp4	0.0	340.974906206131	0.09995198249816895
84	239.43192315101624	fix_pre	0		87.0	82.0	2.5	blank	1.0	341.07485818862915	0.7250289916992188
84	240.14876413345337	response	0	2		82.0	2.5	blank	1.0	341.7916991710663	
84	240.15695214271545	movie	1		301.0	82.0	2.5	blank	1.0	341.79988718032837	2.508312940597534
84	242.665265083313	fix_post	2		12.0	82.0	2.5	blank	1.0	344.3082001209259	0.10000205039978027
85	242.76526713371277	fix_pre	0		16.0	83.0	2.5	/experiments/knapen_aot/videos/R_S_wc-16LozRfhUGea_49.mp4	0.0	344.4082021713257	0.13330888748168945
85	242.89042901992798	response	0	2		83.0	2.5	/experiments/knapen_aot/videos/R_S_wc-16LozRfhUGea_49.mp4	0.0	344.5333640575409	
85	242.89857602119446	movie	1		300.0	83.0	2.5	/experiments/knapen_aot/videos/R_S_wc-16LozRfhUGea_49.mp4	0.0	344.5415110588074	2.508327007293701
85	245.40690302848816	fix_post	2		12.0	83.0	2.5	/experiments/knapen_aot/videos/R_S_wc-16LozRfhUGea_49.mp4	0.0	347.0498380661011	0.09996795654296875
87	245.50687098503113	stim	0		107.0					347.14980602264404	0.8916800022125244
87	245.6903350353241	response	0	2						347.333270072937	
87	246.39050006866455	response	0	space						348.03343510627747	
