trial_nr	onset	event_type	phase	response	nr_frames	movie_index	movie_duration	movie_file	blank	onset_abs	duration
0	0.13332700729370117	stim	0		28.0					67.09222912788391	0.23336291313171387
0	0.3584918975830078	response	0	space						67.31739401817322	
1	0.36668992042541504	stim	0		121.0					67.32559204101562	1.0082390308380127
1	1.2918288707733154	response	0	space						68.25073099136353	
1	1.3749289512634277	stim	1		120.0					68.33383107185364	0.9996929168701172
1	1.8080620765686035	response	1	space						68.76696419715881	
2	2.374621868133545	fix_pre	0		34.0	0.0	2.5	/experiments/knapen_aot/videos/S_production_ID_5139371.mp4	0.0	69.33352398872375	0.2833671569824219
2	2.649872064590454	response	0	space		0.0	2.5	/experiments/knapen_aot/videos/S_production_ID_5139371.mp4	0.0	69.60877418518066	
2	2.657989025115967	movie	1		162.0	0.0	2.5	/experiments/knapen_aot/videos/S_production_ID_5139371.mp4	0.0	69.61689114570618	2.5083210468292236
2	5.16631007194519	fix_post	2		12.0	0.0	2.5	/experiments/knapen_aot/videos/S_production_ID_5139371.mp4	0.0	72.1252121925354	0.10001087188720703
3	5.2663209438323975	fix_pre	0		58.0	1.0	2.5	/experiments/knapen_aot/videos/R_S_yt-kNZUFy3cbjQ_9.mp4	0.0	72.22522306442261	0.48746800422668457
3	5.746259927749634	response	0	2		1.0	2.5	/experiments/knapen_aot/videos/R_S_yt-kNZUFy3cbjQ_9.mp4	0.0	72.70516204833984	
3	5.753788948059082	movie	1		298.0	1.0	2.5	/experiments/knapen_aot/videos/R_S_yt-kNZUFy3cbjQ_9.mp4	0.0	72.71269106864929	2.5041749477386475
3	8.25796389579773	fix_post	2		12.0	1.0	2.5	/experiments/knapen_aot/videos/R_S_yt-kNZUFy3cbjQ_9.mp4	0.0	75.21686601638794	0.10006904602050781
4	8.358032941818237	fix_pre	0		46.0	2.0	2.5	/experiments/knapen_aot/videos/S_production_ID_4360158.mp4	0.0	75.31693506240845	0.38338494300842285
4	8.725704908370972	response	0	2		2.0	2.5	/experiments/knapen_aot/videos/S_production_ID_4360158.mp4	0.0	75.68460702896118	
4	8.74141788482666	movie	1		163.0	2.0	2.5	/experiments/knapen_aot/videos/S_production_ID_4360158.mp4	0.0	75.70032000541687	2.508179187774658
4	11.249597072601318	fix_post	2		12.0	2.0	2.5	/experiments/knapen_aot/videos/S_production_ID_4360158.mp4	0.0	78.20849919319153	0.10006093978881836
5	11.349658012390137	fix_pre	0		44.0	3.0	2.5	/experiments/knapen_aot/videos/R_S_yt-N1EsjM9gD5Q_21.mp4	0.0	78.30856013298035	0.3666350841522217
5	11.708000898361206	response	0	2		3.0	2.5	/experiments/knapen_aot/videos/R_S_yt-N1EsjM9gD5Q_21.mp4	0.0	78.66690301895142	
5	11.716293096542358	movie	1		301.0	3.0	2.5	/experiments/knapen_aot/videos/R_S_yt-N1EsjM9gD5Q_21.mp4	0.0	78.67519521713257	2.5083208084106445
5	14.224613904953003	fix_post	2		12.0	3.0	2.5	/experiments/knapen_aot/videos/R_S_yt-N1EsjM9gD5Q_21.mp4	0.0	81.18351602554321	0.09993815422058105
6	14.324552059173584	fix_pre	0		36.0	4.0	2.5	/experiments/knapen_aot/videos/R_S_yt-HwZFMTZ7Xko_35.mp4	0.0	81.2834541797638	0.30016589164733887
6	14.61633586883545	response	0	2		4.0	2.5	/experiments/knapen_aot/videos/R_S_yt-HwZFMTZ7Xko_35.mp4	0.0	81.57523798942566	
6	14.624717950820923	movie	1		301.0	4.0	2.5	/experiments/knapen_aot/videos/R_S_yt-HwZFMTZ7Xko_35.mp4	0.0	81.58362007141113	2.5083351135253906
6	17.133053064346313	fix_post	2		12.0	4.0	2.5	/experiments/knapen_aot/videos/R_S_yt-HwZFMTZ7Xko_35.mp4	0.0	84.09195518493652	0.09987497329711914
7	17.232928037643433	fix_pre	0		39.0	5.0	2.5	blank	1.0	84.19183015823364	0.3249380588531494
7	17.5497829914093	response	0	2		5.0	2.5	blank	1.0	84.50868511199951	
7	17.557866096496582	movie	1		301.0	5.0	2.5	blank	1.0	84.51676821708679	2.508430004119873
7	20.066296100616455	fix_post	2		12.0	5.0	2.5	blank	1.0	87.02519822120667	0.10011982917785645
8	20.16641592979431	fix_pre	0		49.0	6.0	2.5	/experiments/knapen_aot/videos/R_S_yt-8QCcmqaEMPI_16.mp4	0.0	87.12531805038452	0.4081850051879883
8	20.56638503074646	response	0	2		6.0	2.5	/experiments/knapen_aot/videos/R_S_yt-8QCcmqaEMPI_16.mp4	0.0	87.52528715133667	
8	20.5746009349823	movie	1		301.0	6.0	2.5	/experiments/knapen_aot/videos/R_S_yt-8QCcmqaEMPI_16.mp4	0.0	87.53350305557251	2.5083789825439453
8	23.082979917526245	fix_post	2		12.0	6.0	2.5	/experiments/knapen_aot/videos/R_S_yt-8QCcmqaEMPI_16.mp4	0.0	90.04188203811646	0.09992814064025879
9	23.182908058166504	fix_pre	0		53.0	7.0	2.5	/experiments/knapen_aot/videos/S_yt-mJzkLd3Mr_c_35.mp4	0.0	90.14181017875671	0.44159483909606934
9	23.61636209487915	response	0	2		7.0	2.5	/experiments/knapen_aot/videos/S_yt-mJzkLd3Mr_c_35.mp4	0.0	90.57526421546936	
9	23.624502897262573	movie	1		301.0	7.0	2.5	/experiments/knapen_aot/videos/S_yt-mJzkLd3Mr_c_35.mp4	0.0	90.58340501785278	2.508409023284912
9	26.132911920547485	fix_post	2		12.0	7.0	2.5	/experiments/knapen_aot/videos/S_yt-mJzkLd3Mr_c_35.mp4	0.0	93.0918140411377	0.10012316703796387
10	26.23303508758545	fix_pre	0		54.0	8.0	2.5	/experiments/knapen_aot/videos/R_S_wc-8bTJmWfuVyJ4_8.mp4	0.0	93.19193720817566	0.44984984397888184
10	26.674679040908813	response	0	2		8.0	2.5	/experiments/knapen_aot/videos/R_S_wc-8bTJmWfuVyJ4_8.mp4	0.0	93.63358116149902	
10	26.68288493156433	movie	1		163.0	8.0	2.5	/experiments/knapen_aot/videos/R_S_wc-8bTJmWfuVyJ4_8.mp4	0.0	93.64178705215454	2.5083889961242676
10	29.1912739276886	fix_post	2		12.0	8.0	2.5	/experiments/knapen_aot/videos/R_S_wc-8bTJmWfuVyJ4_8.mp4	0.0	96.15017604827881	0.09995102882385254
11	29.29122495651245	fix_pre	0		43.0	9.0	2.5	/experiments/knapen_aot/videos/R_S_Oo8otu7cQ20_112.mp4	0.0	96.25012707710266	0.35836195945739746
11	29.64138102531433	response	0	2		9.0	2.5	/experiments/knapen_aot/videos/R_S_Oo8otu7cQ20_112.mp4	0.0	96.60028314590454	
11	29.64958691596985	movie	1		301.0	9.0	2.5	/experiments/knapen_aot/videos/R_S_Oo8otu7cQ20_112.mp4	0.0	96.60848903656006	2.5083091259002686
11	32.15789604187012	fix_post	2		12.0	9.0	2.5	/experiments/knapen_aot/videos/R_S_Oo8otu7cQ20_112.mp4	0.0	99.11679816246033	0.10000991821289062
12	32.25790596008301	fix_pre	0		40.0	10.0	2.5	/experiments/knapen_aot/videos/R_S_ILSVRC2015_train_00404000.mp4	0.0	99.21680808067322	0.3333010673522949
12	32.583138942718506	response	0	2		10.0	2.5	/experiments/knapen_aot/videos/R_S_ILSVRC2015_train_00404000.mp4	0.0	99.54204106330872	
12	32.5912070274353	movie	1		301.0	10.0	2.5	/experiments/knapen_aot/videos/R_S_ILSVRC2015_train_00404000.mp4	0.0	99.55010914802551	2.5082690715789795
12	35.09947609901428	fix_post	2		12.0	10.0	2.5	/experiments/knapen_aot/videos/R_S_ILSVRC2015_train_00404000.mp4	0.0	102.05837821960449	0.10010385513305664
13	35.19957995414734	fix_pre	0		43.0	11.0	2.5	/experiments/knapen_aot/videos/R_S_c5iVM3LI6kI_252.mp4	0.0	102.15848207473755	0.3595700263977051
13	35.5497100353241	response	0	2		11.0	2.5	/experiments/knapen_aot/videos/R_S_c5iVM3LI6kI_252.mp4	0.0	102.5086121559143	
13	35.559149980545044	movie	1		301.0	11.0	2.5	/experiments/knapen_aot/videos/R_S_c5iVM3LI6kI_252.mp4	0.0	102.51805210113525	2.507016897201538
13	38.06616687774658	fix_post	2		12.0	11.0	2.5	/experiments/knapen_aot/videos/R_S_c5iVM3LI6kI_252.mp4	0.0	105.02506899833679	0.1000361442565918
14	38.166203022003174	fix_pre	0		36.0	12.0	2.5	/experiments/knapen_aot/videos/R_S_yt-MhW2fU45JK8_544.mp4	0.0	105.12510514259338	0.29993391036987305
14	38.45798707008362	response	0	2		12.0	2.5	/experiments/knapen_aot/videos/R_S_yt-MhW2fU45JK8_544.mp4	0.0	105.41688919067383	
14	38.46613693237305	movie	1		301.0	12.0	2.5	/experiments/knapen_aot/videos/R_S_yt-MhW2fU45JK8_544.mp4	0.0	105.42503905296326	2.5083980560302734
14	40.97453498840332	fix_post	2		12.0	12.0	2.5	/experiments/knapen_aot/videos/R_S_yt-MhW2fU45JK8_544.mp4	0.0	107.93343710899353	0.09987211227416992
15	41.07440710067749	fix_pre	0		42.0	13.0	2.5	blank	1.0	108.0333092212677	0.35004186630249023
15	41.40877604484558	response	0	2		13.0	2.5	blank	1.0	108.36767816543579	
15	41.42444896697998	movie	1		301.0	13.0	2.5	blank	1.0	108.38335108757019	2.5083389282226562
15	43.93278789520264	fix_post	2		12.0	13.0	2.5	blank	1.0	110.89169001579285	0.10010409355163574
16	44.03289198875427	fix_pre	0		49.0	14.0	2.5	/experiments/knapen_aot/videos/R_S_comp_A103_C002_0205DG_v12_SDR_FINAL_20180706_SDR_2K_AVC.mp4	0.0	110.99179410934448	0.40827393531799316
16	44.4329309463501	response	0	2		14.0	2.5	/experiments/knapen_aot/videos/R_S_comp_A103_C002_0205DG_v12_SDR_FINAL_20180706_SDR_2K_AVC.mp4	0.0	111.39183306694031	
16	44.441165924072266	movie	1		168.0	14.0	2.5	/experiments/knapen_aot/videos/R_S_comp_A103_C002_0205DG_v12_SDR_FINAL_20180706_SDR_2K_AVC.mp4	0.0	111.40006804466248	2.50829815864563
16	46.949464082717896	fix_post	2		12.0	14.0	2.5	/experiments/knapen_aot/videos/R_S_comp_A103_C002_0205DG_v12_SDR_FINAL_20180706_SDR_2K_AVC.mp4	0.0	113.9083662033081	0.09997081756591797
17	47.04943490028381	fix_pre	0		38.0	15.0	2.5	/experiments/knapen_aot/videos/R_S_ILSVRC2015_train_00405001.mp4	0.0	114.00833702087402	0.31666016578674316
17	47.35794401168823	response	0	2		15.0	2.5	/experiments/knapen_aot/videos/R_S_ILSVRC2015_train_00405001.mp4	0.0	114.31684613227844	
17	47.36609506607056	movie	1		301.0	15.0	2.5	/experiments/knapen_aot/videos/R_S_ILSVRC2015_train_00405001.mp4	0.0	114.32499718666077	2.5085668563842773
17	49.874661922454834	fix_post	2		12.0	15.0	2.5	/experiments/knapen_aot/videos/R_S_ILSVRC2015_train_00405001.mp4	0.0	116.83356404304504	0.09999299049377441
18	49.97465491294861	fix_pre	0		42.0	16.0	2.5	/experiments/knapen_aot/videos/S_yt-9T99N7Cvi_o_112.mp4	0.0	116.93355703353882	0.34984302520751953
18	50.31633496284485	response	0	2		16.0	2.5	/experiments/knapen_aot/videos/S_yt-9T99N7Cvi_o_112.mp4	0.0	117.27523708343506	
18	50.32449793815613	movie	1		301.0	16.0	2.5	/experiments/knapen_aot/videos/S_yt-9T99N7Cvi_o_112.mp4	0.0	117.28340005874634	2.508302927017212
18	52.83280086517334	fix_post	2		12.0	16.0	2.5	/experiments/knapen_aot/videos/S_yt-9T99N7Cvi_o_112.mp4	0.0	119.79170298576355	0.09994316101074219
19	52.93274402618408	fix_pre	0		45.0	17.0	2.5	/experiments/knapen_aot/videos/R_S_FK_U009_C004_SDR_20191220_SDR_2K_AVC.mp4	0.0	119.89164614677429	0.3762228488922119
19	53.29951500892639	response	0	2		17.0	2.5	/experiments/knapen_aot/videos/R_S_FK_U009_C004_SDR_20191220_SDR_2K_AVC.mp4	0.0	120.2584171295166	
19	53.308966875076294	movie	1		161.0	17.0	2.5	/experiments/knapen_aot/videos/R_S_FK_U009_C004_SDR_20191220_SDR_2K_AVC.mp4	0.0	120.2678689956665	2.507150173187256
19	55.81611704826355	fix_post	2		12.0	17.0	2.5	/experiments/knapen_aot/videos/R_S_FK_U009_C004_SDR_20191220_SDR_2K_AVC.mp4	0.0	122.77501916885376	0.10002493858337402
20	55.916141986846924	fix_pre	0		45.0	18.0	2.5	/experiments/knapen_aot/videos/S_wc-8bTJmWfuVyJ4_8.mp4	0.0	122.87504410743713	0.37493205070495605
20	56.28287196159363	response	0	2		18.0	2.5	/experiments/knapen_aot/videos/S_wc-8bTJmWfuVyJ4_8.mp4	0.0	123.24177408218384	
20	56.29107403755188	movie	1		164.0	18.0	2.5	/experiments/knapen_aot/videos/S_wc-8bTJmWfuVyJ4_8.mp4	0.0	123.24997615814209	2.5085039138793945
20	58.799577951431274	fix_post	2		12.0	18.0	2.5	/experiments/knapen_aot/videos/S_wc-8bTJmWfuVyJ4_8.mp4	0.0	125.75848007202148	0.099884033203125
21	58.8994619846344	fix_pre	0		45.0	19.0	2.5	blank	1.0	125.85836410522461	0.3748939037322998
21	59.266237020492554	response	0	2		19.0	2.5	blank	1.0	126.22513914108276	
21	59.2743558883667	movie	1		301.0	19.0	2.5	blank	1.0	126.23325800895691	2.5083839893341064
21	61.782739877700806	fix_post	2		12.0	19.0	2.5	blank	1.0	128.74164199829102	0.10001206398010254
22	61.88275194168091	fix_pre	0		46.0	20.0	2.5	/experiments/knapen_aot/videos/R_S_yt-Q6BFO3Yz0zY_363.mp4	0.0	128.84165406227112	0.3844749927520752
22	62.25043296813965	response	0	2		20.0	2.5	/experiments/knapen_aot/videos/R_S_yt-Q6BFO3Yz0zY_363.mp4	0.0	129.20933508872986	
22	62.26722693443298	movie	1		301.0	20.0	2.5	/experiments/knapen_aot/videos/R_S_yt-Q6BFO3Yz0zY_363.mp4	0.0	129.2261290550232	2.507200002670288
22	64.77442693710327	fix_post	2		12.0	20.0	2.5	/experiments/knapen_aot/videos/R_S_yt-Q6BFO3Yz0zY_363.mp4	0.0	131.73332905769348	0.09990406036376953
23	64.87433099746704	fix_pre	0		38.0	21.0	2.5	/experiments/knapen_aot/videos/S_yt-8QCcmqaEMPI_16.mp4	0.0	131.83323311805725	0.31673407554626465
23	65.17536306381226	response	0	2		21.0	2.5	/experiments/knapen_aot/videos/S_yt-8QCcmqaEMPI_16.mp4	0.0	132.13426518440247	
23	65.1910650730133	movie	1		301.0	21.0	2.5	/experiments/knapen_aot/videos/S_yt-8QCcmqaEMPI_16.mp4	0.0	132.14996719360352	2.5083580017089844
23	67.69942307472229	fix_post	2		12.0	21.0	2.5	/experiments/knapen_aot/videos/S_yt-8QCcmqaEMPI_16.mp4	0.0	134.6583251953125	0.09999799728393555
24	67.79942107200623	fix_pre	0		43.0	22.0	2.5	/experiments/knapen_aot/videos/S_yt-w_e3sxIzepA_115.mp4	0.0	134.75832319259644	0.35831379890441895
24	68.14948797225952	response	0	2		22.0	2.5	/experiments/knapen_aot/videos/S_yt-w_e3sxIzepA_115.mp4	0.0	135.10839009284973	
24	68.15773487091064	movie	1		301.0	22.0	2.5	/experiments/knapen_aot/videos/S_yt-w_e3sxIzepA_115.mp4	0.0	135.11663699150085	2.5084710121154785
24	70.66620588302612	fix_post	2		12.0	22.0	2.5	/experiments/knapen_aot/videos/S_yt-w_e3sxIzepA_115.mp4	0.0	137.62510800361633	0.09989118576049805
25	70.76609706878662	fix_pre	0		40.0	23.0	2.5	/experiments/knapen_aot/videos/R_S_yt-2XRGfGc0q44_37.mp4	0.0	137.72499918937683	0.3344228267669678
25	71.09120893478394	response	0	2		23.0	2.5	/experiments/knapen_aot/videos/R_S_yt-2XRGfGc0q44_37.mp4	0.0	138.05011105537415	
25	71.10051989555359	movie	1		300.0	23.0	2.5	/experiments/knapen_aot/videos/R_S_yt-2XRGfGc0q44_37.mp4	0.0	138.0594220161438	2.5071799755096436
25	73.60769987106323	fix_post	2		12.0	23.0	2.5	/experiments/knapen_aot/videos/R_S_yt-2XRGfGc0q44_37.mp4	0.0	140.56660199165344	0.10002303123474121
26	73.70772290229797	fix_pre	0		38.0	24.0	2.5	/experiments/knapen_aot/videos/R_S_ILSVRC2015_train_00473000.mp4	0.0	140.66662502288818	0.3166680335998535
26	74.01619005203247	response	0	2		24.0	2.5	/experiments/knapen_aot/videos/R_S_ILSVRC2015_train_00473000.mp4	0.0	140.97509217262268	
26	74.02439093589783	movie	1		301.0	24.0	2.5	/experiments/knapen_aot/videos/R_S_ILSVRC2015_train_00473000.mp4	0.0	140.98329305648804	2.508305072784424
26	76.53269600868225	fix_post	2		12.0	24.0	2.5	/experiments/knapen_aot/videos/R_S_ILSVRC2015_train_00473000.mp4	0.0	143.49159812927246	0.09997296333312988
27	76.63266897201538	fix_pre	0		43.0	25.0	2.5	/experiments/knapen_aot/videos/R_S_yt-z5rxY-WhFNw_15.mp4	0.0	143.5915710926056	0.3582921028137207
27	76.98276495933533	response	0	2		25.0	2.5	/experiments/knapen_aot/videos/R_S_yt-z5rxY-WhFNw_15.mp4	0.0	143.94166707992554	
27	76.9909610748291	movie	1		301.0	25.0	2.5	/experiments/knapen_aot/videos/R_S_yt-z5rxY-WhFNw_15.mp4	0.0	143.9498631954193	2.5084409713745117
27	79.49940204620361	fix_post	2		12.0	25.0	2.5	/experiments/knapen_aot/videos/R_S_yt-z5rxY-WhFNw_15.mp4	0.0	146.45830416679382	0.09992694854736328
28	79.59932899475098	fix_pre	0		35.0	26.0	2.5	/experiments/knapen_aot/videos/R_S_yt-s2tZ2NIQrxg_175.mp4	0.0	146.5582311153412	0.2927370071411133
28	79.88273692131042	response	0	2		26.0	2.5	/experiments/knapen_aot/videos/R_S_yt-s2tZ2NIQrxg_175.mp4	0.0	146.84163904190063	
28	79.89206600189209	movie	1		301.0	26.0	2.5	/experiments/knapen_aot/videos/R_S_yt-s2tZ2NIQrxg_175.mp4	0.0	146.8509681224823	2.50730299949646
28	82.39936900138855	fix_post	2		12.0	26.0	2.5	/experiments/knapen_aot/videos/R_S_yt-s2tZ2NIQrxg_175.mp4	0.0	149.35827112197876	0.10001397132873535
29	82.49938297271729	fix_pre	0		74.0	27.0	2.5	/experiments/knapen_aot/videos/R_S_production_ID_5146014.mp4	0.0	149.4582850933075	0.6165978908538818
29	83.10029888153076	response	0	2		27.0	2.5	/experiments/knapen_aot/videos/R_S_production_ID_5146014.mp4	0.0	150.05920100212097	
29	83.11598086357117	movie	1		167.0	27.0	2.5	/experiments/knapen_aot/videos/R_S_production_ID_5146014.mp4	0.0	150.07488298416138	2.5083892345428467
29	85.62437009811401	fix_post	2		12.0	27.0	2.5	/experiments/knapen_aot/videos/R_S_production_ID_5146014.mp4	0.0	152.58327221870422	0.09998083114624023
30	85.72435092926025	fix_pre	0		29.0	28.0	2.5	blank	1.0	152.68325304985046	0.2415790557861328
30	85.95769095420837	response	0	2		28.0	2.5	blank	1.0	152.91659307479858	
30	85.96592998504639	movie	1		301.0	28.0	2.5	blank	1.0	152.9248321056366	2.5084030628204346
30	88.47433304786682	fix_post	2		12.0	28.0	2.5	blank	1.0	155.43323516845703	0.09994697570800781
31	88.57428002357483	fix_pre	0		65.0	29.0	2.5	/experiments/knapen_aot/videos/S_c5iVM3LI6kI_252.mp4	0.0	155.53318214416504	0.5416569709777832
31	89.10773086547852	response	0	2		29.0	2.5	/experiments/knapen_aot/videos/S_c5iVM3LI6kI_252.mp4	0.0	156.06663298606873	
31	89.11593699455261	movie	1		301.0	29.0	2.5	/experiments/knapen_aot/videos/S_c5iVM3LI6kI_252.mp4	0.0	156.07483911514282	2.5084590911865234
31	91.62439608573914	fix_post	2		12.0	29.0	2.5	/experiments/knapen_aot/videos/S_c5iVM3LI6kI_252.mp4	0.0	158.58329820632935	0.09989595413208008
32	91.72429203987122	fix_pre	0		37.0	30.0	2.5	/experiments/knapen_aot/videos/R_S_yt-c5KPuyzO-50_4.mp4	0.0	158.68319416046143	0.3083469867706299
32	92.02442407608032	response	0	2		30.0	2.5	/experiments/knapen_aot/videos/R_S_yt-c5KPuyzO-50_4.mp4	0.0	158.98332619667053	
32	92.03263902664185	movie	1		301.0	30.0	2.5	/experiments/knapen_aot/videos/R_S_yt-c5KPuyzO-50_4.mp4	0.0	158.99154114723206	2.5084450244903564
32	94.5410840511322	fix_post	2		12.0	30.0	2.5	/experiments/knapen_aot/videos/R_S_yt-c5KPuyzO-50_4.mp4	0.0	161.4999861717224	0.09998393058776855
33	94.64106798171997	fix_pre	0		40.0	31.0	2.5	/experiments/knapen_aot/videos/R_S_yt-lv6mhnH7_g4_134.mp4	0.0	161.59997010231018	0.3342549800872803
33	94.96598100662231	response	0	2		31.0	2.5	/experiments/knapen_aot/videos/R_S_yt-lv6mhnH7_g4_134.mp4	0.0	161.92488312721252	
33	94.97532296180725	movie	1		301.0	31.0	2.5	/experiments/knapen_aot/videos/R_S_yt-lv6mhnH7_g4_134.mp4	0.0	161.93422508239746	2.5073399543762207
33	97.48266291618347	fix_post	2		12.0	31.0	2.5	/experiments/knapen_aot/videos/R_S_yt-lv6mhnH7_g4_134.mp4	0.0	164.44156503677368	0.09992313385009766
34	97.58258605003357	fix_pre	0		52.0	32.0	2.5	/experiments/knapen_aot/videos/S_comp_GMT308_139K_142NC_CARIBBEAN_DAY_v09_SDR_FINAL_22062018_SDR_2K_AVC.mp4	0.0	164.54148817062378	0.434337854385376
34	98.00768303871155	response	0	2		32.0	2.5	/experiments/knapen_aot/videos/S_comp_GMT308_139K_142NC_CARIBBEAN_DAY_v09_SDR_FINAL_22062018_SDR_2K_AVC.mp4	0.0	164.96658515930176	
34	98.01692390441895	movie	1		167.0	32.0	2.5	/experiments/knapen_aot/videos/S_comp_GMT308_139K_142NC_CARIBBEAN_DAY_v09_SDR_FINAL_22062018_SDR_2K_AVC.mp4	0.0	164.97582602500916	2.5073280334472656
34	100.52425193786621	fix_post	2		12.0	32.0	2.5	/experiments/knapen_aot/videos/S_comp_GMT308_139K_142NC_CARIBBEAN_DAY_v09_SDR_FINAL_22062018_SDR_2K_AVC.mp4	0.0	167.48315405845642	0.10003399848937988
35	100.62428593635559	fix_pre	0		30.0	33.0	2.5	/experiments/knapen_aot/videos/R_S_b6-4.mp4	0.0	167.5831880569458	0.24991703033447266
35	100.86600303649902	response	0	2		33.0	2.5	/experiments/knapen_aot/videos/R_S_b6-4.mp4	0.0	167.82490515708923	
35	100.87420296669006	movie	1		172.0	33.0	2.5	/experiments/knapen_aot/videos/R_S_b6-4.mp4	0.0	167.83310508728027	2.5083789825439453
35	103.38258194923401	fix_post	2		12.0	33.0	2.5	/experiments/knapen_aot/videos/R_S_b6-4.mp4	0.0	170.34148406982422	0.10005497932434082
36	103.48263692855835	fix_pre	0		39.0	34.0	2.5	blank	1.0	170.44153904914856	0.32494616508483887
36	103.79180693626404	response	0	2		34.0	2.5	blank	1.0	170.75070905685425	
36	103.80758309364319	movie	1		301.0	34.0	2.5	blank	1.0	170.7664852142334	2.5083529949188232
36	106.31593608856201	fix_post	2		12.0	34.0	2.5	blank	1.0	173.27483820915222	0.0999147891998291
37	106.41585087776184	fix_pre	0		60.0	35.0	2.5	/experiments/knapen_aot/videos/R_S_PA_A001_C007_SDR_20190717_SDR_2K_AVC.mp4	0.0	173.37475299835205	0.5000340938568115
37	106.9075939655304	response	0	2		35.0	2.5	/experiments/knapen_aot/videos/R_S_PA_A001_C007_SDR_20190717_SDR_2K_AVC.mp4	0.0	173.8664960861206	
37	106.91588497161865	movie	1		171.0	35.0	2.5	/experiments/knapen_aot/videos/R_S_PA_A001_C007_SDR_20190717_SDR_2K_AVC.mp4	0.0	173.87478709220886	2.5083351135253906
37	109.42422008514404	fix_post	2		12.0	35.0	2.5	/experiments/knapen_aot/videos/R_S_PA_A001_C007_SDR_20190717_SDR_2K_AVC.mp4	0.0	176.38312220573425	0.10031485557556152
38	109.5245349407196	fix_pre	0		49.0	36.0	2.5	/experiments/knapen_aot/videos/S_yt-PCSXJ5YB_AE_3.mp4	0.0	176.48343706130981	0.408966064453125
38	109.92431807518005	response	0	2		36.0	2.5	/experiments/knapen_aot/videos/S_yt-PCSXJ5YB_AE_3.mp4	0.0	176.88322019577026	
38	109.93350100517273	movie	1		301.0	36.0	2.5	/experiments/knapen_aot/videos/S_yt-PCSXJ5YB_AE_3.mp4	0.0	176.89240312576294	2.507662057876587
38	112.44116306304932	fix_post	2		12.0	36.0	2.5	/experiments/knapen_aot/videos/S_yt-PCSXJ5YB_AE_3.mp4	0.0	179.40006518363953	0.09970593452453613
39	112.54086899757385	fix_pre	0		50.0	37.0	2.5	/experiments/knapen_aot/videos/S_yt-Jo6PxivsTOg_247.mp4	0.0	179.49977111816406	0.41661906242370605
39	112.9493100643158	response	0	2		37.0	2.5	/experiments/knapen_aot/videos/S_yt-Jo6PxivsTOg_247.mp4	0.0	179.908212184906	
39	112.95748805999756	movie	1		301.0	37.0	2.5	/experiments/knapen_aot/videos/S_yt-Jo6PxivsTOg_247.mp4	0.0	179.91639018058777	2.5083348751068115
39	115.46582293510437	fix_post	2		12.0	37.0	2.5	/experiments/knapen_aot/videos/S_yt-Jo6PxivsTOg_247.mp4	0.0	182.42472505569458	0.10013198852539062
40	115.56595492362976	fix_pre	0		47.0	38.0	2.5	/experiments/knapen_aot/videos/S_yt-TSSPDwAQLXs_158.mp4	0.0	182.52485704421997	0.3915541172027588
40	115.94932889938354	response	0	2		38.0	2.5	/experiments/knapen_aot/videos/S_yt-TSSPDwAQLXs_158.mp4	0.0	182.90823101997375	
40	115.95750904083252	movie	1		301.0	38.0	2.5	/experiments/knapen_aot/videos/S_yt-TSSPDwAQLXs_158.mp4	0.0	182.91641116142273	2.5084400177001953
40	118.46594905853271	fix_post	2		12.0	38.0	2.5	/experiments/knapen_aot/videos/S_yt-TSSPDwAQLXs_158.mp4	0.0	185.42485117912292	0.0999288558959961
41	118.56587791442871	fix_pre	0		49.0	39.0	2.5	/experiments/knapen_aot/videos/R_S_yt-kYMffy4hTMo_107.mp4	0.0	185.52478003501892	0.40919017791748047
41	118.96599698066711	response	0	2		39.0	2.5	/experiments/knapen_aot/videos/R_S_yt-kYMffy4hTMo_107.mp4	0.0	185.92489910125732	
41	118.97506809234619	movie	1		298.0	39.0	2.5	/experiments/knapen_aot/videos/R_S_yt-kYMffy4hTMo_107.mp4	0.0	185.9339702129364	2.50744891166687
41	121.48251700401306	fix_post	2		12.0	39.0	2.5	/experiments/knapen_aot/videos/R_S_yt-kYMffy4hTMo_107.mp4	0.0	188.44141912460327	0.09994006156921387
42	121.58245706558228	fix_pre	0		33.0	40.0	2.5	blank	1.0	188.54135918617249	0.2749459743499756
42	121.84935188293457	response	0	2		40.0	2.5	blank	1.0	188.80825400352478	
42	121.85740303993225	movie	1		301.0	40.0	2.5	blank	1.0	188.81630516052246	2.508352041244507
42	124.36575508117676	fix_post	2		12.0	40.0	2.5	blank	1.0	191.32465720176697	0.1000828742980957
43	124.46583795547485	fix_pre	0		60.0	41.0	2.5	/experiments/knapen_aot/videos/R_S_yt-Nnt51ug6NF8_53.mp4	0.0	191.42474007606506	0.49993205070495605
43	124.95757603645325	response	0	2		41.0	2.5	/experiments/knapen_aot/videos/R_S_yt-Nnt51ug6NF8_53.mp4	0.0	191.91647815704346	
43	124.96577000617981	movie	1		301.0	41.0	2.5	/experiments/knapen_aot/videos/R_S_yt-Nnt51ug6NF8_53.mp4	0.0	191.92467212677002	2.5084378719329834
43	127.4742078781128	fix_post	2		12.0	41.0	2.5	/experiments/knapen_aot/videos/R_S_yt-Nnt51ug6NF8_53.mp4	0.0	194.433109998703	0.09990906715393066
44	127.57411694526672	fix_pre	0		44.0	42.0	2.5	/experiments/knapen_aot/videos/S_ILSVRC2015_train_00551000.mp4	0.0	194.53301906585693	0.366779088973999
44	127.93270087242126	response	0	2		42.0	2.5	/experiments/knapen_aot/videos/S_ILSVRC2015_train_00551000.mp4	0.0	194.89160299301147	
44	127.94089603424072	movie	1		301.0	42.0	2.5	/experiments/knapen_aot/videos/S_ILSVRC2015_train_00551000.mp4	0.0	194.89979815483093	2.508333921432495
44	130.44922995567322	fix_post	2		12.0	42.0	2.5	/experiments/knapen_aot/videos/S_ILSVRC2015_train_00551000.mp4	0.0	197.40813207626343	0.09992599487304688
45	130.54915595054626	fix_pre	0		55.0	43.0	2.5	/experiments/knapen_aot/videos/S_SPNvf6JCjGw_123.mp4	0.0	197.50805807113647	0.4582500457763672
45	130.99924397468567	response	0	2		43.0	2.5	/experiments/knapen_aot/videos/S_SPNvf6JCjGw_123.mp4	0.0	197.95814609527588	
45	131.00740599632263	movie	1		301.0	43.0	2.5	/experiments/knapen_aot/videos/S_SPNvf6JCjGw_123.mp4	0.0	197.96630811691284	2.5085010528564453
45	133.51590704917908	fix_post	2		12.0	43.0	2.5	/experiments/knapen_aot/videos/S_SPNvf6JCjGw_123.mp4	0.0	200.4748091697693	0.09999704360961914
46	133.6159040927887	fix_pre	0		31.0	44.0	2.5	/experiments/knapen_aot/videos/R_S_comp_CH_C002_C005_PSNK_v05_SDR_PS_FINAL_20180709_SDR_2K_AVC.mp4	0.0	200.5748062133789	0.2581658363342285
46	133.86591386795044	response	0	2		44.0	2.5	/experiments/knapen_aot/videos/R_S_comp_CH_C002_C005_PSNK_v05_SDR_PS_FINAL_20180709_SDR_2K_AVC.mp4	0.0	200.82481598854065	
46	133.87406992912292	movie	1		184.0	44.0	2.5	/experiments/knapen_aot/videos/R_S_comp_CH_C002_C005_PSNK_v05_SDR_PS_FINAL_20180709_SDR_2K_AVC.mp4	0.0	200.83297204971313	2.5083019733428955
46	136.38237190246582	fix_post	2		12.0	44.0	2.5	/experiments/knapen_aot/videos/R_S_comp_CH_C002_C005_PSNK_v05_SDR_PS_FINAL_20180709_SDR_2K_AVC.mp4	0.0	203.34127402305603	0.10007214546203613
47	136.48244404792786	fix_pre	0		78.0	45.0	2.5	/experiments/knapen_aot/videos/R_S_yt-tneuR3EtSZE_72.mp4	0.0	203.44134616851807	0.6500070095062256
47	137.1242549419403	response	0	2		45.0	2.5	/experiments/knapen_aot/videos/R_S_yt-tneuR3EtSZE_72.mp4	0.0	204.08315706253052	
47	137.13245105743408	movie	1		301.0	45.0	2.5	/experiments/knapen_aot/videos/R_S_yt-tneuR3EtSZE_72.mp4	0.0	204.0913531780243	2.5083019733428955
47	139.64075303077698	fix_post	2		12.0	45.0	2.5	/experiments/knapen_aot/videos/R_S_yt-tneuR3EtSZE_72.mp4	0.0	206.5996551513672	0.09998393058776855
48	139.74073696136475	fix_pre	0		46.0	46.0	2.5	/experiments/knapen_aot/videos/S_yt-AjyR9--Mx3A_44.mp4	0.0	206.69963908195496	0.38332200050354004
48	140.1158468723297	response	0	2		46.0	2.5	/experiments/knapen_aot/videos/S_yt-AjyR9--Mx3A_44.mp4	0.0	207.07474899291992	
48	140.1240589618683	movie	1		301.0	46.0	2.5	/experiments/knapen_aot/videos/S_yt-AjyR9--Mx3A_44.mp4	0.0	207.0829610824585	2.508388042449951
48	142.63244700431824	fix_post	2		12.0	46.0	2.5	/experiments/knapen_aot/videos/S_yt-AjyR9--Mx3A_44.mp4	0.0	209.59134912490845	0.09992790222167969
49	142.73237490653992	fix_pre	0		47.0	47.0	2.5	/experiments/knapen_aot/videos/R_S_yt-GLK6LniTOK0_69.mp4	0.0	209.69127702713013	0.3916480541229248
49	143.11583709716797	response	0	2		47.0	2.5	/experiments/knapen_aot/videos/R_S_yt-GLK6LniTOK0_69.mp4	0.0	210.07473921775818	
49	143.12402296066284	movie	1		301.0	47.0	2.5	/experiments/knapen_aot/videos/R_S_yt-GLK6LniTOK0_69.mp4	0.0	210.08292508125305	2.5083301067352295
49	145.63235306739807	fix_post	2		12.0	47.0	2.5	/experiments/knapen_aot/videos/R_S_yt-GLK6LniTOK0_69.mp4	0.0	212.59125518798828	0.10004186630249023
50	145.73239493370056	fix_pre	0		33.0	48.0	2.5	/experiments/knapen_aot/videos/S_yt-146gReE6xKw_379.mp4	0.0	212.69129705429077	0.2749910354614258
50	145.99910593032837	response	0	2		48.0	2.5	/experiments/knapen_aot/videos/S_yt-146gReE6xKw_379.mp4	0.0	212.95800805091858	
50	146.007385969162	movie	1		301.0	48.0	2.5	/experiments/knapen_aot/videos/S_yt-146gReE6xKw_379.mp4	0.0	212.9662880897522	2.5083560943603516
50	148.51574206352234	fix_post	2		12.0	48.0	2.5	/experiments/knapen_aot/videos/S_yt-146gReE6xKw_379.mp4	0.0	215.47464418411255	0.09994292259216309
51	148.6156849861145	fix_pre	0		57.0	49.0	2.5	blank	1.0	215.5745871067047	0.47517895698547363
51	149.0825228691101	response	0	2		49.0	2.5	blank	1.0	216.04142498970032	
51	149.09086394309998	movie	1		301.0	49.0	2.5	blank	1.0	216.04976606369019	2.5081710815429688
51	151.59903502464294	fix_post	2		12.0	49.0	2.5	blank	1.0	218.55793714523315	0.10001897811889648
52	151.69905400276184	fix_pre	0		45.0	50.0	2.5	/experiments/knapen_aot/videos/R_S_yt-BAQ3Xhm_PPE_23.mp4	0.0	218.65795612335205	0.3749358654022217
52	152.06582808494568	response	0	2		50.0	2.5	/experiments/knapen_aot/videos/R_S_yt-BAQ3Xhm_PPE_23.mp4	0.0	219.0247302055359	
52	152.07398986816406	movie	1		301.0	50.0	2.5	/experiments/knapen_aot/videos/R_S_yt-BAQ3Xhm_PPE_23.mp4	0.0	219.03289198875427	2.5083911418914795
52	154.58238101005554	fix_post	2		12.0	50.0	2.5	/experiments/knapen_aot/videos/R_S_yt-BAQ3Xhm_PPE_23.mp4	0.0	221.54128313064575	0.10000300407409668
53	154.68238401412964	fix_pre	0		29.0	51.0	2.5	/experiments/knapen_aot/videos/S_yt-GO26QIueqRw_385.mp4	0.0	221.64128613471985	0.24160003662109375
53	154.91578698158264	response	0	2		51.0	2.5	/experiments/knapen_aot/videos/S_yt-GO26QIueqRw_385.mp4	0.0	221.87468910217285	
53	154.92398405075073	movie	1		301.0	51.0	2.5	/experiments/knapen_aot/videos/S_yt-GO26QIueqRw_385.mp4	0.0	221.88288617134094	2.5084140300750732
53	157.4323980808258	fix_post	2		12.0	51.0	2.5	/experiments/knapen_aot/videos/S_yt-GO26QIueqRw_385.mp4	0.0	224.39130020141602	0.10009384155273438
54	157.53249192237854	fix_pre	0		48.0	52.0	2.5	/experiments/knapen_aot/videos/R_S_yt-AbJBxqEYoMg_27.mp4	0.0	224.49139404296875	0.4006359577178955
54	157.92413592338562	response	0	2		52.0	2.5	/experiments/knapen_aot/videos/R_S_yt-AbJBxqEYoMg_27.mp4	0.0	224.88303804397583	
54	157.93312788009644	movie	1		301.0	52.0	2.5	/experiments/knapen_aot/videos/R_S_yt-AbJBxqEYoMg_27.mp4	0.0	224.89203000068665	2.5075600147247314
54	160.44068789482117	fix_post	2		12.0	52.0	2.5	/experiments/knapen_aot/videos/R_S_yt-AbJBxqEYoMg_27.mp4	0.0	227.39959001541138	0.09994816780090332
55	160.54063606262207	fix_pre	0		42.0	53.0	2.5	/experiments/knapen_aot/videos/R_S_yt-zam74qlzGtQ_122.mp4	0.0	227.49953818321228	0.3506968021392822
55	160.87504196166992	response	0	2		53.0	2.5	/experiments/knapen_aot/videos/R_S_yt-zam74qlzGtQ_122.mp4	0.0	227.83394408226013	
55	160.89133286476135	movie	1		301.0	53.0	2.5	/experiments/knapen_aot/videos/R_S_yt-zam74qlzGtQ_122.mp4	0.0	227.85023498535156	2.507622003555298
55	163.39895486831665	fix_post	2		12.0	53.0	2.5	/experiments/knapen_aot/videos/R_S_yt-zam74qlzGtQ_122.mp4	0.0	230.35785698890686	0.10003113746643066
56	163.49898600578308	fix_pre	0		44.0	54.0	2.5	/experiments/knapen_aot/videos/R_S_yt-pB9w3AA-woE_37.mp4	0.0	230.4578881263733	0.3666698932647705
56	163.85745787620544	response	0	2		54.0	2.5	/experiments/knapen_aot/videos/R_S_yt-pB9w3AA-woE_37.mp4	0.0	230.81635999679565	
56	163.86565589904785	movie	1		301.0	54.0	2.5	/experiments/knapen_aot/videos/R_S_yt-pB9w3AA-woE_37.mp4	0.0	230.82455801963806	2.5083320140838623
56	166.3739879131317	fix_post	2		12.0	54.0	2.5	/experiments/knapen_aot/videos/R_S_yt-pB9w3AA-woE_37.mp4	0.0	233.33289003372192	0.09992504119873047
57	166.47391295433044	fix_pre	0		91.0	55.0	2.5	/experiments/knapen_aot/videos/S_yt-tX3slAQb9yY_13.mp4	0.0	233.43281507492065	0.7583470344543457
57	167.22405409812927	response	0	2		55.0	2.5	/experiments/knapen_aot/videos/S_yt-tX3slAQb9yY_13.mp4	0.0	234.18295621871948	
57	167.2322599887848	movie	1		301.0	55.0	2.5	/experiments/knapen_aot/videos/S_yt-tX3slAQb9yY_13.mp4	0.0	234.191162109375	2.5083649158477783
57	169.74062490463257	fix_post	2		12.0	55.0	2.5	/experiments/knapen_aot/videos/S_yt-tX3slAQb9yY_13.mp4	0.0	236.69952702522278	0.10000109672546387
58	169.84062600135803	fix_pre	0		38.0	56.0	2.5	blank	1.0	236.79952812194824	0.3166170120239258
58	170.14931297302246	response	0	2		56.0	2.5	blank	1.0	237.10821509361267	
58	170.15724301338196	movie	1		301.0	56.0	2.5	blank	1.0	237.11614513397217	2.5083248615264893
58	172.66556787490845	fix_post	2		12.0	56.0	2.5	blank	1.0	239.62446999549866	0.10005021095275879
59	172.7656180858612	fix_pre	0		49.0	57.0	2.5	/experiments/knapen_aot/videos/R_S_comp_A103_C002_0205DG_v12_SDR_FINAL_20180706_SDR_2K_AVC.mp4	0.0	239.72452020645142	0.40833497047424316
59	173.1657519340515	response	0	2		57.0	2.5	/experiments/knapen_aot/videos/R_S_comp_A103_C002_0205DG_v12_SDR_FINAL_20180706_SDR_2K_AVC.mp4	0.0	240.12465405464172	
59	173.17395305633545	movie	1		165.0	57.0	2.5	/experiments/knapen_aot/videos/R_S_comp_A103_C002_0205DG_v12_SDR_FINAL_20180706_SDR_2K_AVC.mp4	0.0	240.13285517692566	2.508565902709961
59	175.6825189590454	fix_post	2		12.0	57.0	2.5	/experiments/knapen_aot/videos/R_S_comp_A103_C002_0205DG_v12_SDR_FINAL_20180706_SDR_2K_AVC.mp4	0.0	242.64142107963562	0.09979796409606934
60	175.78231692314148	fix_pre	0		49.0	58.0	2.5	/experiments/knapen_aot/videos/R_S_yt-BF80IX4r8x4_106.mp4	0.0	242.7412190437317	0.4083080291748047
60	176.17493891716003	response	0	2		58.0	2.5	/experiments/knapen_aot/videos/R_S_yt-BF80IX4r8x4_106.mp4	0.0	243.13384103775024	
60	176.19062495231628	movie	1		301.0	58.0	2.5	/experiments/knapen_aot/videos/R_S_yt-BF80IX4r8x4_106.mp4	0.0	243.1495270729065	2.5082991123199463
60	178.69892406463623	fix_post	2		12.0	58.0	2.5	/experiments/knapen_aot/videos/R_S_yt-BF80IX4r8x4_106.mp4	0.0	245.65782618522644	0.10002493858337402
61	178.7989490032196	fix_pre	0		39.0	59.0	2.5	/experiments/knapen_aot/videos/R_S_yt-3E02UEHdoZ4_752.mp4	0.0	245.75785112380981	0.32495689392089844
61	179.1083378791809	response	0	2		59.0	2.5	/experiments/knapen_aot/videos/R_S_yt-3E02UEHdoZ4_752.mp4	0.0	246.06723999977112	
61	179.1239058971405	movie	1		301.0	59.0	2.5	/experiments/knapen_aot/videos/R_S_yt-3E02UEHdoZ4_752.mp4	0.0	246.0828080177307	2.50838303565979
61	181.6322889328003	fix_post	2		12.0	59.0	2.5	/experiments/knapen_aot/videos/R_S_yt-3E02UEHdoZ4_752.mp4	0.0	248.5911910533905	0.10001611709594727
62	181.73230504989624	fix_pre	0		37.0	60.0	2.5	/experiments/knapen_aot/videos/R_S_yt-zam74qlzGtQ_122.mp4	0.0	248.69120717048645	0.30826282501220703
62	182.032408952713	response	0	2		60.0	2.5	/experiments/knapen_aot/videos/R_S_yt-zam74qlzGtQ_122.mp4	0.0	248.99131107330322	
62	182.04056787490845	movie	1		301.0	60.0	2.5	/experiments/knapen_aot/videos/R_S_yt-zam74qlzGtQ_122.mp4	0.0	248.99946999549866	2.5085031986236572
62	184.5490710735321	fix_post	2		12.0	60.0	2.5	/experiments/knapen_aot/videos/R_S_yt-zam74qlzGtQ_122.mp4	0.0	251.50797319412231	0.0997929573059082
63	184.648864030838	fix_pre	0		36.0	61.0	2.5	/experiments/knapen_aot/videos/R_S_yt-sIXdPhfS67U_203.mp4	0.0	251.60776615142822	0.300015926361084
63	184.94062399864197	response	0	2		61.0	2.5	/experiments/knapen_aot/videos/R_S_yt-sIXdPhfS67U_203.mp4	0.0	251.89952611923218	
63	184.9488799571991	movie	1		301.0	61.0	2.5	/experiments/knapen_aot/videos/R_S_yt-sIXdPhfS67U_203.mp4	0.0	251.9077820777893	2.5084331035614014
63	187.4573130607605	fix_post	2		12.0	61.0	2.5	/experiments/knapen_aot/videos/R_S_yt-sIXdPhfS67U_203.mp4	0.0	254.4162151813507	0.10008788108825684
64	187.55740094184875	fix_pre	0		58.0	62.0	2.5	/experiments/knapen_aot/videos/S_BO_A018_C029_SDR_20190812_SDR_2K_AVC.mp4	0.0	254.51630306243896	0.4831540584564209
64	188.0323770046234	response	0	2		62.0	2.5	/experiments/knapen_aot/videos/S_BO_A018_C029_SDR_20190812_SDR_2K_AVC.mp4	0.0	254.99127912521362	
64	188.04055500030518	movie	1		166.0	62.0	2.5	/experiments/knapen_aot/videos/S_BO_A018_C029_SDR_20190812_SDR_2K_AVC.mp4	0.0	254.99945712089539	2.508297920227051
64	190.54885292053223	fix_post	2		12.0	62.0	2.5	/experiments/knapen_aot/videos/S_BO_A018_C029_SDR_20190812_SDR_2K_AVC.mp4	0.0	257.50775504112244	0.10002994537353516
65	190.64888286590576	fix_pre	0		47.0	63.0	2.5	blank	1.0	257.607784986496	0.3915882110595703
65	191.03247809410095	response	0	2		63.0	2.5	blank	1.0	257.99138021469116	
65	191.04047107696533	movie	1		301.0	63.0	2.5	blank	1.0	257.99937319755554	2.5083868503570557
65	193.5488579273224	fix_post	2		12.0	63.0	2.5	blank	1.0	260.5077600479126	0.10001111030578613
66	193.64886903762817	fix_pre	0		48.0	64.0	2.5	/experiments/knapen_aot/videos/S_yt-j-ifVbxZePQ_70.mp4	0.0	260.6077711582184	0.39999985694885254
66	194.04065489768982	response	0	2		64.0	2.5	/experiments/knapen_aot/videos/S_yt-j-ifVbxZePQ_70.mp4	0.0	260.99955701828003	
66	194.04886889457703	movie	1		301.0	64.0	2.5	/experiments/knapen_aot/videos/S_yt-j-ifVbxZePQ_70.mp4	0.0	261.00777101516724	2.5083200931549072
66	196.55718898773193	fix_post	2		12.0	64.0	2.5	/experiments/knapen_aot/videos/S_yt-j-ifVbxZePQ_70.mp4	0.0	263.51609110832214	0.10003209114074707
67	196.65722107887268	fix_pre	0		71.0	65.0	2.5	/experiments/knapen_aot/videos/R_S_b6-4.mp4	0.0	263.6161231994629	0.5916578769683838
67	197.2406439781189	response	0	2		65.0	2.5	/experiments/knapen_aot/videos/R_S_b6-4.mp4	0.0	264.1995460987091	
67	197.24887895584106	movie	1		167.0	65.0	2.5	/experiments/knapen_aot/videos/R_S_b6-4.mp4	0.0	264.2077810764313	2.508328914642334
67	199.7572078704834	fix_post	2		12.0	65.0	2.5	/experiments/knapen_aot/videos/R_S_b6-4.mp4	0.0	266.7161099910736	0.10004901885986328
68	199.85725688934326	fix_pre	0		43.0	66.0	2.5	/experiments/knapen_aot/videos/S_production_ID_4360158.mp4	0.0	266.8161590099335	0.358234167098999
68	200.20727491378784	response	0	2		66.0	2.5	/experiments/knapen_aot/videos/S_production_ID_4360158.mp4	0.0	267.16617703437805	
68	200.21549105644226	movie	1		165.0	66.0	2.5	/experiments/knapen_aot/videos/S_production_ID_4360158.mp4	0.0	267.17439317703247	2.5084359645843506
68	202.7239270210266	fix_post	2		12.0	66.0	2.5	/experiments/knapen_aot/videos/S_production_ID_4360158.mp4	0.0	269.6828291416168	0.09994292259216309
69	202.82386994361877	fix_pre	0		51.0	67.0	2.5	/experiments/knapen_aot/videos/R_S_yt-n1snPiGfg0A_45.mp4	0.0	269.782772064209	0.4248790740966797
69	203.24062395095825	response	0	2		67.0	2.5	/experiments/knapen_aot/videos/R_S_yt-n1snPiGfg0A_45.mp4	0.0	270.19952607154846	
69	203.24874901771545	movie	1		301.0	67.0	2.5	/experiments/knapen_aot/videos/R_S_yt-n1snPiGfg0A_45.mp4	0.0	270.20765113830566	2.508409023284912
69	205.75715804100037	fix_post	2		12.0	67.0	2.5	/experiments/knapen_aot/videos/R_S_yt-n1snPiGfg0A_45.mp4	0.0	272.7160601615906	0.09998488426208496
70	205.85714292526245	fix_pre	0		42.0	68.0	2.5	/experiments/knapen_aot/videos/R_S_yt-2ftSsLqRQnA_84.mp4	0.0	272.81604504585266	0.3499410152435303
70	206.19890308380127	response	0	2		68.0	2.5	/experiments/knapen_aot/videos/R_S_yt-2ftSsLqRQnA_84.mp4	0.0	273.1578052043915	
70	206.20708394050598	movie	1		301.0	68.0	2.5	/experiments/knapen_aot/videos/R_S_yt-2ftSsLqRQnA_84.mp4	0.0	273.1659860610962	2.5083730220794678
70	208.71545696258545	fix_post	2		12.0	68.0	2.5	/experiments/knapen_aot/videos/R_S_yt-2ftSsLqRQnA_84.mp4	0.0	275.67435908317566	0.10000395774841309
71	208.81546092033386	fix_pre	0		50.0	69.0	2.5	/experiments/knapen_aot/videos/R_S_ILSVRC2015_train_00479000.mp4	0.0	275.7743630409241	0.4167051315307617
71	209.2239179611206	response	0	2		69.0	2.5	/experiments/knapen_aot/videos/R_S_ILSVRC2015_train_00479000.mp4	0.0	276.1828200817108	
71	209.23216605186462	movie	1		301.0	69.0	2.5	/experiments/knapen_aot/videos/R_S_ILSVRC2015_train_00479000.mp4	0.0	276.19106817245483	2.50827693939209
71	211.7404429912567	fix_post	2		12.0	69.0	2.5	/experiments/knapen_aot/videos/R_S_ILSVRC2015_train_00479000.mp4	0.0	278.6993451118469	0.10002708435058594
72	211.8404700756073	fix_pre	0		52.0	70.0	2.5	blank	1.0	278.7993721961975	0.4332389831542969
72	212.26549196243286	response	0	2		70.0	2.5	blank	1.0	279.22439408302307	
72	212.2737090587616	movie	1		301.0	70.0	2.5	blank	1.0	279.2326111793518	2.50839900970459
72	214.7821080684662	fix_post	2		12.0	70.0	2.5	blank	1.0	281.7410101890564	0.1000368595123291
73	214.88214492797852	fix_pre	0		57.0	71.0	2.5	/experiments/knapen_aot/videos/S_MEX_A006_C008_SDR_20190923_SDR_2K_AVC.mp4	0.0	281.8410470485687	0.4749569892883301
73	215.34892106056213	response	0	2		71.0	2.5	/experiments/knapen_aot/videos/S_MEX_A006_C008_SDR_20190923_SDR_2K_AVC.mp4	0.0	282.30782318115234	
73	215.35710191726685	movie	1		168.0	71.0	2.5	/experiments/knapen_aot/videos/S_MEX_A006_C008_SDR_20190923_SDR_2K_AVC.mp4	0.0	282.31600403785706	2.508263111114502
73	217.86536502838135	fix_post	2		12.0	71.0	2.5	/experiments/knapen_aot/videos/S_MEX_A006_C008_SDR_20190923_SDR_2K_AVC.mp4	0.0	284.82426714897156	0.10005307197570801
74	217.96541810035706	fix_pre	0		30.0	72.0	2.5	/experiments/knapen_aot/videos/S_ILSVRC2015_train_00363000.mp4	0.0	284.92432022094727	0.249985933303833
74	218.20724487304688	response	0	2		72.0	2.5	/experiments/knapen_aot/videos/S_ILSVRC2015_train_00363000.mp4	0.0	285.1661469936371	
74	218.2154040336609	movie	1		301.0	72.0	2.5	/experiments/knapen_aot/videos/S_ILSVRC2015_train_00363000.mp4	0.0	285.1743061542511	2.5082600116729736
74	220.72366404533386	fix_post	2		12.0	72.0	2.5	/experiments/knapen_aot/videos/S_ILSVRC2015_train_00363000.mp4	0.0	287.6825661659241	0.10011982917785645
75	220.82378387451172	fix_pre	0		45.0	73.0	2.5	/experiments/knapen_aot/videos/S_yt--WPE_4bqQXc_26.mp4	0.0	287.78268599510193	0.3748760223388672
75	221.19052290916443	response	0	2		73.0	2.5	/experiments/knapen_aot/videos/S_yt--WPE_4bqQXc_26.mp4	0.0	288.14942502975464	
75	221.1986598968506	movie	1		301.0	73.0	2.5	/experiments/knapen_aot/videos/S_yt--WPE_4bqQXc_26.mp4	0.0	288.1575620174408	2.5083811283111572
75	223.70704102516174	fix_post	2		12.0	73.0	2.5	/experiments/knapen_aot/videos/S_yt--WPE_4bqQXc_26.mp4	0.0	290.66594314575195	0.10035204887390137
76	223.80739307403564	fix_pre	0		47.0	74.0	2.5	/experiments/knapen_aot/videos/S_S005_C015_SDR_2K_AVC.mp4	0.0	290.76629519462585	0.3913078308105469
76	224.19052505493164	response	0	2		74.0	2.5	/experiments/knapen_aot/videos/S_S005_C015_SDR_2K_AVC.mp4	0.0	291.14942717552185	
76	224.1987009048462	movie	1		169.0	74.0	2.5	/experiments/knapen_aot/videos/S_S005_C015_SDR_2K_AVC.mp4	0.0	291.1576030254364	2.508418083190918
76	226.7071189880371	fix_post	2		12.0	74.0	2.5	/experiments/knapen_aot/videos/S_S005_C015_SDR_2K_AVC.mp4	0.0	293.6660211086273	0.1005399227142334
77	226.80765891075134	fix_pre	0		36.0	75.0	2.5	blank	1.0	293.76656103134155	0.2994251251220703
77	227.0988380908966	response	0	2		75.0	2.5	blank	1.0	294.0577402114868	
77	227.1070840358734	movie	1		301.0	75.0	2.5	blank	1.0	294.0659861564636	2.5083630084991455
77	229.61544704437256	fix_post	2		12.0	75.0	2.5	blank	1.0	296.57434916496277	0.09995102882385254
78	229.7153980731964	fix_pre	0		39.0	76.0	2.5	/experiments/knapen_aot/videos/S_RS_A008_C010_SDR_20191218_SDR_2K_AVC.mp4	0.0	296.6743001937866	0.3249969482421875
78	230.03221702575684	response	0	2		76.0	2.5	/experiments/knapen_aot/videos/S_RS_A008_C010_SDR_20191218_SDR_2K_AVC.mp4	0.0	296.99111914634705	
78	230.0403950214386	movie	1		173.0	76.0	2.5	/experiments/knapen_aot/videos/S_RS_A008_C010_SDR_20191218_SDR_2K_AVC.mp4	0.0	296.9992971420288	2.5083260536193848
78	232.54872107505798	fix_post	2		12.0	76.0	2.5	/experiments/knapen_aot/videos/S_RS_A008_C010_SDR_20191218_SDR_2K_AVC.mp4	0.0	299.5076231956482	0.09998297691345215
79	232.64870405197144	fix_pre	0		36.0	77.0	2.5	/experiments/knapen_aot/videos/R_S_BO_A012_C031_SDR_20190726_SDR_2K_AVC.mp4	0.0	299.60760617256165	0.2999718189239502
79	232.9404740333557	response	0	2		77.0	2.5	/experiments/knapen_aot/videos/R_S_BO_A012_C031_SDR_20190726_SDR_2K_AVC.mp4	0.0	299.8993761539459	
79	232.94867587089539	movie	1		191.0	77.0	2.5	/experiments/knapen_aot/videos/R_S_BO_A012_C031_SDR_20190726_SDR_2K_AVC.mp4	0.0	299.9075779914856	2.5083060264587402
79	235.45698189735413	fix_post	2		12.0	77.0	2.5	/experiments/knapen_aot/videos/R_S_BO_A012_C031_SDR_20190726_SDR_2K_AVC.mp4	0.0	302.41588401794434	0.10028815269470215
80	235.55727005004883	fix_pre	0		60.0	78.0	2.5	/experiments/knapen_aot/videos/S_yt-QFGyhhr1KSQ_9.mp4	0.0	302.51617217063904	0.4999229907989502
80	236.0488178730011	response	0	2		78.0	2.5	/experiments/knapen_aot/videos/S_yt-QFGyhhr1KSQ_9.mp4	0.0	303.0077199935913	
80	236.05719304084778	movie	1		301.0	78.0	2.5	/experiments/knapen_aot/videos/S_yt-QFGyhhr1KSQ_9.mp4	0.0	303.016095161438	2.508185863494873
80	238.56537890434265	fix_post	2		12.0	78.0	2.5	/experiments/knapen_aot/videos/S_yt-QFGyhhr1KSQ_9.mp4	0.0	305.52428102493286	0.0999150276184082
81	238.66529393196106	fix_pre	0		48.0	79.0	2.5	/experiments/knapen_aot/videos/S_yt-BF80IX4r8x4_106.mp4	0.0	305.62419605255127	0.4000239372253418
81	239.05708503723145	response	0	2		79.0	2.5	/experiments/knapen_aot/videos/S_yt-BF80IX4r8x4_106.mp4	0.0	306.01598715782166	
81	239.0653178691864	movie	1		301.0	79.0	2.5	/experiments/knapen_aot/videos/S_yt-BF80IX4r8x4_106.mp4	0.0	306.0242199897766	2.5083842277526855
81	241.5737020969391	fix_post	2		12.0	79.0	2.5	/experiments/knapen_aot/videos/S_yt-BF80IX4r8x4_106.mp4	0.0	308.5326042175293	0.09996485710144043
82	241.67366695404053	fix_pre	0		45.0	80.0	2.5	/experiments/knapen_aot/videos/R_S_MEX_A006_C008_SDR_20190923_SDR_2K_AVC.mp4	0.0	308.63256907463074	0.3749690055847168
82	242.0404510498047	response	0	2		80.0	2.5	/experiments/knapen_aot/videos/R_S_MEX_A006_C008_SDR_20190923_SDR_2K_AVC.mp4	0.0	308.9993531703949	
82	242.04863595962524	movie	1		167.0	80.0	2.5	/experiments/knapen_aot/videos/R_S_MEX_A006_C008_SDR_20190923_SDR_2K_AVC.mp4	0.0	309.00753808021545	2.5083580017089844
82	244.55699396133423	fix_post	2		12.0	80.0	2.5	/experiments/knapen_aot/videos/R_S_MEX_A006_C008_SDR_20190923_SDR_2K_AVC.mp4	0.0	311.51589608192444	0.0999460220336914
83	244.65693998336792	fix_pre	0		49.0	81.0	2.5	/experiments/knapen_aot/videos/S_yt-UojTppgtyCE_121.mp4	0.0	311.61584210395813	0.4083750247955322
83	245.05711698532104	response	0	2		81.0	2.5	/experiments/knapen_aot/videos/S_yt-UojTppgtyCE_121.mp4	0.0	312.01601910591125	
83	245.06531500816345	movie	1		301.0	81.0	2.5	/experiments/knapen_aot/videos/S_yt-UojTppgtyCE_121.mp4	0.0	312.02421712875366	2.5083260536193848
83	247.57364106178284	fix_post	2		12.0	81.0	2.5	/experiments/knapen_aot/videos/S_yt-UojTppgtyCE_121.mp4	0.0	314.53254318237305	0.09999585151672363
84	247.67363691329956	fix_pre	0		38.0	82.0	2.5	blank	1.0	314.63253903388977	0.3165740966796875
84	247.98209500312805	response	0	2		82.0	2.5	blank	1.0	314.94099712371826	
84	247.99021100997925	movie	1		301.0	82.0	2.5	blank	1.0	314.94911313056946	2.5083858966827393
84	250.498596906662	fix_post	2		12.0	82.0	2.5	blank	1.0	317.4574990272522	0.1002800464630127
85	250.598876953125	fix_pre	0		56.0	83.0	2.5	/experiments/knapen_aot/videos/R_S_production_ID_5119260.mp4	0.0	317.5577790737152	0.4664161205291748
85	251.05701088905334	response	0	2		83.0	2.5	/experiments/knapen_aot/videos/R_S_production_ID_5119260.mp4	0.0	318.01591300964355	
85	251.06529307365417	movie	1		165.0	83.0	2.5	/experiments/knapen_aot/videos/R_S_production_ID_5119260.mp4	0.0	318.0241951942444	2.508366823196411
85	253.5736598968506	fix_post	2		12.0	83.0	2.5	/experiments/knapen_aot/videos/R_S_production_ID_5119260.mp4	0.0	320.5325620174408	0.09991717338562012
87	253.6735770702362	stim	0		218.0					320.6324791908264	1.8166589736938477
87	255.48515796661377	response	0	space						322.444060087204	
