trial_nr	onset	event_type	phase	response	nr_frames	movie_index	movie_duration	movie_file	blank	onset_abs	duration
0	0.12497186660766602	stim	0		86.0					65.3942039012909	0.7167730331420898
0	0.8333249092102051	response	0	space						66.10255694389343	
1	0.8417448997497559	stim	0		121.0					66.11097693443298	1.00783109664917
1	1.8495759963989258	stim	1		120.0					67.11880803108215	0.9999380111694336
2	2.8495140075683594	fix_pre	0		349.0	0.0	2.5	/experiments/knapen_aot/videos/R_S_yt-8LO59eN9om4_16.mp4	0.0	68.11874604225159	2.9083428382873535
2	3.2913949489593506	response	0	return		0.0	2.5	/experiments/knapen_aot/videos/R_S_yt-8LO59eN9om4_16.mp4	0.0	68.56062698364258	
2	4.257993936538696	response	0	return		0.0	2.5	/experiments/knapen_aot/videos/R_S_yt-8LO59eN9om4_16.mp4	0.0	69.52722597122192	
2	5.749773979187012	response	0	space		0.0	2.5	/experiments/knapen_aot/videos/R_S_yt-8LO59eN9om4_16.mp4	0.0	71.01900601387024	
2	5.757856845855713	movie	1		301.0	0.0	2.5	/experiments/knapen_aot/videos/R_S_yt-8LO59eN9om4_16.mp4	0.0	71.02708888053894	2.5082621574401855
2	8.266119003295898	fix_post	2		12.0	0.0	2.5	/experiments/knapen_aot/videos/R_S_yt-8LO59eN9om4_16.mp4	0.0	73.53535103797913	0.10078001022338867
3	8.366899013519287	fix_pre	0		12.0	1.0	2.5	/experiments/knapen_aot/videos/R_S_yt-xnqqB-leeaQ_128.mp4	0.0	73.63613104820251	0.09927797317504883
3	8.458900928497314	response	0	2		1.0	2.5	/experiments/knapen_aot/videos/R_S_yt-xnqqB-leeaQ_128.mp4	0.0	73.72813296318054	
3	8.466176986694336	movie	1		301.0	1.0	2.5	/experiments/knapen_aot/videos/R_S_yt-xnqqB-leeaQ_128.mp4	0.0	73.73540902137756	2.5084269046783447
3	10.97460389137268	fix_post	2		12.0	1.0	2.5	/experiments/knapen_aot/videos/R_S_yt-xnqqB-leeaQ_128.mp4	0.0	76.24383592605591	0.09998011589050293
4	11.074584007263184	fix_pre	0		10.0	2.0	2.5	/experiments/knapen_aot/videos/R_S_yt-4NjyKFnwHBo_13.mp4	0.0	76.34381604194641	0.0842900276184082
4	11.150012016296387	response	0	2		2.0	2.5	/experiments/knapen_aot/videos/R_S_yt-4NjyKFnwHBo_13.mp4	0.0	76.41924405097961	
4	11.158874034881592	movie	1		301.0	2.0	2.5	/experiments/knapen_aot/videos/R_S_yt-4NjyKFnwHBo_13.mp4	0.0	76.42810606956482	2.507279872894287
4	13.666153907775879	fix_post	2		12.0	2.0	2.5	/experiments/knapen_aot/videos/R_S_yt-4NjyKFnwHBo_13.mp4	0.0	78.9353859424591	0.10005593299865723
5	13.766209840774536	fix_pre	0		31.0	3.0	2.5	/experiments/knapen_aot/videos/S_yt-VfASxEzDrvc_145.mp4	0.0	79.03544187545776	0.25832104682922363
5	14.016356945037842	response	0	2		3.0	2.5	/experiments/knapen_aot/videos/S_yt-VfASxEzDrvc_145.mp4	0.0	79.28558897972107	
5	14.02453088760376	movie	1		301.0	3.0	2.5	/experiments/knapen_aot/videos/S_yt-VfASxEzDrvc_145.mp4	0.0	79.29376292228699	2.5083601474761963
5	16.532891035079956	fix_post	2		12.0	3.0	2.5	/experiments/knapen_aot/videos/S_yt-VfASxEzDrvc_145.mp4	0.0	81.80212306976318	0.0999898910522461
6	16.632880926132202	fix_pre	0		75.0	4.0	2.5	/experiments/knapen_aot/videos/S_yt-8LO59eN9om4_16.mp4	0.0	81.90211296081543	0.6249659061431885
6	17.249654054641724	response	0	2		4.0	2.5	/experiments/knapen_aot/videos/S_yt-8LO59eN9om4_16.mp4	0.0	82.51888608932495	
6	17.25784683227539	movie	1		301.0	4.0	2.5	/experiments/knapen_aot/videos/S_yt-8LO59eN9om4_16.mp4	0.0	82.52707886695862	2.508305072784424
6	19.766151905059814	fix_post	2		12.0	4.0	2.5	/experiments/knapen_aot/videos/S_yt-8LO59eN9om4_16.mp4	0.0	85.03538393974304	0.10053801536560059
7	19.866689920425415	fix_pre	0		19.0	5.0	2.5	/experiments/knapen_aot/videos/R_S_yt-25xuzTBhwPk_109.mp4	0.0	85.13592195510864	0.15775108337402344
7	20.008803844451904	response	0	2		5.0	2.5	/experiments/knapen_aot/videos/R_S_yt-25xuzTBhwPk_109.mp4	0.0	85.27803587913513	
7	20.02444100379944	movie	1		301.0	5.0	2.5	/experiments/knapen_aot/videos/R_S_yt-25xuzTBhwPk_109.mp4	0.0	85.29367303848267	2.5083539485931396
7	22.532794952392578	fix_post	2		12.0	5.0	2.5	/experiments/knapen_aot/videos/R_S_yt-25xuzTBhwPk_109.mp4	0.0	87.8020269870758	0.1000208854675293
8	22.632815837860107	fix_pre	0		17.0	6.0	2.5	/experiments/knapen_aot/videos/R_S_ILSVRC2015_train_00495000.mp4	0.0	87.90204787254333	0.14164304733276367
8	22.766223907470703	response	0	2		6.0	2.5	/experiments/knapen_aot/videos/R_S_ILSVRC2015_train_00495000.mp4	0.0	88.03545594215393	
8	22.77445888519287	movie	1		301.0	6.0	2.5	/experiments/knapen_aot/videos/R_S_ILSVRC2015_train_00495000.mp4	0.0	88.0436909198761	2.5083529949188232
8	25.282811880111694	fix_post	2		12.0	6.0	2.5	/experiments/knapen_aot/videos/R_S_ILSVRC2015_train_00495000.mp4	0.0	90.55204391479492	0.09999203681945801
9	25.382803916931152	fix_pre	0		37.0	7.0	2.5	blank	1.0	90.65203595161438	0.30831003189086914
9	25.682978868484497	response	0	2		7.0	2.5	blank	1.0	90.95221090316772	
9	25.69111394882202	movie	1		301.0	7.0	2.5	blank	1.0	90.96034598350525	2.5083510875701904
9	28.199465036392212	fix_post	2		12.0	7.0	2.5	blank	1.0	93.46869707107544	0.0999917984008789
10	28.29945683479309	fix_pre	0		13.0	8.0	2.5	/experiments/knapen_aot/videos/R_S_yt-MhW2fU45JK8_544.mp4	0.0	93.56868886947632	0.10896015167236328
10	28.399577856063843	response	0	2		8.0	2.5	/experiments/knapen_aot/videos/R_S_yt-MhW2fU45JK8_544.mp4	0.0	93.66880989074707	
10	28.408416986465454	movie	1		301.0	8.0	2.5	/experiments/knapen_aot/videos/R_S_yt-MhW2fU45JK8_544.mp4	0.0	93.67764902114868	2.507704019546509
10	30.916121006011963	fix_post	2		12.0	8.0	2.5	/experiments/knapen_aot/videos/R_S_yt-MhW2fU45JK8_544.mp4	0.0	96.18535304069519	0.09991788864135742
11	31.01603889465332	fix_pre	0		17.0	9.0	2.5	/experiments/knapen_aot/videos/S_yt-5hgLXyLw82w_23.mp4	0.0	96.28527092933655	0.14232611656188965
11	31.14961004257202	response	0	2		9.0	2.5	/experiments/knapen_aot/videos/S_yt-5hgLXyLw82w_23.mp4	0.0	96.41884207725525	
11	31.15836501121521	movie	1		301.0	9.0	2.5	/experiments/knapen_aot/videos/S_yt-5hgLXyLw82w_23.mp4	0.0	96.42759704589844	2.5077688694000244
11	33.666133880615234	fix_post	2		12.0	9.0	2.5	/experiments/knapen_aot/videos/S_yt-5hgLXyLw82w_23.mp4	0.0	98.93536591529846	0.09989213943481445
12	33.76602602005005	fix_pre	0		27.0	10.0	2.5	/experiments/knapen_aot/videos/R_S_comp_CH_C002_C005_PSNK_v05_SDR_PS_FINAL_20180709_SDR_2K_AVC.mp4	0.0	99.03525805473328	0.22549891471862793
12	33.98286294937134	response	0	2		10.0	2.5	/experiments/knapen_aot/videos/R_S_comp_CH_C002_C005_PSNK_v05_SDR_PS_FINAL_20180709_SDR_2K_AVC.mp4	0.0	99.25209498405457	
12	33.99152493476868	movie	1		171.0	10.0	2.5	/experiments/knapen_aot/videos/R_S_comp_CH_C002_C005_PSNK_v05_SDR_PS_FINAL_20180709_SDR_2K_AVC.mp4	0.0	99.2607569694519	2.5078930854797363
12	36.49941802024841	fix_post	2		12.0	10.0	2.5	/experiments/knapen_aot/videos/R_S_comp_CH_C002_C005_PSNK_v05_SDR_PS_FINAL_20180709_SDR_2K_AVC.mp4	0.0	101.76865005493164	0.10005402565002441
13	36.59947204589844	fix_pre	0		3.0	11.0	2.5	/experiments/knapen_aot/videos/S_ILSVRC2015_train_00441000.mp4	0.0	101.86870408058167	0.025134801864624023
13	36.61627984046936	response	0	2		11.0	2.5	/experiments/knapen_aot/videos/S_ILSVRC2015_train_00441000.mp4	0.0	101.88551187515259	
13	36.62460684776306	movie	1		301.0	11.0	2.5	/experiments/knapen_aot/videos/S_ILSVRC2015_train_00441000.mp4	0.0	101.89383888244629	2.5081911087036133
13	39.132797956466675	fix_post	2		12.0	11.0	2.5	/experiments/knapen_aot/videos/S_ILSVRC2015_train_00441000.mp4	0.0	104.4020299911499	0.10003304481506348
14	39.23283100128174	fix_pre	0		20.0	12.0	2.5	/experiments/knapen_aot/videos/S_yt-JtR6WZXT2kU_8.mp4	0.0	104.50206303596497	0.16657590866088867
14	39.3912239074707	response	0	2		12.0	2.5	/experiments/knapen_aot/videos/S_yt-JtR6WZXT2kU_8.mp4	0.0	104.66045594215393	
14	39.39940690994263	movie	1		301.0	12.0	2.5	/experiments/knapen_aot/videos/S_yt-JtR6WZXT2kU_8.mp4	0.0	104.66863894462585	2.508329153060913
14	41.90773606300354	fix_post	2		12.0	12.0	2.5	/experiments/knapen_aot/videos/S_yt-JtR6WZXT2kU_8.mp4	0.0	107.17696809768677	0.10006284713745117
15	42.00779891014099	fix_pre	0		126.0	13.0	2.5	blank	1.0	107.27703094482422	1.049901008605957
15	43.04956793785095	response	0	2		13.0	2.5	blank	1.0	108.31879997253418	
15	43.05769991874695	movie	1		301.0	13.0	2.5	blank	1.0	108.32693195343018	2.508389949798584
15	45.56608986854553	fix_post	2		12.0	13.0	2.5	blank	1.0	110.83532190322876	0.10002899169921875
16	45.66611886024475	fix_pre	0		41.0	14.0	2.5	/experiments/knapen_aot/videos/R_S_yt-OEY9O2MglQM_7.mp4	0.0	110.93535089492798	0.34157299995422363
16	45.99950385093689	response	0	2		14.0	2.5	/experiments/knapen_aot/videos/R_S_yt-OEY9O2MglQM_7.mp4	0.0	111.26873588562012	
16	46.007691860198975	movie	1		300.0	14.0	2.5	/experiments/knapen_aot/videos/R_S_yt-OEY9O2MglQM_7.mp4	0.0	111.2769238948822	2.5083630084991455
16	48.47449803352356	response	1	2		14.0	2.5	/experiments/knapen_aot/videos/R_S_yt-OEY9O2MglQM_7.mp4	0.0	113.74373006820679	
16	48.51605486869812	fix_post	2		12.0	14.0	2.5	/experiments/knapen_aot/videos/R_S_yt-OEY9O2MglQM_7.mp4	0.0	113.78528690338135	0.10039901733398438
17	48.616453886032104	fix_pre	0		34.0	15.0	2.5	/experiments/knapen_aot/videos/R_S_video_inspire_sanfrancisco_castro_005.1080-h264.mp4	0.0	113.88568592071533	0.2828681468963623
17	48.891149044036865	response	0	2		15.0	2.5	/experiments/knapen_aot/videos/R_S_video_inspire_sanfrancisco_castro_005.1080-h264.mp4	0.0	114.16038107872009	
17	48.89932203292847	movie	1		168.0	15.0	2.5	/experiments/knapen_aot/videos/R_S_video_inspire_sanfrancisco_castro_005.1080-h264.mp4	0.0	114.1685540676117	2.5083320140838623
17	51.40765404701233	fix_post	2		12.0	15.0	2.5	/experiments/knapen_aot/videos/R_S_video_inspire_sanfrancisco_castro_005.1080-h264.mp4	0.0	116.67688608169556	0.0999448299407959
18	51.507598876953125	fix_pre	0		46.0	16.0	2.5	/experiments/knapen_aot/videos/S_yt-ycQy_fHCK-U_8.mp4	0.0	116.77683091163635	0.38343095779418945
18	51.882802963256836	response	0	2		16.0	2.5	/experiments/knapen_aot/videos/S_yt-ycQy_fHCK-U_8.mp4	0.0	117.15203499794006	
18	51.891029834747314	movie	1		301.0	16.0	2.5	/experiments/knapen_aot/videos/S_yt-ycQy_fHCK-U_8.mp4	0.0	117.16026186943054	2.5083401203155518
18	54.399369955062866	fix_post	2		12.0	16.0	2.5	/experiments/knapen_aot/videos/S_yt-ycQy_fHCK-U_8.mp4	0.0	119.6686019897461	0.10003495216369629
19	54.49940490722656	fix_pre	0		43.0	17.0	2.5	/experiments/knapen_aot/videos/R_S_yt-UmLeGNcqouI_718.mp4	0.0	119.76863694190979	0.3582170009613037
19	54.849485874176025	response	0	2		17.0	2.5	/experiments/knapen_aot/videos/R_S_yt-UmLeGNcqouI_718.mp4	0.0	120.11871790885925	
19	54.857621908187866	movie	1		301.0	17.0	2.5	/experiments/knapen_aot/videos/R_S_yt-UmLeGNcqouI_718.mp4	0.0	120.1268539428711	2.5084140300750732
19	57.36603593826294	fix_post	2		12.0	17.0	2.5	/experiments/knapen_aot/videos/R_S_yt-UmLeGNcqouI_718.mp4	0.0	122.63526797294617	0.0999600887298584
20	57.4659960269928	fix_pre	0		102.0	18.0	2.5	/experiments/knapen_aot/videos/R_S_yt-xrPrnzvWUkY_7.mp4	0.0	122.73522806167603	0.8499958515167236
20	58.30773997306824	response	0	2		18.0	2.5	/experiments/knapen_aot/videos/R_S_yt-xrPrnzvWUkY_7.mp4	0.0	123.57697200775146	
20	58.31599187850952	movie	1		300.0	18.0	2.5	/experiments/knapen_aot/videos/R_S_yt-xrPrnzvWUkY_7.mp4	0.0	123.58522391319275	2.508362054824829
20	60.82435393333435	fix_post	2		12.0	18.0	2.5	/experiments/knapen_aot/videos/R_S_yt-xrPrnzvWUkY_7.mp4	0.0	126.09358596801758	0.09997200965881348
21	60.924325942993164	fix_pre	0		13.0	19.0	2.5	blank	1.0	126.19355797767639	0.10880112648010254
21	61.0245418548584	response	0	2		19.0	2.5	blank	1.0	126.29377388954163	
21	61.03312706947327	movie	1		301.0	19.0	2.5	blank	1.0	126.3023591041565	2.5078678131103516
21	63.54099488258362	fix_post	2		12.0	19.0	2.5	blank	1.0	128.81022691726685	0.100006103515625
22	63.64100098609924	fix_pre	0		16.0	20.0	2.5	/experiments/knapen_aot/videos/S_yt-MhW2fU45JK8_544.mp4	0.0	128.91023302078247	0.13333487510681152
22	63.76604986190796	response	0	2		20.0	2.5	/experiments/knapen_aot/videos/S_yt-MhW2fU45JK8_544.mp4	0.0	129.0352818965912	
22	63.774335861206055	movie	1		301.0	20.0	2.5	/experiments/knapen_aot/videos/S_yt-MhW2fU45JK8_544.mp4	0.0	129.04356789588928	2.508263111114502
22	66.28259897232056	fix_post	2		12.0	20.0	2.5	/experiments/knapen_aot/videos/S_yt-MhW2fU45JK8_544.mp4	0.0	131.55183100700378	0.09999608993530273
23	66.38259506225586	fix_pre	0		23.0	21.0	2.5	/experiments/knapen_aot/videos/R_S_yt-N1ZrWT4xyzc_85.mp4	0.0	131.6518270969391	0.19195294380187988
23	66.55857801437378	response	0	2		21.0	2.5	/experiments/knapen_aot/videos/R_S_yt-N1ZrWT4xyzc_85.mp4	0.0	131.827810049057	
23	66.57454800605774	movie	1		300.0	21.0	2.5	/experiments/knapen_aot/videos/R_S_yt-N1ZrWT4xyzc_85.mp4	0.0	131.84378004074097	2.5080819129943848
23	69.08262991905212	fix_post	2		12.0	21.0	2.5	/experiments/knapen_aot/videos/R_S_yt-N1ZrWT4xyzc_85.mp4	0.0	134.35186195373535	0.09992313385009766
24	69.18255305290222	fix_pre	0		10.0	22.0	2.5	/experiments/knapen_aot/videos/R_S_ILSVRC2015_train_00563000.mp4	0.0	134.45178508758545	0.0833590030670166
24	69.25773191452026	response	0	2		22.0	2.5	/experiments/knapen_aot/videos/R_S_ILSVRC2015_train_00563000.mp4	0.0	134.5269639492035	
24	69.26591205596924	movie	1		301.0	22.0	2.5	/experiments/knapen_aot/videos/R_S_ILSVRC2015_train_00563000.mp4	0.0	134.53514409065247	2.5082478523254395
24	71.77415990829468	fix_post	2		12.0	22.0	2.5	/experiments/knapen_aot/videos/R_S_ILSVRC2015_train_00563000.mp4	0.0	137.0433919429779	0.10008597373962402
25	71.8742458820343	fix_pre	0		46.0	23.0	2.5	/experiments/knapen_aot/videos/S_yt-ycQy_fHCK-U_8.mp4	0.0	137.14347791671753	0.3833169937133789
25	72.24187183380127	response	0	2		23.0	2.5	/experiments/knapen_aot/videos/S_yt-ycQy_fHCK-U_8.mp4	0.0	137.5111038684845	
25	72.25756287574768	movie	1		301.0	23.0	2.5	/experiments/knapen_aot/videos/S_yt-ycQy_fHCK-U_8.mp4	0.0	137.5267949104309	2.508371114730835
25	74.76593399047852	fix_post	2		12.0	23.0	2.5	/experiments/knapen_aot/videos/S_yt-ycQy_fHCK-U_8.mp4	0.0	140.03516602516174	0.10022401809692383
26	74.86615800857544	fix_pre	0		24.0	24.0	2.5	/experiments/knapen_aot/videos/R_S_ILSVRC2015_train_00652001.mp4	0.0	140.13539004325867	0.19965791702270508
26	75.05768895149231	response	0	2		24.0	2.5	/experiments/knapen_aot/videos/R_S_ILSVRC2015_train_00652001.mp4	0.0	140.32692098617554	
26	75.06581592559814	movie	1		300.0	24.0	2.5	/experiments/knapen_aot/videos/R_S_ILSVRC2015_train_00652001.mp4	0.0	140.33504796028137	2.5083959102630615
26	77.5742118358612	fix_post	2		12.0	24.0	2.5	/experiments/knapen_aot/videos/R_S_ILSVRC2015_train_00652001.mp4	0.0	142.84344387054443	0.10003900527954102
27	77.67425084114075	fix_pre	0		104.0	25.0	2.5	/experiments/knapen_aot/videos/S_wc-eJe3wXMgTLRV_20.mp4	0.0	142.94348287582397	0.8666810989379883
27	78.53268003463745	response	0	2		25.0	2.5	/experiments/knapen_aot/videos/S_wc-eJe3wXMgTLRV_20.mp4	0.0	143.80191206932068	
27	78.54093194007874	movie	1		165.0	25.0	2.5	/experiments/knapen_aot/videos/S_wc-eJe3wXMgTLRV_20.mp4	0.0	143.81016397476196	2.5083160400390625
27	81.0492479801178	fix_post	2		12.0	25.0	2.5	/experiments/knapen_aot/videos/S_wc-eJe3wXMgTLRV_20.mp4	0.0	146.31848001480103	0.10002303123474121
28	81.14927101135254	fix_pre	0		23.0	26.0	2.5	blank	1.0	146.41850304603577	0.1915760040283203
28	81.33266186714172	response	0	2		26.0	2.5	blank	1.0	146.60189390182495	
28	81.34084701538086	movie	1		301.0	26.0	2.5	blank	1.0	146.6100790500641	2.5083699226379395
28	83.8492169380188	fix_post	2		12.0	26.0	2.5	blank	1.0	149.11844897270203	0.10021710395812988
29	83.94943404197693	fix_pre	0		29.0	27.0	2.5	/experiments/knapen_aot/videos/S_ILSVRC2015_train_00652001.mp4	0.0	149.21866607666016	0.24138283729553223
29	84.18264698982239	response	0	2		27.0	2.5	/experiments/knapen_aot/videos/S_ILSVRC2015_train_00652001.mp4	0.0	149.45187902450562	
29	84.19081687927246	movie	1		301.0	27.0	2.5	/experiments/knapen_aot/videos/S_ILSVRC2015_train_00652001.mp4	0.0	149.4600489139557	2.508316993713379
29	86.69913387298584	fix_post	2		12.0	27.0	2.5	/experiments/knapen_aot/videos/S_ILSVRC2015_train_00652001.mp4	0.0	151.96836590766907	0.10004997253417969
30	86.79918384552002	fix_pre	0		87.0	28.0	2.5	/experiments/knapen_aot/videos/S_Xq0a2BWE3zA_53.mp4	0.0	152.06841588020325	0.7249350547790527
30	87.5160448551178	response	0	2		28.0	2.5	/experiments/knapen_aot/videos/S_Xq0a2BWE3zA_53.mp4	0.0	152.78527688980103	
30	87.52411890029907	movie	1		301.0	28.0	2.5	/experiments/knapen_aot/videos/S_Xq0a2BWE3zA_53.mp4	0.0	152.7933509349823	2.5083401203155518
30	90.03245902061462	fix_post	2		12.0	28.0	2.5	/experiments/knapen_aot/videos/S_Xq0a2BWE3zA_53.mp4	0.0	155.30169105529785	0.10004281997680664
31	90.13250184059143	fix_pre	0		53.0	29.0	2.5	/experiments/knapen_aot/videos/R_S_yt-C0INfEJ4Awk_53.mp4	0.0	155.40173387527466	0.44184112548828125
31	90.56602787971497	response	0	2		29.0	2.5	/experiments/knapen_aot/videos/R_S_yt-C0INfEJ4Awk_53.mp4	0.0	155.8352599143982	
31	90.57434296607971	movie	1		301.0	29.0	2.5	/experiments/knapen_aot/videos/R_S_yt-C0INfEJ4Awk_53.mp4	0.0	155.84357500076294	2.5081920623779297
31	93.08253502845764	fix_post	2		12.0	29.0	2.5	/experiments/knapen_aot/videos/R_S_yt-C0INfEJ4Awk_53.mp4	0.0	158.35176706314087	0.09994983673095703
32	93.1824848651886	fix_pre	0		24.0	30.0	2.5	/experiments/knapen_aot/videos/S_yt-4NjyKFnwHBo_13.mp4	0.0	158.45171689987183	0.20006918907165527
32	93.37428784370422	response	0	2		30.0	2.5	/experiments/knapen_aot/videos/S_yt-4NjyKFnwHBo_13.mp4	0.0	158.64351987838745	
32	93.38255405426025	movie	1		298.0	30.0	2.5	/experiments/knapen_aot/videos/S_yt-4NjyKFnwHBo_13.mp4	0.0	158.65178608894348	2.5083718299865723
32	95.89092588424683	fix_post	2		12.0	30.0	2.5	/experiments/knapen_aot/videos/S_yt-4NjyKFnwHBo_13.mp4	0.0	161.16015791893005	0.10009503364562988
33	95.99102091789246	fix_pre	0		74.0	31.0	2.5	/experiments/knapen_aot/videos/S_b3TCugtX0h0_108.mp4	0.0	161.26025295257568	0.6164889335632324
33	96.59933304786682	response	0	2		31.0	2.5	/experiments/knapen_aot/videos/S_b3TCugtX0h0_108.mp4	0.0	161.86856508255005	
33	96.60750985145569	movie	1		301.0	31.0	2.5	/experiments/knapen_aot/videos/S_b3TCugtX0h0_108.mp4	0.0	161.87674188613892	2.5085010528564453
33	99.11601090431213	fix_post	2		12.0	31.0	2.5	/experiments/knapen_aot/videos/S_b3TCugtX0h0_108.mp4	0.0	164.38524293899536	0.0998389720916748
34	99.21584987640381	fix_pre	0		49.0	32.0	2.5	/experiments/knapen_aot/videos/S_yt-3DM_SqT4RII_10.mp4	0.0	164.48508191108704	0.408297061920166
34	99.61595106124878	response	0	2		32.0	2.5	/experiments/knapen_aot/videos/S_yt-3DM_SqT4RII_10.mp4	0.0	164.885183095932	
34	99.62414693832397	movie	1		300.0	32.0	2.5	/experiments/knapen_aot/videos/S_yt-3DM_SqT4RII_10.mp4	0.0	164.8933789730072	2.5083389282226562
34	102.13248586654663	fix_post	2		12.0	32.0	2.5	/experiments/knapen_aot/videos/S_yt-3DM_SqT4RII_10.mp4	0.0	167.40171790122986	0.09999918937683105
35	102.23248505592346	fix_pre	0		32.0	33.0	2.5	blank	1.0	167.5017170906067	0.2666029930114746
35	102.4909119606018	response	0	2		33.0	2.5	blank	1.0	167.76014399528503	
35	102.49908804893494	movie	1		301.0	33.0	2.5	blank	1.0	167.76832008361816	2.508359909057617
35	105.00744795799255	fix_post	2		12.0	33.0	2.5	blank	1.0	170.27667999267578	0.1000370979309082
36	105.10748505592346	fix_pre	0		48.0	34.0	2.5	/experiments/knapen_aot/videos/S_ILSVRC2015_train_00479003.mp4	0.0	170.3767170906067	0.3999338150024414
36	105.49922800064087	response	0	2		34.0	2.5	/experiments/knapen_aot/videos/S_ILSVRC2015_train_00479003.mp4	0.0	170.7684600353241	
36	105.5074188709259	movie	1		301.0	34.0	2.5	/experiments/knapen_aot/videos/S_ILSVRC2015_train_00479003.mp4	0.0	170.77665090560913	2.5083789825439453
36	108.01579785346985	fix_post	2		12.0	34.0	2.5	/experiments/knapen_aot/videos/S_ILSVRC2015_train_00479003.mp4	0.0	173.28502988815308	0.10005807876586914
37	108.11585593223572	fix_pre	0		31.0	35.0	2.5	/experiments/knapen_aot/videos/S_pexels-anastasia-shuraeva-6014070.mp4	0.0	173.38508796691895	0.2582859992980957
37	108.36597895622253	response	0	2		35.0	2.5	/experiments/knapen_aot/videos/S_pexels-anastasia-shuraeva-6014070.mp4	0.0	173.63521099090576	
37	108.37414193153381	movie	1		191.0	35.0	2.5	/experiments/knapen_aot/videos/S_pexels-anastasia-shuraeva-6014070.mp4	0.0	173.64337396621704	2.508275032043457
37	110.88241696357727	fix_post	2		12.0	35.0	2.5	/experiments/knapen_aot/videos/S_pexels-anastasia-shuraeva-6014070.mp4	0.0	176.1516489982605	0.10005402565002441
38	110.9824709892273	fix_pre	0		52.0	36.0	2.5	/experiments/knapen_aot/videos/S_yt-316ecr1BT84_44.mp4	0.0	176.25170302391052	0.4333019256591797
38	111.40002202987671	response	0	2		36.0	2.5	/experiments/knapen_aot/videos/S_yt-316ecr1BT84_44.mp4	0.0	176.66925406455994	
38	111.41577291488647	movie	1		301.0	36.0	2.5	/experiments/knapen_aot/videos/S_yt-316ecr1BT84_44.mp4	0.0	176.6850049495697	2.508371114730835
38	113.92414402961731	fix_post	2		12.0	36.0	2.5	/experiments/knapen_aot/videos/S_yt-316ecr1BT84_44.mp4	0.0	179.19337606430054	0.09992384910583496
39	114.02406787872314	fix_pre	0		39.0	37.0	2.5	/experiments/knapen_aot/videos/R_S_yt-ibDaDIEazxg_3.mp4	0.0	179.29329991340637	0.32494306564331055
39	114.34090399742126	response	0	2		37.0	2.5	/experiments/knapen_aot/videos/R_S_yt-ibDaDIEazxg_3.mp4	0.0	179.6101360321045	
39	114.34901094436646	movie	1		301.0	37.0	2.5	/experiments/knapen_aot/videos/R_S_yt-ibDaDIEazxg_3.mp4	0.0	179.61824297904968	2.508315086364746
39	116.8573260307312	fix_post	2		12.0	37.0	2.5	/experiments/knapen_aot/videos/R_S_yt-ibDaDIEazxg_3.mp4	0.0	182.12655806541443	0.10007286071777344
40	116.95739889144897	fix_pre	0		107.0	38.0	2.5	/experiments/knapen_aot/videos/R_S_comp_A103_C002_0205DG_v12_SDR_FINAL_20180706_SDR_2K_AVC.mp4	0.0	182.2266309261322	0.8915729522705078
40	117.8408670425415	response	0	2		38.0	2.5	/experiments/knapen_aot/videos/R_S_comp_A103_C002_0205DG_v12_SDR_FINAL_20180706_SDR_2K_AVC.mp4	0.0	183.11009907722473	
40	117.84897184371948	movie	1		165.0	38.0	2.5	/experiments/knapen_aot/videos/R_S_comp_A103_C002_0205DG_v12_SDR_FINAL_20180706_SDR_2K_AVC.mp4	0.0	183.1182038784027	2.508424997329712
40	120.3573968410492	fix_post	2		12.0	38.0	2.5	/experiments/knapen_aot/videos/R_S_comp_A103_C002_0205DG_v12_SDR_FINAL_20180706_SDR_2K_AVC.mp4	0.0	185.62662887573242	0.10000920295715332
41	120.45740604400635	fix_pre	0		32.0	39.0	2.5	/experiments/knapen_aot/videos/S_video_inspire_italy_como_cerano-dintelvi_006.1080-h264.mp4	0.0	185.72663807868958	0.2666299343109131
41	120.71588087081909	response	0	2		39.0	2.5	/experiments/knapen_aot/videos/S_video_inspire_italy_como_cerano-dintelvi_006.1080-h264.mp4	0.0	185.98511290550232	
41	120.72403597831726	movie	1		168.0	39.0	2.5	/experiments/knapen_aot/videos/S_video_inspire_italy_como_cerano-dintelvi_006.1080-h264.mp4	0.0	185.9932680130005	2.508344888687134
41	120.83165287971497	response	1	2		39.0	2.5	/experiments/knapen_aot/videos/S_video_inspire_italy_como_cerano-dintelvi_006.1080-h264.mp4	0.0	186.1008849143982	
41	123.2323808670044	fix_post	2		12.0	39.0	2.5	/experiments/knapen_aot/videos/S_video_inspire_italy_como_cerano-dintelvi_006.1080-h264.mp4	0.0	188.50161290168762	0.09990501403808594
42	123.33228588104248	fix_pre	0		22.0	40.0	2.5	/experiments/knapen_aot/videos/R_S_yt-qurTr1BJMec_244.mp4	0.0	188.6015179157257	0.18333005905151367
42	123.50751090049744	response	0	2		40.0	2.5	/experiments/knapen_aot/videos/R_S_yt-qurTr1BJMec_244.mp4	0.0	188.77674293518066	
42	123.515615940094	movie	1		301.0	40.0	2.5	/experiments/knapen_aot/videos/R_S_yt-qurTr1BJMec_244.mp4	0.0	188.78484797477722	2.50839900970459
42	126.02401494979858	fix_post	2		12.0	40.0	2.5	/experiments/knapen_aot/videos/R_S_yt-qurTr1BJMec_244.mp4	0.0	191.2932469844818	0.1000521183013916
43	126.12406706809998	fix_pre	0		14.0	41.0	2.5	/experiments/knapen_aot/videos/S_yt-mdLT282PVbE_6.mp4	0.0	191.3932991027832	0.1166069507598877
43	126.2252869606018	response	0	2		41.0	2.5	/experiments/knapen_aot/videos/S_yt-mdLT282PVbE_6.mp4	0.0	191.49451899528503	
43	126.24067401885986	movie	1		301.0	41.0	2.5	/experiments/knapen_aot/videos/S_yt-mdLT282PVbE_6.mp4	0.0	191.5099060535431	2.5083580017089844
43	128.74903202056885	fix_post	2		12.0	41.0	2.5	/experiments/knapen_aot/videos/S_yt-mdLT282PVbE_6.mp4	0.0	194.01826405525208	0.0999300479888916
44	128.84896206855774	fix_pre	0		32.0	42.0	2.5	blank	1.0	194.11819410324097	0.2666919231414795
44	129.10748291015625	response	0	2		42.0	2.5	blank	1.0	194.37671494483948	
44	129.11565399169922	movie	1		301.0	42.0	2.5	blank	1.0	194.38488602638245	2.50834584236145
44	131.62399983406067	fix_post	2		12.0	42.0	2.5	blank	1.0	196.8932318687439	0.10001611709594727
45	131.72401595115662	fix_pre	0		18.0	43.0	2.5	/experiments/knapen_aot/videos/S_yt-h8wy6x6oytA_25.mp4	0.0	196.99324798583984	0.14992499351501465
45	131.86580085754395	response	0	2		43.0	2.5	/experiments/knapen_aot/videos/S_yt-h8wy6x6oytA_25.mp4	0.0	197.13503289222717	
45	131.87394094467163	movie	1		301.0	43.0	2.5	/experiments/knapen_aot/videos/S_yt-h8wy6x6oytA_25.mp4	0.0	197.14317297935486	2.508312940597534
45	134.38225388526917	fix_post	2		12.0	43.0	2.5	/experiments/knapen_aot/videos/S_yt-h8wy6x6oytA_25.mp4	0.0	199.6514859199524	0.10006499290466309
46	134.48231887817383	fix_pre	0		25.0	44.0	2.5	/experiments/knapen_aot/videos/R_S_ILSVRC2015_train_00292006.mp4	0.0	199.75155091285706	0.2097470760345459
46	134.68244004249573	response	0	2		44.0	2.5	/experiments/knapen_aot/videos/R_S_ILSVRC2015_train_00292006.mp4	0.0	199.95167207717896	
46	134.69206595420837	movie	1		301.0	44.0	2.5	/experiments/knapen_aot/videos/R_S_ILSVRC2015_train_00292006.mp4	0.0	199.9612979888916	2.5069870948791504
46	137.19905304908752	fix_post	2		12.0	44.0	2.5	/experiments/knapen_aot/videos/R_S_ILSVRC2015_train_00292006.mp4	0.0	202.46828508377075	0.09996485710144043
47	137.29901790618896	fix_pre	0		14.0	45.0	2.5	/experiments/knapen_aot/videos/R_S_production_ID_4154238.mp4	0.0	202.5682499408722	0.11672616004943848
47	137.40750288963318	response	0	2		45.0	2.5	/experiments/knapen_aot/videos/R_S_production_ID_4154238.mp4	0.0	202.6767349243164	
47	137.4157440662384	movie	1		190.0	45.0	2.5	/experiments/knapen_aot/videos/R_S_production_ID_4154238.mp4	0.0	202.68497610092163	2.5082929134368896
47	139.9240369796753	fix_post	2		12.0	45.0	2.5	/experiments/knapen_aot/videos/R_S_production_ID_4154238.mp4	0.0	205.19326901435852	0.09997797012329102
48	140.02401494979858	fix_pre	0		14.0	46.0	2.5	/experiments/knapen_aot/videos/R_S_pexels-mikael-blomkvist-8689852.mp4	0.0	205.2932469844818	0.11665606498718262
48	140.13256001472473	response	0	2		46.0	2.5	/experiments/knapen_aot/videos/R_S_pexels-mikael-blomkvist-8689852.mp4	0.0	205.40179204940796	
48	140.14067101478577	movie	1		164.0	46.0	2.5	/experiments/knapen_aot/videos/R_S_pexels-mikael-blomkvist-8689852.mp4	0.0	205.409903049469	2.508281946182251
48	142.64895296096802	fix_post	2		12.0	46.0	2.5	/experiments/knapen_aot/videos/R_S_pexels-mikael-blomkvist-8689852.mp4	0.0	207.91818499565125	0.10002803802490234
49	142.74898099899292	fix_pre	0		22.0	47.0	2.5	blank	1.0	208.01821303367615	0.18326091766357422
49	142.92403388023376	response	0	2		47.0	2.5	blank	1.0	208.193265914917	
49	142.9322419166565	movie	1		301.0	47.0	2.5	blank	1.0	208.20147395133972	2.5083460807800293
49	145.44058799743652	fix_post	2		12.0	47.0	2.5	blank	1.0	210.70982003211975	0.10004305839538574
50	145.5406310558319	fix_pre	0		23.0	48.0	2.5	/experiments/knapen_aot/videos/R_S_yt-xrWo3lnbshw_80.mp4	0.0	210.80986309051514	0.19164681434631348
50	145.72409200668335	response	0	2		48.0	2.5	/experiments/knapen_aot/videos/R_S_yt-xrWo3lnbshw_80.mp4	0.0	210.99332404136658	
50	145.73227787017822	movie	1		301.0	48.0	2.5	/experiments/knapen_aot/videos/R_S_yt-xrWo3lnbshw_80.mp4	0.0	211.00150990486145	2.5083091259002686
50	148.2405869960785	fix_post	2		12.0	48.0	2.5	/experiments/knapen_aot/videos/R_S_yt-xrWo3lnbshw_80.mp4	0.0	213.50981903076172	0.09999394416809082
51	148.34058094024658	fix_pre	0		15.0	49.0	2.5	/experiments/knapen_aot/videos/R_S_yt-Id-f63kUHsE_20.mp4	0.0	213.6098129749298	0.1250159740447998
51	148.45734190940857	response	0	2		49.0	2.5	/experiments/knapen_aot/videos/R_S_yt-Id-f63kUHsE_20.mp4	0.0	213.7265739440918	
51	148.46559691429138	movie	1		301.0	49.0	2.5	/experiments/knapen_aot/videos/R_S_yt-Id-f63kUHsE_20.mp4	0.0	213.7348289489746	2.508373975753784
51	150.97397089004517	fix_post	2		12.0	49.0	2.5	/experiments/knapen_aot/videos/R_S_yt-Id-f63kUHsE_20.mp4	0.0	216.2432029247284	0.10000014305114746
52	151.0739710330963	fix_pre	0		29.0	50.0	2.5	/experiments/knapen_aot/videos/R_S_yt-Kwfwhd07dVo_2.mp4	0.0	216.34320306777954	0.24283099174499512
52	151.3074288368225	response	0	2		50.0	2.5	/experiments/knapen_aot/videos/R_S_yt-Kwfwhd07dVo_2.mp4	0.0	216.57666087150574	
52	151.3168020248413	movie	1		301.0	50.0	2.5	/experiments/knapen_aot/videos/R_S_yt-Kwfwhd07dVo_2.mp4	0.0	216.58603405952454	2.507114887237549
52	153.82391691207886	fix_post	2		12.0	50.0	2.5	/experiments/knapen_aot/videos/R_S_yt-Kwfwhd07dVo_2.mp4	0.0	219.09314894676208	0.10001492500305176
53	153.9239318370819	fix_pre	0		32.0	51.0	2.5	/experiments/knapen_aot/videos/R_S_yt-OEY9O2MglQM_7.mp4	0.0	219.19316387176514	0.2679450511932373
53	154.1823809146881	response	0	2		51.0	2.5	/experiments/knapen_aot/videos/R_S_yt-OEY9O2MglQM_7.mp4	0.0	219.45161294937134	
53	154.19187688827515	movie	1		301.0	51.0	2.5	/experiments/knapen_aot/videos/R_S_yt-OEY9O2MglQM_7.mp4	0.0	219.46110892295837	2.5070340633392334
53	156.69891095161438	fix_post	2		12.0	51.0	2.5	/experiments/knapen_aot/videos/R_S_yt-OEY9O2MglQM_7.mp4	0.0	221.9681429862976	0.09997892379760742
54	156.798889875412	fix_pre	0		32.0	52.0	2.5	/experiments/knapen_aot/videos/S_yt-Kwfwhd07dVo_2.mp4	0.0	222.06812191009521	0.26790618896484375
54	157.05734205245972	response	0	2		52.0	2.5	/experiments/knapen_aot/videos/S_yt-Kwfwhd07dVo_2.mp4	0.0	222.32657408714294	
54	157.06679606437683	movie	1		301.0	52.0	2.5	/experiments/knapen_aot/videos/S_yt-Kwfwhd07dVo_2.mp4	0.0	222.33602809906006	2.507070779800415
54	159.57386684417725	fix_post	2		12.0	52.0	2.5	/experiments/knapen_aot/videos/S_yt-Kwfwhd07dVo_2.mp4	0.0	224.84309887886047	0.10004615783691406
55	159.67391300201416	fix_pre	0		34.0	53.0	2.5	/experiments/knapen_aot/videos/R_S_ILSVRC2015_train_00574004.mp4	0.0	224.9431450366974	0.28326988220214844
55	159.94902992248535	response	0	2		53.0	2.5	/experiments/knapen_aot/videos/R_S_ILSVRC2015_train_00574004.mp4	0.0	225.21826195716858	
55	159.9571828842163	movie	1		301.0	53.0	2.5	/experiments/knapen_aot/videos/R_S_ILSVRC2015_train_00574004.mp4	0.0	225.22641491889954	2.5084640979766846
55	162.465646982193	fix_post	2		12.0	53.0	2.5	/experiments/knapen_aot/videos/R_S_ILSVRC2015_train_00574004.mp4	0.0	227.73487901687622	0.09991788864135742
56	162.56556487083435	fix_pre	0		18.0	54.0	2.5	/experiments/knapen_aot/videos/R_S_yt-4ouMuGUuPHI_193.mp4	0.0	227.83479690551758	0.14994311332702637
56	162.70734286308289	response	0	2		54.0	2.5	/experiments/knapen_aot/videos/R_S_yt-4ouMuGUuPHI_193.mp4	0.0	227.9765748977661	
56	162.71550798416138	movie	1		301.0	54.0	2.5	/experiments/knapen_aot/videos/R_S_yt-4ouMuGUuPHI_193.mp4	0.0	227.9847400188446	2.508331060409546
56	165.22383904457092	fix_post	2		12.0	54.0	2.5	/experiments/knapen_aot/videos/R_S_yt-4ouMuGUuPHI_193.mp4	0.0	230.49307107925415	0.10007786750793457
57	165.32391691207886	fix_pre	0		18.0	55.0	2.5	/experiments/knapen_aot/videos/S_yt-IyxCMODHSSE_29.mp4	0.0	230.59314894676208	0.14986014366149902
57	165.45807194709778	response	0	2		55.0	2.5	/experiments/knapen_aot/videos/S_yt-IyxCMODHSSE_29.mp4	0.0	230.727303981781	
57	165.47377705574036	movie	1		301.0	55.0	2.5	/experiments/knapen_aot/videos/S_yt-IyxCMODHSSE_29.mp4	0.0	230.74300909042358	2.508424997329712
57	167.98220205307007	fix_post	2		12.0	55.0	2.5	/experiments/knapen_aot/videos/S_yt-IyxCMODHSSE_29.mp4	0.0	233.2514340877533	0.09998393058776855
58	168.08218598365784	fix_pre	0		111.0	56.0	2.5	blank	1.0	233.35141801834106	0.924933910369873
58	168.99148201942444	response	0	2		56.0	2.5	blank	1.0	234.26071405410767	
58	169.0071198940277	movie	1		301.0	56.0	2.5	blank	1.0	234.27635192871094	2.5083651542663574
58	171.51548504829407	fix_post	2		12.0	56.0	2.5	blank	1.0	236.7847170829773	0.09998178482055664
59	171.61546683311462	fix_pre	0		39.0	57.0	2.5	/experiments/knapen_aot/videos/S_yt-XRQ_LSGGr3Y_712.mp4	0.0	236.88469886779785	0.32614707946777344
59	171.93226385116577	response	0	2		57.0	2.5	/experiments/knapen_aot/videos/S_yt-XRQ_LSGGr3Y_712.mp4	0.0	237.201495885849	
59	171.9416139125824	movie	1		301.0	57.0	2.5	/experiments/knapen_aot/videos/S_yt-XRQ_LSGGr3Y_712.mp4	0.0	237.21084594726562	2.5072569847106934
59	174.4488708972931	fix_post	2		12.0	57.0	2.5	/experiments/knapen_aot/videos/S_yt-XRQ_LSGGr3Y_712.mp4	0.0	239.71810293197632	0.0999441146850586
60	174.54881501197815	fix_pre	0		39.0	58.0	2.5	/experiments/knapen_aot/videos/S_pexels-mikhail-nilov-8410088.mp4	0.0	239.81804704666138	0.32502293586730957
60	174.8656358718872	response	0	2		58.0	2.5	/experiments/knapen_aot/videos/S_pexels-mikhail-nilov-8410088.mp4	0.0	240.13486790657043	
60	174.87383794784546	movie	1		161.0	58.0	2.5	/experiments/knapen_aot/videos/S_pexels-mikhail-nilov-8410088.mp4	0.0	240.1430699825287	2.5083630084991455
60	177.3822009563446	fix_post	2		12.0	58.0	2.5	/experiments/knapen_aot/videos/S_pexels-mikhail-nilov-8410088.mp4	0.0	242.65143299102783	0.09995007514953613
61	177.48215103149414	fix_pre	0		17.0	59.0	2.5	/experiments/knapen_aot/videos/S_yt-xlHdGsXVZFU_83.mp4	0.0	242.75138306617737	0.14160490036010742
61	177.61561703681946	response	0	2		59.0	2.5	/experiments/knapen_aot/videos/S_yt-xlHdGsXVZFU_83.mp4	0.0	242.88484907150269	
61	177.62375593185425	movie	1		301.0	59.0	2.5	/experiments/knapen_aot/videos/S_yt-xlHdGsXVZFU_83.mp4	0.0	242.89298796653748	2.508336067199707
61	180.13209199905396	fix_post	2		12.0	59.0	2.5	/experiments/knapen_aot/videos/S_yt-xlHdGsXVZFU_83.mp4	0.0	245.40132403373718	0.09999799728393555
62	180.2320899963379	fix_pre	0		16.0	60.0	2.5	/experiments/knapen_aot/videos/R_S_yt-ybH6uAiFbjc_273.mp4	0.0	245.50132203102112	0.1333630084991455
62	180.35712599754333	response	0	2		60.0	2.5	/experiments/knapen_aot/videos/R_S_yt-ybH6uAiFbjc_273.mp4	0.0	245.62635803222656	
62	180.36545300483704	movie	1		301.0	60.0	2.5	/experiments/knapen_aot/videos/R_S_yt-ybH6uAiFbjc_273.mp4	0.0	245.63468503952026	2.508354902267456
62	182.8738079071045	fix_post	2		12.0	60.0	2.5	/experiments/knapen_aot/videos/R_S_yt-ybH6uAiFbjc_273.mp4	0.0	248.14303994178772	0.0999760627746582
63	182.97378396987915	fix_pre	0		32.0	61.0	2.5	/experiments/knapen_aot/videos/R_S_Xq0a2BWE3zA_53.mp4	0.0	248.24301600456238	0.26667094230651855
63	183.23217606544495	response	0	2		61.0	2.5	/experiments/knapen_aot/videos/R_S_Xq0a2BWE3zA_53.mp4	0.0	248.50140810012817	
63	183.24045491218567	movie	1		301.0	61.0	2.5	/experiments/knapen_aot/videos/R_S_Xq0a2BWE3zA_53.mp4	0.0	248.5096869468689	2.5083539485931396
63	185.7488088607788	fix_post	2		12.0	61.0	2.5	/experiments/knapen_aot/videos/R_S_Xq0a2BWE3zA_53.mp4	0.0	251.01804089546204	0.10000920295715332
64	185.84881806373596	fix_pre	0		22.0	62.0	2.5	blank	1.0	251.1180500984192	0.18327784538269043
64	186.0239269733429	response	0	2		62.0	2.5	blank	1.0	251.29315900802612	
64	186.03209590911865	movie	1		301.0	62.0	2.5	blank	1.0	251.30132794380188	2.508310079574585
64	188.54040598869324	fix_post	2		12.0	62.0	2.5	blank	1.0	253.80963802337646	0.10003995895385742
65	188.6404459476471	fix_pre	0		25.0	63.0	2.5	/experiments/knapen_aot/videos/R_S_yt-Jo6PxivsTOg_247.mp4	0.0	253.90967798233032	0.20831799507141113
65	188.84045100212097	response	0	2		63.0	2.5	/experiments/knapen_aot/videos/R_S_yt-Jo6PxivsTOg_247.mp4	0.0	254.1096830368042	
65	188.8487639427185	movie	1		298.0	63.0	2.5	/experiments/knapen_aot/videos/R_S_yt-Jo6PxivsTOg_247.mp4	0.0	254.11799597740173	2.508347988128662
65	191.35711193084717	fix_post	2		12.0	63.0	2.5	/experiments/knapen_aot/videos/R_S_yt-Jo6PxivsTOg_247.mp4	0.0	256.6263439655304	0.0999600887298584
66	191.45707201957703	fix_pre	0		24.0	64.0	2.5	/experiments/knapen_aot/videos/S_yt-C0INfEJ4Awk_53.mp4	0.0	256.72630405426025	0.20008087158203125
66	191.64128589630127	response	0	2		64.0	2.5	/experiments/knapen_aot/videos/S_yt-C0INfEJ4Awk_53.mp4	0.0	256.9105179309845	
66	191.65715289115906	movie	1		301.0	64.0	2.5	/experiments/knapen_aot/videos/S_yt-C0INfEJ4Awk_53.mp4	0.0	256.9263849258423	2.5082809925079346
66	194.165433883667	fix_post	2		12.0	64.0	2.5	/experiments/knapen_aot/videos/S_yt-C0INfEJ4Awk_53.mp4	0.0	259.4346659183502	0.09995317459106445
67	194.26538705825806	fix_pre	0		25.0	65.0	2.5	/experiments/knapen_aot/videos/R_S_wc-dwTccI0TNwps_15.mp4	0.0	259.5346190929413	0.2083439826965332
67	194.4655179977417	response	0	2		65.0	2.5	/experiments/knapen_aot/videos/R_S_wc-dwTccI0TNwps_15.mp4	0.0	259.7347500324249	
67	194.4737310409546	movie	1		301.0	65.0	2.5	/experiments/knapen_aot/videos/R_S_wc-dwTccI0TNwps_15.mp4	0.0	259.7429630756378	2.5083608627319336
67	196.98209190368652	fix_post	2		12.0	65.0	2.5	/experiments/knapen_aot/videos/R_S_wc-dwTccI0TNwps_15.mp4	0.0	262.25132393836975	0.09989094734191895
68	197.08198285102844	fix_pre	0		145.0	66.0	2.5	/experiments/knapen_aot/videos/R_S_pexels-anastasia-shuraeva-6014070.mp4	0.0	262.35121488571167	1.2083539962768555
68	198.2822048664093	response	0	2		66.0	2.5	/experiments/knapen_aot/videos/R_S_pexels-anastasia-shuraeva-6014070.mp4	0.0	263.55143690109253	
68	198.2903368473053	movie	1		175.0	66.0	2.5	/experiments/knapen_aot/videos/R_S_pexels-anastasia-shuraeva-6014070.mp4	0.0	263.5595688819885	2.508498191833496
68	200.7988350391388	fix_post	2		12.0	66.0	2.5	/experiments/knapen_aot/videos/R_S_pexels-anastasia-shuraeva-6014070.mp4	0.0	266.068067073822	0.0998837947845459
69	200.89871883392334	fix_pre	0		22.0	67.0	2.5	/experiments/knapen_aot/videos/S_yt-Id-f63kUHsE_20.mp4	0.0	266.16795086860657	0.18331003189086914
69	201.07386684417725	response	0	2		67.0	2.5	/experiments/knapen_aot/videos/S_yt-Id-f63kUHsE_20.mp4	0.0	266.3430988788605	
69	201.0820288658142	movie	1		300.0	67.0	2.5	/experiments/knapen_aot/videos/S_yt-Id-f63kUHsE_20.mp4	0.0	266.35126090049744	2.508277177810669
69	203.59030604362488	fix_post	2		12.0	67.0	2.5	/experiments/knapen_aot/videos/S_yt-Id-f63kUHsE_20.mp4	0.0	268.8595380783081	0.10005402565002441
70	203.6903600692749	fix_pre	0		26.0	68.0	2.5	/experiments/knapen_aot/videos/S_comp_A103_C002_0205DG_v12_SDR_FINAL_20180706_SDR_2K_AVC.mp4	0.0	268.95959210395813	0.21662092208862305
70	203.89130091667175	response	0	2		68.0	2.5	/experiments/knapen_aot/videos/S_comp_A103_C002_0205DG_v12_SDR_FINAL_20180706_SDR_2K_AVC.mp4	0.0	269.160532951355	
70	203.90698099136353	movie	1		168.0	68.0	2.5	/experiments/knapen_aot/videos/S_comp_A103_C002_0205DG_v12_SDR_FINAL_20180706_SDR_2K_AVC.mp4	0.0	269.17621302604675	2.508388042449951
70	206.41536903381348	fix_post	2		12.0	68.0	2.5	/experiments/knapen_aot/videos/S_comp_A103_C002_0205DG_v12_SDR_FINAL_20180706_SDR_2K_AVC.mp4	0.0	271.6846010684967	0.09998703002929688
71	206.51535606384277	fix_pre	0		14.0	69.0	2.5	blank	1.0	271.784588098526	0.11658287048339844
71	206.62376403808594	response	0	2		69.0	2.5	blank	1.0	271.89299607276917	
71	206.63193893432617	movie	1		301.0	69.0	2.5	blank	1.0	271.9011709690094	2.508384943008423
71	209.1403238773346	fix_post	2		12.0	69.0	2.5	blank	1.0	274.4095559120178	0.10001301765441895
72	209.240336894989	fix_pre	0		30.0	70.0	2.5	/experiments/knapen_aot/videos/R_S_production_ID_4802712.mp4	0.0	274.50956892967224	0.24996709823608398
72	209.48225283622742	response	0	2		70.0	2.5	/experiments/knapen_aot/videos/R_S_production_ID_4802712.mp4	0.0	274.75148487091064	
72	209.4903039932251	movie	1		168.0	70.0	2.5	/experiments/knapen_aot/videos/R_S_production_ID_4802712.mp4	0.0	274.7595360279083	2.508316993713379
72	211.99862098693848	fix_post	2		12.0	70.0	2.5	/experiments/knapen_aot/videos/R_S_production_ID_4802712.mp4	0.0	277.2678530216217	0.09998893737792969
73	212.0986099243164	fix_pre	0		9.0	71.0	2.5	/experiments/knapen_aot/videos/S_yt-B8Sy53C6Pxw_8.mp4	0.0	277.36784195899963	0.07500910758972168
73	212.16539406776428	response	0	2		71.0	2.5	/experiments/knapen_aot/videos/S_yt-B8Sy53C6Pxw_8.mp4	0.0	277.4346261024475	
73	212.17361903190613	movie	1		301.0	71.0	2.5	/experiments/knapen_aot/videos/S_yt-B8Sy53C6Pxw_8.mp4	0.0	277.44285106658936	2.508392810821533
73	214.68201184272766	fix_post	2		12.0	71.0	2.5	/experiments/knapen_aot/videos/S_yt-B8Sy53C6Pxw_8.mp4	0.0	279.9512438774109	0.10003805160522461
74	214.78204989433289	fix_pre	0		15.0	72.0	2.5	/experiments/knapen_aot/videos/S_comp_DB_D002_C003_PSNK_v04_SDR_PS_20180914_SDR_2K_AVC.mp4	0.0	280.0512819290161	0.12498617172241211
74	214.89885091781616	response	0	2		72.0	2.5	/experiments/knapen_aot/videos/S_comp_DB_D002_C003_PSNK_v04_SDR_PS_20180914_SDR_2K_AVC.mp4	0.0	280.1680829524994	
74	214.9070360660553	movie	1		165.0	72.0	2.5	/experiments/knapen_aot/videos/S_comp_DB_D002_C003_PSNK_v04_SDR_PS_20180914_SDR_2K_AVC.mp4	0.0	280.1762681007385	2.5082199573516846
74	217.41525602340698	fix_post	2		12.0	72.0	2.5	/experiments/knapen_aot/videos/S_comp_DB_D002_C003_PSNK_v04_SDR_PS_20180914_SDR_2K_AVC.mp4	0.0	282.6844880580902	0.09993791580200195
75	217.51519393920898	fix_pre	0		14.0	73.0	2.5	/experiments/knapen_aot/videos/R_S_yt-316ecr1BT84_44.mp4	0.0	282.7844259738922	0.11675810813903809
75	217.6162428855896	response	0	2		73.0	2.5	/experiments/knapen_aot/videos/R_S_yt-316ecr1BT84_44.mp4	0.0	282.8854749202728	
75	217.63195204734802	movie	1		301.0	73.0	2.5	/experiments/knapen_aot/videos/R_S_yt-316ecr1BT84_44.mp4	0.0	282.90118408203125	2.508359909057617
75	220.14031195640564	fix_post	2		12.0	73.0	2.5	/experiments/knapen_aot/videos/R_S_yt-316ecr1BT84_44.mp4	0.0	285.40954399108887	0.09999799728393555
76	220.24030995368958	fix_pre	0		11.0	74.0	2.5	/experiments/knapen_aot/videos/R_S_Y005_C003_SDR_2K_AVC.mp4	0.0	285.5095419883728	0.09160995483398438
76	220.32376885414124	response	0	2		74.0	2.5	/experiments/knapen_aot/videos/R_S_Y005_C003_SDR_2K_AVC.mp4	0.0	285.59300088882446	
76	220.33191990852356	movie	1		166.0	74.0	2.5	/experiments/knapen_aot/videos/R_S_Y005_C003_SDR_2K_AVC.mp4	0.0	285.6011519432068	2.5083611011505127
76	222.84028100967407	fix_post	2		12.0	74.0	2.5	/experiments/knapen_aot/videos/R_S_Y005_C003_SDR_2K_AVC.mp4	0.0	288.1095130443573	0.09991693496704102
77	222.9401979446411	fix_pre	0		3.0	75.0	2.5	blank	1.0	288.20942997932434	0.02503204345703125
77	222.95704698562622	response	0	2		75.0	2.5	blank	1.0	288.22627902030945	
77	222.96522998809814	movie	1		301.0	75.0	2.5	blank	1.0	288.2344620227814	2.508384943008423
77	225.47361493110657	fix_post	2		12.0	75.0	2.5	blank	1.0	290.7428469657898	0.10005903244018555
78	225.57367396354675	fix_pre	0		18.0	76.0	2.5	/experiments/knapen_aot/videos/R_S_yt-9Q7SZR0mgMA_155.mp4	0.0	290.84290599823	0.14987802505493164
78	225.71536087989807	response	0	2		76.0	2.5	/experiments/knapen_aot/videos/R_S_yt-9Q7SZR0mgMA_155.mp4	0.0	290.9845929145813	
78	225.72355198860168	movie	1		300.0	76.0	2.5	/experiments/knapen_aot/videos/R_S_yt-9Q7SZR0mgMA_155.mp4	0.0	290.9927840232849	2.5083799362182617
78	228.23193192481995	fix_post	2		12.0	76.0	2.5	/experiments/knapen_aot/videos/R_S_yt-9Q7SZR0mgMA_155.mp4	0.0	293.5011639595032	0.0999600887298584
79	228.3318920135498	fix_pre	0		26.0	77.0	2.5	/experiments/knapen_aot/videos/R_S_yt-R6a0Jzo_u1Y_254.mp4	0.0	293.60112404823303	0.216627836227417
79	228.5403368473053	response	0	2		77.0	2.5	/experiments/knapen_aot/videos/R_S_yt-R6a0Jzo_u1Y_254.mp4	0.0	293.8095688819885	
79	228.54851984977722	movie	1		300.0	77.0	2.5	/experiments/knapen_aot/videos/R_S_yt-R6a0Jzo_u1Y_254.mp4	0.0	293.81775188446045	2.5083541870117188
79	231.05687403678894	fix_post	2		12.0	77.0	2.5	/experiments/knapen_aot/videos/R_S_yt-R6a0Jzo_u1Y_254.mp4	0.0	296.32610607147217	0.10006880760192871
80	231.15694284439087	fix_pre	0		72.0	78.0	2.5	/experiments/knapen_aot/videos/S_yt-KVB49z48sZU_55.mp4	0.0	296.4261748790741	0.599865198135376
80	231.74870896339417	response	0	2		78.0	2.5	/experiments/knapen_aot/videos/S_yt-KVB49z48sZU_55.mp4	0.0	297.0179409980774	
80	231.75680804252625	movie	1		301.0	78.0	2.5	/experiments/knapen_aot/videos/S_yt-KVB49z48sZU_55.mp4	0.0	297.0260400772095	2.5083959102630615
80	234.2652039527893	fix_post	2		12.0	78.0	2.5	/experiments/knapen_aot/videos/S_yt-KVB49z48sZU_55.mp4	0.0	299.53443598747253	0.10002708435058594
81	234.3652310371399	fix_pre	0		58.0	79.0	2.5	/experiments/knapen_aot/videos/S_comp_CH_C002_C005_PSNK_v05_SDR_PS_FINAL_20180709_SDR_2K_AVC.mp4	0.0	299.6344630718231	0.4833059310913086
81	234.84035086631775	response	0	2		79.0	2.5	/experiments/knapen_aot/videos/S_comp_CH_C002_C005_PSNK_v05_SDR_PS_FINAL_20180709_SDR_2K_AVC.mp4	0.0	300.109582901001	
81	234.8485369682312	movie	1		170.0	79.0	2.5	/experiments/knapen_aot/videos/S_comp_CH_C002_C005_PSNK_v05_SDR_PS_FINAL_20180709_SDR_2K_AVC.mp4	0.0	300.11776900291443	2.508363962173462
81	237.35690093040466	fix_post	2		12.0	79.0	2.5	/experiments/knapen_aot/videos/S_comp_CH_C002_C005_PSNK_v05_SDR_PS_FINAL_20180709_SDR_2K_AVC.mp4	0.0	302.6261329650879	0.09997010231018066
82	237.45687103271484	fix_pre	0		14.0	80.0	2.5	/experiments/knapen_aot/videos/R_S_yt-C0INfEJ4Awk_53.mp4	0.0	302.72610306739807	0.11669802665710449
82	237.56530690193176	response	0	2		80.0	2.5	/experiments/knapen_aot/videos/R_S_yt-C0INfEJ4Awk_53.mp4	0.0	302.834538936615	
82	237.57356905937195	movie	1		301.0	80.0	2.5	/experiments/knapen_aot/videos/R_S_yt-C0INfEJ4Awk_53.mp4	0.0	302.8428010940552	2.5083649158477783
82	240.08193397521973	fix_post	2		12.0	80.0	2.5	/experiments/knapen_aot/videos/R_S_yt-C0INfEJ4Awk_53.mp4	0.0	305.35116600990295	0.0999600887298584
83	240.18189406394958	fix_pre	0		16.0	81.0	2.5	/experiments/knapen_aot/videos/R_S_ILSVRC2015_train_00524001.mp4	0.0	305.4511260986328	0.13409090042114258
83	240.2994749546051	response	0	2		81.0	2.5	/experiments/knapen_aot/videos/R_S_ILSVRC2015_train_00524001.mp4	0.0	305.56870698928833	
83	240.31598496437073	movie	1		301.0	81.0	2.5	/experiments/knapen_aot/videos/R_S_ILSVRC2015_train_00524001.mp4	0.0	305.58521699905396	2.507478952407837
83	242.82346391677856	fix_post	2		12.0	81.0	2.5	/experiments/knapen_aot/videos/R_S_ILSVRC2015_train_00524001.mp4	0.0	308.0926959514618	0.10008406639099121
84	242.92354798316956	fix_pre	0		20.0	82.0	2.5	/experiments/knapen_aot/videos/R_S_yt-W00vtWnXgIk_73.mp4	0.0	308.1927800178528	0.1666269302368164
84	243.08200097084045	response	0	2		82.0	2.5	/experiments/knapen_aot/videos/R_S_yt-W00vtWnXgIk_73.mp4	0.0	308.3512330055237	
84	243.09017491340637	movie	1		301.0	82.0	2.5	/experiments/knapen_aot/videos/R_S_yt-W00vtWnXgIk_73.mp4	0.0	308.3594069480896	2.5083611011505127
84	245.59853601455688	fix_post	2		12.0	82.0	2.5	/experiments/knapen_aot/videos/R_S_yt-W00vtWnXgIk_73.mp4	0.0	310.8677680492401	0.09998083114624023
85	245.69851684570312	fix_pre	0		13.0	83.0	2.5	blank	1.0	310.96774888038635	0.10822319984436035
85	245.7910840511322	response	0	2		83.0	2.5	blank	1.0	311.06031608581543	
85	245.80674004554749	movie	1		301.0	83.0	2.5	blank	1.0	311.0759720802307	2.508366823196411
85	248.3151068687439	fix_post	2		12.0	83.0	2.5	blank	1.0	313.5843389034271	0.1000661849975586
87	248.41517305374146	stim	0		63.0					313.6844050884247	0.5257799625396729
87	248.57361388206482	response	0	2						313.84284591674805	
87	248.93375205993652	response	0	space						314.20298409461975	
