trial_nr	onset	event_type	phase	response	nr_frames	movie_index	movie_duration	movie_file	blank	onset_abs	duration
0	0.129180908203125	stim	0		35.0					212.11606884002686	0.2873051166534424
0	0.40842199325561523	response	0	space						212.39530992507935	
1	0.4164860248565674	stim	0		121.0					212.4033739566803	1.0085279941558838
1	1.392637014389038	response	0	space						213.37952494621277	
1	1.4250140190124512	stim	1		120.0					213.41190195083618	0.9995970726013184
1	1.841304063796997	response	1	space						213.82819199562073	
1	2.341360092163086	response	1	space						214.32824802398682	
2	2.4246110916137695	fix_pre	0		37.0	0.0	2.5	/experiments/knapen_aot/videos/S_yt-isJga8ec5UM_32.mp4	0.0	214.4114990234375	0.3083510398864746
2	2.72468900680542	response	0	space		0.0	2.5	/experiments/knapen_aot/videos/S_yt-isJga8ec5UM_32.mp4	0.0	214.71157693862915	
2	2.732962131500244	movie	1		301.0	0.0	2.5	/experiments/knapen_aot/videos/S_yt-isJga8ec5UM_32.mp4	0.0	214.71985006332397	2.5083048343658447
2	5.241266965866089	fix_post	2		12.0	0.0	2.5	/experiments/knapen_aot/videos/S_yt-isJga8ec5UM_32.mp4	0.0	217.22815489768982	0.09999799728393555
3	5.341264963150024	fix_pre	0		57.0	1.0	2.5	/experiments/knapen_aot/videos/R_S_yt-6MwA-jx56AQ_612.mp4	0.0	217.32815289497375	0.4750070571899414
3	5.812992095947266	response	0	2		1.0	2.5	/experiments/knapen_aot/videos/R_S_yt-6MwA-jx56AQ_612.mp4	0.0	217.799880027771	
3	5.816272020339966	movie	1		300.0	1.0	2.5	/experiments/knapen_aot/videos/R_S_yt-6MwA-jx56AQ_612.mp4	0.0	217.8031599521637	2.5082919597625732
3	8.324563980102539	fix_post	2		12.0	1.0	2.5	/experiments/knapen_aot/videos/R_S_yt-6MwA-jx56AQ_612.mp4	0.0	220.31145191192627	0.1000220775604248
4	8.424586057662964	fix_pre	0		11.0	2.0	2.5	/experiments/knapen_aot/videos/S_comp_GL_G002_C002_PSNK_v03_SDR_PS_20180925_SDR_2K_AVC.mp4	0.0	220.4114739894867	0.09158205986022949
4	8.508141994476318	response	0	2		2.0	2.5	/experiments/knapen_aot/videos/S_comp_GL_G002_C002_PSNK_v03_SDR_PS_20180925_SDR_2K_AVC.mp4	0.0	220.49502992630005	
4	8.516168117523193	movie	1		167.0	2.0	2.5	/experiments/knapen_aot/videos/S_comp_GL_G002_C002_PSNK_v03_SDR_PS_20180925_SDR_2K_AVC.mp4	0.0	220.50305604934692	2.508530855178833
4	11.024698972702026	fix_post	2		12.0	2.0	2.5	/experiments/knapen_aot/videos/S_comp_GL_G002_C002_PSNK_v03_SDR_PS_20180925_SDR_2K_AVC.mp4	0.0	223.01158690452576	0.09991192817687988
5	11.124610900878906	fix_pre	0		7.0	3.0	2.5	/experiments/knapen_aot/videos/S_yt-FMIevUic_XY_50.mp4	0.0	223.11149883270264	0.058233022689819336
5	11.174614906311035	response	0	2		3.0	2.5	/experiments/knapen_aot/videos/S_yt-FMIevUic_XY_50.mp4	0.0	223.16150283813477	
5	11.182843923568726	movie	1		301.0	3.0	2.5	/experiments/knapen_aot/videos/S_yt-FMIevUic_XY_50.mp4	0.0	223.16973185539246	2.5084500312805176
5	13.691293954849243	fix_post	2		12.0	3.0	2.5	/experiments/knapen_aot/videos/S_yt-FMIevUic_XY_50.mp4	0.0	225.67818188667297	0.09996199607849121
6	13.791255950927734	fix_pre	0		10.0	4.0	2.5	/experiments/knapen_aot/videos/R_S_video-2.mp4	0.0	225.77814388275146	0.08336305618286133
6	13.858774900436401	response	0	2		4.0	2.5	/experiments/knapen_aot/videos/R_S_video-2.mp4	0.0	225.84566283226013	
6	13.874619007110596	movie	1		170.0	4.0	2.5	/experiments/knapen_aot/videos/R_S_video-2.mp4	0.0	225.86150693893433	2.5082850456237793
6	16.382904052734375	fix_post	2		12.0	4.0	2.5	/experiments/knapen_aot/videos/R_S_video-2.mp4	0.0	228.3697919845581	0.10004997253417969
7	16.482954025268555	fix_pre	0		1.0	5.0	2.5	/experiments/knapen_aot/videos/R_S_yt-mdxs8FCKLFc_232.mp4	0.0	228.46984195709229	0.008235931396484375
7	16.48474097251892	response	0	2		5.0	2.5	/experiments/knapen_aot/videos/R_S_yt-mdxs8FCKLFc_232.mp4	0.0	228.47162890434265	
7	16.49118995666504	movie	1		301.0	5.0	2.5	/experiments/knapen_aot/videos/R_S_yt-mdxs8FCKLFc_232.mp4	0.0	228.47807788848877	2.508423089981079
7	18.999613046646118	fix_post	2		12.0	5.0	2.5	/experiments/knapen_aot/videos/R_S_yt-mdxs8FCKLFc_232.mp4	0.0	230.98650097846985	0.09984803199768066
7	19.08293390274048	response	2	2		5.0	2.5	/experiments/knapen_aot/videos/R_S_yt-mdxs8FCKLFc_232.mp4	0.0	231.0698218345642	
8	19.0994610786438	fix_pre	0		73.0	6.0	2.5	blank	1.0	231.08634901046753	0.6083860397338867
8	19.69962501525879	response	0	2		6.0	2.5	blank	1.0	231.68651294708252	
8	19.707847118377686	movie	1		301.0	6.0	2.5	blank	1.0	231.69473505020142	2.5083158016204834
8	21.508074045181274	response	1	2		6.0	2.5	blank	1.0	233.494961977005	
8	21.891216039657593	response	1	2		6.0	2.5	blank	1.0	233.87810397148132	
8	22.21616291999817	fix_post	2		12.0	6.0	2.5	blank	1.0	234.2030508518219	0.10003900527954102
9	22.31620192527771	fix_pre	0		15.0	7.0	2.5	/experiments/knapen_aot/videos/R_S_nTA7B2uHaCQ_1.mp4	0.0	234.30308985710144	0.1249539852142334
9	22.432913064956665	response	0	2		7.0	2.5	/experiments/knapen_aot/videos/R_S_nTA7B2uHaCQ_1.mp4	0.0	234.4198009967804	
9	22.441155910491943	movie	1		301.0	7.0	2.5	/experiments/knapen_aot/videos/R_S_nTA7B2uHaCQ_1.mp4	0.0	234.42804384231567	2.5083751678466797
9	24.949531078338623	fix_post	2		12.0	7.0	2.5	/experiments/knapen_aot/videos/R_S_nTA7B2uHaCQ_1.mp4	0.0	236.93641901016235	0.0999610424041748
10	25.049492120742798	fix_pre	0		20.0	8.0	2.5	/experiments/knapen_aot/videos/R_S_X-D3lUv-atE_376.mp4	0.0	237.03638005256653	0.16660094261169434
10	25.207937002182007	response	0	2		8.0	2.5	/experiments/knapen_aot/videos/R_S_X-D3lUv-atE_376.mp4	0.0	237.19482493400574	
10	25.216093063354492	movie	1		301.0	8.0	2.5	/experiments/knapen_aot/videos/R_S_X-D3lUv-atE_376.mp4	0.0	237.20298099517822	2.5083420276641846
10	27.724435091018677	fix_post	2		12.0	8.0	2.5	/experiments/knapen_aot/videos/R_S_X-D3lUv-atE_376.mp4	0.0	239.7113230228424	0.10004901885986328
11	27.82448410987854	fix_pre	0		15.0	9.0	2.5	/experiments/knapen_aot/videos/R_S_yt-w_e3sxIzepA_115.mp4	0.0	239.81137204170227	0.12498784065246582
11	27.93380904197693	response	0	2		9.0	2.5	/experiments/knapen_aot/videos/R_S_yt-w_e3sxIzepA_115.mp4	0.0	239.92069697380066	
11	27.949471950531006	movie	1		301.0	9.0	2.5	/experiments/knapen_aot/videos/R_S_yt-w_e3sxIzepA_115.mp4	0.0	239.93635988235474	2.5083329677581787
11	30.457804918289185	fix_post	2		12.0	9.0	2.5	/experiments/knapen_aot/videos/R_S_yt-w_e3sxIzepA_115.mp4	0.0	242.44469285011292	0.10004711151123047
12	30.557852029800415	fix_pre	0		9.0	10.0	2.5	/experiments/knapen_aot/videos/S_Y009_C015_SDR_2K_AVC.mp4	0.0	242.54473996162415	0.07500696182250977
12	30.624614000320435	response	0	2		10.0	2.5	/experiments/knapen_aot/videos/S_Y009_C015_SDR_2K_AVC.mp4	0.0	242.61150193214417	
12	30.632858991622925	movie	1		172.0	10.0	2.5	/experiments/knapen_aot/videos/S_Y009_C015_SDR_2K_AVC.mp4	0.0	242.61974692344666	2.508284091949463
12	33.14114308357239	fix_post	2		12.0	10.0	2.5	/experiments/knapen_aot/videos/S_Y009_C015_SDR_2K_AVC.mp4	0.0	245.12803101539612	0.09992384910583496
13	33.24106693267822	fix_pre	0		12.0	11.0	2.5	/experiments/knapen_aot/videos/R_S_pexels-roman-odintsov-8233166.mp4	0.0	245.22795486450195	0.10017704963684082
13	33.33281707763672	response	0	2		11.0	2.5	/experiments/knapen_aot/videos/R_S_pexels-roman-odintsov-8233166.mp4	0.0	245.31970500946045	
13	33.34124398231506	movie	1		207.0	11.0	2.5	/experiments/knapen_aot/videos/R_S_pexels-roman-odintsov-8233166.mp4	0.0	245.3281319141388	2.5082039833068848
13	35.84944796562195	fix_post	2		12.0	11.0	2.5	/experiments/knapen_aot/videos/R_S_pexels-roman-odintsov-8233166.mp4	0.0	247.83633589744568	0.10001611709594727
14	35.949464082717896	fix_pre	0		20.0	12.0	2.5	blank	1.0	247.93635201454163	0.1665818691253662
14	36.108065128326416	response	0	2		12.0	2.5	blank	1.0	248.09495306015015	
14	36.11604595184326	movie	1		301.0	12.0	2.5	blank	1.0	248.102933883667	2.508418083190918
14	38.62446403503418	fix_post	2		12.0	12.0	2.5	blank	1.0	250.6113519668579	0.09992194175720215
15	38.72438597679138	fix_pre	0		25.0	13.0	2.5	/experiments/knapen_aot/videos/R_S_pexels-ekaterina-bolovtsova-7669220.mp4	0.0	250.7112739086151	0.2083899974822998
15	38.92452692985535	response	0	2		13.0	2.5	/experiments/knapen_aot/videos/R_S_pexels-ekaterina-bolovtsova-7669220.mp4	0.0	250.91141486167908	
15	38.93277597427368	movie	1		165.0	13.0	2.5	/experiments/knapen_aot/videos/R_S_pexels-ekaterina-bolovtsova-7669220.mp4	0.0	250.9196639060974	2.508319139480591
15	41.44109511375427	fix_post	2		12.0	13.0	2.5	/experiments/knapen_aot/videos/R_S_pexels-ekaterina-bolovtsova-7669220.mp4	0.0	253.427983045578	0.10007095336914062
16	41.54116606712341	fix_pre	0		30.0	14.0	2.5	/experiments/knapen_aot/videos/S_yt-1iB2ofPY1U8_16.mp4	0.0	253.52805399894714	0.2499098777770996
16	41.782872915267944	response	0	2		14.0	2.5	/experiments/knapen_aot/videos/S_yt-1iB2ofPY1U8_16.mp4	0.0	253.76976084709167	
16	41.79107594490051	movie	1		301.0	14.0	2.5	/experiments/knapen_aot/videos/S_yt-1iB2ofPY1U8_16.mp4	0.0	253.77796387672424	2.5082931518554688
16	44.29936909675598	fix_post	2		12.0	14.0	2.5	/experiments/knapen_aot/videos/S_yt-1iB2ofPY1U8_16.mp4	0.0	256.2862570285797	0.10003495216369629
17	44.39940404891968	fix_pre	0		24.0	15.0	2.5	/experiments/knapen_aot/videos/S_pexels-mart-production-7277934.mp4	0.0	256.3862919807434	0.20000886917114258
17	44.591140031814575	response	0	2		15.0	2.5	/experiments/knapen_aot/videos/S_pexels-mart-production-7277934.mp4	0.0	256.5780279636383	
17	44.59941291809082	movie	1		164.0	15.0	2.5	/experiments/knapen_aot/videos/S_pexels-mart-production-7277934.mp4	0.0	256.58630084991455	2.5084822177886963
17	47.10789513587952	fix_post	2		12.0	15.0	2.5	/experiments/knapen_aot/videos/S_pexels-mart-production-7277934.mp4	0.0	259.09478306770325	0.09983181953430176
18	47.20772695541382	fix_pre	0		22.0	16.0	2.5	/experiments/knapen_aot/videos/S_yt-Jro_TRE8NUQ_234.mp4	0.0	259.19461488723755	0.18329906463623047
18	47.37538003921509	response	0	2		16.0	2.5	/experiments/knapen_aot/videos/S_yt-Jro_TRE8NUQ_234.mp4	0.0	259.3622679710388	
18	47.39102602005005	movie	1		301.0	16.0	2.5	/experiments/knapen_aot/videos/S_yt-Jro_TRE8NUQ_234.mp4	0.0	259.3779139518738	2.5084400177001953
18	49.899466037750244	fix_post	2		12.0	16.0	2.5	/experiments/knapen_aot/videos/S_yt-Jro_TRE8NUQ_234.mp4	0.0	261.886353969574	0.09994101524353027
19	49.999407052993774	fix_pre	0		13.0	17.0	2.5	/experiments/knapen_aot/videos/R_S_yt-Tt_LkR4iAt4_11.mp4	0.0	261.9862949848175	0.10825800895690918
19	50.099518060684204	response	0	2		17.0	2.5	/experiments/knapen_aot/videos/R_S_yt-Tt_LkR4iAt4_11.mp4	0.0	262.08640599250793	
19	50.107665061950684	movie	1		301.0	17.0	2.5	/experiments/knapen_aot/videos/R_S_yt-Tt_LkR4iAt4_11.mp4	0.0	262.0945529937744	2.5084168910980225
19	52.616081953048706	fix_post	2		12.0	17.0	2.5	/experiments/knapen_aot/videos/R_S_yt-Tt_LkR4iAt4_11.mp4	0.0	264.60296988487244	0.09998416900634766
20	52.716066122055054	fix_pre	0		27.0	18.0	2.5	/experiments/knapen_aot/videos/R_S_yt-RlHmMGUjT9E_130.mp4	0.0	264.7029540538788	0.22492098808288574
20	52.93310213088989	response	0	2		18.0	2.5	/experiments/knapen_aot/videos/R_S_yt-RlHmMGUjT9E_130.mp4	0.0	264.9199900627136	
20	52.94098711013794	movie	1		301.0	18.0	2.5	/experiments/knapen_aot/videos/R_S_yt-RlHmMGUjT9E_130.mp4	0.0	264.92787504196167	2.508443832397461
20	55.4494309425354	fix_post	2		12.0	18.0	2.5	/experiments/knapen_aot/videos/R_S_yt-RlHmMGUjT9E_130.mp4	0.0	267.43631887435913	0.09994006156921387
21	55.549371004104614	fix_pre	0		32.0	19.0	2.5	blank	1.0	267.53625893592834	0.2666950225830078
21	55.80779194831848	response	0	2		19.0	2.5	blank	1.0	267.7946798801422	
21	55.81606602668762	movie	1		301.0	19.0	2.5	blank	1.0	267.80295395851135	2.5082640647888184
21	58.32433009147644	fix_post	2		12.0	19.0	2.5	blank	1.0	270.31121802330017	0.10003900527954102
22	58.42436909675598	fix_pre	0		13.0	20.0	2.5	/experiments/knapen_aot/videos/R_S_yt-SGTgMItFkxY_172.mp4	0.0	270.4112570285797	0.10836195945739746
22	58.52445411682129	response	0	2		20.0	2.5	/experiments/knapen_aot/videos/R_S_yt-SGTgMItFkxY_172.mp4	0.0	270.511342048645	
22	58.53273105621338	movie	1		301.0	20.0	2.5	/experiments/knapen_aot/videos/R_S_yt-SGTgMItFkxY_172.mp4	0.0	270.5196189880371	2.508342981338501
22	61.04107403755188	fix_post	2		12.0	20.0	2.5	/experiments/knapen_aot/videos/R_S_yt-SGTgMItFkxY_172.mp4	0.0	273.0279619693756	0.099945068359375
23	61.141019105911255	fix_pre	0		32.0	21.0	2.5	/experiments/knapen_aot/videos/S_yt-s-J3C6e5A3Q_18.mp4	0.0	273.127907037735	0.26660680770874023
23	61.399441957473755	response	0	2		21.0	2.5	/experiments/knapen_aot/videos/S_yt-s-J3C6e5A3Q_18.mp4	0.0	273.3863298892975	
23	61.407625913619995	movie	1		301.0	21.0	2.5	/experiments/knapen_aot/videos/S_yt-s-J3C6e5A3Q_18.mp4	0.0	273.3945138454437	2.5083580017089844
23	63.91598391532898	fix_post	2		12.0	21.0	2.5	/experiments/knapen_aot/videos/S_yt-s-J3C6e5A3Q_18.mp4	0.0	275.9028718471527	0.099945068359375
23	63.93276596069336	response	2	2		21.0	2.5	/experiments/knapen_aot/videos/S_yt-s-J3C6e5A3Q_18.mp4	0.0	275.9196538925171	
24	64.01592898368835	fix_pre	0		44.0	22.0	2.5	/experiments/knapen_aot/videos/R_S_yt-mWlx1SIXl5M_850.mp4	0.0	276.0028169155121	0.3666689395904541
24	64.37438702583313	response	0	2		22.0	2.5	/experiments/knapen_aot/videos/R_S_yt-mWlx1SIXl5M_850.mp4	0.0	276.36127495765686	
24	64.38259792327881	movie	1		301.0	22.0	2.5	/experiments/knapen_aot/videos/R_S_yt-mWlx1SIXl5M_850.mp4	0.0	276.36948585510254	2.508465051651001
24	66.89106297492981	fix_post	2		12.0	22.0	2.5	/experiments/knapen_aot/videos/R_S_yt-mWlx1SIXl5M_850.mp4	0.0	278.87795090675354	0.0999460220336914
25	66.9910089969635	fix_pre	0		35.0	23.0	2.5	/experiments/knapen_aot/videos/S_production_ID_4802710.mp4	0.0	278.97789692878723	0.29157495498657227
25	67.27445912361145	response	0	2		23.0	2.5	/experiments/knapen_aot/videos/S_production_ID_4802710.mp4	0.0	279.2613470554352	
25	67.28258395195007	movie	1		165.0	23.0	2.5	/experiments/knapen_aot/videos/S_production_ID_4802710.mp4	0.0	279.2694718837738	2.5084991455078125
25	69.48969507217407	response	1	2		23.0	2.5	/experiments/knapen_aot/videos/S_production_ID_4802710.mp4	0.0	281.4765830039978	
25	69.79108309745789	fix_post	2		12.0	23.0	2.5	/experiments/knapen_aot/videos/S_production_ID_4802710.mp4	0.0	281.7779710292816	0.09989500045776367
26	69.89097809791565	fix_pre	0		27.0	24.0	2.5	/experiments/knapen_aot/videos/S_yt-PRqnM7xDsus_24.mp4	0.0	281.8778660297394	0.2249279022216797
26	70.10768008232117	response	0	2		24.0	2.5	/experiments/knapen_aot/videos/S_yt-PRqnM7xDsus_24.mp4	0.0	282.0945680141449	
26	70.11590600013733	movie	1		301.0	24.0	2.5	/experiments/knapen_aot/videos/S_yt-PRqnM7xDsus_24.mp4	0.0	282.10279393196106	2.5083940029144287
26	72.62430000305176	fix_post	2		12.0	24.0	2.5	/experiments/knapen_aot/videos/S_yt-PRqnM7xDsus_24.mp4	0.0	284.6111879348755	0.09998512268066406
27	72.72428512573242	fix_pre	0		16.0	25.0	2.5	/experiments/knapen_aot/videos/R_S_yt-roThCERxVCs_133.mp4	0.0	284.71117305755615	0.1333179473876953
27	72.84939193725586	response	0	2		25.0	2.5	/experiments/knapen_aot/videos/R_S_yt-roThCERxVCs_133.mp4	0.0	284.8362798690796	
27	72.85760307312012	movie	1		301.0	25.0	2.5	/experiments/knapen_aot/videos/R_S_yt-roThCERxVCs_133.mp4	0.0	284.84449100494385	2.5083420276641846
27	75.3659451007843	fix_post	2		12.0	25.0	2.5	/experiments/knapen_aot/videos/R_S_yt-roThCERxVCs_133.mp4	0.0	287.35283303260803	0.10013103485107422
27	75.3676450252533	response	2	2		25.0	2.5	/experiments/knapen_aot/videos/R_S_yt-roThCERxVCs_133.mp4	0.0	287.354532957077	
28	75.46607613563538	fix_pre	0		44.0	26.0	2.5	blank	1.0	287.4529640674591	0.3665158748626709
28	75.82431507110596	response	0	2		26.0	2.5	blank	1.0	287.8112030029297	
28	75.83259201049805	movie	1		301.0	26.0	2.5	blank	1.0	287.8194799423218	2.508362054824829
28	76.63265609741211	response	1	2		26.0	2.5	blank	1.0	288.61954402923584	
28	77.8993411064148	response	1	2		26.0	2.5	blank	1.0	289.8862290382385	
28	78.34095406532288	fix_post	2		12.0	26.0	2.5	blank	1.0	290.3278419971466	0.09995794296264648
29	78.44091200828552	fix_pre	0		54.0	27.0	2.5	/experiments/knapen_aot/videos/R_S_yt-y6zr69M0yHI_76.mp4	0.0	290.42779994010925	0.4511430263519287
29	78.88281798362732	response	0	2		27.0	2.5	/experiments/knapen_aot/videos/R_S_yt-y6zr69M0yHI_76.mp4	0.0	290.86970591545105	
29	78.89205503463745	movie	1		301.0	27.0	2.5	/experiments/knapen_aot/videos/R_S_yt-y6zr69M0yHI_76.mp4	0.0	290.8789429664612	2.5072360038757324
29	81.39929103851318	fix_post	2		12.0	27.0	2.5	/experiments/knapen_aot/videos/R_S_yt-y6zr69M0yHI_76.mp4	0.0	293.3861789703369	0.09996795654296875
30	81.49925899505615	fix_pre	0		20.0	28.0	2.5	/experiments/knapen_aot/videos/S_yt-OLDm2slgfA4_3.mp4	0.0	293.4861469268799	0.16657805442810059
30	81.65767002105713	response	0	2		28.0	2.5	/experiments/knapen_aot/videos/S_yt-OLDm2slgfA4_3.mp4	0.0	293.64455795288086	
30	81.66583704948425	movie	1		301.0	28.0	2.5	/experiments/knapen_aot/videos/S_yt-OLDm2slgfA4_3.mp4	0.0	293.652724981308	2.508436918258667
30	84.17427396774292	fix_post	2		12.0	28.0	2.5	/experiments/knapen_aot/videos/S_yt-OLDm2slgfA4_3.mp4	0.0	296.16116189956665	0.09997916221618652
31	84.2742531299591	fix_pre	0		37.0	29.0	2.5	/experiments/knapen_aot/videos/R_S_production_ID_5144823.mp4	0.0	296.26114106178284	0.3082900047302246
31	84.57440209388733	response	0	2		29.0	2.5	/experiments/knapen_aot/videos/R_S_production_ID_5144823.mp4	0.0	296.56129002571106	
31	84.58254313468933	movie	1		165.0	29.0	2.5	/experiments/knapen_aot/videos/R_S_production_ID_5144823.mp4	0.0	296.56943106651306	2.508340835571289
31	87.09088397026062	fix_post	2		12.0	29.0	2.5	/experiments/knapen_aot/videos/R_S_production_ID_5144823.mp4	0.0	299.07777190208435	0.10006594657897949
32	87.1909499168396	fix_pre	0		18.0	30.0	2.5	/experiments/knapen_aot/videos/R_S_yt-BW6jWEVbxxk_4.mp4	0.0	299.17783784866333	0.14994502067565918
32	87.33267903327942	response	0	2		30.0	2.5	/experiments/knapen_aot/videos/R_S_yt-BW6jWEVbxxk_4.mp4	0.0	299.31956696510315	
32	87.34089493751526	movie	1		301.0	30.0	2.5	/experiments/knapen_aot/videos/R_S_yt-BW6jWEVbxxk_4.mp4	0.0	299.327782869339	2.5083491802215576
32	89.84924411773682	fix_post	2		12.0	30.0	2.5	/experiments/knapen_aot/videos/R_S_yt-BW6jWEVbxxk_4.mp4	0.0	301.83613204956055	0.09993100166320801
33	89.94917511940002	fix_pre	0		11.0	31.0	2.5	/experiments/knapen_aot/videos/R_S_comp_LW_L001_C006_PSNK_DENOISE_v02_SDR_PS_FINAL_20180709_SDR_2K_AVC.mp4	0.0	301.93606305122375	0.09166383743286133
33	90.03264713287354	response	0	2		31.0	2.5	/experiments/knapen_aot/videos/R_S_comp_LW_L001_C006_PSNK_DENOISE_v02_SDR_PS_FINAL_20180709_SDR_2K_AVC.mp4	0.0	302.01953506469727	
33	90.04083895683289	movie	1		165.0	31.0	2.5	/experiments/knapen_aot/videos/R_S_comp_LW_L001_C006_PSNK_DENOISE_v02_SDR_PS_FINAL_20180709_SDR_2K_AVC.mp4	0.0	302.0277268886566	2.5084071159362793
33	91.94106411933899	response	1	2		31.0	2.5	/experiments/knapen_aot/videos/R_S_comp_LW_L001_C006_PSNK_DENOISE_v02_SDR_PS_FINAL_20180709_SDR_2K_AVC.mp4	0.0	303.9279520511627	
33	92.54924607276917	fix_post	2		12.0	31.0	2.5	/experiments/knapen_aot/videos/R_S_comp_LW_L001_C006_PSNK_DENOISE_v02_SDR_PS_FINAL_20180709_SDR_2K_AVC.mp4	0.0	304.5361340045929	0.10000801086425781
34	92.64925408363342	fix_pre	0		24.0	32.0	2.5	/experiments/knapen_aot/videos/S_yt-kA0ybjmoiMc_284.mp4	0.0	304.63614201545715	0.20096492767333984
34	92.84102892875671	response	0	2		32.0	2.5	/experiments/knapen_aot/videos/S_yt-kA0ybjmoiMc_284.mp4	0.0	304.82791686058044	
34	92.85021901130676	movie	1		301.0	32.0	2.5	/experiments/knapen_aot/videos/S_yt-kA0ybjmoiMc_284.mp4	0.0	304.8371069431305	2.5074820518493652
34	95.35770106315613	fix_post	2		12.0	32.0	2.5	/experiments/knapen_aot/videos/S_yt-kA0ybjmoiMc_284.mp4	0.0	307.34458899497986	0.09986591339111328
35	95.45756697654724	fix_pre	0		31.0	33.0	2.5	blank	1.0	307.444454908371	0.2582969665527344
35	95.70018601417542	response	0	2		33.0	2.5	blank	1.0	307.68707394599915	
35	95.71586394309998	movie	1		301.0	33.0	2.5	blank	1.0	307.7027518749237	2.5083420276641846
35	98.22420597076416	fix_post	2		12.0	33.0	2.5	blank	1.0	310.2110939025879	0.09992694854736328
36	98.32413291931152	fix_pre	0		59.0	34.0	2.5	/experiments/knapen_aot/videos/R_S_wc-6or3Gl2Fif0m_13.mp4	0.0	310.31102085113525	0.4916880130767822
36	98.80758500099182	response	0	2		34.0	2.5	/experiments/knapen_aot/videos/R_S_wc-6or3Gl2Fif0m_13.mp4	0.0	310.79447293281555	
36	98.8158209323883	movie	1		168.0	34.0	2.5	/experiments/knapen_aot/videos/R_S_wc-6or3Gl2Fif0m_13.mp4	0.0	310.80270886421204	2.5084261894226074
36	101.32424712181091	fix_post	2		12.0	34.0	2.5	/experiments/knapen_aot/videos/R_S_wc-6or3Gl2Fif0m_13.mp4	0.0	313.31113505363464	0.0999898910522461
37	101.42423701286316	fix_pre	0		44.0	35.0	2.5	/experiments/knapen_aot/videos/S_yt-BDCyXL5e9S4_223.mp4	0.0	313.4111249446869	0.36653900146484375
37	101.7826280593872	response	0	2		35.0	2.5	/experiments/knapen_aot/videos/S_yt-BDCyXL5e9S4_223.mp4	0.0	313.76951599121094	
37	101.790776014328	movie	1		301.0	35.0	2.5	/experiments/knapen_aot/videos/S_yt-BDCyXL5e9S4_223.mp4	0.0	313.77766394615173	2.508436918258667
37	104.29921293258667	fix_post	2		12.0	35.0	2.5	/experiments/knapen_aot/videos/S_yt-BDCyXL5e9S4_223.mp4	0.0	316.2861008644104	0.09998512268066406
38	104.39919805526733	fix_pre	0		234.0	36.0	2.5	/experiments/knapen_aot/videos/S_yt-LsCCAQ8BRO8_7.mp4	0.0	316.38608598709106	1.9509198665618896
38	106.340980052948	response	0	2		36.0	2.5	/experiments/knapen_aot/videos/S_yt-LsCCAQ8BRO8_7.mp4	0.0	318.32786798477173	
38	106.35011792182922	movie	1		301.0	36.0	2.5	/experiments/knapen_aot/videos/S_yt-LsCCAQ8BRO8_7.mp4	0.0	318.33700585365295	2.5074121952056885
38	108.85753011703491	fix_post	2		12.0	36.0	2.5	/experiments/knapen_aot/videos/S_yt-LsCCAQ8BRO8_7.mp4	0.0	320.84441804885864	0.09993600845336914
39	108.95746612548828	fix_pre	0		120.0	37.0	2.5	/experiments/knapen_aot/videos/S_yt-wVMhACNFF-M_154.mp4	0.0	320.944354057312	0.9999477863311768
39	109.94927406311035	response	0	2		37.0	2.5	/experiments/knapen_aot/videos/S_yt-wVMhACNFF-M_154.mp4	0.0	321.9361619949341	
39	109.95741391181946	movie	1		301.0	37.0	2.5	/experiments/knapen_aot/videos/S_yt-wVMhACNFF-M_154.mp4	0.0	321.9443018436432	2.5084900856018066
39	112.46590399742126	fix_post	2		12.0	37.0	2.5	/experiments/knapen_aot/videos/S_yt-wVMhACNFF-M_154.mp4	0.0	324.452791929245	0.09997105598449707
40	112.56587505340576	fix_pre	0		57.0	38.0	2.5	/experiments/knapen_aot/videos/S_yt-o_Hakzj8PRg_2864.mp4	0.0	324.5527629852295	0.4749150276184082
40	113.03260493278503	response	0	2		38.0	2.5	/experiments/knapen_aot/videos/S_yt-o_Hakzj8PRg_2864.mp4	0.0	325.01949286460876	
40	113.04079008102417	movie	1		301.0	38.0	2.5	/experiments/knapen_aot/videos/S_yt-o_Hakzj8PRg_2864.mp4	0.0	325.0276780128479	2.508544921875
40	115.54933500289917	fix_post	2		12.0	38.0	2.5	/experiments/knapen_aot/videos/S_yt-o_Hakzj8PRg_2864.mp4	0.0	327.5362229347229	0.09971404075622559
41	115.6490490436554	fix_pre	0		94.0	39.0	2.5	/experiments/knapen_aot/videos/R_S_g201_CA_A016_C002_SDR_20191114_SDR_2K_AVC.mp4	0.0	327.6359369754791	0.7843599319458008
41	116.41673111915588	response	0	2		39.0	2.5	/experiments/knapen_aot/videos/R_S_g201_CA_A016_C002_SDR_20191114_SDR_2K_AVC.mp4	0.0	328.4036190509796	
41	116.4334089756012	movie	1		165.0	39.0	2.5	/experiments/knapen_aot/videos/R_S_g201_CA_A016_C002_SDR_20191114_SDR_2K_AVC.mp4	0.0	328.4202969074249	2.5073280334472656
41	118.94073700904846	fix_post	2		12.0	39.0	2.5	/experiments/knapen_aot/videos/R_S_g201_CA_A016_C002_SDR_20191114_SDR_2K_AVC.mp4	0.0	330.9276249408722	0.10004496574401855
42	119.04078197479248	fix_pre	0		47.0	40.0	2.5	/experiments/knapen_aot/videos/R_S_yt-4RKOPaRF42o_124.mp4	0.0	331.0276699066162	0.3926069736480713
42	119.4241669178009	response	0	2		40.0	2.5	/experiments/knapen_aot/videos/R_S_yt-4RKOPaRF42o_124.mp4	0.0	331.41105484962463	
42	119.43338894844055	movie	1		301.0	40.0	2.5	/experiments/knapen_aot/videos/R_S_yt-4RKOPaRF42o_124.mp4	0.0	331.4202768802643	2.507622003555298
42	121.94101095199585	fix_post	2		12.0	40.0	2.5	/experiments/knapen_aot/videos/R_S_yt-4RKOPaRF42o_124.mp4	0.0	333.9278988838196	0.09978795051574707
43	122.0407989025116	fix_pre	0		27.0	41.0	2.5	blank	1.0	334.0276868343353	0.2249760627746582
43	122.25757598876953	response	0	2		41.0	2.5	blank	1.0	334.24446392059326	
43	122.26577496528625	movie	1		301.0	41.0	2.5	blank	1.0	334.25266289711	2.5084850788116455
43	124.72414112091064	response	1	2		41.0	2.5	blank	1.0	336.7110290527344	
43	124.7742600440979	fix_post	2		12.0	41.0	2.5	blank	1.0	336.76114797592163	0.09992790222167969
44	124.87418794631958	fix_pre	0		39.0	42.0	2.5	/experiments/knapen_aot/videos/S_yt-GO26QIueqRw_385.mp4	0.0	336.8610758781433	0.32483911514282227
44	125.19080209732056	response	0	2		42.0	2.5	/experiments/knapen_aot/videos/S_yt-GO26QIueqRw_385.mp4	0.0	337.1776900291443	
44	125.1990270614624	movie	1		301.0	42.0	2.5	/experiments/knapen_aot/videos/S_yt-GO26QIueqRw_385.mp4	0.0	337.18591499328613	2.5083699226379395
44	126.88247990608215	response	1	2		42.0	2.5	/experiments/knapen_aot/videos/S_yt-GO26QIueqRw_385.mp4	0.0	338.8693678379059	
44	127.70739698410034	fix_post	2		12.0	42.0	2.5	/experiments/knapen_aot/videos/S_yt-GO26QIueqRw_385.mp4	0.0	339.6942849159241	0.10002803802490234
45	127.80742502212524	fix_pre	0		232.0	43.0	2.5	/experiments/knapen_aot/videos/S_yt-isJga8ec5UM_32.mp4	0.0	339.794312953949	1.9332199096679688
45	129.73252701759338	response	0	2		43.0	2.5	/experiments/knapen_aot/videos/S_yt-isJga8ec5UM_32.mp4	0.0	341.7194149494171	
45	129.7406449317932	movie	1		301.0	43.0	2.5	/experiments/knapen_aot/videos/S_yt-isJga8ec5UM_32.mp4	0.0	341.72753286361694	2.5086870193481445
45	132.24933195114136	fix_post	2		12.0	43.0	2.5	/experiments/knapen_aot/videos/S_yt-isJga8ec5UM_32.mp4	0.0	344.2362198829651	0.09970402717590332
46	132.34903597831726	fix_pre	0		47.0	44.0	2.5	/experiments/knapen_aot/videos/R_S_X-D3lUv-atE_376.mp4	0.0	344.335923910141	0.39160704612731934
46	132.7325119972229	response	0	2		44.0	2.5	/experiments/knapen_aot/videos/R_S_X-D3lUv-atE_376.mp4	0.0	344.71939992904663	
46	132.74064302444458	movie	1		301.0	44.0	2.5	/experiments/knapen_aot/videos/R_S_X-D3lUv-atE_376.mp4	0.0	344.7275309562683	2.508470058441162
46	135.24911308288574	fix_post	2		12.0	44.0	2.5	/experiments/knapen_aot/videos/R_S_X-D3lUv-atE_376.mp4	0.0	347.2360010147095	0.0998539924621582
47	135.3489670753479	fix_pre	0		93.0	45.0	2.5	/experiments/knapen_aot/videos/S_yt-_BvMLZo0MG0_1226.mp4	0.0	347.33585500717163	0.7749879360198975
47	136.11578702926636	response	0	2		45.0	2.5	/experiments/knapen_aot/videos/S_yt-_BvMLZo0MG0_1226.mp4	0.0	348.1026749610901	
47	136.1239550113678	movie	1		300.0	45.0	2.5	/experiments/knapen_aot/videos/S_yt-_BvMLZo0MG0_1226.mp4	0.0	348.1108429431915	2.50848388671875
47	138.224937915802	response	1	2		45.0	2.5	/experiments/knapen_aot/videos/S_yt-_BvMLZo0MG0_1226.mp4	0.0	350.21182584762573	
47	138.63243889808655	fix_post	2		12.0	45.0	2.5	/experiments/knapen_aot/videos/S_yt-_BvMLZo0MG0_1226.mp4	0.0	350.6193268299103	0.09995412826538086
48	138.73239302635193	fix_pre	0		74.0	46.0	2.5	/experiments/knapen_aot/videos/R_S_yt-xqjVM0Vj4mI_161.mp4	0.0	350.71928095817566	0.6174459457397461
48	139.34080910682678	response	0	2		46.0	2.5	/experiments/knapen_aot/videos/R_S_yt-xqjVM0Vj4mI_161.mp4	0.0	351.3276970386505	
48	139.34983897209167	movie	1		301.0	46.0	2.5	/experiments/knapen_aot/videos/R_S_yt-xqjVM0Vj4mI_161.mp4	0.0	351.3367269039154	2.5075831413269043
48	141.85742211341858	fix_post	2		12.0	46.0	2.5	/experiments/knapen_aot/videos/R_S_yt-xqjVM0Vj4mI_161.mp4	0.0	353.8443100452423	0.09993481636047363
49	141.95735692977905	fix_pre	0		163.0	47.0	2.5	blank	1.0	353.9442448616028	1.3584470748901367
49	143.30750012397766	response	0	2		47.0	2.5	blank	1.0	355.2943880558014	
49	143.3158040046692	movie	1		301.0	47.0	2.5	blank	1.0	355.3026919364929	2.5082409381866455
49	145.82404494285583	fix_post	2		12.0	47.0	2.5	blank	1.0	357.81093287467957	0.09993314743041992
50	145.92397809028625	fix_pre	0		38.0	48.0	2.5	/experiments/knapen_aot/videos/S_yt-iAQ98zgVlds_97.mp4	0.0	357.91086602211	0.31665682792663574
50	146.23264408111572	response	0	2		48.0	2.5	/experiments/knapen_aot/videos/S_yt-iAQ98zgVlds_97.mp4	0.0	358.21953201293945	
50	146.2406349182129	movie	1		301.0	48.0	2.5	/experiments/knapen_aot/videos/S_yt-iAQ98zgVlds_97.mp4	0.0	358.2275228500366	2.508484125137329
50	148.74911904335022	fix_post	2		12.0	48.0	2.5	/experiments/knapen_aot/videos/S_yt-iAQ98zgVlds_97.mp4	0.0	360.73600697517395	0.09995293617248535
51	148.8490719795227	fix_pre	0		79.0	49.0	2.5	/experiments/knapen_aot/videos/R_S_yt-eLQydFSMGCU_75.mp4	0.0	360.83595991134644	0.658376932144165
51	149.49913907051086	response	0	2		49.0	2.5	/experiments/knapen_aot/videos/R_S_yt-eLQydFSMGCU_75.mp4	0.0	361.4860270023346	
51	149.50744891166687	movie	1		301.0	49.0	2.5	/experiments/knapen_aot/videos/R_S_yt-eLQydFSMGCU_75.mp4	0.0	361.4943368434906	2.5081841945648193
51	151.14147400856018	response	1	2		49.0	2.5	/experiments/knapen_aot/videos/R_S_yt-eLQydFSMGCU_75.mp4	0.0	363.1283619403839	
51	152.0156331062317	fix_post	2		12.0	49.0	2.5	/experiments/knapen_aot/videos/R_S_yt-eLQydFSMGCU_75.mp4	0.0	364.0025210380554	0.09996390342712402
52	152.1155970096588	fix_pre	0		32.0	50.0	2.5	/experiments/knapen_aot/videos/R_S_yt-lGQ3wMI5-Yg_140.mp4	0.0	364.10248494148254	0.26668691635131836
52	152.3664629459381	response	0	2		50.0	2.5	/experiments/knapen_aot/videos/R_S_yt-lGQ3wMI5-Yg_140.mp4	0.0	364.35335087776184	
52	152.38228392601013	movie	1		301.0	50.0	2.5	/experiments/knapen_aot/videos/R_S_yt-lGQ3wMI5-Yg_140.mp4	0.0	364.36917185783386	2.508336067199707
52	154.89061999320984	fix_post	2		12.0	50.0	2.5	/experiments/knapen_aot/videos/R_S_yt-lGQ3wMI5-Yg_140.mp4	0.0	366.87750792503357	0.10006093978881836
53	154.99068093299866	fix_pre	0		42.0	51.0	2.5	/experiments/knapen_aot/videos/S_yt-xvIZtEVkebk_462.mp4	0.0	366.9775688648224	0.3498420715332031
53	155.32479000091553	response	0	2		51.0	2.5	/experiments/knapen_aot/videos/S_yt-xvIZtEVkebk_462.mp4	0.0	367.31167793273926	
53	155.34052300453186	movie	1		301.0	51.0	2.5	/experiments/knapen_aot/videos/S_yt-xvIZtEVkebk_462.mp4	0.0	367.3274109363556	2.5084259510040283
53	157.8489489555359	fix_post	2		12.0	51.0	2.5	/experiments/knapen_aot/videos/S_yt-xvIZtEVkebk_462.mp4	0.0	369.8358368873596	0.09997296333312988
54	157.94892191886902	fix_pre	0		132.0	52.0	2.5	/experiments/knapen_aot/videos/S_yt-EAMpitsjbbA_153.mp4	0.0	369.93580985069275	1.0999481678009033
54	159.04068994522095	response	0	2		52.0	2.5	/experiments/knapen_aot/videos/S_yt-EAMpitsjbbA_153.mp4	0.0	371.0275778770447	
54	159.04887008666992	movie	1		301.0	52.0	2.5	/experiments/knapen_aot/videos/S_yt-EAMpitsjbbA_153.mp4	0.0	371.03575801849365	2.5083889961242676
54	161.5572590827942	fix_post	2		12.0	52.0	2.5	/experiments/knapen_aot/videos/S_yt-EAMpitsjbbA_153.mp4	0.0	373.5441470146179	0.0999908447265625
55	161.65724992752075	fix_pre	0		37.0	53.0	2.5	/experiments/knapen_aot/videos/R_S_flickr-53807584@N00-5565833509_7.mp4	0.0	373.6441378593445	0.30826807022094727
55	161.95726990699768	response	0	2		53.0	2.5	/experiments/knapen_aot/videos/R_S_flickr-53807584@N00-5565833509_7.mp4	0.0	373.9441578388214	
55	161.9655179977417	movie	1		301.0	53.0	2.5	/experiments/knapen_aot/videos/R_S_flickr-53807584@N00-5565833509_7.mp4	0.0	373.95240592956543	2.5083789825439453
55	164.47389698028564	fix_post	2		12.0	53.0	2.5	/experiments/knapen_aot/videos/R_S_flickr-53807584@N00-5565833509_7.mp4	0.0	376.4607849121094	0.10001707077026367
56	164.5739140510559	fix_pre	0		294.0	54.0	2.5	/experiments/knapen_aot/videos/R_S_yt-XYULt48onn4_6.mp4	0.0	376.56080198287964	2.449920892715454
56	167.0081651210785	response	0	2		54.0	2.5	/experiments/knapen_aot/videos/R_S_yt-XYULt48onn4_6.mp4	0.0	378.9950530529022	
56	167.02383494377136	movie	1		301.0	54.0	2.5	/experiments/knapen_aot/videos/R_S_yt-XYULt48onn4_6.mp4	0.0	379.0107228755951	2.5084149837493896
56	169.53224992752075	fix_post	2		12.0	54.0	2.5	/experiments/knapen_aot/videos/R_S_yt-XYULt48onn4_6.mp4	0.0	381.5191378593445	0.09992718696594238
57	169.6321771144867	fix_pre	0		64.0	55.0	2.5	blank	1.0	381.6190650463104	0.5333139896392822
57	170.15737795829773	response	0	2		55.0	2.5	blank	1.0	382.14426589012146	
57	170.16549110412598	movie	1		301.0	55.0	2.5	blank	1.0	382.1523790359497	2.5083909034729004
57	172.19889211654663	response	1	2		55.0	2.5	blank	1.0	384.18578004837036	
57	172.67388200759888	fix_post	2		12.0	55.0	2.5	blank	1.0	384.6607699394226	0.09999489784240723
58	172.77387690544128	fix_pre	0		83.0	56.0	2.5	/experiments/knapen_aot/videos/R_S_yt-_BvMLZo0MG0_1226.mp4	0.0	384.760764837265	0.6915791034698486
58	173.45731496810913	response	0	2		56.0	2.5	/experiments/knapen_aot/videos/R_S_yt-_BvMLZo0MG0_1226.mp4	0.0	385.44420289993286	
58	173.46545600891113	movie	1		301.0	56.0	2.5	/experiments/knapen_aot/videos/R_S_yt-_BvMLZo0MG0_1226.mp4	0.0	385.45234394073486	2.5084590911865234
58	175.97391510009766	fix_post	2		12.0	56.0	2.5	/experiments/knapen_aot/videos/R_S_yt-_BvMLZo0MG0_1226.mp4	0.0	387.9608030319214	0.09998297691345215
59	176.0738980770111	fix_pre	0		75.0	57.0	2.5	/experiments/knapen_aot/videos/R_S_G010_C026_UHD_SDR_v02_2K_AVC.mp4	0.0	388.06078600883484	0.6249589920043945
59	176.69068002700806	response	0	2		57.0	2.5	/experiments/knapen_aot/videos/R_S_G010_C026_UHD_SDR_v02_2K_AVC.mp4	0.0	388.6775679588318	
59	176.6988570690155	movie	1		177.0	57.0	2.5	/experiments/knapen_aot/videos/R_S_G010_C026_UHD_SDR_v02_2K_AVC.mp4	0.0	388.68574500083923	2.5083060264587402
59	179.20716309547424	fix_post	2		12.0	57.0	2.5	/experiments/knapen_aot/videos/R_S_G010_C026_UHD_SDR_v02_2K_AVC.mp4	0.0	391.194051027298	0.10022497177124023
60	179.30738806724548	fix_pre	0		41.0	58.0	2.5	/experiments/knapen_aot/videos/S_Pz_NXxhQCJc_70.mp4	0.0	391.2942759990692	0.34141087532043457
60	179.64057302474976	response	0	2		58.0	2.5	/experiments/knapen_aot/videos/S_Pz_NXxhQCJc_70.mp4	0.0	391.6274609565735	
60	179.64879894256592	movie	1		301.0	58.0	2.5	/experiments/knapen_aot/videos/S_Pz_NXxhQCJc_70.mp4	0.0	391.63568687438965	2.50835919380188
60	182.1571581363678	fix_post	2		12.0	58.0	2.5	/experiments/knapen_aot/videos/S_Pz_NXxhQCJc_70.mp4	0.0	394.1440460681915	0.10000181198120117
61	182.257159948349	fix_pre	0		192.0	59.0	2.5	/experiments/knapen_aot/videos/S_yt-hHdxZ26SImA_17.mp4	0.0	394.24404788017273	1.5999441146850586
61	183.84899806976318	response	0	2		59.0	2.5	/experiments/knapen_aot/videos/S_yt-hHdxZ26SImA_17.mp4	0.0	395.8358860015869	
61	183.85710406303406	movie	1		301.0	59.0	2.5	/experiments/knapen_aot/videos/S_yt-hHdxZ26SImA_17.mp4	0.0	395.8439919948578	2.5083889961242676
61	186.20719003677368	response	1	2		59.0	2.5	/experiments/knapen_aot/videos/S_yt-hHdxZ26SImA_17.mp4	0.0	398.1940779685974	
61	186.36549305915833	fix_post	2		12.0	59.0	2.5	/experiments/knapen_aot/videos/S_yt-hHdxZ26SImA_17.mp4	0.0	398.35238099098206	0.1001739501953125
62	186.46566700935364	fix_pre	0		29.0	60.0	2.5	/experiments/knapen_aot/videos/R_S_ILSVRC2015_train_00441000.mp4	0.0	398.45255494117737	0.24160003662109375
62	186.69905400276184	response	0	2		60.0	2.5	/experiments/knapen_aot/videos/R_S_ILSVRC2015_train_00441000.mp4	0.0	398.68594193458557	
62	186.70726704597473	movie	1		301.0	60.0	2.5	/experiments/knapen_aot/videos/R_S_ILSVRC2015_train_00441000.mp4	0.0	398.69415497779846	2.508178949356079
62	189.2154459953308	fix_post	2		12.0	60.0	2.5	/experiments/knapen_aot/videos/R_S_ILSVRC2015_train_00441000.mp4	0.0	401.20233392715454	0.09996294975280762
62	189.24890995025635	response	2	2		60.0	2.5	/experiments/knapen_aot/videos/R_S_ILSVRC2015_train_00441000.mp4	0.0	401.2357978820801	
63	189.31540894508362	fix_pre	0		50.0	61.0	2.5	blank	1.0	401.30229687690735	0.416733980178833
63	189.72385501861572	response	0	2		61.0	2.5	blank	1.0	401.71074295043945	
63	189.73214292526245	movie	1		301.0	61.0	2.5	blank	1.0	401.7190308570862	2.508333206176758
63	192.2404761314392	fix_post	2		12.0	61.0	2.5	blank	1.0	404.22736406326294	0.10003495216369629
64	192.3405110836029	fix_pre	0		17.0	62.0	2.5	/experiments/knapen_aot/videos/S_g201_CA_A016_C002_SDR_20191114_SDR_2K_AVC.mp4	0.0	404.32739901542664	0.14154601097106934
64	192.47385597229004	response	0	4		62.0	2.5	/experiments/knapen_aot/videos/S_g201_CA_A016_C002_SDR_20191114_SDR_2K_AVC.mp4	0.0	404.46074390411377	
64	192.48205709457397	movie	1		167.0	62.0	2.5	/experiments/knapen_aot/videos/S_g201_CA_A016_C002_SDR_20191114_SDR_2K_AVC.mp4	0.0	404.4689450263977	2.508384943008423
64	194.9904420375824	fix_post	2		12.0	62.0	2.5	/experiments/knapen_aot/videos/S_g201_CA_A016_C002_SDR_20191114_SDR_2K_AVC.mp4	0.0	406.9773299694061	0.09997892379760742
65	195.09042096138	fix_pre	0		9.0	63.0	2.5	/experiments/knapen_aot/videos/S_yt-SGTgMItFkxY_172.mp4	0.0	407.07730889320374	0.07494306564331055
65	195.157212972641	response	0	4		63.0	2.5	/experiments/knapen_aot/videos/S_yt-SGTgMItFkxY_172.mp4	0.0	407.1441009044647	
65	195.16536402702332	movie	1		301.0	63.0	2.5	/experiments/knapen_aot/videos/S_yt-SGTgMItFkxY_172.mp4	0.0	407.15225195884705	2.5084240436553955
65	197.6737880706787	fix_post	2		12.0	63.0	2.5	/experiments/knapen_aot/videos/S_yt-SGTgMItFkxY_172.mp4	0.0	409.66067600250244	0.10013198852539062
66	197.7739200592041	fix_pre	0		6.0	64.0	2.5	/experiments/knapen_aot/videos/R_S_yt-V_2XgfjJfeQ_67.mp4	0.0	409.76080799102783	0.0497438907623291
66	197.81564903259277	response	0	4		64.0	2.5	/experiments/knapen_aot/videos/R_S_yt-V_2XgfjJfeQ_67.mp4	0.0	409.8025369644165	
66	197.82366394996643	movie	1		301.0	64.0	2.5	/experiments/knapen_aot/videos/R_S_yt-V_2XgfjJfeQ_67.mp4	0.0	409.81055188179016	2.5083751678466797
66	200.3320391178131	fix_post	2		12.0	64.0	2.5	/experiments/knapen_aot/videos/R_S_yt-V_2XgfjJfeQ_67.mp4	0.0	412.31892704963684	0.10015296936035156
67	200.43219208717346	fix_pre	0		23.0	65.0	2.5	/experiments/knapen_aot/videos/S_g201_CA_A016_C002_SDR_20191114_SDR_2K_AVC.mp4	0.0	412.4190800189972	0.19144892692565918
67	200.61555004119873	response	0	4		65.0	2.5	/experiments/knapen_aot/videos/S_g201_CA_A016_C002_SDR_20191114_SDR_2K_AVC.mp4	0.0	412.60243797302246	
67	200.62364101409912	movie	1		169.0	65.0	2.5	/experiments/knapen_aot/videos/S_g201_CA_A016_C002_SDR_20191114_SDR_2K_AVC.mp4	0.0	412.61052894592285	2.508420944213867
67	203.132061958313	fix_post	2		12.0	65.0	2.5	/experiments/knapen_aot/videos/S_g201_CA_A016_C002_SDR_20191114_SDR_2K_AVC.mp4	0.0	415.1189498901367	0.10019516944885254
68	203.23225712776184	fix_pre	0		19.0	66.0	2.5	/experiments/knapen_aot/videos/R_S_video_inspire_oregon_portland_00064.1080-h264.mp4	0.0	415.21914505958557	0.1585838794708252
68	203.38215708732605	response	0	4		66.0	2.5	/experiments/knapen_aot/videos/R_S_video_inspire_oregon_portland_00064.1080-h264.mp4	0.0	415.3690450191498	
68	203.39084100723267	movie	1		170.0	66.0	2.5	/experiments/knapen_aot/videos/R_S_video_inspire_oregon_portland_00064.1080-h264.mp4	0.0	415.3777289390564	2.507888078689575
68	205.89872908592224	fix_post	2		12.0	66.0	2.5	/experiments/knapen_aot/videos/R_S_video_inspire_oregon_portland_00064.1080-h264.mp4	0.0	417.885617017746	0.09991598129272461
68	205.98207998275757	response	2	4		66.0	2.5	/experiments/knapen_aot/videos/R_S_video_inspire_oregon_portland_00064.1080-h264.mp4	0.0	417.9689679145813	
69	205.99864506721497	fix_pre	0		50.0	67.0	2.5	/experiments/knapen_aot/videos/S_yt-EAMpitsjbbA_153.mp4	0.0	417.9855329990387	0.4168999195098877
69	206.40711307525635	response	0	4		67.0	2.5	/experiments/knapen_aot/videos/S_yt-EAMpitsjbbA_153.mp4	0.0	418.3940010070801	
69	206.41554498672485	movie	1		301.0	67.0	2.5	/experiments/knapen_aot/videos/S_yt-EAMpitsjbbA_153.mp4	0.0	418.4024329185486	2.508168935775757
69	208.9237139225006	fix_post	2		12.0	67.0	2.5	/experiments/knapen_aot/videos/S_yt-EAMpitsjbbA_153.mp4	0.0	420.91060185432434	0.0999901294708252
70	209.02370405197144	fix_pre	0		32.0	68.0	2.5	blank	1.0	421.01059198379517	0.2668728828430176
70	209.27464199066162	response	0	4		68.0	2.5	blank	1.0	421.26152992248535	
70	209.29057693481445	movie	1		301.0	68.0	2.5	blank	1.0	421.2774648666382	2.508169174194336
70	211.7987461090088	fix_post	2		12.0	68.0	2.5	blank	1.0	423.7856340408325	0.09990096092224121
71	211.89864706993103	fix_pre	0		32.0	69.0	2.5	/experiments/knapen_aot/videos/R_S_yt-BQixB0mumIk_169.mp4	0.0	423.88553500175476	0.2667088508605957
71	212.15709590911865	response	0	4		69.0	2.5	/experiments/knapen_aot/videos/R_S_yt-BQixB0mumIk_169.mp4	0.0	424.1439838409424	
71	212.16535592079163	movie	1		301.0	69.0	2.5	/experiments/knapen_aot/videos/R_S_yt-BQixB0mumIk_169.mp4	0.0	424.15224385261536	2.50832200050354
71	214.67367792129517	fix_post	2		12.0	69.0	2.5	/experiments/knapen_aot/videos/R_S_yt-BQixB0mumIk_169.mp4	0.0	426.6605658531189	0.09993505477905273
72	214.77361297607422	fix_pre	0		29.0	70.0	2.5	/experiments/knapen_aot/videos/R_S_comp_GL_G010_C006_PSNK_NOSUN_v12_SDR_PS_FINAL_20180709_SDR_2K_AVC.mp4	0.0	426.76050090789795	0.24212908744812012
72	215.0072181224823	response	0	4		70.0	2.5	/experiments/knapen_aot/videos/R_S_comp_GL_G010_C006_PSNK_NOSUN_v12_SDR_PS_FINAL_20180709_SDR_2K_AVC.mp4	0.0	426.99410605430603	
72	215.01574206352234	movie	1		168.0	70.0	2.5	/experiments/knapen_aot/videos/R_S_comp_GL_G010_C006_PSNK_NOSUN_v12_SDR_PS_FINAL_20180709_SDR_2K_AVC.mp4	0.0	427.00262999534607	2.5081288814544678
72	217.47370409965515	response	1	4		70.0	2.5	/experiments/knapen_aot/videos/R_S_comp_GL_G010_C006_PSNK_NOSUN_v12_SDR_PS_FINAL_20180709_SDR_2K_AVC.mp4	0.0	429.4605920314789	
72	217.5238709449768	fix_post	2		12.0	70.0	2.5	/experiments/knapen_aot/videos/R_S_comp_GL_G010_C006_PSNK_NOSUN_v12_SDR_PS_FINAL_20180709_SDR_2K_AVC.mp4	0.0	429.51075887680054	0.09984898567199707
73	217.6237199306488	fix_pre	0		88.0	71.0	2.5	/experiments/knapen_aot/videos/R_S_pexels-cottonbro-6788024.mp4	0.0	429.61060786247253	0.733302116394043
73	218.34872198104858	response	0	4		71.0	2.5	/experiments/knapen_aot/videos/R_S_pexels-cottonbro-6788024.mp4	0.0	430.3356099128723	
73	218.35702204704285	movie	1		196.0	71.0	2.5	/experiments/knapen_aot/videos/R_S_pexels-cottonbro-6788024.mp4	0.0	430.3439099788666	2.5082919597625732
73	220.86531400680542	fix_post	2		12.0	71.0	2.5	/experiments/knapen_aot/videos/R_S_pexels-cottonbro-6788024.mp4	0.0	432.85220193862915	0.10006308555603027
74	220.96537709236145	fix_pre	0		22.0	72.0	2.5	/experiments/knapen_aot/videos/R_S_ILSVRC2015_train_00165008.mp4	0.0	432.9522650241852	0.18325400352478027
74	221.14039206504822	response	0	4		72.0	2.5	/experiments/knapen_aot/videos/R_S_ILSVRC2015_train_00165008.mp4	0.0	433.12727999687195	
74	221.14863109588623	movie	1		301.0	72.0	2.5	/experiments/knapen_aot/videos/R_S_ILSVRC2015_train_00165008.mp4	0.0	433.13551902770996	2.5083348751068115
74	223.65696597099304	fix_post	2		12.0	72.0	2.5	/experiments/knapen_aot/videos/R_S_ILSVRC2015_train_00165008.mp4	0.0	435.6438539028168	0.10009098052978516
75	223.75705695152283	fix_pre	0		29.0	73.0	2.5	/experiments/knapen_aot/videos/R_S_yt-s5YONFy3vb4_46.mp4	0.0	435.74394488334656	0.24148011207580566
75	223.99038100242615	response	0	4		73.0	2.5	/experiments/knapen_aot/videos/R_S_yt-s5YONFy3vb4_46.mp4	0.0	435.9772689342499	
75	223.99853706359863	movie	1		301.0	73.0	2.5	/experiments/knapen_aot/videos/R_S_yt-s5YONFy3vb4_46.mp4	0.0	435.98542499542236	2.5085480213165283
75	226.50708508491516	fix_post	2		12.0	73.0	2.5	/experiments/knapen_aot/videos/R_S_yt-s5YONFy3vb4_46.mp4	0.0	438.4939730167389	0.09988284111022949
76	226.6069679260254	fix_pre	0		19.0	74.0	2.5	/experiments/knapen_aot/videos/S_yt-vQ-rd-1gwH4_238.mp4	0.0	438.5938558578491	0.15860414505004883
76	226.75708508491516	response	0	4		74.0	2.5	/experiments/knapen_aot/videos/S_yt-vQ-rd-1gwH4_238.mp4	0.0	438.7439730167389	
76	226.76557207107544	movie	1		301.0	74.0	2.5	/experiments/knapen_aot/videos/S_yt-vQ-rd-1gwH4_238.mp4	0.0	438.75246000289917	2.508023977279663
76	229.2735960483551	fix_post	2		12.0	74.0	2.5	/experiments/knapen_aot/videos/S_yt-vQ-rd-1gwH4_238.mp4	0.0	441.26048398017883	0.10002803802490234
77	229.37362408638	fix_pre	0		26.0	75.0	2.5	blank	1.0	441.36051201820374	0.21660804748535156
77	229.5820939540863	response	0	4		75.0	2.5	blank	1.0	441.56898188591003	
77	229.59023213386536	movie	1		301.0	75.0	2.5	blank	1.0	441.5771200656891	2.5083279609680176
77	232.09856009483337	fix_post	2		12.0	75.0	2.5	blank	1.0	444.0854480266571	0.10014081001281738
78	232.1987009048462	fix_pre	0		40.0	76.0	2.5	/experiments/knapen_aot/videos/R_S_G009_C014_UHD_SDR_2K_AVC.mp4	0.0	444.1855888366699	0.33322811126708984
78	232.5236930847168	response	0	4		76.0	2.5	/experiments/knapen_aot/videos/R_S_G009_C014_UHD_SDR_2K_AVC.mp4	0.0	444.5105810165405	
78	232.53192901611328	movie	1		188.0	76.0	2.5	/experiments/knapen_aot/videos/R_S_G009_C014_UHD_SDR_2K_AVC.mp4	0.0	444.518816947937	2.5083320140838623
78	234.53210306167603	response	1	4		76.0	2.5	/experiments/knapen_aot/videos/R_S_G009_C014_UHD_SDR_2K_AVC.mp4	0.0	446.51899099349976	
78	235.04026103019714	fix_post	2		12.0	76.0	2.5	/experiments/knapen_aot/videos/R_S_G009_C014_UHD_SDR_2K_AVC.mp4	0.0	447.0271489620209	0.10042190551757812
79	235.14068293571472	fix_pre	0		34.0	77.0	2.5	/experiments/knapen_aot/videos/S_yt-BqJHT4K7Qf8_127.mp4	0.0	447.12757086753845	0.28291916847229004
79	235.41538095474243	response	0	4		77.0	2.5	/experiments/knapen_aot/videos/S_yt-BqJHT4K7Qf8_127.mp4	0.0	447.40226888656616	
79	235.423602104187	movie	1		301.0	77.0	2.5	/experiments/knapen_aot/videos/S_yt-BqJHT4K7Qf8_127.mp4	0.0	447.41049003601074	2.50834584236145
79	237.93194794654846	fix_post	2		12.0	77.0	2.5	/experiments/knapen_aot/videos/S_yt-BqJHT4K7Qf8_127.mp4	0.0	449.9188358783722	0.09999203681945801
80	238.03193998336792	fix_pre	0		22.0	78.0	2.5	/experiments/knapen_aot/videos/R_S_yt-QD74nNliDvI_10.mp4	0.0	450.01882791519165	0.18329405784606934
80	238.20704412460327	response	0	4		78.0	2.5	/experiments/knapen_aot/videos/R_S_yt-QD74nNliDvI_10.mp4	0.0	450.193932056427	
80	238.215234041214	movie	1		301.0	78.0	2.5	/experiments/knapen_aot/videos/R_S_yt-QD74nNliDvI_10.mp4	0.0	450.2021219730377	2.508823871612549
80	240.72405791282654	fix_post	2		12.0	78.0	2.5	/experiments/knapen_aot/videos/R_S_yt-QD74nNliDvI_10.mp4	0.0	452.71094584465027	0.09969711303710938
81	240.82375502586365	fix_pre	0		29.0	79.0	2.5	/experiments/knapen_aot/videos/R_S_yt-qxtmtMnUfD0_124.mp4	0.0	452.8106429576874	0.2415480613708496
81	241.05710291862488	response	0	4		79.0	2.5	/experiments/knapen_aot/videos/R_S_yt-qxtmtMnUfD0_124.mp4	0.0	453.0439908504486	
81	241.0653030872345	movie	1		301.0	79.0	2.5	/experiments/knapen_aot/videos/R_S_yt-qxtmtMnUfD0_124.mp4	0.0	453.0521910190582	2.508302927017212
81	243.44887399673462	response	1	4		79.0	2.5	/experiments/knapen_aot/videos/R_S_yt-qxtmtMnUfD0_124.mp4	0.0	455.43576192855835	
81	243.5736060142517	fix_post	2		12.0	79.0	2.5	/experiments/knapen_aot/videos/R_S_yt-qxtmtMnUfD0_124.mp4	0.0	455.56049394607544	0.10001707077026367
82	243.67362308502197	fix_pre	0		43.0	80.0	2.5	/experiments/knapen_aot/videos/R_S_yt-9Z9-RT-ysEE_85.mp4	0.0	455.6605110168457	0.3582639694213867
82	244.0237090587616	response	0	4		80.0	2.5	/experiments/knapen_aot/videos/R_S_yt-9Z9-RT-ysEE_85.mp4	0.0	456.0105969905853	
82	244.03188705444336	movie	1		301.0	80.0	2.5	/experiments/knapen_aot/videos/R_S_yt-9Z9-RT-ysEE_85.mp4	0.0	456.0187749862671	2.50839900970459
82	245.36526107788086	response	1	4		80.0	2.5	/experiments/knapen_aot/videos/R_S_yt-9Z9-RT-ysEE_85.mp4	0.0	457.3521490097046	
82	246.00234603881836	response	1	4		80.0	2.5	/experiments/knapen_aot/videos/R_S_yt-9Z9-RT-ysEE_85.mp4	0.0	457.9892339706421	
82	246.54028606414795	fix_post	2		12.0	80.0	2.5	/experiments/knapen_aot/videos/R_S_yt-9Z9-RT-ysEE_85.mp4	0.0	458.5271739959717	0.10021305084228516
82	246.58200311660767	response	2	4		80.0	2.5	/experiments/knapen_aot/videos/R_S_yt-9Z9-RT-ysEE_85.mp4	0.0	458.5688910484314	
83	246.64049911499023	fix_pre	0		68.0	81.0	2.5	/experiments/knapen_aot/videos/S_ILSVRC2015_train_00495000.mp4	0.0	458.62738704681396	0.5663678646087646
83	247.1985640525818	response	0	4		81.0	2.5	/experiments/knapen_aot/videos/S_ILSVRC2015_train_00495000.mp4	0.0	459.1854519844055	
83	247.206866979599	movie	1		301.0	81.0	2.5	/experiments/knapen_aot/videos/S_ILSVRC2015_train_00495000.mp4	0.0	459.19375491142273	2.5083680152893066
83	249.7152349948883	fix_post	2		12.0	81.0	2.5	/experiments/knapen_aot/videos/S_ILSVRC2015_train_00495000.mp4	0.0	461.70212292671204	0.09997701644897461
84	249.81521201133728	fix_pre	0		49.0	82.0	2.5	/experiments/knapen_aot/videos/R_S_yt-yQrDeFlFmfM_138.mp4	0.0	461.802099943161	0.4084451198577881
84	250.21534705162048	response	0	4		82.0	2.5	/experiments/knapen_aot/videos/R_S_yt-yQrDeFlFmfM_138.mp4	0.0	462.2022349834442	
84	250.22365713119507	movie	1		301.0	82.0	2.5	/experiments/knapen_aot/videos/R_S_yt-yQrDeFlFmfM_138.mp4	0.0	462.2105450630188	2.5082287788391113
84	252.73188591003418	fix_post	2		12.0	82.0	2.5	/experiments/knapen_aot/videos/R_S_yt-yQrDeFlFmfM_138.mp4	0.0	464.7187738418579	0.09998917579650879
85	252.8318750858307	fix_pre	0		27.0	83.0	2.5	blank	1.0	464.8187630176544	0.22517085075378418
85	253.0486719608307	response	0	4		83.0	2.5	blank	1.0	465.0355598926544	
85	253.05704593658447	movie	1		301.0	83.0	2.5	blank	1.0	465.0439338684082	2.508136034011841
85	255.5651819705963	fix_post	2		12.0	83.0	2.5	blank	1.0	467.55206990242004	0.10004305839538574
87	255.6652250289917	stim	0		290.0					467.65211296081543	2.4195621013641357
87	255.7569329738617	response	0	4						467.7438209056854	
87	258.07762813568115	response	0	space						470.0645160675049	
