trial_nr	onset	event_type	phase	response	nr_frames	movie_index	movie_duration	movie_file	blank	onset_abs	duration
0	0.12534499168395996	stim	0		150.0					62.78906798362732	1.2498619556427002
0	1.3661069869995117	response	0	space						64.02982997894287	
1	1.3752069473266602	stim	0		121.0					64.03892993927002	1.007124900817871
1	2.3823318481445312	stim	1		120.0					65.04605484008789	1.0000801086425781
1	2.7157609462738037	response	1	space						65.37948393821716	
2	3.3824119567871094	fix_pre	0		236.0	0.0	2.5	/experiments/knapen_aot/videos/R_S_comp_DB_D008_C010_PSNK_v21_SDR_PS_20180914_F0F16157_SDR_2K_AVC.mp4	0.0	66.04613494873047	1.966541051864624
2	5.340725898742676	response	0	space		0.0	2.5	/experiments/knapen_aot/videos/R_S_comp_DB_D008_C010_PSNK_v21_SDR_PS_20180914_F0F16157_SDR_2K_AVC.mp4	0.0	68.00444889068604	
2	5.348953008651733	movie	1		169.0	0.0	2.5	/experiments/knapen_aot/videos/R_S_comp_DB_D008_C010_PSNK_v21_SDR_PS_20180914_F0F16157_SDR_2K_AVC.mp4	0.0	68.01267600059509	2.508368968963623
2	7.8573219776153564	fix_post	2		12.0	0.0	2.5	/experiments/knapen_aot/videos/R_S_comp_DB_D008_C010_PSNK_v21_SDR_PS_20180914_F0F16157_SDR_2K_AVC.mp4	0.0	70.52104496955872	0.10001993179321289
3	7.957341909408569	fix_pre	0		519.0	1.0	2.5	/experiments/knapen_aot/videos/S_yt-CRw9-cCQqbg_332.mp4	0.0	70.62106490135193	4.324854135513306
3	12.274230003356934	response	0	2		1.0	2.5	/experiments/knapen_aot/videos/S_yt-CRw9-cCQqbg_332.mp4	0.0	74.9379529953003	
3	12.282196044921875	movie	1		301.0	1.0	2.5	/experiments/knapen_aot/videos/S_yt-CRw9-cCQqbg_332.mp4	0.0	74.94591903686523	2.5084288120269775
3	14.790624856948853	fix_post	2		12.0	1.0	2.5	/experiments/knapen_aot/videos/S_yt-CRw9-cCQqbg_332.mp4	0.0	77.45434784889221	0.0999150276184082
4	14.89053988456726	fix_pre	0		8.0	2.0	2.5	/experiments/knapen_aot/videos/S_yt-LGwEki4ghNw_69.mp4	0.0	77.55426287651062	0.06764698028564453
4	14.949002981185913	response	0	2		2.0	2.5	/experiments/knapen_aot/videos/S_yt-LGwEki4ghNw_69.mp4	0.0	77.61272597312927	
4	14.958186864852905	movie	1		301.0	2.0	2.5	/experiments/knapen_aot/videos/S_yt-LGwEki4ghNw_69.mp4	0.0	77.62190985679626	2.507420063018799
4	17.465606927871704	fix_post	2		12.0	2.0	2.5	/experiments/knapen_aot/videos/S_yt-LGwEki4ghNw_69.mp4	0.0	80.12932991981506	0.09997200965881348
5	17.565578937530518	fix_pre	0		22.0	3.0	2.5	/experiments/knapen_aot/videos/S_comp_GMT060_117NC_363D_1034_AUSTRALIA_v35_SDR_PS_FINAL_20180731_SDR_2K_AVC.mp4	0.0	80.22930192947388	0.1841590404510498
5	17.740736961364746	response	0	2		3.0	2.5	/experiments/knapen_aot/videos/S_comp_GMT060_117NC_363D_1034_AUSTRALIA_v35_SDR_PS_FINAL_20180731_SDR_2K_AVC.mp4	0.0	80.4044599533081	
5	17.749737977981567	movie	1		164.0	3.0	2.5	/experiments/knapen_aot/videos/S_comp_GMT060_117NC_363D_1034_AUSTRALIA_v35_SDR_PS_FINAL_20180731_SDR_2K_AVC.mp4	0.0	80.41346096992493	2.5075199604034424
5	20.25725793838501	fix_post	2		12.0	3.0	2.5	/experiments/knapen_aot/videos/S_comp_GMT060_117NC_363D_1034_AUSTRALIA_v35_SDR_PS_FINAL_20180731_SDR_2K_AVC.mp4	0.0	82.92098093032837	0.10018301010131836
6	20.357440948486328	fix_pre	0		2.0	4.0	2.5	/experiments/knapen_aot/videos/S_pexels-artem-podrez-5457692.mp4	0.0	83.02116394042969	0.01753091812133789
6	20.36577606201172	response	0	2		4.0	2.5	/experiments/knapen_aot/videos/S_pexels-artem-podrez-5457692.mp4	0.0	83.02949905395508	
6	20.374971866607666	movie	1		166.0	4.0	2.5	/experiments/knapen_aot/videos/S_pexels-artem-podrez-5457692.mp4	0.0	83.03869485855103	2.5076401233673096
6	22.882611989974976	fix_post	2		12.0	4.0	2.5	/experiments/knapen_aot/videos/S_pexels-artem-podrez-5457692.mp4	0.0	85.54633498191833	0.09960198402404785
7	22.982213973999023	fix_pre	0		12.0	5.0	2.5	/experiments/knapen_aot/videos/S_yt-V4Oosy-ZtGY_193.mp4	0.0	85.64593696594238	0.10101103782653809
7	23.066468000411987	response	0	2		5.0	2.5	/experiments/knapen_aot/videos/S_yt-V4Oosy-ZtGY_193.mp4	0.0	85.73019099235535	
7	23.08322501182556	movie	1		301.0	5.0	2.5	/experiments/knapen_aot/videos/S_yt-V4Oosy-ZtGY_193.mp4	0.0	85.74694800376892	2.507333993911743
7	25.590559005737305	fix_post	2		12.0	5.0	2.5	/experiments/knapen_aot/videos/S_yt-V4Oosy-ZtGY_193.mp4	0.0	88.25428199768066	0.09996700286865234
8	25.690526008605957	fix_pre	0		23.0	6.0	2.5	blank	1.0	88.35424900054932	0.19165396690368652
8	25.86657404899597	response	0	2		6.0	2.5	blank	1.0	88.53029704093933	
8	25.882179975509644	movie	1		301.0	6.0	2.5	blank	1.0	88.545902967453	2.5083060264587402
8	28.390486001968384	fix_post	2		12.0	6.0	2.5	blank	1.0	91.05420899391174	0.09999299049377441
9	28.490478992462158	fix_pre	0		43.0	7.0	2.5	/experiments/knapen_aot/videos/R_S_yt-OFnDCbW9Ebo_31.mp4	0.0	91.15420198440552	0.3583869934082031
9	28.840578079223633	response	0	2		7.0	2.5	/experiments/knapen_aot/videos/R_S_yt-OFnDCbW9Ebo_31.mp4	0.0	91.50430107116699	
9	28.84886598587036	movie	1		301.0	7.0	2.5	/experiments/knapen_aot/videos/R_S_yt-OFnDCbW9Ebo_31.mp4	0.0	91.51258897781372	2.5083348751068115
9	31.357200860977173	fix_post	2		12.0	7.0	2.5	/experiments/knapen_aot/videos/R_S_yt-OFnDCbW9Ebo_31.mp4	0.0	94.02092385292053	0.09995317459106445
10	31.457154035568237	fix_pre	0		5.0	8.0	2.5	/experiments/knapen_aot/videos/R_S_yt-f9iXELY0EJ0_344.mp4	0.0	94.1208770275116	0.04251599311828613
10	31.48323702812195	response	0	2		8.0	2.5	/experiments/knapen_aot/videos/R_S_yt-f9iXELY0EJ0_344.mp4	0.0	94.14696002006531	
10	31.499670028686523	movie	1		301.0	8.0	2.5	/experiments/knapen_aot/videos/R_S_yt-f9iXELY0EJ0_344.mp4	0.0	94.16339302062988	2.507544994354248
10	34.00721502304077	fix_post	2		12.0	8.0	2.5	/experiments/knapen_aot/videos/R_S_yt-f9iXELY0EJ0_344.mp4	0.0	96.67093801498413	0.10000896453857422
11	34.107223987579346	fix_pre	0		13.0	9.0	2.5	/experiments/knapen_aot/videos/R_S_yt-g_CLzrCYHoc_7.mp4	0.0	96.7709469795227	0.10828208923339844
11	34.20735788345337	response	0	2		9.0	2.5	/experiments/knapen_aot/videos/R_S_yt-g_CLzrCYHoc_7.mp4	0.0	96.87108087539673	
11	34.215506076812744	movie	1		301.0	9.0	2.5	/experiments/knapen_aot/videos/R_S_yt-g_CLzrCYHoc_7.mp4	0.0	96.8792290687561	2.508464813232422
11	36.723970890045166	fix_post	2		12.0	9.0	2.5	/experiments/knapen_aot/videos/R_S_yt-g_CLzrCYHoc_7.mp4	0.0	99.38769388198853	0.0999150276184082
12	36.823885917663574	fix_pre	0		1.0	10.0	2.5	/experiments/knapen_aot/videos/S_Pz_NXxhQCJc_70.mp4	0.0	99.48760890960693	0.009184122085571289
12	36.82566690444946	response	0	2		10.0	2.5	/experiments/knapen_aot/videos/S_Pz_NXxhQCJc_70.mp4	0.0	99.48938989639282	
12	36.833070039749146	movie	1		301.0	10.0	2.5	/experiments/knapen_aot/videos/S_Pz_NXxhQCJc_70.mp4	0.0	99.4967930316925	2.5074620246887207
12	39.340532064437866	fix_post	2		12.0	10.0	2.5	/experiments/knapen_aot/videos/S_Pz_NXxhQCJc_70.mp4	0.0	102.00425505638123	0.10018682479858398
13	39.44071888923645	fix_pre	0		3.0	11.0	2.5	/experiments/knapen_aot/videos/R_S_yt-2WPmM2vIuBE_41.mp4	0.0	102.10444188117981	0.02479410171508789
13	39.449885845184326	response	0	2		11.0	2.5	/experiments/knapen_aot/videos/R_S_yt-2WPmM2vIuBE_41.mp4	0.0	102.11360883712769	
13	39.46551299095154	movie	1		301.0	11.0	2.5	/experiments/knapen_aot/videos/R_S_yt-2WPmM2vIuBE_41.mp4	0.0	102.1292359828949	2.5083439350128174
13	41.973856925964355	fix_post	2		12.0	11.0	2.5	/experiments/knapen_aot/videos/R_S_yt-2WPmM2vIuBE_41.mp4	0.0	104.63757991790771	0.10006999969482422
14	42.07392692565918	fix_pre	0		8.0	12.0	2.5	/experiments/knapen_aot/videos/R_S_yt-h09NHEfoKb0_8.mp4	0.0	104.73764991760254	0.06658101081848145
14	42.13231897354126	response	0	2		12.0	2.5	/experiments/knapen_aot/videos/R_S_yt-h09NHEfoKb0_8.mp4	0.0	104.79604196548462	
14	42.14050793647766	movie	1		301.0	12.0	2.5	/experiments/knapen_aot/videos/R_S_yt-h09NHEfoKb0_8.mp4	0.0	104.80423092842102	2.5083229541778564
14	44.64883089065552	fix_post	2		12.0	12.0	2.5	/experiments/knapen_aot/videos/R_S_yt-h09NHEfoKb0_8.mp4	0.0	107.31255388259888	0.10010218620300293
15	44.74893307685852	fix_pre	0		11.0	13.0	2.5	/experiments/knapen_aot/videos/R_S_ILSVRC2015_train_00001011.mp4	0.0	107.41265606880188	0.09148097038269043
15	44.832249879837036	response	0	2		13.0	2.5	/experiments/knapen_aot/videos/R_S_ILSVRC2015_train_00001011.mp4	0.0	107.4959728717804	
15	44.84041404724121	movie	1		301.0	13.0	2.5	/experiments/knapen_aot/videos/R_S_ILSVRC2015_train_00001011.mp4	0.0	107.50413703918457	2.5083630084991455
15	47.348777055740356	fix_post	2		12.0	13.0	2.5	/experiments/knapen_aot/videos/R_S_ILSVRC2015_train_00001011.mp4	0.0	110.01250004768372	0.10002279281616211
16	47.44879984855652	fix_pre	0		17.0	14.0	2.5	blank	1.0	110.11252284049988	0.14165902137756348
16	47.58221101760864	response	0	2		14.0	2.5	blank	1.0	110.245934009552	
16	47.59045886993408	movie	1		301.0	14.0	2.5	blank	1.0	110.25418186187744	2.508315086364746
16	50.09877395629883	fix_post	2		12.0	14.0	2.5	blank	1.0	112.76249694824219	0.10002398490905762
17	50.198797941207886	fix_pre	0		67.0	15.0	2.5	/experiments/knapen_aot/videos/R_S_yt-fQgLKiz2tuM_14.mp4	0.0	112.86252093315125	0.5583229064941406
17	50.74893403053284	response	0	2		15.0	2.5	/experiments/knapen_aot/videos/R_S_yt-fQgLKiz2tuM_14.mp4	0.0	113.4126570224762	
17	50.757120847702026	movie	1		301.0	15.0	2.5	/experiments/knapen_aot/videos/R_S_yt-fQgLKiz2tuM_14.mp4	0.0	113.42084383964539	2.5083091259002686
17	53.265429973602295	fix_post	2		12.0	15.0	2.5	/experiments/knapen_aot/videos/R_S_yt-fQgLKiz2tuM_14.mp4	0.0	115.92915296554565	0.09997105598449707
18	53.36540102958679	fix_pre	0		14.0	16.0	2.5	/experiments/knapen_aot/videos/R_S_ILSVRC2015_train_00601000.mp4	0.0	116.02912402153015	0.11668992042541504
18	53.47385096549988	response	0	2		16.0	2.5	/experiments/knapen_aot/videos/R_S_ILSVRC2015_train_00601000.mp4	0.0	116.13757395744324	
18	53.48209095001221	movie	1		301.0	16.0	2.5	/experiments/knapen_aot/videos/R_S_ILSVRC2015_train_00601000.mp4	0.0	116.14581394195557	2.5083510875701904
18	55.9904420375824	fix_post	2		12.0	16.0	2.5	/experiments/knapen_aot/videos/R_S_ILSVRC2015_train_00601000.mp4	0.0	118.65416502952576	0.09998488426208496
19	56.09042692184448	fix_pre	0		8.0	17.0	2.5	/experiments/knapen_aot/videos/S_yt-jUGt_Byqczw_599.mp4	0.0	118.75414991378784	0.06665897369384766
19	56.148863077163696	response	0	2		17.0	2.5	/experiments/knapen_aot/videos/S_yt-jUGt_Byqczw_599.mp4	0.0	118.81258606910706	
19	56.15708589553833	movie	1		301.0	17.0	2.5	/experiments/knapen_aot/videos/S_yt-jUGt_Byqczw_599.mp4	0.0	118.82080888748169	2.5083401203155518
19	58.66542601585388	fix_post	2		12.0	17.0	2.5	/experiments/knapen_aot/videos/S_yt-jUGt_Byqczw_599.mp4	0.0	121.32914900779724	0.0999908447265625
20	58.765416860580444	fix_pre	0		18.0	18.0	2.5	/experiments/knapen_aot/videos/S_yt-4r-oovk9JWg_85.mp4	0.0	121.4291398525238	0.15064001083374023
20	58.9072380065918	response	0	2		18.0	2.5	/experiments/knapen_aot/videos/S_yt-4r-oovk9JWg_85.mp4	0.0	121.57096099853516	
20	58.916056871414185	movie	1		301.0	18.0	2.5	/experiments/knapen_aot/videos/S_yt-4r-oovk9JWg_85.mp4	0.0	121.57977986335754	2.508085012435913
20	61.4241418838501	fix_post	2		12.0	18.0	2.5	/experiments/knapen_aot/videos/S_yt-4r-oovk9JWg_85.mp4	0.0	124.08786487579346	0.09958100318908691
21	61.523722887039185	fix_pre	0		10.0	19.0	2.5	/experiments/knapen_aot/videos/S_yt-KpOAdMtPGFs_17.mp4	0.0	124.18744587898254	0.08332514762878418
21	61.598840951919556	response	0	2		19.0	2.5	/experiments/knapen_aot/videos/S_yt-KpOAdMtPGFs_17.mp4	0.0	124.26256394386292	
21	61.60704803466797	movie	1		301.0	19.0	2.5	/experiments/knapen_aot/videos/S_yt-KpOAdMtPGFs_17.mp4	0.0	124.27077102661133	2.5084879398345947
21	64.11553597450256	fix_post	2		12.0	19.0	2.5	/experiments/knapen_aot/videos/S_yt-KpOAdMtPGFs_17.mp4	0.0	126.77925896644592	0.09985589981079102
22	64.21539187431335	fix_pre	0		20.0	20.0	2.5	blank	1.0	126.87911486625671	0.16666412353515625
22	64.37384104728699	response	0	2		20.0	2.5	blank	1.0	127.03756403923035	
22	64.38205599784851	movie	1		301.0	20.0	2.5	blank	1.0	127.04577898979187	2.5082180500030518
22	66.89027404785156	fix_post	2		12.0	20.0	2.5	blank	1.0	129.55399703979492	0.10031294822692871
23	66.99058699607849	fix_pre	0		17.0	21.0	2.5	/experiments/knapen_aot/videos/S_S003_C020_SDR_2K_AVC.mp4	0.0	129.65430998802185	0.14144492149353027
23	67.1238009929657	response	0	2		21.0	2.5	/experiments/knapen_aot/videos/S_S003_C020_SDR_2K_AVC.mp4	0.0	129.78752398490906	
23	67.13203191757202	movie	1		170.0	21.0	2.5	/experiments/knapen_aot/videos/S_S003_C020_SDR_2K_AVC.mp4	0.0	129.79575490951538	2.508301019668579
23	69.6403329372406	fix_post	2		12.0	21.0	2.5	/experiments/knapen_aot/videos/S_S003_C020_SDR_2K_AVC.mp4	0.0	132.30405592918396	0.10003399848937988
23	69.64195704460144	response	2	2		21.0	2.5	/experiments/knapen_aot/videos/S_S003_C020_SDR_2K_AVC.mp4	0.0	132.3056800365448	
24	69.74036693572998	fix_pre	0		78.0	22.0	2.5	/experiments/knapen_aot/videos/S_yt-OFnDCbW9Ebo_31.mp4	0.0	132.40408992767334	0.654789924621582
24	70.38210797309875	response	0	2		22.0	2.5	/experiments/knapen_aot/videos/S_yt-OFnDCbW9Ebo_31.mp4	0.0	133.04583096504211	
24	70.39515686035156	movie	1		301.0	22.0	2.5	/experiments/knapen_aot/videos/S_yt-OFnDCbW9Ebo_31.mp4	0.0	133.05887985229492	2.503676176071167
24	72.89883303642273	fix_post	2		12.0	22.0	2.5	/experiments/knapen_aot/videos/S_yt-OFnDCbW9Ebo_31.mp4	0.0	135.5625560283661	0.09993386268615723
25	72.99876689910889	fix_pre	0		40.0	23.0	2.5	/experiments/knapen_aot/videos/S_pexels-pavel-danilyuk-8057714.mp4	0.0	135.66248989105225	0.3339381217956543
25	73.32385087013245	response	0	2		23.0	2.5	/experiments/knapen_aot/videos/S_pexels-pavel-danilyuk-8057714.mp4	0.0	135.9875738620758	
25	73.33270502090454	movie	1		164.0	23.0	2.5	/experiments/knapen_aot/videos/S_pexels-pavel-danilyuk-8057714.mp4	0.0	135.9964280128479	2.5076918601989746
25	75.84039688110352	fix_post	2		12.0	23.0	2.5	/experiments/knapen_aot/videos/S_pexels-pavel-danilyuk-8057714.mp4	0.0	138.50411987304688	0.09998416900634766
26	75.94038105010986	fix_pre	0		12.0	24.0	2.5	/experiments/knapen_aot/videos/R_S_ILSVRC2015_train_00405001.mp4	0.0	138.60410404205322	0.1004948616027832
26	76.03233790397644	response	0	2		24.0	2.5	/experiments/knapen_aot/videos/R_S_ILSVRC2015_train_00405001.mp4	0.0	138.6960608959198	
26	76.04087591171265	movie	1		301.0	24.0	2.5	/experiments/knapen_aot/videos/R_S_ILSVRC2015_train_00405001.mp4	0.0	138.704598903656	2.507852077484131
26	78.54872798919678	fix_post	2		12.0	24.0	2.5	/experiments/knapen_aot/videos/R_S_ILSVRC2015_train_00405001.mp4	0.0	141.21245098114014	0.1000070571899414
27	78.64873504638672	fix_pre	0		23.0	25.0	2.5	/experiments/knapen_aot/videos/R_S_JApTAOdfunE_1251.mp4	0.0	141.31245803833008	0.19159793853759766
27	78.83215594291687	response	0	2		25.0	2.5	/experiments/knapen_aot/videos/R_S_JApTAOdfunE_1251.mp4	0.0	141.49587893486023	
27	78.84033298492432	movie	1		301.0	25.0	2.5	/experiments/knapen_aot/videos/R_S_JApTAOdfunE_1251.mp4	0.0	141.50405597686768	2.508316993713379
27	81.3486499786377	fix_post	2		12.0	25.0	2.5	/experiments/knapen_aot/videos/R_S_JApTAOdfunE_1251.mp4	0.0	144.01237297058105	0.10005807876586914
28	81.44870805740356	fix_pre	0		13.0	26.0	2.5	/experiments/knapen_aot/videos/R_S_yt-wE0cEswyaaM_53.mp4	0.0	144.11243104934692	0.10831689834594727
28	81.54878187179565	response	0	2		26.0	2.5	/experiments/knapen_aot/videos/R_S_yt-wE0cEswyaaM_53.mp4	0.0	144.212504863739	
28	81.55702495574951	movie	1		301.0	26.0	2.5	/experiments/knapen_aot/videos/R_S_yt-wE0cEswyaaM_53.mp4	0.0	144.22074794769287	2.5083069801330566
28	84.06533193588257	fix_post	2		12.0	26.0	2.5	/experiments/knapen_aot/videos/R_S_yt-wE0cEswyaaM_53.mp4	0.0	146.72905492782593	0.09999203681945801
29	84.16532397270203	fix_pre	0		18.0	27.0	2.5	/experiments/knapen_aot/videos/R_S_comp_GMT060_117NC_363D_1034_AUSTRALIA_v35_SDR_PS_FINAL_20180731_SDR_2K_AVC.mp4	0.0	146.82904696464539	0.14989709854125977
29	84.30705904960632	response	0	2		27.0	2.5	/experiments/knapen_aot/videos/R_S_comp_GMT060_117NC_363D_1034_AUSTRALIA_v35_SDR_PS_FINAL_20180731_SDR_2K_AVC.mp4	0.0	146.97078204154968	
29	84.31522107124329	movie	1		164.0	27.0	2.5	/experiments/knapen_aot/videos/R_S_comp_GMT060_117NC_363D_1034_AUSTRALIA_v35_SDR_PS_FINAL_20180731_SDR_2K_AVC.mp4	0.0	146.97894406318665	2.508431911468506
29	86.82365298271179	fix_post	2		12.0	27.0	2.5	/experiments/knapen_aot/videos/R_S_comp_GMT060_117NC_363D_1034_AUSTRALIA_v35_SDR_PS_FINAL_20180731_SDR_2K_AVC.mp4	0.0	149.48737597465515	0.09994387626647949
29	86.91536092758179	response	2	2		27.0	2.5	/experiments/knapen_aot/videos/R_S_comp_GMT060_117NC_363D_1034_AUSTRALIA_v35_SDR_PS_FINAL_20180731_SDR_2K_AVC.mp4	0.0	149.57908391952515	
30	86.92359685897827	fix_pre	0		80.0	28.0	2.5	blank	1.0	149.58731985092163	0.6666760444641113
30	87.58210492134094	response	0	2		28.0	2.5	blank	1.0	150.2458279132843	
30	87.59027290344238	movie	1		301.0	28.0	2.5	blank	1.0	150.25399589538574	2.5084171295166016
30	90.09869003295898	fix_post	2		12.0	28.0	2.5	blank	1.0	152.76241302490234	0.09995889663696289
31	90.19864892959595	fix_pre	0		60.0	29.0	2.5	/experiments/knapen_aot/videos/R_S_yt-v9WGfC67DPk_50.mp4	0.0	152.8623719215393	0.49990200996398926
31	90.69037294387817	response	0	2		29.0	2.5	/experiments/knapen_aot/videos/R_S_yt-v9WGfC67DPk_50.mp4	0.0	153.35409593582153	
31	90.69855093955994	movie	1		301.0	29.0	2.5	/experiments/knapen_aot/videos/R_S_yt-v9WGfC67DPk_50.mp4	0.0	153.3622739315033	2.508389949798584
31	93.20694088935852	fix_post	2		12.0	29.0	2.5	/experiments/knapen_aot/videos/R_S_yt-v9WGfC67DPk_50.mp4	0.0	155.87066388130188	0.1000220775604248
32	93.30696296691895	fix_pre	0		2.0	30.0	2.5	/experiments/knapen_aot/videos/R_S_ILSVRC2015_train_00165009.mp4	0.0	155.9706859588623	0.016649961471557617
32	93.31543207168579	response	0	2		30.0	2.5	/experiments/knapen_aot/videos/R_S_ILSVRC2015_train_00165009.mp4	0.0	155.97915506362915	
32	93.3236129283905	movie	1		301.0	30.0	2.5	/experiments/knapen_aot/videos/R_S_ILSVRC2015_train_00165009.mp4	0.0	155.98733592033386	2.5084259510040283
32	95.83203887939453	fix_post	2		12.0	30.0	2.5	/experiments/knapen_aot/videos/R_S_ILSVRC2015_train_00165009.mp4	0.0	158.4957618713379	0.09987902641296387
33	95.9319179058075	fix_pre	0		7.0	31.0	2.5	/experiments/knapen_aot/videos/R_S_yt-LGwEki4ghNw_69.mp4	0.0	158.59564089775085	0.058331966400146484
33	95.98202896118164	response	0	2		31.0	2.5	/experiments/knapen_aot/videos/R_S_yt-LGwEki4ghNw_69.mp4	0.0	158.645751953125	
33	95.99024987220764	movie	1		301.0	31.0	2.5	/experiments/knapen_aot/videos/R_S_yt-LGwEki4ghNw_69.mp4	0.0	158.653972864151	2.5083181858062744
33	98.49856805801392	fix_post	2		12.0	31.0	2.5	/experiments/knapen_aot/videos/R_S_yt-LGwEki4ghNw_69.mp4	0.0	161.16229104995728	0.1000208854675293
34	98.59858894348145	fix_pre	0		4.0	32.0	2.5	/experiments/knapen_aot/videos/S_yt-nn-8LZcafGs_25.mp4	0.0	161.2623119354248	0.03335690498352051
34	98.62370491027832	response	0	2		32.0	2.5	/experiments/knapen_aot/videos/S_yt-nn-8LZcafGs_25.mp4	0.0	161.28742790222168	
34	98.63194584846497	movie	1		301.0	32.0	2.5	/experiments/knapen_aot/videos/S_yt-nn-8LZcafGs_25.mp4	0.0	161.29566884040833	2.508254051208496
34	101.14019989967346	fix_post	2		12.0	32.0	2.5	/experiments/knapen_aot/videos/S_yt-nn-8LZcafGs_25.mp4	0.0	163.80392289161682	0.10003805160522461
35	101.24023795127869	fix_pre	0		14.0	33.0	2.5	/experiments/knapen_aot/videos/S_ILSVRC2015_train_00001011.mp4	0.0	163.90396094322205	0.11667203903198242
35	101.34870195388794	response	0	2		33.0	2.5	/experiments/knapen_aot/videos/S_ILSVRC2015_train_00001011.mp4	0.0	164.0124249458313	
35	101.35690999031067	movie	1		301.0	33.0	2.5	/experiments/knapen_aot/videos/S_ILSVRC2015_train_00001011.mp4	0.0	164.02063298225403	2.5082690715789795
35	103.86517906188965	fix_post	2		12.0	33.0	2.5	/experiments/knapen_aot/videos/S_ILSVRC2015_train_00001011.mp4	0.0	166.528902053833	0.10008382797241211
36	103.96526288986206	fix_pre	0		30.0	34.0	2.5	blank	1.0	166.62898588180542	0.24994516372680664
36	104.1994469165802	response	0	2		34.0	2.5	blank	1.0	166.86316990852356	
36	104.21520805358887	movie	1		301.0	34.0	2.5	blank	1.0	166.87893104553223	2.508342981338501
36	106.72355103492737	fix_post	2		12.0	34.0	2.5	blank	1.0	169.38727402687073	0.10001897811889648
37	106.82357001304626	fix_pre	0		24.0	35.0	2.5	/experiments/knapen_aot/videos/S_yt-Gam0NeyyG8w_22.mp4	0.0	169.48729300498962	0.19997406005859375
37	107.00771999359131	response	0	2		35.0	2.5	/experiments/knapen_aot/videos/S_yt-Gam0NeyyG8w_22.mp4	0.0	169.67144298553467	
37	107.02354407310486	movie	1		301.0	35.0	2.5	/experiments/knapen_aot/videos/S_yt-Gam0NeyyG8w_22.mp4	0.0	169.68726706504822	2.508342981338501
37	109.53188705444336	fix_post	2		12.0	35.0	2.5	/experiments/knapen_aot/videos/S_yt-Gam0NeyyG8w_22.mp4	0.0	172.19561004638672	0.10018801689147949
38	109.63207507133484	fix_pre	0		6.0	36.0	2.5	/experiments/knapen_aot/videos/R_S_KP_A010_C002_SDR_20190717_SDR_2K_AVC.mp4	0.0	172.2957980632782	0.04978680610656738
38	109.67367386817932	response	0	2		36.0	2.5	/experiments/knapen_aot/videos/R_S_KP_A010_C002_SDR_20190717_SDR_2K_AVC.mp4	0.0	172.33739686012268	
38	109.6818618774414	movie	1		174.0	36.0	2.5	/experiments/knapen_aot/videos/R_S_KP_A010_C002_SDR_20190717_SDR_2K_AVC.mp4	0.0	172.34558486938477	2.508350133895874
38	112.19021201133728	fix_post	2		12.0	36.0	2.5	/experiments/knapen_aot/videos/R_S_KP_A010_C002_SDR_20190717_SDR_2K_AVC.mp4	0.0	174.85393500328064	0.1004488468170166
39	112.2906608581543	fix_pre	0		15.0	37.0	2.5	/experiments/knapen_aot/videos/S_yt-JG2OY_7B-gI_537.mp4	0.0	174.95438385009766	0.12485718727111816
39	112.40696907043457	response	0	2		37.0	2.5	/experiments/knapen_aot/videos/S_yt-JG2OY_7B-gI_537.mp4	0.0	175.07069206237793	
39	112.41551804542542	movie	1		301.0	37.0	2.5	/experiments/knapen_aot/videos/S_yt-JG2OY_7B-gI_537.mp4	0.0	175.07924103736877	2.5080008506774902
39	114.9235188961029	fix_post	2		12.0	37.0	2.5	/experiments/knapen_aot/videos/S_yt-JG2OY_7B-gI_537.mp4	0.0	177.58724188804626	0.09992218017578125
40	115.02344107627869	fix_pre	0		15.0	38.0	2.5	/experiments/knapen_aot/videos/S_yt-HQQws1Lp_rQ_10.mp4	0.0	177.68716406822205	0.12503600120544434
40	115.14031791687012	response	0	2		38.0	2.5	/experiments/knapen_aot/videos/S_yt-HQQws1Lp_rQ_10.mp4	0.0	177.80404090881348	
40	115.14847707748413	movie	1		301.0	38.0	2.5	/experiments/knapen_aot/videos/S_yt-HQQws1Lp_rQ_10.mp4	0.0	177.8122000694275	2.508443832397461
40	117.65692090988159	fix_post	2		12.0	38.0	2.5	/experiments/knapen_aot/videos/S_yt-HQQws1Lp_rQ_10.mp4	0.0	180.32064390182495	0.09991812705993652
41	117.75683903694153	fix_pre	0		8.0	39.0	2.5	/experiments/knapen_aot/videos/R_S_yt-T1mMDOVjvrE_83.mp4	0.0	180.4205620288849	0.06665492057800293
41	117.81530284881592	response	0	2		39.0	2.5	/experiments/knapen_aot/videos/R_S_yt-T1mMDOVjvrE_83.mp4	0.0	180.47902584075928	
41	117.82349395751953	movie	1		301.0	39.0	2.5	/experiments/knapen_aot/videos/R_S_yt-T1mMDOVjvrE_83.mp4	0.0	180.4872169494629	2.5082690715789795
41	120.33176302909851	fix_post	2		12.0	39.0	2.5	/experiments/knapen_aot/videos/R_S_yt-T1mMDOVjvrE_83.mp4	0.0	182.99548602104187	0.10006904602050781
42	120.43183207511902	fix_pre	0		10.0	40.0	2.5	/experiments/knapen_aot/videos/S_yt-l_pvPAznG1A_20.mp4	0.0	183.09555506706238	0.0832679271697998
42	120.50689196586609	response	0	2		40.0	2.5	/experiments/knapen_aot/videos/S_yt-l_pvPAznG1A_20.mp4	0.0	183.17061495780945	
42	120.51510000228882	movie	1		301.0	40.0	2.5	/experiments/knapen_aot/videos/S_yt-l_pvPAznG1A_20.mp4	0.0	183.17882299423218	2.5083649158477783
42	123.0234649181366	fix_post	2		12.0	40.0	2.5	/experiments/knapen_aot/videos/S_yt-l_pvPAznG1A_20.mp4	0.0	185.68718791007996	0.10038495063781738
43	123.12384986877441	fix_pre	0		10.0	41.0	2.5	blank	1.0	185.78757286071777	0.08328509330749512
43	123.1910650730133	response	0	2		41.0	2.5	blank	1.0	185.85478806495667	
43	123.20713496208191	movie	1		301.0	41.0	2.5	blank	1.0	185.87085795402527	2.508126974105835
43	125.71526193618774	fix_post	2		12.0	41.0	2.5	blank	1.0	188.3789849281311	0.09990596771240234
44	125.81516790390015	fix_pre	0		32.0	42.0	2.5	/experiments/knapen_aot/videos/R_S_yt-w_e3sxIzepA_115.mp4	0.0	188.4788908958435	0.26703405380249023
44	126.0735878944397	response	0	2		42.0	2.5	/experiments/knapen_aot/videos/R_S_yt-w_e3sxIzepA_115.mp4	0.0	188.73731088638306	
44	126.08220195770264	movie	1		301.0	42.0	2.5	/experiments/knapen_aot/videos/R_S_yt-w_e3sxIzepA_115.mp4	0.0	188.745924949646	2.5083909034729004
44	128.59059286117554	fix_post	2		12.0	42.0	2.5	/experiments/knapen_aot/videos/R_S_yt-w_e3sxIzepA_115.mp4	0.0	191.2543158531189	0.09954714775085449
45	128.6901400089264	fix_pre	0		12.0	43.0	2.5	/experiments/knapen_aot/videos/S_bing-www_yahoo_com_entertainment_anastasia-karanikolaou-chantel-jeffries-discuss-182400502_html_9.mp4	0.0	191.35386300086975	0.10020899772644043
45	128.78199696540833	response	0	2		43.0	2.5	/experiments/knapen_aot/videos/S_bing-www_yahoo_com_entertainment_anastasia-karanikolaou-chantel-jeffries-discuss-182400502_html_9.mp4	0.0	191.44571995735168	
45	128.79034900665283	movie	1		163.0	43.0	2.5	/experiments/knapen_aot/videos/S_bing-www_yahoo_com_entertainment_anastasia-karanikolaou-chantel-jeffries-discuss-182400502_html_9.mp4	0.0	191.4540719985962	2.5081419944763184
45	131.29849100112915	fix_post	2		12.0	43.0	2.5	/experiments/knapen_aot/videos/S_bing-www_yahoo_com_entertainment_anastasia-karanikolaou-chantel-jeffries-discuss-182400502_html_9.mp4	0.0	193.9622139930725	0.09995698928833008
46	131.39844799041748	fix_pre	0		20.0	44.0	2.5	/experiments/knapen_aot/videos/S_yt-AiXq1oDrEXI_123.mp4	0.0	194.06217098236084	0.16660690307617188
46	131.54923105239868	response	0	2		44.0	2.5	/experiments/knapen_aot/videos/S_yt-AiXq1oDrEXI_123.mp4	0.0	194.21295404434204	
46	131.56505489349365	movie	1		301.0	44.0	2.5	/experiments/knapen_aot/videos/S_yt-AiXq1oDrEXI_123.mp4	0.0	194.228777885437	2.5083870887756348
46	134.0734419822693	fix_post	2		12.0	44.0	2.5	/experiments/knapen_aot/videos/S_yt-AiXq1oDrEXI_123.mp4	0.0	196.73716497421265	0.1000208854675293
47	134.17346286773682	fix_pre	0		15.0	45.0	2.5	/experiments/knapen_aot/videos/R_S_pexels-ron-lach-8071987.mp4	0.0	196.83718585968018	0.12493610382080078
47	134.29024004936218	response	0	2		45.0	2.5	/experiments/knapen_aot/videos/R_S_pexels-ron-lach-8071987.mp4	0.0	196.95396304130554	
47	134.29839897155762	movie	1		207.0	45.0	2.5	/experiments/knapen_aot/videos/R_S_pexels-ron-lach-8071987.mp4	0.0	196.96212196350098	2.5083019733428955
47	136.8067009449005	fix_post	2		12.0	45.0	2.5	/experiments/knapen_aot/videos/R_S_pexels-ron-lach-8071987.mp4	0.0	199.47042393684387	0.10027003288269043
48	136.9069709777832	fix_pre	0		6.0	46.0	2.5	/experiments/knapen_aot/videos/R_S_yt-2IfvnrF3IV0_241.mp4	0.0	199.57069396972656	0.04998588562011719
48	136.94856905937195	response	0	2		46.0	2.5	/experiments/knapen_aot/videos/R_S_yt-2IfvnrF3IV0_241.mp4	0.0	199.6122920513153	
48	136.95695686340332	movie	1		301.0	46.0	2.5	/experiments/knapen_aot/videos/R_S_yt-2IfvnrF3IV0_241.mp4	0.0	199.62067985534668	2.5081541538238525
48	139.46511101722717	fix_post	2		12.0	46.0	2.5	/experiments/knapen_aot/videos/R_S_yt-2IfvnrF3IV0_241.mp4	0.0	202.12883400917053	0.10001397132873535
49	139.5651249885559	fix_pre	0		8.0	47.0	2.5	/experiments/knapen_aot/videos/S_yt-3ohvpS42xug_184.mp4	0.0	202.22884798049927	0.06661295890808105
49	139.62352299690247	response	0	2		47.0	2.5	/experiments/knapen_aot/videos/S_yt-3ohvpS42xug_184.mp4	0.0	202.28724598884583	
49	139.631737947464	movie	1		301.0	47.0	2.5	/experiments/knapen_aot/videos/S_yt-3ohvpS42xug_184.mp4	0.0	202.29546093940735	2.5083580017089844
49	142.14009594917297	fix_post	2		12.0	47.0	2.5	/experiments/knapen_aot/videos/S_yt-3ohvpS42xug_184.mp4	0.0	204.80381894111633	0.10002613067626953
50	142.24012207984924	fix_pre	0		11.0	48.0	2.5	/experiments/knapen_aot/videos/R_S_yt-_BvMLZo0MG0_1226.mp4	0.0	204.9038450717926	0.09190893173217773
50	142.31610488891602	response	0	2		48.0	2.5	/experiments/knapen_aot/videos/R_S_yt-_BvMLZo0MG0_1226.mp4	0.0	204.97982788085938	
50	142.33203101158142	movie	1		301.0	48.0	2.5	/experiments/knapen_aot/videos/R_S_yt-_BvMLZo0MG0_1226.mp4	0.0	204.99575400352478	2.508051872253418
50	144.84008288383484	fix_post	2		12.0	48.0	2.5	/experiments/knapen_aot/videos/R_S_yt-_BvMLZo0MG0_1226.mp4	0.0	207.5038058757782	0.09996318817138672
51	144.94004607200623	fix_pre	0		21.0	49.0	2.5	blank	1.0	207.60376906394958	0.1750028133392334
51	145.09923696517944	response	0	2		49.0	2.5	blank	1.0	207.7629599571228	
51	145.11504888534546	movie	1		301.0	49.0	2.5	blank	1.0	207.77877187728882	2.5087850093841553
51	147.62383389472961	fix_post	2		12.0	49.0	2.5	blank	1.0	210.28755688667297	0.09950804710388184
52	147.7233419418335	fix_pre	0		22.0	50.0	2.5	/experiments/knapen_aot/videos/R_S_yt-CRw9-cCQqbg_332.mp4	0.0	210.38706493377686	0.1832740306854248
52	147.8985080718994	response	0	2		50.0	2.5	/experiments/knapen_aot/videos/R_S_yt-CRw9-cCQqbg_332.mp4	0.0	210.56223106384277	
52	147.90661597251892	movie	1		301.0	50.0	2.5	/experiments/knapen_aot/videos/R_S_yt-CRw9-cCQqbg_332.mp4	0.0	210.57033896446228	2.5086119174957275
52	150.41522789001465	fix_post	2		12.0	50.0	2.5	/experiments/knapen_aot/videos/R_S_yt-CRw9-cCQqbg_332.mp4	0.0	213.078950881958	0.0998539924621582
53	150.5150818824768	fix_pre	0		8.0	51.0	2.5	/experiments/knapen_aot/videos/S_yt-B7ZRYVhfW2U_52.mp4	0.0	213.17880487442017	0.0667259693145752
53	150.57344698905945	response	0	2		51.0	2.5	/experiments/knapen_aot/videos/S_yt-B7ZRYVhfW2U_52.mp4	0.0	213.2371699810028	
53	150.58180785179138	movie	1		301.0	51.0	2.5	/experiments/knapen_aot/videos/S_yt-B7ZRYVhfW2U_52.mp4	0.0	213.24553084373474	2.508599042892456
53	153.09040689468384	fix_post	2		12.0	51.0	2.5	/experiments/knapen_aot/videos/S_yt-B7ZRYVhfW2U_52.mp4	0.0	215.7541298866272	0.09961199760437012
54	153.1900188922882	fix_pre	0		5.0	52.0	2.5	/experiments/knapen_aot/videos/R_S_yt-jUGt_Byqczw_599.mp4	0.0	215.85374188423157	0.04166698455810547
54	153.2235300540924	response	0	2		52.0	2.5	/experiments/knapen_aot/videos/R_S_yt-jUGt_Byqczw_599.mp4	0.0	215.88725304603577	
54	153.2316858768463	movie	1		301.0	52.0	2.5	/experiments/knapen_aot/videos/R_S_yt-jUGt_Byqczw_599.mp4	0.0	215.89540886878967	2.5083351135253906
54	155.7400209903717	fix_post	2		12.0	52.0	2.5	/experiments/knapen_aot/videos/R_S_yt-jUGt_Byqczw_599.mp4	0.0	218.40374398231506	0.09994006156921387
55	155.83996105194092	fix_pre	0		5.0	53.0	2.5	/experiments/knapen_aot/videos/S_yt-c5KPuyzO-50_4.mp4	0.0	218.50368404388428	0.04174685478210449
55	155.8735010623932	response	0	2		53.0	2.5	/experiments/knapen_aot/videos/S_yt-c5KPuyzO-50_4.mp4	0.0	218.53722405433655	
55	155.88170790672302	movie	1		301.0	53.0	2.5	/experiments/knapen_aot/videos/S_yt-c5KPuyzO-50_4.mp4	0.0	218.54543089866638	2.5083351135253906
55	158.3900430202484	fix_post	2		12.0	53.0	2.5	/experiments/knapen_aot/videos/S_yt-c5KPuyzO-50_4.mp4	0.0	221.05376601219177	0.10026288032531738
56	158.49030590057373	fix_pre	0		19.0	54.0	2.5	/experiments/knapen_aot/videos/S_yt-JG2OY_7B-gI_537.mp4	0.0	221.1540288925171	0.15800094604492188
56	158.64020800590515	response	0	2		54.0	2.5	/experiments/knapen_aot/videos/S_yt-JG2OY_7B-gI_537.mp4	0.0	221.3039309978485	
56	158.64830684661865	movie	1		301.0	54.0	2.5	/experiments/knapen_aot/videos/S_yt-JG2OY_7B-gI_537.mp4	0.0	221.312029838562	2.508406162261963
56	161.15671300888062	fix_post	2		12.0	54.0	2.5	/experiments/knapen_aot/videos/S_yt-JG2OY_7B-gI_537.mp4	0.0	223.82043600082397	0.10006284713745117
57	161.25677585601807	fix_pre	0		15.0	55.0	2.5	blank	1.0	223.92049884796143	0.12488412857055664
57	161.37338995933533	response	0	2		55.0	2.5	blank	1.0	224.0371129512787	
57	161.38165998458862	movie	1		301.0	55.0	2.5	blank	1.0	224.04538297653198	2.50833797454834
57	163.88999795913696	fix_post	2		12.0	55.0	2.5	blank	1.0	226.55372095108032	0.09997391700744629
58	163.9899718761444	fix_pre	0		30.0	56.0	2.5	/experiments/knapen_aot/videos/S_yt-fk-z6WCvjjA_3.mp4	0.0	226.65369486808777	0.24998211860656738
58	164.23167490959167	response	0	2		56.0	2.5	/experiments/knapen_aot/videos/S_yt-fk-z6WCvjjA_3.mp4	0.0	226.89539790153503	
58	164.23995399475098	movie	1		301.0	56.0	2.5	/experiments/knapen_aot/videos/S_yt-fk-z6WCvjjA_3.mp4	0.0	226.90367698669434	2.5085508823394775
58	166.74850487709045	fix_post	2		12.0	56.0	2.5	/experiments/knapen_aot/videos/S_yt-fk-z6WCvjjA_3.mp4	0.0	229.4122278690338	0.0997920036315918
59	166.84829688072205	fix_pre	0		20.0	57.0	2.5	/experiments/knapen_aot/videos/R_S_pexels-artem-podrez-5457692.mp4	0.0	229.5120198726654	0.16672897338867188
59	167.0067138671875	response	0	2		57.0	2.5	/experiments/knapen_aot/videos/R_S_pexels-artem-podrez-5457692.mp4	0.0	229.67043685913086	
59	167.01502585411072	movie	1		164.0	57.0	2.5	/experiments/knapen_aot/videos/R_S_pexels-artem-podrez-5457692.mp4	0.0	229.67874884605408	2.508333206176758
59	169.52335906028748	fix_post	2		12.0	57.0	2.5	/experiments/knapen_aot/videos/R_S_pexels-artem-podrez-5457692.mp4	0.0	232.18708205223083	0.09994888305664062
59	169.615051984787	response	2	2		57.0	2.5	/experiments/knapen_aot/videos/R_S_pexels-artem-podrez-5457692.mp4	0.0	232.27877497673035	
60	169.62330794334412	fix_pre	0		65.0	58.0	2.5	/experiments/knapen_aot/videos/R_S_yt-nn-8LZcafGs_25.mp4	0.0	232.28703093528748	0.541680097579956
60	170.1568238735199	response	0	2		58.0	2.5	/experiments/knapen_aot/videos/R_S_yt-nn-8LZcafGs_25.mp4	0.0	232.82054686546326	
60	170.16498804092407	movie	1		301.0	58.0	2.5	/experiments/knapen_aot/videos/R_S_yt-nn-8LZcafGs_25.mp4	0.0	232.82871103286743	2.5086519718170166
60	172.6736400127411	fix_post	2		12.0	58.0	2.5	/experiments/knapen_aot/videos/R_S_yt-nn-8LZcafGs_25.mp4	0.0	235.33736300468445	0.09970784187316895
61	172.77334785461426	fix_pre	0		14.0	59.0	2.5	/experiments/knapen_aot/videos/R_S_yt-7W50lcw5FCo_37.mp4	0.0	235.43707084655762	0.11658310890197754
61	172.88170886039734	response	0	2		59.0	2.5	/experiments/knapen_aot/videos/R_S_yt-7W50lcw5FCo_37.mp4	0.0	235.5454318523407	
61	172.88993096351624	movie	1		301.0	59.0	2.5	/experiments/knapen_aot/videos/R_S_yt-7W50lcw5FCo_37.mp4	0.0	235.5536539554596	2.5087339878082275
61	175.39866495132446	fix_post	2		12.0	59.0	2.5	/experiments/knapen_aot/videos/R_S_yt-7W50lcw5FCo_37.mp4	0.0	238.06238794326782	0.09966611862182617
62	175.4983310699463	fix_pre	0		17.0	60.0	2.5	/experiments/knapen_aot/videos/S_yt-s2PWkCdT-TM_258.mp4	0.0	238.16205406188965	0.14169692993164062
62	175.63169407844543	response	0	2		60.0	2.5	/experiments/knapen_aot/videos/S_yt-s2PWkCdT-TM_258.mp4	0.0	238.2954170703888	
62	175.64002799987793	movie	1		301.0	60.0	2.5	/experiments/knapen_aot/videos/S_yt-s2PWkCdT-TM_258.mp4	0.0	238.3037509918213	2.508262872695923
62	178.14829087257385	fix_post	2		12.0	60.0	2.5	/experiments/knapen_aot/videos/S_yt-s2PWkCdT-TM_258.mp4	0.0	240.8120138645172	0.09999918937683105
63	178.24829006195068	fix_pre	0		31.0	61.0	2.5	/experiments/knapen_aot/videos/R_S_yt-j3Sk8ZnAiEA_32.mp4	0.0	240.91201305389404	0.25824499130249023
63	178.49836492538452	response	0	2		61.0	2.5	/experiments/knapen_aot/videos/R_S_yt-j3Sk8ZnAiEA_32.mp4	0.0	241.16208791732788	
63	178.50653505325317	movie	1		301.0	61.0	2.5	/experiments/knapen_aot/videos/R_S_yt-j3Sk8ZnAiEA_32.mp4	0.0	241.17025804519653	2.5083258152008057
63	181.01486086845398	fix_post	2		12.0	61.0	2.5	/experiments/knapen_aot/videos/R_S_yt-j3Sk8ZnAiEA_32.mp4	0.0	243.67858386039734	0.10010218620300293
64	181.11496305465698	fix_pre	0		22.0	62.0	2.5	blank	1.0	243.77868604660034	0.18321990966796875
64	181.28253293037415	response	0	2		62.0	2.5	blank	1.0	243.9462559223175	
64	181.29818296432495	movie	1		301.0	62.0	2.5	blank	1.0	243.9619059562683	2.5083999633789062
64	183.80658292770386	fix_post	2		12.0	62.0	2.5	blank	1.0	246.47030591964722	0.10002803802490234
65	183.90661096572876	fix_pre	0		27.0	63.0	2.5	/experiments/knapen_aot/videos/R_S_ILSVRC2015_train_00479000.mp4	0.0	246.57033395767212	0.22492504119873047
65	184.1233310699463	response	0	2		63.0	2.5	/experiments/knapen_aot/videos/R_S_ILSVRC2015_train_00479000.mp4	0.0	246.78705406188965	
65	184.1315360069275	movie	1		301.0	63.0	2.5	/experiments/knapen_aot/videos/R_S_ILSVRC2015_train_00479000.mp4	0.0	246.79525899887085	2.5082690715789795
65	186.63980507850647	fix_post	2		12.0	63.0	2.5	/experiments/knapen_aot/videos/R_S_ILSVRC2015_train_00479000.mp4	0.0	249.30352807044983	0.10007977485656738
66	186.73988485336304	fix_pre	0		12.0	64.0	2.5	/experiments/knapen_aot/videos/S_yt-TxU1H5A6BaQ_52.mp4	0.0	249.4036078453064	0.09997200965881348
66	186.83165788650513	response	0	2		64.0	2.5	/experiments/knapen_aot/videos/S_yt-TxU1H5A6BaQ_52.mp4	0.0	249.4953808784485	
66	186.83985686302185	movie	1		301.0	64.0	2.5	/experiments/knapen_aot/videos/S_yt-TxU1H5A6BaQ_52.mp4	0.0	249.5035798549652	2.508397102355957
66	189.3482539653778	fix_post	2		12.0	64.0	2.5	/experiments/knapen_aot/videos/S_yt-TxU1H5A6BaQ_52.mp4	0.0	252.01197695732117	0.09999394416809082
67	189.4482479095459	fix_pre	0		29.0	65.0	2.5	/experiments/knapen_aot/videos/S_yt-V4Oosy-ZtGY_193.mp4	0.0	252.11197090148926	0.24173617362976074
67	189.6816689968109	response	0	2		65.0	2.5	/experiments/knapen_aot/videos/S_yt-V4Oosy-ZtGY_193.mp4	0.0	252.34539198875427	
67	189.68998408317566	movie	1		301.0	65.0	2.5	/experiments/knapen_aot/videos/S_yt-V4Oosy-ZtGY_193.mp4	0.0	252.35370707511902	2.508293867111206
67	192.19827795028687	fix_post	2		12.0	65.0	2.5	/experiments/knapen_aot/videos/S_yt-V4Oosy-ZtGY_193.mp4	0.0	254.86200094223022	0.10007810592651367
68	192.29835605621338	fix_pre	0		4.0	66.0	2.5	/experiments/knapen_aot/videos/R_S_yt-tEzCpMrjOHs_24.mp4	0.0	254.96207904815674	0.03330492973327637
68	192.31623101234436	response	0	2		66.0	2.5	/experiments/knapen_aot/videos/R_S_yt-tEzCpMrjOHs_24.mp4	0.0	254.97995400428772	
68	192.33166098594666	movie	1		301.0	66.0	2.5	/experiments/knapen_aot/videos/R_S_yt-tEzCpMrjOHs_24.mp4	0.0	254.99538397789001	2.5082318782806396
68	194.8398928642273	fix_post	2		12.0	66.0	2.5	/experiments/knapen_aot/videos/R_S_yt-tEzCpMrjOHs_24.mp4	0.0	257.50361585617065	0.0999901294708252
69	194.93988299369812	fix_pre	0		8.0	67.0	2.5	/experiments/knapen_aot/videos/R_S_yt-NFb0SUCeiro_158.mp4	0.0	257.6036059856415	0.06663107872009277
69	194.99831891059875	response	0	2		67.0	2.5	/experiments/knapen_aot/videos/R_S_yt-NFb0SUCeiro_158.mp4	0.0	257.6620419025421	
69	195.0065140724182	movie	1		301.0	67.0	2.5	/experiments/knapen_aot/videos/R_S_yt-NFb0SUCeiro_158.mp4	0.0	257.6702370643616	2.5083718299865723
69	197.51488590240479	fix_post	2		12.0	67.0	2.5	/experiments/knapen_aot/videos/R_S_yt-NFb0SUCeiro_158.mp4	0.0	260.17860889434814	0.09995698928833008
70	197.61484289169312	fix_pre	0		10.0	68.0	2.5	/experiments/knapen_aot/videos/S_yt-3ohvpS42xug_184.mp4	0.0	260.2785658836365	0.08477997779846191
70	197.68998789787292	response	0	2		68.0	2.5	/experiments/knapen_aot/videos/S_yt-3ohvpS42xug_184.mp4	0.0	260.3537108898163	
70	197.69962286949158	movie	1		301.0	68.0	2.5	/experiments/knapen_aot/videos/S_yt-3ohvpS42xug_184.mp4	0.0	260.36334586143494	2.5069291591644287
70	200.206552028656	fix_post	2		12.0	68.0	2.5	/experiments/knapen_aot/videos/S_yt-3ohvpS42xug_184.mp4	0.0	262.87027502059937	0.09996700286865234
71	200.30651903152466	fix_pre	0		7.0	69.0	2.5	/experiments/knapen_aot/videos/S_yt-NFb0SUCeiro_158.mp4	0.0	262.970242023468	0.058432817459106445
71	200.34912395477295	response	0	2		69.0	2.5	/experiments/knapen_aot/videos/S_yt-NFb0SUCeiro_158.mp4	0.0	263.0128469467163	
71	200.36495184898376	movie	1		301.0	69.0	2.5	/experiments/knapen_aot/videos/S_yt-NFb0SUCeiro_158.mp4	0.0	263.0286748409271	2.50823712348938
71	202.87318897247314	fix_post	2		12.0	69.0	2.5	/experiments/knapen_aot/videos/S_yt-NFb0SUCeiro_158.mp4	0.0	265.5369119644165	0.0999910831451416
72	202.9731800556183	fix_pre	0		19.0	70.0	2.5	blank	1.0	265.63690304756165	0.15833091735839844
72	203.12333393096924	response	0	2		70.0	2.5	blank	1.0	265.7870569229126	
72	203.13151097297668	movie	1		301.0	70.0	2.5	blank	1.0	265.79523396492004	2.508267879486084
72	205.63977885246277	fix_post	2		12.0	70.0	2.5	blank	1.0	268.3035018444061	0.10003805160522461
73	205.739816904068	fix_pre	0		37.0	71.0	2.5	/experiments/knapen_aot/videos/R_S_yt-AiXq1oDrEXI_123.mp4	0.0	268.40353989601135	0.3083200454711914
73	206.0398850440979	response	0	2		71.0	2.5	/experiments/knapen_aot/videos/R_S_yt-AiXq1oDrEXI_123.mp4	0.0	268.70360803604126	
73	206.04813694953918	movie	1		301.0	71.0	2.5	/experiments/knapen_aot/videos/R_S_yt-AiXq1oDrEXI_123.mp4	0.0	268.71185994148254	2.508394956588745
73	208.55653190612793	fix_post	2		12.0	71.0	2.5	/experiments/knapen_aot/videos/R_S_yt-AiXq1oDrEXI_123.mp4	0.0	271.2202548980713	0.0999910831451416
74	208.65652298927307	fix_pre	0		55.0	72.0	2.5	/experiments/knapen_aot/videos/S_yt-Z4W6l0eZza4_6.mp4	0.0	271.32024598121643	0.4584028720855713
74	209.09915399551392	response	0	2		72.0	2.5	/experiments/knapen_aot/videos/S_yt-Z4W6l0eZza4_6.mp4	0.0	271.7628769874573	
74	209.11492586135864	movie	1		301.0	72.0	2.5	/experiments/knapen_aot/videos/S_yt-Z4W6l0eZza4_6.mp4	0.0	271.778648853302	2.508197069168091
74	211.62312293052673	fix_post	2		12.0	72.0	2.5	/experiments/knapen_aot/videos/S_yt-Z4W6l0eZza4_6.mp4	0.0	274.2868459224701	0.10017895698547363
75	211.7233018875122	fix_pre	0		36.0	73.0	2.5	/experiments/knapen_aot/videos/S_Pexels_Videos_2795731_1.mp4	0.0	274.38702487945557	0.29985904693603516
75	212.01496291160583	response	0	2		73.0	2.5	/experiments/knapen_aot/videos/S_Pexels_Videos_2795731_1.mp4	0.0	274.6786859035492	
75	212.02316093444824	movie	1		163.0	73.0	2.5	/experiments/knapen_aot/videos/S_Pexels_Videos_2795731_1.mp4	0.0	274.6868839263916	2.5083439350128174
75	214.53150486946106	fix_post	2		12.0	73.0	2.5	/experiments/knapen_aot/videos/S_Pexels_Videos_2795731_1.mp4	0.0	277.1952278614044	0.09999203681945801
76	214.63149690628052	fix_pre	0		3.0	74.0	2.5	/experiments/knapen_aot/videos/R_S_yt-83nimFMNhrM_131.mp4	0.0	277.2952198982239	0.026240110397338867
76	214.6482708454132	response	0	2		74.0	2.5	/experiments/knapen_aot/videos/R_S_yt-83nimFMNhrM_131.mp4	0.0	277.31199383735657	
76	214.65773701667786	movie	1		301.0	74.0	2.5	/experiments/knapen_aot/videos/R_S_yt-83nimFMNhrM_131.mp4	0.0	277.3214600086212	2.5074620246887207
76	217.16519904136658	fix_post	2		12.0	74.0	2.5	/experiments/knapen_aot/videos/R_S_yt-83nimFMNhrM_131.mp4	0.0	279.82892203330994	0.09998297691345215
77	217.26518201828003	fix_pre	0		6.0	75.0	2.5	blank	1.0	279.9289050102234	0.04958987236022949
77	217.30664896965027	response	0	2		75.0	2.5	blank	1.0	279.9703719615936	
77	217.31477189064026	movie	1		301.0	75.0	2.5	blank	1.0	279.9784948825836	2.5082671642303467
77	219.8230390548706	fix_post	2		12.0	75.0	2.5	blank	1.0	282.48676204681396	0.10010385513305664
78	219.92314291000366	fix_pre	0		21.0	76.0	2.5	/experiments/knapen_aot/videos/R_S_ILSVRC2015_train_00551000.mp4	0.0	282.586865901947	0.1748499870300293
78	220.08979296684265	response	0	2		76.0	2.5	/experiments/knapen_aot/videos/R_S_ILSVRC2015_train_00551000.mp4	0.0	282.753515958786	
78	220.0979928970337	movie	1		301.0	76.0	2.5	/experiments/knapen_aot/videos/R_S_ILSVRC2015_train_00551000.mp4	0.0	282.76171588897705	2.5083980560302734
78	222.60639095306396	fix_post	2		12.0	76.0	2.5	/experiments/knapen_aot/videos/R_S_ILSVRC2015_train_00551000.mp4	0.0	285.2701139450073	0.10015201568603516
79	222.70654296875	fix_pre	0		13.0	77.0	2.5	/experiments/knapen_aot/videos/R_S_yt-2cwARrUMj40_67.mp4	0.0	285.37026596069336	0.108306884765625
79	222.80642294883728	response	0	2		77.0	2.5	/experiments/knapen_aot/videos/R_S_yt-2cwARrUMj40_67.mp4	0.0	285.47014594078064	
79	222.81484985351562	movie	1		301.0	77.0	2.5	/experiments/knapen_aot/videos/R_S_yt-2cwARrUMj40_67.mp4	0.0	285.478572845459	2.5086100101470947
79	225.32345986366272	fix_post	2		12.0	77.0	2.5	/experiments/knapen_aot/videos/R_S_yt-2cwARrUMj40_67.mp4	0.0	287.9871828556061	0.09958600997924805
80	225.42304587364197	fix_pre	0		12.0	78.0	2.5	/experiments/knapen_aot/videos/R_S_ILSVRC2015_train_00654000.mp4	0.0	288.0867688655853	0.10000801086425781
80	225.5072820186615	response	0	2		78.0	2.5	/experiments/knapen_aot/videos/R_S_ILSVRC2015_train_00654000.mp4	0.0	288.17100501060486	
80	225.52305388450623	movie	1		301.0	78.0	2.5	/experiments/knapen_aot/videos/R_S_ILSVRC2015_train_00654000.mp4	0.0	288.1867768764496	2.5083701610565186
80	228.03142404556274	fix_post	2		12.0	78.0	2.5	/experiments/knapen_aot/videos/R_S_ILSVRC2015_train_00654000.mp4	0.0	290.6951470375061	0.1001589298248291
81	228.13158297538757	fix_pre	0		1.0	79.0	2.5	/experiments/knapen_aot/videos/R_S_yt-Z4W6l0eZza4_6.mp4	0.0	290.79530596733093	0.008152008056640625
81	228.1243360042572	response	0	2		79.0	2.5	/experiments/knapen_aot/videos/R_S_yt-Z4W6l0eZza4_6.mp4	0.0	290.78805899620056	
81	228.1397349834442	movie	1		301.0	79.0	2.5	/experiments/knapen_aot/videos/R_S_yt-Z4W6l0eZza4_6.mp4	0.0	290.8034579753876	2.5083138942718506
81	230.64804887771606	fix_post	2		12.0	79.0	2.5	/experiments/knapen_aot/videos/R_S_yt-Z4W6l0eZza4_6.mp4	0.0	293.3117718696594	0.10004711151123047
82	230.7480959892273	fix_pre	0		5.0	80.0	2.5	/experiments/knapen_aot/videos/R_S_yt-e_eOzV7qMZo_374.mp4	0.0	293.41181898117065	0.04159402847290039
82	230.7814679145813	response	0	2		80.0	2.5	/experiments/knapen_aot/videos/R_S_yt-e_eOzV7qMZo_374.mp4	0.0	293.44519090652466	
82	230.7896900177002	movie	1		301.0	80.0	2.5	/experiments/knapen_aot/videos/R_S_yt-e_eOzV7qMZo_374.mp4	0.0	293.45341300964355	2.508347988128662
82	233.29803800582886	fix_post	2		12.0	80.0	2.5	/experiments/knapen_aot/videos/R_S_yt-e_eOzV7qMZo_374.mp4	0.0	295.9617609977722	0.10001707077026367
83	233.39805507659912	fix_pre	0		6.0	81.0	2.5	/experiments/knapen_aot/videos/S_yt-UBqUhu-GEVg_6.mp4	0.0	296.0617780685425	0.05131697654724121
83	233.43981790542603	response	0	2		81.0	2.5	/experiments/knapen_aot/videos/S_yt-UBqUhu-GEVg_6.mp4	0.0	296.1035408973694	
83	233.44937205314636	movie	1		301.0	81.0	2.5	/experiments/knapen_aot/videos/S_yt-UBqUhu-GEVg_6.mp4	0.0	296.1130950450897	2.506999969482422
83	235.95637202262878	fix_post	2		12.0	81.0	2.5	/experiments/knapen_aot/videos/S_yt-UBqUhu-GEVg_6.mp4	0.0	298.62009501457214	0.09997391700744629
84	236.05634593963623	fix_pre	0		3.0	82.0	2.5	/experiments/knapen_aot/videos/R_S_yt-dO0OuozAgt0_225.mp4	0.0	298.7200689315796	0.025016069412231445
84	236.07318902015686	response	0	2		82.0	2.5	/experiments/knapen_aot/videos/R_S_yt-dO0OuozAgt0_225.mp4	0.0	298.7369120121002	
84	236.08136200904846	movie	1		301.0	82.0	2.5	/experiments/knapen_aot/videos/R_S_yt-dO0OuozAgt0_225.mp4	0.0	298.7450850009918	2.508362054824829
84	238.5897240638733	fix_post	2		12.0	82.0	2.5	/experiments/knapen_aot/videos/R_S_yt-dO0OuozAgt0_225.mp4	0.0	301.25344705581665	0.09993290901184082
85	238.68965697288513	fix_pre	0		5.0	83.0	2.5	blank	1.0	301.3533799648285	0.041697025299072266
85	238.7231628894806	response	0	2		83.0	2.5	blank	1.0	301.38688588142395	
85	238.7313539981842	movie	1		301.0	83.0	2.5	blank	1.0	301.39507699012756	2.5083110332489014
85	241.2396650314331	fix_post	2		12.0	83.0	2.5	blank	1.0	303.90338802337646	0.10000491142272949
87	241.33966994285583	stim	0		517.0					304.0033929347992	4.310729026794434
87	241.61475205421448	response	0	2						304.27847504615784	
87	242.34811305999756	response	0	2						305.0118360519409	
87	243.8397250175476	response	0	2						306.50344800949097	
87	244.01473593711853	response	0	2						306.6784589290619	
87	245.64269304275513	response	0	space						308.3064160346985	
