trial_nr	onset	event_type	phase	response	nr_frames	movie_index	movie_duration	movie_file	blank	onset_abs	duration
0	0.16193795204162598	stim	0		28.0					55.593461990356445	0.2373180389404297
0	0.39127612113952637	response	0	space						55.822800159454346	
1	0.39925599098205566	stim	0		121.0					55.830780029296875	1.0081241130828857
1	0.8578360080718994	response	0	space						56.28936004638672	
1	1.1574959754943848	response	0	space						56.589020013809204	
1	1.4073801040649414	stim	1		120.0					56.83890414237976	1.0000569820404053
1	1.5408070087432861	response	1	space						56.972331047058105	
1	1.9407479763031006	response	1	space						57.37227201461792	
2	2.4074370861053467	fix_pre	0		3.0	0.0	2.5	/experiments/knapen_aot/oldvideos/S_yt-R5wOWRtRmrI_36.mp4	0.0	57.838961124420166	0.024914979934692383
2	2.424180030822754	response	0	space		0.0	2.5	/experiments/knapen_aot/oldvideos/S_yt-R5wOWRtRmrI_36.mp4	0.0	57.85570406913757	
2	2.432352066040039	movie	1		301.0	0.0	2.5	/experiments/knapen_aot/oldvideos/S_yt-R5wOWRtRmrI_36.mp4	0.0	57.86387610435486	2.508357048034668
2	4.940709114074707	fix_post	2		12.0	0.0	2.5	/experiments/knapen_aot/oldvideos/S_yt-R5wOWRtRmrI_36.mp4	0.0	60.372233152389526	0.09999990463256836
3	5.040709018707275	fix_pre	0		236.0	1.0	2.5	/experiments/knapen_aot/oldvideos/S_yt-McqS-QObQbk_122.mp4	0.0	60.472233057022095	1.9665501117706299
3	7.002455949783325	response	0	2		1.0	2.5	/experiments/knapen_aot/oldvideos/S_yt-McqS-QObQbk_122.mp4	0.0	62.433979988098145	
3	7.007259130477905	movie	1		301.0	1.0	2.5	/experiments/knapen_aot/oldvideos/S_yt-McqS-QObQbk_122.mp4	0.0	62.438783168792725	2.508342981338501
3	9.515602111816406	fix_post	2		12.0	1.0	2.5	/experiments/knapen_aot/oldvideos/S_yt-McqS-QObQbk_122.mp4	0.0	64.94712615013123	0.10004496574401855
4	9.615647077560425	fix_pre	0		16.0	2.0	2.5	/experiments/knapen_aot/oldvideos/R_S_yt-uXDyvrm0Tw0_17.mp4	0.0	65.04717111587524	0.13400697708129883
4	9.740813970565796	response	0	2		2.0	2.5	/experiments/knapen_aot/oldvideos/R_S_yt-uXDyvrm0Tw0_17.mp4	0.0	65.17233800888062	
4	9.749654054641724	movie	1		301.0	2.0	2.5	/experiments/knapen_aot/oldvideos/R_S_yt-uXDyvrm0Tw0_17.mp4	0.0	65.18117809295654	2.507812023162842
4	12.257466077804565	fix_post	2		12.0	2.0	2.5	/experiments/knapen_aot/oldvideos/R_S_yt-uXDyvrm0Tw0_17.mp4	0.0	67.68899011611938	0.09979104995727539
5	12.35725712776184	fix_pre	0		32.0	3.0	2.5	/experiments/knapen_aot/oldvideos/S_comp_A050_C004_1027V8_v16_SDR_FINAL_20180706_SDR_2K_AVC.mp4	0.0	67.78878116607666	0.2673048973083496
5	12.615734100341797	response	0	2		3.0	2.5	/experiments/knapen_aot/oldvideos/S_comp_A050_C004_1027V8_v16_SDR_FINAL_20180706_SDR_2K_AVC.mp4	0.0	68.04725813865662	
5	12.62456202507019	movie	1		167.0	3.0	2.5	/experiments/knapen_aot/oldvideos/S_comp_A050_C004_1027V8_v16_SDR_FINAL_20180706_SDR_2K_AVC.mp4	0.0	68.05608606338501	2.507740020751953
5	15.132302045822144	fix_post	2		12.0	3.0	2.5	/experiments/knapen_aot/oldvideos/S_comp_A050_C004_1027V8_v16_SDR_FINAL_20180706_SDR_2K_AVC.mp4	0.0	70.56382608413696	0.0999748706817627
6	15.232276916503906	fix_pre	0		21.0	4.0	2.5	/experiments/knapen_aot/oldvideos/S_yt-O_4DgW-XKvA_35.mp4	0.0	70.66380095481873	0.17501616477966309
6	15.399100065231323	response	0	2		4.0	2.5	/experiments/knapen_aot/oldvideos/S_yt-O_4DgW-XKvA_35.mp4	0.0	70.83062410354614	
6	15.40729308128357	movie	1		301.0	4.0	2.5	/experiments/knapen_aot/oldvideos/S_yt-O_4DgW-XKvA_35.mp4	0.0	70.83881711959839	2.508333921432495
6	17.915627002716064	fix_post	2		12.0	4.0	2.5	/experiments/knapen_aot/oldvideos/S_yt-O_4DgW-XKvA_35.mp4	0.0	73.34715104103088	0.1000211238861084
7	18.015648126602173	fix_pre	0		125.0	5.0	2.5	/experiments/knapen_aot/oldvideos/S_video-6.mp4	0.0	73.44717216491699	1.0415799617767334
7	19.049127101898193	response	0	2		5.0	2.5	/experiments/knapen_aot/oldvideos/S_video-6.mp4	0.0	74.48065114021301	
7	19.057228088378906	movie	1		166.0	5.0	2.5	/experiments/knapen_aot/oldvideos/S_video-6.mp4	0.0	74.48875212669373	2.508430004119873
7	21.56565809249878	fix_post	2		12.0	5.0	2.5	/experiments/knapen_aot/oldvideos/S_video-6.mp4	0.0	76.9971821308136	0.0999138355255127
8	21.665571928024292	fix_pre	0		13.0	6.0	2.5	/experiments/knapen_aot/oldvideos/R_S_production_ID_4584682.mp4	0.0	77.09709596633911	0.10837411880493164
8	21.765646934509277	response	0	2		6.0	2.5	/experiments/knapen_aot/oldvideos/R_S_production_ID_4584682.mp4	0.0	77.1971709728241	
8	21.773946046829224	movie	1		165.0	6.0	2.5	/experiments/knapen_aot/oldvideos/R_S_production_ID_4584682.mp4	0.0	77.20547008514404	2.5084660053253174
8	24.28241205215454	fix_post	2		12.0	6.0	2.5	/experiments/knapen_aot/oldvideos/R_S_production_ID_4584682.mp4	0.0	79.71393609046936	0.09985995292663574
9	24.382272005081177	fix_pre	0		9.0	7.0	2.5	blank	1.0	79.813796043396	0.07568192481994629
9	24.44156312942505	response	0	2		7.0	2.5	blank	1.0	79.87308716773987	
9	24.457953929901123	movie	1		301.0	7.0	2.5	blank	1.0	79.88947796821594	2.5076091289520264
9	26.96556305885315	fix_post	2		12.0	7.0	2.5	blank	1.0	82.39708709716797	0.10008597373962402
10	27.065649032592773	fix_pre	0		252.0	8.0	2.5	/experiments/knapen_aot/oldvideos/S_yt-oVrkSsEpuvk_118.mp4	0.0	82.49717307090759	2.1003849506378174
10	29.15738606452942	response	0	2		8.0	2.5	/experiments/knapen_aot/oldvideos/S_yt-oVrkSsEpuvk_118.mp4	0.0	84.58891010284424	
10	29.16603398323059	movie	1		301.0	8.0	2.5	/experiments/knapen_aot/oldvideos/S_yt-oVrkSsEpuvk_118.mp4	0.0	84.59755802154541	2.507889986038208
10	31.6739239692688	fix_post	2		12.0	8.0	2.5	/experiments/knapen_aot/oldvideos/S_yt-oVrkSsEpuvk_118.mp4	0.0	87.10544800758362	0.09997701644897461
11	31.773900985717773	fix_pre	0		37.0	9.0	2.5	/experiments/knapen_aot/oldvideos/R_S_P005_C002_UHD_SDR_2K_AVC.mp4	0.0	87.20542502403259	0.30883312225341797
11	32.07406497001648	response	0	2		9.0	2.5	/experiments/knapen_aot/oldvideos/R_S_P005_C002_UHD_SDR_2K_AVC.mp4	0.0	87.5055890083313	
11	32.08273410797119	movie	1		170.0	9.0	2.5	/experiments/knapen_aot/oldvideos/R_S_P005_C002_UHD_SDR_2K_AVC.mp4	0.0	87.51425814628601	2.507750988006592
11	34.59048509597778	fix_post	2		12.0	9.0	2.5	/experiments/knapen_aot/oldvideos/R_S_P005_C002_UHD_SDR_2K_AVC.mp4	0.0	90.0220091342926	0.10004687309265137
11	34.68222904205322	response	2	4		9.0	2.5	/experiments/knapen_aot/oldvideos/R_S_P005_C002_UHD_SDR_2K_AVC.mp4	0.0	90.11375308036804	
12	34.690531969070435	fix_pre	0		145.0	10.0	2.5	/experiments/knapen_aot/oldvideos/S_comp_LW_L001_C006_PSNK_DENOISE_v02_SDR_PS_FINAL_20180709_SDR_2K_AVC.mp4	0.0	90.12205600738525	1.2083079814910889
12	35.89057993888855	response	0	4		10.0	2.5	/experiments/knapen_aot/oldvideos/S_comp_LW_L001_C006_PSNK_DENOISE_v02_SDR_PS_FINAL_20180709_SDR_2K_AVC.mp4	0.0	91.32210397720337	
12	35.89883995056152	movie	1		164.0	10.0	2.5	/experiments/knapen_aot/oldvideos/S_comp_LW_L001_C006_PSNK_DENOISE_v02_SDR_PS_FINAL_20180709_SDR_2K_AVC.mp4	0.0	91.33036398887634	2.508474111557007
12	38.40731406211853	fix_post	2		12.0	10.0	2.5	/experiments/knapen_aot/oldvideos/S_comp_LW_L001_C006_PSNK_DENOISE_v02_SDR_PS_FINAL_20180709_SDR_2K_AVC.mp4	0.0	93.83883810043335	0.09993195533752441
13	38.507246017456055	fix_pre	0		20.0	11.0	2.5	/experiments/knapen_aot/oldvideos/S_yt-_7HJhRPVmHw_255.mp4	0.0	93.93877005577087	0.16663098335266113
13	38.665717124938965	response	0	4		11.0	2.5	/experiments/knapen_aot/oldvideos/S_yt-_7HJhRPVmHw_255.mp4	0.0	94.09724116325378	
13	38.673877000808716	movie	1		301.0	11.0	2.5	/experiments/knapen_aot/oldvideos/S_yt-_7HJhRPVmHw_255.mp4	0.0	94.10540103912354	2.50839900970459
13	41.182276010513306	fix_post	2		12.0	11.0	2.5	/experiments/knapen_aot/oldvideos/S_yt-_7HJhRPVmHw_255.mp4	0.0	96.61380004882812	0.09998393058776855
14	41.282259941101074	fix_pre	0		37.0	12.0	2.5	/experiments/knapen_aot/oldvideos/S_yt-2pRKCSgdXXU_30.mp4	0.0	96.7137839794159	0.30826401710510254
14	41.582366943359375	response	0	4		12.0	2.5	/experiments/knapen_aot/oldvideos/S_yt-2pRKCSgdXXU_30.mp4	0.0	97.0138909816742	
14	41.59052395820618	movie	1		301.0	12.0	2.5	/experiments/knapen_aot/oldvideos/S_yt-2pRKCSgdXXU_30.mp4	0.0	97.022047996521	2.508308172225952
14	44.09883213043213	fix_post	2		12.0	12.0	2.5	/experiments/knapen_aot/oldvideos/S_yt-2pRKCSgdXXU_30.mp4	0.0	99.53035616874695	0.10004591941833496
15	44.198878049850464	fix_pre	0		22.0	13.0	2.5	blank	1.0	99.63040208816528	0.18332600593566895
15	44.37392807006836	response	0	4		13.0	2.5	blank	1.0	99.80545210838318	
15	44.38220405578613	movie	1		301.0	13.0	2.5	blank	1.0	99.81372809410095	2.508281946182251
15	46.890486001968384	fix_post	2		12.0	13.0	2.5	blank	1.0	102.3220100402832	0.10004305839538574
16	46.99052906036377	fix_pre	0		60.0	14.0	2.5	/experiments/knapen_aot/oldvideos/R_S_yt-yXJr3FR2xrM_27.mp4	0.0	102.42205309867859	0.499906063079834
16	47.48230004310608	response	0	4		14.0	2.5	/experiments/knapen_aot/oldvideos/R_S_yt-yXJr3FR2xrM_27.mp4	0.0	102.9138240814209	
16	47.4904351234436	movie	1		301.0	14.0	2.5	/experiments/knapen_aot/oldvideos/R_S_yt-yXJr3FR2xrM_27.mp4	0.0	102.92195916175842	2.50836181640625
16	49.99879693984985	fix_post	2		12.0	14.0	2.5	/experiments/knapen_aot/oldvideos/R_S_yt-yXJr3FR2xrM_27.mp4	0.0	105.43032097816467	0.10004496574401855
17	50.09884190559387	fix_pre	0		56.0	15.0	2.5	/experiments/knapen_aot/oldvideos/S_yt-Pinnv3-3GFU_452.mp4	0.0	105.53036594390869	0.46665000915527344
17	50.55730104446411	response	0	4		15.0	2.5	/experiments/knapen_aot/oldvideos/S_yt-Pinnv3-3GFU_452.mp4	0.0	105.98882508277893	
17	50.565491914749146	movie	1		301.0	15.0	2.5	/experiments/knapen_aot/oldvideos/S_yt-Pinnv3-3GFU_452.mp4	0.0	105.99701595306396	2.508366107940674
17	53.07385802268982	fix_post	2		12.0	15.0	2.5	/experiments/knapen_aot/oldvideos/S_yt-Pinnv3-3GFU_452.mp4	0.0	108.50538206100464	0.09995698928833008
18	53.17381501197815	fix_pre	0		46.0	16.0	2.5	/experiments/knapen_aot/oldvideos/S_comp_HK_H004_C010_PSNK_v08_SDR_PS_20181009_SDR_2K_AVC.mp4	0.0	108.60533905029297	0.38333606719970703
18	53.54896092414856	response	0	4		16.0	2.5	/experiments/knapen_aot/oldvideos/S_comp_HK_H004_C010_PSNK_v08_SDR_PS_20181009_SDR_2K_AVC.mp4	0.0	108.98048496246338	
18	53.557151079177856	movie	1		166.0	16.0	2.5	/experiments/knapen_aot/oldvideos/S_comp_HK_H004_C010_PSNK_v08_SDR_PS_20181009_SDR_2K_AVC.mp4	0.0	108.98867511749268	2.5084240436553955
18	56.06557512283325	fix_post	2		12.0	16.0	2.5	/experiments/knapen_aot/oldvideos/S_comp_HK_H004_C010_PSNK_v08_SDR_PS_20181009_SDR_2K_AVC.mp4	0.0	111.49709916114807	0.10035896301269531
19	56.16593408584595	fix_pre	0		364.0	17.0	2.5	/experiments/knapen_aot/oldvideos/R_S_yt-Xegmd8whqBs_230.mp4	0.0	111.59745812416077	3.0327749252319336
19	59.19054293632507	response	0	4		17.0	2.5	/experiments/knapen_aot/oldvideos/R_S_yt-Xegmd8whqBs_230.mp4	0.0	114.62206697463989	
19	59.19870901107788	movie	1		301.0	17.0	2.5	/experiments/knapen_aot/oldvideos/R_S_yt-Xegmd8whqBs_230.mp4	0.0	114.6302330493927	2.5085020065307617
19	61.70721101760864	fix_post	2		12.0	17.0	2.5	/experiments/knapen_aot/oldvideos/R_S_yt-Xegmd8whqBs_230.mp4	0.0	117.13873505592346	0.09992504119873047
20	61.80713605880737	fix_pre	0		35.0	18.0	2.5	/experiments/knapen_aot/oldvideos/R_S_yt-Gokv9ZtV6zo_70.mp4	0.0	117.23866009712219	0.29160594940185547
20	62.08304810523987	response	0	4		18.0	2.5	/experiments/knapen_aot/oldvideos/R_S_yt-Gokv9ZtV6zo_70.mp4	0.0	117.51457214355469	
20	62.09874200820923	movie	1		301.0	18.0	2.5	/experiments/knapen_aot/oldvideos/R_S_yt-Gokv9ZtV6zo_70.mp4	0.0	117.53026604652405	2.5083670616149902
20	64.60710906982422	fix_post	2		12.0	18.0	2.5	/experiments/knapen_aot/oldvideos/R_S_yt-Gokv9ZtV6zo_70.mp4	0.0	120.03863310813904	0.10042285919189453
21	64.70753192901611	fix_pre	0		35.0	19.0	2.5	/experiments/knapen_aot/oldvideos/R_S_yt-iAQ98zgVlds_97.mp4	0.0	120.13905596733093	0.2915041446685791
21	64.99042510986328	response	0	4		19.0	2.5	/experiments/knapen_aot/oldvideos/R_S_yt-iAQ98zgVlds_97.mp4	0.0	120.4219491481781	
21	64.99903607368469	movie	1		301.0	19.0	2.5	/experiments/knapen_aot/oldvideos/R_S_yt-iAQ98zgVlds_97.mp4	0.0	120.43056011199951	2.5080559253692627
21	67.50709199905396	fix_post	2		12.0	19.0	2.5	/experiments/knapen_aot/oldvideos/R_S_yt-iAQ98zgVlds_97.mp4	0.0	122.93861603736877	0.09993195533752441
22	67.60702395439148	fix_pre	0		177.0	20.0	2.5	/experiments/knapen_aot/oldvideos/S_yt-3EZOeAbiMQE_10.mp4	0.0	123.0385479927063	1.475348949432373
22	69.07382106781006	response	0	4		20.0	2.5	/experiments/knapen_aot/oldvideos/S_yt-3EZOeAbiMQE_10.mp4	0.0	124.50534510612488	
22	69.08237290382385	movie	1		301.0	20.0	2.5	/experiments/knapen_aot/oldvideos/S_yt-3EZOeAbiMQE_10.mp4	0.0	124.51389694213867	2.5080602169036865
22	71.59043312072754	fix_post	2		12.0	20.0	2.5	/experiments/knapen_aot/oldvideos/S_yt-3EZOeAbiMQE_10.mp4	0.0	127.02195715904236	0.10001492500305176
23	71.69044804573059	fix_pre	0		21.0	21.0	2.5	blank	1.0	127.12197208404541	0.17497706413269043
23	71.85715889930725	response	0	4		21.0	2.5	blank	1.0	127.28868293762207	
23	71.86542510986328	movie	1		301.0	21.0	2.5	blank	1.0	127.2969491481781	2.5082759857177734
23	74.37370109558105	fix_post	2		12.0	21.0	2.5	blank	1.0	129.80522513389587	0.10003185272216797
24	74.47373294830322	fix_pre	0		21.0	22.0	2.5	/experiments/knapen_aot/oldvideos/S_ILSVRC2015_train_00761000.mp4	0.0	129.90525698661804	0.17496204376220703
24	74.64040994644165	response	0	2		22.0	2.5	/experiments/knapen_aot/oldvideos/S_ILSVRC2015_train_00761000.mp4	0.0	130.07193398475647	
24	74.64869499206543	movie	1		301.0	22.0	2.5	/experiments/knapen_aot/oldvideos/S_ILSVRC2015_train_00761000.mp4	0.0	130.08021903038025	2.5083351135253906
24	77.15703010559082	fix_post	2		12.0	22.0	2.5	/experiments/knapen_aot/oldvideos/S_ILSVRC2015_train_00761000.mp4	0.0	132.58855414390564	0.10003781318664551
25	77.25706791877747	fix_pre	0		25.0	23.0	2.5	/experiments/knapen_aot/oldvideos/R_S_yt-rlEPywo5BEQ_36.mp4	0.0	132.68859195709229	0.2082970142364502
25	77.45718693733215	response	0	2		23.0	2.5	/experiments/knapen_aot/oldvideos/R_S_yt-rlEPywo5BEQ_36.mp4	0.0	132.88871097564697	
25	77.46536493301392	movie	1		301.0	23.0	2.5	/experiments/knapen_aot/oldvideos/R_S_yt-rlEPywo5BEQ_36.mp4	0.0	132.89688897132874	2.5083391666412354
25	79.97370409965515	fix_post	2		12.0	23.0	2.5	/experiments/knapen_aot/oldvideos/R_S_yt-rlEPywo5BEQ_36.mp4	0.0	135.40522813796997	0.0999908447265625
26	80.07369494438171	fix_pre	0		201.0	24.0	2.5	/experiments/knapen_aot/oldvideos/S_pexels-koolshooters-7327405.mp4	0.0	135.50521898269653	1.6751739978790283
26	81.74048399925232	response	0	2		24.0	2.5	/experiments/knapen_aot/oldvideos/S_pexels-koolshooters-7327405.mp4	0.0	137.17200803756714	
26	81.74886894226074	movie	1		163.0	24.0	2.5	/experiments/knapen_aot/oldvideos/S_pexels-koolshooters-7327405.mp4	0.0	137.18039298057556	2.508167028427124
26	84.25703597068787	fix_post	2		12.0	24.0	2.5	/experiments/knapen_aot/oldvideos/S_pexels-koolshooters-7327405.mp4	0.0	139.68856000900269	0.09996795654296875
27	84.35700392723083	fix_pre	0		7.0	25.0	2.5	/experiments/knapen_aot/oldvideos/S_ILSVRC2015_train_00001009.mp4	0.0	139.78852796554565	0.058518171310424805
27	84.40706300735474	response	0	2		25.0	2.5	/experiments/knapen_aot/oldvideos/S_ILSVRC2015_train_00001009.mp4	0.0	139.83858704566956	
27	84.41552209854126	movie	1		301.0	25.0	2.5	/experiments/knapen_aot/oldvideos/S_ILSVRC2015_train_00001009.mp4	0.0	139.84704613685608	2.5081989765167236
27	86.92372107505798	fix_post	2		12.0	25.0	2.5	/experiments/knapen_aot/oldvideos/S_ILSVRC2015_train_00001009.mp4	0.0	142.3552451133728	0.09996795654296875
28	87.02368903160095	fix_pre	0		11.0	26.0	2.5	/experiments/knapen_aot/oldvideos/S_yt-Snha8C5YOiY_26.mp4	0.0	142.45521306991577	0.09164595603942871
28	87.10715699195862	response	0	2		26.0	2.5	/experiments/knapen_aot/oldvideos/S_yt-Snha8C5YOiY_26.mp4	0.0	142.53868103027344	
28	87.11533498764038	movie	1		301.0	26.0	2.5	/experiments/knapen_aot/oldvideos/S_yt-Snha8C5YOiY_26.mp4	0.0	142.5468590259552	2.508657932281494
28	89.62399291992188	fix_post	2		12.0	26.0	2.5	/experiments/knapen_aot/oldvideos/S_yt-Snha8C5YOiY_26.mp4	0.0	145.0555169582367	0.09970402717590332
29	89.72369694709778	fix_pre	0		27.0	27.0	2.5	blank	1.0	145.1552209854126	0.2249901294708252
29	89.94044494628906	response	0	2		27.0	2.5	blank	1.0	145.37196898460388	
29	89.9486870765686	movie	1		301.0	27.0	2.5	blank	1.0	145.38021111488342	2.508604049682617
29	92.45729112625122	fix_post	2		12.0	27.0	2.5	blank	1.0	147.88881516456604	0.09973287582397461
30	92.5570240020752	fix_pre	0		36.0	28.0	2.5	/experiments/knapen_aot/oldvideos/R_S_yt-SRozDkhwx28_1463.mp4	0.0	147.98854804039001	0.29995107650756836
30	92.848788022995	response	0	2		28.0	2.5	/experiments/knapen_aot/oldvideos/R_S_yt-SRozDkhwx28_1463.mp4	0.0	148.28031206130981	
30	92.85697507858276	movie	1		301.0	28.0	2.5	/experiments/knapen_aot/oldvideos/R_S_yt-SRozDkhwx28_1463.mp4	0.0	148.28849911689758	2.5083370208740234
30	95.36531209945679	fix_post	2		12.0	28.0	2.5	/experiments/knapen_aot/oldvideos/R_S_yt-SRozDkhwx28_1463.mp4	0.0	150.7968361377716	0.0999298095703125
31	95.4652419090271	fix_pre	0		25.0	29.0	2.5	/experiments/knapen_aot/oldvideos/S_dwi2oPzQ1Wo_48.mp4	0.0	150.89676594734192	0.20828509330749512
31	95.65786504745483	response	0	2		29.0	2.5	/experiments/knapen_aot/oldvideos/S_dwi2oPzQ1Wo_48.mp4	0.0	151.08938908576965	
31	95.6735270023346	movie	1		301.0	29.0	2.5	/experiments/knapen_aot/oldvideos/S_dwi2oPzQ1Wo_48.mp4	0.0	151.1050510406494	2.508430004119873
31	98.18195700645447	fix_post	2		12.0	29.0	2.5	/experiments/knapen_aot/oldvideos/S_dwi2oPzQ1Wo_48.mp4	0.0	153.6134810447693	0.10001707077026367
32	98.28197407722473	fix_pre	0		18.0	30.0	2.5	/experiments/knapen_aot/oldvideos/S_yt-H45g6700wbc_159.mp4	0.0	153.71349811553955	0.14998888969421387
32	98.42367506027222	response	0	2		30.0	2.5	/experiments/knapen_aot/oldvideos/S_yt-H45g6700wbc_159.mp4	0.0	153.85519909858704	
32	98.43196296691895	movie	1		301.0	30.0	2.5	/experiments/knapen_aot/oldvideos/S_yt-H45g6700wbc_159.mp4	0.0	153.86348700523376	2.5083160400390625
32	100.94027900695801	fix_post	2		12.0	30.0	2.5	/experiments/knapen_aot/oldvideos/S_yt-H45g6700wbc_159.mp4	0.0	156.37180304527283	0.10008502006530762
33	101.04036402702332	fix_pre	0		201.0	31.0	2.5	/experiments/knapen_aot/oldvideos/S_yt-BQixB0mumIk_169.mp4	0.0	156.47188806533813	1.674854040145874
33	102.70700907707214	response	0	2		31.0	2.5	/experiments/knapen_aot/oldvideos/S_yt-BQixB0mumIk_169.mp4	0.0	158.13853311538696	
33	102.71521806716919	movie	1		301.0	31.0	2.5	/experiments/knapen_aot/oldvideos/S_yt-BQixB0mumIk_169.mp4	0.0	158.146742105484	2.5083768367767334
33	105.22359490394592	fix_post	2		12.0	31.0	2.5	/experiments/knapen_aot/oldvideos/S_yt-BQixB0mumIk_169.mp4	0.0	160.65511894226074	0.10040402412414551
34	105.32399892807007	fix_pre	0		45.0	32.0	2.5	/experiments/knapen_aot/oldvideos/S_nvbAwZOKBS8_23.mp4	0.0	160.7555229663849	0.3745310306549072
34	105.69036293029785	response	0	2		32.0	2.5	/experiments/knapen_aot/oldvideos/S_nvbAwZOKBS8_23.mp4	0.0	161.12188696861267	
34	105.69852995872498	movie	1		301.0	32.0	2.5	/experiments/knapen_aot/oldvideos/S_nvbAwZOKBS8_23.mp4	0.0	161.1300539970398	2.5085489749908447
34	108.20707893371582	fix_post	2		12.0	32.0	2.5	/experiments/knapen_aot/oldvideos/S_nvbAwZOKBS8_23.mp4	0.0	163.63860297203064	0.10014915466308594
35	108.3072280883789	fix_pre	0		17.0	33.0	2.5	/experiments/knapen_aot/oldvideos/S_yt-K7viJXt9vX8_143.mp4	0.0	163.73875212669373	0.14134597778320312
35	108.43289995193481	response	0	2		33.0	2.5	/experiments/knapen_aot/oldvideos/S_yt-K7viJXt9vX8_143.mp4	0.0	163.86442399024963	
35	108.44857406616211	movie	1		301.0	33.0	2.5	/experiments/knapen_aot/oldvideos/S_yt-K7viJXt9vX8_143.mp4	0.0	163.88009810447693	2.508523941040039
35	110.95709800720215	fix_post	2		12.0	33.0	2.5	/experiments/knapen_aot/oldvideos/S_yt-K7viJXt9vX8_143.mp4	0.0	166.38862204551697	0.09985899925231934
36	111.05695700645447	fix_pre	0		40.0	34.0	2.5	blank	1.0	166.4884810447693	0.3332540988922119
36	111.38206601142883	response	0	2		34.0	2.5	blank	1.0	166.81359004974365	
36	111.39021110534668	movie	1		301.0	34.0	2.5	blank	1.0	166.8217351436615	2.5083439350128174
36	113.8985550403595	fix_post	2		12.0	34.0	2.5	blank	1.0	169.33007907867432	0.10011696815490723
37	113.9986720085144	fix_pre	0		21.0	35.0	2.5	/experiments/knapen_aot/oldvideos/S_yt-kYMffy4hTMo_107.mp4	0.0	169.43019604682922	0.17484211921691895
37	114.16530990600586	response	0	2		35.0	2.5	/experiments/knapen_aot/oldvideos/S_yt-kYMffy4hTMo_107.mp4	0.0	169.59683394432068	
37	114.17351412773132	movie	1		301.0	35.0	2.5	/experiments/knapen_aot/oldvideos/S_yt-kYMffy4hTMo_107.mp4	0.0	169.60503816604614	2.5083417892456055
37	116.68185591697693	fix_post	2		12.0	35.0	2.5	/experiments/knapen_aot/oldvideos/S_yt-kYMffy4hTMo_107.mp4	0.0	172.11337995529175	0.09996414184570312
38	116.78182005882263	fix_pre	0		33.0	36.0	2.5	/experiments/knapen_aot/oldvideos/R_S_wc-AyT9mzwZsu0T_14.mp4	0.0	172.21334409713745	0.27498888969421387
38	117.04866600036621	response	0	2		36.0	2.5	/experiments/knapen_aot/oldvideos/R_S_wc-AyT9mzwZsu0T_14.mp4	0.0	172.48019003868103	
38	117.05680894851685	movie	1		163.0	36.0	2.5	/experiments/knapen_aot/oldvideos/R_S_wc-AyT9mzwZsu0T_14.mp4	0.0	172.48833298683167	2.508608102798462
38	119.56541705131531	fix_post	2		12.0	36.0	2.5	/experiments/knapen_aot/oldvideos/R_S_wc-AyT9mzwZsu0T_14.mp4	0.0	174.99694108963013	0.09982991218566895
39	119.66524696350098	fix_pre	0		16.0	37.0	2.5	/experiments/knapen_aot/oldvideos/R_S_FK_U009_C004_SDR_20191220_SDR_2K_AVC.mp4	0.0	175.0967710018158	0.13327503204345703
39	119.7902660369873	response	0	2		37.0	2.5	/experiments/knapen_aot/oldvideos/R_S_FK_U009_C004_SDR_20191220_SDR_2K_AVC.mp4	0.0	175.22179007530212	
39	119.79852199554443	movie	1		164.0	37.0	2.5	/experiments/knapen_aot/oldvideos/R_S_FK_U009_C004_SDR_20191220_SDR_2K_AVC.mp4	0.0	175.23004603385925	2.50871205329895
39	122.30723404884338	fix_post	2		12.0	37.0	2.5	/experiments/knapen_aot/oldvideos/R_S_FK_U009_C004_SDR_20191220_SDR_2K_AVC.mp4	0.0	177.7387580871582	0.09980297088623047
40	122.40703701972961	fix_pre	0		173.0	38.0	2.5	/experiments/knapen_aot/oldvideos/R_S_wc-eJe3wXMgTLRV_20.mp4	0.0	177.83856105804443	1.4414091110229492
40	123.84024906158447	response	0	2		38.0	2.5	/experiments/knapen_aot/oldvideos/R_S_wc-eJe3wXMgTLRV_20.mp4	0.0	179.2717730998993	
40	123.84844613075256	movie	1		164.0	38.0	2.5	/experiments/knapen_aot/oldvideos/R_S_wc-eJe3wXMgTLRV_20.mp4	0.0	179.27997016906738	2.5083940029144287
40	126.35684013366699	fix_post	2		12.0	38.0	2.5	/experiments/knapen_aot/oldvideos/R_S_wc-eJe3wXMgTLRV_20.mp4	0.0	181.7883641719818	0.10005593299865723
41	126.45689606666565	fix_pre	0		25.0	39.0	2.5	/experiments/knapen_aot/oldvideos/R_S_yt-JTBXPfbkjsA_11.mp4	0.0	181.88842010498047	0.20819592475891113
41	126.65691304206848	response	0	2		39.0	2.5	/experiments/knapen_aot/oldvideos/R_S_yt-JTBXPfbkjsA_11.mp4	0.0	182.0884370803833	
41	126.66509199142456	movie	1		301.0	39.0	2.5	/experiments/knapen_aot/oldvideos/R_S_yt-JTBXPfbkjsA_11.mp4	0.0	182.09661602973938	2.5084080696105957
41	129.17350006103516	fix_post	2		12.0	39.0	2.5	/experiments/knapen_aot/oldvideos/R_S_yt-JTBXPfbkjsA_11.mp4	0.0	184.60502409934998	0.09998798370361328
42	129.27348804473877	fix_pre	0		49.0	40.0	2.5	/experiments/knapen_aot/oldvideos/S_production_ID_4584682.mp4	0.0	184.7050120830536	0.40837597846984863
42	129.6736090183258	response	0	2		40.0	2.5	/experiments/knapen_aot/oldvideos/S_production_ID_4584682.mp4	0.0	185.10513305664062	
42	129.68186402320862	movie	1		165.0	40.0	2.5	/experiments/knapen_aot/oldvideos/S_production_ID_4584682.mp4	0.0	185.11338806152344	2.5082530975341797
42	132.1901171207428	fix_post	2		12.0	40.0	2.5	/experiments/knapen_aot/oldvideos/S_production_ID_4584682.mp4	0.0	187.62164115905762	0.10005879402160645
43	132.2901759147644	fix_pre	0		194.0	41.0	2.5	/experiments/knapen_aot/oldvideos/R_S_pexels-mart-production-7698693.mp4	0.0	187.72169995307922	1.6165812015533447
43	133.8985481262207	response	0	2		41.0	2.5	/experiments/knapen_aot/oldvideos/R_S_pexels-mart-production-7698693.mp4	0.0	189.33007216453552	
43	133.90675711631775	movie	1		195.0	41.0	2.5	/experiments/knapen_aot/oldvideos/R_S_pexels-mart-production-7698693.mp4	0.0	189.33828115463257	2.5083680152893066
43	136.41512513160706	fix_post	2		12.0	41.0	2.5	/experiments/knapen_aot/oldvideos/R_S_pexels-mart-production-7698693.mp4	0.0	191.84664916992188	0.1000068187713623
44	136.51513195037842	fix_pre	0		15.0	42.0	2.5	blank	1.0	191.94665598869324	0.12502217292785645
44	136.63190007209778	response	0	4		42.0	2.5	blank	1.0	192.0634241104126	
44	136.64015412330627	movie	1		301.0	42.0	2.5	blank	1.0	192.0716781616211	2.5082688331604004
44	139.14842295646667	fix_post	2		12.0	42.0	2.5	blank	1.0	194.5799469947815	0.10005903244018555
45	139.24848198890686	fix_pre	0		22.0	43.0	2.5	/experiments/knapen_aot/oldvideos/R_S_yt-rlEPywo5BEQ_36.mp4	0.0	194.68000602722168	0.1832120418548584
45	139.42353701591492	response	0	4		43.0	2.5	/experiments/knapen_aot/oldvideos/R_S_yt-rlEPywo5BEQ_36.mp4	0.0	194.85506105422974	
45	139.43169403076172	movie	1		301.0	43.0	2.5	/experiments/knapen_aot/oldvideos/R_S_yt-rlEPywo5BEQ_36.mp4	0.0	194.86321806907654	2.5083489418029785
45	141.9400429725647	fix_post	2		12.0	43.0	2.5	/experiments/knapen_aot/oldvideos/R_S_yt-rlEPywo5BEQ_36.mp4	0.0	197.37156701087952	0.10018610954284668
46	142.04022908210754	fix_pre	0		23.0	44.0	2.5	/experiments/knapen_aot/oldvideos/R_S_ILSVRC2015_train_00768000.mp4	0.0	197.47175312042236	0.1914830207824707
46	142.22349190711975	response	0	4		44.0	2.5	/experiments/knapen_aot/oldvideos/R_S_ILSVRC2015_train_00768000.mp4	0.0	197.65501594543457	
46	142.23171210289001	movie	1		301.0	44.0	2.5	/experiments/knapen_aot/oldvideos/R_S_ILSVRC2015_train_00768000.mp4	0.0	197.66323614120483	2.5083680152893066
46	144.74008011817932	fix_post	2		12.0	44.0	2.5	/experiments/knapen_aot/oldvideos/R_S_ILSVRC2015_train_00768000.mp4	0.0	200.17160415649414	0.10000801086425781
47	144.84008812904358	fix_pre	0		116.0	45.0	2.5	/experiments/knapen_aot/oldvideos/R_S_yt-mDil5vGZb14_4049.mp4	0.0	200.2716121673584	0.9665849208831787
47	145.79849004745483	response	0	4		45.0	2.5	/experiments/knapen_aot/oldvideos/R_S_yt-mDil5vGZb14_4049.mp4	0.0	201.23001408576965	
47	145.80667304992676	movie	1		301.0	45.0	2.5	/experiments/knapen_aot/oldvideos/R_S_yt-mDil5vGZb14_4049.mp4	0.0	201.23819708824158	2.5084569454193115
47	148.31512999534607	fix_post	2		12.0	45.0	2.5	/experiments/knapen_aot/oldvideos/R_S_yt-mDil5vGZb14_4049.mp4	0.0	203.7466540336609	0.09993791580200195
48	148.41506791114807	fix_pre	0		42.0	46.0	2.5	/experiments/knapen_aot/oldvideos/R_S_yt-2pRKCSgdXXU_30.mp4	0.0	203.8465919494629	0.3500051498413086
48	148.7568700313568	response	0	4		46.0	2.5	/experiments/knapen_aot/oldvideos/R_S_yt-2pRKCSgdXXU_30.mp4	0.0	204.18839406967163	
48	148.76507306098938	movie	1		301.0	46.0	2.5	/experiments/knapen_aot/oldvideos/R_S_yt-2pRKCSgdXXU_30.mp4	0.0	204.1965970993042	2.508347988128662
48	151.27342104911804	fix_post	2		12.0	46.0	2.5	/experiments/knapen_aot/oldvideos/R_S_yt-2pRKCSgdXXU_30.mp4	0.0	206.70494508743286	0.09998297691345215
49	151.3734040260315	fix_pre	0		9.0	47.0	2.5	blank	1.0	206.8049280643463	0.07497310638427734
49	151.44019103050232	response	0	4		47.0	2.5	blank	1.0	206.87171506881714	
49	151.44837713241577	movie	1		301.0	47.0	2.5	blank	1.0	206.8799011707306	2.508358955383301
49	153.95673608779907	fix_post	2		12.0	47.0	2.5	blank	1.0	209.3882601261139	0.10022687911987305
50	154.05696296691895	fix_pre	0		15.0	48.0	2.5	/experiments/knapen_aot/oldvideos/R_S_yt-yJmHtBFyhH4_15.mp4	0.0	209.48848700523376	0.12477707862854004
50	154.17351508140564	response	0	4		48.0	2.5	/experiments/knapen_aot/oldvideos/R_S_yt-yJmHtBFyhH4_15.mp4	0.0	209.60503911972046	
50	154.18174004554749	movie	1		301.0	48.0	2.5	/experiments/knapen_aot/oldvideos/R_S_yt-yJmHtBFyhH4_15.mp4	0.0	209.6132640838623	2.5083260536193848
50	156.69006609916687	fix_post	2		12.0	48.0	2.5	/experiments/knapen_aot/oldvideos/R_S_yt-yJmHtBFyhH4_15.mp4	0.0	212.1215901374817	0.10002303123474121
51	156.7900891304016	fix_pre	0		32.0	49.0	2.5	/experiments/knapen_aot/oldvideos/R_S_yt-SRozDkhwx28_1463.mp4	0.0	212.22161316871643	0.26661181449890137
51	157.04848408699036	response	0	4		49.0	2.5	/experiments/knapen_aot/oldvideos/R_S_yt-SRozDkhwx28_1463.mp4	0.0	212.48000812530518	
51	157.0567009449005	movie	1		301.0	49.0	2.5	/experiments/knapen_aot/oldvideos/R_S_yt-SRozDkhwx28_1463.mp4	0.0	212.48822498321533	2.5083560943603516
51	159.56505703926086	fix_post	2		12.0	49.0	2.5	/experiments/knapen_aot/oldvideos/R_S_yt-SRozDkhwx28_1463.mp4	0.0	214.99658107757568	0.09999704360961914
52	159.66505408287048	fix_pre	0		113.0	50.0	2.5	/experiments/knapen_aot/oldvideos/S_yt-Kwfwhd07dVo_2.mp4	0.0	215.0965781211853	0.9416229724884033
52	160.59857511520386	response	0	4		50.0	2.5	/experiments/knapen_aot/oldvideos/S_yt-Kwfwhd07dVo_2.mp4	0.0	216.03009915351868	
52	160.6066770553589	movie	1		301.0	50.0	2.5	/experiments/knapen_aot/oldvideos/S_yt-Kwfwhd07dVo_2.mp4	0.0	216.0382010936737	2.5083649158477783
52	163.11504197120667	fix_post	2		12.0	50.0	2.5	/experiments/knapen_aot/oldvideos/S_yt-Kwfwhd07dVo_2.mp4	0.0	218.54656600952148	0.1002039909362793
53	163.21524596214294	fix_pre	0		20.0	51.0	2.5	/experiments/knapen_aot/oldvideos/R_S_yt--cAfxH1WnPo_3.mp4	0.0	218.64677000045776	0.1664130687713623
53	163.37355589866638	response	0	4		51.0	2.5	/experiments/knapen_aot/oldvideos/R_S_yt--cAfxH1WnPo_3.mp4	0.0	218.8050799369812	
53	163.3816590309143	movie	1		301.0	51.0	2.5	/experiments/knapen_aot/oldvideos/R_S_yt--cAfxH1WnPo_3.mp4	0.0	218.81318306922913	2.5083789825439453
53	165.89003801345825	fix_post	2		12.0	51.0	2.5	/experiments/knapen_aot/oldvideos/R_S_yt--cAfxH1WnPo_3.mp4	0.0	221.32156205177307	0.09996294975280762
54	165.99000096321106	fix_pre	0		43.0	52.0	2.5	/experiments/knapen_aot/oldvideos/R_S_yt-7Ya-rGPO8cM_159.mp4	0.0	221.42152500152588	0.35834598541259766
54	166.3401379585266	response	0	4		52.0	2.5	/experiments/knapen_aot/oldvideos/R_S_yt-7Ya-rGPO8cM_159.mp4	0.0	221.77166199684143	
54	166.34834694862366	movie	1		301.0	52.0	2.5	/experiments/knapen_aot/oldvideos/R_S_yt-7Ya-rGPO8cM_159.mp4	0.0	221.77987098693848	2.5083351135253906
54	168.85668206214905	fix_post	2		12.0	52.0	2.5	/experiments/knapen_aot/oldvideos/R_S_yt-7Ya-rGPO8cM_159.mp4	0.0	224.28820610046387	0.10000300407409668
55	168.95668506622314	fix_pre	0		172.0	53.0	2.5	/experiments/knapen_aot/oldvideos/S_video_inspire_oregon_lone-ranch-beach_00021.1080-h264.mp4	0.0	224.38820910453796	1.4333088397979736
55	170.38185811042786	response	0	4		53.0	2.5	/experiments/knapen_aot/oldvideos/S_video_inspire_oregon_lone-ranch-beach_00021.1080-h264.mp4	0.0	225.81338214874268	
55	170.38999390602112	movie	1		167.0	53.0	2.5	/experiments/knapen_aot/oldvideos/S_video_inspire_oregon_lone-ranch-beach_00021.1080-h264.mp4	0.0	225.82151794433594	2.508625030517578
55	172.8986189365387	fix_post	2		12.0	53.0	2.5	/experiments/knapen_aot/oldvideos/S_video_inspire_oregon_lone-ranch-beach_00021.1080-h264.mp4	0.0	228.33014297485352	0.09972405433654785
56	172.99834299087524	fix_pre	0		3.0	54.0	2.5	/experiments/knapen_aot/oldvideos/R_S_yt-Pinnv3-3GFU_452.mp4	0.0	228.42986702919006	0.024997949600219727
56	173.01512813568115	response	0	4		54.0	2.5	/experiments/knapen_aot/oldvideos/R_S_yt-Pinnv3-3GFU_452.mp4	0.0	228.44665217399597	
56	173.02334094047546	movie	1		301.0	54.0	2.5	/experiments/knapen_aot/oldvideos/R_S_yt-Pinnv3-3GFU_452.mp4	0.0	228.45486497879028	2.5083091259002686
56	175.53165006637573	fix_post	2		12.0	54.0	2.5	/experiments/knapen_aot/oldvideos/R_S_yt-Pinnv3-3GFU_452.mp4	0.0	230.96317410469055	0.10004496574401855
57	175.63169503211975	fix_pre	0		18.0	55.0	2.5	/experiments/knapen_aot/oldvideos/R_S_yt-isJga8ec5UM_32.mp4	0.0	231.06321907043457	0.151170015335083
57	175.77341103553772	response	0	4		55.0	2.5	/experiments/knapen_aot/oldvideos/R_S_yt-isJga8ec5UM_32.mp4	0.0	231.20493507385254	
57	175.78286504745483	movie	1		301.0	55.0	2.5	/experiments/knapen_aot/oldvideos/R_S_yt-isJga8ec5UM_32.mp4	0.0	231.21438908576965	2.5073440074920654
57	178.2902090549469	fix_post	2		12.0	55.0	2.5	/experiments/knapen_aot/oldvideos/R_S_yt-isJga8ec5UM_32.mp4	0.0	233.72173309326172	0.09970498085021973
58	178.38991403579712	fix_pre	0		105.0	56.0	2.5	blank	1.0	233.82143807411194	0.8749949932098389
58	179.25674891471863	response	0	4		56.0	2.5	blank	1.0	234.68827295303345	
58	179.26490902900696	movie	1		301.0	56.0	2.5	blank	1.0	234.69643306732178	2.5083560943603516
58	181.7732651233673	fix_post	2		12.0	56.0	2.5	blank	1.0	237.20478916168213	0.10000991821289062
59	181.8732750415802	fix_pre	0		76.0	57.0	2.5	/experiments/knapen_aot/oldvideos/R_S_production_ID_3735542.mp4	0.0	237.30479907989502	0.6332628726959229
59	182.498309135437	response	0	4		57.0	2.5	/experiments/knapen_aot/oldvideos/R_S_production_ID_3735542.mp4	0.0	237.92983317375183	
59	182.50653791427612	movie	1		166.0	57.0	2.5	/experiments/knapen_aot/oldvideos/R_S_production_ID_3735542.mp4	0.0	237.93806195259094	2.5084149837493896
59	185.0149528980255	fix_post	2		12.0	57.0	2.5	/experiments/knapen_aot/oldvideos/R_S_production_ID_3735542.mp4	0.0	240.44647693634033	0.1011810302734375
60	185.11613392829895	fix_pre	0		31.0	58.0	2.5	/experiments/knapen_aot/oldvideos/S_yt-B7ZRYVhfW2U_52.mp4	0.0	240.54765796661377	0.2571980953216553
60	185.36511492729187	response	0	4		58.0	2.5	/experiments/knapen_aot/oldvideos/S_yt-B7ZRYVhfW2U_52.mp4	0.0	240.7966389656067	
60	185.3733320236206	movie	1		301.0	58.0	2.5	/experiments/knapen_aot/oldvideos/S_yt-B7ZRYVhfW2U_52.mp4	0.0	240.80485606193542	2.5083069801330566
60	187.88163900375366	fix_post	2		12.0	58.0	2.5	/experiments/knapen_aot/oldvideos/S_yt-B7ZRYVhfW2U_52.mp4	0.0	243.31316304206848	0.09997892379760742
61	187.98161792755127	fix_pre	0		22.0	59.0	2.5	/experiments/knapen_aot/oldvideos/R_S_yt-8RmEimCI80g_35.mp4	0.0	243.4131419658661	0.18326497077941895
61	188.1566550731659	response	0	4		59.0	2.5	/experiments/knapen_aot/oldvideos/R_S_yt-8RmEimCI80g_35.mp4	0.0	243.5881791114807	
61	188.1648828983307	movie	1		301.0	59.0	2.5	/experiments/knapen_aot/oldvideos/R_S_yt-8RmEimCI80g_35.mp4	0.0	243.5964069366455	2.508355140686035
61	190.67323803901672	fix_post	2		12.0	59.0	2.5	/experiments/knapen_aot/oldvideos/R_S_yt-8RmEimCI80g_35.mp4	0.0	246.10476207733154	0.09999608993530273
62	190.77323412895203	fix_pre	0		21.0	60.0	2.5	/experiments/knapen_aot/oldvideos/R_S_pexels-cottonbro-6789228.mp4	0.0	246.20475816726685	0.17606377601623535
62	190.93998908996582	response	0	4		60.0	2.5	/experiments/knapen_aot/oldvideos/R_S_pexels-cottonbro-6789228.mp4	0.0	246.37151312828064	
62	190.94929790496826	movie	1		199.0	60.0	2.5	/experiments/knapen_aot/oldvideos/R_S_pexels-cottonbro-6789228.mp4	0.0	246.38082194328308	2.5071961879730225
62	193.45649409294128	fix_post	2		12.0	60.0	2.5	/experiments/knapen_aot/oldvideos/R_S_pexels-cottonbro-6789228.mp4	0.0	248.8880181312561	0.10008382797241211
63	193.5565779209137	fix_pre	0		19.0	61.0	2.5	blank	1.0	248.98810195922852	0.15828418731689453
63	193.7066650390625	response	0	4		61.0	2.5	blank	1.0	249.13818907737732	
63	193.7148621082306	movie	1		301.0	61.0	2.5	blank	1.0	249.1463861465454	2.508366823196411
63	196.223228931427	fix_post	2		12.0	61.0	2.5	blank	1.0	251.65475296974182	0.100067138671875
64	196.32329607009888	fix_pre	0		23.0	62.0	2.5	/experiments/knapen_aot/oldvideos/S_yt-3aTDYxyF6bc_35.mp4	0.0	251.7548201084137	0.1915130615234375
64	196.50658893585205	response	0	4		62.0	2.5	/experiments/knapen_aot/oldvideos/S_yt-3aTDYxyF6bc_35.mp4	0.0	251.93811297416687	
64	196.51480913162231	movie	1		301.0	62.0	2.5	/experiments/knapen_aot/oldvideos/S_yt-3aTDYxyF6bc_35.mp4	0.0	251.94633316993713	2.5083868503570557
64	199.02319598197937	fix_post	2		12.0	62.0	2.5	/experiments/knapen_aot/oldvideos/S_yt-3aTDYxyF6bc_35.mp4	0.0	254.4547200202942	0.10007095336914062
65	199.1232669353485	fix_pre	0		18.0	63.0	2.5	/experiments/knapen_aot/oldvideos/R_S_yt-XbigWWtnGL4_75.mp4	0.0	254.55479097366333	0.14990901947021484
65	199.26495504379272	response	0	4		63.0	2.5	/experiments/knapen_aot/oldvideos/R_S_yt-XbigWWtnGL4_75.mp4	0.0	254.69647908210754	
65	199.27317595481873	movie	1		301.0	63.0	2.5	/experiments/knapen_aot/oldvideos/R_S_yt-XbigWWtnGL4_75.mp4	0.0	254.70469999313354	2.508424997329712
65	201.78160095214844	fix_post	2		12.0	63.0	2.5	/experiments/knapen_aot/oldvideos/R_S_yt-XbigWWtnGL4_75.mp4	0.0	257.21312499046326	0.10002899169921875
66	201.88162994384766	fix_pre	0		25.0	64.0	2.5	/experiments/knapen_aot/oldvideos/R_S_yt-O_4DgW-XKvA_35.mp4	0.0	257.3131539821625	0.20819616317749023
66	202.08157205581665	response	0	4		64.0	2.5	/experiments/knapen_aot/oldvideos/R_S_yt-O_4DgW-XKvA_35.mp4	0.0	257.51309609413147	
66	202.08982610702515	movie	1		301.0	64.0	2.5	/experiments/knapen_aot/oldvideos/R_S_yt-O_4DgW-XKvA_35.mp4	0.0	257.52135014533997	2.508359909057617
66	204.59818601608276	fix_post	2		12.0	64.0	2.5	/experiments/knapen_aot/oldvideos/R_S_yt-O_4DgW-XKvA_35.mp4	0.0	260.0297100543976	0.09991908073425293
67	204.69810509681702	fix_pre	0		14.0	65.0	2.5	/experiments/knapen_aot/oldvideos/S_Pexels_Videos_2795737.mp4	0.0	260.12962913513184	0.11670398712158203
67	204.8065550327301	response	0	4		65.0	2.5	/experiments/knapen_aot/oldvideos/S_Pexels_Videos_2795737.mp4	0.0	260.2380790710449	
67	204.8148090839386	movie	1		169.0	65.0	2.5	/experiments/knapen_aot/oldvideos/S_Pexels_Videos_2795737.mp4	0.0	260.2463331222534	2.5083489418029785
67	207.32315802574158	fix_post	2		12.0	65.0	2.5	/experiments/knapen_aot/oldvideos/S_Pexels_Videos_2795737.mp4	0.0	262.7546820640564	0.10013389587402344
68	207.4232919216156	fix_pre	0		26.0	66.0	2.5	/experiments/knapen_aot/oldvideos/S_b2-2.mp4	0.0	262.8548159599304	0.216508150100708
68	207.63156390190125	response	0	4		66.0	2.5	/experiments/knapen_aot/oldvideos/S_b2-2.mp4	0.0	263.06308794021606	
68	207.6398000717163	movie	1		169.0	66.0	2.5	/experiments/knapen_aot/oldvideos/S_b2-2.mp4	0.0	263.0713241100311	2.508316993713379
68	210.1481170654297	fix_post	2		12.0	66.0	2.5	/experiments/knapen_aot/oldvideos/S_b2-2.mp4	0.0	265.5796411037445	0.10005998611450195
69	210.2481770515442	fix_pre	0		172.0	67.0	2.5	/experiments/knapen_aot/oldvideos/R_S_comp_N013_C004_PS_v01_SDR_PS_20180925_F1970F7193_SDR_2K_AVC.mp4	0.0	265.679701089859	1.4332690238952637
69	211.67327094078064	response	0	4		67.0	2.5	/experiments/knapen_aot/oldvideos/R_S_comp_N013_C004_PS_v01_SDR_PS_20180925_F1970F7193_SDR_2K_AVC.mp4	0.0	267.10479497909546	
69	211.68144607543945	movie	1		167.0	67.0	2.5	/experiments/knapen_aot/oldvideos/R_S_comp_N013_C004_PS_v01_SDR_PS_20180925_F1970F7193_SDR_2K_AVC.mp4	0.0	267.1129701137543	2.508388042449951
69	214.1898341178894	fix_post	2		12.0	67.0	2.5	/experiments/knapen_aot/oldvideos/R_S_comp_N013_C004_PS_v01_SDR_PS_20180925_F1970F7193_SDR_2K_AVC.mp4	0.0	269.6213581562042	0.09998393058776855
70	214.28981804847717	fix_pre	0		28.0	68.0	2.5	/experiments/knapen_aot/oldvideos/S_production_ID_3712945.mp4	0.0	269.721342086792	0.23329496383666992
70	214.5149130821228	response	0	4		68.0	2.5	/experiments/knapen_aot/oldvideos/S_production_ID_3712945.mp4	0.0	269.9464371204376	
70	214.52311301231384	movie	1		196.0	68.0	2.5	/experiments/knapen_aot/oldvideos/S_production_ID_3712945.mp4	0.0	269.95463705062866	2.508737087249756
70	217.0318500995636	fix_post	2		12.0	68.0	2.5	/experiments/knapen_aot/oldvideos/S_production_ID_3712945.mp4	0.0	272.4633741378784	0.0995488166809082
71	217.1313989162445	fix_pre	0		49.0	69.0	2.5	/experiments/knapen_aot/oldvideos/S_yt-QI6k6mhpxLo_453.mp4	0.0	272.5629229545593	0.40833520889282227
71	217.52401208877563	response	0	2		69.0	2.5	/experiments/knapen_aot/oldvideos/S_yt-QI6k6mhpxLo_453.mp4	0.0	272.95553612709045	
71	217.53973412513733	movie	1		301.0	69.0	2.5	/experiments/knapen_aot/oldvideos/S_yt-QI6k6mhpxLo_453.mp4	0.0	272.97125816345215	2.5083518028259277
71	220.04808592796326	fix_post	2		12.0	69.0	2.5	/experiments/knapen_aot/oldvideos/S_yt-QI6k6mhpxLo_453.mp4	0.0	275.4796099662781	0.10022115707397461
72	220.14830708503723	fix_pre	0		44.0	70.0	2.5	blank	1.0	275.57983112335205	0.36653590202331543
72	220.50652194023132	response	0	2		70.0	2.5	blank	1.0	275.93804597854614	
72	220.51484298706055	movie	1		301.0	70.0	2.5	blank	1.0	275.94636702537537	2.508233070373535
72	223.02307605743408	fix_post	2		12.0	70.0	2.5	blank	1.0	278.4546000957489	0.09997296333312988
73	223.1230490207672	fix_pre	0		115.0	71.0	2.5	/experiments/knapen_aot/oldvideos/S_flickr-53807584@N00-5565833509_7.mp4	0.0	278.55457305908203	0.9583120346069336
73	224.07322001457214	response	0	2		71.0	2.5	/experiments/knapen_aot/oldvideos/S_flickr-53807584@N00-5565833509_7.mp4	0.0	279.50474405288696	
73	224.08136105537415	movie	1		301.0	71.0	2.5	/experiments/knapen_aot/oldvideos/S_flickr-53807584@N00-5565833509_7.mp4	0.0	279.51288509368896	2.5083889961242676
73	226.5897500514984	fix_post	2		12.0	71.0	2.5	/experiments/knapen_aot/oldvideos/S_flickr-53807584@N00-5565833509_7.mp4	0.0	282.02127408981323	0.10000205039978027
74	226.6897521018982	fix_pre	0		18.0	72.0	2.5	/experiments/knapen_aot/oldvideos/S_production_ID_3712945.mp4	0.0	282.121276140213	0.14990687370300293
74	226.83154010772705	response	0	2		72.0	2.5	/experiments/knapen_aot/oldvideos/S_production_ID_3712945.mp4	0.0	282.26306414604187	
74	226.8396589756012	movie	1		194.0	72.0	2.5	/experiments/knapen_aot/oldvideos/S_production_ID_3712945.mp4	0.0	282.271183013916	2.5084011554718018
74	229.348060131073	fix_post	2		12.0	72.0	2.5	/experiments/knapen_aot/oldvideos/S_production_ID_3712945.mp4	0.0	284.7795841693878	0.09998583793640137
75	229.4480459690094	fix_pre	0		17.0	73.0	2.5	/experiments/knapen_aot/oldvideos/R_S_comp_LA_A006_C004_v01_SDR_FINAL_PS_20180730_SDR_2K_AVC.mp4	0.0	284.8795700073242	0.14159512519836426
75	229.58164191246033	response	0	2		73.0	2.5	/experiments/knapen_aot/oldvideos/R_S_comp_LA_A006_C004_v01_SDR_FINAL_PS_20180730_SDR_2K_AVC.mp4	0.0	285.01316595077515	
75	229.58964109420776	movie	1		169.0	73.0	2.5	/experiments/knapen_aot/oldvideos/R_S_comp_LA_A006_C004_v01_SDR_FINAL_PS_20180730_SDR_2K_AVC.mp4	0.0	285.0211651325226	2.508478879928589
75	232.09811997413635	fix_post	2		12.0	73.0	2.5	/experiments/knapen_aot/oldvideos/R_S_comp_LA_A006_C004_v01_SDR_FINAL_PS_20180730_SDR_2K_AVC.mp4	0.0	287.5296440124512	0.09988903999328613
76	232.19800901412964	fix_pre	0		11.0	74.0	2.5	/experiments/knapen_aot/oldvideos/S_yt-bD1U6bo-6bE_465.mp4	0.0	287.62953305244446	0.09167695045471191
76	232.28153491020203	response	0	2		74.0	2.5	/experiments/knapen_aot/oldvideos/S_yt-bD1U6bo-6bE_465.mp4	0.0	287.71305894851685	
76	232.28968596458435	movie	1		301.0	74.0	2.5	/experiments/knapen_aot/oldvideos/S_yt-bD1U6bo-6bE_465.mp4	0.0	287.72121000289917	2.508281946182251
76	234.7979679107666	fix_post	2		12.0	74.0	2.5	/experiments/knapen_aot/oldvideos/S_yt-bD1U6bo-6bE_465.mp4	0.0	290.2294919490814	0.10012102127075195
77	234.89808893203735	fix_pre	0		110.0	75.0	2.5	/experiments/knapen_aot/oldvideos/S_video_inspire_oregon_lone-ranch-beach_00021.1080-h264.mp4	0.0	290.3296129703522	0.9165570735931396
77	235.806489944458	response	0	2		75.0	2.5	/experiments/knapen_aot/oldvideos/S_video_inspire_oregon_lone-ranch-beach_00021.1080-h264.mp4	0.0	291.2380139827728	
77	235.8146460056305	movie	1		165.0	75.0	2.5	/experiments/knapen_aot/oldvideos/S_video_inspire_oregon_lone-ranch-beach_00021.1080-h264.mp4	0.0	291.2461700439453	2.508357048034668
77	238.32300305366516	fix_post	2		12.0	75.0	2.5	/experiments/knapen_aot/oldvideos/S_video_inspire_oregon_lone-ranch-beach_00021.1080-h264.mp4	0.0	293.75452709198	0.10001492500305176
78	238.4230179786682	fix_pre	0		4.0	76.0	2.5	blank	1.0	293.85454201698303	0.033319950103759766
78	238.4480640888214	response	0	2		76.0	2.5	blank	1.0	293.87958812713623	
78	238.45633792877197	movie	1		301.0	76.0	2.5	blank	1.0	293.8878619670868	2.508385181427002
78	240.96472311019897	fix_post	2		12.0	76.0	2.5	blank	1.0	296.3962471485138	0.10001683235168457
79	241.06473994255066	fix_pre	0		21.0	77.0	2.5	/experiments/knapen_aot/oldvideos/S_yt-zgimmOcW5Mc_127.mp4	0.0	296.4962639808655	0.17582917213439941
79	241.231379032135	response	0	2		77.0	2.5	/experiments/knapen_aot/oldvideos/S_yt-zgimmOcW5Mc_127.mp4	0.0	296.66290307044983	
79	241.24056911468506	movie	1		301.0	77.0	2.5	/experiments/knapen_aot/oldvideos/S_yt-zgimmOcW5Mc_127.mp4	0.0	296.6720931529999	2.5074589252471924
79	243.74802803993225	fix_post	2		12.0	77.0	2.5	/experiments/knapen_aot/oldvideos/S_yt-zgimmOcW5Mc_127.mp4	0.0	299.17955207824707	0.10018396377563477
80	243.84821200370789	fix_pre	0		15.0	78.0	2.5	/experiments/knapen_aot/oldvideos/S_yt-0xzYSBvVfYM_197.mp4	0.0	299.2797360420227	0.12477612495422363
80	243.96476101875305	response	0	2		78.0	2.5	/experiments/knapen_aot/oldvideos/S_yt-0xzYSBvVfYM_197.mp4	0.0	299.39628505706787	
80	243.9729881286621	movie	1		301.0	78.0	2.5	/experiments/knapen_aot/oldvideos/S_yt-0xzYSBvVfYM_197.mp4	0.0	299.40451216697693	2.5084128379821777
80	246.4814009666443	fix_post	2		12.0	78.0	2.5	/experiments/knapen_aot/oldvideos/S_yt-0xzYSBvVfYM_197.mp4	0.0	301.9129250049591	0.1000211238861084
81	246.5814220905304	fix_pre	0		31.0	79.0	2.5	/experiments/knapen_aot/oldvideos/S_yt-I9uf7kAccFA_229.mp4	0.0	302.0129461288452	0.25818800926208496
81	246.83138012886047	response	0	2		79.0	2.5	/experiments/knapen_aot/oldvideos/S_yt-I9uf7kAccFA_229.mp4	0.0	302.2629041671753	
81	246.83961009979248	movie	1		301.0	79.0	2.5	/experiments/knapen_aot/oldvideos/S_yt-I9uf7kAccFA_229.mp4	0.0	302.2711341381073	2.508344888687134
81	249.34795498847961	fix_post	2		12.0	79.0	2.5	/experiments/knapen_aot/oldvideos/S_yt-I9uf7kAccFA_229.mp4	0.0	304.77947902679443	0.10000109672546387
82	249.44795608520508	fix_pre	0		44.0	80.0	2.5	/experiments/knapen_aot/oldvideos/R_S_production_ID_3712945.mp4	0.0	304.8794801235199	0.3666360378265381
82	249.8063769340515	response	0	2		80.0	2.5	/experiments/knapen_aot/oldvideos/R_S_production_ID_3712945.mp4	0.0	305.23790097236633	
82	249.81459212303162	movie	1		192.0	80.0	2.5	/experiments/knapen_aot/oldvideos/R_S_production_ID_3712945.mp4	0.0	305.24611616134644	2.508612871170044
82	252.32320499420166	fix_post	2		12.0	80.0	2.5	/experiments/knapen_aot/oldvideos/R_S_production_ID_3712945.mp4	0.0	307.7547290325165	0.09975314140319824
83	252.42295813560486	fix_pre	0		24.0	81.0	2.5	/experiments/knapen_aot/oldvideos/R_S_yt-w_e3sxIzepA_115.mp4	0.0	307.8544821739197	0.19995880126953125
83	252.61474895477295	response	0	2		81.0	2.5	/experiments/knapen_aot/oldvideos/R_S_yt-w_e3sxIzepA_115.mp4	0.0	308.04627299308777	
83	252.6229169368744	movie	1		301.0	81.0	2.5	/experiments/knapen_aot/oldvideos/R_S_yt-w_e3sxIzepA_115.mp4	0.0	308.0544409751892	2.508319139480591
83	255.13123607635498	fix_post	2		12.0	81.0	2.5	/experiments/knapen_aot/oldvideos/R_S_yt-w_e3sxIzepA_115.mp4	0.0	310.5627601146698	0.10014605522155762
84	255.23138213157654	fix_pre	0		23.0	82.0	2.5	/experiments/knapen_aot/oldvideos/R_S_MEX_A006_C008_SDR_20190923_SDR_2K_AVC.mp4	0.0	310.66290616989136	0.19157099723815918
84	255.41474509239197	response	0	2		82.0	2.5	/experiments/knapen_aot/oldvideos/R_S_MEX_A006_C008_SDR_20190923_SDR_2K_AVC.mp4	0.0	310.8462691307068	
84	255.4229531288147	movie	1		166.0	82.0	2.5	/experiments/knapen_aot/oldvideos/R_S_MEX_A006_C008_SDR_20190923_SDR_2K_AVC.mp4	0.0	310.8544771671295	2.5083119869232178
84	257.9312651157379	fix_post	2		12.0	82.0	2.5	/experiments/knapen_aot/oldvideos/R_S_MEX_A006_C008_SDR_20190923_SDR_2K_AVC.mp4	0.0	313.36278915405273	0.10072994232177734
85	258.0319950580597	fix_pre	0		16.0	83.0	2.5	blank	1.0	313.4635190963745	0.1325838565826416
85	258.15632700920105	response	0	2		83.0	2.5	blank	1.0	313.58785104751587	
85	258.16457891464233	movie	1		301.0	83.0	2.5	blank	1.0	313.59610295295715	2.508542060852051
85	260.6731209754944	fix_post	2		12.0	83.0	2.5	blank	1.0	316.1046450138092	0.09976911544799805
87	260.7728900909424	stim	0		295.0					316.2044141292572	2.46052885055542
87	263.226380109787	response	0	space						318.6579041481018	
