trial_nr	onset	event_type	phase	response	nr_frames	movie_index	movie_duration	movie_file	blank	onset_abs	duration
0	0.1334059238433838	stim	0		62.0					68.84574890136719	0.5166521072387695
0	0.641942024230957	response	0	space						69.35428500175476	
1	0.6500580310821533	stim	0		121.0					69.36240100860596	1.0080430507659912
1	1.1164720058441162	response	0	space						69.82881498336792	
1	1.53318190574646	response	0	space						70.24552488327026	
1	1.6581010818481445	stim	1		120.0					70.37044405937195	0.9999959468841553
1	1.9748880863189697	response	1	space						70.68723106384277	
1	2.28312611579895	response	1	space						70.99546909332275	
2	2.6580970287323	fix_pre	0		3.0	0.0	2.5	/experiments/knapen_aot/videos/S_yt-thmqgEV-sYY_91.mp4	0.0	71.3704400062561	0.024988889694213867
2	2.674907922744751	response	0	space		0.0	2.5	/experiments/knapen_aot/videos/S_yt-thmqgEV-sYY_91.mp4	0.0	71.38725090026855	
2	2.6830859184265137	movie	1		298.0	0.0	2.5	/experiments/knapen_aot/videos/S_yt-thmqgEV-sYY_91.mp4	0.0	71.39542889595032	2.508319139480591
2	5.1914050579071045	fix_post	2		12.0	0.0	2.5	/experiments/knapen_aot/videos/S_yt-thmqgEV-sYY_91.mp4	0.0	73.90374803543091	0.09998488426208496
3	5.2913899421691895	fix_pre	0		31.0	1.0	2.5	/experiments/knapen_aot/videos/R_S_yt-O_6CyqHeJig_132.mp4	0.0	74.003732919693	0.25829505920410156
3	5.54525899887085	response	0	2		1.0	2.5	/experiments/knapen_aot/videos/R_S_yt-O_6CyqHeJig_132.mp4	0.0	74.25760197639465	
3	5.549685001373291	movie	1		293.0	1.0	2.5	/experiments/knapen_aot/videos/R_S_yt-O_6CyqHeJig_132.mp4	0.0	74.2620279788971	2.5082569122314453
3	8.057941913604736	fix_post	2		12.0	1.0	2.5	/experiments/knapen_aot/videos/R_S_yt-O_6CyqHeJig_132.mp4	0.0	76.77028489112854	0.10012197494506836
4	8.158063888549805	fix_pre	0		37.0	2.0	2.5	/experiments/knapen_aot/videos/S_ILSVRC2015_train_00545000.mp4	0.0	76.87040686607361	0.30826306343078613
4	8.458179950714111	response	0	2		2.0	2.5	/experiments/knapen_aot/videos/S_ILSVRC2015_train_00545000.mp4	0.0	77.17052292823792	
4	8.46632695198059	movie	1		301.0	2.0	2.5	/experiments/knapen_aot/videos/S_ILSVRC2015_train_00545000.mp4	0.0	77.1786699295044	2.5085880756378174
4	10.974915027618408	fix_post	2		12.0	2.0	2.5	/experiments/knapen_aot/videos/S_ILSVRC2015_train_00545000.mp4	0.0	79.68725800514221	0.09993386268615723
5	11.074848890304565	fix_pre	0		42.0	3.0	2.5	/experiments/knapen_aot/videos/S_yt-AbJBxqEYoMg_105.mp4	0.0	79.78719186782837	0.34981417655944824
5	11.408960103988647	response	0	2		3.0	2.5	/experiments/knapen_aot/videos/S_yt-AbJBxqEYoMg_105.mp4	0.0	80.12130308151245	
5	11.424663066864014	movie	1		301.0	3.0	2.5	/experiments/knapen_aot/videos/S_yt-AbJBxqEYoMg_105.mp4	0.0	80.13700604438782	2.508410930633545
5	13.933073997497559	fix_post	2		12.0	3.0	2.5	/experiments/knapen_aot/videos/S_yt-AbJBxqEYoMg_105.mp4	0.0	82.64541697502136	0.09994792938232422
6	14.033021926879883	fix_pre	0		61.0	4.0	2.5	/experiments/knapen_aot/videos/R_S_EFR8AteY59I_15.mp4	0.0	82.74536490440369	0.5090601444244385
6	14.533082008361816	response	0	2		4.0	2.5	/experiments/knapen_aot/videos/R_S_EFR8AteY59I_15.mp4	0.0	83.24542498588562	
6	14.542082071304321	movie	1		301.0	4.0	2.5	/experiments/knapen_aot/videos/R_S_EFR8AteY59I_15.mp4	0.0	83.25442504882812	2.5074918270111084
6	17.04957389831543	fix_post	2		12.0	4.0	2.5	/experiments/knapen_aot/videos/R_S_EFR8AteY59I_15.mp4	0.0	85.76191687583923	0.10013604164123535
7	17.149709939956665	fix_pre	0		35.0	5.0	2.5	/experiments/knapen_aot/videos/S_yt-JVhfcpV7OaY_71.mp4	0.0	85.86205291748047	0.29157400131225586
7	17.433175086975098	response	0	2		5.0	2.5	/experiments/knapen_aot/videos/S_yt-JVhfcpV7OaY_71.mp4	0.0	86.1455180644989	
7	17.44128394126892	movie	1		301.0	5.0	2.5	/experiments/knapen_aot/videos/S_yt-JVhfcpV7OaY_71.mp4	0.0	86.15362691879272	2.508358955383301
7	19.94964289665222	fix_post	2		12.0	5.0	2.5	/experiments/knapen_aot/videos/S_yt-JVhfcpV7OaY_71.mp4	0.0	88.66198587417603	0.10002303123474121
8	20.049665927886963	fix_pre	0		54.0	6.0	2.5	/experiments/knapen_aot/videos/S_yt-SS7pSyb0_d0_32.mp4	0.0	88.76200890541077	0.45074915885925293
8	20.491326093673706	response	0	2		6.0	2.5	/experiments/knapen_aot/videos/S_yt-SS7pSyb0_d0_32.mp4	0.0	89.20366907119751	
8	20.500415086746216	movie	1		301.0	6.0	2.5	/experiments/knapen_aot/videos/S_yt-SS7pSyb0_d0_32.mp4	0.0	89.21275806427002	2.507520914077759
8	23.007936000823975	fix_post	2		12.0	6.0	2.5	/experiments/knapen_aot/videos/S_yt-SS7pSyb0_d0_32.mp4	0.0	91.72027897834778	0.09998607635498047
9	23.107922077178955	fix_pre	0		27.0	7.0	2.5	blank	1.0	91.82026505470276	0.22566699981689453
9	23.324678897857666	response	0	2		7.0	2.5	blank	1.0	92.03702187538147	
9	23.33358907699585	movie	1		301.0	7.0	2.5	blank	1.0	92.04593205451965	2.5076329708099365
9	25.841222047805786	fix_post	2		12.0	7.0	2.5	blank	1.0	94.55356502532959	0.10003495216369629
10	25.941256999969482	fix_pre	0		41.0	8.0	2.5	/experiments/knapen_aot/videos/R_S_yt-gMqeZkpA_1Q_61.mp4	0.0	94.65359997749329	0.3415670394897461
10	26.27469301223755	response	0	2		8.0	2.5	/experiments/knapen_aot/videos/R_S_yt-gMqeZkpA_1Q_61.mp4	0.0	94.98703598976135	
10	26.28282403945923	movie	1		301.0	8.0	2.5	/experiments/knapen_aot/videos/R_S_yt-gMqeZkpA_1Q_61.mp4	0.0	94.99516701698303	2.5084519386291504
10	28.79127597808838	fix_post	2		12.0	8.0	2.5	/experiments/knapen_aot/videos/R_S_yt-gMqeZkpA_1Q_61.mp4	0.0	97.50361895561218	0.09989690780639648
11	28.891172885894775	fix_pre	0		66.0	9.0	2.5	/experiments/knapen_aot/videos/R_S_ILSVRC2015_train_00587000.mp4	0.0	97.60351586341858	0.5500311851501465
11	29.43294596672058	response	0	2		9.0	2.5	/experiments/knapen_aot/videos/R_S_ILSVRC2015_train_00587000.mp4	0.0	98.14528894424438	
11	29.441204071044922	movie	1		301.0	9.0	2.5	/experiments/knapen_aot/videos/R_S_ILSVRC2015_train_00587000.mp4	0.0	98.15354704856873	2.508384943008423
11	31.949589014053345	fix_post	2		12.0	9.0	2.5	/experiments/knapen_aot/videos/R_S_ILSVRC2015_train_00587000.mp4	0.0	100.66193199157715	0.09998202323913574
12	32.04957103729248	fix_pre	0		50.0	10.0	2.5	/experiments/knapen_aot/videos/S_pexels-rodnae-productions-5993654.mp4	0.0	100.76191401481628	0.41666293144226074
12	32.45799112319946	response	0	2		10.0	2.5	/experiments/knapen_aot/videos/S_pexels-rodnae-productions-5993654.mp4	0.0	101.17033410072327	
12	32.46623396873474	movie	1		163.0	10.0	2.5	/experiments/knapen_aot/videos/S_pexels-rodnae-productions-5993654.mp4	0.0	101.17857694625854	2.5085489749908447
12	34.974782943725586	fix_post	2		12.0	10.0	2.5	/experiments/knapen_aot/videos/S_pexels-rodnae-productions-5993654.mp4	0.0	103.68712592124939	0.09975004196166992
13	35.074532985687256	fix_pre	0		29.0	11.0	2.5	/experiments/knapen_aot/videos/S_ILSVRC2015_train_00587000.mp4	0.0	103.78687596321106	0.2416079044342041
13	35.307965993881226	response	0	2		11.0	2.5	/experiments/knapen_aot/videos/S_ILSVRC2015_train_00587000.mp4	0.0	104.02030897140503	
13	35.31614089012146	movie	1		301.0	11.0	2.5	/experiments/knapen_aot/videos/S_ILSVRC2015_train_00587000.mp4	0.0	104.02848386764526	2.5084152221679688
13	37.82455611228943	fix_post	2		12.0	11.0	2.5	/experiments/knapen_aot/videos/S_ILSVRC2015_train_00587000.mp4	0.0	106.53689908981323	0.0999917984008789
14	37.92454791069031	fix_pre	0		30.0	12.0	2.5	/experiments/knapen_aot/videos/R_S_production_ID_4584682.mp4	0.0	106.63689088821411	0.24989008903503418
14	38.16629099845886	response	0	2		12.0	2.5	/experiments/knapen_aot/videos/R_S_production_ID_4584682.mp4	0.0	106.87863397598267	
14	38.17443799972534	movie	1		163.0	12.0	2.5	/experiments/knapen_aot/videos/R_S_production_ID_4584682.mp4	0.0	106.88678097724915	2.508579969406128
14	40.68301796913147	fix_post	2		12.0	12.0	2.5	/experiments/knapen_aot/videos/R_S_production_ID_4584682.mp4	0.0	109.39536094665527	0.09981012344360352
15	40.78282809257507	fix_pre	0		33.0	13.0	2.5	/experiments/knapen_aot/videos/S_pexels-rodnae-productions-5993654.mp4	0.0	109.49517107009888	0.27493786811828613
15	41.04963994026184	response	0	2		13.0	2.5	/experiments/knapen_aot/videos/S_pexels-rodnae-productions-5993654.mp4	0.0	109.76198291778564	
15	41.05776596069336	movie	1		161.0	13.0	2.5	/experiments/knapen_aot/videos/S_pexels-rodnae-productions-5993654.mp4	0.0	109.77010893821716	2.5083839893341064
15	43.566149950027466	fix_post	2		12.0	13.0	2.5	/experiments/knapen_aot/videos/S_pexels-rodnae-productions-5993654.mp4	0.0	112.27849292755127	0.10010004043579102
16	43.66624999046326	fix_pre	0		29.0	14.0	2.5	blank	1.0	112.37859296798706	0.24155092239379883
16	43.899585008621216	response	0	2		14.0	2.5	blank	1.0	112.61192798614502	
16	43.907800912857056	movie	1		301.0	14.0	2.5	blank	1.0	112.62014389038086	2.5084190368652344
16	46.41621994972229	fix_post	2		12.0	14.0	2.5	blank	1.0	115.1285629272461	0.09984612464904785
17	46.51606607437134	fix_pre	0		32.0	15.0	2.5	/experiments/knapen_aot/videos/R_S_yt-KNdCiW8m1uY_168.mp4	0.0	115.22840905189514	0.2666599750518799
17	46.774598121643066	response	0	2		15.0	2.5	/experiments/knapen_aot/videos/R_S_yt-KNdCiW8m1uY_168.mp4	0.0	115.48694109916687	
17	46.78272604942322	movie	1		301.0	15.0	2.5	/experiments/knapen_aot/videos/R_S_yt-KNdCiW8m1uY_168.mp4	0.0	115.49506902694702	2.508404016494751
17	49.29113006591797	fix_post	2		12.0	15.0	2.5	/experiments/knapen_aot/videos/R_S_yt-KNdCiW8m1uY_168.mp4	0.0	118.00347304344177	0.10000991821289062
18	49.39113998413086	fix_pre	0		37.0	16.0	2.5	/experiments/knapen_aot/videos/S_ILSVRC2015_train_00414000.mp4	0.0	118.10348296165466	0.3082549571990967
18	49.683794021606445	response	0	2		16.0	2.5	/experiments/knapen_aot/videos/S_ILSVRC2015_train_00414000.mp4	0.0	118.39613699913025	
18	49.699394941329956	movie	1		301.0	16.0	2.5	/experiments/knapen_aot/videos/S_ILSVRC2015_train_00414000.mp4	0.0	118.41173791885376	2.5083580017089844
18	52.20775294303894	fix_post	2		12.0	16.0	2.5	/experiments/knapen_aot/videos/S_ILSVRC2015_train_00414000.mp4	0.0	120.92009592056274	0.10006117820739746
19	52.30781412124634	fix_pre	0		29.0	17.0	2.5	/experiments/knapen_aot/videos/S_yt-xrWo3lnbshw_80.mp4	0.0	121.02015709877014	0.24153995513916016
19	52.541358947753906	response	0	2		17.0	2.5	/experiments/knapen_aot/videos/S_yt-xrWo3lnbshw_80.mp4	0.0	121.25370192527771	
19	52.5493540763855	movie	1		301.0	17.0	2.5	/experiments/knapen_aot/videos/S_yt-xrWo3lnbshw_80.mp4	0.0	121.2616970539093	2.5084068775177
19	55.0577609539032	fix_post	2		12.0	17.0	2.5	/experiments/knapen_aot/videos/S_yt-xrWo3lnbshw_80.mp4	0.0	123.770103931427	0.10010004043579102
20	55.15786099433899	fix_pre	0		34.0	18.0	2.5	/experiments/knapen_aot/videos/S_yt-rIQoRErqnlI_17.mp4	0.0	123.8702039718628	0.2830970287322998
20	55.43280005455017	response	0	2		18.0	2.5	/experiments/knapen_aot/videos/S_yt-rIQoRErqnlI_17.mp4	0.0	124.14514303207397	
20	55.44095802307129	movie	1		301.0	18.0	2.5	/experiments/knapen_aot/videos/S_yt-rIQoRErqnlI_17.mp4	0.0	124.15330100059509	2.508373975753784
20	57.94933199882507	fix_post	2		12.0	18.0	2.5	/experiments/knapen_aot/videos/S_yt-rIQoRErqnlI_17.mp4	0.0	126.66167497634888	0.1000831127166748
21	58.04941511154175	fix_pre	0		47.0	19.0	2.5	blank	1.0	126.76175808906555	0.3915708065032959
21	58.425344944000244	response	0	2		19.0	2.5	blank	1.0	127.13768792152405	
21	58.440985918045044	movie	1		301.0	19.0	2.5	blank	1.0	127.15332889556885	2.5083770751953125
21	60.949362993240356	fix_post	2		12.0	19.0	2.5	blank	1.0	129.66170597076416	0.09998798370361328
22	61.04935097694397	fix_pre	0		37.0	20.0	2.5	/experiments/knapen_aot/videos/R_S_yt-gMqeZkpA_1Q_61.mp4	0.0	129.76169395446777	0.30830907821655273
22	61.34965205192566	response	0	2		20.0	2.5	/experiments/knapen_aot/videos/R_S_yt-gMqeZkpA_1Q_61.mp4	0.0	130.06199502944946	
22	61.35766005516052	movie	1		301.0	20.0	2.5	/experiments/knapen_aot/videos/R_S_yt-gMqeZkpA_1Q_61.mp4	0.0	130.07000303268433	2.508391857147217
22	63.86605191230774	fix_post	2		12.0	20.0	2.5	/experiments/knapen_aot/videos/R_S_yt-gMqeZkpA_1Q_61.mp4	0.0	132.57839488983154	0.1000831127166748
23	63.966135025024414	fix_pre	0		39.0	21.0	2.5	/experiments/knapen_aot/videos/S_production_ID_4101225.mp4	0.0	132.67847800254822	0.32529497146606445
23	64.2827639579773	response	0	2		21.0	2.5	/experiments/knapen_aot/videos/S_production_ID_4101225.mp4	0.0	132.9951069355011	
23	64.29142999649048	movie	1		191.0	21.0	2.5	/experiments/knapen_aot/videos/S_production_ID_4101225.mp4	0.0	133.00377297401428	2.508094072341919
23	66.7995240688324	fix_post	2		12.0	21.0	2.5	/experiments/knapen_aot/videos/S_production_ID_4101225.mp4	0.0	135.5118670463562	0.09984302520751953
24	66.89936709403992	fix_pre	0		50.0	22.0	2.5	/experiments/knapen_aot/videos/S_yt-LdHRVIb4nIE_6.mp4	0.0	135.61171007156372	0.4165229797363281
24	67.30775308609009	response	0	2		22.0	2.5	/experiments/knapen_aot/videos/S_yt-LdHRVIb4nIE_6.mp4	0.0	136.0200960636139	
24	67.31589007377625	movie	1		301.0	22.0	2.5	/experiments/knapen_aot/videos/S_yt-LdHRVIb4nIE_6.mp4	0.0	136.02823305130005	2.5083909034729004
24	69.82428097724915	fix_post	2		12.0	22.0	2.5	/experiments/knapen_aot/videos/S_yt-LdHRVIb4nIE_6.mp4	0.0	138.53662395477295	0.10002493858337402
25	69.92430591583252	fix_pre	0		16.0	23.0	2.5	/experiments/knapen_aot/videos/R_S_yt-bhiGMKSAz2g_370.mp4	0.0	138.63664889335632	0.1333451271057129
25	70.0494270324707	response	0	2		23.0	2.5	/experiments/knapen_aot/videos/R_S_yt-bhiGMKSAz2g_370.mp4	0.0	138.7617700099945	
25	70.05765104293823	movie	1		301.0	23.0	2.5	/experiments/knapen_aot/videos/R_S_yt-bhiGMKSAz2g_370.mp4	0.0	138.76999402046204	2.5084378719329834
25	72.56608891487122	fix_post	2		12.0	23.0	2.5	/experiments/knapen_aot/videos/R_S_yt-bhiGMKSAz2g_370.mp4	0.0	141.27843189239502	0.09985899925231934
26	72.66594791412354	fix_pre	0		23.0	24.0	2.5	/experiments/knapen_aot/videos/S_yt-lzXao6Reec4_14.mp4	0.0	141.37829089164734	0.19169902801513672
26	72.84936189651489	response	0	2		24.0	2.5	/experiments/knapen_aot/videos/S_yt-lzXao6Reec4_14.mp4	0.0	141.5617048740387	
26	72.85764694213867	movie	1		301.0	24.0	2.5	/experiments/knapen_aot/videos/S_yt-lzXao6Reec4_14.mp4	0.0	141.56998991966248	2.5083069801330566
26	75.36595392227173	fix_post	2		12.0	24.0	2.5	/experiments/knapen_aot/videos/S_yt-lzXao6Reec4_14.mp4	0.0	144.07829689979553	0.10002398490905762
27	75.46597790718079	fix_pre	0		31.0	25.0	2.5	/experiments/knapen_aot/videos/S_AK_A004_C012_SDR_20191217_SDR_2K_AVC.mp4	0.0	144.1783208847046	0.25826311111450195
27	75.71603989601135	response	0	2		25.0	2.5	/experiments/knapen_aot/videos/S_AK_A004_C012_SDR_20191217_SDR_2K_AVC.mp4	0.0	144.42838287353516	
27	75.72424101829529	movie	1		161.0	25.0	2.5	/experiments/knapen_aot/videos/S_AK_A004_C012_SDR_20191217_SDR_2K_AVC.mp4	0.0	144.4365839958191	2.5084099769592285
27	78.23265099525452	fix_post	2		12.0	25.0	2.5	/experiments/knapen_aot/videos/S_AK_A004_C012_SDR_20191217_SDR_2K_AVC.mp4	0.0	146.94499397277832	0.09998393058776855
28	78.33263492584229	fix_pre	0		31.0	26.0	2.5	/experiments/knapen_aot/videos/S_production_ID_5049072.mp4	0.0	147.0449779033661	0.2582850456237793
28	78.58275604248047	response	0	2		26.0	2.5	/experiments/knapen_aot/videos/S_production_ID_5049072.mp4	0.0	147.29509902000427	
28	78.59091997146606	movie	1		168.0	26.0	2.5	/experiments/knapen_aot/videos/S_production_ID_5049072.mp4	0.0	147.30326294898987	2.508296012878418
28	81.09921598434448	fix_post	2		12.0	26.0	2.5	/experiments/knapen_aot/videos/S_production_ID_5049072.mp4	0.0	149.8115589618683	0.10008907318115234
29	81.19930505752563	fix_pre	0		30.0	27.0	2.5	/experiments/knapen_aot/videos/R_S_yt--vHa85DHvLU_31.mp4	0.0	149.91164803504944	0.24990487098693848
29	81.44106888771057	response	0	2		27.0	2.5	/experiments/knapen_aot/videos/R_S_yt--vHa85DHvLU_31.mp4	0.0	150.15341186523438	
29	81.44920992851257	movie	1		301.0	27.0	2.5	/experiments/knapen_aot/videos/R_S_yt--vHa85DHvLU_31.mp4	0.0	150.16155290603638	2.5083069801330566
29	83.95751690864563	fix_post	2		12.0	27.0	2.5	/experiments/knapen_aot/videos/R_S_yt--vHa85DHvLU_31.mp4	0.0	152.66985988616943	0.10005712509155273
30	84.05757403373718	fix_pre	0		23.0	28.0	2.5	blank	1.0	152.769917011261	0.19208288192749023
30	84.24100089073181	response	0	2		28.0	2.5	blank	1.0	152.95334386825562	
30	84.24965691566467	movie	1		301.0	28.0	2.5	blank	1.0	152.96199989318848	2.5078370571136475
30	86.75749397277832	fix_post	2		12.0	28.0	2.5	blank	1.0	155.46983695030212	0.10013699531555176
31	86.85763096809387	fix_pre	0		34.0	29.0	2.5	/experiments/knapen_aot/videos/S_yt-TNtO8RPd3iE_25.mp4	0.0	155.56997394561768	0.28324198722839355
31	87.12502694129944	response	0	2		29.0	2.5	/experiments/knapen_aot/videos/S_yt-TNtO8RPd3iE_25.mp4	0.0	155.83736991882324	
31	87.14087295532227	movie	1		301.0	29.0	2.5	/experiments/knapen_aot/videos/S_yt-TNtO8RPd3iE_25.mp4	0.0	155.85321593284607	2.5083160400390625
31	89.64918899536133	fix_post	2		12.0	29.0	2.5	/experiments/knapen_aot/videos/S_yt-TNtO8RPd3iE_25.mp4	0.0	158.36153197288513	0.10061407089233398
32	89.74980306625366	fix_pre	0		38.0	30.0	2.5	/experiments/knapen_aot/videos/R_S_yt-tHBOlYmaBuk_96.mp4	0.0	158.46214604377747	0.3160099983215332
32	90.05758094787598	response	0	2		30.0	2.5	/experiments/knapen_aot/videos/R_S_yt-tHBOlYmaBuk_96.mp4	0.0	158.76992392539978	
32	90.0658130645752	movie	1		301.0	30.0	2.5	/experiments/knapen_aot/videos/R_S_yt-tHBOlYmaBuk_96.mp4	0.0	158.778156042099	2.508436918258667
32	92.57424998283386	fix_post	2		12.0	30.0	2.5	/experiments/knapen_aot/videos/R_S_yt-tHBOlYmaBuk_96.mp4	0.0	161.28659296035767	0.09993696212768555
33	92.67418694496155	fix_pre	0		33.0	31.0	2.5	/experiments/knapen_aot/videos/R_S_yt-PREz5XiiXg0_107.mp4	0.0	161.38652992248535	0.2749440670013428
33	92.94090390205383	response	0	2		31.0	2.5	/experiments/knapen_aot/videos/R_S_yt-PREz5XiiXg0_107.mp4	0.0	161.65324687957764	
33	92.94913101196289	movie	1		301.0	31.0	2.5	/experiments/knapen_aot/videos/R_S_yt-PREz5XiiXg0_107.mp4	0.0	161.6614739894867	2.5083799362182617
33	95.45751094818115	fix_post	2		12.0	31.0	2.5	/experiments/knapen_aot/videos/R_S_yt-PREz5XiiXg0_107.mp4	0.0	164.16985392570496	0.10008406639099121
34	95.55759501457214	fix_pre	0		32.0	32.0	2.5	/experiments/knapen_aot/videos/R_S_yt-PK-Eip9wFr0_24.mp4	0.0	164.26993799209595	0.26649904251098633
34	95.81595611572266	response	0	2		32.0	2.5	/experiments/knapen_aot/videos/R_S_yt-PK-Eip9wFr0_24.mp4	0.0	164.52829909324646	
34	95.82409405708313	movie	1		301.0	32.0	2.5	/experiments/knapen_aot/videos/R_S_yt-PK-Eip9wFr0_24.mp4	0.0	164.53643703460693	2.508713960647583
34	98.33280801773071	fix_post	2		12.0	32.0	2.5	/experiments/knapen_aot/videos/R_S_yt-PK-Eip9wFr0_24.mp4	0.0	167.04515099525452	0.09972095489501953
35	98.43252897262573	fix_pre	0		37.0	33.0	2.5	/experiments/knapen_aot/videos/R_S_yt-rIQoRErqnlI_17.mp4	0.0	167.14487195014954	0.3081929683685303
35	98.73257994651794	response	0	2		33.0	2.5	/experiments/knapen_aot/videos/R_S_yt-rIQoRErqnlI_17.mp4	0.0	167.44492292404175	
35	98.74072194099426	movie	1		301.0	33.0	2.5	/experiments/knapen_aot/videos/R_S_yt-rIQoRErqnlI_17.mp4	0.0	167.45306491851807	2.5085480213165283
35	101.24926996231079	fix_post	2		12.0	33.0	2.5	/experiments/knapen_aot/videos/R_S_yt-rIQoRErqnlI_17.mp4	0.0	169.9616129398346	0.09986209869384766
36	101.34913206100464	fix_pre	0		40.0	34.0	2.5	blank	1.0	170.06147503852844	0.3332648277282715
36	101.67425298690796	response	0	2		34.0	2.5	blank	1.0	170.38659596443176	
36	101.68239688873291	movie	1		301.0	34.0	2.5	blank	1.0	170.3947398662567	2.50838303565979
36	104.1907799243927	fix_post	2		12.0	34.0	2.5	blank	1.0	172.9031229019165	0.10027909278869629
37	104.2910590171814	fix_pre	0		52.0	35.0	2.5	/experiments/knapen_aot/videos/S_yt-83nimFMNhrM_131.mp4	0.0	173.0034019947052	0.43300604820251465
37	104.71592402458191	response	0	2		35.0	2.5	/experiments/knapen_aot/videos/S_yt-83nimFMNhrM_131.mp4	0.0	173.4282670021057	
37	104.72406506538391	movie	1		301.0	35.0	2.5	/experiments/knapen_aot/videos/S_yt-83nimFMNhrM_131.mp4	0.0	173.43640804290771	2.50838303565979
37	107.2324481010437	fix_post	2		12.0	35.0	2.5	/experiments/knapen_aot/videos/S_yt-83nimFMNhrM_131.mp4	0.0	175.9447910785675	0.1002960205078125
38	107.33274412155151	fix_pre	0		27.0	36.0	2.5	/experiments/knapen_aot/videos/S_yt-aSEKRE_FNaI_62.mp4	0.0	176.04508709907532	0.22467994689941406
38	107.5492160320282	response	0	2		36.0	2.5	/experiments/knapen_aot/videos/S_yt-aSEKRE_FNaI_62.mp4	0.0	176.261559009552	
38	107.55742406845093	movie	1		301.0	36.0	2.5	/experiments/knapen_aot/videos/S_yt-aSEKRE_FNaI_62.mp4	0.0	176.26976704597473	2.5083320140838623
38	110.06575608253479	fix_post	2		12.0	36.0	2.5	/experiments/knapen_aot/videos/S_yt-aSEKRE_FNaI_62.mp4	0.0	178.7780990600586	0.10026884078979492
39	110.16602492332458	fix_pre	0		34.0	37.0	2.5	/experiments/knapen_aot/videos/R_S_video_inspire_california_vineyard_sierra-mar_sunrise_110.1080-h264.mp4	0.0	178.8783679008484	0.2829921245574951
39	110.43331098556519	response	0	2		37.0	2.5	/experiments/knapen_aot/videos/R_S_video_inspire_california_vineyard_sierra-mar_sunrise_110.1080-h264.mp4	0.0	179.145653963089	
39	110.44901704788208	movie	1		170.0	37.0	2.5	/experiments/knapen_aot/videos/R_S_video_inspire_california_vineyard_sierra-mar_sunrise_110.1080-h264.mp4	0.0	179.16136002540588	2.5084638595581055
39	112.95748090744019	fix_post	2		12.0	37.0	2.5	/experiments/knapen_aot/videos/R_S_video_inspire_california_vineyard_sierra-mar_sunrise_110.1080-h264.mp4	0.0	181.669823884964	0.09992218017578125
40	113.05740308761597	fix_pre	0		47.0	38.0	2.5	/experiments/knapen_aot/videos/R_S_pexels-rodnae-productions-5544703.mp4	0.0	181.76974606513977	0.39164090156555176
40	113.44082689285278	response	0	2		38.0	2.5	/experiments/knapen_aot/videos/R_S_pexels-rodnae-productions-5544703.mp4	0.0	182.1531698703766	
40	113.44904398918152	movie	1		169.0	38.0	2.5	/experiments/knapen_aot/videos/R_S_pexels-rodnae-productions-5544703.mp4	0.0	182.16138696670532	2.5083980560302734
40	115.95744204521179	fix_post	2		12.0	38.0	2.5	/experiments/knapen_aot/videos/R_S_pexels-rodnae-productions-5544703.mp4	0.0	184.6697850227356	0.1000678539276123
41	116.0575098991394	fix_pre	0		35.0	39.0	2.5	/experiments/knapen_aot/videos/R_S_yt-LsCCAQ8BRO8_7.mp4	0.0	184.7698528766632	0.2915689945220947
41	116.34084296226501	response	0	2		39.0	2.5	/experiments/knapen_aot/videos/R_S_yt-LsCCAQ8BRO8_7.mp4	0.0	185.05318593978882	
41	116.3490788936615	movie	1		301.0	39.0	2.5	/experiments/knapen_aot/videos/R_S_yt-LsCCAQ8BRO8_7.mp4	0.0	185.0614218711853	2.5082690715789795
41	118.85734796524048	fix_post	2		12.0	39.0	2.5	/experiments/knapen_aot/videos/R_S_yt-LsCCAQ8BRO8_7.mp4	0.0	187.56969094276428	0.10061812400817871
42	118.95796608924866	fix_pre	0		31.0	40.0	2.5	blank	1.0	187.67030906677246	0.25769686698913574
42	119.20749592781067	response	0	2		40.0	2.5	blank	1.0	187.91983890533447	
42	119.2156629562378	movie	1		301.0	40.0	2.5	blank	1.0	187.9280059337616	2.5083041191101074
42	121.7239670753479	fix_post	2		12.0	40.0	2.5	blank	1.0	190.4363100528717	0.10003495216369629
43	121.8240020275116	fix_pre	0		57.0	41.0	2.5	/experiments/knapen_aot/videos/R_S_wc-AyT9mzwZsu0T_14.mp4	0.0	190.5363450050354	0.4749588966369629
43	122.29075002670288	response	0	2		41.0	2.5	/experiments/knapen_aot/videos/R_S_wc-AyT9mzwZsu0T_14.mp4	0.0	191.00309300422668	
43	122.29896092414856	movie	1		165.0	41.0	2.5	/experiments/knapen_aot/videos/R_S_wc-AyT9mzwZsu0T_14.mp4	0.0	191.01130390167236	2.508392095565796
43	124.80735301971436	fix_post	2		12.0	41.0	2.5	/experiments/knapen_aot/videos/R_S_wc-AyT9mzwZsu0T_14.mp4	0.0	193.51969599723816	0.09998202323913574
44	124.90733504295349	fix_pre	0		13.0	42.0	2.5	/experiments/knapen_aot/videos/R_S_ILSVRC2015_train_00414000.mp4	0.0	193.6196780204773	0.1082909107208252
44	125.0074450969696	response	0	2		42.0	2.5	/experiments/knapen_aot/videos/R_S_ILSVRC2015_train_00414000.mp4	0.0	193.7197880744934	
44	125.01562595367432	movie	1		301.0	42.0	2.5	/experiments/knapen_aot/videos/R_S_ILSVRC2015_train_00414000.mp4	0.0	193.72796893119812	2.508368968963623
44	127.52399492263794	fix_post	2		12.0	42.0	2.5	/experiments/knapen_aot/videos/R_S_ILSVRC2015_train_00414000.mp4	0.0	196.23633790016174	0.10038614273071289
45	127.62438106536865	fix_pre	0		10.0	43.0	2.5	/experiments/knapen_aot/videos/R_S_yt-R0gFQo85cAE_5.mp4	0.0	196.33672404289246	0.08306694030761719
45	127.69902610778809	response	0	2		43.0	2.5	/experiments/knapen_aot/videos/R_S_yt-R0gFQo85cAE_5.mp4	0.0	196.4113690853119	
45	127.70744800567627	movie	1		301.0	43.0	2.5	/experiments/knapen_aot/videos/R_S_yt-R0gFQo85cAE_5.mp4	0.0	196.41979098320007	2.508194923400879
45	130.21564292907715	fix_post	2		12.0	43.0	2.5	/experiments/knapen_aot/videos/R_S_yt-R0gFQo85cAE_5.mp4	0.0	198.92798590660095	0.09999299049377441
46	130.31563591957092	fix_pre	0		16.0	44.0	2.5	/experiments/knapen_aot/videos/R_S_comp_A007_C017_01156B_v02_SDR_PS_20180925_SDR_2K_AVC.mp4	0.0	199.02797889709473	0.13322997093200684
46	130.44072198867798	response	0	2		44.0	2.5	/experiments/knapen_aot/videos/R_S_comp_A007_C017_01156B_v02_SDR_PS_20180925_SDR_2K_AVC.mp4	0.0	199.15306496620178	
46	130.44886589050293	movie	1		168.0	44.0	2.5	/experiments/knapen_aot/videos/R_S_comp_A007_C017_01156B_v02_SDR_PS_20180925_SDR_2K_AVC.mp4	0.0	199.16120886802673	2.5086710453033447
46	132.95753693580627	fix_post	2		12.0	44.0	2.5	/experiments/knapen_aot/videos/R_S_comp_A007_C017_01156B_v02_SDR_PS_20180925_SDR_2K_AVC.mp4	0.0	201.66987991333008	0.09976601600646973
47	133.05730295181274	fix_pre	0		24.0	45.0	2.5	/experiments/knapen_aot/videos/S_OdxWh1oU8e8_1.mp4	0.0	201.76964592933655	0.19994902610778809
47	133.24906992912292	response	0	2		45.0	2.5	/experiments/knapen_aot/videos/S_OdxWh1oU8e8_1.mp4	0.0	201.96141290664673	
47	133.25725197792053	movie	1		301.0	45.0	2.5	/experiments/knapen_aot/videos/S_OdxWh1oU8e8_1.mp4	0.0	201.96959495544434	2.508420944213867
47	135.7656729221344	fix_post	2		12.0	45.0	2.5	/experiments/knapen_aot/videos/S_OdxWh1oU8e8_1.mp4	0.0	204.4780158996582	0.09992814064025879
48	135.86560106277466	fix_pre	0		25.0	46.0	2.5	/experiments/knapen_aot/videos/S_P005_C002_UHD_SDR_2K_AVC.mp4	0.0	204.57794404029846	0.20830583572387695
48	136.06573700904846	response	0	2		46.0	2.5	/experiments/knapen_aot/videos/S_P005_C002_UHD_SDR_2K_AVC.mp4	0.0	204.77807998657227	
48	136.07390689849854	movie	1		168.0	46.0	2.5	/experiments/knapen_aot/videos/S_P005_C002_UHD_SDR_2K_AVC.mp4	0.0	204.78624987602234	2.5085031986236572
48	138.5824100971222	fix_post	2		12.0	46.0	2.5	/experiments/knapen_aot/videos/S_P005_C002_UHD_SDR_2K_AVC.mp4	0.0	207.294753074646	0.10002899169921875
49	138.6824390888214	fix_pre	0		44.0	47.0	2.5	/experiments/knapen_aot/videos/R_S_ILSVRC2015_train_00394000.mp4	0.0	207.39478206634521	0.36646080017089844
49	139.04072093963623	response	0	2		47.0	2.5	/experiments/knapen_aot/videos/R_S_ILSVRC2015_train_00394000.mp4	0.0	207.75306391716003	
49	139.0488998889923	movie	1		301.0	47.0	2.5	/experiments/knapen_aot/videos/R_S_ILSVRC2015_train_00394000.mp4	0.0	207.7612428665161	2.5085811614990234
49	141.55748105049133	fix_post	2		12.0	47.0	2.5	/experiments/knapen_aot/videos/R_S_ILSVRC2015_train_00394000.mp4	0.0	210.26982402801514	0.09979701042175293
50	141.6572780609131	fix_pre	0		52.0	48.0	2.5	/experiments/knapen_aot/videos/S_yt-9Ow95khYa_M_91.mp4	0.0	210.3696210384369	0.43320488929748535
50	142.0822949409485	response	0	2		48.0	2.5	/experiments/knapen_aot/videos/S_yt-9Ow95khYa_M_91.mp4	0.0	210.7946379184723	
50	142.09048295021057	movie	1		301.0	48.0	2.5	/experiments/knapen_aot/videos/S_yt-9Ow95khYa_M_91.mp4	0.0	210.80282592773438	2.508449077606201
50	144.59893202781677	fix_post	2		12.0	48.0	2.5	/experiments/knapen_aot/videos/S_yt-9Ow95khYa_M_91.mp4	0.0	213.31127500534058	0.0999760627746582
51	144.69890809059143	fix_pre	0		33.0	49.0	2.5	blank	1.0	213.41125106811523	0.2750229835510254
51	144.9657039642334	response	0	2		49.0	2.5	blank	1.0	213.6780469417572	
51	144.97393107414246	movie	1		301.0	49.0	2.5	blank	1.0	213.68627405166626	2.508415937423706
51	147.48234701156616	fix_post	2		12.0	49.0	2.5	blank	1.0	216.19468998908997	0.09999489784240723
52	147.58234190940857	fix_pre	0		36.0	50.0	2.5	/experiments/knapen_aot/videos/S_yt-cG2qDR5ka5w_119.mp4	0.0	216.29468488693237	0.29976320266723633
52	147.87401509284973	response	0	2		50.0	2.5	/experiments/knapen_aot/videos/S_yt-cG2qDR5ka5w_119.mp4	0.0	216.58635807037354	
52	147.8821051120758	movie	1		301.0	50.0	2.5	/experiments/knapen_aot/videos/S_yt-cG2qDR5ka5w_119.mp4	0.0	216.5944480895996	2.5083889961242676
52	150.39049410820007	fix_post	2		12.0	50.0	2.5	/experiments/knapen_aot/videos/S_yt-cG2qDR5ka5w_119.mp4	0.0	219.10283708572388	0.10002398490905762
53	150.49051809310913	fix_pre	0		50.0	51.0	2.5	/experiments/knapen_aot/videos/S_yt-mdLT282PVbE_6.mp4	0.0	219.20286107063293	0.41657185554504395
53	150.89894008636475	response	0	2		51.0	2.5	/experiments/knapen_aot/videos/S_yt-mdLT282PVbE_6.mp4	0.0	219.61128306388855	
53	150.90708994865417	movie	1		301.0	51.0	2.5	/experiments/knapen_aot/videos/S_yt-mdLT282PVbE_6.mp4	0.0	219.61943292617798	2.509080171585083
53	153.41617012023926	fix_post	2		12.0	51.0	2.5	/experiments/knapen_aot/videos/S_yt-mdLT282PVbE_6.mp4	0.0	222.12851309776306	0.09932780265808105
54	153.51549792289734	fix_pre	0		24.0	52.0	2.5	/experiments/knapen_aot/videos/R_S_ILSVRC2015_train_00384000.mp4	0.0	222.22784090042114	0.20000505447387695
54	153.70726108551025	response	0	2		52.0	2.5	/experiments/knapen_aot/videos/R_S_ILSVRC2015_train_00384000.mp4	0.0	222.41960406303406	
54	153.71550297737122	movie	1		301.0	52.0	2.5	/experiments/knapen_aot/videos/R_S_ILSVRC2015_train_00384000.mp4	0.0	222.42784595489502	2.508352041244507
54	156.22385501861572	fix_post	2		12.0	52.0	2.5	/experiments/knapen_aot/videos/R_S_ILSVRC2015_train_00384000.mp4	0.0	224.93619799613953	0.10000896453857422
55	156.3238639831543	fix_pre	0		36.0	53.0	2.5	/experiments/knapen_aot/videos/S_yt-xWCPbUQc-vg_7.mp4	0.0	225.0362069606781	0.2999379634857178
55	156.61557602882385	response	0	2		53.0	2.5	/experiments/knapen_aot/videos/S_yt-xWCPbUQc-vg_7.mp4	0.0	225.32791900634766	
55	156.62380194664001	movie	1		301.0	53.0	2.5	/experiments/knapen_aot/videos/S_yt-xWCPbUQc-vg_7.mp4	0.0	225.33614492416382	2.5086829662323
55	159.13248491287231	fix_post	2		12.0	53.0	2.5	/experiments/knapen_aot/videos/S_yt-xWCPbUQc-vg_7.mp4	0.0	227.84482789039612	0.09970617294311523
56	159.23219108581543	fix_pre	0		61.0	54.0	2.5	/experiments/knapen_aot/videos/R_S_WCwb-DeQOSg_85.mp4	0.0	227.94453406333923	0.5083489418029785
56	159.7322371006012	response	0	2		54.0	2.5	/experiments/knapen_aot/videos/R_S_WCwb-DeQOSg_85.mp4	0.0	228.444580078125	
56	159.7405400276184	movie	1		301.0	54.0	2.5	/experiments/knapen_aot/videos/R_S_WCwb-DeQOSg_85.mp4	0.0	228.4528830051422	2.5083210468292236
56	162.24886107444763	fix_post	2		12.0	54.0	2.5	/experiments/knapen_aot/videos/R_S_WCwb-DeQOSg_85.mp4	0.0	230.96120405197144	0.09995698928833008
57	162.34881806373596	fix_pre	0		43.0	55.0	2.5	/experiments/knapen_aot/videos/S_comp_LA_A005_C009_PSNK_ALT_v09_SDR_PS_201809134_SDR_2K_AVC.mp4	0.0	231.06116104125977	0.35825490951538086
57	162.69893193244934	response	0	2		55.0	2.5	/experiments/knapen_aot/videos/S_comp_LA_A005_C009_PSNK_ALT_v09_SDR_PS_201809134_SDR_2K_AVC.mp4	0.0	231.41127490997314	
57	162.70707297325134	movie	1		172.0	55.0	2.5	/experiments/knapen_aot/videos/S_comp_LA_A005_C009_PSNK_ALT_v09_SDR_PS_201809134_SDR_2K_AVC.mp4	0.0	231.41941595077515	2.508436918258667
57	165.21550989151	fix_post	2		12.0	55.0	2.5	/experiments/knapen_aot/videos/S_comp_LA_A005_C009_PSNK_ALT_v09_SDR_PS_201809134_SDR_2K_AVC.mp4	0.0	233.9278528690338	0.09993314743041992
58	165.31544303894043	fix_pre	0		48.0	56.0	2.5	blank	1.0	234.02778601646423	0.39996886253356934
58	165.70727109909058	response	0	2		56.0	2.5	blank	1.0	234.41961407661438	
58	165.715411901474	movie	1		301.0	56.0	2.5	blank	1.0	234.4277548789978	2.5083510875701904
58	168.2237629890442	fix_post	2		12.0	56.0	2.5	blank	1.0	236.936105966568	0.10008811950683594
59	168.32385110855103	fix_pre	0		55.0	57.0	2.5	/experiments/knapen_aot/videos/S_yt-kINZMjys3O4_112.mp4	0.0	237.03619408607483	0.4581718444824219
59	168.77385592460632	response	0	2		57.0	2.5	/experiments/knapen_aot/videos/S_yt-kINZMjys3O4_112.mp4	0.0	237.48619890213013	
59	168.78202295303345	movie	1		301.0	57.0	2.5	/experiments/knapen_aot/videos/S_yt-kINZMjys3O4_112.mp4	0.0	237.49436593055725	2.5084099769592285
59	171.29043292999268	fix_post	2		12.0	57.0	2.5	/experiments/knapen_aot/videos/S_yt-kINZMjys3O4_112.mp4	0.0	240.00277590751648	0.0999290943145752
60	171.39036202430725	fix_pre	0		61.0	58.0	2.5	/experiments/knapen_aot/videos/S_yt-6xXEMHBQ08A_28.mp4	0.0	240.10270500183105	0.5083990097045898
60	171.89055109024048	response	0	2		58.0	2.5	/experiments/knapen_aot/videos/S_yt-6xXEMHBQ08A_28.mp4	0.0	240.60289406776428	
60	171.89876103401184	movie	1		301.0	58.0	2.5	/experiments/knapen_aot/videos/S_yt-6xXEMHBQ08A_28.mp4	0.0	240.61110401153564	2.50827693939209
60	174.40703797340393	fix_post	2		12.0	58.0	2.5	/experiments/knapen_aot/videos/S_yt-6xXEMHBQ08A_28.mp4	0.0	243.11938095092773	0.09995603561401367
61	174.50699400901794	fix_pre	0		32.0	59.0	2.5	/experiments/knapen_aot/videos/R_S_yt-JH6qCYAnX-I_70.mp4	0.0	243.21933698654175	0.2666940689086914
61	174.76545810699463	response	0	2		59.0	2.5	/experiments/knapen_aot/videos/R_S_yt-JH6qCYAnX-I_70.mp4	0.0	243.47780108451843	
61	174.77368807792664	movie	1		301.0	59.0	2.5	/experiments/knapen_aot/videos/R_S_yt-JH6qCYAnX-I_70.mp4	0.0	243.48603105545044	2.5083749294281006
61	177.28206300735474	fix_post	2		12.0	59.0	2.5	/experiments/knapen_aot/videos/R_S_yt-JH6qCYAnX-I_70.mp4	0.0	245.99440598487854	0.10001301765441895
62	177.38207602500916	fix_pre	0		29.0	60.0	2.5	/experiments/knapen_aot/videos/S_comp_DB_D002_C003_PSNK_v04_SDR_PS_20180914_SDR_2K_AVC.mp4	0.0	246.09441900253296	0.24158000946044922
62	177.61549711227417	response	0	2		60.0	2.5	/experiments/knapen_aot/videos/S_comp_DB_D002_C003_PSNK_v04_SDR_PS_20180914_SDR_2K_AVC.mp4	0.0	246.32784008979797	
62	177.6236560344696	movie	1		165.0	60.0	2.5	/experiments/knapen_aot/videos/S_comp_DB_D002_C003_PSNK_v04_SDR_PS_20180914_SDR_2K_AVC.mp4	0.0	246.3359990119934	2.508683919906616
62	180.13233995437622	fix_post	2		12.0	60.0	2.5	/experiments/knapen_aot/videos/S_comp_DB_D002_C003_PSNK_v04_SDR_PS_20180914_SDR_2K_AVC.mp4	0.0	248.84468293190002	0.09976911544799805
63	180.23210906982422	fix_pre	0		35.0	61.0	2.5	/experiments/knapen_aot/videos/S_ILSVRC2015_train_00457000.mp4	0.0	248.94445204734802	0.291532039642334
63	180.51557111740112	response	0	2		61.0	2.5	/experiments/knapen_aot/videos/S_ILSVRC2015_train_00457000.mp4	0.0	249.22791409492493	
63	180.52364110946655	movie	1		301.0	61.0	2.5	/experiments/knapen_aot/videos/S_ILSVRC2015_train_00457000.mp4	0.0	249.23598408699036	2.508342981338501
63	183.03198409080505	fix_post	2		12.0	61.0	2.5	/experiments/knapen_aot/videos/S_ILSVRC2015_train_00457000.mp4	0.0	251.74432706832886	0.10002589225769043
64	183.13200998306274	fix_pre	0		49.0	62.0	2.5	/experiments/knapen_aot/videos/S_wc-AJxbR6daLxMM_5.mp4	0.0	251.84435296058655	0.40830397605895996
64	183.53214597702026	response	0	2		62.0	2.5	/experiments/knapen_aot/videos/S_wc-AJxbR6daLxMM_5.mp4	0.0	252.24448895454407	
64	183.5403139591217	movie	1		169.0	62.0	2.5	/experiments/knapen_aot/videos/S_wc-AJxbR6daLxMM_5.mp4	0.0	252.2526569366455	2.5083529949188232
64	186.04866695404053	fix_post	2		12.0	62.0	2.5	/experiments/knapen_aot/videos/S_wc-AJxbR6daLxMM_5.mp4	0.0	254.76100993156433	0.09996795654296875
65	186.1486349105835	fix_pre	0		86.0	63.0	2.5	blank	1.0	254.8609778881073	0.7166111469268799
65	186.8571789264679	response	0	2		63.0	2.5	blank	1.0	255.5695219039917	
65	186.86524605751038	movie	1		301.0	63.0	2.5	blank	1.0	255.57758903503418	2.508347988128662
65	189.37359404563904	fix_post	2		12.0	63.0	2.5	blank	1.0	258.08593702316284	0.10003900527954102
66	189.47363305091858	fix_pre	0		34.0	64.0	2.5	/experiments/knapen_aot/videos/S_production_ID_4101244.mp4	0.0	258.1859760284424	0.2833240032196045
66	189.74877905845642	response	0	2		64.0	2.5	/experiments/knapen_aot/videos/S_production_ID_4101244.mp4	0.0	258.4611220359802	
66	189.75695705413818	movie	1		198.0	64.0	2.5	/experiments/knapen_aot/videos/S_production_ID_4101244.mp4	0.0	258.469300031662	2.508358955383301
66	192.26531600952148	fix_post	2		12.0	64.0	2.5	/experiments/knapen_aot/videos/S_production_ID_4101244.mp4	0.0	260.9776589870453	0.10000395774841309
67	192.3653199672699	fix_pre	0		39.0	65.0	2.5	/experiments/knapen_aot/videos/S_yt-y6JsUW0eSW8_32.mp4	0.0	261.0776629447937	0.3249070644378662
67	192.6820559501648	response	0	2		65.0	2.5	/experiments/knapen_aot/videos/S_yt-y6JsUW0eSW8_32.mp4	0.0	261.3943989276886	
67	192.69022703170776	movie	1		301.0	65.0	2.5	/experiments/knapen_aot/videos/S_yt-y6JsUW0eSW8_32.mp4	0.0	261.40257000923157	2.508435010910034
67	195.1986620426178	fix_post	2		12.0	65.0	2.5	/experiments/knapen_aot/videos/S_yt-y6JsUW0eSW8_32.mp4	0.0	263.9110050201416	0.09998488426208496
68	195.29864692687988	fix_pre	0		24.0	66.0	2.5	/experiments/knapen_aot/videos/R_S_pexels-rodnae-productions-5544703.mp4	0.0	264.0109899044037	0.19995713233947754
68	195.48286390304565	response	0	2		66.0	2.5	/experiments/knapen_aot/videos/R_S_pexels-rodnae-productions-5544703.mp4	0.0	264.19520688056946	
68	195.49860405921936	movie	1		166.0	66.0	2.5	/experiments/knapen_aot/videos/R_S_pexels-rodnae-productions-5544703.mp4	0.0	264.21094703674316	2.5083670616149902
68	198.00697112083435	fix_post	2		12.0	66.0	2.5	/experiments/knapen_aot/videos/R_S_pexels-rodnae-productions-5544703.mp4	0.0	266.71931409835815	0.09996199607849121
69	198.10693311691284	fix_pre	0		19.0	67.0	2.5	/experiments/knapen_aot/videos/S_ILSVRC2015_train_00405000.mp4	0.0	266.81927609443665	0.15831589698791504
69	198.2570469379425	response	0	2		67.0	2.5	/experiments/knapen_aot/videos/S_ILSVRC2015_train_00405000.mp4	0.0	266.9693899154663	
69	198.26524901390076	movie	1		301.0	67.0	2.5	/experiments/knapen_aot/videos/S_ILSVRC2015_train_00405000.mp4	0.0	266.97759199142456	2.5084168910980225
69	200.77366590499878	fix_post	2		12.0	67.0	2.5	/experiments/knapen_aot/videos/S_ILSVRC2015_train_00405000.mp4	0.0	269.4860088825226	0.09989809989929199
70	200.87356400489807	fix_pre	0		29.0	68.0	2.5	blank	1.0	269.5859069824219	0.24291300773620605
70	201.10705709457397	response	0	2		68.0	2.5	blank	1.0	269.8194000720978	
70	201.11647701263428	movie	1		301.0	68.0	2.5	blank	1.0	269.8288199901581	2.507106065750122
70	203.6235830783844	fix_post	2		12.0	68.0	2.5	blank	1.0	272.3359260559082	0.1000978946685791
71	203.72368097305298	fix_pre	0		40.0	69.0	2.5	/experiments/knapen_aot/videos/R_S_yt-BrepyEWKrPQ_20.mp4	0.0	272.4360239505768	0.33318209648132324
71	204.04862689971924	response	0	2		69.0	2.5	/experiments/knapen_aot/videos/R_S_yt-BrepyEWKrPQ_20.mp4	0.0	272.76096987724304	
71	204.0568630695343	movie	1		301.0	69.0	2.5	/experiments/knapen_aot/videos/R_S_yt-BrepyEWKrPQ_20.mp4	0.0	272.7692060470581	2.508333921432495
71	206.5651969909668	fix_post	2		12.0	69.0	2.5	/experiments/knapen_aot/videos/R_S_yt-BrepyEWKrPQ_20.mp4	0.0	275.2775399684906	0.10002303123474121
72	206.66522002220154	fix_pre	0		42.0	70.0	2.5	/experiments/knapen_aot/videos/S_yt-Ndwek2tpIOA_169.mp4	0.0	275.37756299972534	0.34992408752441406
72	207.00715589523315	response	0	2		70.0	2.5	/experiments/knapen_aot/videos/S_yt-Ndwek2tpIOA_169.mp4	0.0	275.71949887275696	
72	207.01514410972595	movie	1		301.0	70.0	2.5	/experiments/knapen_aot/videos/S_yt-Ndwek2tpIOA_169.mp4	0.0	275.72748708724976	2.508389949798584
72	209.52353405952454	fix_post	2		12.0	70.0	2.5	/experiments/knapen_aot/videos/S_yt-Ndwek2tpIOA_169.mp4	0.0	278.23587703704834	0.10002398490905762
73	209.6235580444336	fix_pre	0		24.0	71.0	2.5	/experiments/knapen_aot/videos/S_ILSVRC2015_train_00292006.mp4	0.0	278.3359010219574	0.20147299766540527
73	209.81528902053833	response	0	2		71.0	2.5	/experiments/knapen_aot/videos/S_ILSVRC2015_train_00292006.mp4	0.0	278.52763199806213	
73	209.825031042099	movie	1		301.0	71.0	2.5	/experiments/knapen_aot/videos/S_ILSVRC2015_train_00292006.mp4	0.0	278.5373740196228	2.5069000720977783
73	212.33193111419678	fix_post	2		12.0	71.0	2.5	/experiments/knapen_aot/videos/S_ILSVRC2015_train_00292006.mp4	0.0	281.0442740917206	0.09985685348510742
74	212.43178796768188	fix_pre	0		20.0	72.0	2.5	/experiments/knapen_aot/videos/S_MEX_A006_C008_SDR_20190923_SDR_2K_AVC.mp4	0.0	281.1441309452057	0.1667160987854004
74	212.5902419090271	response	0	2		72.0	2.5	/experiments/knapen_aot/videos/S_MEX_A006_C008_SDR_20190923_SDR_2K_AVC.mp4	0.0	281.3025848865509	
74	212.59850406646729	movie	1		164.0	72.0	2.5	/experiments/knapen_aot/videos/S_MEX_A006_C008_SDR_20190923_SDR_2K_AVC.mp4	0.0	281.3108470439911	2.508582830429077
74	215.10708689689636	fix_post	2		12.0	72.0	2.5	/experiments/knapen_aot/videos/S_MEX_A006_C008_SDR_20190923_SDR_2K_AVC.mp4	0.0	283.81942987442017	0.09977316856384277
75	215.2068600654602	fix_pre	0		21.0	73.0	2.5	/experiments/knapen_aot/videos/S_yt-4wYTkhggZNM_90.mp4	0.0	283.919203042984	0.17498493194580078
75	215.37365198135376	response	0	2		73.0	2.5	/experiments/knapen_aot/videos/S_yt-4wYTkhggZNM_90.mp4	0.0	284.08599495887756	
75	215.381844997406	movie	1		301.0	73.0	2.5	/experiments/knapen_aot/videos/S_yt-4wYTkhggZNM_90.mp4	0.0	284.0941879749298	2.508358955383301
75	217.8902039527893	fix_post	2		12.0	73.0	2.5	/experiments/knapen_aot/videos/S_yt-4wYTkhggZNM_90.mp4	0.0	286.6025469303131	0.09996509552001953
76	217.99016904830933	fix_pre	0		33.0	74.0	2.5	/experiments/knapen_aot/videos/S_yt_R-lST38EdfMMQ_5.mp4	0.0	286.70251202583313	0.27490806579589844
76	218.2570080757141	response	0	2		74.0	2.5	/experiments/knapen_aot/videos/S_yt_R-lST38EdfMMQ_5.mp4	0.0	286.9693510532379	
76	218.26507711410522	movie	1		301.0	74.0	2.5	/experiments/knapen_aot/videos/S_yt_R-lST38EdfMMQ_5.mp4	0.0	286.977420091629	2.5084428787231445
76	220.77351999282837	fix_post	2		12.0	74.0	2.5	/experiments/knapen_aot/videos/S_yt_R-lST38EdfMMQ_5.mp4	0.0	289.4858629703522	0.09990501403808594
77	220.87342500686646	fix_pre	0		31.0	75.0	2.5	/experiments/knapen_aot/videos/R_S_yt-WASlRH1zA8c_175.mp4	0.0	289.58576798439026	0.25829505920410156
77	221.1235420703888	response	0	2		75.0	2.5	/experiments/knapen_aot/videos/R_S_yt-WASlRH1zA8c_175.mp4	0.0	289.8358850479126	
77	221.13172006607056	movie	1		301.0	75.0	2.5	/experiments/knapen_aot/videos/R_S_yt-WASlRH1zA8c_175.mp4	0.0	289.84406304359436	2.508471965789795
77	223.64019203186035	fix_post	2		12.0	75.0	2.5	/experiments/knapen_aot/videos/R_S_yt-WASlRH1zA8c_175.mp4	0.0	292.35253500938416	0.09996604919433594
78	223.7401580810547	fix_pre	0		34.0	76.0	2.5	/experiments/knapen_aot/videos/S_Y009_C015_SDR_2K_AVC.mp4	0.0	292.4525010585785	0.2833099365234375
78	224.01531505584717	response	0	2		76.0	2.5	/experiments/knapen_aot/videos/S_Y009_C015_SDR_2K_AVC.mp4	0.0	292.727658033371	
78	224.02346801757812	movie	1		174.0	76.0	2.5	/experiments/knapen_aot/videos/S_Y009_C015_SDR_2K_AVC.mp4	0.0	292.73581099510193	2.508341073989868
78	226.531809091568	fix_post	2		12.0	76.0	2.5	/experiments/knapen_aot/videos/S_Y009_C015_SDR_2K_AVC.mp4	0.0	295.2441520690918	0.09989285469055176
79	226.63170194625854	fix_pre	0		29.0	77.0	2.5	blank	1.0	295.34404492378235	0.24184703826904297
79	226.86526203155518	response	0	2		77.0	2.5	blank	1.0	295.577605009079	
79	226.8735489845276	movie	1		301.0	77.0	2.5	blank	1.0	295.5858919620514	2.50821590423584
79	229.38176488876343	fix_post	2		12.0	77.0	2.5	blank	1.0	298.09410786628723	0.10000109672546387
80	229.4817659854889	fix_pre	0		27.0	78.0	2.5	/experiments/knapen_aot/videos/S_comp_LW_L001_C006_PSNK_DENOISE_v02_SDR_PS_FINAL_20180709_SDR_2K_AVC.mp4	0.0	298.1941089630127	0.22495102882385254
80	229.69851803779602	response	0	2		78.0	2.5	/experiments/knapen_aot/videos/S_comp_LW_L001_C006_PSNK_DENOISE_v02_SDR_PS_FINAL_20180709_SDR_2K_AVC.mp4	0.0	298.4108610153198	
80	229.70671701431274	movie	1		167.0	78.0	2.5	/experiments/knapen_aot/videos/S_comp_LW_L001_C006_PSNK_DENOISE_v02_SDR_PS_FINAL_20180709_SDR_2K_AVC.mp4	0.0	298.41905999183655	2.5083630084991455
80	232.2150800228119	fix_post	2		12.0	78.0	2.5	/experiments/knapen_aot/videos/S_comp_LW_L001_C006_PSNK_DENOISE_v02_SDR_PS_FINAL_20180709_SDR_2K_AVC.mp4	0.0	300.9274230003357	0.10002994537353516
81	232.31510996818542	fix_pre	0		57.0	79.0	2.5	/experiments/knapen_aot/videos/S_ILSVRC2015_train_00369002.mp4	0.0	301.02745294570923	0.47494006156921387
81	232.7818911075592	response	0	2		79.0	2.5	/experiments/knapen_aot/videos/S_ILSVRC2015_train_00369002.mp4	0.0	301.494234085083	
81	232.79005002975464	movie	1		301.0	79.0	2.5	/experiments/knapen_aot/videos/S_ILSVRC2015_train_00369002.mp4	0.0	301.50239300727844	2.5083510875701904
81	235.29840111732483	fix_post	2		12.0	79.0	2.5	/experiments/knapen_aot/videos/S_ILSVRC2015_train_00369002.mp4	0.0	304.01074409484863	0.09999585151672363
82	235.39839696884155	fix_pre	0		32.0	80.0	2.5	/experiments/knapen_aot/videos/S_yt-tHBOlYmaBuk_96.mp4	0.0	304.11073994636536	0.26659297943115234
82	235.6569049358368	response	0	2		80.0	2.5	/experiments/knapen_aot/videos/S_yt-tHBOlYmaBuk_96.mp4	0.0	304.3692479133606	
82	235.6649899482727	movie	1		301.0	80.0	2.5	/experiments/knapen_aot/videos/S_yt-tHBOlYmaBuk_96.mp4	0.0	304.3773329257965	2.5083470344543457
82	238.17333698272705	fix_post	2		12.0	80.0	2.5	/experiments/knapen_aot/videos/S_yt-tHBOlYmaBuk_96.mp4	0.0	306.88567996025085	0.10004806518554688
83	238.2733850479126	fix_pre	0		29.0	81.0	2.5	/experiments/knapen_aot/videos/R_S_ILSVRC2015_train_00414000.mp4	0.0	306.9857280254364	0.24161505699157715
83	238.50683498382568	response	0	2		81.0	2.5	/experiments/knapen_aot/videos/R_S_ILSVRC2015_train_00414000.mp4	0.0	307.2191779613495	
83	238.51500010490417	movie	1		301.0	81.0	2.5	/experiments/knapen_aot/videos/R_S_ILSVRC2015_train_00414000.mp4	0.0	307.227343082428	2.5084187984466553
83	241.02341890335083	fix_post	2		12.0	81.0	2.5	/experiments/knapen_aot/videos/R_S_ILSVRC2015_train_00414000.mp4	0.0	309.73576188087463	0.09996604919433594
84	241.12338495254517	fix_pre	0		39.0	82.0	2.5	blank	1.0	309.83572793006897	0.3259561061859131
84	241.4401500225067	response	0	2		82.0	2.5	blank	1.0	310.1524930000305	
84	241.44934105873108	movie	1		301.0	82.0	2.5	blank	1.0	310.1616840362549	2.507395029067993
84	243.95673608779907	fix_post	2		12.0	82.0	2.5	blank	1.0	312.6690790653229	0.1002049446105957
85	244.05694103240967	fix_pre	0		48.0	83.0	2.5	/experiments/knapen_aot/videos/S_yt-yB7mPODPTVw_74.mp4	0.0	312.7692840099335	0.3997218608856201
85	244.44095301628113	response	0	2		83.0	2.5	/experiments/knapen_aot/videos/S_yt-yB7mPODPTVw_74.mp4	0.0	313.15329599380493	
85	244.4566628932953	movie	1		301.0	83.0	2.5	/experiments/knapen_aot/videos/S_yt-yB7mPODPTVw_74.mp4	0.0	313.1690058708191	2.5083980560302734
85	246.96506094932556	fix_post	2		12.0	83.0	2.5	/experiments/knapen_aot/videos/S_yt-yB7mPODPTVw_74.mp4	0.0	315.67740392684937	0.0999760627746582
87	247.06503701210022	stim	0		318.0					315.777379989624	2.649949073791504
87	247.3234350681305	response	0	2						316.0357780456543	
87	249.71056199073792	response	0	space						318.4229049682617	
