trial_nr	onset	event_type	phase	response	nr_frames	movie_index	movie_duration	movie_file	blank	onset_abs	duration
0	0.15825104713439941	stim	0		29.0					143.34351301193237	0.30010294914245605
0	0.42505502700805664	response	0	space						143.61031699180603	
1	0.45835399627685547	stim	0		121.0					143.64361596107483	1.0083410739898682
1	1.4666950702667236	stim	1		120.0					144.6519570350647	0.9996020793914795
2	2.466297149658203	fix_pre	0		13.0	0.0	2.5	/experiments/knapen_aot/videos/R_S_pexels-ron-lach-8071987.mp4	0.0	145.65155911445618	0.1083369255065918
2	2.566470146179199	response	0	space		0.0	2.5	/experiments/knapen_aot/videos/R_S_pexels-ron-lach-8071987.mp4	0.0	145.75173211097717	
2	2.574634075164795	movie	1		220.0	0.0	2.5	/experiments/knapen_aot/videos/R_S_pexels-ron-lach-8071987.mp4	0.0	145.75989603996277	2.5082249641418457
2	4.844292163848877	response	1	2		0.0	2.5	/experiments/knapen_aot/videos/R_S_pexels-ron-lach-8071987.mp4	0.0	148.02955412864685	
2	5.082859039306641	fix_post	2		12.0	0.0	2.5	/experiments/knapen_aot/videos/R_S_pexels-ron-lach-8071987.mp4	0.0	148.26812100410461	0.10009407997131348
3	5.182953119277954	fix_pre	0		1.0	1.0	2.5	/experiments/knapen_aot/videos/S_ILSVRC2015_train_00682009.mp4	0.0	148.36821508407593	0.009521007537841797
3	5.184653997421265	response	0	2		1.0	2.5	/experiments/knapen_aot/videos/S_ILSVRC2015_train_00682009.mp4	0.0	148.36991596221924	
3	5.192474126815796	movie	1		301.0	1.0	2.5	/experiments/knapen_aot/videos/S_ILSVRC2015_train_00682009.mp4	0.0	148.37773609161377	2.507204055786133
3	7.699678182601929	fix_post	2		12.0	1.0	2.5	/experiments/knapen_aot/videos/S_ILSVRC2015_train_00682009.mp4	0.0	150.8849401473999	0.09988880157470703
4	7.799566984176636	fix_pre	0		7.0	2.0	2.5	/experiments/knapen_aot/videos/S_yt-b29VtKvlnWE_430.mp4	0.0	150.9848289489746	0.05945396423339844
4	7.849694013595581	response	0	2		2.0	2.5	/experiments/knapen_aot/videos/S_yt-b29VtKvlnWE_430.mp4	0.0	151.03495597839355	
4	7.859020948410034	movie	1		301.0	2.0	2.5	/experiments/knapen_aot/videos/S_yt-b29VtKvlnWE_430.mp4	0.0	151.044282913208	2.507338047027588
4	10.366358995437622	fix_post	2		11.0	2.0	2.5	/experiments/knapen_aot/videos/S_yt-b29VtKvlnWE_430.mp4	0.0	153.5516209602356	0.09154915809631348
4	10.449769020080566	response	2	2		2.0	2.5	/experiments/knapen_aot/videos/S_yt-b29VtKvlnWE_430.mp4	0.0	153.63503098487854	
5	10.457908153533936	fix_pre	0		44.0	3.0	2.5	/experiments/knapen_aot/videos/S_yt-3DM_SqT4RII_10.mp4	0.0	153.6431701183319	0.36666083335876465
5	10.816303014755249	response	0	2		3.0	2.5	/experiments/knapen_aot/videos/S_yt-3DM_SqT4RII_10.mp4	0.0	154.00156497955322	
5	10.8245689868927	movie	1		301.0	3.0	2.5	/experiments/knapen_aot/videos/S_yt-3DM_SqT4RII_10.mp4	0.0	154.00983095169067	2.508296012878418
5	13.332864999771118	fix_post	2		12.0	3.0	2.5	/experiments/knapen_aot/videos/S_yt-3DM_SqT4RII_10.mp4	0.0	156.5181269645691	0.10005712509155273
5	13.424710035324097	response	2	2		3.0	2.5	/experiments/knapen_aot/videos/S_yt-3DM_SqT4RII_10.mp4	0.0	156.60997200012207	
6	13.432922124862671	fix_pre	0		49.0	4.0	2.5	/experiments/knapen_aot/videos/R_S_I003_C015_SDR_2K_AVC.mp4	0.0	156.61818408966064	0.40827083587646484
6	13.832986116409302	response	0	2		4.0	2.5	/experiments/knapen_aot/videos/R_S_I003_C015_SDR_2K_AVC.mp4	0.0	157.01824808120728	
6	13.841192960739136	movie	1		171.0	4.0	2.5	/experiments/knapen_aot/videos/R_S_I003_C015_SDR_2K_AVC.mp4	0.0	157.0264549255371	2.5083701610565186
6	16.349563121795654	fix_post	2		12.0	4.0	2.5	/experiments/knapen_aot/videos/R_S_I003_C015_SDR_2K_AVC.mp4	0.0	159.53482508659363	0.10013484954833984
7	16.449697971343994	fix_pre	0		4.0	5.0	2.5	/experiments/knapen_aot/videos/S_yt-2V2tq9-O_Nc_1669.mp4	0.0	159.63495993614197	0.034240007400512695
7	16.474749088287354	response	0	2		5.0	2.5	/experiments/knapen_aot/videos/S_yt-2V2tq9-O_Nc_1669.mp4	0.0	159.66001105308533	
7	16.483937978744507	movie	1		301.0	5.0	2.5	/experiments/knapen_aot/videos/S_yt-2V2tq9-O_Nc_1669.mp4	0.0	159.66919994354248	2.507242202758789
7	18.991180181503296	fix_post	2		12.0	5.0	2.5	/experiments/knapen_aot/videos/S_yt-2V2tq9-O_Nc_1669.mp4	0.0	162.17644214630127	0.10000896453857422
8	19.09118914604187	fix_pre	0		17.0	6.0	2.5	blank	1.0	162.27645111083984	0.14168000221252441
8	19.224709033966064	response	0	2		6.0	2.5	blank	1.0	162.40997099876404	
8	19.232869148254395	movie	1		301.0	6.0	2.5	blank	1.0	162.41813111305237	2.5083470344543457
8	21.74121618270874	fix_post	2		12.0	6.0	2.5	blank	1.0	164.9264781475067	0.09997892379760742
9	21.841195106506348	fix_pre	0		38.0	7.0	2.5	/experiments/knapen_aot/videos/R_S_pexels-c-technical-6753390_2.mp4	0.0	165.02645707130432	0.3166229724884033
9	22.1496479511261	response	0	2		7.0	2.5	/experiments/knapen_aot/videos/R_S_pexels-c-technical-6753390_2.mp4	0.0	165.33490991592407	
9	22.15781807899475	movie	1		197.0	7.0	2.5	/experiments/knapen_aot/videos/R_S_pexels-c-technical-6753390_2.mp4	0.0	165.34308004379272	2.5083720684051514
9	24.666190147399902	fix_post	2		12.0	7.0	2.5	/experiments/knapen_aot/videos/R_S_pexels-c-technical-6753390_2.mp4	0.0	167.85145211219788	0.09999680519104004
10	24.766186952590942	fix_pre	0		29.0	8.0	2.5	/experiments/knapen_aot/videos/R_S_pexels-anthony-shkraba-7569650.mp4	0.0	167.95144891738892	0.24166202545166016
10	24.999608039855957	response	0	2		8.0	2.5	/experiments/knapen_aot/videos/R_S_pexels-anthony-shkraba-7569650.mp4	0.0	168.18487000465393	
10	25.007848978042603	movie	1		206.0	8.0	2.5	/experiments/knapen_aot/videos/R_S_pexels-anthony-shkraba-7569650.mp4	0.0	168.19311094284058	2.508352041244507
10	27.51620101928711	fix_post	2		12.0	8.0	2.5	/experiments/knapen_aot/videos/R_S_pexels-anthony-shkraba-7569650.mp4	0.0	170.70146298408508	0.10001301765441895
11	27.61621403694153	fix_pre	0		14.0	9.0	2.5	/experiments/knapen_aot/videos/S_comp_A351_C001_v06_SDR_PS_20180725_SDR_2K_AVC.mp4	0.0	170.8014760017395	0.1175849437713623
11	27.724809169769287	response	0	2		9.0	2.5	/experiments/knapen_aot/videos/S_comp_A351_C001_v06_SDR_PS_20180725_SDR_2K_AVC.mp4	0.0	170.91007113456726	
11	27.73379898071289	movie	1		163.0	9.0	2.5	/experiments/knapen_aot/videos/S_comp_A351_C001_v06_SDR_PS_20180725_SDR_2K_AVC.mp4	0.0	170.91906094551086	2.5074050426483154
11	30.241204023361206	fix_post	2		12.0	9.0	2.5	/experiments/knapen_aot/videos/S_comp_A351_C001_v06_SDR_PS_20180725_SDR_2K_AVC.mp4	0.0	173.42646598815918	0.09995293617248535
12	30.34115695953369	fix_pre	0		1.0	10.0	2.5	/experiments/knapen_aot/videos/R_S_yt-BDCyXL5e9S4_223.mp4	0.0	173.52641892433167	0.010806083679199219
12	30.34283709526062	response	0	2		10.0	2.5	/experiments/knapen_aot/videos/R_S_yt-BDCyXL5e9S4_223.mp4	0.0	173.5280990600586	
12	30.35196304321289	movie	1		301.0	10.0	2.5	/experiments/knapen_aot/videos/R_S_yt-BDCyXL5e9S4_223.mp4	0.0	173.53722500801086	2.5058510303497314
12	32.85781407356262	fix_post	2		12.0	10.0	2.5	/experiments/knapen_aot/videos/R_S_yt-BDCyXL5e9S4_223.mp4	0.0	176.0430760383606	0.099945068359375
13	32.957759141922	fix_pre	0		13.0	11.0	2.5	/experiments/knapen_aot/videos/S_pexels-mart-production-7698911_1.mp4	0.0	176.14302110671997	0.10933494567871094
13	33.05792713165283	response	0	2		11.0	2.5	/experiments/knapen_aot/videos/S_pexels-mart-production-7698911_1.mp4	0.0	176.2431890964508	
13	33.06709408760071	movie	1		200.0	11.0	2.5	/experiments/knapen_aot/videos/S_pexels-mart-production-7698911_1.mp4	0.0	176.25235605239868	2.5073800086975098
13	35.57447409629822	fix_post	2		12.0	11.0	2.5	/experiments/knapen_aot/videos/S_pexels-mart-production-7698911_1.mp4	0.0	178.7597360610962	0.09996294975280762
14	35.674437046051025	fix_pre	0		3.0	12.0	2.5	/experiments/knapen_aot/videos/S_yt-7VVzNnp36DM_78.mp4	0.0	178.859699010849	0.02511000633239746
14	35.69123411178589	response	0	2		12.0	2.5	/experiments/knapen_aot/videos/S_yt-7VVzNnp36DM_78.mp4	0.0	178.87649607658386	
14	35.69954705238342	movie	1		301.0	12.0	2.5	/experiments/knapen_aot/videos/S_yt-7VVzNnp36DM_78.mp4	0.0	178.8848090171814	2.5083611011505127
14	38.207908153533936	fix_post	2		12.0	12.0	2.5	/experiments/knapen_aot/videos/S_yt-7VVzNnp36DM_78.mp4	0.0	181.3931701183319	0.0998849868774414
15	38.30779314041138	fix_pre	0		24.0	13.0	2.5	/experiments/knapen_aot/videos/S_ahJft-G235A_122.mp4	0.0	181.49305510520935	0.19997382164001465
15	38.49962115287781	response	0	2		13.0	2.5	/experiments/knapen_aot/videos/S_ahJft-G235A_122.mp4	0.0	181.68488311767578	
15	38.50776696205139	movie	1		301.0	13.0	2.5	/experiments/knapen_aot/videos/S_ahJft-G235A_122.mp4	0.0	181.69302892684937	2.50832200050354
15	41.01608896255493	fix_post	2		12.0	13.0	2.5	/experiments/knapen_aot/videos/S_ahJft-G235A_122.mp4	0.0	184.2013509273529	0.09995102882385254
16	41.116039991378784	fix_pre	0		21.0	14.0	2.5	blank	1.0	184.30130195617676	0.17510414123535156
16	41.282907009124756	response	0	2		14.0	2.5	blank	1.0	184.46816897392273	
16	41.291144132614136	movie	1		301.0	14.0	2.5	blank	1.0	184.4764060974121	2.5085229873657227
16	43.79966711997986	fix_post	2		12.0	14.0	2.5	blank	1.0	186.98492908477783	0.10085797309875488
17	43.90052509307861	fix_pre	0		40.0	15.0	2.5	/experiments/knapen_aot/videos/S_pexels-ron-lach-8071987.mp4	0.0	187.0857870578766	0.3331410884857178
17	44.224518060684204	response	0	2		15.0	2.5	/experiments/knapen_aot/videos/S_pexels-ron-lach-8071987.mp4	0.0	187.40978002548218	
17	44.23366618156433	movie	1		189.0	15.0	2.5	/experiments/knapen_aot/videos/S_pexels-ron-lach-8071987.mp4	0.0	187.4189281463623	2.5074238777160645
17	46.741090059280396	fix_post	2		12.0	15.0	2.5	/experiments/knapen_aot/videos/S_pexels-ron-lach-8071987.mp4	0.0	189.92635202407837	0.09998297691345215
18	46.84107303619385	fix_pre	0		33.0	16.0	2.5	/experiments/knapen_aot/videos/R_S_yt-H-qQ0oE1kwM_6.mp4	0.0	190.02633500099182	0.27492809295654297
18	47.10787296295166	response	0	2		16.0	2.5	/experiments/knapen_aot/videos/R_S_yt-H-qQ0oE1kwM_6.mp4	0.0	190.29313492774963	
18	47.11600112915039	movie	1		301.0	16.0	2.5	/experiments/knapen_aot/videos/R_S_yt-H-qQ0oE1kwM_6.mp4	0.0	190.30126309394836	2.5084068775177
18	49.62440800666809	fix_post	2		12.0	16.0	2.5	/experiments/knapen_aot/videos/R_S_yt-H-qQ0oE1kwM_6.mp4	0.0	192.80966997146606	0.09996914863586426
19	49.724377155303955	fix_pre	0		16.0	17.0	2.5	/experiments/knapen_aot/videos/S_ILSVRC2015_train_00743002.mp4	0.0	192.90963912010193	0.13424992561340332
19	49.841938972473145	response	0	2		17.0	2.5	/experiments/knapen_aot/videos/S_ILSVRC2015_train_00743002.mp4	0.0	193.02720093727112	
19	49.85862708091736	movie	1		301.0	17.0	2.5	/experiments/knapen_aot/videos/S_ILSVRC2015_train_00743002.mp4	0.0	193.04388904571533	2.5074729919433594
19	52.36610007286072	fix_post	2		12.0	17.0	2.5	/experiments/knapen_aot/videos/S_ILSVRC2015_train_00743002.mp4	0.0	195.5513620376587	0.09998297691345215
20	52.46608304977417	fix_pre	0		22.0	18.0	2.5	/experiments/knapen_aot/videos/R_S_production_ID_5199636.mp4	0.0	195.65134501457214	0.18421411514282227
20	52.64118814468384	response	0	2		18.0	2.5	/experiments/knapen_aot/videos/R_S_production_ID_5199636.mp4	0.0	195.8264501094818	
20	52.65029716491699	movie	1		168.0	18.0	2.5	/experiments/knapen_aot/videos/R_S_production_ID_5199636.mp4	0.0	195.83555912971497	2.507459878921509
20	55.1577570438385	fix_post	2		12.0	18.0	2.5	/experiments/knapen_aot/videos/R_S_production_ID_5199636.mp4	0.0	198.34301900863647	0.09991598129272461
20	55.241146087646484	response	2	2		18.0	2.5	/experiments/knapen_aot/videos/R_S_production_ID_5199636.mp4	0.0	198.42640805244446	
21	55.257673025131226	fix_pre	0		49.0	19.0	2.5	/experiments/knapen_aot/videos/R_S_ILSVRC2015_train_00745000.mp4	0.0	198.4429349899292	0.40830492973327637
21	55.657708168029785	response	0	2		19.0	2.5	/experiments/knapen_aot/videos/R_S_ILSVRC2015_train_00745000.mp4	0.0	198.84297013282776	
21	55.6659779548645	movie	1		301.0	19.0	2.5	/experiments/knapen_aot/videos/R_S_ILSVRC2015_train_00745000.mp4	0.0	198.85123991966248	2.508424997329712
21	58.174402952194214	fix_post	2		12.0	19.0	2.5	/experiments/knapen_aot/videos/R_S_ILSVRC2015_train_00745000.mp4	0.0	201.3596649169922	0.09998011589050293
22	58.27438306808472	fix_pre	0		13.0	20.0	2.5	/experiments/knapen_aot/videos/S_video_inspire_florida_miami_brickell_sunset_00036.1080-h264.mp4	0.0	201.4596450328827	0.10830402374267578
22	58.37453508377075	response	0	2		20.0	2.5	/experiments/knapen_aot/videos/S_video_inspire_florida_miami_brickell_sunset_00036.1080-h264.mp4	0.0	201.55979704856873	
22	58.38268709182739	movie	1		166.0	20.0	2.5	/experiments/knapen_aot/videos/S_video_inspire_florida_miami_brickell_sunset_00036.1080-h264.mp4	0.0	201.56794905662537	2.5082950592041016
22	60.890982151031494	fix_post	2		12.0	20.0	2.5	/experiments/knapen_aot/videos/S_video_inspire_florida_miami_brickell_sunset_00036.1080-h264.mp4	0.0	204.07624411582947	0.10000300407409668
23	60.99098515510559	fix_pre	0		11.0	21.0	2.5	blank	1.0	204.17624711990356	0.09166383743286133
23	61.066816091537476	response	0	2		21.0	2.5	blank	1.0	204.25207805633545	
23	61.08264899253845	movie	1		301.0	21.0	2.5	blank	1.0	204.26791095733643	2.5084421634674072
23	63.59109115600586	fix_post	2		12.0	21.0	2.5	blank	1.0	206.77635312080383	0.1007239818572998
24	63.69181513786316	fix_pre	0		24.0	22.0	2.5	/experiments/knapen_aot/videos/R_S_yt-EKPrSw5xF7k_112.mp4	0.0	206.87707710266113	0.19911503791809082
24	63.875240087509155	response	0	2		22.0	2.5	/experiments/knapen_aot/videos/R_S_yt-EKPrSw5xF7k_112.mp4	0.0	207.06050205230713	
24	63.89093017578125	movie	1		301.0	22.0	2.5	/experiments/knapen_aot/videos/R_S_yt-EKPrSw5xF7k_112.mp4	0.0	207.07619214057922	2.5083868503570557
24	66.3993170261383	fix_post	2		12.0	22.0	2.5	/experiments/knapen_aot/videos/R_S_yt-EKPrSw5xF7k_112.mp4	0.0	209.58457899093628	0.10009098052978516
25	66.49940800666809	fix_pre	0		24.0	23.0	2.5	/experiments/knapen_aot/videos/R_S_yt-E8EDQCPbBeI_196.mp4	0.0	209.68466997146606	0.19982695579528809
25	66.6910810470581	response	0	2		23.0	2.5	/experiments/knapen_aot/videos/R_S_yt-E8EDQCPbBeI_196.mp4	0.0	209.87634301185608	
25	66.69923496246338	movie	1		301.0	23.0	2.5	/experiments/knapen_aot/videos/R_S_yt-E8EDQCPbBeI_196.mp4	0.0	209.88449692726135	2.5083420276641846
25	69.20757699012756	fix_post	2		12.0	23.0	2.5	/experiments/knapen_aot/videos/R_S_yt-E8EDQCPbBeI_196.mp4	0.0	212.39283895492554	0.10001301765441895
26	69.30759000778198	fix_pre	0		17.0	24.0	2.5	/experiments/knapen_aot/videos/R_S_ILSVRC2015_train_00457000.mp4	0.0	212.49285197257996	0.14173197746276855
26	69.44109010696411	response	0	2		24.0	2.5	/experiments/knapen_aot/videos/R_S_ILSVRC2015_train_00457000.mp4	0.0	212.62635207176208	
26	69.44932198524475	movie	1		301.0	24.0	2.5	/experiments/knapen_aot/videos/R_S_ILSVRC2015_train_00457000.mp4	0.0	212.63458395004272	2.5083131790161133
26	71.95763516426086	fix_post	2		12.0	24.0	2.5	/experiments/knapen_aot/videos/R_S_ILSVRC2015_train_00457000.mp4	0.0	215.14289712905884	0.09996294975280762
26	71.98267316818237	response	2	2		24.0	2.5	/experiments/knapen_aot/videos/R_S_ILSVRC2015_train_00457000.mp4	0.0	215.16793513298035	
27	72.05759811401367	fix_pre	0		56.0	25.0	2.5	/experiments/knapen_aot/videos/S_yt-c-H45QS0CF4_147.mp4	0.0	215.24286007881165	0.4674549102783203
27	72.50854206085205	response	0	2		25.0	2.5	/experiments/knapen_aot/videos/S_yt-c-H45QS0CF4_147.mp4	0.0	215.69380402565002	
27	72.52505302429199	movie	1		301.0	25.0	2.5	/experiments/knapen_aot/videos/S_yt-c-H45QS0CF4_147.mp4	0.0	215.71031498908997	2.507544994354248
27	74.91606712341309	response	1	2		25.0	2.5	/experiments/knapen_aot/videos/S_yt-c-H45QS0CF4_147.mp4	0.0	218.10132908821106	
27	75.03259801864624	fix_post	2		12.0	25.0	2.5	/experiments/knapen_aot/videos/S_yt-c-H45QS0CF4_147.mp4	0.0	218.2178599834442	0.0999760627746582
28	75.1325740814209	fix_pre	0		47.0	26.0	2.5	blank	1.0	218.31783604621887	0.39245009422302246
28	75.51597118377686	response	0	2		26.0	2.5	blank	1.0	218.70123314857483	
28	75.52502417564392	movie	1		301.0	26.0	2.5	blank	1.0	218.7102861404419	2.5075368881225586
28	78.03256106376648	fix_post	2		12.0	26.0	2.5	blank	1.0	221.21782302856445	0.1000070571899414
29	78.13256812095642	fix_pre	0		34.0	27.0	2.5	/experiments/knapen_aot/videos/S_ILSVRC2015_train_00418001.mp4	0.0	221.3178300857544	0.2832808494567871
29	78.40770602226257	response	0	2		27.0	2.5	/experiments/knapen_aot/videos/S_ILSVRC2015_train_00418001.mp4	0.0	221.59296798706055	
29	78.41584897041321	movie	1		301.0	27.0	2.5	/experiments/knapen_aot/videos/S_ILSVRC2015_train_00418001.mp4	0.0	221.60111093521118	2.5083370208740234
29	80.92418599128723	fix_post	2		12.0	27.0	2.5	/experiments/knapen_aot/videos/S_ILSVRC2015_train_00418001.mp4	0.0	224.1094479560852	0.10004496574401855
30	81.02423095703125	fix_pre	0		29.0	28.0	2.5	/experiments/knapen_aot/videos/R_S_yt-V_2XgfjJfeQ_67.mp4	0.0	224.20949292182922	0.24163603782653809
30	81.25770401954651	response	0	2		28.0	2.5	/experiments/knapen_aot/videos/R_S_yt-V_2XgfjJfeQ_67.mp4	0.0	224.44296598434448	
30	81.26586699485779	movie	1		301.0	28.0	2.5	/experiments/knapen_aot/videos/R_S_yt-V_2XgfjJfeQ_67.mp4	0.0	224.45112895965576	2.508394956588745
30	83.77426195144653	fix_post	2		12.0	28.0	2.5	/experiments/knapen_aot/videos/R_S_yt-V_2XgfjJfeQ_67.mp4	0.0	226.9595239162445	0.09993314743041992
31	83.87419509887695	fix_pre	0		27.0	29.0	2.5	/experiments/knapen_aot/videos/R_S_yt-OEY9O2MglQM_7.mp4	0.0	227.05945706367493	0.2250208854675293
31	84.09090900421143	response	0	2		29.0	2.5	/experiments/knapen_aot/videos/R_S_yt-OEY9O2MglQM_7.mp4	0.0	227.2761709690094	
31	84.09921598434448	movie	1		301.0	29.0	2.5	/experiments/knapen_aot/videos/R_S_yt-OEY9O2MglQM_7.mp4	0.0	227.28447794914246	2.508371114730835
31	86.60758709907532	fix_post	2		12.0	29.0	2.5	/experiments/knapen_aot/videos/R_S_yt-OEY9O2MglQM_7.mp4	0.0	229.7928490638733	0.10001087188720703
32	86.70759797096252	fix_pre	0		18.0	30.0	2.5	/experiments/knapen_aot/videos/S_pexels-roman-odintsov-8232443_1.mp4	0.0	229.8928599357605	0.15065407752990723
32	86.84934902191162	response	0	2		30.0	2.5	/experiments/knapen_aot/videos/S_pexels-roman-odintsov-8232443_1.mp4	0.0	230.0346109867096	
32	86.85825204849243	movie	1		206.0	30.0	2.5	/experiments/knapen_aot/videos/S_pexels-roman-odintsov-8232443_1.mp4	0.0	230.0435140132904	2.5076370239257812
32	89.36588907241821	fix_post	2		12.0	30.0	2.5	/experiments/knapen_aot/videos/S_pexels-roman-odintsov-8232443_1.mp4	0.0	232.5511510372162	0.09994006156921387
33	89.46582913398743	fix_pre	0		22.0	31.0	2.5	/experiments/knapen_aot/videos/R_S_yt-3DM_SqT4RII_10.mp4	0.0	232.6510910987854	0.18401384353637695
33	89.64107704162598	response	0	2		31.0	2.5	/experiments/knapen_aot/videos/R_S_yt-3DM_SqT4RII_10.mp4	0.0	232.82633900642395	
33	89.6498429775238	movie	1		301.0	31.0	2.5	/experiments/knapen_aot/videos/R_S_yt-3DM_SqT4RII_10.mp4	0.0	232.83510494232178	2.5076780319213867
33	92.15752100944519	fix_post	2		12.0	31.0	2.5	/experiments/knapen_aot/videos/R_S_yt-3DM_SqT4RII_10.mp4	0.0	235.34278297424316	0.10000109672546387
34	92.25752210617065	fix_pre	0		31.0	32.0	2.5	/experiments/knapen_aot/videos/S_yt-AOP7QYQntPI_28.mp4	0.0	235.44278407096863	0.2583019733428955
34	92.50760412216187	response	0	2		32.0	2.5	/experiments/knapen_aot/videos/S_yt-AOP7QYQntPI_28.mp4	0.0	235.69286608695984	
34	92.51582407951355	movie	1		301.0	32.0	2.5	/experiments/knapen_aot/videos/S_yt-AOP7QYQntPI_28.mp4	0.0	235.70108604431152	2.508347988128662
34	95.02417206764221	fix_post	2		12.0	32.0	2.5	/experiments/knapen_aot/videos/S_yt-AOP7QYQntPI_28.mp4	0.0	238.20943403244019	0.09996795654296875
35	95.12414002418518	fix_pre	0		8.0	33.0	2.5	/experiments/knapen_aot/videos/S_yt-b29VtKvlnWE_430.mp4	0.0	238.30940198898315	0.06734514236450195
35	95.18260717391968	response	0	2		33.0	2.5	/experiments/knapen_aot/videos/S_yt-b29VtKvlnWE_430.mp4	0.0	238.36786913871765	
35	95.19148516654968	movie	1		301.0	33.0	2.5	/experiments/knapen_aot/videos/S_yt-b29VtKvlnWE_430.mp4	0.0	238.37674713134766	2.5076708793640137
35	97.6991560459137	fix_post	2		12.0	33.0	2.5	/experiments/knapen_aot/videos/S_yt-b29VtKvlnWE_430.mp4	0.0	240.88441801071167	0.09993696212768555
36	97.79909300804138	fix_pre	0		14.0	34.0	2.5	blank	1.0	240.98435497283936	0.11671304702758789
36	97.90760517120361	response	0	2		34.0	2.5	blank	1.0	241.0928671360016	
36	97.91580605506897	movie	1		301.0	34.0	2.5	blank	1.0	241.10106801986694	2.508286952972412
36	100.42409300804138	fix_post	2		12.0	34.0	2.5	blank	1.0	243.60935497283936	0.10074615478515625
37	100.52483916282654	fix_pre	0		37.0	35.0	2.5	/experiments/knapen_aot/videos/R_S_b1-3.mp4	0.0	243.7101011276245	0.30764079093933105
37	100.82416296005249	response	0	2		35.0	2.5	/experiments/knapen_aot/videos/R_S_b1-3.mp4	0.0	244.00942492485046	
37	100.83247995376587	movie	1		166.0	35.0	2.5	/experiments/knapen_aot/videos/R_S_b1-3.mp4	0.0	244.01774191856384	2.508341073989868
37	103.34082102775574	fix_post	2		12.0	35.0	2.5	/experiments/knapen_aot/videos/R_S_b1-3.mp4	0.0	246.5260829925537	0.10000300407409668
38	103.44082403182983	fix_pre	0		1.0	36.0	2.5	/experiments/knapen_aot/videos/R_S_ILSVRC2015_train_00373000.mp4	0.0	246.6260859966278	0.008301973342895508
38	103.44247317314148	response	0	2		36.0	2.5	/experiments/knapen_aot/videos/R_S_ILSVRC2015_train_00373000.mp4	0.0	246.62773513793945	
38	103.44912600517273	movie	1		301.0	36.0	2.5	/experiments/knapen_aot/videos/R_S_ILSVRC2015_train_00373000.mp4	0.0	246.6343879699707	2.508388042449951
38	105.95751404762268	fix_post	2		12.0	36.0	2.5	/experiments/knapen_aot/videos/R_S_ILSVRC2015_train_00373000.mp4	0.0	249.14277601242065	0.09992313385009766
39	106.05743718147278	fix_pre	0		15.0	37.0	2.5	/experiments/knapen_aot/videos/S_comp_A009_C001_010181A_v09_SDR_PS_FINAL_20180725_SDR_2K_AVC.mp4	0.0	249.24269914627075	0.12497591972351074
39	106.17417502403259	response	0	2		37.0	2.5	/experiments/knapen_aot/videos/S_comp_A009_C001_010181A_v09_SDR_PS_FINAL_20180725_SDR_2K_AVC.mp4	0.0	249.35943698883057	
39	106.18241310119629	movie	1		165.0	37.0	2.5	/experiments/knapen_aot/videos/S_comp_A009_C001_010181A_v09_SDR_PS_FINAL_20180725_SDR_2K_AVC.mp4	0.0	249.36767506599426	2.5083909034729004
39	108.69080400466919	fix_post	2		12.0	37.0	2.5	/experiments/knapen_aot/videos/S_comp_A009_C001_010181A_v09_SDR_PS_FINAL_20180725_SDR_2K_AVC.mp4	0.0	251.87606596946716	0.09998202323913574
40	108.79078602790833	fix_pre	0		1.0	38.0	2.5	/experiments/knapen_aot/videos/S_pexels-koolshooters-7327412_1.mp4	0.0	251.9760479927063	0.0083160400390625
40	108.79249095916748	response	0	2		38.0	2.5	/experiments/knapen_aot/videos/S_pexels-koolshooters-7327412_1.mp4	0.0	251.97775292396545	
40	108.79910206794739	movie	1		162.0	38.0	2.5	/experiments/knapen_aot/videos/S_pexels-koolshooters-7327412_1.mp4	0.0	251.98436403274536	2.508316993713379
40	111.30741906166077	fix_post	2		12.0	38.0	2.5	/experiments/knapen_aot/videos/S_pexels-koolshooters-7327412_1.mp4	0.0	254.49268102645874	0.10001993179321289
41	111.40743899345398	fix_pre	0		11.0	39.0	2.5	/experiments/knapen_aot/videos/S_yt-HwEfWfFJhRo_73.mp4	0.0	254.59270095825195	0.09157705307006836
41	111.49084901809692	response	0	2		39.0	2.5	/experiments/knapen_aot/videos/S_yt-HwEfWfFJhRo_73.mp4	0.0	254.6761109828949	
41	111.49901604652405	movie	1		301.0	39.0	2.5	/experiments/knapen_aot/videos/S_yt-HwEfWfFJhRo_73.mp4	0.0	254.68427801132202	2.508345127105713
41	114.00736117362976	fix_post	2		12.0	39.0	2.5	/experiments/knapen_aot/videos/S_yt-HwEfWfFJhRo_73.mp4	0.0	257.19262313842773	0.10001778602600098
42	114.10737895965576	fix_pre	0		20.0	40.0	2.5	/experiments/knapen_aot/videos/S_yt-OEY9O2MglQM_7.mp4	0.0	257.29264092445374	0.16724514961242676
42	114.26587796211243	response	0	2		40.0	2.5	/experiments/knapen_aot/videos/S_yt-OEY9O2MglQM_7.mp4	0.0	257.4511399269104	
42	114.27462410926819	movie	1		301.0	40.0	2.5	/experiments/knapen_aot/videos/S_yt-OEY9O2MglQM_7.mp4	0.0	257.45988607406616	2.507781982421875
42	116.78240609169006	fix_post	2		12.0	40.0	2.5	/experiments/knapen_aot/videos/S_yt-OEY9O2MglQM_7.mp4	0.0	259.96766805648804	0.09992408752441406
43	116.88233017921448	fix_pre	0		4.0	41.0	2.5	blank	1.0	260.06759214401245	0.033441781997680664
43	116.90751194953918	response	0	2		41.0	2.5	blank	1.0	260.09277391433716	
43	116.91577196121216	movie	1		301.0	41.0	2.5	blank	1.0	260.10103392601013	2.5083370208740234
43	119.42410898208618	fix_post	2		12.0	41.0	2.5	blank	1.0	262.60937094688416	0.09991908073425293
44	119.52402806282043	fix_pre	0		26.0	42.0	2.5	/experiments/knapen_aot/videos/S_yt-Co4dzHwupRM_18.mp4	0.0	262.7092900276184	0.21661591529846191
44	119.73248505592346	response	0	2		42.0	2.5	/experiments/knapen_aot/videos/S_yt-Co4dzHwupRM_18.mp4	0.0	262.91774702072144	
44	119.7406439781189	movie	1		301.0	42.0	2.5	/experiments/knapen_aot/videos/S_yt-Co4dzHwupRM_18.mp4	0.0	262.92590594291687	2.5083820819854736
44	122.24902606010437	fix_post	2		12.0	42.0	2.5	/experiments/knapen_aot/videos/S_yt-Co4dzHwupRM_18.mp4	0.0	265.43428802490234	0.10000109672546387
45	122.34902715682983	fix_pre	0		21.0	43.0	2.5	/experiments/knapen_aot/videos/R_S_video_inspire_california_catalina_00005.1080-h264.mp4	0.0	265.5342891216278	0.1754770278930664
45	122.51578116416931	response	0	2		43.0	2.5	/experiments/knapen_aot/videos/R_S_video_inspire_california_catalina_00005.1080-h264.mp4	0.0	265.7010431289673	
45	122.5245041847229	movie	1		166.0	43.0	2.5	/experiments/knapen_aot/videos/R_S_video_inspire_california_catalina_00005.1080-h264.mp4	0.0	265.7097661495209	2.507847785949707
45	125.03235197067261	fix_post	2		12.0	43.0	2.5	/experiments/knapen_aot/videos/R_S_video_inspire_california_catalina_00005.1080-h264.mp4	0.0	268.2176139354706	0.09991812705993652
46	125.13227009773254	fix_pre	0		1.0	44.0	2.5	/experiments/knapen_aot/videos/S_video_inspire_california_santa-barbara_050.1080-h264.mp4	0.0	268.3175320625305	0.010325908660888672
46	125.13392806053162	response	0	2		44.0	2.5	/experiments/knapen_aot/videos/S_video_inspire_california_santa-barbara_050.1080-h264.mp4	0.0	268.3191900253296	
46	125.14259600639343	movie	1		165.0	44.0	2.5	/experiments/knapen_aot/videos/S_video_inspire_california_santa-barbara_050.1080-h264.mp4	0.0	268.3278579711914	2.506469964981079
46	127.64906597137451	fix_post	2		12.0	44.0	2.5	/experiments/knapen_aot/videos/S_video_inspire_california_santa-barbara_050.1080-h264.mp4	0.0	270.8343279361725	0.10000419616699219
47	127.7490701675415	fix_pre	0		3.0	45.0	2.5	/experiments/knapen_aot/videos/S_ILSVRC2015_train_00074011.mp4	0.0	270.9343321323395	0.02569580078125
47	127.76592516899109	response	0	2		45.0	2.5	/experiments/knapen_aot/videos/S_ILSVRC2015_train_00074011.mp4	0.0	270.95118713378906	
47	127.77476596832275	movie	1		301.0	45.0	2.5	/experiments/knapen_aot/videos/S_ILSVRC2015_train_00074011.mp4	0.0	270.9600279331207	2.5074820518493652
47	130.28224802017212	fix_post	2		12.0	45.0	2.5	/experiments/knapen_aot/videos/S_ILSVRC2015_train_00074011.mp4	0.0	273.4675099849701	0.1000211238861084
48	130.38226914405823	fix_pre	0		11.0	46.0	2.5	/experiments/knapen_aot/videos/R_S_yt-wLylWnZs3z0_27.mp4	0.0	273.5675311088562	0.09167194366455078
48	130.46567010879517	response	0	2		46.0	2.5	/experiments/knapen_aot/videos/R_S_yt-wLylWnZs3z0_27.mp4	0.0	273.65093207359314	
48	130.47394108772278	movie	1		300.0	46.0	2.5	/experiments/knapen_aot/videos/R_S_yt-wLylWnZs3z0_27.mp4	0.0	273.65920305252075	2.5083749294281006
48	132.59066605567932	response	1	2		46.0	2.5	/experiments/knapen_aot/videos/R_S_yt-wLylWnZs3z0_27.mp4	0.0	275.7759280204773	
48	132.98231601715088	fix_post	2		12.0	46.0	2.5	/experiments/knapen_aot/videos/R_S_yt-wLylWnZs3z0_27.mp4	0.0	276.16757798194885	0.09998512268066406
48	133.00752210617065	response	2	2		46.0	2.5	/experiments/knapen_aot/videos/R_S_yt-wLylWnZs3z0_27.mp4	0.0	276.1927840709686	
49	133.08230113983154	fix_pre	0		42.0	47.0	2.5	blank	1.0	276.2675631046295	0.3499119281768799
49	133.42409896850586	response	0	2		47.0	2.5	blank	1.0	276.60936093330383	
49	133.43221306800842	movie	1		301.0	47.0	2.5	blank	1.0	276.6174750328064	2.508449077606201
49	135.94066214561462	fix_post	2		12.0	47.0	2.5	blank	1.0	279.1259241104126	0.09993386268615723
50	136.04059600830078	fix_pre	0		25.0	48.0	2.5	/experiments/knapen_aot/videos/R_S_yt-PP93D7b7Ni4_10.mp4	0.0	279.22585797309875	0.20843505859375
50	136.23323512077332	response	0	2		48.0	2.5	/experiments/knapen_aot/videos/R_S_yt-PP93D7b7Ni4_10.mp4	0.0	279.4184970855713	
50	136.24903106689453	movie	1		301.0	48.0	2.5	/experiments/knapen_aot/videos/R_S_yt-PP93D7b7Ni4_10.mp4	0.0	279.4342930316925	2.5082359313964844
50	138.75726699829102	fix_post	2		12.0	48.0	2.5	/experiments/knapen_aot/videos/R_S_yt-PP93D7b7Ni4_10.mp4	0.0	281.942528963089	0.09998202323913574
51	138.85724902153015	fix_pre	0		11.0	49.0	2.5	/experiments/knapen_aot/videos/R_S_yt-jcuaf9iSEkI_169.mp4	0.0	282.0425109863281	0.0916590690612793
51	138.94079399108887	response	0	2		49.0	2.5	/experiments/knapen_aot/videos/R_S_yt-jcuaf9iSEkI_169.mp4	0.0	282.12605595588684	
51	138.94890809059143	movie	1		301.0	49.0	2.5	/experiments/knapen_aot/videos/R_S_yt-jcuaf9iSEkI_169.mp4	0.0	282.1341700553894	2.5083038806915283
51	141.45721197128296	fix_post	2		12.0	49.0	2.5	/experiments/knapen_aot/videos/R_S_yt-jcuaf9iSEkI_169.mp4	0.0	284.64247393608093	0.10001015663146973
52	141.55722212791443	fix_pre	0		20.0	50.0	2.5	/experiments/knapen_aot/videos/S_yt-he_RSdeVinA_68.mp4	0.0	284.7424840927124	0.16673994064331055
52	141.70815515518188	response	0	2		50.0	2.5	/experiments/knapen_aot/videos/S_yt-he_RSdeVinA_68.mp4	0.0	284.89341711997986	
52	141.72396206855774	movie	1		301.0	50.0	2.5	/experiments/knapen_aot/videos/S_yt-he_RSdeVinA_68.mp4	0.0	284.9092240333557	2.508281946182251
52	144.23224401474	fix_post	2		12.0	50.0	2.5	/experiments/knapen_aot/videos/S_yt-he_RSdeVinA_68.mp4	0.0	287.41750597953796	0.09998703002929688
53	144.3322310447693	fix_pre	0		22.0	51.0	2.5	/experiments/knapen_aot/videos/R_S_yt-b29VtKvlnWE_430.mp4	0.0	287.51749300956726	0.18327093124389648
53	144.5074861049652	response	0	2		51.0	2.5	/experiments/knapen_aot/videos/R_S_yt-b29VtKvlnWE_430.mp4	0.0	287.6927480697632	
53	144.51550197601318	movie	1		301.0	51.0	2.5	/experiments/knapen_aot/videos/R_S_yt-b29VtKvlnWE_430.mp4	0.0	287.70076394081116	2.5083940029144287
53	147.0238959789276	fix_post	2		12.0	51.0	2.5	/experiments/knapen_aot/videos/R_S_yt-b29VtKvlnWE_430.mp4	0.0	290.2091579437256	0.10000419616699219
54	147.1239001750946	fix_pre	0		22.0	52.0	2.5	/experiments/knapen_aot/videos/R_S_yt--WPE_4bqQXc_26.mp4	0.0	290.3091621398926	0.18335580825805664
54	147.29897212982178	response	0	2		52.0	2.5	/experiments/knapen_aot/videos/R_S_yt--WPE_4bqQXc_26.mp4	0.0	290.48423409461975	
54	147.30725598335266	movie	1		301.0	52.0	2.5	/experiments/knapen_aot/videos/R_S_yt--WPE_4bqQXc_26.mp4	0.0	290.49251794815063	2.5083789825439453
54	149.8156349658966	fix_post	2		12.0	52.0	2.5	/experiments/knapen_aot/videos/R_S_yt--WPE_4bqQXc_26.mp4	0.0	293.0008969306946	0.09990715980529785
55	149.9155421257019	fix_pre	0		44.0	53.0	2.5	/experiments/knapen_aot/videos/S_yt-rbJOb1spY9M_16.mp4	0.0	293.1008040904999	0.3666679859161377
55	150.26643013954163	response	0	2		53.0	2.5	/experiments/knapen_aot/videos/S_yt-rbJOb1spY9M_16.mp4	0.0	293.4516921043396	
55	150.28221011161804	movie	1		301.0	53.0	2.5	/experiments/knapen_aot/videos/S_yt-rbJOb1spY9M_16.mp4	0.0	293.467472076416	2.508298873901367
55	152.7905089855194	fix_post	2		12.0	53.0	2.5	/experiments/knapen_aot/videos/S_yt-rbJOb1spY9M_16.mp4	0.0	295.9757709503174	0.1001291275024414
56	152.89063811302185	fix_pre	0		3.0	54.0	2.5	blank	1.0	296.0759000778198	0.024877071380615234
56	152.90734314918518	response	0	2		54.0	2.5	blank	1.0	296.09260511398315	
56	152.91551518440247	movie	1		301.0	54.0	2.5	blank	1.0	296.10077714920044	2.5083258152008057
56	155.42384099960327	fix_post	2		12.0	54.0	2.5	blank	1.0	298.60910296440125	0.10006999969482422
57	155.5239109992981	fix_pre	0		30.0	55.0	2.5	/experiments/knapen_aot/videos/R_S_yt--Ra34zJ69AU_68.mp4	0.0	298.70917296409607	0.2503190040588379
57	155.7580599784851	response	0	2		55.0	2.5	/experiments/knapen_aot/videos/R_S_yt--Ra34zJ69AU_68.mp4	0.0	298.9433219432831	
57	155.77423000335693	movie	1		301.0	55.0	2.5	/experiments/knapen_aot/videos/R_S_yt--Ra34zJ69AU_68.mp4	0.0	298.9594919681549	2.50795316696167
57	158.2821831703186	fix_post	2		12.0	55.0	2.5	/experiments/knapen_aot/videos/R_S_yt--Ra34zJ69AU_68.mp4	0.0	301.4674451351166	0.10018396377563477
58	158.38236713409424	fix_pre	0		22.0	56.0	2.5	/experiments/knapen_aot/videos/S_yt-aiWUhl8MCto_71.mp4	0.0	301.5676290988922	0.1834099292755127
58	158.54986596107483	response	0	2		56.0	2.5	/experiments/knapen_aot/videos/S_yt-aiWUhl8MCto_71.mp4	0.0	301.7351279258728	
58	158.56577706336975	movie	1		301.0	56.0	2.5	/experiments/knapen_aot/videos/S_yt-aiWUhl8MCto_71.mp4	0.0	301.7510390281677	2.5080299377441406
58	161.0738070011139	fix_post	2		12.0	56.0	2.5	/experiments/knapen_aot/videos/S_yt-aiWUhl8MCto_71.mp4	0.0	304.25906896591187	0.10004496574401855
59	161.1738519668579	fix_pre	0		19.0	57.0	2.5	/experiments/knapen_aot/videos/S_yt-F1vQ5nZWhDg_21.mp4	0.0	304.3591139316559	0.15823721885681152
59	161.32410597801208	response	0	2		57.0	2.5	/experiments/knapen_aot/videos/S_yt-F1vQ5nZWhDg_21.mp4	0.0	304.50936794281006	
59	161.33208918571472	movie	1		301.0	57.0	2.5	/experiments/knapen_aot/videos/S_yt-F1vQ5nZWhDg_21.mp4	0.0	304.5173511505127	2.5083367824554443
59	163.84042596817017	fix_post	2		12.0	57.0	2.5	/experiments/knapen_aot/videos/S_yt-F1vQ5nZWhDg_21.mp4	0.0	307.02568793296814	0.10005617141723633
60	163.9404821395874	fix_pre	0		23.0	58.0	2.5	/experiments/knapen_aot/videos/S_yt-146gReE6xKw_379.mp4	0.0	307.1257441043854	0.1915450096130371
60	164.1238830089569	response	0	2		58.0	2.5	/experiments/knapen_aot/videos/S_yt-146gReE6xKw_379.mp4	0.0	307.3091449737549	
60	164.13202714920044	movie	1		301.0	58.0	2.5	/experiments/knapen_aot/videos/S_yt-146gReE6xKw_379.mp4	0.0	307.3172891139984	2.508533000946045
60	166.64056015014648	fix_post	2		12.0	58.0	2.5	/experiments/knapen_aot/videos/S_yt-146gReE6xKw_379.mp4	0.0	309.82582211494446	0.09988594055175781
61	166.74044609069824	fix_pre	0		10.0	59.0	2.5	/experiments/knapen_aot/videos/R_S_yt-s73Xqkcq9Js_285.mp4	0.0	309.9257080554962	0.08331894874572754
61	166.81558108329773	response	0	2		59.0	2.5	/experiments/knapen_aot/videos/R_S_yt-s73Xqkcq9Js_285.mp4	0.0	310.0008430480957	
61	166.82376503944397	movie	1		301.0	59.0	2.5	/experiments/knapen_aot/videos/R_S_yt-s73Xqkcq9Js_285.mp4	0.0	310.00902700424194	2.5083870887756348
61	169.3321521282196	fix_post	2		12.0	59.0	2.5	/experiments/knapen_aot/videos/R_S_yt-s73Xqkcq9Js_285.mp4	0.0	312.5174140930176	0.09998798370361328
62	169.43214011192322	fix_pre	0		6.0	60.0	2.5	/experiments/knapen_aot/videos/S_ILSVRC2015_train_00715000.mp4	0.0	312.6174020767212	0.05019402503967285
62	169.47386407852173	response	0	2		60.0	2.5	/experiments/knapen_aot/videos/S_ILSVRC2015_train_00715000.mp4	0.0	312.6591260433197	
62	169.4823341369629	movie	1		301.0	60.0	2.5	/experiments/knapen_aot/videos/S_ILSVRC2015_train_00715000.mp4	0.0	312.66759610176086	2.5081100463867188
62	171.9904441833496	fix_post	2		12.0	60.0	2.5	/experiments/knapen_aot/videos/S_ILSVRC2015_train_00715000.mp4	0.0	315.1757061481476	0.10005784034729004
63	172.0905020236969	fix_pre	0		23.0	61.0	2.5	/experiments/knapen_aot/videos/R_S_yt-AHbFln6blfE_36.mp4	0.0	315.2757639884949	0.19153714179992676
63	172.27389812469482	response	0	2		61.0	2.5	/experiments/knapen_aot/videos/R_S_yt-AHbFln6blfE_36.mp4	0.0	315.4591600894928	
63	172.28203916549683	movie	1		301.0	61.0	2.5	/experiments/knapen_aot/videos/R_S_yt-AHbFln6blfE_36.mp4	0.0	315.4673011302948	2.5083858966827393
63	174.77380895614624	response	1	2		61.0	2.5	/experiments/knapen_aot/videos/R_S_yt-AHbFln6blfE_36.mp4	0.0	317.9590709209442	
63	174.79042506217957	fix_post	2		12.0	61.0	2.5	/experiments/knapen_aot/videos/R_S_yt-AHbFln6blfE_36.mp4	0.0	317.97568702697754	0.1000211238861084
64	174.89044618606567	fix_pre	0		33.0	62.0	2.5	/experiments/knapen_aot/videos/S_yt-icd9UxxxeW0_255.mp4	0.0	318.07570815086365	0.27493882179260254
64	175.15724205970764	response	0	2		62.0	2.5	/experiments/knapen_aot/videos/S_yt-icd9UxxxeW0_255.mp4	0.0	318.3425040245056	
64	175.16538500785828	movie	1		301.0	62.0	2.5	/experiments/knapen_aot/videos/S_yt-icd9UxxxeW0_255.mp4	0.0	318.35064697265625	2.5087289810180664
64	177.67411398887634	fix_post	2		12.0	62.0	2.5	/experiments/knapen_aot/videos/S_yt-icd9UxxxeW0_255.mp4	0.0	320.8593759536743	0.09961605072021484
65	177.77373003959656	fix_pre	0		18.0	63.0	2.5	blank	1.0	320.95899200439453	0.15000391006469727
65	177.91542315483093	response	0	2		63.0	2.5	blank	1.0	321.1006851196289	
65	177.92373394966125	movie	1		301.0	63.0	2.5	blank	1.0	321.10899591445923	2.508514165878296
65	180.43224811553955	fix_post	2		12.0	63.0	2.5	blank	1.0	323.6175100803375	0.09977483749389648
66	180.53202295303345	fix_pre	0		22.0	64.0	2.5	/experiments/knapen_aot/videos/S_yt-a0axt7n0GuQ_19.mp4	0.0	323.7172849178314	0.1833510398864746
66	180.70721197128296	response	0	2		64.0	2.5	/experiments/knapen_aot/videos/S_yt-a0axt7n0GuQ_19.mp4	0.0	323.89247393608093	
66	180.71537399291992	movie	1		301.0	64.0	2.5	/experiments/knapen_aot/videos/S_yt-a0axt7n0GuQ_19.mp4	0.0	323.9006359577179	2.508331060409546
66	183.22370505332947	fix_post	2		12.0	64.0	2.5	/experiments/knapen_aot/videos/S_yt-a0axt7n0GuQ_19.mp4	0.0	326.40896701812744	0.1000669002532959
67	183.32377195358276	fix_pre	0		43.0	65.0	2.5	/experiments/knapen_aot/videos/S_video_inspire_oregon_lone-ranch-beach_00021.1080-h264.mp4	0.0	326.50903391838074	0.3581821918487549
67	183.67400312423706	response	0	2		65.0	2.5	/experiments/knapen_aot/videos/S_video_inspire_oregon_lone-ranch-beach_00021.1080-h264.mp4	0.0	326.85926508903503	
67	183.68195414543152	movie	1		162.0	65.0	2.5	/experiments/knapen_aot/videos/S_video_inspire_oregon_lone-ranch-beach_00021.1080-h264.mp4	0.0	326.8672161102295	2.5086159706115723
67	186.1905701160431	fix_post	2		12.0	65.0	2.5	/experiments/knapen_aot/videos/S_video_inspire_oregon_lone-ranch-beach_00021.1080-h264.mp4	0.0	329.37583208084106	0.09992289543151855
68	186.2904930114746	fix_pre	0		25.0	66.0	2.5	/experiments/knapen_aot/videos/S_pexels-rodnae-productions-5617905.mp4	0.0	329.4757549762726	0.20819497108459473
68	186.49043703079224	response	0	2		66.0	2.5	/experiments/knapen_aot/videos/S_pexels-rodnae-productions-5617905.mp4	0.0	329.6756989955902	
68	186.4986879825592	movie	1		165.0	66.0	2.5	/experiments/knapen_aot/videos/S_pexels-rodnae-productions-5617905.mp4	0.0	329.6839499473572	2.508373975753784
68	189.007061958313	fix_post	2		12.0	66.0	2.5	/experiments/knapen_aot/videos/S_pexels-rodnae-productions-5617905.mp4	0.0	332.19232392311096	0.10038018226623535
69	189.10744214057922	fix_pre	0		23.0	67.0	2.5	/experiments/knapen_aot/videos/S_comp_H004_C009_PS_v01_SDR_PS_20180925_SDR_2K_AVC.mp4	0.0	332.2927041053772	0.19126200675964355
69	189.29055213928223	response	0	2		67.0	2.5	/experiments/knapen_aot/videos/S_comp_H004_C009_PS_v01_SDR_PS_20180925_SDR_2K_AVC.mp4	0.0	332.4758141040802	
69	189.29870414733887	movie	1		163.0	67.0	2.5	/experiments/knapen_aot/videos/S_comp_H004_C009_PS_v01_SDR_PS_20180925_SDR_2K_AVC.mp4	0.0	332.48396611213684	2.508375883102417
69	191.80708003044128	fix_post	2		12.0	67.0	2.5	/experiments/knapen_aot/videos/S_comp_H004_C009_PS_v01_SDR_PS_20180925_SDR_2K_AVC.mp4	0.0	334.99234199523926	0.09995198249816895
70	191.90703201293945	fix_pre	0		23.0	68.0	2.5	blank	1.0	335.0922939777374	0.19172406196594238
70	192.09050607681274	response	0	2		68.0	2.5	blank	1.0	335.2757680416107	
70	192.0987560749054	movie	1		301.0	68.0	2.5	blank	1.0	335.28401803970337	2.508481025695801
70	194.6072371006012	fix_post	2		12.0	68.0	2.5	blank	1.0	337.79249906539917	0.09980607032775879
71	194.70704317092896	fix_pre	0		36.0	69.0	2.5	/experiments/knapen_aot/videos/S_ILSVRC2015_train_00479004.mp4	0.0	337.89230513572693	0.30003881454467773
71	194.99126410484314	response	0	2		69.0	2.5	/experiments/knapen_aot/videos/S_ILSVRC2015_train_00479004.mp4	0.0	338.1765260696411	
71	195.00708198547363	movie	1		301.0	69.0	2.5	/experiments/knapen_aot/videos/S_ILSVRC2015_train_00479004.mp4	0.0	338.1923439502716	2.508251190185547
71	197.51533317565918	fix_post	2		12.0	69.0	2.5	/experiments/knapen_aot/videos/S_ILSVRC2015_train_00479004.mp4	0.0	340.70059514045715	0.10003280639648438
72	197.61536598205566	fix_pre	0		50.0	70.0	2.5	/experiments/knapen_aot/videos/R_S_wc-0SAXOWjdNVGC_8.mp4	0.0	340.80062794685364	0.41661715507507324
72	198.0238540172577	response	0	2		70.0	2.5	/experiments/knapen_aot/videos/R_S_wc-0SAXOWjdNVGC_8.mp4	0.0	341.20911598205566	
72	198.03198313713074	movie	1		163.0	70.0	2.5	/experiments/knapen_aot/videos/R_S_wc-0SAXOWjdNVGC_8.mp4	0.0	341.2172451019287	2.508330821990967
72	200.5403139591217	fix_post	2		12.0	70.0	2.5	/experiments/knapen_aot/videos/R_S_wc-0SAXOWjdNVGC_8.mp4	0.0	343.7255759239197	0.09996700286865234
73	200.64028096199036	fix_pre	0		19.0	71.0	2.5	/experiments/knapen_aot/videos/R_S_yt-icd9UxxxeW0_255.mp4	0.0	343.82554292678833	0.1583540439605713
73	200.79040718078613	response	0	2		71.0	2.5	/experiments/knapen_aot/videos/R_S_yt-icd9UxxxeW0_255.mp4	0.0	343.9756691455841	
73	200.79863500595093	movie	1		301.0	71.0	2.5	/experiments/knapen_aot/videos/R_S_yt-icd9UxxxeW0_255.mp4	0.0	343.9838969707489	2.508350133895874
73	203.3069851398468	fix_post	2		12.0	71.0	2.5	/experiments/knapen_aot/videos/R_S_yt-icd9UxxxeW0_255.mp4	0.0	346.4922471046448	0.10002398490905762
74	203.40700912475586	fix_pre	0		22.0	72.0	2.5	/experiments/knapen_aot/videos/R_S_yt-9Z9-RT-ysEE_85.mp4	0.0	346.59227108955383	0.18326282501220703
74	203.57457900047302	response	0	2		72.0	2.5	/experiments/knapen_aot/videos/R_S_yt-9Z9-RT-ysEE_85.mp4	0.0	346.759840965271	
74	203.59027194976807	movie	1		301.0	72.0	2.5	/experiments/knapen_aot/videos/R_S_yt-9Z9-RT-ysEE_85.mp4	0.0	346.77553391456604	2.508331060409546
74	206.0986030101776	fix_post	2		12.0	72.0	2.5	/experiments/knapen_aot/videos/R_S_yt-9Z9-RT-ysEE_85.mp4	0.0	349.2838649749756	0.10007905960083008
75	206.19868206977844	fix_pre	0		6.0	73.0	2.5	/experiments/knapen_aot/videos/S_yt-HRuCkU_kBoE_239.mp4	0.0	349.3839440345764	0.04989290237426758
75	206.24041414260864	response	0	2		73.0	2.5	/experiments/knapen_aot/videos/S_yt-HRuCkU_kBoE_239.mp4	0.0	349.4256761074066	
75	206.2485749721527	movie	1		301.0	73.0	2.5	/experiments/knapen_aot/videos/S_yt-HRuCkU_kBoE_239.mp4	0.0	349.4338369369507	2.508369207382202
75	208.7569441795349	fix_post	2		12.0	73.0	2.5	/experiments/knapen_aot/videos/S_yt-HRuCkU_kBoE_239.mp4	0.0	351.9422061443329	0.10013079643249512
76	208.8570749759674	fix_pre	0		20.0	74.0	2.5	/experiments/knapen_aot/videos/S_yt-roThCERxVCs_133.mp4	0.0	352.0423369407654	0.16669917106628418
76	209.0153570175171	response	0	2		74.0	2.5	/experiments/knapen_aot/videos/S_yt-roThCERxVCs_133.mp4	0.0	352.20061898231506	
76	209.0237741470337	movie	1		301.0	74.0	2.5	/experiments/knapen_aot/videos/S_yt-roThCERxVCs_133.mp4	0.0	352.20903611183167	2.5081748962402344
76	211.53194904327393	fix_post	2		12.0	74.0	2.5	/experiments/knapen_aot/videos/S_yt-roThCERxVCs_133.mp4	0.0	354.7172110080719	0.09997797012329102
77	211.63192701339722	fix_pre	0		30.0	75.0	2.5	/experiments/knapen_aot/videos/S_yt-TNtO8RPd3iE_25.mp4	0.0	354.8171889781952	0.24997901916503906
77	211.87374305725098	response	0	2		75.0	2.5	/experiments/knapen_aot/videos/S_yt-TNtO8RPd3iE_25.mp4	0.0	355.05900502204895	
77	211.88190603256226	movie	1		301.0	75.0	2.5	/experiments/knapen_aot/videos/S_yt-TNtO8RPd3iE_25.mp4	0.0	355.06716799736023	2.5083250999450684
77	214.39023113250732	fix_post	2		12.0	75.0	2.5	/experiments/knapen_aot/videos/S_yt-TNtO8RPd3iE_25.mp4	0.0	357.5754930973053	0.10014486312866211
78	214.490375995636	fix_pre	0		21.0	76.0	2.5	/experiments/knapen_aot/videos/R_S_yt-alGXD2Drh_g_19.mp4	0.0	357.67563796043396	0.17482209205627441
78	214.65700507164001	response	0	2		76.0	2.5	/experiments/knapen_aot/videos/R_S_yt-alGXD2Drh_g_19.mp4	0.0	357.842267036438	
78	214.66519808769226	movie	1		301.0	76.0	2.5	/experiments/knapen_aot/videos/R_S_yt-alGXD2Drh_g_19.mp4	0.0	357.85046005249023	2.508431911468506
78	217.17362999916077	fix_post	2		12.0	76.0	2.5	/experiments/knapen_aot/videos/R_S_yt-alGXD2Drh_g_19.mp4	0.0	360.35889196395874	0.09996700286865234
79	217.27359700202942	fix_pre	0		25.0	77.0	2.5	blank	1.0	360.4588589668274	0.20828008651733398
79	217.4736020565033	response	0	2		77.0	2.5	blank	1.0	360.65886402130127	
79	217.48187708854675	movie	1		301.0	77.0	2.5	blank	1.0	360.6671390533447	2.5083348751068115
79	219.99021196365356	fix_post	2		12.0	77.0	2.5	blank	1.0	363.17547392845154	0.10019516944885254
80	220.09040713310242	fix_pre	0		17.0	78.0	2.5	/experiments/knapen_aot/videos/R_S_ILSVRC2015_train_00044004.mp4	0.0	363.2756690979004	0.1414189338684082
80	220.22360610961914	response	0	2		78.0	2.5	/experiments/knapen_aot/videos/R_S_ILSVRC2015_train_00044004.mp4	0.0	363.4088680744171	
80	220.23182606697083	movie	1		301.0	78.0	2.5	/experiments/knapen_aot/videos/R_S_ILSVRC2015_train_00044004.mp4	0.0	363.4170880317688	2.5085320472717285
80	222.74035811424255	fix_post	2		12.0	78.0	2.5	/experiments/knapen_aot/videos/R_S_ILSVRC2015_train_00044004.mp4	0.0	365.9256200790405	0.09974503517150879
81	222.84010314941406	fix_pre	0		20.0	79.0	2.5	/experiments/knapen_aot/videos/R_S_yt-146gReE6xKw_379.mp4	0.0	366.02536511421204	0.16671490669250488
81	222.99875712394714	response	0	2		79.0	2.5	/experiments/knapen_aot/videos/R_S_yt-146gReE6xKw_379.mp4	0.0	366.1840190887451	
81	223.00681805610657	movie	1		301.0	79.0	2.5	/experiments/knapen_aot/videos/R_S_yt-146gReE6xKw_379.mp4	0.0	366.19208002090454	2.5083580017089844
81	225.51517605781555	fix_post	2		12.0	79.0	2.5	/experiments/knapen_aot/videos/R_S_yt-146gReE6xKw_379.mp4	0.0	368.7004380226135	0.1002349853515625
82	225.61541104316711	fix_pre	0		14.0	80.0	2.5	/experiments/knapen_aot/videos/R_S_yt-n1snPiGfg0A_45.mp4	0.0	368.8006730079651	0.11637401580810547
82	225.72359204292297	response	0	2		80.0	2.5	/experiments/knapen_aot/videos/R_S_yt-n1snPiGfg0A_45.mp4	0.0	368.90885400772095	
82	225.73178505897522	movie	1		301.0	80.0	2.5	/experiments/knapen_aot/videos/R_S_yt-n1snPiGfg0A_45.mp4	0.0	368.9170470237732	2.50844407081604
82	228.24022912979126	fix_post	2		12.0	80.0	2.5	/experiments/knapen_aot/videos/R_S_yt-n1snPiGfg0A_45.mp4	0.0	371.42549109458923	0.09990501403808594
83	228.34013414382935	fix_pre	0		21.0	81.0	2.5	/experiments/knapen_aot/videos/R_S_yt-SkIJvj6KNOo_33.mp4	0.0	371.5253961086273	0.1749739646911621
83	228.50694108009338	response	0	2		81.0	2.5	/experiments/knapen_aot/videos/R_S_yt-SkIJvj6KNOo_33.mp4	0.0	371.69220304489136	
83	228.5151081085205	movie	1		301.0	81.0	2.5	/experiments/knapen_aot/videos/R_S_yt-SkIJvj6KNOo_33.mp4	0.0	371.7003700733185	2.5083508491516113
83	231.02345895767212	fix_post	2		12.0	81.0	2.5	/experiments/knapen_aot/videos/R_S_yt-SkIJvj6KNOo_33.mp4	0.0	374.2087209224701	0.09990215301513672
84	231.12336111068726	fix_pre	0		23.0	82.0	2.5	/experiments/knapen_aot/videos/R_S_yt-HwEfWfFJhRo_73.mp4	0.0	374.30862307548523	0.19173288345336914
84	231.30682611465454	response	0	2		82.0	2.5	/experiments/knapen_aot/videos/R_S_yt-HwEfWfFJhRo_73.mp4	0.0	374.4920880794525	
84	231.31509399414062	movie	1		300.0	82.0	2.5	/experiments/knapen_aot/videos/R_S_yt-HwEfWfFJhRo_73.mp4	0.0	374.5003559589386	2.508394956588745
84	233.82348895072937	fix_post	2		12.0	82.0	2.5	/experiments/knapen_aot/videos/R_S_yt-HwEfWfFJhRo_73.mp4	0.0	377.00875091552734	0.09994721412658691
85	233.92343616485596	fix_pre	0		22.0	83.0	2.5	blank	1.0	377.10869812965393	0.18338584899902344
85	234.09858012199402	response	0	2		83.0	2.5	blank	1.0	377.283842086792	
85	234.10682201385498	movie	1		301.0	83.0	2.5	blank	1.0	377.29208397865295	2.508301019668579
85	236.61512303352356	fix_post	2		12.0	83.0	2.5	blank	1.0	379.80038499832153	0.10024213790893555
87	236.7153651714325	stim	0		89.0					379.90062713623047	0.7413768768310547
87	237.45156002044678	response	0	space						380.63682198524475	
