trial_nr	onset	event_type	phase	response	nr_frames	movie_index	movie_duration	movie_file	blank	onset_abs	duration
0	0.15635895729064941	stim	0		36.0					129.48100686073303	0.3019399642944336
0	0.4482300281524658	response	0	space						129.77287793159485	
1	0.458298921585083	stim	0		121.0					129.78294682502747	1.0064849853515625
1	0.7732570171356201	response	0	space						130.097904920578	
1	1.1732580661773682	response	0	space						130.49790596961975	
1	1.4647839069366455	stim	1		120.0					130.78943181037903	0.9997720718383789
1	1.5316219329833984	response	1	space						130.85626983642578	
1	1.8978350162506104	response	1	space						131.222482919693	
1	2.247853994369507	response	1	space						131.5725018978119	
2	2.4645559787750244	fix_pre	0		12.0	0.0	2.5	/experiments/knapen_aot/oldvideos/R_S_yt-GjFQxAklviE_25.mp4	0.0	131.7892038822174	0.09978699684143066
2	2.5561909675598145	response	0	space		0.0	2.5	/experiments/knapen_aot/oldvideos/R_S_yt-GjFQxAklviE_25.mp4	0.0	131.8808388710022	
2	2.564342975616455	movie	1		301.0	0.0	2.5	/experiments/knapen_aot/oldvideos/R_S_yt-GjFQxAklviE_25.mp4	0.0	131.88899087905884	2.508518934249878
2	5.072861909866333	fix_post	2		12.0	0.0	2.5	/experiments/knapen_aot/oldvideos/R_S_yt-GjFQxAklviE_25.mp4	0.0	134.39750981330872	0.10000205039978027
3	5.172863960266113	fix_pre	0		165.0	1.0	2.5	/experiments/knapen_aot/oldvideos/R_S_yt-5rIpe3xc5rQ_18.mp4	0.0	134.4975118637085	1.3753430843353271
3	6.541311979293823	response	0	2		1.0	2.5	/experiments/knapen_aot/oldvideos/R_S_yt-5rIpe3xc5rQ_18.mp4	0.0	135.8659598827362	
3	6.54820704460144	movie	1		301.0	1.0	2.5	/experiments/knapen_aot/oldvideos/R_S_yt-5rIpe3xc5rQ_18.mp4	0.0	135.87285494804382	2.507830858230591
3	9.056037902832031	fix_post	2		12.0	1.0	2.5	/experiments/knapen_aot/oldvideos/R_S_yt-5rIpe3xc5rQ_18.mp4	0.0	138.3806858062744	0.10000205039978027
4	9.156039953231812	fix_pre	0		27.0	2.0	2.5	/experiments/knapen_aot/oldvideos/S_yt-JPsTqfqfPIY_319.mp4	0.0	138.4806878566742	0.22546100616455078
4	9.37278699874878	response	0	4		2.0	2.5	/experiments/knapen_aot/oldvideos/S_yt-JPsTqfqfPIY_319.mp4	0.0	138.69743490219116	
4	9.381500959396362	movie	1		301.0	2.0	2.5	/experiments/knapen_aot/oldvideos/S_yt-JPsTqfqfPIY_319.mp4	0.0	138.70614886283875	2.507922887802124
4	11.889423847198486	fix_post	2		12.0	2.0	2.5	/experiments/knapen_aot/oldvideos/S_yt-JPsTqfqfPIY_319.mp4	0.0	141.21407175064087	0.1000680923461914
5	11.989491939544678	fix_pre	0		39.0	3.0	2.5	/experiments/knapen_aot/oldvideos/R_S_yt-NFb0SUCeiro_158.mp4	0.0	141.31413984298706	0.3248100280761719
5	12.306236028671265	response	0	4		3.0	2.5	/experiments/knapen_aot/oldvideos/R_S_yt-NFb0SUCeiro_158.mp4	0.0	141.63088393211365	
5	12.31430196762085	movie	1		301.0	3.0	2.5	/experiments/knapen_aot/oldvideos/R_S_yt-NFb0SUCeiro_158.mp4	0.0	141.63894987106323	2.508380889892578
5	14.822682857513428	fix_post	2		12.0	3.0	2.5	/experiments/knapen_aot/oldvideos/R_S_yt-NFb0SUCeiro_158.mp4	0.0	144.1473307609558	0.1000070571899414
6	14.92268991470337	fix_pre	0		168.0	4.0	2.5	/experiments/knapen_aot/oldvideos/S_BO_A014_C008_SDR_20190719_SDR_2K_AVC.mp4	0.0	144.24733781814575	1.3999769687652588
6	16.314507961273193	response	0	4		4.0	2.5	/experiments/knapen_aot/oldvideos/S_BO_A014_C008_SDR_20190719_SDR_2K_AVC.mp4	0.0	145.63915586471558	
6	16.322666883468628	movie	1		165.0	4.0	2.5	/experiments/knapen_aot/oldvideos/S_BO_A014_C008_SDR_20190719_SDR_2K_AVC.mp4	0.0	145.647314786911	2.508319139480591
6	18.83098602294922	fix_post	2		12.0	4.0	2.5	/experiments/knapen_aot/oldvideos/S_BO_A014_C008_SDR_20190719_SDR_2K_AVC.mp4	0.0	148.1556339263916	0.1000068187713623
7	18.93099284172058	fix_pre	0		44.0	5.0	2.5	/experiments/knapen_aot/oldvideos/S_yt-okYy5Md2U8I_7.mp4	0.0	148.25564074516296	0.36704015731811523
7	19.289485931396484	response	0	4		5.0	2.5	/experiments/knapen_aot/oldvideos/S_yt-okYy5Md2U8I_7.mp4	0.0	148.61413383483887	
7	19.298032999038696	movie	1		301.0	5.0	2.5	/experiments/knapen_aot/oldvideos/S_yt-okYy5Md2U8I_7.mp4	0.0	148.62268090248108	2.507951021194458
7	21.805984020233154	fix_post	2		12.0	5.0	2.5	/experiments/knapen_aot/oldvideos/S_yt-okYy5Md2U8I_7.mp4	0.0	151.13063192367554	0.10023093223571777
8	21.906214952468872	fix_pre	0		20.0	6.0	2.5	/experiments/knapen_aot/oldvideos/R_S_ILSVRC2015_train_00066005.mp4	0.0	151.23086285591125	0.16655993461608887
8	22.06462001800537	response	0	4		6.0	2.5	/experiments/knapen_aot/oldvideos/R_S_ILSVRC2015_train_00066005.mp4	0.0	151.38926792144775	
8	22.07277488708496	movie	1		301.0	6.0	2.5	/experiments/knapen_aot/oldvideos/R_S_ILSVRC2015_train_00066005.mp4	0.0	151.39742279052734	2.50829815864563
8	24.58107304573059	fix_post	2		12.0	6.0	2.5	/experiments/knapen_aot/oldvideos/R_S_ILSVRC2015_train_00066005.mp4	0.0	153.90572094917297	0.09992384910583496
9	24.680996894836426	fix_pre	0		16.0	7.0	2.5	blank	1.0	154.0056447982788	0.13332509994506836
9	24.80604100227356	response	0	4		7.0	2.5	blank	1.0	154.13068890571594	
9	24.814321994781494	movie	1		301.0	7.0	2.5	blank	1.0	154.13896989822388	2.508478879928589
9	27.322800874710083	fix_post	2		12.0	7.0	2.5	blank	1.0	156.64744877815247	0.09989118576049805
10	27.42269206047058	fix_pre	0		31.0	8.0	2.5	/experiments/knapen_aot/oldvideos/R_S_yt-26009GpQuUg_3.mp4	0.0	156.74733996391296	0.2582697868347168
10	27.672775983810425	response	0	4		8.0	2.5	/experiments/knapen_aot/oldvideos/R_S_yt-26009GpQuUg_3.mp4	0.0	156.9974238872528	
10	27.680961847305298	movie	1		301.0	8.0	2.5	/experiments/knapen_aot/oldvideos/R_S_yt-26009GpQuUg_3.mp4	0.0	157.00560975074768	2.5083060264587402
10	30.189267873764038	fix_post	2		12.0	8.0	2.5	/experiments/knapen_aot/oldvideos/R_S_yt-26009GpQuUg_3.mp4	0.0	159.51391577720642	0.10003304481506348
11	30.2893009185791	fix_pre	0		17.0	9.0	2.5	/experiments/knapen_aot/oldvideos/S_yt-jcuaf9iSEkI_169.mp4	0.0	159.61394882202148	0.14159393310546875
11	30.422770977020264	response	0	4		9.0	2.5	/experiments/knapen_aot/oldvideos/S_yt-jcuaf9iSEkI_169.mp4	0.0	159.74741888046265	
11	30.43089485168457	movie	1		301.0	9.0	2.5	/experiments/knapen_aot/oldvideos/S_yt-jcuaf9iSEkI_169.mp4	0.0	159.75554275512695	2.5084421634674072
11	32.93933701515198	fix_post	2		12.0	9.0	2.5	/experiments/knapen_aot/oldvideos/S_yt-jcuaf9iSEkI_169.mp4	0.0	162.26398491859436	0.09998703002929688
12	33.039324045181274	fix_pre	0		44.0	10.0	2.5	/experiments/knapen_aot/oldvideos/S_yt-4x2eUikn9rw_212.mp4	0.0	162.36397194862366	0.3666219711303711
12	33.39770793914795	response	0	4		10.0	2.5	/experiments/knapen_aot/oldvideos/S_yt-4x2eUikn9rw_212.mp4	0.0	162.72235584259033	
12	33.405946016311646	movie	1		301.0	10.0	2.5	/experiments/knapen_aot/oldvideos/S_yt-4x2eUikn9rw_212.mp4	0.0	162.73059391975403	2.5084009170532227
12	35.91434693336487	fix_post	2		12.0	10.0	2.5	/experiments/knapen_aot/oldvideos/S_yt-4x2eUikn9rw_212.mp4	0.0	165.23899483680725	0.09983396530151367
13	36.01418089866638	fix_pre	0		34.0	11.0	2.5	/experiments/knapen_aot/oldvideos/R_S_yt-GjFQxAklviE_25.mp4	0.0	165.33882880210876	0.2837340831756592
13	36.28946495056152	response	0	4		11.0	2.5	/experiments/knapen_aot/oldvideos/R_S_yt-GjFQxAklviE_25.mp4	0.0	165.6141128540039	
13	36.29791498184204	movie	1		301.0	11.0	2.5	/experiments/knapen_aot/oldvideos/R_S_yt-GjFQxAklviE_25.mp4	0.0	165.62256288528442	2.5080339908599854
13	38.805948972702026	fix_post	2		12.0	11.0	2.5	/experiments/knapen_aot/oldvideos/R_S_yt-GjFQxAklviE_25.mp4	0.0	168.1305968761444	0.09995698928833008
14	38.905905961990356	fix_pre	0		33.0	12.0	2.5	blank	1.0	168.23055386543274	0.27492308616638184
14	39.172683000564575	response	0	4		12.0	2.5	blank	1.0	168.49733090400696	
14	39.18082904815674	movie	1		301.0	12.0	2.5	blank	1.0	168.50547695159912	2.5084009170532227
14	41.68922996520996	fix_post	2		12.0	12.0	2.5	blank	1.0	171.01387786865234	0.10007190704345703
15	41.78930187225342	fix_pre	0		22.0	13.0	2.5	/experiments/knapen_aot/oldvideos/R_S_yt-MSdNCUWOp4o_4.mp4	0.0	171.1139497756958	0.1833031177520752
15	41.96435284614563	response	0	4		13.0	2.5	/experiments/knapen_aot/oldvideos/R_S_yt-MSdNCUWOp4o_4.mp4	0.0	171.289000749588	
15	41.97260499000549	movie	1		301.0	13.0	2.5	/experiments/knapen_aot/oldvideos/R_S_yt-MSdNCUWOp4o_4.mp4	0.0	171.29725289344788	2.5083138942718506
15	44.480918884277344	fix_post	2		12.0	13.0	2.5	/experiments/knapen_aot/oldvideos/R_S_yt-MSdNCUWOp4o_4.mp4	0.0	173.80556678771973	0.0999910831451416
16	44.580909967422485	fix_pre	0		9.0	14.0	2.5	/experiments/knapen_aot/oldvideos/R_S_yt-okYy5Md2U8I_7.mp4	0.0	173.90555787086487	0.07495999336242676
16	44.64774489402771	response	0	4		14.0	2.5	/experiments/knapen_aot/oldvideos/R_S_yt-okYy5Md2U8I_7.mp4	0.0	173.9723927974701	
16	44.65586996078491	movie	1		301.0	14.0	2.5	/experiments/knapen_aot/oldvideos/R_S_yt-okYy5Md2U8I_7.mp4	0.0	173.9805178642273	2.508384943008423
16	47.164254903793335	fix_post	2		12.0	14.0	2.5	/experiments/knapen_aot/oldvideos/R_S_yt-okYy5Md2U8I_7.mp4	0.0	176.48890280723572	0.09999608993530273
17	47.26425099372864	fix_pre	0		11.0	15.0	2.5	/experiments/knapen_aot/oldvideos/S_production_ID_5049072.mp4	0.0	176.58889889717102	0.09165501594543457
17	47.34774589538574	response	0	4		15.0	2.5	/experiments/knapen_aot/oldvideos/S_production_ID_5049072.mp4	0.0	176.67239379882812	
17	47.35590600967407	movie	1		165.0	15.0	2.5	/experiments/knapen_aot/oldvideos/S_production_ID_5049072.mp4	0.0	176.68055391311646	2.508357048034668
17	49.86426305770874	fix_post	2		12.0	15.0	2.5	/experiments/knapen_aot/oldvideos/S_production_ID_5049072.mp4	0.0	179.18891096115112	0.10030388832092285
18	49.96456694602966	fix_pre	0		11.0	16.0	2.5	/experiments/knapen_aot/oldvideos/R_S_video_inspire_italy_como_cerano-dintelvi_006.1080-h264.mp4	0.0	179.28921484947205	0.09132695198059082
18	50.047616958618164	response	0	4		16.0	2.5	/experiments/knapen_aot/oldvideos/R_S_video_inspire_italy_como_cerano-dintelvi_006.1080-h264.mp4	0.0	179.37226486206055	
18	50.055893898010254	movie	1		169.0	16.0	2.5	/experiments/knapen_aot/oldvideos/R_S_video_inspire_italy_como_cerano-dintelvi_006.1080-h264.mp4	0.0	179.38054180145264	2.508327007293701
18	52.564220905303955	fix_post	2		12.0	16.0	2.5	/experiments/knapen_aot/oldvideos/R_S_video_inspire_italy_como_cerano-dintelvi_006.1080-h264.mp4	0.0	181.88886880874634	0.1000370979309082
19	52.66425800323486	fix_pre	0		8.0	17.0	2.5	/experiments/knapen_aot/oldvideos/S_yt-mdLT282PVbE_6.mp4	0.0	181.98890590667725	0.06658697128295898
19	52.722522020339966	response	0	4		17.0	2.5	/experiments/knapen_aot/oldvideos/S_yt-mdLT282PVbE_6.mp4	0.0	182.04716992378235	
19	52.73084497451782	movie	1		301.0	17.0	2.5	/experiments/knapen_aot/oldvideos/S_yt-mdLT282PVbE_6.mp4	0.0	182.0554928779602	2.508423089981079
19	55.2392680644989	fix_post	2		12.0	17.0	2.5	/experiments/knapen_aot/oldvideos/S_yt-mdLT282PVbE_6.mp4	0.0	184.56391596794128	0.10024094581604004
20	55.33950901031494	fix_pre	0		39.0	18.0	2.5	/experiments/knapen_aot/oldvideos/S_yt-0lfSyC79n14_7.mp4	0.0	184.66415691375732	0.32466602325439453
20	55.65599083900452	response	0	4		18.0	2.5	/experiments/knapen_aot/oldvideos/S_yt-0lfSyC79n14_7.mp4	0.0	184.9806387424469	
20	55.664175033569336	movie	1		301.0	18.0	2.5	/experiments/knapen_aot/oldvideos/S_yt-0lfSyC79n14_7.mp4	0.0	184.98882293701172	2.508641004562378
20	58.172816038131714	fix_post	2		12.0	18.0	2.5	/experiments/knapen_aot/oldvideos/S_yt-0lfSyC79n14_7.mp4	0.0	187.4974639415741	0.09971880912780762
21	58.27253484725952	fix_pre	0		18.0	19.0	2.5	blank	1.0	187.5971827507019	0.15021014213562012
21	58.41432499885559	response	0	4		19.0	2.5	blank	1.0	187.73897290229797	
21	58.42274498939514	movie	1		301.0	19.0	2.5	blank	1.0	187.74739289283752	2.5081238746643066
21	60.93086886405945	fix_post	2		12.0	19.0	2.5	blank	1.0	190.25551676750183	0.0999751091003418
22	61.03084397315979	fix_pre	0		33.0	20.0	2.5	/experiments/knapen_aot/oldvideos/R_S_comp_LA_A009_C009_PSNK_v02_SDR_PS_FINAL_20180709_SDR_2K_AVC.mp4	0.0	190.35549187660217	0.27496790885925293
22	61.297658920288086	response	0	4		20.0	2.5	/experiments/knapen_aot/oldvideos/R_S_comp_LA_A009_C009_PSNK_v02_SDR_PS_FINAL_20180709_SDR_2K_AVC.mp4	0.0	190.62230682373047	
22	61.30581188201904	movie	1		164.0	20.0	2.5	/experiments/knapen_aot/oldvideos/R_S_comp_LA_A009_C009_PSNK_v02_SDR_PS_FINAL_20180709_SDR_2K_AVC.mp4	0.0	190.63045978546143	2.508430004119873
22	63.814241886138916	fix_post	2		12.0	20.0	2.5	/experiments/knapen_aot/oldvideos/R_S_comp_LA_A009_C009_PSNK_v02_SDR_PS_FINAL_20180709_SDR_2K_AVC.mp4	0.0	193.1388897895813	0.09993195533752441
23	63.91417384147644	fix_pre	0		21.0	21.0	2.5	/experiments/knapen_aot/oldvideos/R_S_yt-mdLT282PVbE_6.mp4	0.0	193.23882174491882	0.17509913444519043
23	64.08092498779297	response	0	4		21.0	2.5	/experiments/knapen_aot/oldvideos/R_S_yt-mdLT282PVbE_6.mp4	0.0	193.40557289123535	
23	64.08927297592163	movie	1		301.0	21.0	2.5	/experiments/knapen_aot/oldvideos/R_S_yt-mdLT282PVbE_6.mp4	0.0	193.413920879364	2.5083248615264893
23	66.59759783744812	fix_post	2		12.0	21.0	2.5	/experiments/knapen_aot/oldvideos/R_S_yt-mdLT282PVbE_6.mp4	0.0	195.9222457408905	0.09994006156921387
24	66.69753789901733	fix_pre	0		52.0	22.0	2.5	/experiments/knapen_aot/oldvideos/S_WCwb-DeQOSg_85.mp4	0.0	196.02218580245972	0.43334317207336426
24	67.11498284339905	response	0	4		22.0	2.5	/experiments/knapen_aot/oldvideos/S_WCwb-DeQOSg_85.mp4	0.0	196.43963074684143	
24	67.1308810710907	movie	1		301.0	22.0	2.5	/experiments/knapen_aot/oldvideos/S_WCwb-DeQOSg_85.mp4	0.0	196.45552897453308	2.508225917816162
24	69.63910698890686	fix_post	2		12.0	22.0	2.5	/experiments/knapen_aot/oldvideos/S_WCwb-DeQOSg_85.mp4	0.0	198.96375489234924	0.10003495216369629
25	69.73914194107056	fix_pre	0		55.0	23.0	2.5	/experiments/knapen_aot/oldvideos/S_yt-hHdxZ26SImA_17.mp4	0.0	199.06378984451294	0.4583289623260498
25	70.18924283981323	response	0	4		23.0	2.5	/experiments/knapen_aot/oldvideos/S_yt-hHdxZ26SImA_17.mp4	0.0	199.51389074325562	
25	70.1974709033966	movie	1		301.0	23.0	2.5	/experiments/knapen_aot/oldvideos/S_yt-hHdxZ26SImA_17.mp4	0.0	199.522118806839	2.508402109146118
25	72.70587301254272	fix_post	2		12.0	23.0	2.5	/experiments/knapen_aot/oldvideos/S_yt-hHdxZ26SImA_17.mp4	0.0	202.0305209159851	0.10004091262817383
26	72.8059139251709	fix_pre	0		18.0	24.0	2.5	/experiments/knapen_aot/oldvideos/R_S_yt-GWOOQZ19-oU_331.mp4	0.0	202.13056182861328	0.14977693557739258
26	72.9475839138031	response	0	4		24.0	2.5	/experiments/knapen_aot/oldvideos/R_S_yt-GWOOQZ19-oU_331.mp4	0.0	202.27223181724548	
26	72.95569086074829	movie	1		301.0	24.0	2.5	/experiments/knapen_aot/oldvideos/R_S_yt-GWOOQZ19-oU_331.mp4	0.0	202.28033876419067	2.508690118789673
26	75.46438097953796	fix_post	2		12.0	24.0	2.5	/experiments/knapen_aot/oldvideos/R_S_yt-GWOOQZ19-oU_331.mp4	0.0	204.78902888298035	0.0997769832611084
27	75.56415796279907	fix_pre	0		31.0	25.0	2.5	/experiments/knapen_aot/oldvideos/R_S_DL_B002_C011_SDR_20191122_SDR_2K_AVC.mp4	0.0	204.88880586624146	0.2582850456237793
27	75.81420493125916	response	0	4		25.0	2.5	/experiments/knapen_aot/oldvideos/R_S_DL_B002_C011_SDR_20191122_SDR_2K_AVC.mp4	0.0	205.13885283470154	
27	75.82244300842285	movie	1		164.0	25.0	2.5	/experiments/knapen_aot/oldvideos/R_S_DL_B002_C011_SDR_20191122_SDR_2K_AVC.mp4	0.0	205.14709091186523	2.508297920227051
27	78.3307409286499	fix_post	2		12.0	25.0	2.5	/experiments/knapen_aot/oldvideos/R_S_DL_B002_C011_SDR_20191122_SDR_2K_AVC.mp4	0.0	207.65538883209229	0.10005307197570801
28	78.43079400062561	fix_pre	0		22.0	26.0	2.5	/experiments/knapen_aot/oldvideos/R_S_WCwb-DeQOSg_85.mp4	0.0	207.755441904068	0.1832718849182129
28	78.6058599948883	response	0	4		26.0	2.5	/experiments/knapen_aot/oldvideos/R_S_WCwb-DeQOSg_85.mp4	0.0	207.9305078983307	
28	78.61406588554382	movie	1		301.0	26.0	2.5	/experiments/knapen_aot/oldvideos/R_S_WCwb-DeQOSg_85.mp4	0.0	207.9387137889862	2.508376121520996
28	81.12244200706482	fix_post	2		12.0	26.0	2.5	/experiments/knapen_aot/oldvideos/R_S_WCwb-DeQOSg_85.mp4	0.0	210.4470899105072	0.10010194778442383
29	81.22254395484924	fix_pre	0		23.0	27.0	2.5	/experiments/knapen_aot/oldvideos/S_yt-7W50lcw5FCo_37.mp4	0.0	210.54719185829163	0.19150900840759277
29	81.40588283538818	response	0	4		27.0	2.5	/experiments/knapen_aot/oldvideos/S_yt-7W50lcw5FCo_37.mp4	0.0	210.73053073883057	
29	81.41405296325684	movie	1		301.0	27.0	2.5	/experiments/knapen_aot/oldvideos/S_yt-7W50lcw5FCo_37.mp4	0.0	210.73870086669922	2.508418083190918
29	83.92247104644775	fix_post	2		12.0	27.0	2.5	/experiments/knapen_aot/oldvideos/S_yt-7W50lcw5FCo_37.mp4	0.0	213.24711894989014	0.09996390342712402
30	84.02243494987488	fix_pre	0		39.0	28.0	2.5	blank	1.0	213.34708285331726	0.32491588592529297
30	84.3391969203949	response	0	4		28.0	2.5	blank	1.0	213.66384482383728	
30	84.34735083580017	movie	1		301.0	28.0	2.5	blank	1.0	213.67199873924255	2.5084140300750732
30	86.85576486587524	fix_post	2		12.0	28.0	2.5	blank	1.0	216.18041276931763	0.10001897811889648
31	86.95578384399414	fix_pre	0		23.0	29.0	2.5	/experiments/knapen_aot/oldvideos/S_yt-v66td-1WO7w_44.mp4	0.0	216.28043174743652	0.19164419174194336
31	87.13922786712646	response	0	4		29.0	2.5	/experiments/knapen_aot/oldvideos/S_yt-v66td-1WO7w_44.mp4	0.0	216.46387577056885	
31	87.14742803573608	movie	1		301.0	29.0	2.5	/experiments/knapen_aot/oldvideos/S_yt-v66td-1WO7w_44.mp4	0.0	216.47207593917847	2.508419990539551
31	89.65584802627563	fix_post	2		12.0	29.0	2.5	/experiments/knapen_aot/oldvideos/S_yt-v66td-1WO7w_44.mp4	0.0	218.98049592971802	0.1000528335571289
32	89.75590085983276	fix_pre	0		36.0	30.0	2.5	/experiments/knapen_aot/oldvideos/S_yt-ni4JaYu7PhU_6.mp4	0.0	219.08054876327515	0.2997610569000244
32	90.04751706123352	response	0	4		30.0	2.5	/experiments/knapen_aot/oldvideos/S_yt-ni4JaYu7PhU_6.mp4	0.0	219.3721649646759	
32	90.05566191673279	movie	1		301.0	30.0	2.5	/experiments/knapen_aot/oldvideos/S_yt-ni4JaYu7PhU_6.mp4	0.0	219.38030982017517	2.5083510875701904
32	92.56401300430298	fix_post	2		12.0	30.0	2.5	/experiments/knapen_aot/oldvideos/S_yt-ni4JaYu7PhU_6.mp4	0.0	221.88866090774536	0.10004687309265137
33	92.66405987739563	fix_pre	0		29.0	31.0	2.5	/experiments/knapen_aot/oldvideos/S_comp_A083_C002_1130KZ_v04_SDR_PS_FINAL_20180725_SDR_2K_AVC.mp4	0.0	221.988707780838	0.2416391372680664
33	92.89754796028137	response	0	4		31.0	2.5	/experiments/knapen_aot/oldvideos/S_comp_A083_C002_1130KZ_v04_SDR_PS_FINAL_20180725_SDR_2K_AVC.mp4	0.0	222.22219586372375	
33	92.9056990146637	movie	1		164.0	31.0	2.5	/experiments/knapen_aot/oldvideos/S_comp_A083_C002_1130KZ_v04_SDR_PS_FINAL_20180725_SDR_2K_AVC.mp4	0.0	222.23034691810608	2.5083370208740234
33	95.41403603553772	fix_post	2		12.0	31.0	2.5	/experiments/knapen_aot/oldvideos/S_comp_A083_C002_1130KZ_v04_SDR_PS_FINAL_20180725_SDR_2K_AVC.mp4	0.0	224.7386839389801	0.09992790222167969
34	95.5139639377594	fix_pre	0		20.0	32.0	2.5	/experiments/knapen_aot/oldvideos/R_S_yt-Ev39pXXfr1Y_152.mp4	0.0	224.83861184120178	0.1666569709777832
34	95.67244791984558	response	0	4		32.0	2.5	/experiments/knapen_aot/oldvideos/R_S_yt-Ev39pXXfr1Y_152.mp4	0.0	224.99709582328796	
34	95.68062090873718	movie	1		301.0	32.0	2.5	/experiments/knapen_aot/oldvideos/R_S_yt-Ev39pXXfr1Y_152.mp4	0.0	225.00526881217957	2.5083420276641846
34	98.18896293640137	fix_post	2		12.0	32.0	2.5	/experiments/knapen_aot/oldvideos/R_S_yt-Ev39pXXfr1Y_152.mp4	0.0	227.51361083984375	0.10003900527954102
35	98.28900194168091	fix_pre	0		30.0	33.0	2.5	/experiments/knapen_aot/oldvideos/S_yt-ZwnliF0525U_95.mp4	0.0	227.6136498451233	0.24997210502624512
35	98.53080701828003	response	0	4		33.0	2.5	/experiments/knapen_aot/oldvideos/S_yt-ZwnliF0525U_95.mp4	0.0	227.8554549217224	
35	98.53897404670715	movie	1		301.0	33.0	2.5	/experiments/knapen_aot/oldvideos/S_yt-ZwnliF0525U_95.mp4	0.0	227.86362195014954	2.5085768699645996
35	101.04755091667175	fix_post	2		12.0	33.0	2.5	/experiments/knapen_aot/oldvideos/S_yt-ZwnliF0525U_95.mp4	0.0	230.37219882011414	0.09981107711791992
36	101.14736199378967	fix_pre	0		34.0	34.0	2.5	/experiments/knapen_aot/oldvideos/R_S_comp_GMT308_139K_142NC_CARIBBEAN_DAY_v09_SDR_FINAL_22062018_SDR_2K_AVC.mp4	0.0	230.47200989723206	0.28332996368408203
36	101.42248797416687	response	0	4		34.0	2.5	/experiments/knapen_aot/oldvideos/R_S_comp_GMT308_139K_142NC_CARIBBEAN_DAY_v09_SDR_FINAL_22062018_SDR_2K_AVC.mp4	0.0	230.74713587760925	
36	101.43069195747375	movie	1		169.0	34.0	2.5	/experiments/knapen_aot/oldvideos/R_S_comp_GMT308_139K_142NC_CARIBBEAN_DAY_v09_SDR_FINAL_22062018_SDR_2K_AVC.mp4	0.0	230.75533986091614	2.508375883102417
36	103.93906784057617	fix_post	2		12.0	34.0	2.5	/experiments/knapen_aot/oldvideos/R_S_comp_GMT308_139K_142NC_CARIBBEAN_DAY_v09_SDR_FINAL_22062018_SDR_2K_AVC.mp4	0.0	233.26371574401855	0.09988212585449219
37	104.03894996643066	fix_pre	0		3.0	35.0	2.5	blank	1.0	233.36359786987305	0.025074005126953125
37	104.05578804016113	response	0	4		35.0	2.5	blank	1.0	233.38043594360352	
37	104.06402397155762	movie	1		301.0	35.0	2.5	blank	1.0	233.388671875	2.5083858966827393
37	106.57240986824036	fix_post	2		12.0	35.0	2.5	blank	1.0	235.89705777168274	0.09989809989929199
38	106.67230796813965	fix_pre	0		35.0	36.0	2.5	/experiments/knapen_aot/oldvideos/R_S_yt--C2DDZ7LOQA_95.mp4	0.0	235.99695587158203	0.2916450500488281
38	106.95578694343567	response	0	4		36.0	2.5	/experiments/knapen_aot/oldvideos/R_S_yt--C2DDZ7LOQA_95.mp4	0.0	236.28043484687805	
38	106.96395301818848	movie	1		301.0	36.0	2.5	/experiments/knapen_aot/oldvideos/R_S_yt--C2DDZ7LOQA_95.mp4	0.0	236.28860092163086	2.5085558891296387
38	109.47250890731812	fix_post	2		12.0	36.0	2.5	/experiments/knapen_aot/oldvideos/R_S_yt--C2DDZ7LOQA_95.mp4	0.0	238.7971568107605	0.09978008270263672
39	109.57228899002075	fix_pre	0		33.0	37.0	2.5	/experiments/knapen_aot/oldvideos/R_S_yt-0qfEA1ZFWjA_123.mp4	0.0	238.89693689346313	0.27495503425598145
39	109.83913087844849	response	0	4		37.0	2.5	/experiments/knapen_aot/oldvideos/R_S_yt-0qfEA1ZFWjA_123.mp4	0.0	239.16377878189087	
39	109.84724402427673	movie	1		301.0	37.0	2.5	/experiments/knapen_aot/oldvideos/R_S_yt-0qfEA1ZFWjA_123.mp4	0.0	239.17189192771912	2.508404016494751
39	112.35564804077148	fix_post	2		12.0	37.0	2.5	/experiments/knapen_aot/oldvideos/R_S_yt-0qfEA1ZFWjA_123.mp4	0.0	241.68029594421387	0.09996199607849121
40	112.45561003684998	fix_pre	0		150.0	38.0	2.5	/experiments/knapen_aot/oldvideos/S_production_ID_5020960.mp4	0.0	241.78025794029236	1.250006914138794
40	113.69737505912781	response	0	4		38.0	2.5	/experiments/knapen_aot/oldvideos/S_production_ID_5020960.mp4	0.0	243.0220229625702	
40	113.70561695098877	movie	1		208.0	38.0	2.5	/experiments/knapen_aot/oldvideos/S_production_ID_5020960.mp4	0.0	243.03026485443115	2.5083351135253906
40	116.21395206451416	fix_post	2		12.0	38.0	2.5	/experiments/knapen_aot/oldvideos/S_production_ID_5020960.mp4	0.0	245.53859996795654	0.10009193420410156
41	116.31404399871826	fix_pre	0		27.0	39.0	2.5	/experiments/knapen_aot/oldvideos/S_DL_B002_C011_SDR_20191122_SDR_2K_AVC.mp4	0.0	245.63869190216064	0.22486090660095215
41	116.53074288368225	response	0	4		39.0	2.5	/experiments/knapen_aot/oldvideos/S_DL_B002_C011_SDR_20191122_SDR_2K_AVC.mp4	0.0	245.85539078712463	
41	116.53890490531921	movie	1		163.0	39.0	2.5	/experiments/knapen_aot/oldvideos/S_DL_B002_C011_SDR_20191122_SDR_2K_AVC.mp4	0.0	245.8635528087616	2.5084540843963623
41	119.04735898971558	fix_post	2		12.0	39.0	2.5	/experiments/knapen_aot/oldvideos/S_DL_B002_C011_SDR_20191122_SDR_2K_AVC.mp4	0.0	248.37200689315796	0.09993505477905273
42	119.14729404449463	fix_pre	0		211.0	40.0	2.5	blank	1.0	248.471941947937	1.758296012878418
42	120.89744186401367	response	0	4		40.0	2.5	blank	1.0	250.22208976745605	
42	120.90559005737305	movie	1		301.0	40.0	2.5	blank	1.0	250.23023796081543	2.5083048343658447
42	123.41389489173889	fix_post	2		12.0	40.0	2.5	blank	1.0	252.73854279518127	0.10004901885986328
43	123.51394391059875	fix_pre	0		21.0	41.0	2.5	/experiments/knapen_aot/oldvideos/R_S_production_ID_5144823.mp4	0.0	252.83859181404114	0.1750640869140625
43	123.67313694953918	response	0	4		41.0	2.5	/experiments/knapen_aot/oldvideos/R_S_production_ID_5144823.mp4	0.0	252.99778485298157	
43	123.68900799751282	movie	1		164.0	41.0	2.5	/experiments/knapen_aot/oldvideos/R_S_production_ID_5144823.mp4	0.0	253.0136559009552	2.50833797454834
43	126.19734597206116	fix_post	2		12.0	41.0	2.5	/experiments/knapen_aot/oldvideos/R_S_production_ID_5144823.mp4	0.0	255.52199387550354	0.09990906715393066
44	126.29725503921509	fix_pre	0		6.0	42.0	2.5	/experiments/knapen_aot/oldvideos/R_S_yt-06XMUn9DTKc_35.mp4	0.0	255.62190294265747	0.049916982650756836
44	126.33905100822449	response	0	4		42.0	2.5	/experiments/knapen_aot/oldvideos/R_S_yt-06XMUn9DTKc_35.mp4	0.0	255.66369891166687	
44	126.34717202186584	movie	1		301.0	42.0	2.5	/experiments/knapen_aot/oldvideos/R_S_yt-06XMUn9DTKc_35.mp4	0.0	255.67181992530823	2.5083439350128174
44	128.85551595687866	fix_post	2		12.0	42.0	2.5	/experiments/knapen_aot/oldvideos/R_S_yt-06XMUn9DTKc_35.mp4	0.0	258.18016386032104	0.1000359058380127
45	128.95555186271667	fix_pre	0		183.0	43.0	2.5	/experiments/knapen_aot/oldvideos/S_yt-4x2eUikn9rw_212.mp4	0.0	258.28019976615906	1.5251100063323975
45	130.47232389450073	response	0	4		43.0	2.5	/experiments/knapen_aot/oldvideos/S_yt-4x2eUikn9rw_212.mp4	0.0	259.7969717979431	
45	130.48066186904907	movie	1		301.0	43.0	2.5	/experiments/knapen_aot/oldvideos/S_yt-4x2eUikn9rw_212.mp4	0.0	259.80530977249146	2.508216142654419
45	132.9888780117035	fix_post	2		12.0	43.0	2.5	/experiments/knapen_aot/oldvideos/S_yt-4x2eUikn9rw_212.mp4	0.0	262.3135259151459	0.09997892379760742
46	133.0888569355011	fix_pre	0		26.0	44.0	2.5	/experiments/knapen_aot/oldvideos/S_yt-tfHCqgH1guY_235.mp4	0.0	262.4135048389435	0.2166581153869629
46	133.2972948551178	response	0	4		44.0	2.5	/experiments/knapen_aot/oldvideos/S_yt-tfHCqgH1guY_235.mp4	0.0	262.6219427585602	
46	133.30551505088806	movie	1		301.0	44.0	2.5	/experiments/knapen_aot/oldvideos/S_yt-tfHCqgH1guY_235.mp4	0.0	262.63016295433044	2.5083179473876953
46	135.81383299827576	fix_post	2		12.0	44.0	2.5	/experiments/knapen_aot/oldvideos/S_yt-tfHCqgH1guY_235.mp4	0.0	265.13848090171814	0.10002303123474121
47	135.9138560295105	fix_pre	0		137.0	45.0	2.5	/experiments/knapen_aot/oldvideos/S_yt-OFbbvxTLrtM_132.mp4	0.0	265.2385039329529	1.1416428089141846
47	137.03993391990662	response	0	4		45.0	2.5	/experiments/knapen_aot/oldvideos/S_yt-OFbbvxTLrtM_132.mp4	0.0	266.364581823349	
47	137.05549883842468	movie	1		301.0	45.0	2.5	/experiments/knapen_aot/oldvideos/S_yt-OFbbvxTLrtM_132.mp4	0.0	266.38014674186707	2.5083420276641846
47	139.56384086608887	fix_post	2		12.0	45.0	2.5	/experiments/knapen_aot/oldvideos/S_yt-OFbbvxTLrtM_132.mp4	0.0	268.88848876953125	0.09995913505554199
48	139.6638000011444	fix_pre	0		142.0	46.0	2.5	/experiments/knapen_aot/oldvideos/S_yt-hRAqAwRhmwE_58.mp4	0.0	268.9884479045868	1.1833970546722412
48	140.8389389514923	response	0	4		46.0	2.5	/experiments/knapen_aot/oldvideos/S_yt-hRAqAwRhmwE_58.mp4	0.0	270.1635868549347	
48	140.84719705581665	movie	1		301.0	46.0	2.5	/experiments/knapen_aot/oldvideos/S_yt-hRAqAwRhmwE_58.mp4	0.0	270.17184495925903	2.5083999633789062
48	143.35559701919556	fix_post	2		12.0	46.0	2.5	/experiments/knapen_aot/oldvideos/S_yt-hRAqAwRhmwE_58.mp4	0.0	272.68024492263794	0.09987783432006836
49	143.45547485351562	fix_pre	0		24.0	47.0	2.5	/experiments/knapen_aot/oldvideos/R_S_yt-PP93D7b7Ni4_10.mp4	0.0	272.780122756958	0.1999821662902832
49	143.64723205566406	response	0	4		47.0	2.5	/experiments/knapen_aot/oldvideos/R_S_yt-PP93D7b7Ni4_10.mp4	0.0	272.97187995910645	
49	143.6554570198059	movie	1		301.0	47.0	2.5	/experiments/knapen_aot/oldvideos/R_S_yt-PP93D7b7Ni4_10.mp4	0.0	272.9801049232483	2.5083529949188232
49	146.16381001472473	fix_post	2		12.0	47.0	2.5	/experiments/knapen_aot/oldvideos/R_S_yt-PP93D7b7Ni4_10.mp4	0.0	275.4884579181671	0.10012602806091309
50	146.26393604278564	fix_pre	0		15.0	48.0	2.5	blank	1.0	275.588583946228	0.12489080429077148
50	146.38062000274658	response	0	4		48.0	2.5	blank	1.0	275.70526790618896	
50	146.38882684707642	movie	1		301.0	48.0	2.5	blank	1.0	275.7134747505188	2.5081942081451416
50	148.89702105522156	fix_post	2		12.0	48.0	2.5	blank	1.0	278.22166895866394	0.1001279354095459
51	148.9971489906311	fix_pre	0		205.0	49.0	2.5	/experiments/knapen_aot/oldvideos/S_yt-jcuaf9iSEkI_169.mp4	0.0	278.3217968940735	1.7094149589538574
51	150.69719886779785	response	0	4		49.0	2.5	/experiments/knapen_aot/oldvideos/S_yt-jcuaf9iSEkI_169.mp4	0.0	280.02184677124023	
51	150.70656394958496	movie	1		301.0	49.0	2.5	/experiments/knapen_aot/oldvideos/S_yt-jcuaf9iSEkI_169.mp4	0.0	280.03121185302734	2.5072290897369385
51	153.2137930393219	fix_post	2		12.0	49.0	2.5	/experiments/knapen_aot/oldvideos/S_yt-jcuaf9iSEkI_169.mp4	0.0	282.5384409427643	0.09989094734191895
52	153.31368398666382	fix_pre	0		19.0	50.0	2.5	/experiments/knapen_aot/oldvideos/S_yt-PK-Eip9wFr0_24.mp4	0.0	282.6383318901062	0.15838408470153809
52	153.46388792991638	response	0	4		50.0	2.5	/experiments/knapen_aot/oldvideos/S_yt-PK-Eip9wFr0_24.mp4	0.0	282.78853583335876	
52	153.47206807136536	movie	1		301.0	50.0	2.5	/experiments/knapen_aot/oldvideos/S_yt-PK-Eip9wFr0_24.mp4	0.0	282.79671597480774	2.5084028244018555
52	155.9804708957672	fix_post	2		12.0	50.0	2.5	/experiments/knapen_aot/oldvideos/S_yt-PK-Eip9wFr0_24.mp4	0.0	285.3051187992096	0.09995913505554199
53	156.08043003082275	fix_pre	0		30.0	51.0	2.5	/experiments/knapen_aot/oldvideos/R_S_yt-PltpRRYmQQk_62.mp4	0.0	285.40507793426514	0.2510828971862793
53	156.3222098350525	response	0	4		51.0	2.5	/experiments/knapen_aot/oldvideos/R_S_yt-PltpRRYmQQk_62.mp4	0.0	285.6468577384949	
53	156.33151292800903	movie	1		301.0	51.0	2.5	/experiments/knapen_aot/oldvideos/R_S_yt-PltpRRYmQQk_62.mp4	0.0	285.6561608314514	2.5072860717773438
53	158.83879899978638	fix_post	2		12.0	51.0	2.5	/experiments/knapen_aot/oldvideos/R_S_yt-PltpRRYmQQk_62.mp4	0.0	288.16344690322876	0.09991192817687988
54	158.93871092796326	fix_pre	0		41.0	52.0	2.5	/experiments/knapen_aot/oldvideos/R_S_yt-dO0OuozAgt0_225.mp4	0.0	288.26335883140564	0.3416421413421631
54	159.2722568511963	response	0	4		52.0	2.5	/experiments/knapen_aot/oldvideos/R_S_yt-dO0OuozAgt0_225.mp4	0.0	288.5969047546387	
54	159.28035306930542	movie	1		301.0	52.0	2.5	/experiments/knapen_aot/oldvideos/R_S_yt-dO0OuozAgt0_225.mp4	0.0	288.6050009727478	2.5084187984466553
54	161.78877186775208	fix_post	2		12.0	52.0	2.5	/experiments/knapen_aot/oldvideos/R_S_yt-dO0OuozAgt0_225.mp4	0.0	291.11341977119446	0.09996819496154785
55	161.88874006271362	fix_pre	0		23.0	53.0	2.5	/experiments/knapen_aot/oldvideos/S_yt-TSSPDwAQLXs_158.mp4	0.0	291.213387966156	0.19276785850524902
55	162.0721950531006	response	0	4		53.0	2.5	/experiments/knapen_aot/oldvideos/S_yt-TSSPDwAQLXs_158.mp4	0.0	291.39684295654297	
55	162.08150792121887	movie	1		301.0	53.0	2.5	/experiments/knapen_aot/oldvideos/S_yt-TSSPDwAQLXs_158.mp4	0.0	291.40615582466125	2.5072429180145264
55	164.5887508392334	fix_post	2		12.0	53.0	2.5	/experiments/knapen_aot/oldvideos/S_yt-TSSPDwAQLXs_158.mp4	0.0	293.9133987426758	0.10000109672546387
56	164.68875193595886	fix_pre	0		50.0	54.0	2.5	/experiments/knapen_aot/oldvideos/S_yt-158C6xUMi5Y_75.mp4	0.0	294.01339983940125	0.4165489673614502
56	165.0971429347992	response	0	4		54.0	2.5	/experiments/knapen_aot/oldvideos/S_yt-158C6xUMi5Y_75.mp4	0.0	294.4217908382416	
56	165.1053009033203	movie	1		301.0	54.0	2.5	/experiments/knapen_aot/oldvideos/S_yt-158C6xUMi5Y_75.mp4	0.0	294.4299488067627	2.5088319778442383
56	167.61413288116455	fix_post	2		12.0	54.0	2.5	/experiments/knapen_aot/oldvideos/S_yt-158C6xUMi5Y_75.mp4	0.0	296.93878078460693	0.0995781421661377
57	167.7137110233307	fix_pre	0		58.0	55.0	2.5	blank	1.0	297.03835892677307	0.4833250045776367
57	168.18881392478943	response	0	4		55.0	2.5	blank	1.0	297.5134618282318	
57	168.19703602790833	movie	1		301.0	55.0	2.5	blank	1.0	297.5216839313507	2.5085179805755615
57	170.7055540084839	fix_post	2		12.0	55.0	2.5	blank	1.0	300.03020191192627	0.09983205795288086
58	170.80538606643677	fix_pre	0		177.0	56.0	2.5	/experiments/knapen_aot/oldvideos/R_S_yt-RWN5qOIgqec_25.mp4	0.0	300.13003396987915	1.4749670028686523
58	172.27216696739197	response	0	4		56.0	2.5	/experiments/knapen_aot/oldvideos/R_S_yt-RWN5qOIgqec_25.mp4	0.0	301.59681487083435	
58	172.28035306930542	movie	1		301.0	56.0	2.5	/experiments/knapen_aot/oldvideos/R_S_yt-RWN5qOIgqec_25.mp4	0.0	301.6050009727478	2.508330821990967
58	174.7886838912964	fix_post	2		12.0	56.0	2.5	/experiments/knapen_aot/oldvideos/R_S_yt-RWN5qOIgqec_25.mp4	0.0	304.11333179473877	0.10001206398010254
59	174.8886959552765	fix_pre	0		86.0	57.0	2.5	/experiments/knapen_aot/oldvideos/S_yt-osdlC1buTaM_4.mp4	0.0	304.2133438587189	0.7166221141815186
59	175.59712386131287	response	0	4		57.0	2.5	/experiments/knapen_aot/oldvideos/S_yt-osdlC1buTaM_4.mp4	0.0	304.92177176475525	
59	175.605318069458	movie	1		301.0	57.0	2.5	/experiments/knapen_aot/oldvideos/S_yt-osdlC1buTaM_4.mp4	0.0	304.9299659729004	2.50833797454834
59	178.11365604400635	fix_post	2		12.0	57.0	2.5	/experiments/knapen_aot/oldvideos/S_yt-osdlC1buTaM_4.mp4	0.0	307.43830394744873	0.10002279281616211
60	178.2136788368225	fix_pre	0		58.0	58.0	2.5	/experiments/knapen_aot/oldvideos/S_yt-2pRKCSgdXXU_30.mp4	0.0	307.5383267402649	0.483227014541626
60	178.6887650489807	response	0	4		58.0	2.5	/experiments/knapen_aot/oldvideos/S_yt-2pRKCSgdXXU_30.mp4	0.0	308.0134129524231	
60	178.69690585136414	movie	1		301.0	58.0	2.5	/experiments/knapen_aot/oldvideos/S_yt-2pRKCSgdXXU_30.mp4	0.0	308.0215537548065	2.5084421634674072
60	181.20534801483154	fix_post	2		12.0	58.0	2.5	/experiments/knapen_aot/oldvideos/S_yt-2pRKCSgdXXU_30.mp4	0.0	310.5299959182739	0.09997701644897461
61	181.30532503128052	fix_pre	0		34.0	59.0	2.5	/experiments/knapen_aot/oldvideos/R_S_yt-dO0OuozAgt0_225.mp4	0.0	310.6299729347229	0.2832629680633545
61	181.5805048942566	response	0	4		59.0	2.5	/experiments/knapen_aot/oldvideos/R_S_yt-dO0OuozAgt0_225.mp4	0.0	310.905152797699	
61	181.58858799934387	movie	1		301.0	59.0	2.5	/experiments/knapen_aot/oldvideos/R_S_yt-dO0OuozAgt0_225.mp4	0.0	310.91323590278625	2.508410930633545
61	184.09699892997742	fix_post	2		12.0	59.0	2.5	/experiments/knapen_aot/oldvideos/R_S_yt-dO0OuozAgt0_225.mp4	0.0	313.4216468334198	0.10008502006530762
62	184.19708395004272	fix_pre	0		21.0	60.0	2.5	/experiments/knapen_aot/oldvideos/R_S_wc-_W9iefBXz8bi_23.mp4	0.0	313.5217318534851	0.17582297325134277
62	184.36385583877563	response	0	4		60.0	2.5	/experiments/knapen_aot/oldvideos/R_S_wc-_W9iefBXz8bi_23.mp4	0.0	313.688503742218	
62	184.37290692329407	movie	1		164.0	60.0	2.5	/experiments/knapen_aot/oldvideos/R_S_wc-_W9iefBXz8bi_23.mp4	0.0	313.69755482673645	2.5074150562286377
62	186.8803219795227	fix_post	2		12.0	60.0	2.5	/experiments/knapen_aot/oldvideos/R_S_wc-_W9iefBXz8bi_23.mp4	0.0	316.2049698829651	0.1000058650970459
63	186.98032784461975	fix_pre	0		151.0	61.0	2.5	blank	1.0	316.30497574806213	1.25822114944458
63	188.23040294647217	response	0	4		61.0	2.5	blank	1.0	317.55505084991455	
63	188.23854899406433	movie	1		301.0	61.0	2.5	blank	1.0	317.5631968975067	2.5083980560302734
63	190.7469470500946	fix_post	2		12.0	61.0	2.5	blank	1.0	320.071594953537	0.10003495216369629
64	190.8469820022583	fix_pre	0		28.0	62.0	2.5	/experiments/knapen_aot/oldvideos/R_S_yt-waWM9vAfsIw_116.mp4	0.0	320.1716299057007	0.23424291610717773
64	191.07212901115417	response	0	4		62.0	2.5	/experiments/knapen_aot/oldvideos/R_S_yt-waWM9vAfsIw_116.mp4	0.0	320.39677691459656	
64	191.08122491836548	movie	1		301.0	62.0	2.5	/experiments/knapen_aot/oldvideos/R_S_yt-waWM9vAfsIw_116.mp4	0.0	320.40587282180786	2.507333993911743
64	193.58855891227722	fix_post	2		12.0	62.0	2.5	/experiments/knapen_aot/oldvideos/R_S_yt-waWM9vAfsIw_116.mp4	0.0	322.9132068157196	0.10024309158325195
65	193.68880200386047	fix_pre	0		24.0	63.0	2.5	/experiments/knapen_aot/oldvideos/S_ILSVRC2015_train_00723001.mp4	0.0	323.01344990730286	0.19977688789367676
65	193.88032388687134	response	0	4		63.0	2.5	/experiments/knapen_aot/oldvideos/S_ILSVRC2015_train_00723001.mp4	0.0	323.2049717903137	
65	193.88857889175415	movie	1		301.0	63.0	2.5	/experiments/knapen_aot/oldvideos/S_ILSVRC2015_train_00723001.mp4	0.0	323.21322679519653	2.508463144302368
65	196.39704203605652	fix_post	2		12.0	63.0	2.5	/experiments/knapen_aot/oldvideos/S_ILSVRC2015_train_00723001.mp4	0.0	325.7216899394989	0.09990692138671875
66	196.49694895744324	fix_pre	0		167.0	64.0	2.5	/experiments/knapen_aot/oldvideos/S_yt-n_eO-7KedAE_21.mp4	0.0	325.8215968608856	1.391624927520752
66	197.88038396835327	response	0	4		64.0	2.5	/experiments/knapen_aot/oldvideos/S_yt-n_eO-7KedAE_21.mp4	0.0	327.20503187179565	
66	197.888573884964	movie	1		301.0	64.0	2.5	/experiments/knapen_aot/oldvideos/S_yt-n_eO-7KedAE_21.mp4	0.0	327.2132217884064	2.508371114730835
66	200.39694499969482	fix_post	2		12.0	64.0	2.5	/experiments/knapen_aot/oldvideos/S_yt-n_eO-7KedAE_21.mp4	0.0	329.7215929031372	0.10000801086425781
67	200.49695301055908	fix_pre	0		20.0	65.0	2.5	/experiments/knapen_aot/oldvideos/R_S_BO_A014_C008_SDR_20190719_SDR_2K_AVC.mp4	0.0	329.82160091400146	0.1675858497619629
67	200.65537691116333	response	0	4		65.0	2.5	/experiments/knapen_aot/oldvideos/R_S_BO_A014_C008_SDR_20190719_SDR_2K_AVC.mp4	0.0	329.9800248146057	
67	200.66453886032104	movie	1		165.0	65.0	2.5	/experiments/knapen_aot/oldvideos/R_S_BO_A014_C008_SDR_20190719_SDR_2K_AVC.mp4	0.0	329.9891867637634	2.507390022277832
67	203.17192888259888	fix_post	2		12.0	65.0	2.5	/experiments/knapen_aot/oldvideos/R_S_BO_A014_C008_SDR_20190719_SDR_2K_AVC.mp4	0.0	332.49657678604126	0.10031008720397949
68	203.27223896980286	fix_pre	0		13.0	66.0	2.5	/experiments/knapen_aot/oldvideos/R_S_yt-mdxs8FCKLFc_232.mp4	0.0	332.59688687324524	0.1079258918762207
68	203.36452198028564	response	0	4		66.0	2.5	/experiments/knapen_aot/oldvideos/R_S_yt-mdxs8FCKLFc_232.mp4	0.0	332.689169883728	
68	203.38016486167908	movie	1		300.0	66.0	2.5	/experiments/knapen_aot/oldvideos/R_S_yt-mdxs8FCKLFc_232.mp4	0.0	332.70481276512146	2.5084609985351562
68	205.88862586021423	fix_post	2		12.0	66.0	2.5	/experiments/knapen_aot/oldvideos/R_S_yt-mdxs8FCKLFc_232.mp4	0.0	335.2132737636566	0.09993505477905273
69	205.9885609149933	fix_pre	0		307.0	67.0	2.5	/experiments/knapen_aot/oldvideos/S_yt-GWOOQZ19-oU_331.mp4	0.0	335.31320881843567	2.5582520961761475
69	208.53863787651062	response	0	4		67.0	2.5	/experiments/knapen_aot/oldvideos/S_yt-GWOOQZ19-oU_331.mp4	0.0	337.863285779953	
69	208.54681301116943	movie	1		301.0	67.0	2.5	/experiments/knapen_aot/oldvideos/S_yt-GWOOQZ19-oU_331.mp4	0.0	337.8714609146118	2.508401870727539
69	211.05521488189697	fix_post	2		12.0	67.0	2.5	/experiments/knapen_aot/oldvideos/S_yt-GWOOQZ19-oU_331.mp4	0.0	340.37986278533936	0.10009503364562988
70	211.1553099155426	fix_pre	0		35.0	68.0	2.5	/experiments/knapen_aot/oldvideos/S_yt-tneuR3EtSZE_72.mp4	0.0	340.479957818985	0.29154109954833984
70	211.4312448501587	response	0	4		68.0	2.5	/experiments/knapen_aot/oldvideos/S_yt-tneuR3EtSZE_72.mp4	0.0	340.7558927536011	
70	211.44685101509094	movie	1		301.0	68.0	2.5	/experiments/knapen_aot/oldvideos/S_yt-tneuR3EtSZE_72.mp4	0.0	340.7714989185333	2.50917387008667
70	213.9560248851776	fix_post	2		12.0	68.0	2.5	/experiments/knapen_aot/oldvideos/S_yt-tneuR3EtSZE_72.mp4	0.0	343.28067278862	0.09913206100463867
71	214.05515694618225	fix_pre	0		47.0	69.0	2.5	blank	1.0	343.37980484962463	0.39168810844421387
71	214.4311020374298	response	0	4		69.0	2.5	blank	1.0	343.7557499408722	
71	214.44684505462646	movie	1		301.0	69.0	2.5	blank	1.0	343.77149295806885	2.5083348751068115
71	216.95517992973328	fix_post	2		12.0	69.0	2.5	blank	1.0	346.27982783317566	0.10010194778442383
72	217.0552818775177	fix_pre	0		106.0	70.0	2.5	/experiments/knapen_aot/oldvideos/S_yt-wz2opOBqClo_14.mp4	0.0	346.3799297809601	0.8831701278686523
72	217.92271900177002	response	0	4		70.0	2.5	/experiments/knapen_aot/oldvideos/S_yt-wz2opOBqClo_14.mp4	0.0	347.2473669052124	
72	217.93845200538635	movie	1		301.0	70.0	2.5	/experiments/knapen_aot/oldvideos/S_yt-wz2opOBqClo_14.mp4	0.0	347.26309990882874	2.508319854736328
72	220.44677186012268	fix_post	2		12.0	70.0	2.5	/experiments/knapen_aot/oldvideos/S_yt-wz2opOBqClo_14.mp4	0.0	349.77141976356506	0.10005307197570801
73	220.5468249320984	fix_pre	0		34.0	71.0	2.5	/experiments/knapen_aot/oldvideos/S_pexels-rodnae-productions-5993237.mp4	0.0	349.87147283554077	0.28401613235473633
73	220.82212090492249	response	0	4		71.0	2.5	/experiments/knapen_aot/oldvideos/S_pexels-rodnae-productions-5993237.mp4	0.0	350.14676880836487	
73	220.83084106445312	movie	1		164.0	71.0	2.5	/experiments/knapen_aot/oldvideos/S_pexels-rodnae-productions-5993237.mp4	0.0	350.1554889678955	2.507694959640503
73	223.33853602409363	fix_post	2		12.0	71.0	2.5	/experiments/knapen_aot/oldvideos/S_pexels-rodnae-productions-5993237.mp4	0.0	352.663183927536	0.10002398490905762
74	223.43856000900269	fix_pre	0		206.0	72.0	2.5	/experiments/knapen_aot/oldvideos/S_yt-G_eNNzNB-hU_1.mp4	0.0	352.76320791244507	1.7165160179138184
74	225.1393768787384	response	0	4		72.0	2.5	/experiments/knapen_aot/oldvideos/S_yt-G_eNNzNB-hU_1.mp4	0.0	354.4640247821808	
74	225.1550760269165	movie	1		301.0	72.0	2.5	/experiments/knapen_aot/oldvideos/S_yt-G_eNNzNB-hU_1.mp4	0.0	354.4797239303589	2.508307933807373
74	227.66338396072388	fix_post	2		12.0	72.0	2.5	/experiments/knapen_aot/oldvideos/S_yt-G_eNNzNB-hU_1.mp4	0.0	356.98803186416626	0.1000680923461914
75	227.76345205307007	fix_pre	0		67.0	73.0	2.5	/experiments/knapen_aot/oldvideos/S_ILSVRC2015_train_00574004.mp4	0.0	357.08809995651245	0.5582590103149414
75	228.31358098983765	response	0	4		73.0	2.5	/experiments/knapen_aot/oldvideos/S_ILSVRC2015_train_00574004.mp4	0.0	357.63822889328003	
75	228.321711063385	movie	1		301.0	73.0	2.5	/experiments/knapen_aot/oldvideos/S_ILSVRC2015_train_00574004.mp4	0.0	357.6463589668274	2.5084359645843506
75	230.83014702796936	fix_post	2		12.0	73.0	2.5	/experiments/knapen_aot/oldvideos/S_ILSVRC2015_train_00574004.mp4	0.0	360.15479493141174	0.10011982917785645
76	230.93026685714722	fix_pre	0		28.0	74.0	2.5	/experiments/knapen_aot/oldvideos/S_yt-RWN5qOIgqec_25.mp4	0.0	360.2549147605896	0.23380112648010254
76	231.15524888038635	response	0	4		74.0	2.5	/experiments/knapen_aot/oldvideos/S_yt-RWN5qOIgqec_25.mp4	0.0	360.47989678382874	
76	231.16406798362732	movie	1		301.0	74.0	2.5	/experiments/knapen_aot/oldvideos/S_yt-RWN5qOIgqec_25.mp4	0.0	360.4887158870697	2.5077600479125977
76	233.67182803153992	fix_post	2		12.0	74.0	2.5	/experiments/knapen_aot/oldvideos/S_yt-RWN5qOIgqec_25.mp4	0.0	362.9964759349823	0.09998583793640137
77	233.77181386947632	fix_pre	0		209.0	75.0	2.5	blank	1.0	363.0964617729187	1.7416269779205322
77	235.50523495674133	response	0	4		75.0	2.5	blank	1.0	364.8298828601837	
77	235.51344084739685	movie	1		301.0	75.0	2.5	blank	1.0	364.83808875083923	2.5082931518554688
77	238.02173399925232	fix_post	2		12.0	75.0	2.5	blank	1.0	367.3463819026947	0.09997892379760742
78	238.12171292304993	fix_pre	0		24.0	76.0	2.5	/experiments/knapen_aot/oldvideos/S_wc-_W9iefBXz8bi_23.mp4	0.0	367.4463608264923	0.199998140335083
78	238.31348705291748	response	0	4		76.0	2.5	/experiments/knapen_aot/oldvideos/S_wc-_W9iefBXz8bi_23.mp4	0.0	367.63813495635986	
78	238.321711063385	movie	1		165.0	76.0	2.5	/experiments/knapen_aot/oldvideos/S_wc-_W9iefBXz8bi_23.mp4	0.0	367.6463589668274	2.5083558559417725
78	240.83006691932678	fix_post	2		12.0	76.0	2.5	/experiments/knapen_aot/oldvideos/S_wc-_W9iefBXz8bi_23.mp4	0.0	370.15471482276917	0.09999895095825195
79	240.93006587028503	fix_pre	0		23.0	77.0	2.5	/experiments/knapen_aot/oldvideos/S_yt-roThCERxVCs_133.mp4	0.0	370.2547137737274	0.19236111640930176
79	241.1134738922119	response	0	4		77.0	2.5	/experiments/knapen_aot/oldvideos/S_yt-roThCERxVCs_133.mp4	0.0	370.4381217956543	
79	241.12242698669434	movie	1		301.0	77.0	2.5	/experiments/knapen_aot/oldvideos/S_yt-roThCERxVCs_133.mp4	0.0	370.4470748901367	2.5076169967651367
79	243.63004398345947	fix_post	2		12.0	77.0	2.5	/experiments/knapen_aot/oldvideos/S_yt-roThCERxVCs_133.mp4	0.0	372.95469188690186	0.10004687309265137
80	243.73009085655212	fix_pre	0		61.0	78.0	2.5	/experiments/knapen_aot/oldvideos/R_S_pexels-mikhail-nilov-8410084_1.mp4	0.0	373.0547387599945	0.5082831382751465
80	244.23017501831055	response	0	4		78.0	2.5	/experiments/knapen_aot/oldvideos/R_S_pexels-mikhail-nilov-8410084_1.mp4	0.0	373.55482292175293	
80	244.23837399482727	movie	1		166.0	78.0	2.5	/experiments/knapen_aot/oldvideos/R_S_pexels-mikhail-nilov-8410084_1.mp4	0.0	373.56302189826965	2.5084099769592285
80	246.7467839717865	fix_post	2		12.0	78.0	2.5	/experiments/knapen_aot/oldvideos/R_S_pexels-mikhail-nilov-8410084_1.mp4	0.0	376.0714318752289	0.09998393058776855
81	246.84676790237427	fix_pre	0		76.0	79.0	2.5	/experiments/knapen_aot/oldvideos/R_S_yt-Q5wYs9vSzlA_30.mp4	0.0	376.17141580581665	0.6332240104675293
81	247.47177386283875	response	0	4		79.0	2.5	/experiments/knapen_aot/oldvideos/R_S_yt-Q5wYs9vSzlA_30.mp4	0.0	376.7964217662811	
81	247.4799919128418	movie	1		301.0	79.0	2.5	/experiments/knapen_aot/oldvideos/R_S_yt-Q5wYs9vSzlA_30.mp4	0.0	376.8046398162842	2.508404016494751
81	249.98839592933655	fix_post	2		12.0	79.0	2.5	/experiments/knapen_aot/oldvideos/R_S_yt-Q5wYs9vSzlA_30.mp4	0.0	379.31304383277893	0.09998703002929688
82	250.08838295936584	fix_pre	0		55.0	80.0	2.5	/experiments/knapen_aot/oldvideos/R_S_yt-osdlC1buTaM_4.mp4	0.0	379.4130308628082	0.4582979679107666
82	250.53848099708557	response	0	4		80.0	2.5	/experiments/knapen_aot/oldvideos/R_S_yt-osdlC1buTaM_4.mp4	0.0	379.86312890052795	
82	250.5466809272766	movie	1		301.0	80.0	2.5	/experiments/knapen_aot/oldvideos/R_S_yt-osdlC1buTaM_4.mp4	0.0	379.871328830719	2.508316993713379
82	253.05499792099	fix_post	2		12.0	80.0	2.5	/experiments/knapen_aot/oldvideos/R_S_yt-osdlC1buTaM_4.mp4	0.0	382.3796458244324	0.100006103515625
83	253.15500402450562	fix_pre	0		31.0	81.0	2.5	/experiments/knapen_aot/oldvideos/R_S_ILSVRC2015_train_00723001.mp4	0.0	382.479651927948	0.2588820457458496
83	253.40506291389465	response	0	4		81.0	2.5	/experiments/knapen_aot/oldvideos/R_S_ILSVRC2015_train_00723001.mp4	0.0	382.72971081733704	
83	253.41388607025146	movie	1		301.0	81.0	2.5	/experiments/knapen_aot/oldvideos/R_S_ILSVRC2015_train_00723001.mp4	0.0	382.73853397369385	2.5078229904174805
83	255.92170906066895	fix_post	2		12.0	81.0	2.5	/experiments/knapen_aot/oldvideos/R_S_ILSVRC2015_train_00723001.mp4	0.0	385.2463569641113	0.09998393058776855
84	256.0216929912567	fix_pre	0		28.0	82.0	2.5	/experiments/knapen_aot/oldvideos/R_S_yt-y3tyx6cZjmA_412.mp4	0.0	385.3463408946991	0.23326492309570312
84	256.2468168735504	response	0	4		82.0	2.5	/experiments/knapen_aot/oldvideos/R_S_yt-y3tyx6cZjmA_412.mp4	0.0	385.5714647769928	
84	256.2549579143524	movie	1		301.0	82.0	2.5	/experiments/knapen_aot/oldvideos/R_S_yt-y3tyx6cZjmA_412.mp4	0.0	385.5796058177948	2.50839900970459
84	258.763356924057	fix_post	2		12.0	82.0	2.5	/experiments/knapen_aot/oldvideos/R_S_yt-y3tyx6cZjmA_412.mp4	0.0	388.0880048274994	0.100067138671875
85	258.8634240627289	fix_pre	0		18.0	83.0	2.5	blank	1.0	388.18807196617126	0.14995288848876953
85	259.00506687164307	response	0	4		83.0	2.5	blank	1.0	388.32971477508545	
85	259.01337695121765	movie	1		301.0	83.0	2.5	blank	1.0	388.33802485466003	2.5082240104675293
85	261.5216009616852	fix_post	2		12.0	83.0	2.5	blank	1.0	390.84624886512756	0.10060906410217285
87	261.62221002578735	stim	0		404.0					390.94685792922974	3.3679749965667725
87	264.98462295532227	response	0	space						394.30927085876465	
