trial_nr	onset	event_type	phase	response	nr_frames	movie_index	movie_duration	movie_file	blank	onset_abs	duration
0	0.13323616981506348	stim	0		24.0					63.71791934967041	0.19998383522033691
0	0.3263709545135498	response	0	space						63.9110541343689	
1	0.3332200050354004	stim	0		121.0					63.91790318489075	1.0079460144042969
1	1.3411660194396973	stim	1		120.0					64.92584919929504	1.0000951290130615
1	1.5747621059417725	response	1	space						65.15944528579712	
1	1.9497051239013672	response	1	space						65.53438830375671	
1	2.274651050567627	response	1	space						65.85933423042297	
2	2.341261148452759	fix_pre	0		37.0	0.0	2.5	/experiments/knapen_aot/videos/R_S_Y011_C001_SDR_2K_AVC.mp4	0.0	65.9259443283081	0.30832695960998535
2	2.633810043334961	response	0	space		0.0	2.5	/experiments/knapen_aot/videos/R_S_Y011_C001_SDR_2K_AVC.mp4	0.0	66.21849322319031	
2	2.649588108062744	movie	1		168.0	0.0	2.5	/experiments/knapen_aot/videos/R_S_Y011_C001_SDR_2K_AVC.mp4	0.0	66.23427128791809	2.5083298683166504
2	5.1579179763793945	fix_post	2		12.0	0.0	2.5	/experiments/knapen_aot/videos/R_S_Y011_C001_SDR_2K_AVC.mp4	0.0	68.74260115623474	0.10001206398010254
3	5.257930040359497	fix_pre	0		85.0	1.0	2.5	/experiments/knapen_aot/videos/S_production_ID_4154238.mp4	0.0	68.84261322021484	0.7082369327545166
3	5.955777168273926	response	0	2		1.0	2.5	/experiments/knapen_aot/videos/S_production_ID_4154238.mp4	0.0	69.54046034812927	
3	5.966166973114014	movie	1		207.0	1.0	2.5	/experiments/knapen_aot/videos/S_production_ID_4154238.mp4	0.0	69.55085015296936	2.508347988128662
3	8.474514961242676	fix_post	2		12.0	1.0	2.5	/experiments/knapen_aot/videos/S_production_ID_4154238.mp4	0.0	72.05919814109802	0.100830078125
4	8.575345039367676	fix_pre	0		85.0	2.0	2.5	/experiments/knapen_aot/videos/S_ILSVRC2015_train_00384000.mp4	0.0	72.16002821922302	0.7082841396331787
4	9.274774074554443	response	0	2		2.0	2.5	/experiments/knapen_aot/videos/S_ILSVRC2015_train_00384000.mp4	0.0	72.85945725440979	
4	9.283629179000854	movie	1		301.0	2.0	2.5	/experiments/knapen_aot/videos/S_ILSVRC2015_train_00384000.mp4	0.0	72.8683123588562	2.5075948238372803
4	11.791224002838135	fix_post	2		12.0	2.0	2.5	/experiments/knapen_aot/videos/S_ILSVRC2015_train_00384000.mp4	0.0	75.37590718269348	0.10000300407409668
5	11.891227006912231	fix_pre	0		70.0	3.0	2.5	/experiments/knapen_aot/videos/S_pexels-koolshooters-7327412.mp4	0.0	75.47591018676758	0.5833091735839844
5	12.466423988342285	response	0	2		3.0	2.5	/experiments/knapen_aot/videos/S_pexels-koolshooters-7327412.mp4	0.0	76.05110716819763	
5	12.474536180496216	movie	1		164.0	3.0	2.5	/experiments/knapen_aot/videos/S_pexels-koolshooters-7327412.mp4	0.0	76.05921936035156	2.50819993019104
5	14.982736110687256	fix_post	2		12.0	3.0	2.5	/experiments/knapen_aot/videos/S_pexels-koolshooters-7327412.mp4	0.0	78.5674192905426	0.10015702247619629
6	15.082893133163452	fix_pre	0		68.0	4.0	2.5	/experiments/knapen_aot/videos/R_S_ILSVRC2015_train_00371006.mp4	0.0	78.6675763130188	0.5666279792785645
6	15.641326189041138	response	0	2		4.0	2.5	/experiments/knapen_aot/videos/R_S_ILSVRC2015_train_00371006.mp4	0.0	79.22600936889648	
6	15.649521112442017	movie	1		301.0	4.0	2.5	/experiments/knapen_aot/videos/R_S_ILSVRC2015_train_00371006.mp4	0.0	79.23420429229736	2.5083439350128174
6	18.157865047454834	fix_post	2		12.0	4.0	2.5	/experiments/knapen_aot/videos/R_S_ILSVRC2015_train_00371006.mp4	0.0	81.74254822731018	0.10000801086425781
7	18.257873058319092	fix_pre	0		52.0	5.0	2.5	/experiments/knapen_aot/videos/S_production_ID_4802712.mp4	0.0	81.84255623817444	0.43324899673461914
7	18.67542314529419	response	0	2		5.0	2.5	/experiments/knapen_aot/videos/S_production_ID_4802712.mp4	0.0	82.26010632514954	
7	18.69112205505371	movie	1		165.0	5.0	2.5	/experiments/knapen_aot/videos/S_production_ID_4802712.mp4	0.0	82.27580523490906	2.5083649158477783
7	21.19948697090149	fix_post	2		11.0	5.0	2.5	/experiments/knapen_aot/videos/S_production_ID_4802712.mp4	0.0	84.78417015075684	0.0999751091003418
8	21.29946208000183	fix_pre	0		72.0	6.0	2.5	blank	1.0	84.88414525985718	0.6021010875701904
8	21.89271116256714	response	0	2		6.0	2.5	blank	1.0	85.47739434242249	
8	21.90156316757202	movie	1		301.0	6.0	2.5	blank	1.0	85.48624634742737	2.5062108039855957
8	24.407773971557617	fix_post	2		12.0	6.0	2.5	blank	1.0	87.99245715141296	0.1000521183013916
9	24.50782608985901	fix_pre	0		82.0	7.0	2.5	/experiments/knapen_aot/videos/R_S_yt-UKrWbJEs7pw_74.mp4	0.0	88.09250926971436	0.6832799911499023
9	25.18292808532715	response	0	2		7.0	2.5	/experiments/knapen_aot/videos/R_S_yt-UKrWbJEs7pw_74.mp4	0.0	88.7676112651825	
9	25.19110608100891	movie	1		298.0	7.0	2.5	/experiments/knapen_aot/videos/R_S_yt-UKrWbJEs7pw_74.mp4	0.0	88.77578926086426	2.508342981338501
9	27.699449062347412	fix_post	2		12.0	7.0	2.5	/experiments/knapen_aot/videos/R_S_yt-UKrWbJEs7pw_74.mp4	0.0	91.28413224220276	0.10002708435058594
10	27.799476146697998	fix_pre	0		102.0	8.0	2.5	/experiments/knapen_aot/videos/S_b8-3.mp4	0.0	91.38415932655334	0.8499689102172852
10	28.64126706123352	response	0	2		8.0	2.5	/experiments/knapen_aot/videos/S_b8-3.mp4	0.0	92.22595024108887	
10	28.649445056915283	movie	1		167.0	8.0	2.5	/experiments/knapen_aot/videos/S_b8-3.mp4	0.0	92.23412823677063	2.5083649158477783
10	31.15780997276306	fix_post	2		12.0	8.0	2.5	/experiments/knapen_aot/videos/S_b8-3.mp4	0.0	94.74249315261841	0.09992098808288574
11	31.257730960845947	fix_pre	0		64.0	9.0	2.5	/experiments/knapen_aot/videos/S_yt-kKRGgUhVRzc_74.mp4	0.0	94.8424141407013	0.5333530902862549
11	31.783584117889404	response	0	2		9.0	2.5	/experiments/knapen_aot/videos/S_yt-kKRGgUhVRzc_74.mp4	0.0	95.36826729774475	
11	31.791084051132202	movie	1		301.0	9.0	2.5	/experiments/knapen_aot/videos/S_yt-kKRGgUhVRzc_74.mp4	0.0	95.37576723098755	2.508423089981079
11	34.29950714111328	fix_post	2		12.0	9.0	2.5	/experiments/knapen_aot/videos/S_yt-kKRGgUhVRzc_74.mp4	0.0	97.88419032096863	0.099884033203125
12	34.399391174316406	fix_pre	0		97.0	10.0	2.5	/experiments/knapen_aot/videos/S_pexels-koolshooters-7327412.mp4	0.0	97.98407435417175	0.8083148002624512
12	35.19962215423584	response	0	2		10.0	2.5	/experiments/knapen_aot/videos/S_pexels-koolshooters-7327412.mp4	0.0	98.78430533409119	
12	35.20770597457886	movie	1		162.0	10.0	2.5	/experiments/knapen_aot/videos/S_pexels-koolshooters-7327412.mp4	0.0	98.7923891544342	2.508272171020508
12	37.715978145599365	fix_post	2		12.0	10.0	2.5	/experiments/knapen_aot/videos/S_pexels-koolshooters-7327412.mp4	0.0	101.30066132545471	0.10010194778442383
13	37.81608009338379	fix_pre	0		61.0	11.0	2.5	/experiments/knapen_aot/videos/R_S_yt_R-JaY8f33fOCw_25.mp4	0.0	101.40076327323914	0.5089199542999268
13	38.31621599197388	response	0	2		11.0	2.5	/experiments/knapen_aot/videos/R_S_yt_R-JaY8f33fOCw_25.mp4	0.0	101.90089917182922	
13	38.325000047683716	movie	1		301.0	11.0	2.5	/experiments/knapen_aot/videos/R_S_yt_R-JaY8f33fOCw_25.mp4	0.0	101.90968322753906	2.5076820850372314
13	40.83268213272095	fix_post	2		12.0	11.0	2.5	/experiments/knapen_aot/videos/R_S_yt_R-JaY8f33fOCw_25.mp4	0.0	104.4173653125763	0.10003900527954102
14	40.93272113800049	fix_pre	0		88.0	12.0	2.5	/experiments/knapen_aot/videos/R_S_yt-26009GpQuUg_3.mp4	0.0	104.51740431785583	0.7332959175109863
14	41.65043902397156	response	0	2		12.0	2.5	/experiments/knapen_aot/videos/R_S_yt-26009GpQuUg_3.mp4	0.0	105.2351222038269	
14	41.666017055511475	movie	1		301.0	12.0	2.5	/experiments/knapen_aot/videos/R_S_yt-26009GpQuUg_3.mp4	0.0	105.25070023536682	2.5083649158477783
14	44.17438197135925	fix_post	2		12.0	12.0	2.5	/experiments/knapen_aot/videos/R_S_yt-26009GpQuUg_3.mp4	0.0	107.7590651512146	0.10001301765441895
15	44.27439498901367	fix_pre	0		68.0	13.0	2.5	/experiments/knapen_aot/videos/R_S_yt-l6WPyKg_3is_154.mp4	0.0	107.85907816886902	0.5666131973266602
15	44.83288311958313	response	0	2		13.0	2.5	/experiments/knapen_aot/videos/R_S_yt-l6WPyKg_3is_154.mp4	0.0	108.41756629943848	
15	44.84100818634033	movie	1		299.0	13.0	2.5	/experiments/knapen_aot/videos/R_S_yt-l6WPyKg_3is_154.mp4	0.0	108.42569136619568	2.508453845977783
15	47.349462032318115	fix_post	2		12.0	13.0	2.5	/experiments/knapen_aot/videos/R_S_yt-l6WPyKg_3is_154.mp4	0.0	110.93414521217346	0.09992003440856934
16	47.449382066726685	fix_pre	0		97.0	14.0	2.5	blank	1.0	111.03406524658203	0.8083081245422363
16	48.24954795837402	response	0	2		14.0	2.5	blank	1.0	111.83423113822937	
16	48.25769019126892	movie	1		301.0	14.0	2.5	blank	1.0	111.84237337112427	2.5082738399505615
16	50.76596403121948	fix_post	2		12.0	14.0	2.5	blank	1.0	114.35064721107483	0.10010313987731934
17	50.8660671710968	fix_pre	0		74.0	15.0	2.5	/experiments/knapen_aot/videos/S_yt-_Hnr82bYGEQ_103.mp4	0.0	114.45075035095215	0.6166038513183594
17	51.474536180496216	response	0	2		15.0	2.5	/experiments/knapen_aot/videos/S_yt-_Hnr82bYGEQ_103.mp4	0.0	115.05921936035156	
17	51.48267102241516	movie	1		301.0	15.0	2.5	/experiments/knapen_aot/videos/S_yt-_Hnr82bYGEQ_103.mp4	0.0	115.06735420227051	2.5083110332489014
17	53.99098205566406	fix_post	2		12.0	15.0	2.5	/experiments/knapen_aot/videos/S_yt-_Hnr82bYGEQ_103.mp4	0.0	117.57566523551941	0.10006403923034668
18	54.09104609489441	fix_pre	0		82.0	16.0	2.5	/experiments/knapen_aot/videos/R_S_WCwb-DeQOSg_85.mp4	0.0	117.67572927474976	0.683297872543335
18	54.7661771774292	response	0	2		16.0	2.5	/experiments/knapen_aot/videos/R_S_WCwb-DeQOSg_85.mp4	0.0	118.35086035728455	
18	54.774343967437744	movie	1		301.0	16.0	2.5	/experiments/knapen_aot/videos/R_S_WCwb-DeQOSg_85.mp4	0.0	118.35902714729309	2.508366107940674
18	57.28271007537842	fix_post	2		12.0	16.0	2.5	/experiments/knapen_aot/videos/R_S_WCwb-DeQOSg_85.mp4	0.0	120.86739325523376	0.10000491142272949
19	57.38271498680115	fix_pre	0		97.0	17.0	2.5	/experiments/knapen_aot/videos/R_S_yt-_Hnr82bYGEQ_103.mp4	0.0	120.9673981666565	0.8082230091094971
19	58.18279218673706	response	0	2		17.0	2.5	/experiments/knapen_aot/videos/R_S_yt-_Hnr82bYGEQ_103.mp4	0.0	121.76747536659241	
19	58.190937995910645	movie	1		300.0	17.0	2.5	/experiments/knapen_aot/videos/R_S_yt-_Hnr82bYGEQ_103.mp4	0.0	121.77562117576599	2.5083701610565186
19	60.69930815696716	fix_post	2		12.0	17.0	2.5	/experiments/knapen_aot/videos/R_S_yt-_Hnr82bYGEQ_103.mp4	0.0	124.28399133682251	0.1000208854675293
20	60.79932904243469	fix_pre	0		83.0	18.0	2.5	/experiments/knapen_aot/videos/S_yt-J1dw4AznwmQ_7.mp4	0.0	124.38401222229004	0.6921241283416748
20	61.48279118537903	response	0	2		18.0	2.5	/experiments/knapen_aot/videos/S_yt-J1dw4AznwmQ_7.mp4	0.0	125.06747436523438	
20	61.49145317077637	movie	1		301.0	18.0	2.5	/experiments/knapen_aot/videos/S_yt-J1dw4AznwmQ_7.mp4	0.0	125.07613635063171	2.507863998413086
20	63.99931716918945	fix_post	2		12.0	18.0	2.5	/experiments/knapen_aot/videos/S_yt-J1dw4AznwmQ_7.mp4	0.0	127.5840003490448	0.10001397132873535
21	64.09933114051819	fix_pre	0		67.0	19.0	2.5	blank	1.0	127.68401432037354	0.5588350296020508
21	64.64946103096008	response	0	2		19.0	2.5	blank	1.0	128.23414421081543	
21	64.65816617012024	movie	1		301.0	19.0	2.5	blank	1.0	128.2428493499756	2.5078439712524414
21	67.16601014137268	fix_post	2		12.0	19.0	2.5	blank	1.0	130.75069332122803	0.09988999366760254
22	67.26590013504028	fix_pre	0		70.0	20.0	2.5	/experiments/knapen_aot/videos/S_yt-lCb_efvJcdE_5.mp4	0.0	130.85058331489563	0.583392858505249
22	67.84103512763977	response	0	2		20.0	2.5	/experiments/knapen_aot/videos/S_yt-lCb_efvJcdE_5.mp4	0.0	131.42571830749512	
22	67.84929299354553	movie	1		301.0	20.0	2.5	/experiments/knapen_aot/videos/S_yt-lCb_efvJcdE_5.mp4	0.0	131.43397617340088	2.508336067199707
22	70.35762906074524	fix_post	2		12.0	20.0	2.5	/experiments/knapen_aot/videos/S_yt-lCb_efvJcdE_5.mp4	0.0	133.9423122406006	0.09997200965881348
23	70.45760107040405	fix_pre	0		106.0	21.0	2.5	/experiments/knapen_aot/videos/S_yt-l6WPyKg_3is_154.mp4	0.0	134.0422842502594	0.8833320140838623
23	71.33276796340942	response	0	2		21.0	2.5	/experiments/knapen_aot/videos/S_yt-l6WPyKg_3is_154.mp4	0.0	134.91745114326477	
23	71.34093308448792	movie	1		300.0	21.0	2.5	/experiments/knapen_aot/videos/S_yt-l6WPyKg_3is_154.mp4	0.0	134.92561626434326	2.5083489418029785
23	73.8492820262909	fix_post	2		12.0	21.0	2.5	/experiments/knapen_aot/videos/S_yt-l6WPyKg_3is_154.mp4	0.0	137.43396520614624	0.09997010231018066
24	73.94925212860107	fix_pre	0		61.0	22.0	2.5	/experiments/knapen_aot/videos/S_pexels-vlada-karpovich-8044792.mp4	0.0	137.53393530845642	0.5082409381866455
24	74.44940495491028	response	0	2		22.0	2.5	/experiments/knapen_aot/videos/S_pexels-vlada-karpovich-8044792.mp4	0.0	138.03408813476562	
24	74.45749306678772	movie	1		168.0	22.0	2.5	/experiments/knapen_aot/videos/S_pexels-vlada-karpovich-8044792.mp4	0.0	138.04217624664307	2.5084500312805176
24	76.96594309806824	fix_post	2		12.0	22.0	2.5	/experiments/knapen_aot/videos/S_pexels-vlada-karpovich-8044792.mp4	0.0	140.55062627792358	0.09992504119873047
25	77.06586813926697	fix_pre	0		106.0	23.0	2.5	/experiments/knapen_aot/videos/R_S_yt-nS2QqSQbjOQ_39.mp4	0.0	140.65055131912231	0.8838028907775879
25	77.9411211013794	response	0	2		23.0	2.5	/experiments/knapen_aot/videos/R_S_yt-nS2QqSQbjOQ_39.mp4	0.0	141.52580428123474	
25	77.94967103004456	movie	1		301.0	23.0	2.5	/experiments/knapen_aot/videos/R_S_yt-nS2QqSQbjOQ_39.mp4	0.0	141.5343542098999	2.507949113845825
25	80.45762014389038	fix_post	2		12.0	23.0	2.5	/experiments/knapen_aot/videos/R_S_yt-nS2QqSQbjOQ_39.mp4	0.0	144.04230332374573	0.10008788108825684
26	80.55770802497864	fix_pre	0		59.0	24.0	2.5	/experiments/knapen_aot/videos/S_WCwb-DeQOSg_85.mp4	0.0	144.14239120483398	0.49152302742004395
26	81.0409631729126	response	0	2		24.0	2.5	/experiments/knapen_aot/videos/S_WCwb-DeQOSg_85.mp4	0.0	144.62564635276794	
26	81.04923105239868	movie	1		301.0	24.0	2.5	/experiments/knapen_aot/videos/S_WCwb-DeQOSg_85.mp4	0.0	144.63391423225403	2.508388042449951
26	83.55761909484863	fix_post	2		12.0	24.0	2.5	/experiments/knapen_aot/videos/S_WCwb-DeQOSg_85.mp4	0.0	147.14230227470398	0.09996509552001953
27	83.65758419036865	fix_pre	0		87.0	25.0	2.5	/experiments/knapen_aot/videos/S_ILSVRC2015_train_00379000.mp4	0.0	147.242267370224	0.7249908447265625
27	84.37437605857849	response	0	2		25.0	2.5	/experiments/knapen_aot/videos/S_ILSVRC2015_train_00379000.mp4	0.0	147.95905923843384	
27	84.38257503509521	movie	1		301.0	25.0	2.5	/experiments/knapen_aot/videos/S_ILSVRC2015_train_00379000.mp4	0.0	147.96725821495056	2.50827693939209
27	86.8908519744873	fix_post	2		12.0	25.0	2.5	/experiments/knapen_aot/videos/S_ILSVRC2015_train_00379000.mp4	0.0	150.47553515434265	0.09999203681945801
28	86.99084401130676	fix_pre	0		111.0	26.0	2.5	/experiments/knapen_aot/videos/S_yt-UKrWbJEs7pw_74.mp4	0.0	150.5755271911621	0.9250450134277344
28	87.90775203704834	response	0	2		26.0	2.5	/experiments/knapen_aot/videos/S_yt-UKrWbJEs7pw_74.mp4	0.0	151.4924352169037	
28	87.9158890247345	movie	1		301.0	26.0	2.5	/experiments/knapen_aot/videos/S_yt-UKrWbJEs7pw_74.mp4	0.0	151.50057220458984	2.508350133895874
28	90.42423915863037	fix_post	2		12.0	26.0	2.5	/experiments/knapen_aot/videos/S_yt-UKrWbJEs7pw_74.mp4	0.0	154.00892233848572	0.10001397132873535
29	90.5242531299591	fix_pre	0		78.0	27.0	2.5	blank	1.0	154.10893630981445	0.6499249935150146
29	91.16594099998474	response	0	2		27.0	2.5	blank	1.0	154.7506241798401	
29	91.17417812347412	movie	1		301.0	27.0	2.5	blank	1.0	154.75886130332947	2.5082900524139404
29	93.68246817588806	fix_post	2		12.0	27.0	2.5	blank	1.0	157.2671513557434	0.10039496421813965
30	93.7828631401062	fix_pre	0		76.0	28.0	2.5	/experiments/knapen_aot/videos/R_S_pexels-roman-odintsov-8232443_1.mp4	0.0	157.36754631996155	0.6329338550567627
30	94.40765905380249	response	0	2		28.0	2.5	/experiments/knapen_aot/videos/R_S_pexels-roman-odintsov-8232443_1.mp4	0.0	157.99234223365784	
30	94.41579699516296	movie	1		187.0	28.0	2.5	/experiments/knapen_aot/videos/R_S_pexels-roman-odintsov-8232443_1.mp4	0.0	158.0004801750183	2.5083751678466797
30	96.92417216300964	fix_post	2		12.0	28.0	2.5	/experiments/knapen_aot/videos/R_S_pexels-roman-odintsov-8232443_1.mp4	0.0	160.508855342865	0.0999460220336914
31	97.02411818504333	fix_pre	0		63.0	29.0	2.5	/experiments/knapen_aot/videos/R_S_yt-5doJmCcFL7s_3.mp4	0.0	160.60880136489868	0.5250599384307861
31	97.54098010063171	response	0	2		29.0	2.5	/experiments/knapen_aot/videos/R_S_yt-5doJmCcFL7s_3.mp4	0.0	161.12566328048706	
31	97.54917812347412	movie	1		301.0	29.0	2.5	/experiments/knapen_aot/videos/R_S_yt-5doJmCcFL7s_3.mp4	0.0	161.13386130332947	2.508327007293701
31	100.05750513076782	fix_post	2		12.0	29.0	2.5	/experiments/knapen_aot/videos/R_S_yt-5doJmCcFL7s_3.mp4	0.0	163.64218831062317	0.09993100166320801
32	100.15743613243103	fix_pre	0		57.0	30.0	2.5	/experiments/knapen_aot/videos/R_S_yt-5fZZrdwkFx0_28.mp4	0.0	163.74211931228638	0.4750039577484131
32	100.61681008338928	response	0	2		30.0	2.5	/experiments/knapen_aot/videos/R_S_yt-5fZZrdwkFx0_28.mp4	0.0	164.20149326324463	
32	100.63244009017944	movie	1		300.0	30.0	2.5	/experiments/knapen_aot/videos/R_S_yt-5fZZrdwkFx0_28.mp4	0.0	164.2171232700348	2.5083329677581787
32	103.14077305793762	fix_post	2		12.0	30.0	2.5	/experiments/knapen_aot/videos/R_S_yt-5fZZrdwkFx0_28.mp4	0.0	166.72545623779297	0.10041403770446777
33	103.24118709564209	fix_pre	0		62.0	31.0	2.5	/experiments/knapen_aot/videos/S_yt-26009GpQuUg_3.mp4	0.0	166.82587027549744	0.5162620544433594
33	103.74921703338623	response	0	2		31.0	2.5	/experiments/knapen_aot/videos/S_yt-26009GpQuUg_3.mp4	0.0	167.33390021324158	
33	103.75744915008545	movie	1		301.0	31.0	2.5	/experiments/knapen_aot/videos/S_yt-26009GpQuUg_3.mp4	0.0	167.3421323299408	2.5083179473876953
33	106.26576709747314	fix_post	2		12.0	31.0	2.5	/experiments/knapen_aot/videos/S_yt-26009GpQuUg_3.mp4	0.0	169.8504502773285	0.10051298141479492
34	106.36628007888794	fix_pre	0		121.0	32.0	2.5	/experiments/knapen_aot/videos/S_pexels-mart-production-7698693.mp4	0.0	169.9509632587433	1.0078449249267578
34	107.36597800254822	response	0	2		32.0	2.5	/experiments/knapen_aot/videos/S_pexels-mart-production-7698693.mp4	0.0	170.95066118240356	
34	107.3741250038147	movie	1		197.0	32.0	2.5	/experiments/knapen_aot/videos/S_pexels-mart-production-7698693.mp4	0.0	170.95880818367004	2.5083301067352295
34	109.88245511054993	fix_post	2		12.0	32.0	2.5	/experiments/knapen_aot/videos/S_pexels-mart-production-7698693.mp4	0.0	173.46713829040527	0.09995603561401367
35	109.98241114616394	fix_pre	0		71.0	33.0	2.5	/experiments/knapen_aot/videos/S_yt-w_e3sxIzepA_27.mp4	0.0	173.5670943260193	0.5919198989868164
35	110.56720304489136	response	0	2		33.0	2.5	/experiments/knapen_aot/videos/S_yt-w_e3sxIzepA_27.mp4	0.0	174.1518862247467	
35	110.57433104515076	movie	1		301.0	33.0	2.5	/experiments/knapen_aot/videos/S_yt-w_e3sxIzepA_27.mp4	0.0	174.1590142250061	2.5081069469451904
35	113.08243799209595	fix_post	2		12.0	33.0	2.5	/experiments/knapen_aot/videos/S_yt-w_e3sxIzepA_27.mp4	0.0	176.6671211719513	0.10002708435058594
36	113.18246507644653	fix_pre	0		74.0	34.0	2.5	/experiments/knapen_aot/videos/S_ILSVRC2015_train_00460000.mp4	0.0	176.76714825630188	0.6166648864746094
36	113.79091215133667	response	0	2		34.0	2.5	/experiments/knapen_aot/videos/S_ILSVRC2015_train_00460000.mp4	0.0	177.37559533119202	
36	113.79912996292114	movie	1		301.0	34.0	2.5	/experiments/knapen_aot/videos/S_ILSVRC2015_train_00460000.mp4	0.0	177.3838131427765	2.5082430839538574
36	116.307373046875	fix_post	2		12.0	34.0	2.5	/experiments/knapen_aot/videos/S_ILSVRC2015_train_00460000.mp4	0.0	179.89205622673035	0.10027313232421875
37	116.40764617919922	fix_pre	0		85.0	35.0	2.5	blank	1.0	179.99232935905457	0.7083358764648438
37	117.1075849533081	response	0	2		35.0	2.5	blank	1.0	180.69226813316345	
37	117.11598205566406	movie	1		301.0	35.0	2.5	blank	1.0	180.7006652355194	2.507995128631592
37	119.62397718429565	fix_post	2		12.0	35.0	2.5	blank	1.0	183.208660364151	0.10006093978881836
38	119.72403812408447	fix_pre	0		78.0	36.0	2.5	/experiments/knapen_aot/videos/S_yt-giRwl4yChlw_9.mp4	0.0	183.30872130393982	0.6500298976898193
38	120.36585998535156	response	0	2		36.0	2.5	/experiments/knapen_aot/videos/S_yt-giRwl4yChlw_9.mp4	0.0	183.9505431652069	
38	120.37406802177429	movie	1		300.0	36.0	2.5	/experiments/knapen_aot/videos/S_yt-giRwl4yChlw_9.mp4	0.0	183.95875120162964	2.508366107940674
38	122.88243412971497	fix_post	2		12.0	36.0	2.5	/experiments/knapen_aot/videos/S_yt-giRwl4yChlw_9.mp4	0.0	186.4671173095703	0.0999898910522461
39	122.98242402076721	fix_pre	0		88.0	37.0	2.5	/experiments/knapen_aot/videos/R_S_yt-xQPKYWDRy2A_491.mp4	0.0	186.56710720062256	0.7332820892333984
39	123.70756006240845	response	0	2		37.0	2.5	/experiments/knapen_aot/videos/R_S_yt-xQPKYWDRy2A_491.mp4	0.0	187.2922432422638	
39	123.71570611000061	movie	1		301.0	37.0	2.5	/experiments/knapen_aot/videos/R_S_yt-xQPKYWDRy2A_491.mp4	0.0	187.30038928985596	2.5083799362182617
39	126.22408604621887	fix_post	2		12.0	37.0	2.5	/experiments/knapen_aot/videos/R_S_yt-xQPKYWDRy2A_491.mp4	0.0	189.80876922607422	0.1001429557800293
40	126.3242290019989	fix_pre	0		76.0	38.0	2.5	/experiments/knapen_aot/videos/R_S_gHYomsO1dSU_5.mp4	0.0	189.90891218185425	0.6331520080566406
40	126.94926309585571	response	0	2		38.0	2.5	/experiments/knapen_aot/videos/R_S_gHYomsO1dSU_5.mp4	0.0	190.53394627571106	
40	126.95738101005554	movie	1		301.0	38.0	2.5	/experiments/knapen_aot/videos/R_S_gHYomsO1dSU_5.mp4	0.0	190.5420641899109	2.508286952972412
40	129.46566796302795	fix_post	2		12.0	38.0	2.5	/experiments/knapen_aot/videos/R_S_gHYomsO1dSU_5.mp4	0.0	193.0503511428833	0.10002708435058594
41	129.56569504737854	fix_pre	0		74.0	39.0	2.5	/experiments/knapen_aot/videos/S_comp_CH_C007_C011_PSNK_v02_SDR_PS_FINAL_20180709_SDR_2K_AVC.mp4	0.0	193.1503782272339	0.6166460514068604
41	130.1742730140686	response	0	2		39.0	2.5	/experiments/knapen_aot/videos/S_comp_CH_C007_C011_PSNK_v02_SDR_PS_FINAL_20180709_SDR_2K_AVC.mp4	0.0	193.75895619392395	
41	130.1823410987854	movie	1		170.0	39.0	2.5	/experiments/knapen_aot/videos/S_comp_CH_C007_C011_PSNK_v02_SDR_PS_FINAL_20180709_SDR_2K_AVC.mp4	0.0	193.76702427864075	2.5084590911865234
41	132.69080018997192	fix_post	2		12.0	39.0	2.5	/experiments/knapen_aot/videos/S_comp_CH_C007_C011_PSNK_v02_SDR_PS_FINAL_20180709_SDR_2K_AVC.mp4	0.0	196.27548336982727	0.09991288185119629
42	132.79071307182312	fix_pre	0		79.0	40.0	2.5	/experiments/knapen_aot/videos/R_S_yt-kxWtOXNIsRA_329.mp4	0.0	196.37539625167847	0.6583950519561768
42	133.44084310531616	response	0	2		40.0	2.5	/experiments/knapen_aot/videos/R_S_yt-kxWtOXNIsRA_329.mp4	0.0	197.0255262851715	
42	133.4491081237793	movie	1		301.0	40.0	2.5	/experiments/knapen_aot/videos/R_S_yt-kxWtOXNIsRA_329.mp4	0.0	197.03379130363464	2.5081629753112793
42	135.95727109909058	fix_post	2		12.0	40.0	2.5	/experiments/knapen_aot/videos/R_S_yt-kxWtOXNIsRA_329.mp4	0.0	199.54195427894592	0.10005998611450195
43	136.05733108520508	fix_pre	0		83.0	41.0	2.5	/experiments/knapen_aot/videos/S_comp_HK_H004_C010_PSNK_v08_SDR_PS_20181009_SDR_2K_AVC.mp4	0.0	199.64201426506042	0.6916599273681641
43	136.7408411502838	response	0	2		41.0	2.5	/experiments/knapen_aot/videos/S_comp_HK_H004_C010_PSNK_v08_SDR_PS_20181009_SDR_2K_AVC.mp4	0.0	200.32552433013916	
43	136.74899101257324	movie	1		171.0	41.0	2.5	/experiments/knapen_aot/videos/S_comp_HK_H004_C010_PSNK_v08_SDR_PS_20181009_SDR_2K_AVC.mp4	0.0	200.3336741924286	2.5083160400390625
43	139.2573070526123	fix_post	2		12.0	41.0	2.5	/experiments/knapen_aot/videos/S_comp_HK_H004_C010_PSNK_v08_SDR_PS_20181009_SDR_2K_AVC.mp4	0.0	202.84199023246765	0.10002398490905762
44	139.35733103752136	fix_pre	0		73.0	42.0	2.5	blank	1.0	202.9420142173767	0.6083500385284424
44	139.9574680328369	response	0	2		42.0	2.5	blank	1.0	203.54215121269226	
44	139.9656810760498	movie	1		301.0	42.0	2.5	blank	1.0	203.55036425590515	2.508342981338501
44	142.4740240573883	fix_post	2		12.0	42.0	2.5	blank	1.0	206.05870723724365	0.1000070571899414
45	142.57403111457825	fix_pre	0		58.0	43.0	2.5	/experiments/knapen_aot/videos/S_yt-EFrazkRaYbs_21.mp4	0.0	206.1587142944336	0.4832630157470703
45	143.0416350364685	response	0	2		43.0	2.5	/experiments/knapen_aot/videos/S_yt-EFrazkRaYbs_21.mp4	0.0	206.62631821632385	
45	143.05729413032532	movie	1		300.0	43.0	2.5	/experiments/knapen_aot/videos/S_yt-EFrazkRaYbs_21.mp4	0.0	206.64197731018066	2.5083189010620117
45	145.56561303138733	fix_post	2		12.0	43.0	2.5	/experiments/knapen_aot/videos/S_yt-EFrazkRaYbs_21.mp4	0.0	209.15029621124268	0.10001897811889648
46	145.66563200950623	fix_pre	0		49.0	44.0	2.5	/experiments/knapen_aot/videos/S_yt-4-u4Fw_J_q8_45.mp4	0.0	209.25031518936157	0.4083399772644043
46	146.06576013565063	response	0	2		44.0	2.5	/experiments/knapen_aot/videos/S_yt-4-u4Fw_J_q8_45.mp4	0.0	209.65044331550598	
46	146.07397198677063	movie	1		301.0	44.0	2.5	/experiments/knapen_aot/videos/S_yt-4-u4Fw_J_q8_45.mp4	0.0	209.65865516662598	2.5082671642303467
46	148.58223915100098	fix_post	2		12.0	44.0	2.5	/experiments/knapen_aot/videos/S_yt-4-u4Fw_J_q8_45.mp4	0.0	212.16692233085632	0.10000801086425781
47	148.68224716186523	fix_pre	0		53.0	45.0	2.5	/experiments/knapen_aot/videos/R_S_comp_A008_C007_011550_CC_v01_SDR_PS_FINAL_20180709_SDR_2K_AVC.mp4	0.0	212.26693034172058	0.44168782234191895
47	149.11576795578003	response	0	2		45.0	2.5	/experiments/knapen_aot/videos/R_S_comp_A008_C007_011550_CC_v01_SDR_PS_FINAL_20180709_SDR_2K_AVC.mp4	0.0	212.70045113563538	
47	149.12393498420715	movie	1		181.0	45.0	2.5	/experiments/knapen_aot/videos/R_S_comp_A008_C007_011550_CC_v01_SDR_PS_FINAL_20180709_SDR_2K_AVC.mp4	0.0	212.7086181640625	2.508289098739624
47	151.63222408294678	fix_post	2		12.0	45.0	2.5	/experiments/knapen_aot/videos/R_S_comp_A008_C007_011550_CC_v01_SDR_PS_FINAL_20180709_SDR_2K_AVC.mp4	0.0	215.21690726280212	0.10001587867736816
48	151.73223996162415	fix_pre	0		57.0	46.0	2.5	/experiments/knapen_aot/videos/R_S_comp_C003_C003_PS_v01_SDR_PS_20180925_SDR_2K_AVC.mp4	0.0	215.3169231414795	0.4749882221221924
48	152.19905710220337	response	0	2		46.0	2.5	/experiments/knapen_aot/videos/R_S_comp_C003_C003_PS_v01_SDR_PS_20180925_SDR_2K_AVC.mp4	0.0	215.78374028205872	
48	152.20722818374634	movie	1		173.0	46.0	2.5	/experiments/knapen_aot/videos/R_S_comp_C003_C003_PS_v01_SDR_PS_20180925_SDR_2K_AVC.mp4	0.0	215.79191136360168	2.5083818435668945
48	154.71561002731323	fix_post	2		12.0	46.0	2.5	/experiments/knapen_aot/videos/R_S_comp_C003_C003_PS_v01_SDR_PS_20180925_SDR_2K_AVC.mp4	0.0	218.30029320716858	0.09997296333312988
49	154.81558299064636	fix_pre	0		62.0	47.0	2.5	blank	1.0	218.4002661705017	0.5167160034179688
49	155.31659603118896	response	0	2		47.0	2.5	blank	1.0	218.9012792110443	
49	155.33229899406433	movie	1		301.0	47.0	2.5	blank	1.0	218.91698217391968	2.508289098739624
49	157.84058809280396	fix_post	2		12.0	47.0	2.5	blank	1.0	221.4252712726593	0.09997105598449707
50	157.94055914878845	fix_pre	0		68.0	48.0	2.5	/experiments/knapen_aot/videos/R_S_b8-3.mp4	0.0	221.5252423286438	0.5666139125823975
50	158.49908804893494	response	0	2		48.0	2.5	/experiments/knapen_aot/videos/R_S_b8-3.mp4	0.0	222.08377122879028	
50	158.50717306137085	movie	1		172.0	48.0	2.5	/experiments/knapen_aot/videos/R_S_b8-3.mp4	0.0	222.0918562412262	2.5083909034729004
50	161.01556396484375	fix_post	2		12.0	48.0	2.5	/experiments/knapen_aot/videos/R_S_b8-3.mp4	0.0	224.6002471446991	0.09996819496154785
51	161.1155321598053	fix_pre	0		66.0	49.0	2.5	/experiments/knapen_aot/videos/R_S_yt-l_pvPAznG1A_20.mp4	0.0	224.70021533966064	0.5499958992004395
51	161.6574101448059	response	0	2		49.0	2.5	/experiments/knapen_aot/videos/R_S_yt-l_pvPAznG1A_20.mp4	0.0	225.24209332466125	
51	161.66552805900574	movie	1		301.0	49.0	2.5	/experiments/knapen_aot/videos/R_S_yt-l_pvPAznG1A_20.mp4	0.0	225.25021123886108	2.508418083190918
51	164.17394614219666	fix_post	2		12.0	49.0	2.5	/experiments/knapen_aot/videos/R_S_yt-l_pvPAznG1A_20.mp4	0.0	227.758629322052	0.10000395774841309
52	164.27395009994507	fix_pre	0		67.0	50.0	2.5	/experiments/knapen_aot/videos/S_ILSVRC2015_train_00371006.mp4	0.0	227.85863327980042	0.5582458972930908
52	164.8240180015564	response	0	2		50.0	2.5	/experiments/knapen_aot/videos/S_ILSVRC2015_train_00371006.mp4	0.0	228.40870118141174	
52	164.83219599723816	movie	1		301.0	50.0	2.5	/experiments/knapen_aot/videos/S_ILSVRC2015_train_00371006.mp4	0.0	228.4168791770935	2.5083460807800293
52	167.3405420780182	fix_post	2		12.0	50.0	2.5	/experiments/knapen_aot/videos/S_ILSVRC2015_train_00371006.mp4	0.0	230.92522525787354	0.10000205039978027
53	167.44054412841797	fix_pre	0		81.0	51.0	2.5	/experiments/knapen_aot/videos/R_S_yt-lCb_efvJcdE_5.mp4	0.0	231.02522730827332	0.6749989986419678
53	168.10735416412354	response	0	2		51.0	2.5	/experiments/knapen_aot/videos/R_S_yt-lCb_efvJcdE_5.mp4	0.0	231.69203734397888	
53	168.11554312705994	movie	1		301.0	51.0	2.5	/experiments/knapen_aot/videos/R_S_yt-lCb_efvJcdE_5.mp4	0.0	231.70022630691528	2.50832200050354
53	170.62386512756348	fix_post	2		12.0	51.0	2.5	/experiments/knapen_aot/videos/R_S_yt-lCb_efvJcdE_5.mp4	0.0	234.20854830741882	0.09995603561401367
54	170.7238211631775	fix_pre	0		72.0	52.0	2.5	/experiments/knapen_aot/videos/R_S_ILSVRC2015_train_00574000.mp4	0.0	234.30850434303284	0.5999689102172852
54	171.31569814682007	response	0	2		52.0	2.5	/experiments/knapen_aot/videos/R_S_ILSVRC2015_train_00574000.mp4	0.0	234.90038132667542	
54	171.32379007339478	movie	1		301.0	52.0	2.5	/experiments/knapen_aot/videos/R_S_ILSVRC2015_train_00574000.mp4	0.0	234.90847325325012	2.5084118843078613
54	173.83220195770264	fix_post	2		12.0	52.0	2.5	/experiments/knapen_aot/videos/R_S_ILSVRC2015_train_00574000.mp4	0.0	237.41688513755798	0.09998321533203125
55	173.93218517303467	fix_pre	0		70.0	53.0	2.5	/experiments/knapen_aot/videos/S_yt-hOtj2y9VWrc_354.mp4	0.0	237.51686835289001	0.5832409858703613
55	174.50736498832703	response	0	2		53.0	2.5	/experiments/knapen_aot/videos/S_yt-hOtj2y9VWrc_354.mp4	0.0	238.09204816818237	
55	174.51542615890503	movie	1		301.0	53.0	2.5	/experiments/knapen_aot/videos/S_yt-hOtj2y9VWrc_354.mp4	0.0	238.10010933876038	2.5083107948303223
55	177.02373695373535	fix_post	2		12.0	53.0	2.5	/experiments/knapen_aot/videos/S_yt-hOtj2y9VWrc_354.mp4	0.0	240.6084201335907	0.10010409355163574
56	177.123841047287	fix_pre	0		92.0	54.0	2.5	/experiments/knapen_aot/videos/R_S_yt-xrPrnzvWUkY_7.mp4	0.0	240.70852422714233	0.7666590213775635
56	177.8823230266571	response	0	2		54.0	2.5	/experiments/knapen_aot/videos/R_S_yt-xrPrnzvWUkY_7.mp4	0.0	241.46700620651245	
56	177.89050006866455	movie	1		301.0	54.0	2.5	/experiments/knapen_aot/videos/R_S_yt-xrPrnzvWUkY_7.mp4	0.0	241.4751832485199	2.508219003677368
56	180.39871907234192	fix_post	2		12.0	54.0	2.5	/experiments/knapen_aot/videos/R_S_yt-xrPrnzvWUkY_7.mp4	0.0	243.98340225219727	0.10006308555603027
57	180.49878215789795	fix_pre	0		80.0	55.0	2.5	/experiments/knapen_aot/videos/R_S_yt-GWgG8PVM1iw_34.mp4	0.0	244.0834653377533	0.6666839122772217
57	181.15732216835022	response	0	2		55.0	2.5	/experiments/knapen_aot/videos/R_S_yt-GWgG8PVM1iw_34.mp4	0.0	244.74200534820557	
57	181.16546607017517	movie	1		301.0	55.0	2.5	/experiments/knapen_aot/videos/R_S_yt-GWgG8PVM1iw_34.mp4	0.0	244.75014925003052	2.508296012878418
57	183.6737620830536	fix_post	2		12.0	55.0	2.5	/experiments/knapen_aot/videos/R_S_yt-GWgG8PVM1iw_34.mp4	0.0	247.25844526290894	0.10005497932434082
58	183.77381706237793	fix_pre	0		105.0	56.0	2.5	blank	1.0	247.35850024223328	0.87493896484375
58	184.64059901237488	response	0	2		56.0	2.5	blank	1.0	248.22528219223022	
58	184.64875602722168	movie	1		301.0	56.0	2.5	blank	1.0	248.23343920707703	2.508347988128662
58	187.15710401535034	fix_post	2		12.0	56.0	2.5	blank	1.0	250.7417871952057	0.10002994537353516
59	187.25713396072388	fix_pre	0		70.0	57.0	2.5	/experiments/knapen_aot/videos/R_S_yt-w_e3sxIzepA_27.mp4	0.0	250.84181714057922	0.5833451747894287
59	187.832190990448	response	0	2		57.0	2.5	/experiments/knapen_aot/videos/R_S_yt-w_e3sxIzepA_27.mp4	0.0	251.41687417030334	
59	187.8404791355133	movie	1		300.0	57.0	2.5	/experiments/knapen_aot/videos/R_S_yt-w_e3sxIzepA_27.mp4	0.0	251.42516231536865	2.5082929134368896
59	190.3487720489502	fix_post	2		12.0	57.0	2.5	/experiments/knapen_aot/videos/R_S_yt-w_e3sxIzepA_27.mp4	0.0	253.93345522880554	0.09999895095825195
60	190.44877099990845	fix_pre	0		65.0	58.0	2.5	/experiments/knapen_aot/videos/S_pexels-koolshooters-7327401.mp4	0.0	254.0334541797638	0.5416450500488281
60	190.98225212097168	response	0	2		58.0	2.5	/experiments/knapen_aot/videos/S_pexels-koolshooters-7327401.mp4	0.0	254.56693530082703	
60	190.99041604995728	movie	1		167.0	58.0	2.5	/experiments/knapen_aot/videos/S_pexels-koolshooters-7327401.mp4	0.0	254.57509922981262	2.5082919597625732
60	193.49870800971985	fix_post	2		12.0	58.0	2.5	/experiments/knapen_aot/videos/S_pexels-koolshooters-7327401.mp4	0.0	257.0833911895752	0.10009098052978516
61	193.59879899024963	fix_pre	0		70.0	59.0	2.5	/experiments/knapen_aot/videos/R_S_comp_CH_C007_C011_PSNK_v02_SDR_PS_FINAL_20180709_SDR_2K_AVC.mp4	0.0	257.183482170105	0.5858860015869141
61	194.1752200126648	response	0	2		59.0	2.5	/experiments/knapen_aot/videos/R_S_comp_CH_C007_C011_PSNK_v02_SDR_PS_FINAL_20180709_SDR_2K_AVC.mp4	0.0	257.75990319252014	
61	194.18468499183655	movie	1		172.0	59.0	2.5	/experiments/knapen_aot/videos/R_S_comp_CH_C007_C011_PSNK_v02_SDR_PS_FINAL_20180709_SDR_2K_AVC.mp4	0.0	257.7693681716919	2.5057811737060547
61	196.6904661655426	fix_post	2		12.0	59.0	2.5	/experiments/knapen_aot/videos/R_S_comp_CH_C007_C011_PSNK_v02_SDR_PS_FINAL_20180709_SDR_2K_AVC.mp4	0.0	260.27514934539795	0.09997987747192383
62	196.79044604301453	fix_pre	0		121.0	60.0	2.5	/experiments/knapen_aot/videos/R_S_yt-QqSceHxY3d0_356.mp4	0.0	260.3751292228699	1.008301019668579
62	197.7905740737915	response	0	2		60.0	2.5	/experiments/knapen_aot/videos/R_S_yt-QqSceHxY3d0_356.mp4	0.0	261.37525725364685	
62	197.7987470626831	movie	1		301.0	60.0	2.5	/experiments/knapen_aot/videos/R_S_yt-QqSceHxY3d0_356.mp4	0.0	261.38343024253845	2.5083279609680176
62	200.30707502365112	fix_post	2		12.0	60.0	2.5	/experiments/knapen_aot/videos/R_S_yt-QqSceHxY3d0_356.mp4	0.0	263.89175820350647	0.10004711151123047
63	200.40712213516235	fix_pre	0		64.0	61.0	2.5	/experiments/knapen_aot/videos/S_yt-NuJbedGLcQY_112.mp4	0.0	263.9918053150177	0.5344159603118896
63	200.93221616744995	response	0	2		61.0	2.5	/experiments/knapen_aot/videos/S_yt-NuJbedGLcQY_112.mp4	0.0	264.5168993473053	
63	200.94153809547424	movie	1		301.0	61.0	2.5	/experiments/knapen_aot/videos/S_yt-NuJbedGLcQY_112.mp4	0.0	264.5262212753296	2.5071940422058105
63	203.44873213768005	fix_post	2		12.0	61.0	2.5	/experiments/knapen_aot/videos/S_yt-NuJbedGLcQY_112.mp4	0.0	267.0334153175354	0.09998798370361328
64	203.54872012138367	fix_pre	0		117.0	62.0	2.5	blank	1.0	267.133403301239	0.9750239849090576
64	204.51549315452576	response	0	2		62.0	2.5	blank	1.0	268.1001763343811	
64	204.52374410629272	movie	1		301.0	62.0	2.5	blank	1.0	268.10842728614807	2.5083608627319336
64	207.03210496902466	fix_post	2		12.0	62.0	2.5	blank	1.0	270.61678814888	0.10002398490905762
65	207.13212895393372	fix_pre	0		82.0	63.0	2.5	/experiments/knapen_aot/videos/R_S_yt-ejSzwn8tY8g_49.mp4	0.0	270.71681213378906	0.6844022274017334
65	207.80727005004883	response	0	2		63.0	2.5	/experiments/knapen_aot/videos/R_S_yt-ejSzwn8tY8g_49.mp4	0.0	271.3919532299042	
65	207.81653118133545	movie	1		299.0	63.0	2.5	/experiments/knapen_aot/videos/R_S_yt-ejSzwn8tY8g_49.mp4	0.0	271.4012143611908	2.5071969032287598
65	210.3237280845642	fix_post	2		12.0	63.0	2.5	/experiments/knapen_aot/videos/R_S_yt-ejSzwn8tY8g_49.mp4	0.0	273.90841126441956	0.10003399848937988
66	210.4237620830536	fix_pre	0		95.0	64.0	2.5	/experiments/knapen_aot/videos/S_comp_A083_C002_1130KZ_v04_SDR_PS_FINAL_20180725_SDR_2K_AVC.mp4	0.0	274.00844526290894	0.7916228771209717
66	211.20724606513977	response	0	2		64.0	2.5	/experiments/knapen_aot/videos/S_comp_A083_C002_1130KZ_v04_SDR_PS_FINAL_20180725_SDR_2K_AVC.mp4	0.0	274.7919292449951	
66	211.21538496017456	movie	1		169.0	64.0	2.5	/experiments/knapen_aot/videos/S_comp_A083_C002_1130KZ_v04_SDR_PS_FINAL_20180725_SDR_2K_AVC.mp4	0.0	274.8000681400299	2.508316993713379
66	213.72370195388794	fix_post	2		12.0	64.0	2.5	/experiments/knapen_aot/videos/S_comp_A083_C002_1130KZ_v04_SDR_PS_FINAL_20180725_SDR_2K_AVC.mp4	0.0	277.3083851337433	0.09995412826538086
67	213.82365608215332	fix_pre	0		104.0	65.0	2.5	/experiments/knapen_aot/videos/R_S_Pexels_Videos_2791797.mp4	0.0	277.40833926200867	0.867779016494751
67	214.68220400810242	response	0	2		65.0	2.5	/experiments/knapen_aot/videos/R_S_Pexels_Videos_2791797.mp4	0.0	278.26688718795776	
67	214.69143509864807	movie	1		170.0	65.0	2.5	/experiments/knapen_aot/videos/R_S_Pexels_Videos_2791797.mp4	0.0	278.2761182785034	2.5072579383850098
67	217.19869303703308	fix_post	2		12.0	65.0	2.5	/experiments/knapen_aot/videos/R_S_Pexels_Videos_2791797.mp4	0.0	280.7833762168884	0.1000220775604248
68	217.2987151145935	fix_pre	0		67.0	66.0	2.5	/experiments/knapen_aot/videos/R_S_ILSVRC2015_train_00524006.mp4	0.0	280.88339829444885	0.5593910217285156
68	217.84880995750427	response	0	2		66.0	2.5	/experiments/knapen_aot/videos/R_S_ILSVRC2015_train_00524006.mp4	0.0	281.4334931373596	
68	217.85810613632202	movie	1		301.0	66.0	2.5	/experiments/knapen_aot/videos/R_S_ILSVRC2015_train_00524006.mp4	0.0	281.44278931617737	2.5071799755096436
68	220.36528611183167	fix_post	2		12.0	66.0	2.5	/experiments/knapen_aot/videos/R_S_ILSVRC2015_train_00524006.mp4	0.0	283.949969291687	0.10004091262817383
69	220.46532702445984	fix_pre	0		96.0	67.0	2.5	/experiments/knapen_aot/videos/S_ILSVRC2015_train_00384000.mp4	0.0	284.0500102043152	0.80000901222229
69	221.25713515281677	response	0	2		67.0	2.5	/experiments/knapen_aot/videos/S_ILSVRC2015_train_00384000.mp4	0.0	284.8418183326721	
69	221.26533603668213	movie	1		301.0	67.0	2.5	/experiments/knapen_aot/videos/S_ILSVRC2015_train_00384000.mp4	0.0	284.8500192165375	2.508341073989868
69	223.773677110672	fix_post	2		12.0	67.0	2.5	/experiments/knapen_aot/videos/S_ILSVRC2015_train_00384000.mp4	0.0	287.35836029052734	0.09998202323913574
70	223.87365913391113	fix_pre	0		88.0	68.0	2.5	/experiments/knapen_aot/videos/S_yt-roThCERxVCs_133.mp4	0.0	287.4583423137665	0.7343249320983887
70	224.598806142807	response	0	2		68.0	2.5	/experiments/knapen_aot/videos/S_yt-roThCERxVCs_133.mp4	0.0	288.18348932266235	
70	224.60798406600952	movie	1		301.0	68.0	2.5	/experiments/knapen_aot/videos/S_yt-roThCERxVCs_133.mp4	0.0	288.19266724586487	2.5073370933532715
70	224.78212308883667	response	1	2		68.0	2.5	/experiments/knapen_aot/videos/S_yt-roThCERxVCs_133.mp4	0.0	288.366806268692	
70	227.1153211593628	fix_post	2		12.0	68.0	2.5	/experiments/knapen_aot/videos/S_yt-roThCERxVCs_133.mp4	0.0	290.70000433921814	0.0999748706817627
71	227.21529603004456	fix_pre	0		91.0	69.0	2.5	/experiments/knapen_aot/videos/R_S_ILSVRC2015_train_00185002.mp4	0.0	290.7999792098999	0.7582969665527344
71	227.96543407440186	response	0	2		69.0	2.5	/experiments/knapen_aot/videos/R_S_ILSVRC2015_train_00185002.mp4	0.0	291.5501172542572	
71	227.9735929965973	movie	1		301.0	69.0	2.5	/experiments/knapen_aot/videos/R_S_ILSVRC2015_train_00185002.mp4	0.0	291.55827617645264	2.5083470344543457
71	230.48194003105164	fix_post	2		12.0	69.0	2.5	/experiments/knapen_aot/videos/R_S_ILSVRC2015_train_00185002.mp4	0.0	294.066623210907	0.09992504119873047
72	230.58186507225037	fix_pre	0		68.0	70.0	2.5	blank	1.0	294.1665482521057	0.5677690505981445
72	231.14042901992798	response	0	2		70.0	2.5	blank	1.0	294.7251121997833	
72	231.1496341228485	movie	1		301.0	70.0	2.5	blank	1.0	294.73431730270386	2.5072619915008545
72	233.65689611434937	fix_post	2		12.0	70.0	2.5	blank	1.0	297.2415792942047	0.10001707077026367
73	233.75691318511963	fix_pre	0		72.0	71.0	2.5	/experiments/knapen_aot/videos/R_S_yt-_HuBzj8EPBc_62.mp4	0.0	297.341596364975	0.6009798049926758
73	234.3487629890442	response	0	2		71.0	2.5	/experiments/knapen_aot/videos/R_S_yt-_HuBzj8EPBc_62.mp4	0.0	297.93344616889954	
73	234.3578929901123	movie	1		298.0	71.0	2.5	/experiments/knapen_aot/videos/R_S_yt-_HuBzj8EPBc_62.mp4	0.0	297.94257616996765	2.5073750019073486
73	236.86526799201965	fix_post	2		12.0	71.0	2.5	/experiments/knapen_aot/videos/R_S_yt-_HuBzj8EPBc_62.mp4	0.0	300.449951171875	0.10003018379211426
74	236.96529817581177	fix_pre	0		65.0	72.0	2.5	/experiments/knapen_aot/videos/R_S_pexels-koolshooters-7327412.mp4	0.0	300.5499813556671	0.5415987968444824
74	237.49873399734497	response	0	2		72.0	2.5	/experiments/knapen_aot/videos/R_S_pexels-koolshooters-7327412.mp4	0.0	301.0834171772003	
74	237.50689697265625	movie	1		165.0	72.0	2.5	/experiments/knapen_aot/videos/R_S_pexels-koolshooters-7327412.mp4	0.0	301.0915801525116	2.5083680152893066
74	240.01526498794556	fix_post	2		12.0	72.0	2.5	/experiments/knapen_aot/videos/R_S_pexels-koolshooters-7327412.mp4	0.0	303.5999481678009	0.09994196891784668
75	240.1152069568634	fix_pre	0		80.0	73.0	2.5	/experiments/knapen_aot/videos/R_S_yt-RKo978aBdzw_173.mp4	0.0	303.69989013671875	0.6666531562805176
75	240.77368116378784	response	0	2		73.0	2.5	/experiments/knapen_aot/videos/R_S_yt-RKo978aBdzw_173.mp4	0.0	304.3583643436432	
75	240.78186011314392	movie	1		301.0	73.0	2.5	/experiments/knapen_aot/videos/R_S_yt-RKo978aBdzw_173.mp4	0.0	304.36654329299927	2.5084228515625
75	243.29028296470642	fix_post	2		12.0	73.0	2.5	/experiments/knapen_aot/videos/R_S_yt-RKo978aBdzw_173.mp4	0.0	306.87496614456177	0.0999760627746582
76	243.39025902748108	fix_pre	0		77.0	74.0	2.5	/experiments/knapen_aot/videos/S_yt-074ygGXNoQ8_64.mp4	0.0	306.9749422073364	0.6416490077972412
76	244.0237259864807	response	0	2		74.0	2.5	/experiments/knapen_aot/videos/S_yt-074ygGXNoQ8_64.mp4	0.0	307.60840916633606	
76	244.03190803527832	movie	1		301.0	74.0	2.5	/experiments/knapen_aot/videos/S_yt-074ygGXNoQ8_64.mp4	0.0	307.61659121513367	2.5083351135253906
76	246.5402431488037	fix_post	2		12.0	74.0	2.5	/experiments/knapen_aot/videos/S_yt-074ygGXNoQ8_64.mp4	0.0	310.12492632865906	0.09986996650695801
77	246.64011311531067	fix_pre	0		74.0	75.0	2.5	/experiments/knapen_aot/videos/S_yt-8LO59eN9om4_16.mp4	0.0	310.224796295166	0.6167669296264648
77	247.24870705604553	response	0	2		75.0	2.5	/experiments/knapen_aot/videos/S_yt-8LO59eN9om4_16.mp4	0.0	310.8333902359009	
77	247.25688004493713	movie	1		301.0	75.0	2.5	/experiments/knapen_aot/videos/S_yt-8LO59eN9om4_16.mp4	0.0	310.8415632247925	2.5083329677581787
77	249.7652130126953	fix_post	2		12.0	75.0	2.5	/experiments/knapen_aot/videos/S_yt-8LO59eN9om4_16.mp4	0.0	313.34989619255066	0.09996795654296875
78	249.86518096923828	fix_pre	0		83.0	76.0	2.5	blank	1.0	313.4498641490936	0.7009410858154297
78	250.55703401565552	response	0	2		76.0	2.5	blank	1.0	314.14171719551086	
78	250.5661220550537	movie	1		301.0	76.0	2.5	blank	1.0	314.15080523490906	2.5073299407958984
78	253.0734519958496	fix_post	2		12.0	76.0	2.5	blank	1.0	316.65813517570496	0.10004901885986328
79	253.17350101470947	fix_pre	0		72.0	77.0	2.5	/experiments/knapen_aot/videos/S_wc-PqINyFk_ku4u_18.mp4	0.0	316.7581841945648	0.6008820533752441
79	253.76536417007446	response	0	2		77.0	2.5	/experiments/knapen_aot/videos/S_wc-PqINyFk_ku4u_18.mp4	0.0	317.3500473499298	
79	253.77438306808472	movie	1		162.0	77.0	2.5	/experiments/knapen_aot/videos/S_wc-PqINyFk_ku4u_18.mp4	0.0	317.35906624794006	2.5073659420013428
79	256.28174901008606	fix_post	2		12.0	77.0	2.5	/experiments/knapen_aot/videos/S_wc-PqINyFk_ku4u_18.mp4	0.0	319.8664321899414	0.10005617141723633
80	256.3818051815033	fix_pre	0		97.0	78.0	2.5	/experiments/knapen_aot/videos/S_pexels-cottonbro-5310858.mp4	0.0	319.96648836135864	0.8092269897460938
80	257.18193316459656	response	0	2		78.0	2.5	/experiments/knapen_aot/videos/S_pexels-cottonbro-5310858.mp4	0.0	320.7666163444519	
80	257.1910321712494	movie	1		165.0	78.0	2.5	/experiments/knapen_aot/videos/S_pexels-cottonbro-5310858.mp4	0.0	320.77571535110474	2.5075089931488037
80	259.6985411643982	fix_post	2		12.0	78.0	2.5	/experiments/knapen_aot/videos/S_pexels-cottonbro-5310858.mp4	0.0	323.28322434425354	0.09998488426208496
81	259.7985260486603	fix_pre	0		70.0	79.0	2.5	/experiments/knapen_aot/videos/S_yt--wYgjXsc1XQ_106.mp4	0.0	323.3832092285156	0.5846679210662842
81	260.37363505363464	response	0	2		79.0	2.5	/experiments/knapen_aot/videos/S_yt--wYgjXsc1XQ_106.mp4	0.0	323.95831823349	
81	260.38319396972656	movie	1		301.0	79.0	2.5	/experiments/knapen_aot/videos/S_yt--wYgjXsc1XQ_106.mp4	0.0	323.9678771495819	2.506965160369873
81	262.89015913009644	fix_post	2		12.0	79.0	2.5	/experiments/knapen_aot/videos/S_yt--wYgjXsc1XQ_106.mp4	0.0	326.4748423099518	0.09996294975280762
82	262.99012207984924	fix_pre	0		57.0	80.0	2.5	/experiments/knapen_aot/videos/R_S_ILSVRC2015_train_00219003.mp4	0.0	326.5748052597046	0.4750020503997803
82	263.456983089447	response	0	2		80.0	2.5	/experiments/knapen_aot/videos/R_S_ILSVRC2015_train_00219003.mp4	0.0	327.04166626930237	
82	263.465124130249	movie	1		301.0	80.0	2.5	/experiments/knapen_aot/videos/R_S_ILSVRC2015_train_00219003.mp4	0.0	327.04980731010437	2.5083320140838623
82	265.9734561443329	fix_post	2		12.0	80.0	2.5	/experiments/knapen_aot/videos/R_S_ILSVRC2015_train_00219003.mp4	0.0	329.55813932418823	0.10005402565002441
83	266.0735101699829	fix_pre	0		71.0	81.0	2.5	/experiments/knapen_aot/videos/S_pexels-vlada-karpovich-8044792.mp4	0.0	329.65819334983826	0.591609001159668
83	266.6569080352783	response	0	2		81.0	2.5	/experiments/knapen_aot/videos/S_pexels-vlada-karpovich-8044792.mp4	0.0	330.24159121513367	
83	266.6651191711426	movie	1		176.0	81.0	2.5	/experiments/knapen_aot/videos/S_pexels-vlada-karpovich-8044792.mp4	0.0	330.2498023509979	2.508328914642334
83	269.1734480857849	fix_post	2		12.0	81.0	2.5	/experiments/knapen_aot/videos/S_pexels-vlada-karpovich-8044792.mp4	0.0	332.75813126564026	0.10002803802490234
84	269.2734761238098	fix_pre	0		102.0	82.0	2.5	blank	1.0	332.85815930366516	0.8499040603637695
84	270.1152901649475	response	0	2		82.0	2.5	blank	1.0	333.69997334480286	
84	270.1233801841736	movie	1		301.0	82.0	2.5	blank	1.0	333.70806336402893	2.5083677768707275
84	272.6317479610443	fix_post	2		12.0	82.0	2.5	blank	1.0	336.21643114089966	0.10002303123474121
85	272.73177099227905	fix_pre	0		86.0	83.0	2.5	/experiments/knapen_aot/videos/S_wc-_W9iefBXz8bi_23.mp4	0.0	336.3164541721344	0.716663122177124
85	273.440181016922	response	0	2		83.0	2.5	/experiments/knapen_aot/videos/S_wc-_W9iefBXz8bi_23.mp4	0.0	337.02486419677734	
85	273.4484341144562	movie	1		179.0	83.0	2.5	/experiments/knapen_aot/videos/S_wc-_W9iefBXz8bi_23.mp4	0.0	337.0331172943115	2.5083858966827393
85	275.9568200111389	fix_post	2		12.0	83.0	2.5	/experiments/knapen_aot/videos/S_wc-_W9iefBXz8bi_23.mp4	0.0	339.54150319099426	0.09992218017578125
87	276.0567421913147	stim	0		159.0					339.64142537117004	1.3285877704620361
87	277.378741979599	response	0	space						340.96342515945435	
