trial_nr	onset	event_type	phase	response	nr_frames	movie_index	movie_duration	movie_file	blank	onset_abs	duration
0	0.12491798400878906	stim	0		31.0					56.65933108329773	0.25699806213378906
0	0.37125205993652344	response	0	space						56.905665159225464	
1	0.3819160461425781	stim	0		121.0					56.91632914543152	1.005829095840454
1	0.7046170234680176	response	0	space						57.23903012275696	
1	1.0377609729766846	response	0	space						57.572174072265625	
1	1.237766981124878	response	0	space						57.77218008041382	
1	1.3877451419830322	stim	1		120.0					57.92215824127197	0.9996600151062012
1	1.4878950119018555	response	1	space						58.022308111190796	
1	2.09067702293396	response	1	4						58.6250901222229	
1	2.125671148300171	response	1	space						58.66008424758911	
1	2.346050977706909	response	1	space						58.88046407699585	
2	2.3874051570892334	fix_pre	0		43.0	0.0	2.5	/experiments/knapen_aot/videos/S_production_ID_5020953.mp4	0.0	58.921818256378174	0.35828685760498047
2	2.7299721240997314	response	0	space		0.0	2.5	/experiments/knapen_aot/videos/S_production_ID_5020953.mp4	0.0	59.26438522338867	
2	2.745692014694214	movie	1		204.0	0.0	2.5	/experiments/knapen_aot/videos/S_production_ID_5020953.mp4	0.0	59.280105113983154	2.508376121520996
2	5.25406813621521	fix_post	2		12.0	0.0	2.5	/experiments/knapen_aot/videos/S_production_ID_5020953.mp4	0.0	61.78848123550415	0.09994697570800781
3	5.354015111923218	fix_pre	0		65.0	1.0	2.5	/experiments/knapen_aot/videos/S_yt-VjTiMtjdjTw_103.mp4	0.0	61.88842821121216	0.5416998863220215
3	5.884636163711548	response	0	4		1.0	2.5	/experiments/knapen_aot/videos/S_yt-VjTiMtjdjTw_103.mp4	0.0	62.41904926300049	
3	5.895714998245239	movie	1		301.0	1.0	2.5	/experiments/knapen_aot/videos/S_yt-VjTiMtjdjTw_103.mp4	0.0	62.43012809753418	2.5083370208740234
3	8.404052019119263	fix_post	2		12.0	1.0	2.5	/experiments/knapen_aot/videos/S_yt-VjTiMtjdjTw_103.mp4	0.0	64.9384651184082	0.09997797012329102
4	8.504029989242554	fix_pre	0		91.0	2.0	2.5	/experiments/knapen_aot/videos/R_S_ILSVRC2015_train_00524001.mp4	0.0	65.0384430885315	0.7594151496887207
4	9.254225969314575	response	0	4		2.0	2.5	/experiments/knapen_aot/videos/R_S_ILSVRC2015_train_00524001.mp4	0.0	65.78863906860352	
4	9.263445138931274	movie	1		301.0	2.0	2.5	/experiments/knapen_aot/videos/R_S_ILSVRC2015_train_00524001.mp4	0.0	65.79785823822021	2.507267951965332
4	11.687467098236084	response	1	4		2.0	2.5	/experiments/knapen_aot/videos/R_S_ILSVRC2015_train_00524001.mp4	0.0	68.22188019752502	
4	11.770713090896606	fix_post	2		12.0	2.0	2.5	/experiments/knapen_aot/videos/R_S_ILSVRC2015_train_00524001.mp4	0.0	68.30512619018555	0.09998798370361328
5	11.87070107460022	fix_pre	0		32.0	3.0	2.5	/experiments/knapen_aot/videos/R_S_yt-Rybd-sKJFz0_78.mp4	0.0	68.40511417388916	0.2677419185638428
5	12.129089117050171	response	0	4		3.0	2.5	/experiments/knapen_aot/videos/R_S_yt-Rybd-sKJFz0_78.mp4	0.0	68.66350221633911	
5	12.138442993164062	movie	1		301.0	3.0	2.5	/experiments/knapen_aot/videos/R_S_yt-Rybd-sKJFz0_78.mp4	0.0	68.672856092453	2.507258176803589
5	14.645701169967651	fix_post	2		12.0	3.0	2.5	/experiments/knapen_aot/videos/R_S_yt-Rybd-sKJFz0_78.mp4	0.0	71.18011426925659	0.10004782676696777
6	14.74574899673462	fix_pre	0		108.0	4.0	2.5	/experiments/knapen_aot/videos/R_S_yt-XBAU3cq0rZs_150.mp4	0.0	71.28016209602356	0.8998620510101318
6	15.637479066848755	response	0	4		4.0	2.5	/experiments/knapen_aot/videos/R_S_yt-XBAU3cq0rZs_150.mp4	0.0	72.1718921661377	
6	15.645611047744751	movie	1		301.0	4.0	2.5	/experiments/knapen_aot/videos/R_S_yt-XBAU3cq0rZs_150.mp4	0.0	72.18002414703369	2.5083611011505127
6	18.153972148895264	fix_post	2		12.0	4.0	2.5	/experiments/knapen_aot/videos/R_S_yt-XBAU3cq0rZs_150.mp4	0.0	74.6883852481842	0.09993481636047363
7	18.253906965255737	fix_pre	0		40.0	5.0	2.5	/experiments/knapen_aot/videos/S_yt-4r-oovk9JWg_85.mp4	0.0	74.78832006454468	0.3333911895751953
7	18.579163074493408	response	0	4		5.0	2.5	/experiments/knapen_aot/videos/S_yt-4r-oovk9JWg_85.mp4	0.0	75.11357617378235	
7	18.587298154830933	movie	1		301.0	5.0	2.5	/experiments/knapen_aot/videos/S_yt-4r-oovk9JWg_85.mp4	0.0	75.12171125411987	2.508380889892578
7	21.09567904472351	fix_post	2		12.0	5.0	2.5	/experiments/knapen_aot/videos/S_yt-4r-oovk9JWg_85.mp4	0.0	77.63009214401245	0.0999901294708252
8	21.195669174194336	fix_pre	0		36.0	6.0	2.5	/experiments/knapen_aot/videos/S_yt-LdHRVIb4nIE_6.mp4	0.0	77.73008227348328	0.2999229431152344
8	21.487504959106445	response	0	4		6.0	2.5	/experiments/knapen_aot/videos/S_yt-LdHRVIb4nIE_6.mp4	0.0	78.02191805839539	
8	21.49559211730957	movie	1		301.0	6.0	2.5	/experiments/knapen_aot/videos/S_yt-LdHRVIb4nIE_6.mp4	0.0	78.03000521659851	2.508286952972412
8	23.57907795906067	response	1	4		6.0	2.5	/experiments/knapen_aot/videos/S_yt-LdHRVIb4nIE_6.mp4	0.0	80.11349105834961	
8	24.003879070281982	fix_post	2		12.0	6.0	2.5	/experiments/knapen_aot/videos/S_yt-LdHRVIb4nIE_6.mp4	0.0	80.53829216957092	0.10008907318115234
9	24.103968143463135	fix_pre	0		28.0	7.0	2.5	blank	1.0	80.63838124275208	0.23335695266723633
9	24.32912516593933	response	0	4		7.0	2.5	blank	1.0	80.86353826522827	
9	24.33732509613037	movie	1		301.0	7.0	2.5	blank	1.0	80.87173819541931	2.508188009262085
9	26.845513105392456	fix_post	2		12.0	7.0	2.5	blank	1.0	83.3799262046814	0.10009503364562988
10	26.945608139038086	fix_pre	0		39.0	8.0	2.5	/experiments/knapen_aot/videos/S_yt-l_ioasf6yHg_44.mp4	0.0	83.48002123832703	0.3249988555908203
10	27.26243019104004	response	0	4		8.0	2.5	/experiments/knapen_aot/videos/S_yt-l_ioasf6yHg_44.mp4	0.0	83.79684329032898	
10	27.270606994628906	movie	1		297.0	8.0	2.5	/experiments/knapen_aot/videos/S_yt-l_ioasf6yHg_44.mp4	0.0	83.80502009391785	2.5083961486816406
10	29.779003143310547	fix_post	2		12.0	8.0	2.5	/experiments/knapen_aot/videos/S_yt-l_ioasf6yHg_44.mp4	0.0	86.31341624259949	0.09997892379760742
11	29.878982067108154	fix_pre	0		48.0	9.0	2.5	/experiments/knapen_aot/videos/S_yt-YCjbGOPBQHw_131.mp4	0.0	86.4133951663971	0.39997005462646484
11	30.270747184753418	response	0	4		9.0	2.5	/experiments/knapen_aot/videos/S_yt-YCjbGOPBQHw_131.mp4	0.0	86.80516028404236	
11	30.27895212173462	movie	1		301.0	9.0	2.5	/experiments/knapen_aot/videos/S_yt-YCjbGOPBQHw_131.mp4	0.0	86.81336522102356	2.508265972137451
11	32.78721809387207	fix_post	2		12.0	9.0	2.5	/experiments/knapen_aot/videos/S_yt-YCjbGOPBQHw_131.mp4	0.0	89.32163119316101	0.10002589225769043
12	32.88724398612976	fix_pre	0		34.0	10.0	2.5	/experiments/knapen_aot/videos/R_S_comp_N003_C006_PS_v01_SDR_PS_20180925_SDR_2K_AVC.mp4	0.0	89.4216570854187	0.28330302238464355
12	33.162338972091675	response	0	4		10.0	2.5	/experiments/knapen_aot/videos/R_S_comp_N003_C006_PS_v01_SDR_PS_20180925_SDR_2K_AVC.mp4	0.0	89.69675207138062	
12	33.170547008514404	movie	1		168.0	10.0	2.5	/experiments/knapen_aot/videos/R_S_comp_N003_C006_PS_v01_SDR_PS_20180925_SDR_2K_AVC.mp4	0.0	89.70496010780334	2.5083041191101074
12	35.603984117507935	response	1	4		10.0	2.5	/experiments/knapen_aot/videos/R_S_comp_N003_C006_PS_v01_SDR_PS_20180925_SDR_2K_AVC.mp4	0.0	92.13839721679688	
12	35.67885112762451	fix_post	2		12.0	10.0	2.5	/experiments/knapen_aot/videos/R_S_comp_N003_C006_PS_v01_SDR_PS_20180925_SDR_2K_AVC.mp4	0.0	92.21326422691345	0.1000509262084961
13	35.77890205383301	fix_pre	0		39.0	11.0	2.5	/experiments/knapen_aot/videos/R_S_yt-etF_WUW5D68_3.mp4	0.0	92.31331515312195	0.3249630928039551
13	36.088112115859985	response	0	4		11.0	2.5	/experiments/knapen_aot/videos/R_S_yt-etF_WUW5D68_3.mp4	0.0	92.62252521514893	
13	36.10386514663696	movie	1		301.0	11.0	2.5	/experiments/knapen_aot/videos/R_S_yt-etF_WUW5D68_3.mp4	0.0	92.6382782459259	2.5083320140838623
13	38.612197160720825	fix_post	2		12.0	11.0	2.5	/experiments/knapen_aot/videos/R_S_yt-etF_WUW5D68_3.mp4	0.0	95.14661026000977	0.1000208854675293
14	38.712218046188354	fix_pre	0		10.0	12.0	2.5	/experiments/knapen_aot/videos/S_comp_HK_H004_C001_PSNK_DENOISE_v14_SDR_PS_FINAL_20180731_SDR_2K_AVC.mp4	0.0	95.2466311454773	0.08339405059814453
14	38.78755497932434	response	0	4		12.0	2.5	/experiments/knapen_aot/videos/S_comp_HK_H004_C001_PSNK_DENOISE_v14_SDR_PS_FINAL_20180731_SDR_2K_AVC.mp4	0.0	95.32196807861328	
14	38.7956120967865	movie	1		168.0	12.0	2.5	/experiments/knapen_aot/videos/S_comp_HK_H004_C001_PSNK_DENOISE_v14_SDR_PS_FINAL_20180731_SDR_2K_AVC.mp4	0.0	95.33002519607544	2.5082499980926514
14	41.30386209487915	fix_post	2		12.0	12.0	2.5	/experiments/knapen_aot/videos/S_comp_HK_H004_C001_PSNK_DENOISE_v14_SDR_PS_FINAL_20180731_SDR_2K_AVC.mp4	0.0	97.83827519416809	0.10006189346313477
15	41.403923988342285	fix_pre	0		30.0	13.0	2.5	/experiments/knapen_aot/videos/S_ILnEDG_aP1A_35.mp4	0.0	97.93833708763123	0.2499830722808838
15	41.6456561088562	response	0	4		13.0	2.5	/experiments/knapen_aot/videos/S_ILnEDG_aP1A_35.mp4	0.0	98.18006920814514	
15	41.65390706062317	movie	1		301.0	13.0	2.5	/experiments/knapen_aot/videos/S_ILnEDG_aP1A_35.mp4	0.0	98.18832015991211	2.5083529949188232
15	44.16226005554199	fix_post	2		12.0	13.0	2.5	/experiments/knapen_aot/videos/S_ILnEDG_aP1A_35.mp4	0.0	100.69667315483093	0.09989094734191895
16	44.26215100288391	fix_pre	0		212.0	14.0	2.5	blank	1.0	100.79656410217285	1.7666511535644531
16	46.02066707611084	response	0	4		14.0	2.5	blank	1.0	102.55508017539978	
16	46.028802156448364	movie	1		301.0	14.0	2.5	blank	1.0	102.5632152557373	2.508419990539551
16	48.41223096847534	response	1	4		14.0	2.5	blank	1.0	104.94664406776428	
16	48.537222146987915	fix_post	2		12.0	14.0	2.5	blank	1.0	105.07163524627686	0.10001587867736816
17	48.63723802566528	fix_pre	0		34.0	15.0	2.5	/experiments/knapen_aot/videos/R_S_yt-Ozx_f0a0ZDI_32.mp4	0.0	105.17165112495422	0.2832169532775879
17	48.91230010986328	response	0	4		15.0	2.5	/experiments/knapen_aot/videos/R_S_yt-Ozx_f0a0ZDI_32.mp4	0.0	105.44671320915222	
17	48.92045497894287	movie	1		301.0	15.0	2.5	/experiments/knapen_aot/videos/R_S_yt-Ozx_f0a0ZDI_32.mp4	0.0	105.45486807823181	2.50835919380188
17	51.42881417274475	fix_post	2		12.0	15.0	2.5	/experiments/knapen_aot/videos/R_S_yt-Ozx_f0a0ZDI_32.mp4	0.0	107.96322727203369	0.10003280639648438
18	51.528846979141235	fix_pre	0		4.0	16.0	2.5	/experiments/knapen_aot/videos/S_yt-pPIHiIYSjW8_653.mp4	0.0	108.06326007843018	0.03343820571899414
18	51.54660511016846	response	0	4		16.0	2.5	/experiments/knapen_aot/videos/S_yt-pPIHiIYSjW8_653.mp4	0.0	108.0810182094574	
18	51.56228518486023	movie	1		301.0	16.0	2.5	/experiments/knapen_aot/videos/S_yt-pPIHiIYSjW8_653.mp4	0.0	108.09669828414917	2.508220911026001
18	54.07050609588623	fix_post	2		12.0	16.0	2.5	/experiments/knapen_aot/videos/S_yt-pPIHiIYSjW8_653.mp4	0.0	110.60491919517517	0.09994006156921387
19	54.170446157455444	fix_pre	0		5.0	17.0	2.5	/experiments/knapen_aot/videos/S_yt-9EnchawJ3pA_90.mp4	0.0	110.70485925674438	0.04410099983215332
19	54.20433497428894	response	0	4		17.0	2.5	/experiments/knapen_aot/videos/S_yt-9EnchawJ3pA_90.mp4	0.0	110.73874807357788	
19	54.2145471572876	movie	1		301.0	17.0	2.5	/experiments/knapen_aot/videos/S_yt-9EnchawJ3pA_90.mp4	0.0	110.74896025657654	2.5059728622436523
19	56.72052001953125	fix_post	2		12.0	17.0	2.5	/experiments/knapen_aot/videos/S_yt-9EnchawJ3pA_90.mp4	0.0	113.25493311882019	0.09997415542602539
20	56.820494174957275	fix_pre	0		63.0	18.0	2.5	/experiments/knapen_aot/videos/R_S_yt-dQRqGgpS9mE_288.mp4	0.0	113.35490727424622	0.5258798599243164
20	57.337242126464844	response	0	4		18.0	2.5	/experiments/knapen_aot/videos/R_S_yt-dQRqGgpS9mE_288.mp4	0.0	113.87165522575378	
20	57.34637403488159	movie	1		301.0	18.0	2.5	/experiments/knapen_aot/videos/R_S_yt-dQRqGgpS9mE_288.mp4	0.0	113.88078713417053	2.5074470043182373
20	59.85382103919983	fix_post	2		12.0	18.0	2.5	/experiments/knapen_aot/videos/R_S_yt-dQRqGgpS9mE_288.mp4	0.0	116.38823413848877	0.09997797012329102
21	59.95379900932312	fix_pre	0		34.0	19.0	2.5	/experiments/knapen_aot/videos/R_S_production_ID_4873122.mp4	0.0	116.48821210861206	0.28328704833984375
21	60.22893714904785	response	0	4		19.0	2.5	/experiments/knapen_aot/videos/R_S_production_ID_4873122.mp4	0.0	116.76335024833679	
21	60.237086057662964	movie	1		166.0	19.0	2.5	/experiments/knapen_aot/videos/R_S_production_ID_4873122.mp4	0.0	116.7714991569519	2.5082781314849854
21	62.74536418914795	fix_post	2		12.0	19.0	2.5	/experiments/knapen_aot/videos/R_S_production_ID_4873122.mp4	0.0	119.27977728843689	0.10009479522705078
22	62.845458984375	fix_pre	0		6.0	20.0	2.5	blank	1.0	119.37987208366394	0.04997515678405762
22	62.88726806640625	response	0	4		20.0	2.5	blank	1.0	119.42168116569519	
22	62.89543414115906	movie	1		301.0	20.0	2.5	blank	1.0	119.429847240448	2.5083930492401123
22	65.40382719039917	fix_post	2		12.0	20.0	2.5	blank	1.0	121.93824028968811	0.10003995895385742
23	65.50386714935303	fix_pre	0		33.0	21.0	2.5	/experiments/knapen_aot/videos/S_yt-VTNBCfQxnsk_59.mp4	0.0	122.03828024864197	0.2748558521270752
23	65.77058506011963	response	0	4		21.0	2.5	/experiments/knapen_aot/videos/S_yt-VTNBCfQxnsk_59.mp4	0.0	122.30499815940857	
23	65.7787230014801	movie	1		301.0	21.0	2.5	/experiments/knapen_aot/videos/S_yt-VTNBCfQxnsk_59.mp4	0.0	122.31313610076904	2.508368968963623
23	68.28709197044373	fix_post	2		12.0	21.0	2.5	/experiments/knapen_aot/videos/S_yt-VTNBCfQxnsk_59.mp4	0.0	124.82150506973267	0.09994220733642578
24	68.38703417778015	fix_pre	0		17.0	22.0	2.5	/experiments/knapen_aot/videos/R_S_yt-VjTiMtjdjTw_103.mp4	0.0	124.92144727706909	0.1416919231414795
24	68.51305317878723	response	0	4		22.0	2.5	/experiments/knapen_aot/videos/R_S_yt-VjTiMtjdjTw_103.mp4	0.0	125.04746627807617	
24	68.52872610092163	movie	1		299.0	22.0	2.5	/experiments/knapen_aot/videos/R_S_yt-VjTiMtjdjTw_103.mp4	0.0	125.06313920021057	2.508358955383301
24	71.03708505630493	fix_post	2		12.0	22.0	2.5	/experiments/knapen_aot/videos/R_S_yt-VjTiMtjdjTw_103.mp4	0.0	127.57149815559387	0.10001397132873535
25	71.13709902763367	fix_pre	0		42.0	23.0	2.5	/experiments/knapen_aot/videos/R_S_yt-VTNBCfQxnsk_59.mp4	0.0	127.67151212692261	0.3499259948730469
25	71.47876715660095	response	0	4		23.0	2.5	/experiments/knapen_aot/videos/R_S_yt-VTNBCfQxnsk_59.mp4	0.0	128.0131802558899	
25	71.48702502250671	movie	1		301.0	23.0	2.5	/experiments/knapen_aot/videos/R_S_yt-VTNBCfQxnsk_59.mp4	0.0	128.02143812179565	2.5083119869232178
25	73.99533700942993	fix_post	2		12.0	23.0	2.5	/experiments/knapen_aot/videos/R_S_yt-VTNBCfQxnsk_59.mp4	0.0	130.52975010871887	0.10006594657897949
26	74.09540295600891	fix_pre	0		33.0	24.0	2.5	/experiments/knapen_aot/videos/R_S_comp_LW_L001_C003__PSNK_DENOISE_v04_SDR_PS_FINAL_20180803_SDR_2K_AVC.mp4	0.0	130.62981605529785	0.2749612331390381
26	74.3622190952301	response	0	4		24.0	2.5	/experiments/knapen_aot/videos/R_S_comp_LW_L001_C003__PSNK_DENOISE_v04_SDR_PS_FINAL_20180803_SDR_2K_AVC.mp4	0.0	130.89663219451904	
26	74.37036418914795	movie	1		159.0	24.0	2.5	/experiments/knapen_aot/videos/R_S_comp_LW_L001_C003__PSNK_DENOISE_v04_SDR_PS_FINAL_20180803_SDR_2K_AVC.mp4	0.0	130.9047772884369	2.5083389282226562
26	76.8787031173706	fix_post	2		12.0	24.0	2.5	/experiments/knapen_aot/videos/R_S_comp_LW_L001_C003__PSNK_DENOISE_v04_SDR_PS_FINAL_20180803_SDR_2K_AVC.mp4	0.0	133.41311621665955	0.09999203681945801
27	76.97869515419006	fix_pre	0		33.0	25.0	2.5	/experiments/knapen_aot/videos/S_yt-8LO59eN9om4_16.mp4	0.0	133.513108253479	0.2750120162963867
27	77.24554204940796	response	0	4		25.0	2.5	/experiments/knapen_aot/videos/S_yt-8LO59eN9om4_16.mp4	0.0	133.7799551486969	
27	77.25370717048645	movie	1		301.0	25.0	2.5	/experiments/knapen_aot/videos/S_yt-8LO59eN9om4_16.mp4	0.0	133.7881202697754	2.508298873901367
27	79.76200604438782	fix_post	2		12.0	25.0	2.5	/experiments/knapen_aot/videos/S_yt-8LO59eN9om4_16.mp4	0.0	136.29641914367676	0.09999203681945801
28	79.86199808120728	fix_pre	0		21.0	26.0	2.5	/experiments/knapen_aot/videos/S_yt-2kPrGwVmRfE_169.mp4	0.0	136.39641118049622	0.1750330924987793
28	80.02875804901123	response	0	4		26.0	2.5	/experiments/knapen_aot/videos/S_yt-2kPrGwVmRfE_169.mp4	0.0	136.56317114830017	
28	80.03703117370605	movie	1		299.0	26.0	2.5	/experiments/knapen_aot/videos/S_yt-2kPrGwVmRfE_169.mp4	0.0	136.571444272995	2.508389949798584
28	82.54542112350464	fix_post	2		12.0	26.0	2.5	/experiments/knapen_aot/videos/S_yt-2kPrGwVmRfE_169.mp4	0.0	139.07983422279358	0.09997105598449707
29	82.64539217948914	fix_pre	0		24.0	27.0	2.5	/experiments/knapen_aot/videos/S_yt-Ek1jcvett9E_33.mp4	0.0	139.17980527877808	0.20069098472595215
29	82.83726000785828	response	0	4		27.0	2.5	/experiments/knapen_aot/videos/S_yt-Ek1jcvett9E_33.mp4	0.0	139.37167310714722	
29	82.84608316421509	movie	1		301.0	27.0	2.5	/experiments/knapen_aot/videos/S_yt-Ek1jcvett9E_33.mp4	0.0	139.38049626350403	2.50758695602417
29	85.35367012023926	fix_post	2		12.0	27.0	2.5	/experiments/knapen_aot/videos/S_yt-Ek1jcvett9E_33.mp4	0.0	141.8880832195282	0.10004687309265137
30	85.45371699333191	fix_pre	0		23.0	28.0	2.5	blank	1.0	141.98813009262085	0.19157910346984863
30	85.63715696334839	response	0	4		28.0	2.5	blank	1.0	142.17157006263733	
30	85.64529609680176	movie	1		301.0	28.0	2.5	blank	1.0	142.1797091960907	2.508471965789795
30	88.15376806259155	fix_post	2		12.0	28.0	2.5	blank	1.0	144.6881811618805	0.09993195533752441
31	88.25370001792908	fix_pre	0		32.0	29.0	2.5	/experiments/knapen_aot/videos/R_S_yt-Fm97IY0Z2LU_110.mp4	0.0	144.78811311721802	0.26668214797973633
31	88.51213097572327	response	0	4		29.0	2.5	/experiments/knapen_aot/videos/R_S_yt-Fm97IY0Z2LU_110.mp4	0.0	145.0465440750122	
31	88.52038216590881	movie	1		301.0	29.0	2.5	/experiments/knapen_aot/videos/R_S_yt-Fm97IY0Z2LU_110.mp4	0.0	145.05479526519775	2.5082848072052
31	91.02866697311401	fix_post	2		12.0	29.0	2.5	/experiments/knapen_aot/videos/R_S_yt-Fm97IY0Z2LU_110.mp4	0.0	147.56308007240295	0.09996700286865234
32	91.12863397598267	fix_pre	0		32.0	30.0	2.5	/experiments/knapen_aot/videos/R_S_yt-NZIhxK5NvWE_152.mp4	0.0	147.6630470752716	0.2666890621185303
32	91.38714814186096	response	0	4		30.0	2.5	/experiments/knapen_aot/videos/R_S_yt-NZIhxK5NvWE_152.mp4	0.0	147.9215612411499	
32	91.3953230381012	movie	1		301.0	30.0	2.5	/experiments/knapen_aot/videos/R_S_yt-NZIhxK5NvWE_152.mp4	0.0	147.92973613739014	2.5083470344543457
32	93.90367007255554	fix_post	2		12.0	30.0	2.5	/experiments/knapen_aot/videos/R_S_yt-NZIhxK5NvWE_152.mp4	0.0	150.43808317184448	0.10001301765441895
33	94.00368309020996	fix_pre	0		1.0	31.0	2.5	/experiments/knapen_aot/videos/S_wc-b4Oquu3WQPRz_45.mp4	0.0	150.5380961894989	0.00896000862121582
33	94.00531101226807	response	0	4		31.0	2.5	/experiments/knapen_aot/videos/S_wc-b4Oquu3WQPRz_45.mp4	0.0	150.539724111557	
33	94.01264309883118	movie	1		164.0	31.0	2.5	/experiments/knapen_aot/videos/S_wc-b4Oquu3WQPRz_45.mp4	0.0	150.54705619812012	2.507642984390259
33	96.52028608322144	fix_post	2		12.0	31.0	2.5	/experiments/knapen_aot/videos/S_wc-b4Oquu3WQPRz_45.mp4	0.0	153.05469918251038	0.09998202323913574
34	96.62026810646057	fix_pre	0		18.0	32.0	2.5	/experiments/knapen_aot/videos/R_S_yt-6xXEMHBQ08A_28.mp4	0.0	153.1546812057495	0.150040864944458
34	96.75467300415039	response	0	4		32.0	2.5	/experiments/knapen_aot/videos/R_S_yt-6xXEMHBQ08A_28.mp4	0.0	153.28908610343933	
34	96.77030897140503	movie	1		301.0	32.0	2.5	/experiments/knapen_aot/videos/R_S_yt-6xXEMHBQ08A_28.mp4	0.0	153.30472207069397	2.5083961486816406
34	99.27870512008667	fix_post	2		12.0	32.0	2.5	/experiments/knapen_aot/videos/R_S_yt-6xXEMHBQ08A_28.mp4	0.0	155.8131182193756	0.09991002082824707
35	99.37861514091492	fix_pre	0		7.0	33.0	2.5	/experiments/knapen_aot/videos/R_S_ILSVRC2015_train_00042003.mp4	0.0	155.91302824020386	0.05835604667663574
35	99.42864918708801	response	0	4		33.0	2.5	/experiments/knapen_aot/videos/R_S_ILSVRC2015_train_00042003.mp4	0.0	155.96306228637695	
35	99.43697118759155	movie	1		301.0	33.0	2.5	/experiments/knapen_aot/videos/R_S_ILSVRC2015_train_00042003.mp4	0.0	155.9713842868805	2.508330821990967
35	101.94530200958252	fix_post	2		12.0	33.0	2.5	/experiments/knapen_aot/videos/R_S_ILSVRC2015_train_00042003.mp4	0.0	158.47971510887146	0.09991812705993652
36	102.04522013664246	fix_pre	0		10.0	34.0	2.5	/experiments/knapen_aot/videos/R_S_yt-Fm97IY0Z2LU_110.mp4	0.0	158.5796332359314	0.08342885971069336
36	102.12057399749756	response	0	4		34.0	2.5	/experiments/knapen_aot/videos/R_S_yt-Fm97IY0Z2LU_110.mp4	0.0	158.6549870967865	
36	102.12864899635315	movie	1		301.0	34.0	2.5	/experiments/knapen_aot/videos/R_S_yt-Fm97IY0Z2LU_110.mp4	0.0	158.6630620956421	2.508258104324341
36	104.63690710067749	fix_post	2		12.0	34.0	2.5	/experiments/knapen_aot/videos/R_S_yt-Fm97IY0Z2LU_110.mp4	0.0	161.17132019996643	0.0999610424041748
37	104.73686814308167	fix_pre	0		33.0	35.0	2.5	blank	1.0	161.2712812423706	0.2756190299987793
37	104.99623417854309	response	0	4		35.0	2.5	blank	1.0	161.53064727783203	
37	105.01248717308044	movie	1		301.0	35.0	2.5	blank	1.0	161.54690027236938	2.5076990127563477
37	107.52018618583679	fix_post	2		12.0	35.0	2.5	blank	1.0	164.05459928512573	0.10007095336914062
37	107.61197113990784	response	2	4		35.0	2.5	blank	1.0	164.14638423919678	
38	107.62025713920593	fix_pre	0		59.0	36.0	2.5	/experiments/knapen_aot/videos/R_S_production_ID_4787635.mp4	0.0	164.15467023849487	0.49165892601013184
38	108.10368418693542	response	0	4		36.0	2.5	/experiments/knapen_aot/videos/R_S_production_ID_4787635.mp4	0.0	164.63809728622437	
38	108.11191606521606	movie	1		166.0	36.0	2.5	/experiments/knapen_aot/videos/R_S_production_ID_4787635.mp4	0.0	164.646329164505	2.5082321166992188
38	110.62014818191528	fix_post	2		12.0	36.0	2.5	/experiments/knapen_aot/videos/R_S_production_ID_4787635.mp4	0.0	167.15456128120422	0.10008978843688965
39	110.72023797035217	fix_pre	0		16.0	37.0	2.5	/experiments/knapen_aot/videos/S_pexels-mart-production-7698693.mp4	0.0	167.2546510696411	0.1333630084991455
39	110.84543299674988	response	0	4		37.0	2.5	/experiments/knapen_aot/videos/S_pexels-mart-production-7698693.mp4	0.0	167.37984609603882	
39	110.85360097885132	movie	1		190.0	37.0	2.5	/experiments/knapen_aot/videos/S_pexels-mart-production-7698693.mp4	0.0	167.38801407814026	2.5083420276641846
39	112.75387001037598	response	1	4		37.0	2.5	/experiments/knapen_aot/videos/S_pexels-mart-production-7698693.mp4	0.0	169.28828310966492	
39	113.2241461277008	response	1	4		37.0	2.5	/experiments/knapen_aot/videos/S_pexels-mart-production-7698693.mp4	0.0	169.75855922698975	
39	113.3619430065155	fix_post	2		12.0	37.0	2.5	/experiments/knapen_aot/videos/S_pexels-mart-production-7698693.mp4	0.0	169.89635610580444	0.09993600845336914
40	113.46187901496887	fix_pre	0		364.0	38.0	2.5	/experiments/knapen_aot/videos/S_yt-5fnd__rpWeE_396.mp4	0.0	169.9962921142578	3.0333220958709717
40	116.48702502250671	response	0	4		38.0	2.5	/experiments/knapen_aot/videos/S_yt-5fnd__rpWeE_396.mp4	0.0	173.02143812179565	
40	116.49520111083984	movie	1		301.0	38.0	2.5	/experiments/knapen_aot/videos/S_yt-5fnd__rpWeE_396.mp4	0.0	173.02961421012878	2.5083398818969727
40	119.00354099273682	fix_post	2		12.0	38.0	2.5	/experiments/knapen_aot/videos/S_yt-5fnd__rpWeE_396.mp4	0.0	175.53795409202576	0.10001111030578613
41	119.1035521030426	fix_pre	0		8.0	39.0	2.5	/experiments/knapen_aot/videos/S_yt-EFrazkRaYbs_21.mp4	0.0	175.63796520233154	0.066619873046875
41	119.1619701385498	response	0	4		39.0	2.5	/experiments/knapen_aot/videos/S_yt-EFrazkRaYbs_21.mp4	0.0	175.69638323783875	
41	119.17017197608948	movie	1		301.0	39.0	2.5	/experiments/knapen_aot/videos/S_yt-EFrazkRaYbs_21.mp4	0.0	175.70458507537842	2.508366107940674
41	120.98709917068481	response	1	4		39.0	2.5	/experiments/knapen_aot/videos/S_yt-EFrazkRaYbs_21.mp4	0.0	177.52151226997375	
41	121.67853808403015	fix_post	2		12.0	39.0	2.5	/experiments/knapen_aot/videos/S_yt-EFrazkRaYbs_21.mp4	0.0	178.2129511833191	0.09995889663696289
42	121.77849698066711	fix_pre	0		107.0	40.0	2.5	/experiments/knapen_aot/videos/R_S_yt-KV8X9IBWuJk_48.mp4	0.0	178.31291007995605	0.8916800022125244
42	122.65453004837036	response	0	4		40.0	2.5	/experiments/knapen_aot/videos/R_S_yt-KV8X9IBWuJk_48.mp4	0.0	179.1889431476593	
42	122.67017698287964	movie	1		301.0	40.0	2.5	/experiments/knapen_aot/videos/R_S_yt-KV8X9IBWuJk_48.mp4	0.0	179.20459008216858	2.5083701610565186
42	124.88058495521545	response	1	4		40.0	2.5	/experiments/knapen_aot/videos/R_S_yt-KV8X9IBWuJk_48.mp4	0.0	181.4149980545044	
42	125.17854714393616	fix_post	2		12.0	40.0	2.5	/experiments/knapen_aot/videos/R_S_yt-KV8X9IBWuJk_48.mp4	0.0	181.7129602432251	0.09996891021728516
43	125.27851605415344	fix_pre	0		30.0	41.0	2.5	blank	1.0	181.81292915344238	0.25000500679016113
43	125.52028012275696	response	0	4		41.0	2.5	blank	1.0	182.0546932220459	
43	125.5285210609436	movie	1		301.0	41.0	2.5	blank	1.0	182.06293416023254	2.508327007293701
43	126.98693418502808	response	1	4		41.0	2.5	blank	1.0	183.52134728431702	
43	127.78687000274658	response	1	4		41.0	2.5	blank	1.0	184.32128310203552	
43	128.0368480682373	fix_post	2		12.0	41.0	2.5	blank	1.0	184.57126116752625	0.10045504570007324
44	128.13730311393738	fix_pre	0		22.0	42.0	2.5	/experiments/knapen_aot/videos/R_S_yt-a9bnYU0Gnxg_59.mp4	0.0	184.67171621322632	0.1827709674835205
44	128.3119180202484	response	0	4		42.0	2.5	/experiments/knapen_aot/videos/R_S_yt-a9bnYU0Gnxg_59.mp4	0.0	184.84633111953735	
44	128.3200740814209	movie	1		301.0	42.0	2.5	/experiments/knapen_aot/videos/R_S_yt-a9bnYU0Gnxg_59.mp4	0.0	184.85448718070984	2.50838303565979
44	130.8284571170807	fix_post	2		12.0	42.0	2.5	/experiments/knapen_aot/videos/R_S_yt-a9bnYU0Gnxg_59.mp4	0.0	187.36287021636963	0.10005307197570801
45	130.9285101890564	fix_pre	0		28.0	43.0	2.5	/experiments/knapen_aot/videos/R_S_TYs22gin-EU_57.mp4	0.0	187.46292328834534	0.2332768440246582
45	131.15369606018066	response	0	4		43.0	2.5	/experiments/knapen_aot/videos/R_S_TYs22gin-EU_57.mp4	0.0	187.6881091594696	
45	131.16178703308105	movie	1		301.0	43.0	2.5	/experiments/knapen_aot/videos/R_S_TYs22gin-EU_57.mp4	0.0	187.69620013237	2.5083069801330566
45	133.6700940132141	fix_post	2		12.0	43.0	2.5	/experiments/knapen_aot/videos/R_S_TYs22gin-EU_57.mp4	0.0	190.20450711250305	0.09999704360961914
46	133.77009105682373	fix_pre	0		39.0	44.0	2.5	/experiments/knapen_aot/videos/R_S_yt-_zDYi2P-QxY_128.mp4	0.0	190.30450415611267	0.32547497749328613
46	134.08696103096008	response	0	4		44.0	2.5	/experiments/knapen_aot/videos/R_S_yt-_zDYi2P-QxY_128.mp4	0.0	190.62137413024902	
46	134.09556603431702	movie	1		301.0	44.0	2.5	/experiments/knapen_aot/videos/R_S_yt-_zDYi2P-QxY_128.mp4	0.0	190.62997913360596	2.5079009532928467
46	136.60346698760986	fix_post	2		12.0	44.0	2.5	/experiments/knapen_aot/videos/R_S_yt-_zDYi2P-QxY_128.mp4	0.0	193.1378800868988	0.099945068359375
47	136.70341205596924	fix_pre	0		10.0	45.0	2.5	/experiments/knapen_aot/videos/S_yt-pB9w3AA-woE_37.mp4	0.0	193.23782515525818	0.08334898948669434
47	136.77858996391296	response	0	4		45.0	2.5	/experiments/knapen_aot/videos/S_yt-pB9w3AA-woE_37.mp4	0.0	193.3130030632019	
47	136.78676104545593	movie	1		301.0	45.0	2.5	/experiments/knapen_aot/videos/S_yt-pB9w3AA-woE_37.mp4	0.0	193.32117414474487	2.5083510875701904
47	138.8804750442505	response	1	4		45.0	2.5	/experiments/knapen_aot/videos/S_yt-pB9w3AA-woE_37.mp4	0.0	195.41488814353943	
47	139.29511213302612	fix_post	2		12.0	45.0	2.5	/experiments/knapen_aot/videos/S_yt-pB9w3AA-woE_37.mp4	0.0	195.82952523231506	0.09996199607849121
48	139.39507412910461	fix_pre	0		28.0	46.0	2.5	/experiments/knapen_aot/videos/S_yt-NZIhxK5NvWE_152.mp4	0.0	195.92948722839355	0.233353853225708
48	139.62023401260376	response	0	4		46.0	2.5	/experiments/knapen_aot/videos/S_yt-NZIhxK5NvWE_152.mp4	0.0	196.1546471118927	
48	139.62842798233032	movie	1		301.0	46.0	2.5	/experiments/knapen_aot/videos/S_yt-NZIhxK5NvWE_152.mp4	0.0	196.16284108161926	2.508301019668579
48	142.1367290019989	fix_post	2		12.0	46.0	2.5	/experiments/knapen_aot/videos/S_yt-NZIhxK5NvWE_152.mp4	0.0	198.67114210128784	0.10005307197570801
49	142.2367820739746	fix_pre	0		34.0	47.0	2.5	blank	1.0	198.77119517326355	0.2832670211791992
49	142.51200604438782	response	0	4		47.0	2.5	blank	1.0	199.04641914367676	
49	142.5200490951538	movie	1		301.0	47.0	2.5	blank	1.0	199.05446219444275	2.5083370208740234
49	144.29516911506653	response	1	4		47.0	2.5	blank	1.0	200.82958221435547	
49	145.00352096557617	response	1	4		47.0	2.5	blank	1.0	201.5379340648651	
49	145.02838611602783	fix_post	2		12.0	47.0	2.5	blank	1.0	201.56279921531677	0.10020184516906738
50	145.1285879611969	fix_pre	0		98.0	48.0	2.5	/experiments/knapen_aot/videos/S_yt-hRAqAwRhmwE_58.mp4	0.0	201.66300106048584	0.8165121078491211
50	145.9293110370636	response	0	4		48.0	2.5	/experiments/knapen_aot/videos/S_yt-hRAqAwRhmwE_58.mp4	0.0	202.46372413635254	
50	145.94510006904602	movie	1		301.0	48.0	2.5	/experiments/knapen_aot/videos/S_yt-hRAqAwRhmwE_58.mp4	0.0	202.47951316833496	2.508366107940674
50	148.4534661769867	fix_post	2		12.0	48.0	2.5	/experiments/knapen_aot/videos/S_yt-hRAqAwRhmwE_58.mp4	0.0	204.98787927627563	0.10036683082580566
51	148.5538330078125	fix_pre	0		35.0	49.0	2.5	/experiments/knapen_aot/videos/S_r4Npnob1vds_12.mp4	0.0	205.08824610710144	0.29161596298217773
51	148.8368661403656	response	0	4		49.0	2.5	/experiments/knapen_aot/videos/S_r4Npnob1vds_12.mp4	0.0	205.37127923965454	
51	148.84544897079468	movie	1		301.0	49.0	2.5	/experiments/knapen_aot/videos/S_r4Npnob1vds_12.mp4	0.0	205.37986207008362	2.507984161376953
51	151.35343313217163	fix_post	2		12.0	49.0	2.5	/experiments/knapen_aot/videos/S_r4Npnob1vds_12.mp4	0.0	207.88784623146057	0.09996390342712402
52	151.45339703559875	fix_pre	0		199.0	50.0	2.5	/experiments/knapen_aot/videos/S_yt-6xXEMHBQ08A_28.mp4	0.0	207.9878101348877	1.658370018005371
52	153.1035499572754	response	0	4		50.0	2.5	/experiments/knapen_aot/videos/S_yt-6xXEMHBQ08A_28.mp4	0.0	209.63796305656433	
52	153.11176705360413	movie	1		300.0	50.0	2.5	/experiments/knapen_aot/videos/S_yt-6xXEMHBQ08A_28.mp4	0.0	209.64618015289307	2.5082509517669678
52	155.6200180053711	fix_post	2		12.0	50.0	2.5	/experiments/knapen_aot/videos/S_yt-6xXEMHBQ08A_28.mp4	0.0	212.15443110466003	0.10038113594055176
53	155.72039914131165	fix_pre	0		32.0	51.0	2.5	/experiments/knapen_aot/videos/R_S_yt-7WYXuBHeorw_188.mp4	0.0	212.2548122406006	0.26627182960510254
53	155.9785120487213	response	0	4		51.0	2.5	/experiments/knapen_aot/videos/R_S_yt-7WYXuBHeorw_188.mp4	0.0	212.51292514801025	
53	155.98667097091675	movie	1		301.0	51.0	2.5	/experiments/knapen_aot/videos/R_S_yt-7WYXuBHeorw_188.mp4	0.0	212.5210840702057	2.5083839893341064
53	158.49505496025085	fix_post	2		12.0	51.0	2.5	/experiments/knapen_aot/videos/R_S_yt-7WYXuBHeorw_188.mp4	0.0	215.0294680595398	0.09996318817138672
54	158.59501814842224	fix_pre	0		24.0	52.0	2.5	/experiments/knapen_aot/videos/R_S_yt-GWlwb2QsxIA_48.mp4	0.0	215.12943124771118	0.20000386238098145
54	158.7868390083313	response	0	4		52.0	2.5	/experiments/knapen_aot/videos/R_S_yt-GWlwb2QsxIA_48.mp4	0.0	215.32125210762024	
54	158.79502201080322	movie	1		301.0	52.0	2.5	/experiments/knapen_aot/videos/R_S_yt-GWlwb2QsxIA_48.mp4	0.0	215.32943511009216	2.5083870887756348
54	161.02019500732422	response	1	4		52.0	2.5	/experiments/knapen_aot/videos/R_S_yt-GWlwb2QsxIA_48.mp4	0.0	217.55460810661316	
54	161.30340909957886	fix_post	2		12.0	52.0	2.5	/experiments/knapen_aot/videos/R_S_yt-GWlwb2QsxIA_48.mp4	0.0	217.8378221988678	0.09993386268615723
55	161.40334296226501	fix_pre	0		156.0	53.0	2.5	/experiments/knapen_aot/videos/R_S_ILSVRC2015_train_00484001.mp4	0.0	217.93775606155396	1.2999629974365234
55	162.69524216651917	response	0	4		53.0	2.5	/experiments/knapen_aot/videos/R_S_ILSVRC2015_train_00484001.mp4	0.0	219.2296552658081	
55	162.70330595970154	movie	1		301.0	53.0	2.5	/experiments/knapen_aot/videos/R_S_ILSVRC2015_train_00484001.mp4	0.0	219.23771905899048	2.508376121520996
55	164.34234309196472	response	1	4		53.0	2.5	/experiments/knapen_aot/videos/R_S_ILSVRC2015_train_00484001.mp4	0.0	220.87675619125366	
55	165.21168208122253	fix_post	2		12.0	53.0	2.5	/experiments/knapen_aot/videos/R_S_ILSVRC2015_train_00484001.mp4	0.0	221.74609518051147	0.09999489784240723
56	165.31167697906494	fix_pre	0		69.0	54.0	2.5	/experiments/knapen_aot/videos/R_S_yt-Xkx53mjgj2E_30.mp4	0.0	221.84609007835388	0.5752301216125488
56	165.8784670829773	response	0	4		54.0	2.5	/experiments/knapen_aot/videos/R_S_yt-Xkx53mjgj2E_30.mp4	0.0	222.41288018226624	
56	165.8869071006775	movie	1		301.0	54.0	2.5	/experiments/knapen_aot/videos/R_S_yt-Xkx53mjgj2E_30.mp4	0.0	222.42132019996643	2.5080580711364746
56	166.55730509757996	response	1	4		54.0	2.5	/experiments/knapen_aot/videos/R_S_yt-Xkx53mjgj2E_30.mp4	0.0	223.0917181968689	
56	167.47038197517395	response	1	4		54.0	2.5	/experiments/knapen_aot/videos/R_S_yt-Xkx53mjgj2E_30.mp4	0.0	224.0047950744629	
56	168.39496517181396	fix_post	2		12.0	54.0	2.5	/experiments/knapen_aot/videos/R_S_yt-Xkx53mjgj2E_30.mp4	0.0	224.9293782711029	0.10006594657897949
57	168.49503111839294	fix_pre	0		25.0	55.0	2.5	/experiments/knapen_aot/videos/S_yt-oxUpc8I5wWQ_238.mp4	0.0	225.02944421768188	0.20833206176757812
57	168.6876721382141	response	0	4		55.0	2.5	/experiments/knapen_aot/videos/S_yt-oxUpc8I5wWQ_238.mp4	0.0	225.22208523750305	
57	168.70336318016052	movie	1		301.0	55.0	2.5	/experiments/knapen_aot/videos/S_yt-oxUpc8I5wWQ_238.mp4	0.0	225.23777627944946	2.5083417892456055
57	171.21170496940613	fix_post	2		12.0	55.0	2.5	/experiments/knapen_aot/videos/S_yt-oxUpc8I5wWQ_238.mp4	0.0	227.74611806869507	0.09999608993530273
58	171.31170105934143	fix_pre	0		70.0	56.0	2.5	blank	1.0	227.84611415863037	0.5833039283752441
58	171.88697504997253	response	0	4		56.0	2.5	blank	1.0	228.42138814926147	
58	171.89500498771667	movie	1		301.0	56.0	2.5	blank	1.0	228.42941808700562	2.5082921981811523
58	174.40329718589783	fix_post	2		12.0	56.0	2.5	blank	1.0	230.93771028518677	0.10005688667297363
59	174.5033540725708	fix_pre	0		43.0	57.0	2.5	/experiments/knapen_aot/videos/S_production_ID_5020953.mp4	0.0	231.03776717185974	0.35823607444763184
59	174.85346508026123	response	0	4		57.0	2.5	/experiments/knapen_aot/videos/S_production_ID_5020953.mp4	0.0	231.38787817955017	
59	174.86159014701843	movie	1		197.0	57.0	2.5	/experiments/knapen_aot/videos/S_production_ID_5020953.mp4	0.0	231.39600324630737	2.5083680152893066
59	177.36995816230774	fix_post	2		12.0	57.0	2.5	/experiments/knapen_aot/videos/S_production_ID_5020953.mp4	0.0	233.90437126159668	0.10021781921386719
60	177.4701759815216	fix_pre	0		31.0	58.0	2.5	/experiments/knapen_aot/videos/S_yt-KQq7vTlXUiQ_173.mp4	0.0	234.00458908081055	0.2581310272216797
60	177.72008299827576	response	0	4		58.0	2.5	/experiments/knapen_aot/videos/S_yt-KQq7vTlXUiQ_173.mp4	0.0	234.2544960975647	
60	177.7283070087433	movie	1		301.0	58.0	2.5	/experiments/knapen_aot/videos/S_yt-KQq7vTlXUiQ_173.mp4	0.0	234.26272010803223	2.5083601474761963
60	180.23666715621948	fix_post	2		12.0	58.0	2.5	/experiments/knapen_aot/videos/S_yt-KQq7vTlXUiQ_173.mp4	0.0	236.77108025550842	0.09987282752990723
61	180.3365399837494	fix_pre	0		63.0	59.0	2.5	/experiments/knapen_aot/videos/R_S_yt-ZE8Af60eNsI_15.mp4	0.0	236.87095308303833	0.5250570774078369
61	180.84593605995178	response	0	4		59.0	2.5	/experiments/knapen_aot/videos/R_S_yt-ZE8Af60eNsI_15.mp4	0.0	237.38034915924072	
61	180.86159706115723	movie	1		301.0	59.0	2.5	/experiments/knapen_aot/videos/R_S_yt-ZE8Af60eNsI_15.mp4	0.0	237.39601016044617	2.5083560943603516
61	183.36995315551758	fix_post	2		12.0	59.0	2.5	/experiments/knapen_aot/videos/R_S_yt-ZE8Af60eNsI_15.mp4	0.0	239.90436625480652	0.10016989707946777
62	183.47012305259705	fix_pre	0		389.0	60.0	2.5	/experiments/knapen_aot/videos/R_S_yt-xqjVM0Vj4mI_161.mp4	0.0	240.004536151886	3.2413480281829834
62	186.70334815979004	response	0	4		60.0	2.5	/experiments/knapen_aot/videos/R_S_yt-xqjVM0Vj4mI_161.mp4	0.0	243.23776125907898	
62	186.71147108078003	movie	1		300.0	60.0	2.5	/experiments/knapen_aot/videos/R_S_yt-xqjVM0Vj4mI_161.mp4	0.0	243.24588418006897	2.508620023727417
62	189.22009110450745	fix_post	2		12.0	60.0	2.5	/experiments/knapen_aot/videos/R_S_yt-xqjVM0Vj4mI_161.mp4	0.0	245.7545042037964	0.09981393814086914
63	189.31990504264832	fix_pre	0		63.0	61.0	2.5	/experiments/knapen_aot/videos/S_ILSVRC2015_train_00601000.mp4	0.0	245.85431814193726	0.5250840187072754
63	189.83672213554382	response	0	4		61.0	2.5	/experiments/knapen_aot/videos/S_ILSVRC2015_train_00601000.mp4	0.0	246.37113523483276	
63	189.8449890613556	movie	1		301.0	61.0	2.5	/experiments/knapen_aot/videos/S_ILSVRC2015_train_00601000.mp4	0.0	246.37940216064453	2.5082108974456787
63	191.21643114089966	response	1	4		61.0	2.5	/experiments/knapen_aot/videos/S_ILSVRC2015_train_00601000.mp4	0.0	247.7508442401886	
63	191.99494218826294	response	1	4		61.0	2.5	/experiments/knapen_aot/videos/S_ILSVRC2015_train_00601000.mp4	0.0	248.52935528755188	
63	192.35319995880127	fix_post	2		12.0	61.0	2.5	/experiments/knapen_aot/videos/S_ILSVRC2015_train_00601000.mp4	0.0	248.8876130580902	0.09997320175170898
64	192.45317316055298	fix_pre	0		31.0	62.0	2.5	blank	1.0	248.98758625984192	0.25836181640625
64	192.70335006713867	response	0	4		62.0	2.5	blank	1.0	249.2377631664276	
64	192.71153497695923	movie	1		301.0	62.0	2.5	blank	1.0	249.24594807624817	2.508352041244507
64	195.21988701820374	fix_post	2		12.0	62.0	2.5	blank	1.0	251.75430011749268	0.09997797012329102
65	195.31986498832703	fix_pre	0		38.0	63.0	2.5	/experiments/knapen_aot/videos/S_yt-7e6Z9QQieAk_183.mp4	0.0	251.85427808761597	0.3168051242828369
65	195.62830305099487	response	0	4		63.0	2.5	/experiments/knapen_aot/videos/S_yt-7e6Z9QQieAk_183.mp4	0.0	252.1627161502838	
65	195.63667011260986	movie	1		301.0	63.0	2.5	/experiments/knapen_aot/videos/S_yt-7e6Z9QQieAk_183.mp4	0.0	252.1710832118988	2.5082709789276123
65	198.14494109153748	fix_post	2		12.0	63.0	2.5	/experiments/knapen_aot/videos/S_yt-7e6Z9QQieAk_183.mp4	0.0	254.67935419082642	0.09993600845336914
66	198.24487709999084	fix_pre	0		42.0	64.0	2.5	/experiments/knapen_aot/videos/S_yt-hTkrnNr39dk_202.mp4	0.0	254.77929019927979	0.3501250743865967
66	198.5866870880127	response	0	4		64.0	2.5	/experiments/knapen_aot/videos/S_yt-hTkrnNr39dk_202.mp4	0.0	255.12110018730164	
66	198.59500217437744	movie	1		301.0	64.0	2.5	/experiments/knapen_aot/videos/S_yt-hTkrnNr39dk_202.mp4	0.0	255.12941527366638	2.5081939697265625
66	201.103196144104	fix_post	2		12.0	64.0	2.5	/experiments/knapen_aot/videos/S_yt-hTkrnNr39dk_202.mp4	0.0	257.63760924339294	0.09994196891784668
67	201.20313811302185	fix_pre	0		41.0	65.0	2.5	/experiments/knapen_aot/videos/S_yt-qurTr1BJMec_244.mp4	0.0	257.7375512123108	0.3416628837585449
67	201.53663897514343	response	0	4		65.0	2.5	/experiments/knapen_aot/videos/S_yt-qurTr1BJMec_244.mp4	0.0	258.0710520744324	
67	201.5448009967804	movie	1		301.0	65.0	2.5	/experiments/knapen_aot/videos/S_yt-qurTr1BJMec_244.mp4	0.0	258.07921409606934	2.508450984954834
67	204.05325198173523	fix_post	2		12.0	65.0	2.5	/experiments/knapen_aot/videos/S_yt-qurTr1BJMec_244.mp4	0.0	260.58766508102417	0.09992408752441406
68	204.15317606925964	fix_pre	0		40.0	66.0	2.5	/experiments/knapen_aot/videos/R_S_production_ID_4820325.mp4	0.0	260.6875891685486	0.3333590030670166
68	204.47821402549744	response	0	4		66.0	2.5	/experiments/knapen_aot/videos/R_S_production_ID_4820325.mp4	0.0	261.0126271247864	
68	204.48653507232666	movie	1		167.0	66.0	2.5	/experiments/knapen_aot/videos/R_S_production_ID_4820325.mp4	0.0	261.0209481716156	2.5082690715789795
68	206.99480414390564	fix_post	2		12.0	66.0	2.5	/experiments/knapen_aot/videos/R_S_production_ID_4820325.mp4	0.0	263.5292172431946	0.1000828742980957
69	207.09488701820374	fix_pre	0		21.0	67.0	2.5	/experiments/knapen_aot/videos/R_S_yt-22c5eZ1UNME_76.mp4	0.0	263.6293001174927	0.1748809814453125
69	207.26165199279785	response	0	4		67.0	2.5	/experiments/knapen_aot/videos/R_S_yt-22c5eZ1UNME_76.mp4	0.0	263.7960650920868	
69	207.26976799964905	movie	1		301.0	67.0	2.5	/experiments/knapen_aot/videos/R_S_yt-22c5eZ1UNME_76.mp4	0.0	263.804181098938	2.508273124694824
69	209.77804112434387	fix_post	2		12.0	67.0	2.5	/experiments/knapen_aot/videos/R_S_yt-22c5eZ1UNME_76.mp4	0.0	266.3124542236328	0.10008096694946289
70	209.87812209129333	fix_pre	0		44.0	68.0	2.5	/experiments/knapen_aot/videos/S_yt-dqcUJzNOzbM_156.mp4	0.0	266.4125351905823	0.36669087409973145
70	210.23663902282715	response	0	4		68.0	2.5	/experiments/knapen_aot/videos/S_yt-dqcUJzNOzbM_156.mp4	0.0	266.7710521221161	
70	210.24481296539307	movie	1		299.0	68.0	2.5	/experiments/knapen_aot/videos/S_yt-dqcUJzNOzbM_156.mp4	0.0	266.779226064682	2.508301019668579
70	212.75311398506165	fix_post	2		12.0	68.0	2.5	/experiments/knapen_aot/videos/S_yt-dqcUJzNOzbM_156.mp4	0.0	269.2875270843506	0.10004210472106934
71	212.85315608978271	fix_pre	0		19.0	69.0	2.5	blank	1.0	269.38756918907166	0.1583390235900879
71	213.00315809249878	response	0	4		69.0	2.5	blank	1.0	269.5375711917877	
71	213.0114951133728	movie	1		301.0	69.0	2.5	blank	1.0	269.54590821266174	2.508305072784424
71	215.51980018615723	fix_post	2		12.0	69.0	2.5	blank	1.0	272.05421328544617	0.0999758243560791
72	215.6197760105133	fix_pre	0		22.0	70.0	2.5	/experiments/knapen_aot/videos/S_ILnEDG_aP1A_35.mp4	0.0	272.15418910980225	0.18335199356079102
72	215.7948911190033	response	0	4		70.0	2.5	/experiments/knapen_aot/videos/S_ILnEDG_aP1A_35.mp4	0.0	272.32930421829224	
72	215.8031280040741	movie	1		301.0	70.0	2.5	/experiments/knapen_aot/videos/S_ILnEDG_aP1A_35.mp4	0.0	272.33754110336304	2.508272171020508
72	218.3114001750946	fix_post	2		12.0	70.0	2.5	/experiments/knapen_aot/videos/S_ILnEDG_aP1A_35.mp4	0.0	274.84581327438354	0.09999489784240723
73	218.411395072937	fix_pre	0		98.0	71.0	2.5	/experiments/knapen_aot/videos/R_S_video_inspire_texas_pecos_foggy-landscape_00018.1080-h264.mp4	0.0	274.94580817222595	0.8167209625244141
73	219.2124240398407	response	0	4		71.0	2.5	/experiments/knapen_aot/videos/R_S_video_inspire_texas_pecos_foggy-landscape_00018.1080-h264.mp4	0.0	275.74683713912964	
73	219.22811603546143	movie	1		169.0	71.0	2.5	/experiments/knapen_aot/videos/R_S_video_inspire_texas_pecos_foggy-landscape_00018.1080-h264.mp4	0.0	275.76252913475037	2.5082719326019287
73	221.73638796806335	fix_post	2		12.0	71.0	2.5	/experiments/knapen_aot/videos/R_S_video_inspire_texas_pecos_foggy-landscape_00018.1080-h264.mp4	0.0	278.2708010673523	0.09999203681945801
74	221.8363800048828	fix_pre	0		22.0	72.0	2.5	/experiments/knapen_aot/videos/R_S_yt-7VVzNnp36DM_62.mp4	0.0	278.37079310417175	0.18333816528320312
74	222.01155614852905	response	0	4		72.0	2.5	/experiments/knapen_aot/videos/R_S_yt-7VVzNnp36DM_62.mp4	0.0	278.545969247818	
74	222.01971817016602	movie	1		301.0	72.0	2.5	/experiments/knapen_aot/videos/R_S_yt-7VVzNnp36DM_62.mp4	0.0	278.55413126945496	2.5082828998565674
74	224.52800107002258	fix_post	2		12.0	72.0	2.5	/experiments/knapen_aot/videos/R_S_yt-7VVzNnp36DM_62.mp4	0.0	281.0624141693115	0.10006499290466309
75	224.62806606292725	fix_pre	0		29.0	73.0	2.5	/experiments/knapen_aot/videos/S_yt-fymgyhmYnMI_76.mp4	0.0	281.1624791622162	0.24169492721557617
75	224.86156105995178	response	0	4		73.0	2.5	/experiments/knapen_aot/videos/S_yt-fymgyhmYnMI_76.mp4	0.0	281.3959741592407	
75	224.86976099014282	movie	1		301.0	73.0	2.5	/experiments/knapen_aot/videos/S_yt-fymgyhmYnMI_76.mp4	0.0	281.40417408943176	2.5083391666412354
75	227.37810015678406	fix_post	2		12.0	73.0	2.5	/experiments/knapen_aot/videos/S_yt-fymgyhmYnMI_76.mp4	0.0	283.912513256073	0.09996581077575684
76	227.47806596755981	fix_pre	0		14.0	74.0	2.5	/experiments/knapen_aot/videos/S_ILSVRC2015_train_00568000.mp4	0.0	284.01247906684875	0.11665201187133789
76	227.58647298812866	response	0	4		74.0	2.5	/experiments/knapen_aot/videos/S_ILSVRC2015_train_00568000.mp4	0.0	284.1208860874176	
76	227.59471797943115	movie	1		301.0	74.0	2.5	/experiments/knapen_aot/videos/S_ILSVRC2015_train_00568000.mp4	0.0	284.1291310787201	2.5083861351013184
76	230.10310411453247	fix_post	2		12.0	74.0	2.5	/experiments/knapen_aot/videos/S_ILSVRC2015_train_00568000.mp4	0.0	286.6375172138214	0.10001087188720703
77	230.20311498641968	fix_pre	0		144.0	75.0	2.5	/experiments/knapen_aot/videos/S_ILSVRC2015_train_00441000.mp4	0.0	286.7375280857086	1.199965000152588
77	231.3949489593506	response	0	4		75.0	2.5	/experiments/knapen_aot/videos/S_ILSVRC2015_train_00441000.mp4	0.0	287.9293620586395	
77	231.40307998657227	movie	1		301.0	75.0	2.5	/experiments/knapen_aot/videos/S_ILSVRC2015_train_00441000.mp4	0.0	287.9374930858612	2.5083601474761963
77	233.91144013404846	fix_post	2		12.0	75.0	2.5	/experiments/knapen_aot/videos/S_ILSVRC2015_train_00441000.mp4	0.0	290.4458532333374	0.09996604919433594
78	234.0114061832428	fix_pre	0		79.0	76.0	2.5	/experiments/knapen_aot/videos/S_yt-etF_WUW5D68_3.mp4	0.0	290.54581928253174	0.6596479415893555
78	234.6615710258484	response	0	4		76.0	2.5	/experiments/knapen_aot/videos/S_yt-etF_WUW5D68_3.mp4	0.0	291.19598412513733	
78	234.67105412483215	movie	1		301.0	76.0	2.5	/experiments/knapen_aot/videos/S_yt-etF_WUW5D68_3.mp4	0.0	291.2054672241211	2.507024049758911
78	237.14508414268494	response	1	4		76.0	2.5	/experiments/knapen_aot/videos/S_yt-etF_WUW5D68_3.mp4	0.0	293.6794972419739	
78	237.17807817459106	fix_post	2		12.0	76.0	2.5	/experiments/knapen_aot/videos/S_yt-etF_WUW5D68_3.mp4	0.0	293.71249127388	0.09991192817687988
79	237.27799010276794	fix_pre	0		55.0	77.0	2.5	blank	1.0	293.8124032020569	0.4583399295806885
79	237.7281050682068	response	0	4		77.0	2.5	blank	1.0	294.2625181674957	
79	237.73633003234863	movie	1		301.0	77.0	2.5	blank	1.0	294.2707431316376	2.508371114730835
79	240.24470114707947	fix_post	2		12.0	77.0	2.5	blank	1.0	296.7791142463684	0.09998798370361328
80	240.34468913078308	fix_pre	0		94.0	78.0	2.5	/experiments/knapen_aot/videos/S_yt-HoRtvVuuvOs_5.mp4	0.0	296.879102230072	0.7846019268035889
80	241.11982917785645	response	0	4		78.0	2.5	/experiments/knapen_aot/videos/S_yt-HoRtvVuuvOs_5.mp4	0.0	297.6542422771454	
80	241.12929105758667	movie	1		301.0	78.0	2.5	/experiments/knapen_aot/videos/S_yt-HoRtvVuuvOs_5.mp4	0.0	297.6637041568756	2.507050037384033
80	243.6363410949707	fix_post	2		12.0	78.0	2.5	/experiments/knapen_aot/videos/S_yt-HoRtvVuuvOs_5.mp4	0.0	300.17075419425964	0.09999299049377441
81	243.73633408546448	fix_pre	0		85.0	79.0	2.5	/experiments/knapen_aot/videos/S_yt-IlW1U39Dga4_5.mp4	0.0	300.2707471847534	0.7082870006561279
81	244.43641304969788	response	0	4		79.0	2.5	/experiments/knapen_aot/videos/S_yt-IlW1U39Dga4_5.mp4	0.0	300.9708261489868	
81	244.4446210861206	movie	1		301.0	79.0	2.5	/experiments/knapen_aot/videos/S_yt-IlW1U39Dga4_5.mp4	0.0	300.97903418540955	2.5083279609680176
81	246.95294904708862	fix_post	2		12.0	79.0	2.5	/experiments/knapen_aot/videos/S_yt-IlW1U39Dga4_5.mp4	0.0	303.48736214637756	0.10008692741394043
82	247.05303597450256	fix_pre	0		38.0	80.0	2.5	/experiments/knapen_aot/videos/R_S_ILSVRC2015_train_00601000.mp4	0.0	303.5874490737915	0.31658005714416504
82	247.36148715019226	response	0	4		80.0	2.5	/experiments/knapen_aot/videos/R_S_ILSVRC2015_train_00601000.mp4	0.0	303.8959002494812	
82	247.36961603164673	movie	1		301.0	80.0	2.5	/experiments/knapen_aot/videos/R_S_ILSVRC2015_train_00601000.mp4	0.0	303.90402913093567	2.5082881450653076
82	249.87790417671204	fix_post	2		12.0	80.0	2.5	/experiments/knapen_aot/videos/R_S_ILSVRC2015_train_00601000.mp4	0.0	306.412317276001	0.10004591941833496
83	249.97795009613037	fix_pre	0		25.0	81.0	2.5	/experiments/knapen_aot/videos/S_ILSVRC2015_train_00725000.mp4	0.0	306.5123631954193	0.20826101303100586
83	250.17815399169922	response	0	4		81.0	2.5	/experiments/knapen_aot/videos/S_ILSVRC2015_train_00725000.mp4	0.0	306.71256709098816	
83	250.18621110916138	movie	1		301.0	81.0	2.5	/experiments/knapen_aot/videos/S_ILSVRC2015_train_00725000.mp4	0.0	306.7206242084503	2.508378028869629
83	252.694589138031	fix_post	2		12.0	81.0	2.5	/experiments/knapen_aot/videos/S_ILSVRC2015_train_00725000.mp4	0.0	309.22900223731995	0.10003304481506348
84	252.79462218284607	fix_pre	0		269.0	82.0	2.5	blank	1.0	309.329035282135	2.241637945175171
84	255.02808809280396	response	0	4		82.0	2.5	blank	1.0	311.5625011920929	
84	255.03626012802124	movie	1		301.0	82.0	2.5	blank	1.0	311.5706732273102	2.5083699226379395
84	257.5446300506592	fix_post	2		12.0	82.0	2.5	blank	1.0	314.0790431499481	0.10000109672546387
85	257.64463114738464	fix_pre	0		64.0	83.0	2.5	/experiments/knapen_aot/videos/R_S_comp_C001_C005_PS_v01_SDR_PS_20180925_SDR_2K_AVC.mp4	0.0	314.1790442466736	0.5333080291748047
85	258.1622221469879	response	0	4		83.0	2.5	/experiments/knapen_aot/videos/R_S_comp_C001_C005_PS_v01_SDR_PS_20180925_SDR_2K_AVC.mp4	0.0	314.69663524627686	
85	258.17793917655945	movie	1		172.0	83.0	2.5	/experiments/knapen_aot/videos/R_S_comp_C001_C005_PS_v01_SDR_PS_20180925_SDR_2K_AVC.mp4	0.0	314.7123522758484	2.5082249641418457
85	260.6861641407013	fix_post	2		12.0	83.0	2.5	/experiments/knapen_aot/videos/R_S_comp_C001_C005_PS_v01_SDR_PS_20180925_SDR_2K_AVC.mp4	0.0	317.22057723999023	0.10011482238769531
87	260.786278963089	stim	0		367.0					317.32069206237793	3.0582849979400635
87	260.994686126709	response	0	4						317.5290992259979	
87	263.83969712257385	response	0	space						320.3741102218628	
