trial_nr	onset	event_type	phase	response	nr_frames	movie_index	movie_duration	movie_file	blank	onset_abs	duration
0	0.15951108932495117	stim	0		17.0					245.2780110836029	0.13926005363464355
0	0.29079198837280273	response	0	space						245.40929198265076	
1	0.2987711429595947	stim	0		121.0					245.41727113723755	1.0080349445343018
1	0.8739430904388428	response	0	space						245.9924430847168	
1	1.149609088897705	response	0	space						246.26810908317566	
1	1.170983076095581	response	0	2						246.28948307037354	
1	1.3068060874938965	stim	1		120.0					246.42530608177185	1.0000889301300049
1	1.5035400390625	response	1	space						246.62204003334045	
1	1.7652301788330078	response	1	space						246.88373017311096	
1	2.231919050216675	response	1	space						247.35041904449463	
2	2.3068950176239014	fix_pre	0		32.0	0.0	2.5	/experiments/knapen_aot/oldvideos/R_S_yt-l_ioasf6yHg_44.mp4	0.0	247.42539501190186	0.2665140628814697
2	2.5578341484069824	response	0	space		0.0	2.5	/experiments/knapen_aot/oldvideos/R_S_yt-l_ioasf6yHg_44.mp4	0.0	247.67633414268494	
2	2.573409080505371	movie	1		301.0	0.0	2.5	/experiments/knapen_aot/oldvideos/R_S_yt-l_ioasf6yHg_44.mp4	0.0	247.69190907478333	2.508388042449951
2	5.081797122955322	fix_post	2		12.0	0.0	2.5	/experiments/knapen_aot/oldvideos/R_S_yt-l_ioasf6yHg_44.mp4	0.0	250.20029711723328	0.1000058650970459
3	5.181802988052368	fix_pre	0		15.0	1.0	2.5	/experiments/knapen_aot/oldvideos/R_S_comp_DB_D011_C010_PSNK_DENOISE_v19_SDR_PS_20180914_SDR_2K_AVC.mp4	0.0	250.30030298233032	0.1249551773071289
3	5.301041126251221	response	0	2		1.0	2.5	/experiments/knapen_aot/oldvideos/R_S_comp_DB_D011_C010_PSNK_DENOISE_v19_SDR_PS_20180914_SDR_2K_AVC.mp4	0.0	250.41954112052917	
3	5.306758165359497	movie	1		166.0	1.0	2.5	/experiments/knapen_aot/oldvideos/R_S_comp_DB_D011_C010_PSNK_DENOISE_v19_SDR_PS_20180914_SDR_2K_AVC.mp4	0.0	250.42525815963745	2.5084798336029053
3	7.815237998962402	fix_post	2		12.0	1.0	2.5	/experiments/knapen_aot/oldvideos/R_S_comp_DB_D011_C010_PSNK_DENOISE_v19_SDR_PS_20180914_SDR_2K_AVC.mp4	0.0	252.93373799324036	0.09986305236816406
3	7.890185117721558	response	2	2		1.0	2.5	/experiments/knapen_aot/oldvideos/R_S_comp_DB_D011_C010_PSNK_DENOISE_v19_SDR_PS_20180914_SDR_2K_AVC.mp4	0.0	253.0086851119995	
4	7.915101051330566	fix_pre	0		35.0	2.0	2.5	/experiments/knapen_aot/oldvideos/S_ILSVRC2015_train_00743005.mp4	0.0	253.03360104560852	0.2927720546722412
4	8.198572158813477	response	0	2		2.0	2.5	/experiments/knapen_aot/oldvideos/S_ILSVRC2015_train_00743005.mp4	0.0	253.31707215309143	
4	8.207873106002808	movie	1		301.0	2.0	2.5	/experiments/knapen_aot/oldvideos/S_ILSVRC2015_train_00743005.mp4	0.0	253.32637310028076	2.5072810649871826
4	10.71515417098999	fix_post	2		12.0	2.0	2.5	/experiments/knapen_aot/oldvideos/S_ILSVRC2015_train_00743005.mp4	0.0	255.83365416526794	0.10001087188720703
5	10.815165042877197	fix_pre	0		1.0	3.0	2.5	/experiments/knapen_aot/oldvideos/S_comp_A001_C001_120530_v04_SDR_FINAL_20180706_SDR_2K_AVC.mp4	0.0	255.93366503715515	0.010766983032226562
5	10.81678819656372	response	0	2		3.0	2.5	/experiments/knapen_aot/oldvideos/S_comp_A001_C001_120530_v04_SDR_FINAL_20180706_SDR_2K_AVC.mp4	0.0	255.93528819084167	
5	10.825932025909424	movie	1		170.0	3.0	2.5	/experiments/knapen_aot/oldvideos/S_comp_A001_C001_120530_v04_SDR_FINAL_20180706_SDR_2K_AVC.mp4	0.0	255.94443202018738	2.505831003189087
5	13.240204095840454	response	1	2		3.0	2.5	/experiments/knapen_aot/oldvideos/S_comp_A001_C001_120530_v04_SDR_FINAL_20180706_SDR_2K_AVC.mp4	0.0	258.3587040901184	
5	13.33176302909851	fix_post	2		12.0	3.0	2.5	/experiments/knapen_aot/oldvideos/S_comp_A001_C001_120530_v04_SDR_FINAL_20180706_SDR_2K_AVC.mp4	0.0	258.45026302337646	0.09998607635498047
6	13.431749105453491	fix_pre	0		7.0	4.0	2.5	/experiments/knapen_aot/oldvideos/R_S_yt-t-wpKypNysg_27.mp4	0.0	258.55024909973145	0.0583040714263916
6	13.481842994689941	response	0	2		4.0	2.5	/experiments/knapen_aot/oldvideos/R_S_yt-t-wpKypNysg_27.mp4	0.0	258.6003429889679	
6	13.490053176879883	movie	1		301.0	4.0	2.5	/experiments/knapen_aot/oldvideos/R_S_yt-t-wpKypNysg_27.mp4	0.0	258.60855317115784	2.508307933807373
6	15.065217018127441	response	1	2		4.0	2.5	/experiments/knapen_aot/oldvideos/R_S_yt-t-wpKypNysg_27.mp4	0.0	260.1837170124054	
6	15.323464155197144	response	1	2		4.0	2.5	/experiments/knapen_aot/oldvideos/R_S_yt-t-wpKypNysg_27.mp4	0.0	260.4419641494751	
6	15.506775140762329	response	1	2		4.0	2.5	/experiments/knapen_aot/oldvideos/R_S_yt-t-wpKypNysg_27.mp4	0.0	260.6252751350403	
6	15.998361110687256	fix_post	2		12.0	4.0	2.5	/experiments/knapen_aot/oldvideos/R_S_yt-t-wpKypNysg_27.mp4	0.0	261.1168611049652	0.1000669002532959
6	16.090092182159424	response	2	2		4.0	2.5	/experiments/knapen_aot/oldvideos/R_S_yt-t-wpKypNysg_27.mp4	0.0	261.2085921764374	
7	16.09842801094055	fix_pre	0		41.0	5.0	2.5	blank	1.0	261.2169280052185	0.34154200553894043
7	16.43180799484253	response	0	2		5.0	2.5	blank	1.0	261.5503079891205	
7	16.439970016479492	movie	1		301.0	5.0	2.5	blank	1.0	261.55847001075745	2.508371114730835
7	18.940165996551514	response	1	2		5.0	2.5	blank	1.0	264.05866599082947	
7	18.948341131210327	fix_post	2		12.0	5.0	2.5	blank	1.0	264.0668411254883	0.10009884834289551
8	19.048439979553223	fix_pre	0		35.0	6.0	2.5	/experiments/knapen_aot/oldvideos/R_S_yt-Fci3dBzt2T4_223.mp4	0.0	264.1669399738312	0.29158616065979004
8	19.331834077835083	response	0	2		6.0	2.5	/experiments/knapen_aot/oldvideos/R_S_yt-Fci3dBzt2T4_223.mp4	0.0	264.45033407211304	
8	19.340026140213013	movie	1		301.0	6.0	2.5	/experiments/knapen_aot/oldvideos/R_S_yt-Fci3dBzt2T4_223.mp4	0.0	264.45852613449097	2.5084309577941895
8	21.848457098007202	fix_post	2		12.0	6.0	2.5	/experiments/knapen_aot/oldvideos/R_S_yt-Fci3dBzt2T4_223.mp4	0.0	266.96695709228516	0.09990096092224121
8	21.940134048461914	response	2	2		6.0	2.5	/experiments/knapen_aot/oldvideos/R_S_yt-Fci3dBzt2T4_223.mp4	0.0	267.05863404273987	
9	21.948358058929443	fix_pre	0		47.0	7.0	2.5	/experiments/knapen_aot/oldvideos/R_S_ILSVRC2015_train_00697001.mp4	0.0	267.0668580532074	0.39168596267700195
9	22.331854104995728	response	0	2		7.0	2.5	/experiments/knapen_aot/oldvideos/R_S_ILSVRC2015_train_00697001.mp4	0.0	267.4503540992737	
9	22.340044021606445	movie	1		301.0	7.0	2.5	/experiments/knapen_aot/oldvideos/R_S_ILSVRC2015_train_00697001.mp4	0.0	267.4585440158844	2.5084011554718018
9	24.848445177078247	fix_post	2		12.0	7.0	2.5	/experiments/knapen_aot/oldvideos/R_S_ILSVRC2015_train_00697001.mp4	0.0	269.9669451713562	0.09998893737792969
9	24.924421072006226	response	2	2		7.0	2.5	/experiments/knapen_aot/oldvideos/R_S_ILSVRC2015_train_00697001.mp4	0.0	270.0429210662842	
10	24.948434114456177	fix_pre	0		48.0	8.0	2.5	/experiments/knapen_aot/oldvideos/R_S_yt-zydTlQGCUjQ_277.mp4	0.0	270.06693410873413	0.3999619483947754
10	25.340152978897095	response	0	2		8.0	2.5	/experiments/knapen_aot/oldvideos/R_S_yt-zydTlQGCUjQ_277.mp4	0.0	270.45865297317505	
10	25.348396062850952	movie	1		301.0	8.0	2.5	/experiments/knapen_aot/oldvideos/R_S_yt-zydTlQGCUjQ_277.mp4	0.0	270.4668960571289	2.508294105529785
10	27.856690168380737	fix_post	2		12.0	8.0	2.5	/experiments/knapen_aot/oldvideos/R_S_yt-zydTlQGCUjQ_277.mp4	0.0	272.9751901626587	0.10019302368164062
11	27.956883192062378	fix_pre	0		8.0	9.0	2.5	/experiments/knapen_aot/oldvideos/S_yt-be7r-ha8BpA_1045.mp4	0.0	273.07538318634033	0.06643986701965332
11	28.015226125717163	response	0	2		9.0	2.5	/experiments/knapen_aot/oldvideos/S_yt-be7r-ha8BpA_1045.mp4	0.0	273.1337261199951	
11	28.02332305908203	movie	1		301.0	9.0	2.5	/experiments/knapen_aot/oldvideos/S_yt-be7r-ha8BpA_1045.mp4	0.0	273.14182305336	2.508350133895874
11	30.531673192977905	fix_post	2		12.0	9.0	2.5	/experiments/knapen_aot/oldvideos/S_yt-be7r-ha8BpA_1045.mp4	0.0	275.65017318725586	0.0999898910522461
12	30.63166308403015	fix_pre	0		13.0	10.0	2.5	/experiments/knapen_aot/oldvideos/R_S_yt-2IxVZeiSv3g_28.mp4	0.0	275.7501630783081	0.10834908485412598
12	30.731795072555542	response	0	2		10.0	2.5	/experiments/knapen_aot/oldvideos/R_S_yt-2IxVZeiSv3g_28.mp4	0.0	275.8502950668335	
12	30.740012168884277	movie	1		301.0	10.0	2.5	/experiments/knapen_aot/oldvideos/R_S_yt-2IxVZeiSv3g_28.mp4	0.0	275.85851216316223	2.5083439350128174
12	33.248356103897095	fix_post	2		12.0	10.0	2.5	/experiments/knapen_aot/oldvideos/R_S_yt-2IxVZeiSv3g_28.mp4	0.0	278.36685609817505	0.09992790222167969
12	33.31594109535217	response	2	2		10.0	2.5	/experiments/knapen_aot/oldvideos/R_S_yt-2IxVZeiSv3g_28.mp4	0.0	278.4344410896301	
13	33.348284006118774	fix_pre	0		36.0	11.0	2.5	/experiments/knapen_aot/oldvideos/R_S_yt-6KJ_yZR-Jco_14.mp4	0.0	278.46678400039673	0.3000030517578125
13	33.64000201225281	response	0	2		11.0	2.5	/experiments/knapen_aot/oldvideos/R_S_yt-6KJ_yZR-Jco_14.mp4	0.0	278.75850200653076	
13	33.64828705787659	movie	1		301.0	11.0	2.5	/experiments/knapen_aot/oldvideos/R_S_yt-6KJ_yZR-Jco_14.mp4	0.0	278.76678705215454	2.5084080696105957
13	36.15669512748718	fix_post	2		12.0	11.0	2.5	/experiments/knapen_aot/oldvideos/R_S_yt-6KJ_yZR-Jco_14.mp4	0.0	281.27519512176514	0.10001802444458008
14	36.25671315193176	fix_pre	0		33.0	12.0	2.5	/experiments/knapen_aot/oldvideos/S_yt-YLcmfyfIokU_64.mp4	0.0	281.3752131462097	0.2749979496002197
14	36.52345108985901	response	0	2		12.0	2.5	/experiments/knapen_aot/oldvideos/S_yt-YLcmfyfIokU_64.mp4	0.0	281.64195108413696	
14	36.53171110153198	movie	1		301.0	12.0	2.5	/experiments/knapen_aot/oldvideos/S_yt-YLcmfyfIokU_64.mp4	0.0	281.65021109580994	2.508291006088257
14	39.04000210762024	fix_post	2		12.0	12.0	2.5	/experiments/knapen_aot/oldvideos/S_yt-YLcmfyfIokU_64.mp4	0.0	284.1585021018982	0.09995603561401367
15	39.13995814323425	fix_pre	0		13.0	13.0	2.5	/experiments/knapen_aot/oldvideos/R_S_yt-ayx4rU9bJrU_179.mp4	0.0	284.2584581375122	0.10923290252685547
15	39.24003219604492	response	0	2		13.0	2.5	/experiments/knapen_aot/oldvideos/R_S_yt-ayx4rU9bJrU_179.mp4	0.0	284.3585321903229	
15	39.24919104576111	movie	1		301.0	13.0	2.5	/experiments/knapen_aot/oldvideos/R_S_yt-ayx4rU9bJrU_179.mp4	0.0	284.36769104003906	2.5074350833892822
15	41.75662612915039	fix_post	2		12.0	13.0	2.5	/experiments/knapen_aot/oldvideos/R_S_yt-ayx4rU9bJrU_179.mp4	0.0	286.87512612342834	0.10001897811889648
16	41.85664510726929	fix_pre	0		7.0	14.0	2.5	blank	1.0	286.97514510154724	0.0582890510559082
16	41.899264097213745	response	0	2		14.0	2.5	blank	1.0	287.0177640914917	
16	41.914934158325195	movie	1		301.0	14.0	2.5	blank	1.0	287.03343415260315	2.5083858966827393
16	44.423320055007935	fix_post	2		12.0	14.0	2.5	blank	1.0	289.5418200492859	0.10013198852539062
17	44.523452043533325	fix_pre	0		24.0	15.0	2.5	/experiments/knapen_aot/oldvideos/S_yt-H-qQ0oE1kwM_6.mp4	0.0	289.6419520378113	0.19989800453186035
17	44.70752716064453	response	0	2		15.0	2.5	/experiments/knapen_aot/oldvideos/S_yt-H-qQ0oE1kwM_6.mp4	0.0	289.8260271549225	
17	44.723350048065186	movie	1		301.0	15.0	2.5	/experiments/knapen_aot/oldvideos/S_yt-H-qQ0oE1kwM_6.mp4	0.0	289.84185004234314	2.50827693939209
17	47.231626987457275	fix_post	2		12.0	15.0	2.5	/experiments/knapen_aot/oldvideos/S_yt-H-qQ0oE1kwM_6.mp4	0.0	292.35012698173523	0.09989714622497559
18	47.33152413368225	fix_pre	0		11.0	16.0	2.5	/experiments/knapen_aot/oldvideos/R_S_ILSVRC2015_train_00697001.mp4	0.0	292.4500241279602	0.09166097640991211
18	47.41507601737976	response	0	2		16.0	2.5	/experiments/knapen_aot/oldvideos/R_S_ILSVRC2015_train_00697001.mp4	0.0	292.5335760116577	
18	47.42318511009216	movie	1		301.0	16.0	2.5	/experiments/knapen_aot/oldvideos/R_S_ILSVRC2015_train_00697001.mp4	0.0	292.5416851043701	2.508397102355957
18	49.93158221244812	fix_post	2		12.0	16.0	2.5	/experiments/knapen_aot/oldvideos/R_S_ILSVRC2015_train_00697001.mp4	0.0	295.0500822067261	0.1000058650970459
18	49.99839520454407	response	2	2		16.0	2.5	/experiments/knapen_aot/oldvideos/R_S_ILSVRC2015_train_00697001.mp4	0.0	295.116895198822	
19	50.031588077545166	fix_pre	0		34.0	17.0	2.5	/experiments/knapen_aot/oldvideos/R_S_ILSVRC2015_train_00354001.mp4	0.0	295.1500880718231	0.283297061920166
19	50.30670714378357	response	0	2		17.0	2.5	/experiments/knapen_aot/oldvideos/R_S_ILSVRC2015_train_00354001.mp4	0.0	295.4252071380615	
19	50.31488513946533	movie	1		301.0	17.0	2.5	/experiments/knapen_aot/oldvideos/R_S_ILSVRC2015_train_00354001.mp4	0.0	295.4333851337433	2.5083699226379395
19	52.82325506210327	fix_post	2		12.0	17.0	2.5	/experiments/knapen_aot/oldvideos/R_S_ILSVRC2015_train_00354001.mp4	0.0	297.9417550563812	0.10000300407409668
19	52.898351192474365	response	2	2		17.0	2.5	/experiments/knapen_aot/oldvideos/R_S_ILSVRC2015_train_00354001.mp4	0.0	298.0168511867523	
20	52.92325806617737	fix_pre	0		34.0	18.0	2.5	/experiments/knapen_aot/oldvideos/S_pexels-mikael-blomkvist-8689852.mp4	0.0	298.0417580604553	0.2842710018157959
20	53.19831705093384	response	0	2		18.0	2.5	/experiments/knapen_aot/oldvideos/S_pexels-mikael-blomkvist-8689852.mp4	0.0	298.3168170452118	
20	53.207529067993164	movie	1		167.0	18.0	2.5	/experiments/knapen_aot/oldvideos/S_pexels-mikael-blomkvist-8689852.mp4	0.0	298.3260290622711	2.4999260902404785
20	55.698421001434326	response	1	2		18.0	2.5	/experiments/knapen_aot/oldvideos/S_pexels-mikael-blomkvist-8689852.mp4	0.0	300.8169209957123	
20	55.70745515823364	fix_post	2		13.0	18.0	2.5	/experiments/knapen_aot/oldvideos/S_pexels-mikael-blomkvist-8689852.mp4	0.0	300.8259551525116	0.1074819564819336
21	55.814937114715576	fix_pre	0		24.0	19.0	2.5	/experiments/knapen_aot/oldvideos/R_S_yt-H45g6700wbc_159.mp4	0.0	300.93343710899353	0.19995403289794922
21	56.006667137145996	response	0	2		19.0	2.5	/experiments/knapen_aot/oldvideos/R_S_yt-H45g6700wbc_159.mp4	0.0	301.12516713142395	
21	56.014891147613525	movie	1		301.0	19.0	2.5	/experiments/knapen_aot/oldvideos/R_S_yt-H45g6700wbc_159.mp4	0.0	301.1333911418915	2.508450984954834
21	58.52334213256836	fix_post	2		12.0	19.0	2.5	/experiments/knapen_aot/oldvideos/R_S_yt-H45g6700wbc_159.mp4	0.0	303.6418421268463	0.09986996650695801
22	58.62321209907532	fix_pre	0		16.0	20.0	2.5	blank	1.0	303.74171209335327	0.13347411155700684
22	58.74840807914734	response	0	2		20.0	2.5	blank	1.0	303.8669080734253	
22	58.756686210632324	movie	1		301.0	20.0	2.5	blank	1.0	303.8751862049103	2.5082318782806396
22	61.264918088912964	fix_post	2		12.0	20.0	2.5	blank	1.0	306.3834180831909	0.10020709037780762
23	61.36512517929077	fix_pre	0		10.0	21.0	2.5	/experiments/knapen_aot/oldvideos/R_S_yt-FLMdajcbjcg_35.mp4	0.0	306.4836251735687	0.08307600021362305
23	61.43997502326965	response	0	2		21.0	2.5	/experiments/knapen_aot/oldvideos/R_S_yt-FLMdajcbjcg_35.mp4	0.0	306.5584750175476	
23	61.448201179504395	movie	1		301.0	21.0	2.5	/experiments/knapen_aot/oldvideos/R_S_yt-FLMdajcbjcg_35.mp4	0.0	306.56670117378235	2.5083608627319336
23	63.95656204223633	fix_post	2		12.0	21.0	2.5	/experiments/knapen_aot/oldvideos/R_S_yt-FLMdajcbjcg_35.mp4	0.0	309.0750620365143	0.09998703002929688
24	64.05654907226562	fix_pre	0		9.0	22.0	2.5	/experiments/knapen_aot/oldvideos/S_yt-NuZy8Rjk4d0_156.mp4	0.0	309.1750490665436	0.07495307922363281
24	64.12329411506653	response	0	2		22.0	2.5	/experiments/knapen_aot/oldvideos/S_yt-NuZy8Rjk4d0_156.mp4	0.0	309.2417941093445	
24	64.13150215148926	movie	1		301.0	22.0	2.5	/experiments/knapen_aot/oldvideos/S_yt-NuZy8Rjk4d0_156.mp4	0.0	309.2500021457672	2.5084409713745117
24	66.63994312286377	fix_post	2		12.0	22.0	2.5	/experiments/knapen_aot/oldvideos/S_yt-NuZy8Rjk4d0_156.mp4	0.0	311.7584431171417	0.09992504119873047
25	66.7398681640625	fix_pre	0		10.0	23.0	2.5	/experiments/knapen_aot/oldvideos/R_S_yt-QOnORDmVMyU_10.mp4	0.0	311.85836815834045	0.08331489562988281
25	66.81501603126526	response	0	2		23.0	2.5	/experiments/knapen_aot/oldvideos/R_S_yt-QOnORDmVMyU_10.mp4	0.0	311.9335160255432	
25	66.82318305969238	movie	1		301.0	23.0	2.5	/experiments/knapen_aot/oldvideos/R_S_yt-QOnORDmVMyU_10.mp4	0.0	311.94168305397034	2.5083730220794678
25	69.33155608177185	fix_post	2		12.0	23.0	2.5	/experiments/knapen_aot/oldvideos/R_S_yt-QOnORDmVMyU_10.mp4	0.0	314.4500560760498	0.0999290943145752
26	69.43148517608643	fix_pre	0		13.0	24.0	2.5	/experiments/knapen_aot/oldvideos/S_yt-FLMdajcbjcg_35.mp4	0.0	314.5499851703644	0.10919189453125
26	69.53164315223694	response	0	2		24.0	2.5	/experiments/knapen_aot/oldvideos/S_yt-FLMdajcbjcg_35.mp4	0.0	314.6501431465149	
26	69.54067707061768	movie	1		301.0	24.0	2.5	/experiments/knapen_aot/oldvideos/S_yt-FLMdajcbjcg_35.mp4	0.0	314.65917706489563	2.5074920654296875
26	72.04816913604736	fix_post	2		12.0	24.0	2.5	/experiments/knapen_aot/oldvideos/S_yt-FLMdajcbjcg_35.mp4	0.0	317.1666691303253	0.1000218391418457
27	72.14819097518921	fix_pre	0		13.0	25.0	2.5	/experiments/knapen_aot/oldvideos/R_S_production_ID_3709168.mp4	0.0	317.26669096946716	0.10832810401916504
27	72.24827909469604	response	0	2		25.0	2.5	/experiments/knapen_aot/oldvideos/R_S_production_ID_3709168.mp4	0.0	317.366779088974	
27	72.25651907920837	movie	1		211.0	25.0	2.5	/experiments/knapen_aot/oldvideos/R_S_production_ID_3709168.mp4	0.0	317.3750190734863	2.5083389282226562
27	74.76485800743103	fix_post	2		12.0	25.0	2.5	/experiments/knapen_aot/oldvideos/R_S_production_ID_3709168.mp4	0.0	319.883358001709	0.1000831127166748
28	74.8649411201477	fix_pre	0		1.0	26.0	2.5	blank	1.0	319.98344111442566	0.009157896041870117
28	74.86659502983093	response	0	2		26.0	2.5	blank	1.0	319.9850950241089	
28	74.87409901618958	movie	1		301.0	26.0	2.5	blank	1.0	319.99259901046753	2.5074660778045654
28	77.38156509399414	fix_post	2		12.0	26.0	2.5	blank	1.0	322.5000650882721	0.10007596015930176
29	77.48164105415344	fix_pre	0		19.0	27.0	2.5	/experiments/knapen_aot/oldvideos/R_S_yt-uX7qYKQm_pg_277.mp4	0.0	322.6001410484314	0.15814900398254395
29	77.63165616989136	response	0	2		27.0	2.5	/experiments/knapen_aot/oldvideos/R_S_yt-uX7qYKQm_pg_277.mp4	0.0	322.7501561641693	
29	77.63979005813599	movie	1		301.0	27.0	2.5	/experiments/knapen_aot/oldvideos/R_S_yt-uX7qYKQm_pg_277.mp4	0.0	322.75829005241394	2.5083799362182617
29	80.14816999435425	fix_post	2		12.0	27.0	2.5	/experiments/knapen_aot/oldvideos/R_S_yt-uX7qYKQm_pg_277.mp4	0.0	325.2666699886322	0.10004520416259766
30	80.24821519851685	fix_pre	0		16.0	28.0	2.5	/experiments/knapen_aot/oldvideos/R_S_yt-Ojy5TMPX8_Q_165.mp4	0.0	325.3667151927948	0.1332988739013672
30	80.37326312065125	response	0	2		28.0	2.5	/experiments/knapen_aot/oldvideos/R_S_yt-Ojy5TMPX8_Q_165.mp4	0.0	325.4917631149292	
30	80.38151407241821	movie	1		301.0	28.0	2.5	/experiments/knapen_aot/oldvideos/R_S_yt-Ojy5TMPX8_Q_165.mp4	0.0	325.50001406669617	2.5083329677581787
30	82.88984704017639	fix_post	2		12.0	28.0	2.5	/experiments/knapen_aot/oldvideos/R_S_yt-Ojy5TMPX8_Q_165.mp4	0.0	328.00834703445435	0.10002303123474121
31	82.98987007141113	fix_pre	0		1.0	29.0	2.5	/experiments/knapen_aot/oldvideos/R_S_yt-T1mMDOVjvrE_83.mp4	0.0	328.1083700656891	0.009159088134765625
31	82.99161505699158	response	0	2		29.0	2.5	/experiments/knapen_aot/oldvideos/R_S_yt-T1mMDOVjvrE_83.mp4	0.0	328.11011505126953	
31	82.9990291595459	movie	1		301.0	29.0	2.5	/experiments/knapen_aot/oldvideos/R_S_yt-T1mMDOVjvrE_83.mp4	0.0	328.11752915382385	2.507469892501831
31	85.50649905204773	fix_post	2		12.0	29.0	2.5	/experiments/knapen_aot/oldvideos/R_S_yt-T1mMDOVjvrE_83.mp4	0.0	330.6249990463257	0.10007095336914062
32	85.60657000541687	fix_pre	0		8.0	30.0	2.5	/experiments/knapen_aot/oldvideos/R_S_yt-be7r-ha8BpA_1045.mp4	0.0	330.7250699996948	0.06657719612121582
32	85.66496300697327	response	0	2		30.0	2.5	/experiments/knapen_aot/oldvideos/R_S_yt-be7r-ha8BpA_1045.mp4	0.0	330.7834630012512	
32	85.67314720153809	movie	1		301.0	30.0	2.5	/experiments/knapen_aot/oldvideos/R_S_yt-be7r-ha8BpA_1045.mp4	0.0	330.79164719581604	2.508443832397461
32	88.18159103393555	fix_post	2		12.0	30.0	2.5	/experiments/knapen_aot/oldvideos/R_S_yt-be7r-ha8BpA_1045.mp4	0.0	333.3000910282135	0.09992504119873047
33	88.28151607513428	fix_pre	0		10.0	31.0	2.5	/experiments/knapen_aot/oldvideos/S_pexels-anna-tarazevich-6189268.mp4	0.0	333.40001606941223	0.08330392837524414
33	88.35657811164856	response	0	2		31.0	2.5	/experiments/knapen_aot/oldvideos/S_pexels-anna-tarazevich-6189268.mp4	0.0	333.4750781059265	
33	88.36482000350952	movie	1		213.0	31.0	2.5	/experiments/knapen_aot/oldvideos/S_pexels-anna-tarazevich-6189268.mp4	0.0	333.4833199977875	2.50832200050354
33	90.87314200401306	fix_post	2		12.0	31.0	2.5	/experiments/knapen_aot/oldvideos/S_pexels-anna-tarazevich-6189268.mp4	0.0	335.991641998291	0.10001206398010254
34	90.97315406799316	fix_pre	0		3.0	32.0	2.5	/experiments/knapen_aot/oldvideos/R_S_pexels-c-technical-6754008.mp4	0.0	336.0916540622711	0.025754928588867188
34	90.9899971485138	response	0	2		32.0	2.5	/experiments/knapen_aot/oldvideos/R_S_pexels-c-technical-6754008.mp4	0.0	336.10849714279175	
34	90.99890899658203	movie	1		186.0	32.0	2.5	/experiments/knapen_aot/oldvideos/R_S_pexels-c-technical-6754008.mp4	0.0	336.11740899086	2.507561206817627
34	93.50647020339966	fix_post	2		12.0	32.0	2.5	/experiments/knapen_aot/oldvideos/R_S_pexels-c-technical-6754008.mp4	0.0	338.6249701976776	0.09998178482055664
34	93.58989810943604	response	2	2		32.0	2.5	/experiments/knapen_aot/oldvideos/R_S_pexels-c-technical-6754008.mp4	0.0	338.708398103714	
35	93.60645198822021	fix_pre	0		40.0	33.0	2.5	/experiments/knapen_aot/oldvideos/S_production_ID_4584682.mp4	0.0	338.72495198249817	0.3333320617675781
35	93.93153619766235	response	0	2		33.0	2.5	/experiments/knapen_aot/oldvideos/S_production_ID_4584682.mp4	0.0	339.0500361919403	
35	93.9397840499878	movie	1		164.0	33.0	2.5	/experiments/knapen_aot/oldvideos/S_production_ID_4584682.mp4	0.0	339.05828404426575	2.508307933807373
35	96.1899790763855	response	1	2		33.0	2.5	/experiments/knapen_aot/oldvideos/S_production_ID_4584682.mp4	0.0	341.30847907066345	
35	96.44809198379517	fix_post	2		12.0	33.0	2.5	/experiments/knapen_aot/oldvideos/S_production_ID_4584682.mp4	0.0	341.5665919780731	0.10002303123474121
35	96.4497811794281	response	2	2		33.0	2.5	/experiments/knapen_aot/oldvideos/S_production_ID_4584682.mp4	0.0	341.56828117370605	
36	96.54811501502991	fix_pre	0		26.0	34.0	2.5	/experiments/knapen_aot/oldvideos/S_yt-RqWnxg1wT-0_41.mp4	0.0	341.66661500930786	0.2166430950164795
36	96.75653004646301	response	0	2		34.0	2.5	/experiments/knapen_aot/oldvideos/S_yt-RqWnxg1wT-0_41.mp4	0.0	341.87503004074097	
36	96.76475811004639	movie	1		301.0	34.0	2.5	/experiments/knapen_aot/oldvideos/S_yt-RqWnxg1wT-0_41.mp4	0.0	341.88325810432434	2.5082919597625732
36	99.07522702217102	response	1	2		34.0	2.5	/experiments/knapen_aot/oldvideos/S_yt-RqWnxg1wT-0_41.mp4	0.0	344.193727016449	
36	99.27305006980896	fix_post	2		12.0	34.0	2.5	/experiments/knapen_aot/oldvideos/S_yt-RqWnxg1wT-0_41.mp4	0.0	344.3915500640869	0.10012602806091309
36	99.35650205612183	response	2	2		34.0	2.5	/experiments/knapen_aot/oldvideos/S_yt-RqWnxg1wT-0_41.mp4	0.0	344.4750020503998	
37	99.37317609786987	fix_pre	0		29.0	35.0	2.5	blank	1.0	344.4916760921478	0.24153590202331543
37	99.60647201538086	response	0	2		35.0	2.5	blank	1.0	344.7249720096588	
37	99.61471199989319	movie	1		301.0	35.0	2.5	blank	1.0	344.73321199417114	2.508432149887085
37	101.7314760684967	response	1	2		35.0	2.5	blank	1.0	346.84997606277466	
37	102.04809403419495	response	1	2		35.0	2.5	blank	1.0	347.1665940284729	
37	102.12314414978027	fix_post	2		12.0	35.0	2.5	blank	1.0	347.2416441440582	0.10002684593200684
38	102.22317099571228	fix_pre	0		46.0	36.0	2.5	/experiments/knapen_aot/oldvideos/R_S_yt-EKPrSw5xF7k_112.mp4	0.0	347.34167098999023	0.3831319808959961
38	102.59812998771667	response	0	2		36.0	2.5	/experiments/knapen_aot/oldvideos/R_S_yt-EKPrSw5xF7k_112.mp4	0.0	347.71662998199463	
38	102.60630297660828	movie	1		301.0	36.0	2.5	/experiments/knapen_aot/oldvideos/R_S_yt-EKPrSw5xF7k_112.mp4	0.0	347.72480297088623	2.5084261894226074
38	105.11472916603088	fix_post	2		12.0	36.0	2.5	/experiments/knapen_aot/oldvideos/R_S_yt-EKPrSw5xF7k_112.mp4	0.0	350.23322916030884	0.1000208854675293
39	105.21475005149841	fix_pre	0		13.0	37.0	2.5	/experiments/knapen_aot/oldvideos/R_S_yt-CH4HfNRC1hY_40.mp4	0.0	350.33325004577637	0.1082601547241211
39	105.3148341178894	response	0	2		37.0	2.5	/experiments/knapen_aot/oldvideos/R_S_yt-CH4HfNRC1hY_40.mp4	0.0	350.43333411216736	
39	105.32301020622253	movie	1		300.0	37.0	2.5	/experiments/knapen_aot/oldvideos/R_S_yt-CH4HfNRC1hY_40.mp4	0.0	350.4415102005005	2.4999468326568604
39	107.54361605644226	response	1	2		37.0	2.5	/experiments/knapen_aot/oldvideos/R_S_yt-CH4HfNRC1hY_40.mp4	0.0	352.6621160507202	
39	107.81475400924683	response	1	2		37.0	2.5	/experiments/knapen_aot/oldvideos/R_S_yt-CH4HfNRC1hY_40.mp4	0.0	352.9332540035248	
39	107.8229570388794	fix_post	2		13.0	37.0	2.5	/experiments/knapen_aot/oldvideos/R_S_yt-CH4HfNRC1hY_40.mp4	0.0	352.94145703315735	0.1085059642791748
40	107.93146300315857	fix_pre	0		71.0	38.0	2.5	/experiments/knapen_aot/oldvideos/R_S_yt-iHmshS63rBc_329.mp4	0.0	353.0499629974365	0.5915720462799072
40	108.51477909088135	response	0	2		38.0	2.5	/experiments/knapen_aot/oldvideos/R_S_yt-iHmshS63rBc_329.mp4	0.0	353.6332790851593	
40	108.52303504943848	movie	1		301.0	38.0	2.5	/experiments/knapen_aot/oldvideos/R_S_yt-iHmshS63rBc_329.mp4	0.0	353.64153504371643	2.5083119869232178
40	110.78331518173218	response	1	2		38.0	2.5	/experiments/knapen_aot/oldvideos/R_S_yt-iHmshS63rBc_329.mp4	0.0	355.90181517601013	
40	111.0313470363617	fix_post	2		12.0	38.0	2.5	/experiments/knapen_aot/oldvideos/R_S_yt-iHmshS63rBc_329.mp4	0.0	356.14984703063965	0.10002899169921875
40	111.0330080986023	response	2	2		38.0	2.5	/experiments/knapen_aot/oldvideos/R_S_yt-iHmshS63rBc_329.mp4	0.0	356.15150809288025	
41	111.13137602806091	fix_pre	0		14.0	39.0	2.5	/experiments/knapen_aot/oldvideos/R_S_8amznWxLS04_212.mp4	0.0	356.24987602233887	0.11713910102844238
41	111.23974299430847	response	0	2		39.0	2.5	/experiments/knapen_aot/oldvideos/R_S_8amznWxLS04_212.mp4	0.0	356.3582429885864	
41	111.24851512908936	movie	1		301.0	39.0	2.5	/experiments/knapen_aot/oldvideos/R_S_8amznWxLS04_212.mp4	0.0	356.3670151233673	2.5078070163726807
41	113.75632214546204	fix_post	2		12.0	39.0	2.5	/experiments/knapen_aot/oldvideos/R_S_8amznWxLS04_212.mp4	0.0	358.87482213974	0.10002994537353516
42	113.85635209083557	fix_pre	0		10.0	40.0	2.5	/experiments/knapen_aot/oldvideos/S_production_ID_4820868.mp4	0.0	358.9748520851135	0.08329296112060547
42	113.93140912055969	response	0	2		40.0	2.5	/experiments/knapen_aot/oldvideos/S_production_ID_4820868.mp4	0.0	359.04990911483765	
42	113.93964505195618	movie	1		166.0	40.0	2.5	/experiments/knapen_aot/oldvideos/S_production_ID_4820868.mp4	0.0	359.05814504623413	2.508368968963623
42	115.67313313484192	response	1	2		40.0	2.5	/experiments/knapen_aot/oldvideos/S_production_ID_4820868.mp4	0.0	360.7916331291199	
42	115.94707202911377	response	1	2		40.0	2.5	/experiments/knapen_aot/oldvideos/S_production_ID_4820868.mp4	0.0	361.0655720233917	
42	116.18006205558777	response	1	2		40.0	2.5	/experiments/knapen_aot/oldvideos/S_production_ID_4820868.mp4	0.0	361.2985620498657	
42	116.38967299461365	response	1	2		40.0	2.5	/experiments/knapen_aot/oldvideos/S_production_ID_4820868.mp4	0.0	361.5081729888916	
42	116.4480140209198	fix_post	2		12.0	40.0	2.5	/experiments/knapen_aot/oldvideos/S_production_ID_4820868.mp4	0.0	361.56651401519775	0.09997415542602539
43	116.54798817634583	fix_pre	0		13.0	41.0	2.5	blank	1.0	361.6664881706238	0.10831499099731445
43	116.64810013771057	response	0	2		41.0	2.5	blank	1.0	361.7666001319885	
43	116.65630316734314	movie	1		301.0	41.0	2.5	blank	1.0	361.7748031616211	2.508378028869629
43	119.16468119621277	fix_post	2		12.0	41.0	2.5	blank	1.0	364.2831811904907	0.09996891021728516
44	119.26465010643005	fix_pre	0		23.0	42.0	2.5	/experiments/knapen_aot/oldvideos/R_S_yt-cM5PvgE7aJs_243.mp4	0.0	364.383150100708	0.1920778751373291
44	119.44804811477661	response	0	2		42.0	2.5	/experiments/knapen_aot/oldvideos/R_S_yt-cM5PvgE7aJs_243.mp4	0.0	364.56654810905457	
44	119.45672798156738	movie	1		301.0	42.0	2.5	/experiments/knapen_aot/oldvideos/R_S_yt-cM5PvgE7aJs_243.mp4	0.0	364.57522797584534	2.5079171657562256
44	121.96464514732361	fix_post	2		12.0	42.0	2.5	/experiments/knapen_aot/oldvideos/R_S_yt-cM5PvgE7aJs_243.mp4	0.0	367.08314514160156	0.1000368595123291
45	122.06468200683594	fix_pre	0		9.0	43.0	2.5	/experiments/knapen_aot/oldvideos/R_S_pexels-nkem-6237382.mp4	0.0	367.1831820011139	0.07493114471435547
45	122.13142514228821	response	0	2		43.0	2.5	/experiments/knapen_aot/oldvideos/R_S_pexels-nkem-6237382.mp4	0.0	367.24992513656616	
45	122.1396131515503	movie	1		164.0	43.0	2.5	/experiments/knapen_aot/oldvideos/R_S_pexels-nkem-6237382.mp4	0.0	367.25811314582825	2.5084969997406006
45	124.6481101512909	fix_post	2		12.0	43.0	2.5	/experiments/knapen_aot/oldvideos/R_S_pexels-nkem-6237382.mp4	0.0	369.76661014556885	0.09984493255615234
45	124.73138213157654	response	2	2		43.0	2.5	/experiments/knapen_aot/oldvideos/R_S_pexels-nkem-6237382.mp4	0.0	369.8498821258545	
46	124.74795508384705	fix_pre	0		34.0	44.0	2.5	/experiments/knapen_aot/oldvideos/S_DV6V38rplag_215.mp4	0.0	369.866455078125	0.28334808349609375
46	125.02306818962097	response	0	2		44.0	2.5	/experiments/knapen_aot/oldvideos/S_DV6V38rplag_215.mp4	0.0	370.1415681838989	
46	125.03130316734314	movie	1		301.0	44.0	2.5	/experiments/knapen_aot/oldvideos/S_DV6V38rplag_215.mp4	0.0	370.1498031616211	2.508366823196411
46	127.53966999053955	fix_post	2		12.0	44.0	2.5	/experiments/knapen_aot/oldvideos/S_DV6V38rplag_215.mp4	0.0	372.6581699848175	0.09998202323913574
46	127.60641407966614	response	2	2		44.0	2.5	/experiments/knapen_aot/oldvideos/S_DV6V38rplag_215.mp4	0.0	372.7249140739441	
47	127.63965201377869	fix_pre	0		29.0	45.0	2.5	/experiments/knapen_aot/oldvideos/S_yt-VfASxEzDrvc_145.mp4	0.0	372.75815200805664	0.2416059970855713
47	127.87303900718689	response	0	2		45.0	2.5	/experiments/knapen_aot/oldvideos/S_yt-VfASxEzDrvc_145.mp4	0.0	372.99153900146484	
47	127.88125801086426	movie	1		301.0	45.0	2.5	/experiments/knapen_aot/oldvideos/S_yt-VfASxEzDrvc_145.mp4	0.0	372.9997580051422	2.5083630084991455
47	130.3896210193634	fix_post	2		12.0	45.0	2.5	/experiments/knapen_aot/oldvideos/S_yt-VfASxEzDrvc_145.mp4	0.0	375.50812101364136	0.10004997253417969
47	130.42316699028015	response	2	2		45.0	2.5	/experiments/knapen_aot/oldvideos/S_yt-VfASxEzDrvc_145.mp4	0.0	375.5416669845581	
48	130.48967099189758	fix_pre	0		25.0	46.0	2.5	/experiments/knapen_aot/oldvideos/S_DV6V38rplag_215.mp4	0.0	375.60817098617554	0.20843815803527832
48	130.6897051334381	response	0	2		46.0	2.5	/experiments/knapen_aot/oldvideos/S_DV6V38rplag_215.mp4	0.0	375.80820512771606	
48	130.69810914993286	movie	1		301.0	46.0	2.5	/experiments/knapen_aot/oldvideos/S_DV6V38rplag_215.mp4	0.0	375.8166091442108	2.5082619190216064
48	132.57488203048706	response	1	2		46.0	2.5	/experiments/knapen_aot/oldvideos/S_DV6V38rplag_215.mp4	0.0	377.693382024765	
48	132.8317790031433	response	1	2		46.0	2.5	/experiments/knapen_aot/oldvideos/S_DV6V38rplag_215.mp4	0.0	377.95027899742126	
48	133.06468200683594	response	1	2		46.0	2.5	/experiments/knapen_aot/oldvideos/S_DV6V38rplag_215.mp4	0.0	378.1831820011139	
48	133.20637106895447	fix_post	2		12.0	46.0	2.5	/experiments/knapen_aot/oldvideos/S_DV6V38rplag_215.mp4	0.0	378.3248710632324	0.0999441146850586
48	133.25641512870789	response	2	2		46.0	2.5	/experiments/knapen_aot/oldvideos/S_DV6V38rplag_215.mp4	0.0	378.37491512298584	
49	133.30631518363953	fix_pre	0		51.0	47.0	2.5	/experiments/knapen_aot/oldvideos/R_S_yt-BJsMGxfjrZk_59.mp4	0.0	378.4248151779175	0.42493581771850586
49	133.72301602363586	response	0	2		47.0	2.5	/experiments/knapen_aot/oldvideos/R_S_yt-BJsMGxfjrZk_59.mp4	0.0	378.8415160179138	
49	133.73125100135803	movie	1		301.0	47.0	2.5	/experiments/knapen_aot/oldvideos/R_S_yt-BJsMGxfjrZk_59.mp4	0.0	378.849750995636	2.5083580017089844
49	136.23960900306702	fix_post	2		12.0	47.0	2.5	/experiments/knapen_aot/oldvideos/R_S_yt-BJsMGxfjrZk_59.mp4	0.0	381.35810899734497	0.09999418258666992
49	136.2418200969696	response	2	2		47.0	2.5	/experiments/knapen_aot/oldvideos/R_S_yt-BJsMGxfjrZk_59.mp4	0.0	381.36032009124756	
50	136.3396031856537	fix_pre	0		20.0	48.0	2.5	/experiments/knapen_aot/oldvideos/R_S_ILSVRC2015_train_00368000.mp4	0.0	381.45810317993164	0.1666707992553711
50	136.4980320930481	response	0	2		48.0	2.5	/experiments/knapen_aot/oldvideos/R_S_ILSVRC2015_train_00368000.mp4	0.0	381.61653208732605	
50	136.50627398490906	movie	1		301.0	48.0	2.5	/experiments/knapen_aot/oldvideos/R_S_ILSVRC2015_train_00368000.mp4	0.0	381.624773979187	2.5083181858062744
50	139.01459217071533	fix_post	2		12.0	48.0	2.5	/experiments/knapen_aot/oldvideos/R_S_ILSVRC2015_train_00368000.mp4	0.0	384.1330921649933	0.09994697570800781
51	139.11453914642334	fix_pre	0		3.0	49.0	2.5	blank	1.0	384.2330391407013	0.02503490447998047
51	139.13139414787292	response	0	2		49.0	2.5	blank	1.0	384.2498941421509	
51	139.13957405090332	movie	1		301.0	49.0	2.5	blank	1.0	384.2580740451813	2.5083439350128174
51	141.64791798591614	fix_post	2		12.0	49.0	2.5	blank	1.0	386.7664179801941	0.10000920295715332
52	141.7479271888733	fix_pre	0		14.0	50.0	2.5	/experiments/knapen_aot/oldvideos/R_S_yt-JmmyeMOFpII_29.mp4	0.0	386.86642718315125	0.11658596992492676
52	141.85630702972412	response	0	2		50.0	2.5	/experiments/knapen_aot/oldvideos/R_S_yt-JmmyeMOFpII_29.mp4	0.0	386.9748070240021	
52	141.86451315879822	movie	1		301.0	50.0	2.5	/experiments/knapen_aot/oldvideos/R_S_yt-JmmyeMOFpII_29.mp4	0.0	386.9830131530762	2.508302927017212
52	144.37281608581543	fix_post	2		12.0	50.0	2.5	/experiments/knapen_aot/oldvideos/R_S_yt-JmmyeMOFpII_29.mp4	0.0	389.4913160800934	0.10007810592651367
53	144.47289419174194	fix_pre	0		9.0	51.0	2.5	/experiments/knapen_aot/oldvideos/S_yt-I2n2eo2zoZs_112.mp4	0.0	389.5913941860199	0.07494783401489258
53	144.53968119621277	response	0	2		51.0	2.5	/experiments/knapen_aot/oldvideos/S_yt-I2n2eo2zoZs_112.mp4	0.0	389.6581811904907	
53	144.54784202575684	movie	1		301.0	51.0	2.5	/experiments/knapen_aot/oldvideos/S_yt-I2n2eo2zoZs_112.mp4	0.0	389.6663420200348	2.508385181427002
53	147.05622720718384	fix_post	2		12.0	51.0	2.5	/experiments/knapen_aot/oldvideos/S_yt-I2n2eo2zoZs_112.mp4	0.0	392.1747272014618	0.09990596771240234
54	147.15613317489624	fix_pre	0		12.0	52.0	2.5	/experiments/knapen_aot/oldvideos/R_S_yt-l_ioasf6yHg_44.mp4	0.0	392.2746331691742	0.10004782676696777
54	147.24784111976624	response	0	2		52.0	2.5	/experiments/knapen_aot/oldvideos/R_S_yt-l_ioasf6yHg_44.mp4	0.0	392.3663411140442	
54	147.2561810016632	movie	1		301.0	52.0	2.5	/experiments/knapen_aot/oldvideos/R_S_yt-l_ioasf6yHg_44.mp4	0.0	392.37468099594116	2.5084362030029297
54	149.76461720466614	fix_post	2		12.0	52.0	2.5	/experiments/knapen_aot/oldvideos/R_S_yt-l_ioasf6yHg_44.mp4	0.0	394.8831171989441	0.09988999366760254
55	149.86450719833374	fix_pre	0		6.0	53.0	2.5	/experiments/knapen_aot/oldvideos/S_yt-CH4HfNRC1hY_40.mp4	0.0	394.9830071926117	0.050292015075683594
55	149.9062521457672	response	0	2		53.0	2.5	/experiments/knapen_aot/oldvideos/S_yt-CH4HfNRC1hY_40.mp4	0.0	395.02475214004517	
55	149.91479921340942	movie	1		301.0	53.0	2.5	/experiments/knapen_aot/oldvideos/S_yt-CH4HfNRC1hY_40.mp4	0.0	395.0332992076874	2.508037805557251
55	152.42283701896667	fix_post	2		12.0	53.0	2.5	/experiments/knapen_aot/oldvideos/S_yt-CH4HfNRC1hY_40.mp4	0.0	397.54133701324463	0.10004305839538574
56	152.52288007736206	fix_pre	0		5.0	54.0	2.5	/experiments/knapen_aot/oldvideos/R_S_wc-0SAXOWjdNVGC_8.mp4	0.0	397.64138007164	0.041613101959228516
56	152.5563280582428	response	0	2		54.0	2.5	/experiments/knapen_aot/oldvideos/R_S_wc-0SAXOWjdNVGC_8.mp4	0.0	397.67482805252075	
56	152.5644931793213	movie	1		165.0	54.0	2.5	/experiments/knapen_aot/oldvideos/R_S_wc-0SAXOWjdNVGC_8.mp4	0.0	397.68299317359924	2.5083208084106445
56	155.07281398773193	fix_post	2		12.0	54.0	2.5	/experiments/knapen_aot/oldvideos/R_S_wc-0SAXOWjdNVGC_8.mp4	0.0	400.1913139820099	0.09995913505554199
57	155.17277312278748	fix_pre	0		6.0	55.0	2.5	blank	1.0	400.29127311706543	0.05002999305725098
57	155.21466898918152	response	0	2		55.0	2.5	blank	1.0	400.3331689834595	
57	155.22280311584473	movie	1		301.0	55.0	2.5	blank	1.0	400.3413031101227	2.5083789825439453
57	157.73118209838867	fix_post	2		12.0	55.0	2.5	blank	1.0	402.8496820926666	0.10036802291870117
58	157.83155012130737	fix_pre	0		18.0	56.0	2.5	/experiments/knapen_aot/oldvideos/S_pexels-c-technical-6753390_2.mp4	0.0	402.9500501155853	0.14955687522888184
58	157.96541118621826	response	0	2		56.0	2.5	/experiments/knapen_aot/oldvideos/S_pexels-c-technical-6753390_2.mp4	0.0	403.0839111804962	
58	157.98110699653625	movie	1		195.0	56.0	2.5	/experiments/knapen_aot/oldvideos/S_pexels-c-technical-6753390_2.mp4	0.0	403.0996069908142	2.5084362030029297
58	160.48954319953918	fix_post	2		12.0	56.0	2.5	/experiments/knapen_aot/oldvideos/S_pexels-c-technical-6753390_2.mp4	0.0	405.60804319381714	0.09995484352111816
58	160.52295804023743	response	2	2		56.0	2.5	/experiments/knapen_aot/oldvideos/S_pexels-c-technical-6753390_2.mp4	0.0	405.6414580345154	
59	160.5894980430603	fix_pre	0		33.0	57.0	2.5	/experiments/knapen_aot/oldvideos/S_yt-YLcmfyfIokU_64.mp4	0.0	405.70799803733826	0.2750101089477539
59	160.85613203048706	response	0	2		57.0	2.5	/experiments/knapen_aot/oldvideos/S_yt-YLcmfyfIokU_64.mp4	0.0	405.974632024765	
59	160.86450815200806	movie	1		301.0	57.0	2.5	/experiments/knapen_aot/oldvideos/S_yt-YLcmfyfIokU_64.mp4	0.0	405.983008146286	2.5083229541778564
59	163.3728311061859	fix_post	2		11.0	57.0	2.5	/experiments/knapen_aot/oldvideos/S_yt-YLcmfyfIokU_64.mp4	0.0	408.49133110046387	0.09159207344055176
59	163.45621800422668	response	2	2		57.0	2.5	/experiments/knapen_aot/oldvideos/S_yt-YLcmfyfIokU_64.mp4	0.0	408.57471799850464	
60	163.46442317962646	fix_pre	0		37.0	58.0	2.5	/experiments/knapen_aot/oldvideos/R_S_yt-q9kT_c9QjbQ_34.mp4	0.0	408.5829231739044	0.3082578182220459
60	163.76456999778748	response	0	2		58.0	2.5	/experiments/knapen_aot/oldvideos/R_S_yt-q9kT_c9QjbQ_34.mp4	0.0	408.88306999206543	
60	163.7726809978485	movie	1		301.0	58.0	2.5	/experiments/knapen_aot/oldvideos/R_S_yt-q9kT_c9QjbQ_34.mp4	0.0	408.89118099212646	2.508427143096924
60	166.28110814094543	fix_post	2		11.0	58.0	2.5	/experiments/knapen_aot/oldvideos/R_S_yt-q9kT_c9QjbQ_34.mp4	0.0	411.3996081352234	0.09184098243713379
60	166.36453914642334	response	2	2		58.0	2.5	/experiments/knapen_aot/oldvideos/R_S_yt-q9kT_c9QjbQ_34.mp4	0.0	411.4830391407013	
61	166.37294912338257	fix_pre	0		33.0	59.0	2.5	/experiments/knapen_aot/oldvideos/R_S_yt-ILARvS15SDQ_741.mp4	0.0	411.4914491176605	0.2747988700866699
61	166.63954615592957	response	0	2		59.0	2.5	/experiments/knapen_aot/oldvideos/R_S_yt-ILARvS15SDQ_741.mp4	0.0	411.7580461502075	
61	166.64774799346924	movie	1		301.0	59.0	2.5	/experiments/knapen_aot/oldvideos/R_S_yt-ILARvS15SDQ_741.mp4	0.0	411.7662479877472	2.5083250999450684
61	169.1560730934143	fix_post	2		12.0	59.0	2.5	/experiments/knapen_aot/oldvideos/R_S_yt-ILARvS15SDQ_741.mp4	0.0	414.27457308769226	0.10002994537353516
62	169.25610303878784	fix_pre	0		7.0	60.0	2.5	/experiments/knapen_aot/oldvideos/S_ILSVRC2015_train_00251004.mp4	0.0	414.3746030330658	0.05835700035095215
62	169.3061180114746	response	0	2		60.0	2.5	/experiments/knapen_aot/oldvideos/S_ILSVRC2015_train_00251004.mp4	0.0	414.42461800575256	
62	169.3144600391388	movie	1		301.0	60.0	2.5	/experiments/knapen_aot/oldvideos/S_ILSVRC2015_train_00251004.mp4	0.0	414.43296003341675	2.5082969665527344
62	171.82275700569153	fix_post	2		12.0	60.0	2.5	/experiments/knapen_aot/oldvideos/S_ILSVRC2015_train_00251004.mp4	0.0	416.9412569999695	0.09999299049377441
63	171.9227499961853	fix_pre	0		4.0	61.0	2.5	/experiments/knapen_aot/oldvideos/R_S_yt-2LCHVTVwJ5E_235.mp4	0.0	417.04124999046326	0.03393101692199707
63	171.94778513908386	response	0	2		61.0	2.5	/experiments/knapen_aot/oldvideos/R_S_yt-2LCHVTVwJ5E_235.mp4	0.0	417.0662851333618	
63	171.9566810131073	movie	1		301.0	61.0	2.5	/experiments/knapen_aot/oldvideos/R_S_yt-2LCHVTVwJ5E_235.mp4	0.0	417.07518100738525	2.5077810287475586
63	174.46446204185486	fix_post	2		12.0	61.0	2.5	/experiments/knapen_aot/oldvideos/R_S_yt-2LCHVTVwJ5E_235.mp4	0.0	419.5829620361328	0.09989500045776367
64	174.56435704231262	fix_pre	0		5.0	62.0	2.5	/experiments/knapen_aot/oldvideos/S_production_ID_4997166.mp4	0.0	419.6828570365906	0.04168415069580078
64	174.59793710708618	response	0	2		62.0	2.5	/experiments/knapen_aot/oldvideos/S_production_ID_4997166.mp4	0.0	419.71643710136414	
64	174.60604119300842	movie	1		164.0	62.0	2.5	/experiments/knapen_aot/oldvideos/S_production_ID_4997166.mp4	0.0	419.7245411872864	2.508565902709961
64	177.11460709571838	fix_post	2		12.0	62.0	2.5	/experiments/knapen_aot/oldvideos/S_production_ID_4997166.mp4	0.0	422.23310708999634	0.09979891777038574
65	177.21440601348877	fix_pre	0		4.0	63.0	2.5	blank	1.0	422.3329060077667	0.033889055252075195
65	177.23198819160461	response	0	2		63.0	2.5	blank	1.0	422.35048818588257	
65	177.24829506874084	movie	1		301.0	63.0	2.5	blank	1.0	422.3667950630188	2.507690906524658
65	179.7559859752655	fix_post	2		12.0	63.0	2.5	blank	1.0	424.87448596954346	0.10007119178771973
66	179.85605716705322	fix_pre	0		14.0	64.0	2.5	/experiments/knapen_aot/oldvideos/R_S_yt-XPRNMelf5Fs_235.mp4	0.0	424.9745571613312	0.1166679859161377
66	179.96448516845703	response	0	2		64.0	2.5	/experiments/knapen_aot/oldvideos/R_S_yt-XPRNMelf5Fs_235.mp4	0.0	425.082985162735	
66	179.97272515296936	movie	1		301.0	64.0	2.5	/experiments/knapen_aot/oldvideos/R_S_yt-XPRNMelf5Fs_235.mp4	0.0	425.0912251472473	2.5084729194641113
66	182.48119807243347	fix_post	2		12.0	64.0	2.5	/experiments/knapen_aot/oldvideos/R_S_yt-XPRNMelf5Fs_235.mp4	0.0	427.5996980667114	0.10002398490905762
67	182.58122205734253	fix_pre	0		3.0	65.0	2.5	/experiments/knapen_aot/oldvideos/S_yt-aQfM-NhNSsA_136.mp4	0.0	427.6997220516205	0.024868011474609375
67	182.59783911705017	response	0	2		65.0	2.5	/experiments/knapen_aot/oldvideos/S_yt-aQfM-NhNSsA_136.mp4	0.0	427.7163391113281	
67	182.60609006881714	movie	1		301.0	65.0	2.5	/experiments/knapen_aot/oldvideos/S_yt-aQfM-NhNSsA_136.mp4	0.0	427.7245900630951	2.5084619522094727
67	185.1145520210266	fix_post	2		12.0	65.0	2.5	/experiments/knapen_aot/oldvideos/S_yt-aQfM-NhNSsA_136.mp4	0.0	430.23305201530457	0.09986305236816406
68	185.21441507339478	fix_pre	0		10.0	66.0	2.5	/experiments/knapen_aot/oldvideos/S_yt-2kPrGwVmRfE_169.mp4	0.0	430.33291506767273	0.08322501182556152
68	185.28950905799866	response	0	2		66.0	2.5	/experiments/knapen_aot/oldvideos/S_yt-2kPrGwVmRfE_169.mp4	0.0	430.4080090522766	
68	185.29764008522034	movie	1		301.0	66.0	2.5	/experiments/knapen_aot/oldvideos/S_yt-2kPrGwVmRfE_169.mp4	0.0	430.4161400794983	2.508368968963623
68	187.80600905418396	fix_post	2		12.0	66.0	2.5	/experiments/knapen_aot/oldvideos/S_yt-2kPrGwVmRfE_169.mp4	0.0	432.9245090484619	0.10016608238220215
69	187.90617513656616	fix_pre	0		7.0	67.0	2.5	/experiments/knapen_aot/oldvideos/R_S_yt-2ZsK7zSCJ2w_67.mp4	0.0	433.0246751308441	0.05825400352478027
69	187.94861698150635	response	0	2		67.0	2.5	/experiments/knapen_aot/oldvideos/R_S_yt-2ZsK7zSCJ2w_67.mp4	0.0	433.0671169757843	
69	187.96442914009094	movie	1		301.0	67.0	2.5	/experiments/knapen_aot/oldvideos/R_S_yt-2ZsK7zSCJ2w_67.mp4	0.0	433.0829291343689	2.508246898651123
69	190.47267603874207	fix_post	2		12.0	67.0	2.5	/experiments/knapen_aot/oldvideos/R_S_yt-2ZsK7zSCJ2w_67.mp4	0.0	435.59117603302	0.10003304481506348
70	190.57270908355713	fix_pre	0		3.0	68.0	2.5	/experiments/knapen_aot/oldvideos/S_yt-4r-oovk9JWg_85.mp4	0.0	435.6912090778351	0.02493596076965332
70	190.58310198783875	response	0	2		68.0	2.5	/experiments/knapen_aot/oldvideos/S_yt-4r-oovk9JWg_85.mp4	0.0	435.7016019821167	
70	190.59764504432678	movie	1		301.0	68.0	2.5	/experiments/knapen_aot/oldvideos/S_yt-4r-oovk9JWg_85.mp4	0.0	435.71614503860474	2.5083401203155518
70	193.10598516464233	fix_post	2		12.0	68.0	2.5	/experiments/knapen_aot/oldvideos/S_yt-4r-oovk9JWg_85.mp4	0.0	438.2244851589203	0.10003781318664551
71	193.20602297782898	fix_pre	0		16.0	69.0	2.5	blank	1.0	438.32452297210693	0.13333606719970703
71	193.33108711242676	response	0	2		69.0	2.5	blank	1.0	438.4495871067047	
71	193.3393590450287	movie	1		301.0	69.0	2.5	blank	1.0	438.45785903930664	2.508223056793213
71	195.8475821018219	fix_post	2		12.0	69.0	2.5	blank	1.0	440.96608209609985	0.1001429557800293
72	195.94772505760193	fix_pre	0		16.0	70.0	2.5	/experiments/knapen_aot/oldvideos/R_S_yt-6KJ_yZR-Jco_14.mp4	0.0	441.0662250518799	0.13332509994506836
72	196.07275009155273	response	0	2		70.0	2.5	/experiments/knapen_aot/oldvideos/R_S_yt-6KJ_yZR-Jco_14.mp4	0.0	441.1912500858307	
72	196.081050157547	movie	1		301.0	70.0	2.5	/experiments/knapen_aot/oldvideos/R_S_yt-6KJ_yZR-Jco_14.mp4	0.0	441.19955015182495	2.5083389282226562
72	198.58938908576965	fix_post	2		12.0	70.0	2.5	/experiments/knapen_aot/oldvideos/R_S_yt-6KJ_yZR-Jco_14.mp4	0.0	443.7078890800476	0.10004401206970215
73	198.68943309783936	fix_pre	0		18.0	71.0	2.5	/experiments/knapen_aot/oldvideos/R_S_yt-0Zze3Ff12Ys_58.mp4	0.0	443.8079330921173	0.14986610412597656
73	198.831050157547	response	0	2		71.0	2.5	/experiments/knapen_aot/oldvideos/R_S_yt-0Zze3Ff12Ys_58.mp4	0.0	443.94955015182495	
73	198.83929920196533	movie	1		301.0	71.0	2.5	/experiments/knapen_aot/oldvideos/R_S_yt-0Zze3Ff12Ys_58.mp4	0.0	443.9577991962433	2.5083630084991455
73	201.34766221046448	fix_post	2		12.0	71.0	2.5	/experiments/knapen_aot/oldvideos/R_S_yt-0Zze3Ff12Ys_58.mp4	0.0	446.46616220474243	0.09998798370361328
74	201.4476501941681	fix_pre	0		22.0	72.0	2.5	/experiments/knapen_aot/oldvideos/S_ILSVRC2015_train_00743006.mp4	0.0	446.56615018844604	0.18329381942749023
74	201.62279200553894	response	0	2		72.0	2.5	/experiments/knapen_aot/oldvideos/S_ILSVRC2015_train_00743006.mp4	0.0	446.7412919998169	
74	201.63094401359558	movie	1		301.0	72.0	2.5	/experiments/knapen_aot/oldvideos/S_ILSVRC2015_train_00743006.mp4	0.0	446.74944400787354	2.5083580017089844
74	204.13930201530457	fix_post	2		12.0	72.0	2.5	/experiments/knapen_aot/oldvideos/S_ILSVRC2015_train_00743006.mp4	0.0	449.2578020095825	0.09996414184570312
75	204.23926615715027	fix_pre	0		30.0	73.0	2.5	/experiments/knapen_aot/oldvideos/S_pexels-kampus-production-6022792.mp4	0.0	449.3577661514282	0.2500138282775879
75	204.48108315467834	response	0	2		73.0	2.5	/experiments/knapen_aot/oldvideos/S_pexels-kampus-production-6022792.mp4	0.0	449.5995831489563	
75	204.48927998542786	movie	1		167.0	73.0	2.5	/experiments/knapen_aot/oldvideos/S_pexels-kampus-production-6022792.mp4	0.0	449.6077799797058	2.5083889961242676
75	206.99766898155212	fix_post	2		12.0	73.0	2.5	/experiments/knapen_aot/oldvideos/S_pexels-kampus-production-6022792.mp4	0.0	452.1161689758301	0.10010910034179688
76	207.09777808189392	fix_pre	0		4.0	74.0	2.5	/experiments/knapen_aot/oldvideos/R_S_ILSVRC2015_train_00568002.mp4	0.0	452.2162780761719	0.033154964447021484
76	207.12273001670837	response	0	2		74.0	2.5	/experiments/knapen_aot/oldvideos/R_S_ILSVRC2015_train_00568002.mp4	0.0	452.2412300109863	
76	207.13093304634094	movie	1		301.0	74.0	2.5	/experiments/knapen_aot/oldvideos/R_S_ILSVRC2015_train_00568002.mp4	0.0	452.2494330406189	2.508342981338501
76	209.63927602767944	fix_post	2		12.0	74.0	2.5	/experiments/knapen_aot/oldvideos/R_S_ILSVRC2015_train_00568002.mp4	0.0	454.7577760219574	0.1000051498413086
77	209.73928117752075	fix_pre	0		13.0	75.0	2.5	/experiments/knapen_aot/oldvideos/R_S_comp_L004_C011_PS_v01_SDR_PS_20180925_SDR_2K_AVC.mp4	0.0	454.8577811717987	0.1083059310913086
77	209.83939003944397	response	0	2		75.0	2.5	/experiments/knapen_aot/oldvideos/R_S_comp_L004_C011_PS_v01_SDR_PS_20180925_SDR_2K_AVC.mp4	0.0	454.9578900337219	
77	209.84758710861206	movie	1		167.0	75.0	2.5	/experiments/knapen_aot/oldvideos/R_S_comp_L004_C011_PS_v01_SDR_PS_20180925_SDR_2K_AVC.mp4	0.0	454.96608710289	2.508415937423706
77	212.35600304603577	fix_post	2		12.0	75.0	2.5	/experiments/knapen_aot/oldvideos/R_S_comp_L004_C011_PS_v01_SDR_PS_20180925_SDR_2K_AVC.mp4	0.0	457.4745030403137	0.09984612464904785
77	212.3977370262146	response	2	2		75.0	2.5	/experiments/knapen_aot/oldvideos/R_S_comp_L004_C011_PS_v01_SDR_PS_20180925_SDR_2K_AVC.mp4	0.0	457.51623702049255	
78	212.45584917068481	fix_pre	0		30.0	76.0	2.5	/experiments/knapen_aot/oldvideos/R_S_yt-lCb_efvJcdE_5.mp4	0.0	457.57434916496277	0.25002002716064453
78	212.69768404960632	response	0	2		76.0	2.5	/experiments/knapen_aot/oldvideos/R_S_yt-lCb_efvJcdE_5.mp4	0.0	457.8161840438843	
78	212.70586919784546	movie	1		301.0	76.0	2.5	/experiments/knapen_aot/oldvideos/R_S_yt-lCb_efvJcdE_5.mp4	0.0	457.8243691921234	2.5084309577941895
78	214.75598001480103	response	1	2		76.0	2.5	/experiments/knapen_aot/oldvideos/R_S_yt-lCb_efvJcdE_5.mp4	0.0	459.874480009079	
78	215.03265118598938	response	1	2		76.0	2.5	/experiments/knapen_aot/oldvideos/R_S_yt-lCb_efvJcdE_5.mp4	0.0	460.15115118026733	
78	215.21430015563965	fix_post	2		12.0	76.0	2.5	/experiments/knapen_aot/oldvideos/R_S_yt-lCb_efvJcdE_5.mp4	0.0	460.3328001499176	0.09984183311462402
78	215.2726171016693	response	2	2		76.0	2.5	/experiments/knapen_aot/oldvideos/R_S_yt-lCb_efvJcdE_5.mp4	0.0	460.39111709594727	
79	215.31414198875427	fix_pre	0		28.0	77.0	2.5	blank	1.0	460.4326419830322	0.23343801498413086
79	215.53932118415833	response	0	2		77.0	2.5	blank	1.0	460.6578211784363	
79	215.5475800037384	movie	1		301.0	77.0	2.5	blank	1.0	460.66607999801636	2.508380174636841
79	218.05596017837524	fix_post	2		12.0	77.0	2.5	blank	1.0	463.1744601726532	0.1000068187713623
80	218.1559669971466	fix_pre	0		16.0	78.0	2.5	/experiments/knapen_aot/oldvideos/S_comp_A008_C007_011550_CC_v01_SDR_PS_FINAL_20180709_SDR_2K_AVC.mp4	0.0	463.27446699142456	0.13323402404785156
80	218.28091406822205	response	0	2		78.0	2.5	/experiments/knapen_aot/oldvideos/S_comp_A008_C007_011550_CC_v01_SDR_PS_FINAL_20180709_SDR_2K_AVC.mp4	0.0	463.3994140625	
80	218.28920102119446	movie	1		165.0	78.0	2.5	/experiments/knapen_aot/oldvideos/S_comp_A008_C007_011550_CC_v01_SDR_PS_FINAL_20180709_SDR_2K_AVC.mp4	0.0	463.4077010154724	2.508378028869629
80	220.7975790500641	fix_post	2		12.0	78.0	2.5	/experiments/knapen_aot/oldvideos/S_comp_A008_C007_011550_CC_v01_SDR_PS_FINAL_20180709_SDR_2K_AVC.mp4	0.0	465.91607904434204	0.09996914863586426
81	220.89754819869995	fix_pre	0		14.0	79.0	2.5	/experiments/knapen_aot/oldvideos/S_comp_A001_C004_1207W5_v23_SDR_FINAL_20180706_SDR_2K_AVC.mp4	0.0	466.0160481929779	0.11665678024291992
81	221.00600218772888	response	0	2		79.0	2.5	/experiments/knapen_aot/oldvideos/S_comp_A001_C004_1207W5_v23_SDR_FINAL_20180706_SDR_2K_AVC.mp4	0.0	466.12450218200684	
81	221.01420497894287	movie	1		164.0	79.0	2.5	/experiments/knapen_aot/oldvideos/S_comp_A001_C004_1207W5_v23_SDR_FINAL_20180706_SDR_2K_AVC.mp4	0.0	466.1327049732208	2.5083532333374023
81	223.34482717514038	response	1	2		79.0	2.5	/experiments/knapen_aot/oldvideos/S_comp_A001_C004_1207W5_v23_SDR_FINAL_20180706_SDR_2K_AVC.mp4	0.0	468.46332716941833	
81	223.52255821228027	fix_post	2		12.0	79.0	2.5	/experiments/knapen_aot/oldvideos/S_comp_A001_C004_1207W5_v23_SDR_FINAL_20180706_SDR_2K_AVC.mp4	0.0	468.6410582065582	0.09997892379760742
82	223.62253713607788	fix_pre	0		5.0	80.0	2.5	/experiments/knapen_aot/oldvideos/R_S_ILSVRC2015_train_00219004.mp4	0.0	468.74103713035583	0.04170799255371094
82	223.6559760570526	response	0	2		80.0	2.5	/experiments/knapen_aot/oldvideos/R_S_ILSVRC2015_train_00219004.mp4	0.0	468.77447605133057	
82	223.6642451286316	movie	1		301.0	80.0	2.5	/experiments/knapen_aot/oldvideos/R_S_ILSVRC2015_train_00219004.mp4	0.0	468.78274512290955	2.508316993713379
82	226.17256212234497	fix_post	2		12.0	80.0	2.5	/experiments/knapen_aot/oldvideos/R_S_ILSVRC2015_train_00219004.mp4	0.0	471.2910621166229	0.09994697570800781
83	226.27250909805298	fix_pre	0		6.0	81.0	2.5	/experiments/knapen_aot/oldvideos/S_yt-11S5tcT2Tm0_254.mp4	0.0	471.39100909233093	0.05001401901245117
83	226.31432104110718	response	0	2		81.0	2.5	/experiments/knapen_aot/oldvideos/S_yt-11S5tcT2Tm0_254.mp4	0.0	471.43282103538513	
83	226.32252311706543	movie	1		301.0	81.0	2.5	/experiments/knapen_aot/oldvideos/S_yt-11S5tcT2Tm0_254.mp4	0.0	471.4410231113434	2.5083398818969727
83	228.7476351261139	response	1	2		81.0	2.5	/experiments/knapen_aot/oldvideos/S_yt-11S5tcT2Tm0_254.mp4	0.0	473.86613512039185	
83	228.8308629989624	fix_post	2		12.0	81.0	2.5	/experiments/knapen_aot/oldvideos/S_yt-11S5tcT2Tm0_254.mp4	0.0	473.94936299324036	0.10001206398010254
84	228.9308750629425	fix_pre	0		10.0	82.0	2.5	/experiments/knapen_aot/oldvideos/S_yt-Q5Mfl5NdT7g_3.mp4	0.0	474.04937505722046	0.08340001106262207
84	229.00589799880981	response	0	2		82.0	2.5	/experiments/knapen_aot/oldvideos/S_yt-Q5Mfl5NdT7g_3.mp4	0.0	474.12439799308777	
84	229.01427507400513	movie	1		301.0	82.0	2.5	/experiments/knapen_aot/oldvideos/S_yt-Q5Mfl5NdT7g_3.mp4	0.0	474.1327750682831	2.5083730220794678
84	229.22254419326782	response	1	2		82.0	2.5	/experiments/knapen_aot/oldvideos/S_yt-Q5Mfl5NdT7g_3.mp4	0.0	474.3410441875458	
84	231.18086409568787	response	1	2		82.0	2.5	/experiments/knapen_aot/oldvideos/S_yt-Q5Mfl5NdT7g_3.mp4	0.0	476.2993640899658	
84	231.46425819396973	response	1	2		82.0	2.5	/experiments/knapen_aot/oldvideos/S_yt-Q5Mfl5NdT7g_3.mp4	0.0	476.5827581882477	
84	231.5226480960846	fix_post	2		12.0	82.0	2.5	/experiments/knapen_aot/oldvideos/S_yt-Q5Mfl5NdT7g_3.mp4	0.0	476.64114809036255	0.09983110427856445
85	231.62247920036316	fix_pre	0		8.0	83.0	2.5	blank	1.0	476.7409791946411	0.0666959285736084
85	231.68085408210754	response	0	2		83.0	2.5	blank	1.0	476.7993540763855	
85	231.68917512893677	movie	1		301.0	83.0	2.5	blank	1.0	476.8076751232147	2.508305072784424
85	234.1974802017212	fix_post	2		12.0	83.0	2.5	blank	1.0	479.31598019599915	0.10010194778442383
87	234.29758214950562	stim	0		198.0					479.41608214378357	1.6510939598083496
87	234.29881119728088	response	0	2						479.41731119155884	
87	235.941899061203	response	0	space						481.06039905548096	
