trial_nr	onset	event_type	phase	response	nr_frames	movie_index	movie_duration	movie_file	blank	onset_abs	duration
0	0.13332486152648926	stim	0		94.0					137.32132601737976	0.783297061920166
0	0.908499002456665	response	0	space						138.09650015830994	
1	0.9166219234466553	stim	0		121.0					138.10462307929993	1.0080149173736572
1	1.9246368408203125	stim	1		120.0					139.11263799667358	0.9999821186065674
1	2.9165380001068115	response	1	space						140.10453915596008	
2	2.92461895942688	fix_pre	0		63.0	0.0	2.5	/experiments/knapen_aot/videos/R_S_yt-iO0efV_PV-k_102.mp4	0.0	140.11262011528015	0.5249650478363037
2	3.441382884979248	response	0	space		0.0	2.5	/experiments/knapen_aot/videos/R_S_yt-iO0efV_PV-k_102.mp4	0.0	140.62938404083252	
2	3.4495840072631836	movie	1		301.0	0.0	2.5	/experiments/knapen_aot/videos/R_S_yt-iO0efV_PV-k_102.mp4	0.0	140.63758516311646	2.508349895477295
2	5.9579339027404785	fix_post	2		12.0	0.0	2.5	/experiments/knapen_aot/videos/R_S_yt-iO0efV_PV-k_102.mp4	0.0	143.14593505859375	0.10000300407409668
3	6.057936906814575	fix_pre	0		21.0	1.0	2.5	/experiments/knapen_aot/videos/R_S_yt--jzScB82vKI_90.mp4	0.0	143.24593806266785	0.1757829189300537
3	6.229039907455444	response	0	2		1.0	2.5	/experiments/knapen_aot/videos/R_S_yt--jzScB82vKI_90.mp4	0.0	143.41704106330872	
3	6.233719825744629	movie	1		298.0	1.0	2.5	/experiments/knapen_aot/videos/R_S_yt--jzScB82vKI_90.mp4	0.0	143.4217209815979	2.507500171661377
3	8.741219997406006	fix_post	2		12.0	1.0	2.5	/experiments/knapen_aot/videos/R_S_yt--jzScB82vKI_90.mp4	0.0	145.92922115325928	0.10007882118225098
4	8.841298818588257	fix_pre	0		13.0	2.0	2.5	/experiments/knapen_aot/videos/S_yt-7v3kHYBe7-E_8.mp4	0.0	146.02929997444153	0.10829019546508789
4	8.941404819488525	response	0	2		2.0	2.5	/experiments/knapen_aot/videos/S_yt-7v3kHYBe7-E_8.mp4	0.0	146.1294059753418	
4	8.949589014053345	movie	1		301.0	2.0	2.5	/experiments/knapen_aot/videos/S_yt-7v3kHYBe7-E_8.mp4	0.0	146.13759016990662	2.50834584236145
4	11.457934856414795	fix_post	2		12.0	2.0	2.5	/experiments/knapen_aot/videos/S_yt-7v3kHYBe7-E_8.mp4	0.0	148.64593601226807	0.0999600887298584
5	11.557894945144653	fix_pre	0		19.0	3.0	2.5	/experiments/knapen_aot/videos/R_S_ILSVRC2015_train_00538000.mp4	0.0	148.74589610099792	0.15824103355407715
5	11.708043813705444	response	0	2		3.0	2.5	/experiments/knapen_aot/videos/R_S_ILSVRC2015_train_00538000.mp4	0.0	148.89604496955872	
5	11.71613597869873	movie	1		301.0	3.0	2.5	/experiments/knapen_aot/videos/R_S_ILSVRC2015_train_00538000.mp4	0.0	148.904137134552	2.508424997329712
5	14.224560976028442	fix_post	2		12.0	3.0	2.5	/experiments/knapen_aot/videos/R_S_ILSVRC2015_train_00538000.mp4	0.0	151.4125621318817	0.09996294975280762
6	14.32452392578125	fix_pre	0		8.0	4.0	2.5	/experiments/knapen_aot/videos/R_S_ILSVRC2015_train_00599000.mp4	0.0	151.51252508163452	0.06666207313537598
6	14.38300085067749	response	0	2		4.0	2.5	/experiments/knapen_aot/videos/R_S_ILSVRC2015_train_00599000.mp4	0.0	151.57100200653076	
6	14.391185998916626	movie	1		301.0	4.0	2.5	/experiments/knapen_aot/videos/R_S_ILSVRC2015_train_00599000.mp4	0.0	151.5791871547699	2.5083580017089844
6	16.89954400062561	fix_post	2		12.0	4.0	2.5	/experiments/knapen_aot/videos/R_S_ILSVRC2015_train_00599000.mp4	0.0	154.08754515647888	0.1000068187713623
7	16.999550819396973	fix_pre	0		10.0	5.0	2.5	/experiments/knapen_aot/videos/R_S_yt-iHmshS63rBc_329.mp4	0.0	154.18755197525024	0.08331704139709473
7	17.067258834838867	response	0	2		5.0	2.5	/experiments/knapen_aot/videos/R_S_yt-iHmshS63rBc_329.mp4	0.0	154.25525999069214	
7	17.082867860794067	movie	1		301.0	5.0	2.5	/experiments/knapen_aot/videos/R_S_yt-iHmshS63rBc_329.mp4	0.0	154.27086901664734	2.5082969665527344
7	19.5911648273468	fix_post	2		12.0	5.0	2.5	/experiments/knapen_aot/videos/R_S_yt-iHmshS63rBc_329.mp4	0.0	156.77916598320007	0.1000511646270752
8	19.691215991973877	fix_pre	0		14.0	6.0	2.5	/experiments/knapen_aot/videos/S_ILSVRC2015_train_00547001.mp4	0.0	156.87921714782715	0.1166229248046875
8	19.799705028533936	response	0	2		6.0	2.5	/experiments/knapen_aot/videos/S_ILSVRC2015_train_00547001.mp4	0.0	156.9877061843872	
8	19.807838916778564	movie	1		301.0	6.0	2.5	/experiments/knapen_aot/videos/S_ILSVRC2015_train_00547001.mp4	0.0	156.99584007263184	2.5084071159362793
8	22.316246032714844	fix_post	2		12.0	6.0	2.5	/experiments/knapen_aot/videos/S_ILSVRC2015_train_00547001.mp4	0.0	159.50424718856812	0.0999758243560791
9	22.416221857070923	fix_pre	0		4.0	7.0	2.5	blank	1.0	159.6042230129242	0.033421993255615234
9	22.44136095046997	response	0	2		7.0	2.5	blank	1.0	159.62936210632324	
9	22.449643850326538	movie	1		301.0	7.0	2.5	blank	1.0	159.6376450061798	2.5082390308380127
9	24.95788288116455	fix_post	2		12.0	7.0	2.5	blank	1.0	162.14588403701782	0.09997296333312988
10	25.05785584449768	fix_pre	0		21.0	8.0	2.5	/experiments/knapen_aot/videos/R_S_yt-e_eOzV7qMZo_374.mp4	0.0	162.24585700035095	0.17567706108093262
10	25.224594831466675	response	0	2		8.0	2.5	/experiments/knapen_aot/videos/R_S_yt-e_eOzV7qMZo_374.mp4	0.0	162.41259598731995	
10	25.233532905578613	movie	1		298.0	8.0	2.5	/experiments/knapen_aot/videos/R_S_yt-e_eOzV7qMZo_374.mp4	0.0	162.42153406143188	2.507694959640503
10	27.741227865219116	fix_post	2		12.0	8.0	2.5	/experiments/knapen_aot/videos/R_S_yt-e_eOzV7qMZo_374.mp4	0.0	164.9292290210724	0.09983396530151367
11	27.84106183052063	fix_pre	0		7.0	9.0	2.5	/experiments/knapen_aot/videos/S_yt-TxU1H5A6BaQ_52.mp4	0.0	165.0290629863739	0.05913400650024414
11	27.89133381843567	response	0	2		9.0	2.5	/experiments/knapen_aot/videos/S_yt-TxU1H5A6BaQ_52.mp4	0.0	165.07933497428894	
11	27.900195837020874	movie	1		301.0	9.0	2.5	/experiments/knapen_aot/videos/S_yt-TxU1H5A6BaQ_52.mp4	0.0	165.08819699287415	2.5075831413269043
11	30.40777897834778	fix_post	2		12.0	9.0	2.5	/experiments/knapen_aot/videos/S_yt-TxU1H5A6BaQ_52.mp4	0.0	167.59578013420105	0.1000509262084961
12	30.507829904556274	fix_pre	0		22.0	10.0	2.5	/experiments/knapen_aot/videos/R_S_yt-rZA9zXR-A6s_426.mp4	0.0	167.69583106040955	0.18402695655822754
12	30.682898998260498	response	0	2		10.0	2.5	/experiments/knapen_aot/videos/R_S_yt-rZA9zXR-A6s_426.mp4	0.0	167.87090015411377	
12	30.691856861114502	movie	1		301.0	10.0	2.5	/experiments/knapen_aot/videos/R_S_yt-rZA9zXR-A6s_426.mp4	0.0	167.87985801696777	2.5075860023498535
12	33.199442863464355	fix_post	2		12.0	10.0	2.5	/experiments/knapen_aot/videos/R_S_yt-rZA9zXR-A6s_426.mp4	0.0	170.38744401931763	0.09998917579650879
13	33.299432039260864	fix_pre	0		1.0	11.0	2.5	/experiments/knapen_aot/videos/S_wc-NzEeGIXLxvwp_19.mp4	0.0	170.48743319511414	0.010620832443237305
13	33.30111598968506	response	0	2		11.0	2.5	/experiments/knapen_aot/videos/S_wc-NzEeGIXLxvwp_19.mp4	0.0	170.48911714553833	
13	33.3100528717041	movie	1		161.0	11.0	2.5	/experiments/knapen_aot/videos/S_wc-NzEeGIXLxvwp_19.mp4	0.0	170.49805402755737	2.5060040950775146
13	35.816056966781616	fix_post	2		12.0	11.0	2.5	/experiments/knapen_aot/videos/S_wc-NzEeGIXLxvwp_19.mp4	0.0	173.0040581226349	0.10004305839538574
14	35.916100025177	fix_pre	0		9.0	12.0	2.5	blank	1.0	173.10410118103027	0.07501697540283203
14	35.982932806015015	response	0	2		12.0	2.5	blank	1.0	173.1709339618683	
14	35.991117000579834	movie	1		301.0	12.0	2.5	blank	1.0	173.1791181564331	2.508281946182251
14	38.499398946762085	fix_post	2		12.0	12.0	2.5	blank	1.0	175.68740010261536	0.09998703002929688
15	38.59938597679138	fix_pre	0		26.0	13.0	2.5	/experiments/knapen_aot/videos/S_yt_R-JarqKC4X8nM_4.mp4	0.0	175.78738713264465	0.21732306480407715
15	38.80789303779602	response	0	2		13.0	2.5	/experiments/knapen_aot/videos/S_yt_R-JarqKC4X8nM_4.mp4	0.0	175.9958941936493	
15	38.81670904159546	movie	1		301.0	13.0	2.5	/experiments/knapen_aot/videos/S_yt_R-JarqKC4X8nM_4.mp4	0.0	176.00471019744873	2.5078659057617188
15	41.32457494735718	fix_post	2		12.0	13.0	2.5	/experiments/knapen_aot/videos/S_yt_R-JarqKC4X8nM_4.mp4	0.0	178.51257610321045	0.09991097450256348
16	41.42448592185974	fix_pre	0		10.0	14.0	2.5	/experiments/knapen_aot/videos/R_S_yt-1RVw8p6Dw2Q_20.mp4	0.0	178.612487077713	0.08324098587036133
16	41.49954795837402	response	0	2		14.0	2.5	/experiments/knapen_aot/videos/R_S_yt-1RVw8p6Dw2Q_20.mp4	0.0	178.6875491142273	
16	41.5077269077301	movie	1		301.0	14.0	2.5	/experiments/knapen_aot/videos/R_S_yt-1RVw8p6Dw2Q_20.mp4	0.0	178.69572806358337	2.5083560943603516
16	44.016083002090454	fix_post	2		12.0	14.0	2.5	/experiments/knapen_aot/videos/R_S_yt-1RVw8p6Dw2Q_20.mp4	0.0	181.20408415794373	0.09995889663696289
17	44.11604189872742	fix_pre	0		10.0	15.0	2.5	/experiments/knapen_aot/videos/S_production_ID_4510622.mp4	0.0	181.3040430545807	0.08338713645935059
17	44.19207286834717	response	0	2		15.0	2.5	/experiments/knapen_aot/videos/S_production_ID_4510622.mp4	0.0	181.38007402420044	
17	44.19942903518677	movie	1		166.0	15.0	2.5	/experiments/knapen_aot/videos/S_production_ID_4510622.mp4	0.0	181.38743019104004	2.5083138942718506
17	46.70774292945862	fix_post	2		12.0	15.0	2.5	/experiments/knapen_aot/videos/S_production_ID_4510622.mp4	0.0	183.8957440853119	0.10000205039978027
18	46.8077449798584	fix_pre	0		8.0	16.0	2.5	/experiments/knapen_aot/videos/R_S_pexels-rodnae-productions-5993237.mp4	0.0	183.99574613571167	0.06666898727416992
18	46.86614799499512	response	0	2		16.0	2.5	/experiments/knapen_aot/videos/R_S_pexels-rodnae-productions-5993237.mp4	0.0	184.0541491508484	
18	46.87441396713257	movie	1		164.0	16.0	2.5	/experiments/knapen_aot/videos/R_S_pexels-rodnae-productions-5993237.mp4	0.0	184.06241512298584	2.508354902267456
18	49.382768869400024	fix_post	2		12.0	16.0	2.5	/experiments/knapen_aot/videos/R_S_pexels-rodnae-productions-5993237.mp4	0.0	186.5707700252533	0.0999901294708252
19	49.48275899887085	fix_pre	0		2.0	17.0	2.5	/experiments/knapen_aot/videos/R_S_yt-l_ioasf6yHg_44.mp4	0.0	186.67076015472412	0.01668691635131836
19	49.491262912750244	response	0	2		17.0	2.5	/experiments/knapen_aot/videos/R_S_yt-l_ioasf6yHg_44.mp4	0.0	186.67926406860352	
19	49.49944591522217	movie	1		301.0	17.0	2.5	/experiments/knapen_aot/videos/R_S_yt-l_ioasf6yHg_44.mp4	0.0	186.68744707107544	2.5083041191101074
19	52.007750034332275	fix_post	2		12.0	17.0	2.5	/experiments/knapen_aot/videos/R_S_yt-l_ioasf6yHg_44.mp4	0.0	189.19575119018555	0.09993696212768555
20	52.10768699645996	fix_pre	0		23.0	18.0	2.5	/experiments/knapen_aot/videos/S_pexels-cottonbro-6789234.mp4	0.0	189.29568815231323	0.19168496131896973
20	52.29108381271362	response	0	2		18.0	2.5	/experiments/knapen_aot/videos/S_pexels-cottonbro-6789234.mp4	0.0	189.4790849685669	
20	52.29937195777893	movie	1		188.0	18.0	2.5	/experiments/knapen_aot/videos/S_pexels-cottonbro-6789234.mp4	0.0	189.4873731136322	2.5083038806915283
20	54.80767583847046	fix_post	2		12.0	18.0	2.5	/experiments/knapen_aot/videos/S_pexels-cottonbro-6789234.mp4	0.0	191.99567699432373	0.10004305839538574
21	54.907718896865845	fix_pre	0		12.0	19.0	2.5	blank	1.0	192.09572005271912	0.09990906715393066
21	54.99951481819153	response	0	2		19.0	2.5	blank	1.0	192.1875159740448	
21	55.007627964019775	movie	1		301.0	19.0	2.5	blank	1.0	192.19562911987305	2.5083389282226562
21	57.51596689224243	fix_post	2		12.0	19.0	2.5	blank	1.0	194.7039680480957	0.10006999969482422
22	57.616036891937256	fix_pre	0		14.0	20.0	2.5	/experiments/knapen_aot/videos/R_S_yt-uSHBdUi8_V0_24.mp4	0.0	194.80403804779053	0.11716604232788086
22	57.716930866241455	response	0	2		20.0	2.5	/experiments/knapen_aot/videos/R_S_yt-uSHBdUi8_V0_24.mp4	0.0	194.90493202209473	
22	57.73320293426514	movie	1		299.0	20.0	2.5	/experiments/knapen_aot/videos/R_S_yt-uSHBdUi8_V0_24.mp4	0.0	194.9212040901184	2.507807970046997
22	60.241010904312134	fix_post	2		12.0	20.0	2.5	/experiments/knapen_aot/videos/R_S_yt-uSHBdUi8_V0_24.mp4	0.0	197.4290120601654	0.10001301765441895
23	60.34102392196655	fix_pre	0		13.0	21.0	2.5	/experiments/knapen_aot/videos/S_ILSVRC2015_train_00411000.mp4	0.0	197.52902507781982	0.10836911201477051
23	60.44116497039795	response	0	2		21.0	2.5	/experiments/knapen_aot/videos/S_ILSVRC2015_train_00411000.mp4	0.0	197.62916612625122	
23	60.44939303398132	movie	1		301.0	21.0	2.5	/experiments/knapen_aot/videos/S_ILSVRC2015_train_00411000.mp4	0.0	197.6373941898346	2.508319854736328
23	62.95771288871765	fix_post	2		12.0	21.0	2.5	/experiments/knapen_aot/videos/S_ILSVRC2015_train_00411000.mp4	0.0	200.14571404457092	0.09999704360961914
24	63.05770993232727	fix_pre	0		23.0	22.0	2.5	/experiments/knapen_aot/videos/R_S_wc-Mf8SQpviaD6D_17.mp4	0.0	200.24571108818054	0.20000600814819336
24	63.24111580848694	response	0	2		22.0	2.5	/experiments/knapen_aot/videos/R_S_wc-Mf8SQpviaD6D_17.mp4	0.0	200.4291169643402	
24	63.257715940475464	movie	1		167.0	22.0	2.5	/experiments/knapen_aot/videos/R_S_wc-Mf8SQpviaD6D_17.mp4	0.0	200.44571709632874	2.5000009536743164
24	65.75771689414978	fix_post	2		12.0	22.0	2.5	/experiments/knapen_aot/videos/R_S_wc-Mf8SQpviaD6D_17.mp4	0.0	202.94571805000305	0.09995508193969727
24	65.82447385787964	response	2	2		22.0	2.5	/experiments/knapen_aot/videos/R_S_wc-Mf8SQpviaD6D_17.mp4	0.0	203.0124750137329	
25	65.85767197608948	fix_pre	0		95.0	23.0	2.5	/experiments/knapen_aot/videos/R_S_yt-TvU-aYjNa2c_21.mp4	0.0	203.04567313194275	0.7921628952026367
25	66.6411828994751	response	0	2		23.0	2.5	/experiments/knapen_aot/videos/R_S_yt-TvU-aYjNa2c_21.mp4	0.0	203.82918405532837	
25	66.64983487129211	movie	1		301.0	23.0	2.5	/experiments/knapen_aot/videos/R_S_yt-TvU-aYjNa2c_21.mp4	0.0	203.83783602714539	2.507869005203247
25	69.15770387649536	fix_post	2		12.0	23.0	2.5	/experiments/knapen_aot/videos/R_S_yt-TvU-aYjNa2c_21.mp4	0.0	206.34570503234863	0.09997010231018066
26	69.25767397880554	fix_pre	0		117.0	24.0	2.5	/experiments/knapen_aot/videos/S_yt-0xzYSBvVfYM_197.mp4	0.0	206.4456751346588	0.9753780364990234
26	70.22447299957275	response	0	2		24.0	2.5	/experiments/knapen_aot/videos/S_yt-0xzYSBvVfYM_197.mp4	0.0	207.41247415542603	
26	70.23305201530457	movie	1		301.0	24.0	2.5	/experiments/knapen_aot/videos/S_yt-0xzYSBvVfYM_197.mp4	0.0	207.42105317115784	2.507927894592285
26	72.74097990989685	fix_post	2		12.0	24.0	2.5	/experiments/knapen_aot/videos/S_yt-0xzYSBvVfYM_197.mp4	0.0	209.92898106575012	0.09998393058776855
27	72.84096384048462	fix_pre	0		25.0	25.0	2.5	/experiments/knapen_aot/videos/S_pexels-laker-5793000.mp4	0.0	210.0289649963379	0.20830798149108887
27	73.0411548614502	response	0	2		25.0	2.5	/experiments/knapen_aot/videos/S_pexels-laker-5793000.mp4	0.0	210.22915601730347	
27	73.04927182197571	movie	1		162.0	25.0	2.5	/experiments/knapen_aot/videos/S_pexels-laker-5793000.mp4	0.0	210.23727297782898	2.5083961486816406
27	75.55766797065735	fix_post	2		12.0	25.0	2.5	/experiments/knapen_aot/videos/S_pexels-laker-5793000.mp4	0.0	212.74566912651062	0.09996700286865234
28	75.657634973526	fix_pre	0		9.0	26.0	2.5	blank	1.0	212.84563612937927	0.07539796829223633
28	75.72439098358154	response	0	2		26.0	2.5	blank	1.0	212.91239213943481	
28	75.73303294181824	movie	1		301.0	26.0	2.5	blank	1.0	212.9210340976715	2.5079879760742188
28	78.24102091789246	fix_post	2		12.0	26.0	2.5	blank	1.0	215.42902207374573	0.09990096092224121
29	78.3409218788147	fix_pre	0		23.0	27.0	2.5	/experiments/knapen_aot/videos/S_yt-bWXohhodbjg_98.mp4	0.0	215.52892303466797	0.19165992736816406
29	78.52442693710327	response	0	2		27.0	2.5	/experiments/knapen_aot/videos/S_yt-bWXohhodbjg_98.mp4	0.0	215.71242809295654	
29	78.53258180618286	movie	1		301.0	27.0	2.5	/experiments/knapen_aot/videos/S_yt-bWXohhodbjg_98.mp4	0.0	215.72058296203613	2.5083680152893066
29	81.04094982147217	fix_post	2		12.0	27.0	2.5	/experiments/knapen_aot/videos/S_yt-bWXohhodbjg_98.mp4	0.0	218.22895097732544	0.09999704360961914
30	81.14094686508179	fix_pre	0		6.0	28.0	2.5	/experiments/knapen_aot/videos/R_S_yt--koo4FOfZE0_86.mp4	0.0	218.32894802093506	0.0505070686340332
30	81.18277883529663	response	0	2		28.0	2.5	/experiments/knapen_aot/videos/R_S_yt--koo4FOfZE0_86.mp4	0.0	218.3707799911499	
30	81.19145393371582	movie	1		298.0	28.0	2.5	/experiments/knapen_aot/videos/R_S_yt--koo4FOfZE0_86.mp4	0.0	218.3794550895691	2.507875919342041
30	83.69932985305786	fix_post	2		12.0	28.0	2.5	/experiments/knapen_aot/videos/R_S_yt--koo4FOfZE0_86.mp4	0.0	220.88733100891113	0.09998917579650879
31	83.79931902885437	fix_pre	0		10.0	29.0	2.5	/experiments/knapen_aot/videos/S_yt-l_ioasf6yHg_44.mp4	0.0	220.98732018470764	0.08330583572387695
31	83.87447690963745	response	0	2		29.0	2.5	/experiments/knapen_aot/videos/S_yt-l_ioasf6yHg_44.mp4	0.0	221.06247806549072	
31	83.88262486457825	movie	1		301.0	29.0	2.5	/experiments/knapen_aot/videos/S_yt-l_ioasf6yHg_44.mp4	0.0	221.07062602043152	2.5083489418029785
31	86.39097380638123	fix_post	2		12.0	29.0	2.5	/experiments/knapen_aot/videos/S_yt-l_ioasf6yHg_44.mp4	0.0	223.5789749622345	0.0999760627746582
32	86.49094986915588	fix_pre	0		20.0	30.0	2.5	/experiments/knapen_aot/videos/S_pexels-ron-lach-8071987.mp4	0.0	223.67895102500916	0.1667029857635498
32	86.64946603775024	response	0	2		30.0	2.5	/experiments/knapen_aot/videos/S_pexels-ron-lach-8071987.mp4	0.0	223.83746719360352	
32	86.65765285491943	movie	1		186.0	30.0	2.5	/experiments/knapen_aot/videos/S_pexels-ron-lach-8071987.mp4	0.0	223.8456540107727	2.5082709789276123
32	89.16592383384705	fix_post	2		12.0	30.0	2.5	/experiments/knapen_aot/videos/S_pexels-ron-lach-8071987.mp4	0.0	226.35392498970032	0.0999760627746582
33	89.2658998966217	fix_pre	0		12.0	31.0	2.5	/experiments/knapen_aot/videos/S_pexels-pavel-danilyuk-8626652.mp4	0.0	226.45390105247498	0.09995102882385254
33	89.35765790939331	response	0	2		31.0	2.5	/experiments/knapen_aot/videos/S_pexels-pavel-danilyuk-8626652.mp4	0.0	226.54565906524658	
33	89.36585092544556	movie	1		165.0	31.0	2.5	/experiments/knapen_aot/videos/S_pexels-pavel-danilyuk-8626652.mp4	0.0	226.55385208129883	2.5083470344543457
33	91.8741979598999	fix_post	2		12.0	31.0	2.5	/experiments/knapen_aot/videos/S_pexels-pavel-danilyuk-8626652.mp4	0.0	229.06219911575317	0.09999799728393555
34	91.97419595718384	fix_pre	0		7.0	32.0	2.5	/experiments/knapen_aot/videos/R_S_yt-kiEFK7bDssE_14.mp4	0.0	229.1621971130371	0.05832099914550781
34	92.02436685562134	response	0	2		32.0	2.5	/experiments/knapen_aot/videos/R_S_yt-kiEFK7bDssE_14.mp4	0.0	229.2123680114746	
34	92.03251695632935	movie	1		301.0	32.0	2.5	/experiments/knapen_aot/videos/R_S_yt-kiEFK7bDssE_14.mp4	0.0	229.22051811218262	2.5083348751068115
34	94.54085183143616	fix_post	2		12.0	32.0	2.5	/experiments/knapen_aot/videos/R_S_yt-kiEFK7bDssE_14.mp4	0.0	231.72885298728943	0.100006103515625
35	94.64085793495178	fix_pre	0		9.0	33.0	2.5	/experiments/knapen_aot/videos/S_yt-oVrkSsEpuvk_118.mp4	0.0	231.82885909080505	0.07500410079956055
35	94.7076518535614	response	0	2		33.0	2.5	/experiments/knapen_aot/videos/S_yt-oVrkSsEpuvk_118.mp4	0.0	231.89565300941467	
35	94.71586203575134	movie	1		299.0	33.0	2.5	/experiments/knapen_aot/videos/S_yt-oVrkSsEpuvk_118.mp4	0.0	231.90386319160461	2.508387804031372
35	97.22424983978271	fix_post	2		12.0	33.0	2.5	/experiments/knapen_aot/videos/S_yt-oVrkSsEpuvk_118.mp4	0.0	234.412250995636	0.10002613067626953
36	97.32427597045898	fix_pre	0		21.0	34.0	2.5	/experiments/knapen_aot/videos/R_S_yt-CJeyOFsd3lg_80.mp4	0.0	234.51227712631226	0.17496085166931152
36	97.49108695983887	response	0	2		34.0	2.5	/experiments/knapen_aot/videos/R_S_yt-CJeyOFsd3lg_80.mp4	0.0	234.67908811569214	
36	97.4992368221283	movie	1		301.0	34.0	2.5	/experiments/knapen_aot/videos/R_S_yt-CJeyOFsd3lg_80.mp4	0.0	234.68723797798157	2.508338212966919
36	100.00757503509521	fix_post	2		12.0	34.0	2.5	/experiments/knapen_aot/videos/R_S_yt-CJeyOFsd3lg_80.mp4	0.0	237.1955761909485	0.1002647876739502
37	100.10783982276917	fix_pre	0		7.0	35.0	2.5	blank	1.0	237.29584097862244	0.05829215049743652
37	100.1578860282898	response	0	2		35.0	2.5	blank	1.0	237.34588718414307	
37	100.1661319732666	movie	1		301.0	35.0	2.5	blank	1.0	237.35413312911987	2.5080349445343018
37	102.6741669178009	fix_post	2		12.0	35.0	2.5	blank	1.0	239.86216807365417	0.10046792030334473
38	102.77463483810425	fix_pre	0		50.0	36.0	2.5	/experiments/knapen_aot/videos/S_ILSVRC2015_train_00547001.mp4	0.0	239.96263599395752	0.4164891242980957
38	103.18269085884094	response	0	2		36.0	2.5	/experiments/knapen_aot/videos/S_ILSVRC2015_train_00547001.mp4	0.0	240.3706920146942	
38	103.19112396240234	movie	1		301.0	36.0	2.5	/experiments/knapen_aot/videos/S_ILSVRC2015_train_00547001.mp4	0.0	240.37912511825562	2.508028984069824
38	105.69915294647217	fix_post	2		12.0	36.0	2.5	/experiments/knapen_aot/videos/S_ILSVRC2015_train_00547001.mp4	0.0	242.88715410232544	0.09999608993530273
38	105.7742669582367	response	2	2		36.0	2.5	/experiments/knapen_aot/videos/S_ILSVRC2015_train_00547001.mp4	0.0	242.96226811408997	
39	105.79914903640747	fix_pre	0		93.0	37.0	2.5	/experiments/knapen_aot/videos/R_S_production_ID_4325509.mp4	0.0	242.98715019226074	0.775000810623169
39	106.56599688529968	response	0	2		37.0	2.5	/experiments/knapen_aot/videos/R_S_production_ID_4325509.mp4	0.0	243.75399804115295	
39	106.57414984703064	movie	1		182.0	37.0	2.5	/experiments/knapen_aot/videos/R_S_production_ID_4325509.mp4	0.0	243.7621510028839	2.5082931518554688
39	109.08244299888611	fix_post	2		12.0	37.0	2.5	/experiments/knapen_aot/videos/R_S_production_ID_4325509.mp4	0.0	246.27044415473938	0.10003495216369629
40	109.1824779510498	fix_pre	0		27.0	38.0	2.5	/experiments/knapen_aot/videos/R_S_yt-w_e3sxIzepA_27.mp4	0.0	246.37047910690308	0.22495388984680176
40	109.39930081367493	response	0	2		38.0	2.5	/experiments/knapen_aot/videos/R_S_yt-w_e3sxIzepA_27.mp4	0.0	246.5873019695282	
40	109.4074318408966	movie	1		301.0	38.0	2.5	/experiments/knapen_aot/videos/R_S_yt-w_e3sxIzepA_27.mp4	0.0	246.59543299674988	2.5083770751953125
40	111.91580891609192	fix_post	2		11.0	38.0	2.5	/experiments/knapen_aot/videos/R_S_yt-w_e3sxIzepA_27.mp4	0.0	249.1038100719452	0.10002899169921875
41	112.01583790779114	fix_pre	0		7.0	39.0	2.5	/experiments/knapen_aot/videos/S_yt-aiWUhl8MCto_71.mp4	0.0	249.2038390636444	0.05830502510070801
41	112.06663489341736	response	0	2		39.0	2.5	/experiments/knapen_aot/videos/S_yt-aiWUhl8MCto_71.mp4	0.0	249.25463604927063	
41	112.07414293289185	movie	1		301.0	39.0	2.5	/experiments/knapen_aot/videos/S_yt-aiWUhl8MCto_71.mp4	0.0	249.26214408874512	2.508305072784424
41	114.58244800567627	fix_post	2		12.0	39.0	2.5	/experiments/knapen_aot/videos/S_yt-aiWUhl8MCto_71.mp4	0.0	251.77044916152954	0.10026192665100098
42	114.68270993232727	fix_pre	0		18.0	40.0	2.5	blank	1.0	251.87071108818054	0.14974188804626465
42	114.82427883148193	response	0	2		40.0	2.5	blank	1.0	252.0122799873352	
42	114.83245182037354	movie	1		301.0	40.0	2.5	blank	1.0	252.0204529762268	2.50835919380188
42	116.53261590003967	response	1	2		40.0	2.5	blank	1.0	253.72061705589294	
42	117.34081101417542	fix_post	2		12.0	40.0	2.5	blank	1.0	254.5288121700287	0.1001729965209961
43	117.44098401069641	fix_pre	0		31.0	41.0	2.5	/experiments/knapen_aot/videos/R_S_yt-7e6Z9QQieAk_183.mp4	0.0	254.62898516654968	0.2580850124359131
43	117.69094586372375	response	0	2		41.0	2.5	/experiments/knapen_aot/videos/R_S_yt-7e6Z9QQieAk_183.mp4	0.0	254.87894701957703	
43	117.69906902313232	movie	1		301.0	41.0	2.5	/experiments/knapen_aot/videos/R_S_yt-7e6Z9QQieAk_183.mp4	0.0	254.8870701789856	2.5084218978881836
43	120.12433695793152	response	1	2		41.0	2.5	/experiments/knapen_aot/videos/R_S_yt-7e6Z9QQieAk_183.mp4	0.0	257.3123381137848	
43	120.20749092102051	fix_post	2		12.0	41.0	2.5	/experiments/knapen_aot/videos/R_S_yt-7e6Z9QQieAk_183.mp4	0.0	257.3954920768738	0.09997105598449707
44	120.307461977005	fix_pre	0		52.0	42.0	2.5	/experiments/knapen_aot/videos/R_S_yt-T_qmGKyeKNU_32.mp4	0.0	257.4954631328583	0.433290958404541
44	120.73255681991577	response	0	2		42.0	2.5	/experiments/knapen_aot/videos/R_S_yt-T_qmGKyeKNU_32.mp4	0.0	257.92055797576904	
44	120.74075293540955	movie	1		301.0	42.0	2.5	/experiments/knapen_aot/videos/R_S_yt-T_qmGKyeKNU_32.mp4	0.0	257.9287540912628	2.5083580017089844
44	123.24911093711853	fix_post	2		12.0	42.0	2.5	/experiments/knapen_aot/videos/R_S_yt-T_qmGKyeKNU_32.mp4	0.0	260.4371120929718	0.10012197494506836
45	123.3492329120636	fix_pre	0		8.0	43.0	2.5	/experiments/knapen_aot/videos/S_yt-zSSnQYeO_DE_338.mp4	0.0	260.53723406791687	0.06653594970703125
45	123.40762901306152	response	0	2		43.0	2.5	/experiments/knapen_aot/videos/S_yt-zSSnQYeO_DE_338.mp4	0.0	260.5956301689148	
45	123.41576886177063	movie	1		301.0	43.0	2.5	/experiments/knapen_aot/videos/S_yt-zSSnQYeO_DE_338.mp4	0.0	260.6037700176239	2.5083301067352295
45	125.92409896850586	fix_post	2		12.0	43.0	2.5	/experiments/knapen_aot/videos/S_yt-zSSnQYeO_DE_338.mp4	0.0	263.11210012435913	0.10013294219970703
46	126.02423191070557	fix_pre	0		22.0	44.0	2.5	/experiments/knapen_aot/videos/R_S_yt-11VGDAOVEag_8.mp4	0.0	263.21223306655884	0.18325591087341309
46	126.19918394088745	response	0	2		44.0	2.5	/experiments/knapen_aot/videos/R_S_yt-11VGDAOVEag_8.mp4	0.0	263.3871850967407	
46	126.20748782157898	movie	1		298.0	44.0	2.5	/experiments/knapen_aot/videos/R_S_yt-11VGDAOVEag_8.mp4	0.0	263.39548897743225	2.5082759857177734
46	128.71576380729675	fix_post	2		12.0	44.0	2.5	/experiments/knapen_aot/videos/R_S_yt-11VGDAOVEag_8.mp4	0.0	265.90376496315	0.10013914108276367
47	128.81590294837952	fix_pre	0		9.0	45.0	2.5	/experiments/knapen_aot/videos/R_S_ILSVRC2015_train_00572000.mp4	0.0	266.0039041042328	0.07491302490234375
47	128.87499594688416	response	0	2		45.0	2.5	/experiments/knapen_aot/videos/R_S_ILSVRC2015_train_00572000.mp4	0.0	266.0629971027374	
47	128.89081597328186	movie	1		301.0	45.0	2.5	/experiments/knapen_aot/videos/R_S_ILSVRC2015_train_00572000.mp4	0.0	266.07881712913513	2.508340835571289
47	131.39915680885315	fix_post	2		12.0	45.0	2.5	/experiments/knapen_aot/videos/R_S_ILSVRC2015_train_00572000.mp4	0.0	268.5871579647064	0.09993505477905273
48	131.4990918636322	fix_pre	0		24.0	46.0	2.5	/experiments/knapen_aot/videos/S_yt-T_qmGKyeKNU_32.mp4	0.0	268.6870930194855	0.19995999336242676
48	131.6908028125763	response	0	2		46.0	2.5	/experiments/knapen_aot/videos/S_yt-T_qmGKyeKNU_32.mp4	0.0	268.87880396842957	
48	131.69905185699463	movie	1		301.0	46.0	2.5	/experiments/knapen_aot/videos/S_yt-T_qmGKyeKNU_32.mp4	0.0	268.8870530128479	2.508347988128662
48	134.2073998451233	fix_post	2		12.0	46.0	2.5	/experiments/knapen_aot/videos/S_yt-T_qmGKyeKNU_32.mp4	0.0	271.39540100097656	0.10007810592651367
49	134.3074779510498	fix_pre	0		19.0	47.0	2.5	/experiments/knapen_aot/videos/S_yt-9T99N7Cvi_o_112.mp4	0.0	271.4954791069031	0.15825486183166504
49	134.45746994018555	response	0	2		47.0	2.5	/experiments/knapen_aot/videos/S_yt-9T99N7Cvi_o_112.mp4	0.0	271.6454710960388	
49	134.46573281288147	movie	1		301.0	47.0	2.5	/experiments/knapen_aot/videos/S_yt-9T99N7Cvi_o_112.mp4	0.0	271.65373396873474	2.5083491802215576
49	136.97408199310303	fix_post	2		12.0	47.0	2.5	/experiments/knapen_aot/videos/S_yt-9T99N7Cvi_o_112.mp4	0.0	274.1620831489563	0.09994792938232422
50	137.07402992248535	fix_pre	0		21.0	48.0	2.5	/experiments/knapen_aot/videos/S_yt-3JApfnMu5cU_378.mp4	0.0	274.2620310783386	0.17499303817749023
50	137.24083495140076	response	0	2		48.0	2.5	/experiments/knapen_aot/videos/S_yt-3JApfnMu5cU_378.mp4	0.0	274.428836107254	
50	137.24902296066284	movie	1		301.0	48.0	2.5	/experiments/knapen_aot/videos/S_yt-3JApfnMu5cU_378.mp4	0.0	274.4370241165161	2.5083248615264893
50	139.75734782218933	fix_post	2		12.0	48.0	2.5	/experiments/knapen_aot/videos/S_yt-3JApfnMu5cU_378.mp4	0.0	276.9453489780426	0.1003270149230957
51	139.85767483711243	fix_pre	0		33.0	49.0	2.5	blank	1.0	277.0456759929657	0.2746751308441162
51	140.12417888641357	response	0	2		49.0	2.5	blank	1.0	277.31218004226685	
51	140.13234996795654	movie	1		301.0	49.0	2.5	blank	1.0	277.3203511238098	2.5083329677581787
51	142.0324559211731	response	1	2		49.0	2.5	blank	1.0	279.22045707702637	
51	142.5074110031128	response	1	2		49.0	2.5	blank	1.0	279.69541215896606	
51	142.64068293571472	fix_post	2		12.0	49.0	2.5	blank	1.0	279.828684091568	0.09994888305664062
52	142.74063181877136	fix_pre	0		24.0	50.0	2.5	/experiments/knapen_aot/videos/R_S_yt-KLInd-KrK_w_19.mp4	0.0	279.92863297462463	0.20009899139404297
52	142.9324598312378	response	0	2		50.0	2.5	/experiments/knapen_aot/videos/R_S_yt-KLInd-KrK_w_19.mp4	0.0	280.12046098709106	
52	142.9407308101654	movie	1		301.0	50.0	2.5	/experiments/knapen_aot/videos/R_S_yt-KLInd-KrK_w_19.mp4	0.0	280.1287319660187	2.5082712173461914
52	145.4490020275116	fix_post	2		12.0	50.0	2.5	/experiments/knapen_aot/videos/R_S_yt-KLInd-KrK_w_19.mp4	0.0	282.63700318336487	0.10000801086425781
53	145.54901003837585	fix_pre	0		9.0	51.0	2.5	/experiments/knapen_aot/videos/R_S_comp_C003_C003_PS_v01_SDR_PS_20180925_SDR_2K_AVC.mp4	0.0	282.7370111942291	0.07494592666625977
53	145.61580395698547	response	0	2		51.0	2.5	/experiments/knapen_aot/videos/R_S_comp_C003_C003_PS_v01_SDR_PS_20180925_SDR_2K_AVC.mp4	0.0	282.80380511283875	
53	145.62395596504211	movie	1		163.0	51.0	2.5	/experiments/knapen_aot/videos/R_S_comp_C003_C003_PS_v01_SDR_PS_20180925_SDR_2K_AVC.mp4	0.0	282.8119571208954	2.5083839893341064
53	148.13233995437622	fix_post	2		12.0	51.0	2.5	/experiments/knapen_aot/videos/R_S_comp_C003_C003_PS_v01_SDR_PS_20180925_SDR_2K_AVC.mp4	0.0	285.3203411102295	0.10003995895385742
54	148.23237991333008	fix_pre	0		4.0	52.0	2.5	/experiments/knapen_aot/videos/R_S_yt-XY1n_Oze1kQ_9.mp4	0.0	285.42038106918335	0.03335309028625488
54	148.25750088691711	response	0	2		52.0	2.5	/experiments/knapen_aot/videos/R_S_yt-XY1n_Oze1kQ_9.mp4	0.0	285.4455020427704	
54	148.26573300361633	movie	1		301.0	52.0	2.5	/experiments/knapen_aot/videos/R_S_yt-XY1n_Oze1kQ_9.mp4	0.0	285.4537341594696	2.5082409381866455
54	150.77397394180298	fix_post	2		12.0	52.0	2.5	/experiments/knapen_aot/videos/R_S_yt-XY1n_Oze1kQ_9.mp4	0.0	287.96197509765625	0.09999990463256836
55	150.87397384643555	fix_pre	0		32.0	53.0	2.5	/experiments/knapen_aot/videos/S_yt-KLInd-KrK_w_19.mp4	0.0	288.0619750022888	0.2680649757385254
55	151.13251996040344	response	0	2		53.0	2.5	/experiments/knapen_aot/videos/S_yt-KLInd-KrK_w_19.mp4	0.0	288.3205211162567	
55	151.14203882217407	movie	1		301.0	53.0	2.5	/experiments/knapen_aot/videos/S_yt-KLInd-KrK_w_19.mp4	0.0	288.33003997802734	2.506944179534912
55	153.64898300170898	fix_post	2		12.0	53.0	2.5	/experiments/knapen_aot/videos/S_yt-KLInd-KrK_w_19.mp4	0.0	290.83698415756226	0.10004281997680664
56	153.7490258216858	fix_pre	0		25.0	54.0	2.5	/experiments/knapen_aot/videos/R_S_ILSVRC2015_train_00457000.mp4	0.0	290.93702697753906	0.20819616317749023
56	153.94910502433777	response	0	2		54.0	2.5	/experiments/knapen_aot/videos/R_S_ILSVRC2015_train_00457000.mp4	0.0	291.13710618019104	
56	153.95722198486328	movie	1		298.0	54.0	2.5	/experiments/knapen_aot/videos/R_S_ILSVRC2015_train_00457000.mp4	0.0	291.14522314071655	2.5083889961242676
56	156.46561098098755	fix_post	2		12.0	54.0	2.5	/experiments/knapen_aot/videos/R_S_ILSVRC2015_train_00457000.mp4	0.0	293.6536121368408	0.10001683235168457
57	156.56562781333923	fix_pre	0		11.0	55.0	2.5	/experiments/knapen_aot/videos/S_flickr-51283549@N02-23064904264_16.mp4	0.0	293.7536289691925	0.09160208702087402
57	156.64147996902466	response	0	2		55.0	2.5	/experiments/knapen_aot/videos/S_flickr-51283549@N02-23064904264_16.mp4	0.0	293.82948112487793	
57	156.6572299003601	movie	1		164.0	55.0	2.5	/experiments/knapen_aot/videos/S_flickr-51283549@N02-23064904264_16.mp4	0.0	293.8452310562134	2.50833797454834
57	159.16556787490845	fix_post	2		12.0	55.0	2.5	/experiments/knapen_aot/videos/S_flickr-51283549@N02-23064904264_16.mp4	0.0	296.3535690307617	0.10001111030578613
58	159.26557898521423	fix_pre	0		12.0	56.0	2.5	blank	1.0	296.4535801410675	0.10003185272216797
58	159.35742783546448	response	0	2		56.0	2.5	blank	1.0	296.54542899131775	
58	159.3656108379364	movie	1		301.0	56.0	2.5	blank	1.0	296.5536119937897	2.5084049701690674
58	161.87401580810547	fix_post	2		12.0	56.0	2.5	blank	1.0	299.06201696395874	0.09992814064025879
59	161.97394394874573	fix_pre	0		34.0	57.0	2.5	/experiments/knapen_aot/videos/R_S_yt_R-JarqKC4X8nM_4.mp4	0.0	299.161945104599	0.2832930088043213
59	162.24149203300476	response	0	2		57.0	2.5	/experiments/knapen_aot/videos/R_S_yt_R-JarqKC4X8nM_4.mp4	0.0	299.42949318885803	
59	162.25723695755005	movie	1		301.0	57.0	2.5	/experiments/knapen_aot/videos/R_S_yt_R-JarqKC4X8nM_4.mp4	0.0	299.4452381134033	2.508389949798584
59	164.76562690734863	fix_post	2		12.0	57.0	2.5	/experiments/knapen_aot/videos/R_S_yt_R-JarqKC4X8nM_4.mp4	0.0	301.9536280632019	0.10002398490905762
60	164.8656508922577	fix_pre	0		15.0	58.0	2.5	/experiments/knapen_aot/videos/S_yt-35i8UeYXjGw_47.mp4	0.0	302.05365204811096	0.12496805191040039
60	164.9824378490448	response	0	2		58.0	2.5	/experiments/knapen_aot/videos/S_yt-35i8UeYXjGw_47.mp4	0.0	302.17043900489807	
60	164.9906189441681	movie	1		301.0	58.0	2.5	/experiments/knapen_aot/videos/S_yt-35i8UeYXjGw_47.mp4	0.0	302.17862010002136	2.5083370208740234
60	167.49895596504211	fix_post	2		12.0	58.0	2.5	/experiments/knapen_aot/videos/S_yt-35i8UeYXjGw_47.mp4	0.0	304.6869571208954	0.09996891021728516
61	167.5989248752594	fix_pre	0		9.0	59.0	2.5	/experiments/knapen_aot/videos/R_S_P005_C002_UHD_SDR_2K_AVC.mp4	0.0	304.78692603111267	0.07502198219299316
61	167.66575503349304	response	0	2		59.0	2.5	/experiments/knapen_aot/videos/R_S_P005_C002_UHD_SDR_2K_AVC.mp4	0.0	304.8537561893463	
61	167.6739468574524	movie	1		169.0	59.0	2.5	/experiments/knapen_aot/videos/R_S_P005_C002_UHD_SDR_2K_AVC.mp4	0.0	304.86194801330566	2.5081779956817627
61	170.18212485313416	fix_post	2		12.0	59.0	2.5	/experiments/knapen_aot/videos/R_S_P005_C002_UHD_SDR_2K_AVC.mp4	0.0	307.3701260089874	0.1000831127166748
62	170.28220796585083	fix_pre	0		41.0	60.0	2.5	/experiments/knapen_aot/videos/S_ILSVRC2015_train_00473000.mp4	0.0	307.4702091217041	0.34166598320007324
62	170.61567997932434	response	0	2		60.0	2.5	/experiments/knapen_aot/videos/S_ILSVRC2015_train_00473000.mp4	0.0	307.8036811351776	
62	170.6238739490509	movie	1		301.0	60.0	2.5	/experiments/knapen_aot/videos/S_ILSVRC2015_train_00473000.mp4	0.0	307.8118751049042	2.508384943008423
62	173.13225889205933	fix_post	2		12.0	60.0	2.5	/experiments/knapen_aot/videos/S_ILSVRC2015_train_00473000.mp4	0.0	310.3202600479126	0.09997200965881348
63	173.23223090171814	fix_pre	0		12.0	61.0	2.5	blank	1.0	310.4202320575714	0.09995412826538086
63	173.32405495643616	response	0	2		61.0	2.5	blank	1.0	310.51205611228943	
63	173.33218502998352	movie	1		301.0	61.0	2.5	blank	1.0	310.5201861858368	2.5083508491516113
63	175.84053587913513	fix_post	2		12.0	61.0	2.5	blank	1.0	313.0285370349884	0.10000014305114746
64	175.94053602218628	fix_pre	0		24.0	62.0	2.5	/experiments/knapen_aot/videos/R_S_b2-4.mp4	0.0	313.12853717803955	0.2012648582458496
64	176.13236689567566	response	0	2		62.0	2.5	/experiments/knapen_aot/videos/R_S_b2-4.mp4	0.0	313.32036805152893	
64	176.14180088043213	movie	1		164.0	62.0	2.5	/experiments/knapen_aot/videos/R_S_b2-4.mp4	0.0	313.3298020362854	2.507085084915161
64	178.6488859653473	fix_post	2		12.0	62.0	2.5	/experiments/knapen_aot/videos/R_S_b2-4.mp4	0.0	315.83688712120056	0.10000896453857422
64	178.68340301513672	response	2	2		62.0	2.5	/experiments/knapen_aot/videos/R_S_b2-4.mp4	0.0	315.87140417099	
65	178.74889492988586	fix_pre	0		60.0	63.0	2.5	/experiments/knapen_aot/videos/R_S_yt-82O1uT8dmv8_12.mp4	0.0	315.93689608573914	0.4999690055847168
65	179.24066996574402	response	0	2		63.0	2.5	/experiments/knapen_aot/videos/R_S_yt-82O1uT8dmv8_12.mp4	0.0	316.4286711215973	
65	179.24886393547058	movie	1		301.0	63.0	2.5	/experiments/knapen_aot/videos/R_S_yt-82O1uT8dmv8_12.mp4	0.0	316.43686509132385	2.5082790851593018
65	181.75714302062988	fix_post	2		12.0	63.0	2.5	/experiments/knapen_aot/videos/R_S_yt-82O1uT8dmv8_12.mp4	0.0	318.94514417648315	0.0999908447265625
65	181.78227996826172	response	2	2		63.0	2.5	/experiments/knapen_aot/videos/R_S_yt-82O1uT8dmv8_12.mp4	0.0	318.970281124115	
66	181.85713386535645	fix_pre	0		38.0	64.0	2.5	/experiments/knapen_aot/videos/S_yt-PK-Eip9wFr0_24.mp4	0.0	319.0451350212097	0.31667304039001465
66	182.1656768321991	response	0	2		64.0	2.5	/experiments/knapen_aot/videos/S_yt-PK-Eip9wFr0_24.mp4	0.0	319.35367798805237	
66	182.17380690574646	movie	1		300.0	64.0	2.5	/experiments/knapen_aot/videos/S_yt-PK-Eip9wFr0_24.mp4	0.0	319.36180806159973	2.5082499980926514
66	184.6820569038391	fix_post	2		12.0	64.0	2.5	/experiments/knapen_aot/videos/S_yt-PK-Eip9wFr0_24.mp4	0.0	321.8700580596924	0.10008096694946289
67	184.78213787078857	fix_pre	0		9.0	65.0	2.5	/experiments/knapen_aot/videos/R_S_pexels-cottonbro-5780808.mp4	0.0	321.97013902664185	0.07498311996459961
67	184.84893703460693	response	0	2		65.0	2.5	/experiments/knapen_aot/videos/R_S_pexels-cottonbro-5780808.mp4	0.0	322.0369381904602	
67	184.85712099075317	movie	1		167.0	65.0	2.5	/experiments/knapen_aot/videos/R_S_pexels-cottonbro-5780808.mp4	0.0	322.04512214660645	2.508357048034668
67	187.36547803878784	fix_post	2		12.0	65.0	2.5	/experiments/knapen_aot/videos/R_S_pexels-cottonbro-5780808.mp4	0.0	324.5534791946411	0.10009479522705078
68	187.4655728340149	fix_pre	0		7.0	66.0	2.5	/experiments/knapen_aot/videos/R_S_ILSVRC2015_train_00447000.mp4	0.0	324.65357398986816	0.05838418006896973
68	187.51572680473328	response	0	2		66.0	2.5	/experiments/knapen_aot/videos/R_S_ILSVRC2015_train_00447000.mp4	0.0	324.70372796058655	
68	187.52395701408386	movie	1		301.0	66.0	2.5	/experiments/knapen_aot/videos/R_S_ILSVRC2015_train_00447000.mp4	0.0	324.71195816993713	2.5081658363342285
68	190.0321228504181	fix_post	2		12.0	66.0	2.5	/experiments/knapen_aot/videos/R_S_ILSVRC2015_train_00447000.mp4	0.0	327.22012400627136	0.09998798370361328
69	190.1321108341217	fix_pre	0		2.0	67.0	2.5	/experiments/knapen_aot/videos/S_yt-26009GpQuUg_3.mp4	0.0	327.320111989975	0.016705989837646484
69	190.14197897911072	response	0	2		67.0	2.5	/experiments/knapen_aot/videos/S_yt-26009GpQuUg_3.mp4	0.0	327.329980134964	
69	190.14881682395935	movie	1		301.0	67.0	2.5	/experiments/knapen_aot/videos/S_yt-26009GpQuUg_3.mp4	0.0	327.3368179798126	2.5082759857177734
69	192.54891681671143	response	1	2		67.0	2.5	/experiments/knapen_aot/videos/S_yt-26009GpQuUg_3.mp4	0.0	329.7369179725647	
69	192.65709280967712	fix_post	2		12.0	67.0	2.5	/experiments/knapen_aot/videos/S_yt-26009GpQuUg_3.mp4	0.0	329.8450939655304	0.0999910831451416
70	192.75708389282227	fix_pre	0		36.0	68.0	2.5	/experiments/knapen_aot/videos/R_S_yt-r7brAHgxZSU_248.mp4	0.0	329.94508504867554	0.3012809753417969
70	193.04890084266663	response	0	2		68.0	2.5	/experiments/knapen_aot/videos/R_S_yt-r7brAHgxZSU_248.mp4	0.0	330.2369019985199	
70	193.05836486816406	movie	1		301.0	68.0	2.5	/experiments/knapen_aot/videos/R_S_yt-r7brAHgxZSU_248.mp4	0.0	330.24636602401733	2.5071699619293213
70	195.56553483009338	fix_post	2		12.0	68.0	2.5	/experiments/knapen_aot/videos/R_S_yt-r7brAHgxZSU_248.mp4	0.0	332.75353598594666	0.09991002082824707
71	195.66544485092163	fix_pre	0		2.0	69.0	2.5	blank	1.0	332.8534460067749	0.016700029373168945
71	195.67391180992126	response	0	2		69.0	2.5	blank	1.0	332.86191296577454	
71	195.6821448802948	movie	1		301.0	69.0	2.5	blank	1.0	332.87014603614807	2.508275032043457
71	198.19041991233826	fix_post	2		12.0	69.0	2.5	blank	1.0	335.3784210681915	0.1000370979309082
72	198.29045701026917	fix_pre	0		54.0	70.0	2.5	/experiments/knapen_aot/videos/S_yt-hvuC_2YXsTQ_159.mp4	0.0	335.47845816612244	0.44988393783569336
72	198.73222994804382	response	0	2		70.0	2.5	/experiments/knapen_aot/videos/S_yt-hvuC_2YXsTQ_159.mp4	0.0	335.9202311038971	
72	198.74034094810486	movie	1		301.0	70.0	2.5	/experiments/knapen_aot/videos/S_yt-hvuC_2YXsTQ_159.mp4	0.0	335.92834210395813	2.5083959102630615
72	200.6771719455719	response	1	2		70.0	2.5	/experiments/knapen_aot/videos/S_yt-hvuC_2YXsTQ_159.mp4	0.0	337.86517310142517	
72	201.24873685836792	fix_post	2		12.0	70.0	2.5	/experiments/knapen_aot/videos/S_yt-hvuC_2YXsTQ_159.mp4	0.0	338.4367380142212	0.10007309913635254
73	201.34880995750427	fix_pre	0		3.0	71.0	2.5	/experiments/knapen_aot/videos/S_yt-uSHBdUi8_V0_24.mp4	0.0	338.53681111335754	0.024983882904052734
73	201.36552786827087	response	0	2		71.0	2.5	/experiments/knapen_aot/videos/S_yt-uSHBdUi8_V0_24.mp4	0.0	338.55352902412415	
73	201.37379384040833	movie	1		299.0	71.0	2.5	/experiments/knapen_aot/videos/S_yt-uSHBdUi8_V0_24.mp4	0.0	338.5617949962616	2.508247137069702
73	203.88204097747803	fix_post	2		12.0	71.0	2.5	/experiments/knapen_aot/videos/S_yt-uSHBdUi8_V0_24.mp4	0.0	341.0700421333313	0.09998703002929688
74	203.98202800750732	fix_pre	0		18.0	72.0	2.5	/experiments/knapen_aot/videos/S_yt-bWXohhodbjg_98.mp4	0.0	341.1700291633606	0.15003490447998047
74	204.1238498687744	response	0	2		72.0	2.5	/experiments/knapen_aot/videos/S_yt-bWXohhodbjg_98.mp4	0.0	341.3118510246277	
74	204.1320629119873	movie	1		301.0	72.0	2.5	/experiments/knapen_aot/videos/S_yt-bWXohhodbjg_98.mp4	0.0	341.3200640678406	2.508258104324341
74	206.64032101631165	fix_post	2		12.0	72.0	2.5	/experiments/knapen_aot/videos/S_yt-bWXohhodbjg_98.mp4	0.0	343.8283221721649	0.1000978946685791
75	206.74041891098022	fix_pre	0		29.0	73.0	2.5	/experiments/knapen_aot/videos/R_S_yt-aD-EAuBdpUo_163.mp4	0.0	343.9284200668335	0.24996495246887207
75	206.9747018814087	response	0	2		73.0	2.5	/experiments/knapen_aot/videos/R_S_yt-aD-EAuBdpUo_163.mp4	0.0	344.16270303726196	
75	206.9903838634491	movie	1		301.0	73.0	2.5	/experiments/knapen_aot/videos/R_S_yt-aD-EAuBdpUo_163.mp4	0.0	344.17838501930237	2.508402109146118
75	209.49878597259521	fix_post	2		12.0	73.0	2.5	/experiments/knapen_aot/videos/R_S_yt-aD-EAuBdpUo_163.mp4	0.0	346.6867871284485	0.10004901885986328
76	209.59883499145508	fix_pre	0		20.0	74.0	2.5	/experiments/knapen_aot/videos/S_ILSVRC2015_train_00689000.mp4	0.0	346.78683614730835	0.16767597198486328
76	209.7572329044342	response	0	2		74.0	2.5	/experiments/knapen_aot/videos/S_ILSVRC2015_train_00689000.mp4	0.0	346.9452340602875	
76	209.76651096343994	movie	1		301.0	74.0	2.5	/experiments/knapen_aot/videos/S_ILSVRC2015_train_00689000.mp4	0.0	346.9545121192932	2.507246971130371
76	212.2737579345703	fix_post	2		12.0	74.0	2.5	/experiments/knapen_aot/videos/S_ILSVRC2015_train_00689000.mp4	0.0	349.4617590904236	0.10001897811889648
77	212.3737769126892	fix_pre	0		8.0	75.0	2.5	/experiments/knapen_aot/videos/S_yt-HwEfWfFJhRo_73.mp4	0.0	349.5617780685425	0.06661391258239746
77	212.43219900131226	response	0	2		75.0	2.5	/experiments/knapen_aot/videos/S_yt-HwEfWfFJhRo_73.mp4	0.0	349.6202001571655	
77	212.4403908252716	movie	1		301.0	75.0	2.5	/experiments/knapen_aot/videos/S_yt-HwEfWfFJhRo_73.mp4	0.0	349.6283919811249	2.508450984954834
77	214.94884181022644	fix_post	2		12.0	75.0	2.5	/experiments/knapen_aot/videos/S_yt-HwEfWfFJhRo_73.mp4	0.0	352.1368429660797	0.09993410110473633
78	215.04877591133118	fix_pre	0		40.0	76.0	2.5	/experiments/knapen_aot/videos/S_yt-qjg6kRxNXK8_217.mp4	0.0	352.23677706718445	0.33327507972717285
78	215.37389302253723	response	0	2		76.0	2.5	/experiments/knapen_aot/videos/S_yt-qjg6kRxNXK8_217.mp4	0.0	352.5618941783905	
78	215.38205099105835	movie	1		301.0	76.0	2.5	/experiments/knapen_aot/videos/S_yt-qjg6kRxNXK8_217.mp4	0.0	352.5700521469116	2.5083718299865723
78	217.89042282104492	fix_post	2		12.0	76.0	2.5	/experiments/knapen_aot/videos/S_yt-qjg6kRxNXK8_217.mp4	0.0	355.0784239768982	0.09996414184570312
79	217.99038696289062	fix_pre	0		113.0	77.0	2.5	blank	1.0	355.1783881187439	0.9427399635314941
79	218.9239218235016	response	0	2		77.0	2.5	blank	1.0	356.11192297935486	
79	218.93312692642212	movie	1		301.0	77.0	2.5	blank	1.0	356.1211280822754	2.5072200298309326
79	221.44034695625305	fix_post	2		12.0	77.0	2.5	blank	1.0	358.6283481121063	0.10003399848937988
79	221.44884300231934	response	2	2		77.0	2.5	blank	1.0	358.6368441581726	
80	221.54038095474243	fix_pre	0		39.0	78.0	2.5	/experiments/knapen_aot/videos/R_S_yt-9T99N7Cvi_o_112.mp4	0.0	358.7283821105957	0.3249828815460205
80	221.84956097602844	response	0	2		78.0	2.5	/experiments/knapen_aot/videos/R_S_yt-9T99N7Cvi_o_112.mp4	0.0	359.0375621318817	
80	221.86536383628845	movie	1		300.0	78.0	2.5	/experiments/knapen_aot/videos/R_S_yt-9T99N7Cvi_o_112.mp4	0.0	359.0533649921417	2.508273124694824
80	224.37363696098328	fix_post	2		12.0	78.0	2.5	/experiments/knapen_aot/videos/R_S_yt-9T99N7Cvi_o_112.mp4	0.0	361.56163811683655	0.09999203681945801
81	224.47362899780273	fix_pre	0		33.0	79.0	2.5	/experiments/knapen_aot/videos/R_S_yt-9T99N7Cvi_o_112.mp4	0.0	361.661630153656	0.27501487731933594
81	224.74046993255615	response	0	2		79.0	2.5	/experiments/knapen_aot/videos/R_S_yt-9T99N7Cvi_o_112.mp4	0.0	361.9284710884094	
81	224.74864387512207	movie	1		301.0	79.0	2.5	/experiments/knapen_aot/videos/R_S_yt-9T99N7Cvi_o_112.mp4	0.0	361.93664503097534	2.508347988128662
81	227.25699186325073	fix_post	2		12.0	79.0	2.5	/experiments/knapen_aot/videos/R_S_yt-9T99N7Cvi_o_112.mp4	0.0	364.444993019104	0.09990596771240234
82	227.35689783096313	fix_pre	0		23.0	80.0	2.5	/experiments/knapen_aot/videos/R_S_yt-RKo978aBdzw_173.mp4	0.0	364.5448989868164	0.19173502922058105
82	227.54038286209106	response	0	2		80.0	2.5	/experiments/knapen_aot/videos/R_S_yt-RKo978aBdzw_173.mp4	0.0	364.72838401794434	
82	227.54863286018372	movie	1		301.0	80.0	2.5	/experiments/knapen_aot/videos/R_S_yt-RKo978aBdzw_173.mp4	0.0	364.736634016037	2.5083091259002686
82	230.05694198608398	fix_post	2		12.0	80.0	2.5	/experiments/knapen_aot/videos/R_S_yt-RKo978aBdzw_173.mp4	0.0	367.24494314193726	0.10001301765441895
83	230.1569550037384	fix_pre	0		8.0	81.0	2.5	/experiments/knapen_aot/videos/S_yt-YTQXM5ZjRgg_116.mp4	0.0	367.3449561595917	0.06766581535339355
83	230.21537899971008	response	0	2		81.0	2.5	/experiments/knapen_aot/videos/S_yt-YTQXM5ZjRgg_116.mp4	0.0	367.40338015556335	
83	230.2246208190918	movie	1		301.0	81.0	2.5	/experiments/knapen_aot/videos/S_yt-YTQXM5ZjRgg_116.mp4	0.0	367.41262197494507	2.507310152053833
83	232.73193097114563	fix_post	2		12.0	81.0	2.5	/experiments/knapen_aot/videos/S_yt-YTQXM5ZjRgg_116.mp4	0.0	369.9199321269989	0.09997987747192383
84	232.83191084861755	fix_pre	0		27.0	82.0	2.5	/experiments/knapen_aot/videos/S_production_ID_4360158.mp4	0.0	370.0199120044708	0.22601103782653809
84	233.04883003234863	response	0	2		82.0	2.5	/experiments/knapen_aot/videos/S_production_ID_4360158.mp4	0.0	370.2368311882019	
84	233.0579218864441	movie	1		168.0	82.0	2.5	/experiments/knapen_aot/videos/S_production_ID_4360158.mp4	0.0	370.24592304229736	2.5075111389160156
84	235.5654330253601	fix_post	2		12.0	82.0	2.5	/experiments/knapen_aot/videos/S_production_ID_4360158.mp4	0.0	372.7534341812134	0.09984898567199707
85	235.6652820110321	fix_pre	0		5.0	83.0	2.5	blank	1.0	372.8532831668854	0.04180288314819336
85	235.69926595687866	response	0	2		83.0	2.5	blank	1.0	372.88726711273193	
85	235.7070848941803	movie	1		301.0	83.0	2.5	blank	1.0	372.89508605003357	2.508216142654419
85	238.21530103683472	fix_post	2		12.0	83.0	2.5	blank	1.0	375.403302192688	0.09987592697143555
87	238.31517696380615	stim	0		49.0					375.5031781196594	0.40941405296325684
87	238.49036383628845	response	0	2						375.6783649921417	
87	238.71879482269287	response	0	space						375.90679597854614	
