trial_nr	onset	event_type	phase	response	nr_frames	movie_index	movie_duration	movie_file	blank	onset_abs	duration
0	0.12456512451171875	stim	0		70.0					95.9779281616211	0.5832998752593994
0	0.6996841430664062	response	0	space						96.55304718017578	
1	0.7078649997711182	stim	0		121.0					96.5612280368805	1.0080640316009521
1	1.7159290313720703	stim	1		120.0					97.56929206848145	1.0000009536743164
1	2.007742166519165	response	1	space						97.86110520362854	
2	2.7159299850463867	fix_pre	0		121.0	0.0	2.5	/experiments/knapen_aot/videos/S_yt-XHYYkaHcEtM_72.mp4	0.0	98.56929302215576	1.0082881450653076
2	3.716055154800415	response	0	space		0.0	2.5	/experiments/knapen_aot/videos/S_yt-XHYYkaHcEtM_72.mp4	0.0	99.56941819190979	
2	3.7242181301116943	movie	1		297.0	0.0	2.5	/experiments/knapen_aot/videos/S_yt-XHYYkaHcEtM_72.mp4	0.0	99.57758116722107	2.5082650184631348
2	6.232483148574829	fix_post	2		12.0	0.0	2.5	/experiments/knapen_aot/videos/S_yt-XHYYkaHcEtM_72.mp4	0.0	102.0858461856842	0.10005688667297363
3	6.332540035247803	fix_pre	0		22.0	1.0	2.5	/experiments/knapen_aot/videos/R_S_IrGYVLkWeQs_9.mp4	0.0	102.18590307235718	0.18537497520446777
3	6.507776975631714	response	0	2		1.0	2.5	/experiments/knapen_aot/videos/R_S_IrGYVLkWeQs_9.mp4	0.0	102.36114001274109	
3	6.5179150104522705	movie	1		300.0	1.0	2.5	/experiments/knapen_aot/videos/R_S_IrGYVLkWeQs_9.mp4	0.0	102.37127804756165	2.506258010864258
3	9.024173021316528	fix_post	2		12.0	1.0	2.5	/experiments/knapen_aot/videos/R_S_IrGYVLkWeQs_9.mp4	0.0	104.8775360584259	0.09999394416809082
3	9.082617998123169	response	2	2		1.0	2.5	/experiments/knapen_aot/videos/R_S_IrGYVLkWeQs_9.mp4	0.0	104.93598103523254	
4	9.12416696548462	fix_pre	0		29.0	2.0	2.5	/experiments/knapen_aot/videos/R_S_yt-xNKgc8sFYvU_35.mp4	0.0	104.977530002594	0.24162817001342773
4	9.357582092285156	response	0	2		2.0	2.5	/experiments/knapen_aot/videos/R_S_yt-xNKgc8sFYvU_35.mp4	0.0	105.21094512939453	
4	9.365795135498047	movie	1		301.0	2.0	2.5	/experiments/knapen_aot/videos/R_S_yt-xNKgc8sFYvU_35.mp4	0.0	105.21915817260742	2.5083258152008057
4	11.874120950698853	fix_post	2		12.0	2.0	2.5	/experiments/knapen_aot/videos/R_S_yt-xNKgc8sFYvU_35.mp4	0.0	107.72748398780823	0.10207104682922363
4	11.96596908569336	response	2	2		2.0	2.5	/experiments/knapen_aot/videos/R_S_yt-xNKgc8sFYvU_35.mp4	0.0	107.81933212280273	
5	11.976191997528076	fix_pre	0		45.0	3.0	2.5	/experiments/knapen_aot/videos/S_yt-KVB49z48sZU_55.mp4	0.0	107.82955503463745	0.3728611469268799
5	12.34092402458191	response	0	2		3.0	2.5	/experiments/knapen_aot/videos/S_yt-KVB49z48sZU_55.mp4	0.0	108.19428706169128	
5	12.349053144454956	movie	1		301.0	3.0	2.5	/experiments/knapen_aot/videos/S_yt-KVB49z48sZU_55.mp4	0.0	108.20241618156433	2.5083580017089844
5	14.85741114616394	fix_post	2		12.0	3.0	2.5	/experiments/knapen_aot/videos/S_yt-KVB49z48sZU_55.mp4	0.0	110.71077418327332	0.10007596015930176
6	14.957487106323242	fix_pre	0		15.0	4.0	2.5	/experiments/knapen_aot/videos/R_S_yt--DXkjCUzThU_413.mp4	0.0	110.81085014343262	0.12499189376831055
6	15.074416160583496	response	0	2		4.0	2.5	/experiments/knapen_aot/videos/R_S_yt--DXkjCUzThU_413.mp4	0.0	110.92777919769287	
6	15.082479000091553	movie	1		301.0	4.0	2.5	/experiments/knapen_aot/videos/R_S_yt--DXkjCUzThU_413.mp4	0.0	110.93584203720093	2.508331060409546
6	17.5908100605011	fix_post	2		12.0	4.0	2.5	/experiments/knapen_aot/videos/R_S_yt--DXkjCUzThU_413.mp4	0.0	113.44417309761047	0.09995889663696289
7	17.69076895713806	fix_pre	0		9.0	5.0	2.5	blank	1.0	113.54413199424744	0.07499313354492188
7	17.757564067840576	response	0	2		5.0	2.5	blank	1.0	113.61092710494995	
7	17.765762090682983	movie	1		301.0	5.0	2.5	blank	1.0	113.61912512779236	2.5083248615264893
7	18.98252511024475	response	1	2		5.0	2.5	blank	1.0	114.83588814735413	
7	20.274086952209473	fix_post	2		12.0	5.0	2.5	blank	1.0	116.12744998931885	0.10001802444458008
8	20.374104976654053	fix_pre	0		17.0	6.0	2.5	/experiments/knapen_aot/videos/S_yt-ZE8Af60eNsI_15.mp4	0.0	116.22746801376343	0.14163899421691895
8	20.50772213935852	response	0	2		6.0	2.5	/experiments/knapen_aot/videos/S_yt-ZE8Af60eNsI_15.mp4	0.0	116.3610851764679	
8	20.51574397087097	movie	1		301.0	6.0	2.5	/experiments/knapen_aot/videos/S_yt-ZE8Af60eNsI_15.mp4	0.0	116.36910700798035	2.508418083190918
8	23.02416205406189	fix_post	2		12.0	6.0	2.5	/experiments/knapen_aot/videos/S_yt-ZE8Af60eNsI_15.mp4	0.0	118.87752509117126	0.09996509552001953
9	23.12412714958191	fix_pre	0		23.0	7.0	2.5	/experiments/knapen_aot/videos/S_yt-y6JsUW0eSW8_32.mp4	0.0	118.97749018669128	0.1921977996826172
9	23.307542085647583	response	0	2		7.0	2.5	/experiments/knapen_aot/videos/S_yt-y6JsUW0eSW8_32.mp4	0.0	119.16090512275696	
9	23.316324949264526	movie	1		301.0	7.0	2.5	/experiments/knapen_aot/videos/S_yt-y6JsUW0eSW8_32.mp4	0.0	119.1696879863739	2.50770902633667
9	25.824033975601196	fix_post	2		12.0	7.0	2.5	/experiments/knapen_aot/videos/S_yt-y6JsUW0eSW8_32.mp4	0.0	121.67739701271057	0.10007715225219727
10	25.924111127853394	fix_pre	0		6.0	8.0	2.5	/experiments/knapen_aot/videos/R_S_ILSVRC2015_train_00354001.mp4	0.0	121.77747416496277	0.05008697509765625
10	25.965975046157837	response	0	2		8.0	2.5	/experiments/knapen_aot/videos/R_S_ILSVRC2015_train_00354001.mp4	0.0	121.81933808326721	
10	25.97419810295105	movie	1		300.0	8.0	2.5	/experiments/knapen_aot/videos/R_S_ILSVRC2015_train_00354001.mp4	0.0	121.82756114006042	2.5082650184631348
10	28.482463121414185	fix_post	2		12.0	8.0	2.5	/experiments/knapen_aot/videos/R_S_ILSVRC2015_train_00354001.mp4	0.0	124.33582615852356	0.09992694854736328
11	28.582390069961548	fix_pre	0		6.0	9.0	2.5	/experiments/knapen_aot/videos/S_yt-0MB_IYX1fgo_44.mp4	0.0	124.43575310707092	0.0500340461730957
11	28.616661071777344	response	0	2		9.0	2.5	/experiments/knapen_aot/videos/S_yt-0MB_IYX1fgo_44.mp4	0.0	124.47002410888672	
11	28.632424116134644	movie	1		301.0	9.0	2.5	/experiments/knapen_aot/videos/S_yt-0MB_IYX1fgo_44.mp4	0.0	124.48578715324402	2.5084168910980225
11	30.951874017715454	response	1	2		9.0	2.5	/experiments/knapen_aot/videos/S_yt-0MB_IYX1fgo_44.mp4	0.0	126.80523705482483	
11	31.140841007232666	fix_post	2		12.0	9.0	2.5	/experiments/knapen_aot/videos/S_yt-0MB_IYX1fgo_44.mp4	0.0	126.99420404434204	0.09992599487304688
12	31.240767002105713	fix_pre	0		23.0	10.0	2.5	/experiments/knapen_aot/videos/R_S_G008_C015_UHD_SDR_2K_AVC.mp4	0.0	127.09413003921509	0.19162893295288086
12	31.42420196533203	response	0	2		10.0	2.5	/experiments/knapen_aot/videos/R_S_G008_C015_UHD_SDR_2K_AVC.mp4	0.0	127.2775650024414	
12	31.432395935058594	movie	1		179.0	10.0	2.5	/experiments/knapen_aot/videos/R_S_G008_C015_UHD_SDR_2K_AVC.mp4	0.0	127.28575897216797	2.508334159851074
12	33.74910616874695	response	1	2		10.0	2.5	/experiments/knapen_aot/videos/R_S_G008_C015_UHD_SDR_2K_AVC.mp4	0.0	129.60246920585632	
12	33.94073009490967	fix_post	2		12.0	10.0	2.5	/experiments/knapen_aot/videos/R_S_G008_C015_UHD_SDR_2K_AVC.mp4	0.0	129.79409313201904	0.09993386268615723
12	33.9910089969635	response	2	2		10.0	2.5	/experiments/knapen_aot/videos/R_S_G008_C015_UHD_SDR_2K_AVC.mp4	0.0	129.84437203407288	
13	34.040663957595825	fix_pre	0		34.0	11.0	2.5	/experiments/knapen_aot/videos/S_ILSVRC2015_train_00165009.mp4	0.0	129.8940269947052	0.2834010124206543
13	34.31580400466919	response	0	2		11.0	2.5	/experiments/knapen_aot/videos/S_ILSVRC2015_train_00165009.mp4	0.0	130.16916704177856	
13	34.32406497001648	movie	1		300.0	11.0	2.5	/experiments/knapen_aot/videos/S_ILSVRC2015_train_00165009.mp4	0.0	130.17742800712585	2.4999780654907227
13	36.81584310531616	response	1	2		11.0	2.5	/experiments/knapen_aot/videos/S_ILSVRC2015_train_00165009.mp4	0.0	132.66920614242554	
13	36.8240430355072	fix_post	2		13.0	11.0	2.5	/experiments/knapen_aot/videos/S_ILSVRC2015_train_00165009.mp4	0.0	132.67740607261658	0.10825300216674805
14	36.93229603767395	fix_pre	0		14.0	12.0	2.5	/experiments/knapen_aot/videos/S_S005_C015_SDR_2K_AVC.mp4	0.0	132.78565907478333	0.11673307418823242
14	37.03337502479553	response	0	2		12.0	2.5	/experiments/knapen_aot/videos/S_S005_C015_SDR_2K_AVC.mp4	0.0	132.8867380619049	
14	37.04902911186218	movie	1		169.0	12.0	2.5	/experiments/knapen_aot/videos/S_S005_C015_SDR_2K_AVC.mp4	0.0	132.90239214897156	2.5083529949188232
14	39.557382106781006	fix_post	2		12.0	12.0	2.5	/experiments/knapen_aot/videos/S_S005_C015_SDR_2K_AVC.mp4	0.0	135.41074514389038	0.1000368595123291
15	39.657418966293335	fix_pre	0		19.0	13.0	2.5	/experiments/knapen_aot/videos/S_pexels-mart-production-8435081.mp4	0.0	135.5107820034027	0.15874910354614258
15	39.80758094787598	response	0	2		13.0	2.5	/experiments/knapen_aot/videos/S_pexels-mart-production-8435081.mp4	0.0	135.66094398498535	
15	39.81616806983948	movie	1		206.0	13.0	2.5	/experiments/knapen_aot/videos/S_pexels-mart-production-8435081.mp4	0.0	135.66953110694885	2.5078649520874023
15	42.32403302192688	fix_post	2		12.0	13.0	2.5	/experiments/knapen_aot/videos/S_pexels-mart-production-8435081.mp4	0.0	138.17739605903625	0.10001301765441895
15	42.38269901275635	response	2	2		13.0	2.5	/experiments/knapen_aot/videos/S_pexels-mart-production-8435081.mp4	0.0	138.23606204986572	
16	42.4240460395813	fix_pre	0		31.0	14.0	2.5	blank	1.0	138.27740907669067	0.2583310604095459
16	42.67421317100525	response	0	2		14.0	2.5	blank	1.0	138.52757620811462	
16	42.682377099990845	movie	1		301.0	14.0	2.5	blank	1.0	138.53574013710022	2.508293867111206
16	44.074207067489624	response	1	2		14.0	2.5	blank	1.0	139.927570104599	
16	45.19067096710205	fix_post	2		12.0	14.0	2.5	blank	1.0	141.04403400421143	0.10004210472106934
17	45.29071307182312	fix_pre	0		22.0	15.0	2.5	/experiments/knapen_aot/videos/R_S_yt-26009GpQuUg_3.mp4	0.0	141.1440761089325	0.18328189849853516
17	45.4658739566803	response	0	2		15.0	2.5	/experiments/knapen_aot/videos/R_S_yt-26009GpQuUg_3.mp4	0.0	141.31923699378967	
17	45.473994970321655	movie	1		300.0	15.0	2.5	/experiments/knapen_aot/videos/R_S_yt-26009GpQuUg_3.mp4	0.0	141.32735800743103	2.5083281993865967
17	47.98232316970825	fix_post	2		12.0	15.0	2.5	/experiments/knapen_aot/videos/R_S_yt-26009GpQuUg_3.mp4	0.0	143.83568620681763	0.10001182556152344
18	48.082334995269775	fix_pre	0		18.0	16.0	2.5	/experiments/knapen_aot/videos/R_S_yt-0Ut9QANGX20_35.mp4	0.0	143.93569803237915	0.15032315254211426
18	48.22409915924072	response	0	2		16.0	2.5	/experiments/knapen_aot/videos/R_S_yt-0Ut9QANGX20_35.mp4	0.0	144.0774621963501	
18	48.23265814781189	movie	1		301.0	16.0	2.5	/experiments/knapen_aot/videos/R_S_yt-0Ut9QANGX20_35.mp4	0.0	144.08602118492126	2.50799298286438
18	50.74065113067627	fix_post	2		12.0	16.0	2.5	/experiments/knapen_aot/videos/R_S_yt-0Ut9QANGX20_35.mp4	0.0	146.59401416778564	0.09994888305664062
18	50.799044132232666	response	2	2		16.0	2.5	/experiments/knapen_aot/videos/R_S_yt-0Ut9QANGX20_35.mp4	0.0	146.65240716934204	
19	50.84060001373291	fix_pre	0		35.0	17.0	2.5	/experiments/knapen_aot/videos/S_yt-OLDm2slgfA4_3.mp4	0.0	146.69396305084229	0.2917671203613281
19	51.12405014038086	response	0	2		17.0	2.5	/experiments/knapen_aot/videos/S_yt-OLDm2slgfA4_3.mp4	0.0	146.97741317749023	
19	51.13236713409424	movie	1		301.0	17.0	2.5	/experiments/knapen_aot/videos/S_yt-OLDm2slgfA4_3.mp4	0.0	146.9857301712036	2.50821590423584
19	53.64058303833008	fix_post	2		12.0	17.0	2.5	/experiments/knapen_aot/videos/S_yt-OLDm2slgfA4_3.mp4	0.0	149.49394607543945	0.10002994537353516
20	53.74061298370361	fix_pre	0		17.0	18.0	2.5	/experiments/knapen_aot/videos/S_yt-4BAsE47kJNk_88.mp4	0.0	149.593976020813	0.141632080078125
20	53.866652965545654	response	0	2		18.0	2.5	/experiments/knapen_aot/videos/S_yt-4BAsE47kJNk_88.mp4	0.0	149.72001600265503	
20	53.88224506378174	movie	1		301.0	18.0	2.5	/experiments/knapen_aot/videos/S_yt-4BAsE47kJNk_88.mp4	0.0	149.7356081008911	2.508363962173462
20	56.3906090259552	fix_post	2		12.0	18.0	2.5	/experiments/knapen_aot/videos/S_yt-4BAsE47kJNk_88.mp4	0.0	152.24397206306458	0.10004591941833496
21	56.490654945373535	fix_pre	0		28.0	19.0	2.5	/experiments/knapen_aot/videos/S_yt-M5qZo3CUXYE_27.mp4	0.0	152.3440179824829	0.23328804969787598
21	56.71571111679077	response	0	2		19.0	2.5	/experiments/knapen_aot/videos/S_yt-M5qZo3CUXYE_27.mp4	0.0	152.56907415390015	
21	56.72394299507141	movie	1		299.0	19.0	2.5	/experiments/knapen_aot/videos/S_yt-M5qZo3CUXYE_27.mp4	0.0	152.5773060321808	2.5083301067352295
21	59.23227310180664	fix_post	2		12.0	19.0	2.5	/experiments/knapen_aot/videos/S_yt-M5qZo3CUXYE_27.mp4	0.0	155.08563613891602	0.09996986389160156
22	59.33224296569824	fix_pre	0		21.0	20.0	2.5	/experiments/knapen_aot/videos/S_yt-JmmyeMOFpII_29.mp4	0.0	155.18560600280762	0.17499017715454102
22	59.49903416633606	response	0	2		20.0	2.5	/experiments/knapen_aot/videos/S_yt-JmmyeMOFpII_29.mp4	0.0	155.35239720344543	
22	59.50723314285278	movie	1		301.0	20.0	2.5	/experiments/knapen_aot/videos/S_yt-JmmyeMOFpII_29.mp4	0.0	155.36059617996216	2.508333921432495
22	62.01556706428528	fix_post	2		12.0	20.0	2.5	/experiments/knapen_aot/videos/S_yt-JmmyeMOFpII_29.mp4	0.0	157.86893010139465	0.10002708435058594
23	62.115594148635864	fix_pre	0		15.0	21.0	2.5	blank	1.0	157.96895718574524	0.12498593330383301
23	62.22490310668945	response	0	2		21.0	2.5	blank	1.0	158.07826614379883	
23	62.2405800819397	movie	1		301.0	21.0	2.5	blank	1.0	158.09394311904907	2.5083279609680176
23	64.74890804290771	fix_post	2		12.0	21.0	2.5	blank	1.0	160.6022710800171	0.09993600845336914
24	64.84884405136108	fix_pre	0		16.0	22.0	2.5	/experiments/knapen_aot/videos/R_S_yt-VrEuTDQxtD0_226.mp4	0.0	160.70220708847046	0.13371992111206055
24	64.97397208213806	response	0	2		22.0	2.5	/experiments/knapen_aot/videos/R_S_yt-VrEuTDQxtD0_226.mp4	0.0	160.82733511924744	
24	64.98256397247314	movie	1		300.0	22.0	2.5	/experiments/knapen_aot/videos/R_S_yt-VrEuTDQxtD0_226.mp4	0.0	160.83592700958252	2.508061170578003
24	67.49062514305115	fix_post	2		12.0	22.0	2.5	/experiments/knapen_aot/videos/R_S_yt-VrEuTDQxtD0_226.mp4	0.0	163.34398818016052	0.10004782676696777
25	67.59067296981812	fix_pre	0		26.0	23.0	2.5	/experiments/knapen_aot/videos/S_comp_A050_C004_1027V8_v16_SDR_FINAL_20180706_SDR_2K_AVC.mp4	0.0	163.4440360069275	0.21652698516845703
25	67.79904103279114	response	0	2		23.0	2.5	/experiments/knapen_aot/videos/S_comp_A050_C004_1027V8_v16_SDR_FINAL_20180706_SDR_2K_AVC.mp4	0.0	163.6524040699005	
25	67.80719995498657	movie	1		169.0	23.0	2.5	/experiments/knapen_aot/videos/S_comp_A050_C004_1027V8_v16_SDR_FINAL_20180706_SDR_2K_AVC.mp4	0.0	163.66056299209595	2.508376121520996
25	70.31557607650757	fix_post	2		12.0	23.0	2.5	/experiments/knapen_aot/videos/S_comp_A050_C004_1027V8_v16_SDR_FINAL_20180706_SDR_2K_AVC.mp4	0.0	166.16893911361694	0.09999799728393555
26	70.4155740737915	fix_pre	0		3.0	24.0	2.5	/experiments/knapen_aot/videos/S_yt-4oT-2eGhmUo_102.mp4	0.0	166.26893711090088	0.025599956512451172
26	70.43257999420166	response	0	2		24.0	2.5	/experiments/knapen_aot/videos/S_yt-4oT-2eGhmUo_102.mp4	0.0	166.28594303131104	
26	70.44117403030396	movie	1		301.0	24.0	2.5	/experiments/knapen_aot/videos/S_yt-4oT-2eGhmUo_102.mp4	0.0	166.29453706741333	2.5076630115509033
26	72.94883704185486	fix_post	2		12.0	24.0	2.5	/experiments/knapen_aot/videos/S_yt-4oT-2eGhmUo_102.mp4	0.0	168.80220007896423	0.10004496574401855
26	73.02446103096008	response	2	2		24.0	2.5	/experiments/knapen_aot/videos/S_yt-4oT-2eGhmUo_102.mp4	0.0	168.87782406806946	
27	73.04888200759888	fix_pre	0		48.0	25.0	2.5	/experiments/knapen_aot/videos/S_ux8Mvi8P16k_168.mp4	0.0	168.90224504470825	0.3999941349029541
27	73.4405951499939	response	0	2		25.0	2.5	/experiments/knapen_aot/videos/S_ux8Mvi8P16k_168.mp4	0.0	169.29395818710327	
27	73.44887614250183	movie	1		301.0	25.0	2.5	/experiments/knapen_aot/videos/S_ux8Mvi8P16k_168.mp4	0.0	169.3022391796112	2.5083298683166504
27	75.95720601081848	fix_post	2		12.0	25.0	2.5	/experiments/knapen_aot/videos/S_ux8Mvi8P16k_168.mp4	0.0	171.81056904792786	0.0999150276184082
28	76.05712103843689	fix_pre	0		12.0	26.0	2.5	blank	1.0	171.91048407554626	0.10007810592651367
28	76.14904713630676	response	0	2		26.0	2.5	blank	1.0	172.00241017341614	
28	76.1571991443634	movie	1		301.0	26.0	2.5	blank	1.0	172.01056218147278	2.5083248615264893
28	78.66552400588989	fix_post	2		12.0	26.0	2.5	blank	1.0	174.51888704299927	0.09996199607849121
29	78.76548600196838	fix_pre	0		34.0	27.0	2.5	/experiments/knapen_aot/videos/S_yt--DXkjCUzThU_413.mp4	0.0	174.61884903907776	0.2833290100097656
29	79.0406141281128	response	0	2		27.0	2.5	/experiments/knapen_aot/videos/S_yt--DXkjCUzThU_413.mp4	0.0	174.89397716522217	
29	79.04881501197815	movie	1		301.0	27.0	2.5	/experiments/knapen_aot/videos/S_yt--DXkjCUzThU_413.mp4	0.0	174.90217804908752	2.508357048034668
29	81.55717206001282	fix_post	2		12.0	27.0	2.5	/experiments/knapen_aot/videos/S_yt--DXkjCUzThU_413.mp4	0.0	177.4105350971222	0.09998703002929688
30	81.65715909004211	fix_pre	0		88.0	28.0	2.5	/experiments/knapen_aot/videos/S_yt-26009GpQuUg_3.mp4	0.0	177.5105221271515	0.7333319187164307
30	82.38236093521118	response	0	2		28.0	2.5	/experiments/knapen_aot/videos/S_yt-26009GpQuUg_3.mp4	0.0	178.23572397232056	
30	82.39049100875854	movie	1		301.0	28.0	2.5	/experiments/knapen_aot/videos/S_yt-26009GpQuUg_3.mp4	0.0	178.24385404586792	2.5083141326904297
30	84.89880514144897	fix_post	2		12.0	28.0	2.5	/experiments/knapen_aot/videos/S_yt-26009GpQuUg_3.mp4	0.0	180.75216817855835	0.09999489784240723
31	84.99880003929138	fix_pre	0		31.0	29.0	2.5	/experiments/knapen_aot/videos/S_yt-4oT-2eGhmUo_102.mp4	0.0	180.85216307640076	0.25829100608825684
31	85.24891710281372	response	0	2		29.0	2.5	/experiments/knapen_aot/videos/S_yt-4oT-2eGhmUo_102.mp4	0.0	181.1022801399231	
31	85.25709104537964	movie	1		301.0	29.0	2.5	/experiments/knapen_aot/videos/S_yt-4oT-2eGhmUo_102.mp4	0.0	181.110454082489	2.508359909057617
31	87.76545095443726	fix_post	2		12.0	29.0	2.5	/experiments/knapen_aot/videos/S_yt-4oT-2eGhmUo_102.mp4	0.0	183.61881399154663	0.09991812705993652
32	87.86536908149719	fix_pre	0		14.0	30.0	2.5	/experiments/knapen_aot/videos/R_S_yt-2y6A9DJPsDU_65.mp4	0.0	183.71873211860657	0.11698508262634277
32	87.97392296791077	response	0	2		30.0	2.5	/experiments/knapen_aot/videos/R_S_yt-2y6A9DJPsDU_65.mp4	0.0	183.82728600502014	
32	87.98235416412354	movie	1		301.0	30.0	2.5	/experiments/knapen_aot/videos/R_S_yt-2y6A9DJPsDU_65.mp4	0.0	183.8357172012329	2.5080997943878174
32	90.49045395851135	fix_post	2		12.0	30.0	2.5	/experiments/knapen_aot/videos/R_S_yt-2y6A9DJPsDU_65.mp4	0.0	186.34381699562073	0.09999918937683105
33	90.59045314788818	fix_pre	0		22.0	31.0	2.5	/experiments/knapen_aot/videos/S_ILSVRC2015_train_00599000.mp4	0.0	186.44381618499756	0.1834869384765625
33	90.76556611061096	response	0	2		31.0	2.5	/experiments/knapen_aot/videos/S_ILSVRC2015_train_00599000.mp4	0.0	186.61892914772034	
33	90.77394008636475	movie	1		301.0	31.0	2.5	/experiments/knapen_aot/videos/S_ILSVRC2015_train_00599000.mp4	0.0	186.62730312347412	2.5082650184631348
33	93.28220510482788	fix_post	2		12.0	31.0	2.5	/experiments/knapen_aot/videos/S_ILSVRC2015_train_00599000.mp4	0.0	189.13556814193726	0.09994292259216309
34	93.38214802742004	fix_pre	0		22.0	32.0	2.5	/experiments/knapen_aot/videos/S_yt-x6tYi0lRGqU_114.mp4	0.0	189.23551106452942	0.18348193168640137
34	93.54972696304321	response	0	2		32.0	2.5	/experiments/knapen_aot/videos/S_yt-x6tYi0lRGqU_114.mp4	0.0	189.4030900001526	
34	93.56562995910645	movie	1		301.0	32.0	2.5	/experiments/knapen_aot/videos/S_yt-x6tYi0lRGqU_114.mp4	0.0	189.41899299621582	2.5080690383911133
34	96.07369899749756	fix_post	2		12.0	32.0	2.5	/experiments/knapen_aot/videos/S_yt-x6tYi0lRGqU_114.mp4	0.0	191.92706203460693	0.10003495216369629
35	96.17373394966125	fix_pre	0		31.0	33.0	2.5	/experiments/knapen_aot/videos/R_S_yt-kA0ybjmoiMc_284.mp4	0.0	192.02709698677063	0.25835514068603516
35	96.42385196685791	response	0	2		33.0	2.5	/experiments/knapen_aot/videos/R_S_yt-kA0ybjmoiMc_284.mp4	0.0	192.27721500396729	
35	96.43208909034729	movie	1		301.0	33.0	2.5	/experiments/knapen_aot/videos/R_S_yt-kA0ybjmoiMc_284.mp4	0.0	192.28545212745667	2.508481979370117
35	98.94057106971741	fix_post	2		12.0	33.0	2.5	/experiments/knapen_aot/videos/R_S_yt-kA0ybjmoiMc_284.mp4	0.0	194.79393410682678	0.09987092018127441
36	99.04044198989868	fix_pre	0		25.0	34.0	2.5	blank	1.0	194.89380502700806	0.2082960605621338
36	99.24053812026978	response	0	2		34.0	2.5	blank	1.0	195.09390115737915	
36	99.24873805046082	movie	1		301.0	34.0	2.5	blank	1.0	195.1021010875702	2.508342981338501
36	101.75708103179932	fix_post	2		12.0	34.0	2.5	blank	1.0	197.6104440689087	0.10012006759643555
37	101.85720109939575	fix_pre	0		33.0	35.0	2.5	/experiments/knapen_aot/videos/S_ILSVRC2015_train_00469000.mp4	0.0	197.71056413650513	0.27484703063964844
37	102.12389707565308	response	0	2		35.0	2.5	/experiments/knapen_aot/videos/S_ILSVRC2015_train_00469000.mp4	0.0	197.97726011276245	
37	102.1320481300354	movie	1		300.0	35.0	2.5	/experiments/knapen_aot/videos/S_ILSVRC2015_train_00469000.mp4	0.0	197.98541116714478	2.5084078311920166
37	104.64045596122742	fix_post	2		12.0	35.0	2.5	/experiments/knapen_aot/videos/S_ILSVRC2015_train_00469000.mp4	0.0	200.4938189983368	0.09998106956481934
38	104.74043703079224	fix_pre	0		23.0	36.0	2.5	/experiments/knapen_aot/videos/S_yt-bmGWhOCsvJo_128.mp4	0.0	200.5938000679016	0.19163012504577637
38	104.91632795333862	response	0	2		36.0	2.5	/experiments/knapen_aot/videos/S_yt-bmGWhOCsvJo_128.mp4	0.0	200.769690990448	
38	104.93206715583801	movie	1		297.0	36.0	2.5	/experiments/knapen_aot/videos/S_yt-bmGWhOCsvJo_128.mp4	0.0	200.7854301929474	2.508490800857544
38	107.44055795669556	fix_post	2		12.0	36.0	2.5	/experiments/knapen_aot/videos/S_yt-bmGWhOCsvJo_128.mp4	0.0	203.29392099380493	0.09987115859985352
39	107.54042911529541	fix_pre	0		24.0	37.0	2.5	/experiments/knapen_aot/videos/R_S_b1-3.mp4	0.0	203.39379215240479	0.19985294342041016
39	107.73219394683838	response	0	2		37.0	2.5	/experiments/knapen_aot/videos/R_S_b1-3.mp4	0.0	203.58555698394775	
39	107.74028205871582	movie	1		168.0	37.0	2.5	/experiments/knapen_aot/videos/R_S_b1-3.mp4	0.0	203.5936450958252	2.508315086364746
39	110.24859714508057	fix_post	2		12.0	37.0	2.5	/experiments/knapen_aot/videos/R_S_b1-3.mp4	0.0	206.10196018218994	0.10014581680297852
39	110.29064011573792	response	2	4		37.0	2.5	/experiments/knapen_aot/videos/R_S_b1-3.mp4	0.0	206.1440031528473	
40	110.34874296188354	fix_pre	0		32.0	38.0	2.5	/experiments/knapen_aot/videos/S_wc-b4Oquu3WQPRz_45.mp4	0.0	206.20210599899292	0.26660704612731934
40	110.60716605186462	response	0	4		38.0	2.5	/experiments/knapen_aot/videos/S_wc-b4Oquu3WQPRz_45.mp4	0.0	206.460529088974	
40	110.61535000801086	movie	1		166.0	38.0	2.5	/experiments/knapen_aot/videos/S_wc-b4Oquu3WQPRz_45.mp4	0.0	206.46871304512024	2.5083489418029785
40	113.12369894981384	fix_post	2		12.0	38.0	2.5	/experiments/knapen_aot/videos/S_wc-b4Oquu3WQPRz_45.mp4	0.0	208.97706198692322	0.10002613067626953
41	113.22372508049011	fix_pre	0		32.0	39.0	2.5	/experiments/knapen_aot/videos/R_S_ILSVRC2015_train_00565000.mp4	0.0	209.0770881175995	0.26662206649780273
41	113.48224115371704	response	0	2		39.0	2.5	/experiments/knapen_aot/videos/R_S_ILSVRC2015_train_00565000.mp4	0.0	209.33560419082642	
41	113.49034714698792	movie	1		301.0	39.0	2.5	/experiments/knapen_aot/videos/R_S_ILSVRC2015_train_00565000.mp4	0.0	209.3437101840973	2.508312940597534
41	115.99866008758545	fix_post	2		12.0	39.0	2.5	/experiments/knapen_aot/videos/R_S_ILSVRC2015_train_00565000.mp4	0.0	211.85202312469482	0.10005998611450195
42	116.09872007369995	fix_pre	0		28.0	40.0	2.5	/experiments/knapen_aot/videos/R_S_yt-4oacL3aXtlU_11.mp4	0.0	211.95208311080933	0.23330092430114746
42	116.32397103309631	response	0	2		40.0	2.5	/experiments/knapen_aot/videos/R_S_yt-4oacL3aXtlU_11.mp4	0.0	212.1773340702057	
42	116.3320209980011	movie	1		301.0	40.0	2.5	/experiments/knapen_aot/videos/R_S_yt-4oacL3aXtlU_11.mp4	0.0	212.18538403511047	2.5083119869232178
42	118.84033298492432	fix_post	2		12.0	40.0	2.5	/experiments/knapen_aot/videos/R_S_yt-4oacL3aXtlU_11.mp4	0.0	214.6936960220337	0.10009098052978516
43	118.9404239654541	fix_pre	0		55.0	41.0	2.5	/experiments/knapen_aot/videos/S_yt-aQfM-NhNSsA_136.mp4	0.0	214.79378700256348	0.458327054977417
43	119.38297200202942	response	0	2		41.0	2.5	/experiments/knapen_aot/videos/S_yt-aQfM-NhNSsA_136.mp4	0.0	215.2363350391388	
43	119.39875102043152	movie	1		301.0	41.0	2.5	/experiments/knapen_aot/videos/S_yt-aQfM-NhNSsA_136.mp4	0.0	215.2521140575409	2.5083301067352295
43	121.90708112716675	fix_post	2		12.0	41.0	2.5	/experiments/knapen_aot/videos/S_yt-aQfM-NhNSsA_136.mp4	0.0	217.76044416427612	0.09991884231567383
44	122.00699996948242	fix_pre	0		27.0	42.0	2.5	blank	1.0	217.8603630065918	0.2250511646270752
44	122.22387194633484	response	0	2		42.0	2.5	blank	1.0	218.0772349834442	
44	122.2320511341095	movie	1		301.0	42.0	2.5	blank	1.0	218.08541417121887	2.5082919597625732
44	124.74034309387207	fix_post	2		12.0	42.0	2.5	blank	1.0	220.59370613098145	0.1000819206237793
45	124.84042501449585	fix_pre	0		25.0	43.0	2.5	/experiments/knapen_aot/videos/S_ILSVRC2015_train_00569002.mp4	0.0	220.69378805160522	0.20824503898620605
45	125.04046201705933	response	0	2		43.0	2.5	/experiments/knapen_aot/videos/S_ILSVRC2015_train_00569002.mp4	0.0	220.8938250541687	
45	125.04867005348206	movie	1		301.0	43.0	2.5	/experiments/knapen_aot/videos/S_ILSVRC2015_train_00569002.mp4	0.0	220.90203309059143	2.5081889629364014
45	127.55685901641846	fix_post	2		12.0	43.0	2.5	/experiments/knapen_aot/videos/S_ILSVRC2015_train_00569002.mp4	0.0	223.41022205352783	0.10016512870788574
46	127.65702414512634	fix_pre	0		46.0	44.0	2.5	/experiments/knapen_aot/videos/R_S_G008_C015_UHD_SDR_2K_AVC.mp4	0.0	223.51038718223572	0.38329195976257324
46	128.03207516670227	response	0	2		44.0	2.5	/experiments/knapen_aot/videos/R_S_G008_C015_UHD_SDR_2K_AVC.mp4	0.0	223.88543820381165	
46	128.04031610488892	movie	1		182.0	44.0	2.5	/experiments/knapen_aot/videos/R_S_G008_C015_UHD_SDR_2K_AVC.mp4	0.0	223.8936791419983	2.5083119869232178
46	130.54862809181213	fix_post	2		12.0	44.0	2.5	/experiments/knapen_aot/videos/R_S_G008_C015_UHD_SDR_2K_AVC.mp4	0.0	226.4019911289215	0.10007691383361816
47	130.64870500564575	fix_pre	0		49.0	45.0	2.5	/experiments/knapen_aot/videos/S_yt-gDZnJCR2uXI_18.mp4	0.0	226.50206804275513	0.4081430435180664
47	131.04872512817383	response	0	2		45.0	2.5	/experiments/knapen_aot/videos/S_yt-gDZnJCR2uXI_18.mp4	0.0	226.9020881652832	
47	131.05684804916382	movie	1		301.0	45.0	2.5	/experiments/knapen_aot/videos/S_yt-gDZnJCR2uXI_18.mp4	0.0	226.9102110862732	2.508486032485962
47	133.56533408164978	fix_post	2		12.0	45.0	2.5	/experiments/knapen_aot/videos/S_yt-gDZnJCR2uXI_18.mp4	0.0	229.41869711875916	0.09994697570800781
48	133.6652810573578	fix_pre	0		20.0	46.0	2.5	/experiments/knapen_aot/videos/S_yt-VrEuTDQxtD0_226.mp4	0.0	229.51864409446716	0.16663789749145508
48	133.82366704940796	response	0	2		46.0	2.5	/experiments/knapen_aot/videos/S_yt-VrEuTDQxtD0_226.mp4	0.0	229.67703008651733	
48	133.83191895484924	movie	1		301.0	46.0	2.5	/experiments/knapen_aot/videos/S_yt-VrEuTDQxtD0_226.mp4	0.0	229.68528199195862	2.5083560943603516
48	136.3402750492096	fix_post	2		12.0	46.0	2.5	/experiments/knapen_aot/videos/S_yt-VrEuTDQxtD0_226.mp4	0.0	232.19363808631897	0.10002303123474121
49	136.44029808044434	fix_pre	0		201.0	47.0	2.5	blank	1.0	232.2936611175537	1.6749260425567627
49	138.107017993927	response	0	2		47.0	2.5	blank	1.0	233.96038103103638	
49	138.1152241230011	movie	1		301.0	47.0	2.5	blank	1.0	233.96858716011047	2.50833797454834
49	140.62356209754944	fix_post	2		12.0	47.0	2.5	blank	1.0	236.4769251346588	0.10003185272216797
50	140.7235939502716	fix_pre	0		26.0	48.0	2.5	/experiments/knapen_aot/videos/R_S_yt-fLNDhX22diw_98.mp4	0.0	236.57695698738098	0.2166600227355957
50	140.93193817138672	response	0	2		48.0	2.5	/experiments/knapen_aot/videos/R_S_yt-fLNDhX22diw_98.mp4	0.0	236.7853012084961	
50	140.9402539730072	movie	1		299.0	48.0	2.5	/experiments/knapen_aot/videos/R_S_yt-fLNDhX22diw_98.mp4	0.0	236.79361701011658	2.508296012878418
50	143.44854998588562	fix_post	2		12.0	48.0	2.5	/experiments/knapen_aot/videos/R_S_yt-fLNDhX22diw_98.mp4	0.0	239.301913022995	0.09993195533752441
51	143.54848194122314	fix_pre	0		27.0	49.0	2.5	/experiments/knapen_aot/videos/S_comp_H012_C009_PS_v01_SDR_PS_20180925_SDR_2K_AVC.mp4	0.0	239.40184497833252	0.22504615783691406
51	143.76536417007446	response	0	2		49.0	2.5	/experiments/knapen_aot/videos/S_comp_H012_C009_PS_v01_SDR_PS_20180925_SDR_2K_AVC.mp4	0.0	239.61872720718384	
51	143.77352809906006	movie	1		169.0	49.0	2.5	/experiments/knapen_aot/videos/S_comp_H012_C009_PS_v01_SDR_PS_20180925_SDR_2K_AVC.mp4	0.0	239.62689113616943	2.5083489418029785
51	146.28187704086304	fix_post	2		12.0	49.0	2.5	/experiments/knapen_aot/videos/S_comp_H012_C009_PS_v01_SDR_PS_20180925_SDR_2K_AVC.mp4	0.0	242.1352400779724	0.0999910831451416
52	146.38186812400818	fix_pre	0		42.0	50.0	2.5	/experiments/knapen_aot/videos/R_S_ILSVRC2015_train_00569002.mp4	0.0	242.23523116111755	0.35001683235168457
52	146.72365713119507	response	0	2		50.0	2.5	/experiments/knapen_aot/videos/R_S_ILSVRC2015_train_00569002.mp4	0.0	242.57702016830444	
52	146.73188495635986	movie	1		301.0	50.0	2.5	/experiments/knapen_aot/videos/R_S_ILSVRC2015_train_00569002.mp4	0.0	242.58524799346924	2.5084340572357178
52	149.24031901359558	fix_post	2		12.0	50.0	2.5	/experiments/knapen_aot/videos/R_S_ILSVRC2015_train_00569002.mp4	0.0	245.09368205070496	0.09990096092224121
53	149.34021997451782	fix_pre	0		40.0	51.0	2.5	/experiments/knapen_aot/videos/R_S_3dzza09VbXY_235.mp4	0.0	245.1935830116272	0.3332860469818115
53	149.66526412963867	response	0	2		51.0	2.5	/experiments/knapen_aot/videos/R_S_3dzza09VbXY_235.mp4	0.0	245.51862716674805	
53	149.67350602149963	movie	1		301.0	51.0	2.5	/experiments/knapen_aot/videos/R_S_3dzza09VbXY_235.mp4	0.0	245.526869058609	2.5083470344543457
53	152.18185305595398	fix_post	2		12.0	51.0	2.5	/experiments/knapen_aot/videos/R_S_3dzza09VbXY_235.mp4	0.0	248.03521609306335	0.09996390342712402
54	152.2818169593811	fix_pre	0		33.0	52.0	2.5	/experiments/knapen_aot/videos/S_SE_A016_C009_SDR_20190717_SDR_2K_AVC.mp4	0.0	248.13517999649048	0.27632904052734375
54	152.54867005348206	response	0	2		52.0	2.5	/experiments/knapen_aot/videos/S_SE_A016_C009_SDR_20190717_SDR_2K_AVC.mp4	0.0	248.40203309059143	
54	152.55814599990845	movie	1		167.0	52.0	2.5	/experiments/knapen_aot/videos/S_SE_A016_C009_SDR_20190717_SDR_2K_AVC.mp4	0.0	248.41150903701782	2.5070040225982666
54	155.0651500225067	fix_post	2		12.0	52.0	2.5	/experiments/knapen_aot/videos/S_SE_A016_C009_SDR_20190717_SDR_2K_AVC.mp4	0.0	250.9185130596161	0.09991312026977539
55	155.1650631427765	fix_pre	0		16.0	53.0	2.5	/experiments/knapen_aot/videos/R_S_yt-BIDHmbneB10_998.mp4	0.0	251.01842617988586	0.13341188430786133
55	155.29028606414795	response	0	2		53.0	2.5	/experiments/knapen_aot/videos/R_S_yt-BIDHmbneB10_998.mp4	0.0	251.14364910125732	
55	155.29847502708435	movie	1		299.0	53.0	2.5	/experiments/knapen_aot/videos/R_S_yt-BIDHmbneB10_998.mp4	0.0	251.15183806419373	2.5083611011505127
55	157.80683612823486	fix_post	2		12.0	53.0	2.5	/experiments/knapen_aot/videos/R_S_yt-BIDHmbneB10_998.mp4	0.0	253.66019916534424	0.09997701644897461
56	157.90681314468384	fix_pre	0		19.0	54.0	2.5	/experiments/knapen_aot/videos/R_S_yt-M5qZo3CUXYE_27.mp4	0.0	253.7601761817932	0.15830302238464355
56	158.05698800086975	response	0	4		54.0	2.5	/experiments/knapen_aot/videos/R_S_yt-M5qZo3CUXYE_27.mp4	0.0	253.91035103797913	
56	158.06511616706848	movie	1		301.0	54.0	2.5	/experiments/knapen_aot/videos/R_S_yt-M5qZo3CUXYE_27.mp4	0.0	253.91847920417786	2.5082919597625732
56	160.57340812683105	fix_post	2		12.0	54.0	2.5	/experiments/knapen_aot/videos/R_S_yt-M5qZo3CUXYE_27.mp4	0.0	256.42677116394043	0.10009002685546875
57	160.67349815368652	fix_pre	0		118.0	55.0	2.5	/experiments/knapen_aot/videos/S_yt-kA0ybjmoiMc_284.mp4	0.0	256.5268611907959	0.9833099842071533
57	161.64867997169495	response	0	4		55.0	2.5	/experiments/knapen_aot/videos/S_yt-kA0ybjmoiMc_284.mp4	0.0	257.5020430088043	
57	161.65680813789368	movie	1		301.0	55.0	2.5	/experiments/knapen_aot/videos/S_yt-kA0ybjmoiMc_284.mp4	0.0	257.51017117500305	2.508265972137451
57	164.16507411003113	fix_post	2		12.0	55.0	2.5	/experiments/knapen_aot/videos/S_yt-kA0ybjmoiMc_284.mp4	0.0	260.0184371471405	0.1000368595123291
58	164.26511096954346	fix_pre	0		121.0	56.0	2.5	blank	1.0	260.11847400665283	1.008342981338501
58	165.2652850151062	response	0	4		56.0	2.5	blank	1.0	261.1186480522156	
58	165.27345395088196	movie	1		301.0	56.0	2.5	blank	1.0	261.12681698799133	2.508331060409546
58	167.7817850112915	fix_post	2		12.0	56.0	2.5	blank	1.0	263.6351480484009	0.09998893737792969
59	167.88177394866943	fix_pre	0		26.0	57.0	2.5	/experiments/knapen_aot/videos/S_yt-CR86bVrRwfo_13.mp4	0.0	263.7351369857788	0.21785211563110352
59	168.09020805358887	response	0	2		57.0	2.5	/experiments/knapen_aot/videos/S_yt-CR86bVrRwfo_13.mp4	0.0	263.94357109069824	
59	168.09962606430054	movie	1		301.0	57.0	2.5	/experiments/knapen_aot/videos/S_yt-CR86bVrRwfo_13.mp4	0.0	263.9529891014099	2.507143020629883
59	170.60676908493042	fix_post	2		12.0	57.0	2.5	/experiments/knapen_aot/videos/S_yt-CR86bVrRwfo_13.mp4	0.0	266.4601321220398	0.09995198249816895
60	170.7067210674286	fix_pre	0		27.0	58.0	2.5	/experiments/knapen_aot/videos/R_S_Pz_NXxhQCJc_70.mp4	0.0	266.56008410453796	0.22622203826904297
60	170.92351603507996	response	0	2		58.0	2.5	/experiments/knapen_aot/videos/R_S_Pz_NXxhQCJc_70.mp4	0.0	266.77687907218933	
60	170.93294310569763	movie	1		301.0	58.0	2.5	/experiments/knapen_aot/videos/R_S_Pz_NXxhQCJc_70.mp4	0.0	266.786306142807	2.5071609020233154
60	173.44010400772095	fix_post	2		12.0	58.0	2.5	/experiments/knapen_aot/videos/R_S_Pz_NXxhQCJc_70.mp4	0.0	269.2934670448303	0.09997200965881348
61	173.54007601737976	fix_pre	0		71.0	59.0	2.5	/experiments/knapen_aot/videos/R_S_production_ID_5049072.mp4	0.0	269.39343905448914	0.5916321277618408
61	174.12353110313416	response	0	2		59.0	2.5	/experiments/knapen_aot/videos/R_S_production_ID_5049072.mp4	0.0	269.97689414024353	
61	174.1317081451416	movie	1		166.0	59.0	2.5	/experiments/knapen_aot/videos/R_S_production_ID_5049072.mp4	0.0	269.985071182251	2.5084187984466553
61	176.64012694358826	fix_post	2		12.0	59.0	2.5	/experiments/knapen_aot/videos/R_S_production_ID_5049072.mp4	0.0	272.49348998069763	0.0999910831451416
62	176.7401180267334	fix_pre	0		106.0	60.0	2.5	/experiments/knapen_aot/videos/R_S_yt-BJsMGxfjrZk_59.mp4	0.0	272.5934810638428	0.8832991123199463
62	177.61520409584045	response	0	2		60.0	2.5	/experiments/knapen_aot/videos/R_S_yt-BJsMGxfjrZk_59.mp4	0.0	273.46856713294983	
62	177.62341713905334	movie	1		301.0	60.0	2.5	/experiments/knapen_aot/videos/R_S_yt-BJsMGxfjrZk_59.mp4	0.0	273.4767801761627	2.508384943008423
62	180.13180208206177	fix_post	2		12.0	60.0	2.5	/experiments/knapen_aot/videos/R_S_yt-BJsMGxfjrZk_59.mp4	0.0	275.98516511917114	0.0999760627746582
63	180.23177814483643	fix_pre	0		57.0	61.0	2.5	/experiments/knapen_aot/videos/R_S_production_ID_4325516.mp4	0.0	276.0851411819458	0.4749879837036133
63	180.6985800266266	response	0	2		61.0	2.5	/experiments/knapen_aot/videos/R_S_production_ID_4325516.mp4	0.0	276.55194306373596	
63	180.70676612854004	movie	1		193.0	61.0	2.5	/experiments/knapen_aot/videos/R_S_production_ID_4325516.mp4	0.0	276.5601291656494	2.508328914642334
63	183.21509504318237	fix_post	2		12.0	61.0	2.5	/experiments/knapen_aot/videos/R_S_production_ID_4325516.mp4	0.0	279.06845808029175	0.09994697570800781
64	183.31504201889038	fix_pre	0		84.0	62.0	2.5	/experiments/knapen_aot/videos/R_S_yt-JmmyeMOFpII_29.mp4	0.0	279.16840505599976	0.7011520862579346
64	184.0069341659546	response	0	2		62.0	2.5	/experiments/knapen_aot/videos/R_S_yt-JmmyeMOFpII_29.mp4	0.0	279.86029720306396	
64	184.01619410514832	movie	1		301.0	62.0	2.5	/experiments/knapen_aot/videos/R_S_yt-JmmyeMOFpII_29.mp4	0.0	279.8695571422577	2.507153034210205
64	186.52334713935852	fix_post	2		12.0	62.0	2.5	/experiments/knapen_aot/videos/R_S_yt-JmmyeMOFpII_29.mp4	0.0	282.3767101764679	0.10003399848937988
65	186.6233811378479	fix_pre	0		111.0	63.0	2.5	blank	1.0	282.4767441749573	0.9248878955841064
65	187.5401451587677	response	0	2		63.0	2.5	blank	1.0	283.3935081958771	
65	187.548269033432	movie	1		301.0	63.0	2.5	blank	1.0	283.4016320705414	2.5084280967712402
65	190.05669713020325	fix_post	2		12.0	63.0	2.5	blank	1.0	285.9100601673126	0.09995484352111816
66	190.15665197372437	fix_pre	0		26.0	64.0	2.5	/experiments/knapen_aot/videos/S_yt-Z0nfPTEEOLo_85.mp4	0.0	286.01001501083374	0.21668004989624023
66	190.36514711380005	response	0	4		64.0	2.5	/experiments/knapen_aot/videos/S_yt-Z0nfPTEEOLo_85.mp4	0.0	286.2185101509094	
66	190.3733320236206	movie	1		301.0	64.0	2.5	/experiments/knapen_aot/videos/S_yt-Z0nfPTEEOLo_85.mp4	0.0	286.22669506073	2.5083649158477783
66	192.88169693946838	fix_post	2		12.0	64.0	2.5	/experiments/knapen_aot/videos/S_yt-Z0nfPTEEOLo_85.mp4	0.0	288.73505997657776	0.10014605522155762
67	192.98184299468994	fix_pre	0		57.0	65.0	2.5	/experiments/knapen_aot/videos/S_cST9H3zu3zQ_126.mp4	0.0	288.8352060317993	0.4747741222381592
67	193.4485101699829	response	0	2		65.0	2.5	/experiments/knapen_aot/videos/S_cST9H3zu3zQ_126.mp4	0.0	289.3018732070923	
67	193.4566171169281	movie	1		301.0	65.0	2.5	/experiments/knapen_aot/videos/S_cST9H3zu3zQ_126.mp4	0.0	289.3099801540375	2.5084068775177
67	195.9650239944458	fix_post	2		12.0	65.0	2.5	/experiments/knapen_aot/videos/S_cST9H3zu3zQ_126.mp4	0.0	291.8183870315552	0.09997916221618652
68	196.065003156662	fix_pre	0		101.0	66.0	2.5	/experiments/knapen_aot/videos/R_S_yt-VTNBCfQxnsk_59.mp4	0.0	291.91836619377136	0.8415939807891846
68	196.89844608306885	response	0	2		66.0	2.5	/experiments/knapen_aot/videos/R_S_yt-VTNBCfQxnsk_59.mp4	0.0	292.7518091201782	
68	196.90659713745117	movie	1		301.0	66.0	2.5	/experiments/knapen_aot/videos/R_S_yt-VTNBCfQxnsk_59.mp4	0.0	292.75996017456055	2.5083158016204834
68	199.41491293907166	fix_post	2		12.0	66.0	2.5	/experiments/knapen_aot/videos/R_S_yt-VTNBCfQxnsk_59.mp4	0.0	295.26827597618103	0.1000521183013916
69	199.51496505737305	fix_pre	0		19.0	67.0	2.5	/experiments/knapen_aot/videos/S_yt-GWgG8PVM1iw_34.mp4	0.0	295.3683280944824	0.15825891494750977
69	199.6574821472168	response	0	2		67.0	2.5	/experiments/knapen_aot/videos/S_yt-GWgG8PVM1iw_34.mp4	0.0	295.5108451843262	
69	199.67322397232056	movie	1		301.0	67.0	2.5	/experiments/knapen_aot/videos/S_yt-GWgG8PVM1iw_34.mp4	0.0	295.52658700942993	2.508390188217163
69	202.18161416053772	fix_post	2		12.0	67.0	2.5	/experiments/knapen_aot/videos/S_yt-GWgG8PVM1iw_34.mp4	0.0	298.0349771976471	0.1000208854675293
70	202.28163504600525	fix_pre	0		37.0	68.0	2.5	blank	1.0	298.1349980831146	0.30826592445373535
70	202.58178615570068	response	0	2		68.0	2.5	blank	1.0	298.43514919281006	
70	202.58990097045898	movie	1		301.0	68.0	2.5	blank	1.0	298.44326400756836	2.5083811283111572
70	205.09828209877014	fix_post	2		12.0	68.0	2.5	blank	1.0	300.9516451358795	0.10001301765441895
71	205.19829511642456	fix_pre	0		31.0	69.0	2.5	/experiments/knapen_aot/videos/R_S_yt-IX6uxR5DSKk_2.mp4	0.0	301.05165815353394	0.2583048343658447
71	205.4409351348877	response	0	2		69.0	2.5	/experiments/knapen_aot/videos/R_S_yt-IX6uxR5DSKk_2.mp4	0.0	301.29429817199707	
71	205.4565999507904	movie	1		301.0	69.0	2.5	/experiments/knapen_aot/videos/R_S_yt-IX6uxR5DSKk_2.mp4	0.0	301.3099629878998	2.5083541870117188
71	207.96495413780212	fix_post	2		12.0	69.0	2.5	/experiments/knapen_aot/videos/R_S_yt-IX6uxR5DSKk_2.mp4	0.0	303.8183171749115	0.0999908447265625
72	208.0649449825287	fix_pre	0		37.0	70.0	2.5	/experiments/knapen_aot/videos/S_pexels-c-technical-6763571.mp4	0.0	303.91830801963806	0.30821895599365234
72	208.36507105827332	response	0	2		70.0	2.5	/experiments/knapen_aot/videos/S_pexels-c-technical-6763571.mp4	0.0	304.2184340953827	
72	208.37316393852234	movie	1		191.0	70.0	2.5	/experiments/knapen_aot/videos/S_pexels-c-technical-6763571.mp4	0.0	304.2265269756317	2.508439064025879
72	210.88160300254822	fix_post	2		12.0	70.0	2.5	/experiments/knapen_aot/videos/S_pexels-c-technical-6763571.mp4	0.0	306.7349660396576	0.09999203681945801
73	210.98159503936768	fix_pre	0		41.0	71.0	2.5	/experiments/knapen_aot/videos/S_ILSVRC2015_train_00565000.mp4	0.0	306.83495807647705	0.34155893325805664
73	211.31501412391663	response	0	2		71.0	2.5	/experiments/knapen_aot/videos/S_ILSVRC2015_train_00565000.mp4	0.0	307.168377161026	
73	211.32315397262573	movie	1		301.0	71.0	2.5	/experiments/knapen_aot/videos/S_ILSVRC2015_train_00565000.mp4	0.0	307.1765170097351	2.5084049701690674
73	213.8315589427948	fix_post	2		12.0	71.0	2.5	/experiments/knapen_aot/videos/S_ILSVRC2015_train_00565000.mp4	0.0	309.6849219799042	0.10002899169921875
74	213.93158793449402	fix_pre	0		35.0	72.0	2.5	/experiments/knapen_aot/videos/S_ILSVRC2015_train_00661001.mp4	0.0	309.7849509716034	0.2925441265106201
74	214.21501803398132	response	0	2		72.0	2.5	/experiments/knapen_aot/videos/S_ILSVRC2015_train_00661001.mp4	0.0	310.0683810710907	
74	214.22413206100464	movie	1		301.0	72.0	2.5	/experiments/knapen_aot/videos/S_ILSVRC2015_train_00661001.mp4	0.0	310.077495098114	2.5074238777160645
74	216.7315559387207	fix_post	2		12.0	72.0	2.5	/experiments/knapen_aot/videos/S_ILSVRC2015_train_00661001.mp4	0.0	312.5849189758301	0.10011005401611328
75	216.83166599273682	fix_pre	0		20.0	73.0	2.5	/experiments/knapen_aot/videos/R_S_pexels-koolshooters-7327405.mp4	0.0	312.6850290298462	0.16652297973632812
75	216.98999404907227	response	0	2		73.0	2.5	/experiments/knapen_aot/videos/R_S_pexels-koolshooters-7327405.mp4	0.0	312.84335708618164	
75	216.99818897247314	movie	1		167.0	73.0	2.5	/experiments/knapen_aot/videos/R_S_pexels-koolshooters-7327405.mp4	0.0	312.8515520095825	2.5083930492401123
75	219.50658202171326	fix_post	2		12.0	73.0	2.5	/experiments/knapen_aot/videos/R_S_pexels-koolshooters-7327405.mp4	0.0	315.35994505882263	0.09993600845336914
76	219.60651803016663	fix_pre	0		107.0	74.0	2.5	/experiments/knapen_aot/videos/S_yt-1uk2k3PnTNw_37.0.mp4	0.0	315.459881067276	0.891632080078125
76	220.4900200366974	response	0	2		74.0	2.5	/experiments/knapen_aot/videos/S_yt-1uk2k3PnTNw_37.0.mp4	0.0	316.34338307380676	
76	220.49815011024475	movie	1		301.0	74.0	2.5	/experiments/knapen_aot/videos/S_yt-1uk2k3PnTNw_37.0.mp4	0.0	316.3515131473541	2.5084028244018555
76	223.0065529346466	fix_post	2		12.0	74.0	2.5	/experiments/knapen_aot/videos/S_yt-1uk2k3PnTNw_37.0.mp4	0.0	318.859915971756	0.1000220775604248
77	223.10657501220703	fix_pre	0		24.0	75.0	2.5	/experiments/knapen_aot/videos/S_yt-bmGWhOCsvJo_128.mp4	0.0	318.9599380493164	0.20087003707885742
77	223.2983729839325	response	0	2		75.0	2.5	/experiments/knapen_aot/videos/S_yt-bmGWhOCsvJo_128.mp4	0.0	319.15173602104187	
77	223.3074450492859	movie	1		301.0	75.0	2.5	/experiments/knapen_aot/videos/S_yt-bmGWhOCsvJo_128.mp4	0.0	319.16080808639526	2.5073599815368652
77	225.81480503082275	fix_post	2		12.0	75.0	2.5	/experiments/knapen_aot/videos/S_yt-bmGWhOCsvJo_128.mp4	0.0	321.66816806793213	0.10006093978881836
78	225.91486597061157	fix_pre	0		14.0	76.0	2.5	blank	1.0	321.76822900772095	0.11667919158935547
78	226.01578211784363	response	0	2		76.0	2.5	blank	1.0	321.869145154953	
78	226.03154516220093	movie	1		301.0	76.0	2.5	blank	1.0	321.8849081993103	2.5083367824554443
78	228.05663394927979	response	1	2		76.0	2.5	blank	1.0	323.90999698638916	
78	228.3065791130066	response	1	2		76.0	2.5	blank	1.0	324.15994215011597	
78	228.53988194465637	fix_post	2		12.0	76.0	2.5	blank	1.0	324.39324498176575	0.09996819496154785
79	228.63985013961792	fix_pre	0		30.0	77.0	2.5	/experiments/knapen_aot/videos/R_S_production_ID_4707837.mp4	0.0	324.4932131767273	0.2509188652038574
79	228.88158106803894	response	0	2		77.0	2.5	/experiments/knapen_aot/videos/R_S_production_ID_4707837.mp4	0.0	324.7349441051483	
79	228.89076900482178	movie	1		163.0	77.0	2.5	/experiments/knapen_aot/videos/R_S_production_ID_4707837.mp4	0.0	324.74413204193115	2.5073461532592773
79	231.39811515808105	fix_post	2		12.0	77.0	2.5	/experiments/knapen_aot/videos/R_S_production_ID_4707837.mp4	0.0	327.25147819519043	0.09994196891784668
80	231.4980571269989	fix_pre	0		2.0	78.0	2.5	/experiments/knapen_aot/videos/R_S_production_ID_4673611.mp4	0.0	327.3514201641083	0.017729997634887695
80	231.50665712356567	response	0	2		78.0	2.5	/experiments/knapen_aot/videos/R_S_production_ID_4673611.mp4	0.0	327.36002016067505	
80	231.5157871246338	movie	1		175.0	78.0	2.5	/experiments/knapen_aot/videos/R_S_production_ID_4673611.mp4	0.0	327.36915016174316	2.5073118209838867
80	234.02309894561768	fix_post	2		12.0	78.0	2.5	/experiments/knapen_aot/videos/R_S_production_ID_4673611.mp4	0.0	329.87646198272705	0.10005402565002441
81	234.1231529712677	fix_pre	0		8.0	79.0	2.5	/experiments/knapen_aot/videos/R_S_yt-BIDHmbneB10_998.mp4	0.0	329.9765160083771	0.06665706634521484
81	234.18159699440002	response	0	4		79.0	2.5	/experiments/knapen_aot/videos/R_S_yt-BIDHmbneB10_998.mp4	0.0	330.0349600315094	
81	234.18981003761292	movie	1		301.0	79.0	2.5	/experiments/knapen_aot/videos/R_S_yt-BIDHmbneB10_998.mp4	0.0	330.0431730747223	2.508389949798584
81	236.6981999874115	fix_post	2		12.0	79.0	2.5	/experiments/knapen_aot/videos/R_S_yt-BIDHmbneB10_998.mp4	0.0	332.5515630245209	0.09991598129272461
82	236.79811596870422	fix_pre	0		42.0	80.0	2.5	/experiments/knapen_aot/videos/R_S_video-9.mp4	0.0	332.6514790058136	0.3499569892883301
82	237.13997507095337	response	0	2		80.0	2.5	/experiments/knapen_aot/videos/R_S_video-9.mp4	0.0	332.99333810806274	
82	237.14807295799255	movie	1		201.0	80.0	2.5	/experiments/knapen_aot/videos/R_S_video-9.mp4	0.0	333.00143599510193	2.508378028869629
82	239.65645098686218	fix_post	2		12.0	80.0	2.5	/experiments/knapen_aot/videos/R_S_video-9.mp4	0.0	335.50981402397156	0.10002613067626953
83	239.75647711753845	fix_pre	0		95.0	81.0	2.5	/experiments/knapen_aot/videos/S_pexels-koolshooters-7327412_1.mp4	0.0	335.6098401546478	0.7916769981384277
83	240.53997111320496	response	0	2		81.0	2.5	/experiments/knapen_aot/videos/S_pexels-koolshooters-7327412_1.mp4	0.0	336.39333415031433	
83	240.54815411567688	movie	1		166.0	81.0	2.5	/experiments/knapen_aot/videos/S_pexels-koolshooters-7327412_1.mp4	0.0	336.40151715278625	2.5083160400390625
83	243.05647015571594	fix_post	2		12.0	81.0	2.5	/experiments/knapen_aot/videos/S_pexels-koolshooters-7327412_1.mp4	0.0	338.9098331928253	0.09995198249816895
84	243.1564221382141	fix_pre	0		32.0	82.0	2.5	/experiments/knapen_aot/videos/R_S_yt-TxU1H5A6BaQ_52.mp4	0.0	339.0097851753235	0.2666618824005127
84	243.41488814353943	response	0	2		82.0	2.5	/experiments/knapen_aot/videos/R_S_yt-TxU1H5A6BaQ_52.mp4	0.0	339.2682511806488	
84	243.42308402061462	movie	1		301.0	82.0	2.5	/experiments/knapen_aot/videos/R_S_yt-TxU1H5A6BaQ_52.mp4	0.0	339.276447057724	2.5083680152893066
84	245.93145203590393	fix_post	2		12.0	82.0	2.5	/experiments/knapen_aot/videos/R_S_yt-TxU1H5A6BaQ_52.mp4	0.0	341.7848150730133	0.10008692741394043
85	246.03153896331787	fix_pre	0		12.0	83.0	2.5	blank	1.0	341.88490200042725	0.09988999366760254
85	246.1156599521637	response	0	2		83.0	2.5	blank	1.0	341.96902298927307	
85	246.13142895698547	movie	1		301.0	83.0	2.5	blank	1.0	341.98479199409485	2.508342981338501
85	248.63977193832397	fix_post	2		12.0	83.0	2.5	blank	1.0	344.49313497543335	0.10001420974731445
87	248.7397861480713	stim	0		151.0					344.59314918518066	1.2617878913879395
87	249.98744797706604	response	0	space						345.8408110141754	
