trial_nr	onset	event_type	phase	response	nr_frames	movie_index	movie_duration	movie_file	blank	onset_abs	duration
0	0.1301250457763672	stim	0		136.0					158.02657103538513	1.1389029026031494
0	1.2583909034729004	response	0	space						159.15483689308167	
1	1.2690279483795166	stim	0		121.0					159.16547393798828	1.0055780410766602
1	2.2497808933258057	response	0	space						160.14622688293457	
1	2.2746059894561768	stim	1		120.0					160.17105197906494	1.0000309944152832
1	2.974785089492798	response	1	space						160.87123107910156	
2	3.27463698387146	fix_pre	0		4.0	0.0	2.5	/experiments/knapen_aot/videos/S_yt-e_eOzV7qMZo_374.mp4	0.0	161.17108297348022	0.03566694259643555
2	3.30098295211792	response	0	2		0.0	2.5	/experiments/knapen_aot/videos/S_yt-e_eOzV7qMZo_374.mp4	0.0	161.19742894172668	
2	3.3103039264678955	movie	1		300.0	0.0	2.5	/experiments/knapen_aot/videos/S_yt-e_eOzV7qMZo_374.mp4	0.0	161.20674991607666	2.5060460567474365
2	5.816349983215332	fix_post	2		12.0	0.0	2.5	/experiments/knapen_aot/videos/S_yt-e_eOzV7qMZo_374.mp4	0.0	163.7127959728241	0.10001301765441895
3	5.916363000869751	fix_pre	0		23.0	1.0	2.5	/experiments/knapen_aot/videos/S_yt-ybH6uAiFbjc_273.mp4	0.0	163.81280899047852	0.1925039291381836
3	6.099751949310303	response	0	2		1.0	2.5	/experiments/knapen_aot/videos/S_yt-ybH6uAiFbjc_273.mp4	0.0	163.99619793891907	
3	6.108866930007935	movie	1		301.0	1.0	2.5	/experiments/knapen_aot/videos/S_yt-ybH6uAiFbjc_273.mp4	0.0	164.0053129196167	2.5073561668395996
3	8.616223096847534	fix_post	2		12.0	1.0	2.5	/experiments/knapen_aot/videos/S_yt-ybH6uAiFbjc_273.mp4	0.0	166.5126690864563	0.10007596015930176
4	8.716299057006836	fix_pre	0		15.0	2.0	2.5	/experiments/knapen_aot/videos/S_pexels-mart-production-7277934.mp4	0.0	166.6127450466156	0.12493300437927246
4	8.83302903175354	response	0	2		2.0	2.5	/experiments/knapen_aot/videos/S_pexels-mart-production-7277934.mp4	0.0	166.7294750213623	
4	8.841232061386108	movie	1		166.0	2.0	2.5	/experiments/knapen_aot/videos/S_pexels-mart-production-7277934.mp4	0.0	166.73767805099487	2.508323907852173
4	11.349555969238281	fix_post	2		12.0	2.0	2.5	/experiments/knapen_aot/videos/S_pexels-mart-production-7277934.mp4	0.0	169.24600195884705	0.09999704360961914
5	11.4495530128479	fix_pre	0		12.0	3.0	2.5	/experiments/knapen_aot/videos/R_S_yt-ZwnliF0525U_95.mp4	0.0	169.34599900245667	0.09995603561401367
5	11.541398048400879	response	0	2		3.0	2.5	/experiments/knapen_aot/videos/R_S_yt-ZwnliF0525U_95.mp4	0.0	169.43784403800964	
5	11.549509048461914	movie	1		301.0	3.0	2.5	/experiments/knapen_aot/videos/R_S_yt-ZwnliF0525U_95.mp4	0.0	169.44595503807068	2.5084140300750732
5	14.057923078536987	fix_post	2		12.0	3.0	2.5	/experiments/knapen_aot/videos/R_S_yt-ZwnliF0525U_95.mp4	0.0	171.95436906814575	0.10004901885986328
6	14.15797209739685	fix_pre	0		36.0	4.0	2.5	/experiments/knapen_aot/videos/R_S_pexels-rodnae-productions-5993671.mp4	0.0	172.05441808700562	0.2999098300933838
6	14.4497230052948	response	0	2		4.0	2.5	/experiments/knapen_aot/videos/R_S_pexels-rodnae-productions-5993671.mp4	0.0	172.34616899490356	
6	14.457881927490234	movie	1		163.0	4.0	2.5	/experiments/knapen_aot/videos/R_S_pexels-rodnae-productions-5993671.mp4	0.0	172.354327917099	2.508355140686035
6	16.96623706817627	fix_post	2		12.0	4.0	2.5	/experiments/knapen_aot/videos/R_S_pexels-rodnae-productions-5993671.mp4	0.0	174.86268305778503	0.09996485710144043
7	17.06620192527771	fix_pre	0		20.0	5.0	2.5	/experiments/knapen_aot/videos/R_S_ILSVRC2015_train_00572000.mp4	0.0	174.96264791488647	0.16756701469421387
7	17.22466802597046	response	0	2		5.0	2.5	/experiments/knapen_aot/videos/R_S_ILSVRC2015_train_00572000.mp4	0.0	175.12111401557922	
7	17.233768939971924	movie	1		301.0	5.0	2.5	/experiments/knapen_aot/videos/R_S_ILSVRC2015_train_00572000.mp4	0.0	175.1302149295807	2.5074541568756104
7	19.741223096847534	fix_post	2		12.0	5.0	2.5	/experiments/knapen_aot/videos/R_S_ILSVRC2015_train_00572000.mp4	0.0	177.6376690864563	0.09999299049377441
8	19.84121608734131	fix_pre	0		19.0	6.0	2.5	/experiments/knapen_aot/videos/R_S_yt-b7JAHOeiTqU_44.mp4	0.0	177.73766207695007	0.15832901000976562
8	19.991424083709717	response	0	2		6.0	2.5	/experiments/knapen_aot/videos/R_S_yt-b7JAHOeiTqU_44.mp4	0.0	177.88787007331848	
8	19.999545097351074	movie	1		301.0	6.0	2.5	/experiments/knapen_aot/videos/R_S_yt-b7JAHOeiTqU_44.mp4	0.0	177.89599108695984	2.5083060264587402
8	22.507851123809814	fix_post	2		12.0	6.0	2.5	/experiments/knapen_aot/videos/R_S_yt-b7JAHOeiTqU_44.mp4	0.0	180.40429711341858	0.10015583038330078
9	22.608006954193115	fix_pre	0		19.0	7.0	2.5	blank	1.0	180.50445294380188	0.1581709384918213
9	22.758080005645752	response	0	2		7.0	2.5	blank	1.0	180.65452599525452	
9	22.766177892684937	movie	1		301.0	7.0	2.5	blank	1.0	180.6626238822937	2.508345127105713
9	25.27452301979065	fix_post	2		12.0	7.0	2.5	blank	1.0	183.1709690093994	0.10008096694946289
10	25.374603986740112	fix_pre	0		27.0	8.0	2.5	/experiments/knapen_aot/videos/S_yt-wLylWnZs3z0_27.mp4	0.0	183.27104997634888	0.2248530387878418
10	25.591339111328125	response	0	2		8.0	2.5	/experiments/knapen_aot/videos/S_yt-wLylWnZs3z0_27.mp4	0.0	183.4877851009369	
10	25.599457025527954	movie	1		301.0	8.0	2.5	/experiments/knapen_aot/videos/S_yt-wLylWnZs3z0_27.mp4	0.0	183.49590301513672	2.5083189010620117
10	28.107775926589966	fix_post	2		12.0	8.0	2.5	/experiments/knapen_aot/videos/S_yt-wLylWnZs3z0_27.mp4	0.0	186.00422191619873	0.10013699531555176
11	28.207912921905518	fix_pre	0		20.0	9.0	2.5	/experiments/knapen_aot/videos/R_S_yt-25xuzTBhwPk_109.mp4	0.0	186.10435891151428	0.1666250228881836
11	28.36628794670105	response	0	2		9.0	2.5	/experiments/knapen_aot/videos/R_S_yt-25xuzTBhwPk_109.mp4	0.0	186.26273393630981	
11	28.3745379447937	movie	1		301.0	9.0	2.5	/experiments/knapen_aot/videos/R_S_yt-25xuzTBhwPk_109.mp4	0.0	186.27098393440247	2.508357048034668
11	30.88289499282837	fix_post	2		12.0	9.0	2.5	/experiments/knapen_aot/videos/R_S_yt-25xuzTBhwPk_109.mp4	0.0	188.77934098243713	0.09996509552001953
12	30.98286008834839	fix_pre	0		16.0	10.0	2.5	/experiments/knapen_aot/videos/R_S_yt-wrxk7fFkxHg_177.mp4	0.0	188.87930607795715	0.1332838535308838
12	31.108038902282715	response	0	2		10.0	2.5	/experiments/knapen_aot/videos/R_S_yt-wrxk7fFkxHg_177.mp4	0.0	189.00448489189148	
12	31.116143941879272	movie	1		301.0	10.0	2.5	/experiments/knapen_aot/videos/R_S_yt-wrxk7fFkxHg_177.mp4	0.0	189.01258993148804	2.5083119869232178
12	33.62445592880249	fix_post	2		12.0	10.0	2.5	/experiments/knapen_aot/videos/R_S_yt-wrxk7fFkxHg_177.mp4	0.0	191.52090191841125	0.10005497932434082
13	33.72451090812683	fix_pre	0		9.0	11.0	2.5	/experiments/knapen_aot/videos/R_S_yt-BrepyEWKrPQ_20.mp4	0.0	191.6209568977356	0.07495498657226562
13	33.791281938552856	response	0	2		11.0	2.5	/experiments/knapen_aot/videos/R_S_yt-BrepyEWKrPQ_20.mp4	0.0	191.68772792816162	
13	33.7994658946991	movie	1		301.0	11.0	2.5	/experiments/knapen_aot/videos/R_S_yt-BrepyEWKrPQ_20.mp4	0.0	191.69591188430786	2.50842022895813
13	36.30788612365723	fix_post	2		12.0	11.0	2.5	/experiments/knapen_aot/videos/R_S_yt-BrepyEWKrPQ_20.mp4	0.0	194.204332113266	0.09993290901184082
14	36.40781903266907	fix_pre	0		131.0	12.0	2.5	/experiments/knapen_aot/videos/R_S_video-6.mp4	0.0	194.30426502227783	1.0916860103607178
14	37.49135708808899	response	0	2		12.0	2.5	/experiments/knapen_aot/videos/R_S_video-6.mp4	0.0	195.38780307769775	
14	37.499505043029785	movie	1		165.0	12.0	2.5	/experiments/knapen_aot/videos/R_S_video-6.mp4	0.0	195.39595103263855	2.5083329677581787
14	40.007838010787964	fix_post	2		12.0	12.0	2.5	/experiments/knapen_aot/videos/R_S_video-6.mp4	0.0	197.90428400039673	0.10000205039978027
15	40.107840061187744	fix_pre	0		8.0	13.0	2.5	blank	1.0	198.0042860507965	0.06661796569824219
15	40.166179895401	response	0	2		13.0	2.5	blank	1.0	198.06262588500977	
15	40.174458026885986	movie	1		301.0	13.0	2.5	blank	1.0	198.07090401649475	2.5083110332489014
15	42.68276906013489	fix_post	2		12.0	13.0	2.5	blank	1.0	200.57921504974365	0.10002684593200684
16	42.782795906066895	fix_pre	0		317.0	14.0	2.5	/experiments/knapen_aot/videos/S_production_ID_3761571.mp4	0.0	200.67924189567566	2.6415631771087646
16	45.416178941726685	response	0	2		14.0	2.5	/experiments/knapen_aot/videos/S_production_ID_3761571.mp4	0.0	203.31262493133545	
16	45.42435908317566	movie	1		164.0	14.0	2.5	/experiments/knapen_aot/videos/S_production_ID_3761571.mp4	0.0	203.32080507278442	2.5084269046783447
16	47.932785987854004	fix_post	2		12.0	14.0	2.5	/experiments/knapen_aot/videos/S_production_ID_3761571.mp4	0.0	205.82923197746277	0.09998798370361328
17	48.03277397155762	fix_pre	0		26.0	15.0	2.5	/experiments/knapen_aot/videos/S_S005_C015_SDR_2K_AVC.mp4	0.0	205.92921996116638	0.21657800674438477
17	48.241281032562256	response	0	2		15.0	2.5	/experiments/knapen_aot/videos/S_S005_C015_SDR_2K_AVC.mp4	0.0	206.13772702217102	
17	48.249351978302	movie	1		173.0	15.0	2.5	/experiments/knapen_aot/videos/S_S005_C015_SDR_2K_AVC.mp4	0.0	206.14579796791077	2.508420944213867
17	50.75777292251587	fix_post	2		12.0	15.0	2.5	/experiments/knapen_aot/videos/S_S005_C015_SDR_2K_AVC.mp4	0.0	208.65421891212463	0.09996604919433594
18	50.857738971710205	fix_pre	0		21.0	16.0	2.5	/experiments/knapen_aot/videos/R_S_yt-Q4edV5qiqu0_578.mp4	0.0	208.75418496131897	0.17499613761901855
18	51.024609088897705	response	0	2		16.0	2.5	/experiments/knapen_aot/videos/R_S_yt-Q4edV5qiqu0_578.mp4	0.0	208.92105507850647	
18	51.032735109329224	movie	1		301.0	16.0	2.5	/experiments/knapen_aot/videos/R_S_yt-Q4edV5qiqu0_578.mp4	0.0	208.929181098938	2.5083799362182617
18	53.541115045547485	fix_post	2		12.0	16.0	2.5	/experiments/knapen_aot/videos/R_S_yt-Q4edV5qiqu0_578.mp4	0.0	211.43756103515625	0.09999299049377441
19	53.64110803604126	fix_pre	0		33.0	17.0	2.5	/experiments/knapen_aot/videos/R_S_yt-he_RSdeVinA_68.mp4	0.0	211.53755402565002	0.2749969959259033
19	53.90782809257507	response	0	2		17.0	2.5	/experiments/knapen_aot/videos/R_S_yt-he_RSdeVinA_68.mp4	0.0	211.80427408218384	
19	53.91610503196716	movie	1		301.0	17.0	2.5	/experiments/knapen_aot/videos/R_S_yt-he_RSdeVinA_68.mp4	0.0	211.81255102157593	2.508352041244507
19	56.42445707321167	fix_post	2		12.0	17.0	2.5	/experiments/knapen_aot/videos/R_S_yt-he_RSdeVinA_68.mp4	0.0	214.32090306282043	0.1000058650970459
20	56.524462938308716	fix_pre	0		19.0	18.0	2.5	/experiments/knapen_aot/videos/R_S_pexels-artem-podrez-5457692.mp4	0.0	214.42090892791748	0.15828800201416016
20	56.67449498176575	response	0	2		18.0	2.5	/experiments/knapen_aot/videos/R_S_pexels-artem-podrez-5457692.mp4	0.0	214.5709409713745	
20	56.682750940322876	movie	1		167.0	18.0	2.5	/experiments/knapen_aot/videos/R_S_pexels-artem-podrez-5457692.mp4	0.0	214.57919692993164	2.5083580017089844
20	59.19110894203186	fix_post	2		12.0	18.0	2.5	/experiments/knapen_aot/videos/R_S_pexels-artem-podrez-5457692.mp4	0.0	217.08755493164062	0.09997916221618652
21	59.29108810424805	fix_pre	0		8.0	19.0	2.5	/experiments/knapen_aot/videos/S_yt-WhQMF3WM0Ig_29.mp4	0.0	217.1875340938568	0.06726694107055664
21	59.34949707984924	response	0	2		19.0	2.5	/experiments/knapen_aot/videos/S_yt-WhQMF3WM0Ig_29.mp4	0.0	217.245943069458	
21	59.3583550453186	movie	1		301.0	19.0	2.5	/experiments/knapen_aot/videos/S_yt-WhQMF3WM0Ig_29.mp4	0.0	217.25480103492737	2.5077428817749023
21	61.866097927093506	fix_post	2		12.0	19.0	2.5	/experiments/knapen_aot/videos/S_yt-WhQMF3WM0Ig_29.mp4	0.0	219.76254391670227	0.09998917579650879
22	61.966087102890015	fix_pre	0		12.0	20.0	2.5	/experiments/knapen_aot/videos/S_yt-NuJbedGLcQY_112.mp4	0.0	219.86253309249878	0.10058283805847168
22	62.057843923568726	response	0	2		20.0	2.5	/experiments/knapen_aot/videos/S_yt-NuJbedGLcQY_112.mp4	0.0	219.9542899131775	
22	62.066669940948486	movie	1		299.0	20.0	2.5	/experiments/knapen_aot/videos/S_yt-NuJbedGLcQY_112.mp4	0.0	219.96311593055725	2.507744073867798
22	64.57441401481628	fix_post	2		12.0	20.0	2.5	/experiments/knapen_aot/videos/S_yt-NuJbedGLcQY_112.mp4	0.0	222.47086000442505	0.09996604919433594
23	64.67438006401062	fix_pre	0		19.0	21.0	2.5	blank	1.0	222.57082605361938	0.15835905075073242
23	64.81696391105652	response	0	2		21.0	2.5	blank	1.0	222.71340990066528	
23	64.83273911476135	movie	1		301.0	21.0	2.5	blank	1.0	222.72918510437012	2.508307933807373
23	67.34104704856873	fix_post	2		12.0	21.0	2.5	blank	1.0	225.2374930381775	0.10062003135681152
24	67.44166707992554	fix_pre	0		19.0	22.0	2.5	/experiments/knapen_aot/videos/S_yt-_HuBzj8EPBc_62.mp4	0.0	225.3381130695343	0.15769481658935547
24	67.59119701385498	response	0	2		22.0	2.5	/experiments/knapen_aot/videos/S_yt-_HuBzj8EPBc_62.mp4	0.0	225.48764300346375	
24	67.59936189651489	movie	1		301.0	22.0	2.5	/experiments/knapen_aot/videos/S_yt-_HuBzj8EPBc_62.mp4	0.0	225.49580788612366	2.5083751678466797
24	70.10773706436157	fix_post	2		12.0	22.0	2.5	/experiments/knapen_aot/videos/S_yt-_HuBzj8EPBc_62.mp4	0.0	228.00418305397034	0.09995889663696289
25	70.20769596099854	fix_pre	0		13.0	23.0	2.5	/experiments/knapen_aot/videos/R_S_yt-VJ65ukWmdxQ_193.mp4	0.0	228.1041419506073	0.1088869571685791
25	70.30786895751953	response	0	2		23.0	2.5	/experiments/knapen_aot/videos/R_S_yt-VJ65ukWmdxQ_193.mp4	0.0	228.2043149471283	
25	70.31658291816711	movie	1		301.0	23.0	2.5	/experiments/knapen_aot/videos/R_S_yt-VJ65ukWmdxQ_193.mp4	0.0	228.21302890777588	2.507758140563965
25	72.82434105873108	fix_post	2		12.0	23.0	2.5	/experiments/knapen_aot/videos/R_S_yt-VJ65ukWmdxQ_193.mp4	0.0	230.72078704833984	0.10000896453857422
26	72.92435002326965	fix_pre	0		15.0	24.0	2.5	/experiments/knapen_aot/videos/R_S_yt-7NjoFHBdP7c_102.mp4	0.0	230.82079601287842	0.12497401237487793
26	73.04113006591797	response	0	2		24.0	2.5	/experiments/knapen_aot/videos/R_S_yt-7NjoFHBdP7c_102.mp4	0.0	230.93757605552673	
26	73.04932403564453	movie	1		301.0	24.0	2.5	/experiments/knapen_aot/videos/R_S_yt-7NjoFHBdP7c_102.mp4	0.0	230.9457700252533	2.508362054824829
26	75.55768609046936	fix_post	2		12.0	24.0	2.5	/experiments/knapen_aot/videos/R_S_yt-7NjoFHBdP7c_102.mp4	0.0	233.45413208007812	0.09994697570800781
27	75.65763306617737	fix_pre	0		39.0	25.0	2.5	/experiments/knapen_aot/videos/S_ILSVRC2015_train_00682007.mp4	0.0	233.55407905578613	0.3255898952484131
27	75.96688103675842	response	0	2		25.0	2.5	/experiments/knapen_aot/videos/S_ILSVRC2015_train_00682007.mp4	0.0	233.8633270263672	
27	75.98322296142578	movie	1		301.0	25.0	2.5	/experiments/knapen_aot/videos/S_ILSVRC2015_train_00682007.mp4	0.0	233.87966895103455	2.507779121398926
27	78.4910020828247	fix_post	2		12.0	25.0	2.5	/experiments/knapen_aot/videos/S_ILSVRC2015_train_00682007.mp4	0.0	236.38744807243347	0.09997797012329102
28	78.590980052948	fix_pre	0		19.0	26.0	2.5	/experiments/knapen_aot/videos/S_yt-hQ5pge893b4_6.mp4	0.0	236.48742604255676	0.1582958698272705
28	78.74108099937439	response	0	2		26.0	2.5	/experiments/knapen_aot/videos/S_yt-hQ5pge893b4_6.mp4	0.0	236.63752698898315	
28	78.74927592277527	movie	1		299.0	26.0	2.5	/experiments/knapen_aot/videos/S_yt-hQ5pge893b4_6.mp4	0.0	236.64572191238403	2.5083210468292236
28	81.25759696960449	fix_post	2		12.0	26.0	2.5	/experiments/knapen_aot/videos/S_yt-hQ5pge893b4_6.mp4	0.0	239.15404295921326	0.10054802894592285
29	81.35814499855042	fix_pre	0		56.0	27.0	2.5	/experiments/knapen_aot/videos/S__9v_wUywaAA_35.mp4	0.0	239.25459098815918	0.466109037399292
29	81.81610608100891	response	0	2		27.0	2.5	/experiments/knapen_aot/videos/S__9v_wUywaAA_35.mp4	0.0	239.71255207061768	
29	81.8242540359497	movie	1		301.0	27.0	2.5	/experiments/knapen_aot/videos/S__9v_wUywaAA_35.mp4	0.0	239.72070002555847	2.508449077606201
29	84.33270311355591	fix_post	2		12.0	27.0	2.5	/experiments/knapen_aot/videos/S__9v_wUywaAA_35.mp4	0.0	242.22914910316467	0.09991979598999023
30	84.4326229095459	fix_pre	0		18.0	28.0	2.5	blank	1.0	242.32906889915466	0.1500551700592041
30	84.57451510429382	response	0	2		28.0	2.5	blank	1.0	242.4709610939026	
30	84.5826780796051	movie	1		301.0	28.0	2.5	blank	1.0	242.47912406921387	2.5082428455352783
30	87.09092092514038	fix_post	2		12.0	28.0	2.5	blank	1.0	244.98736691474915	0.10008001327514648
31	87.19100093841553	fix_pre	0		31.0	29.0	2.5	/experiments/knapen_aot/videos/S_production_ID_3943334.mp4	0.0	245.0874469280243	0.2583169937133789
31	87.44111609458923	response	0	2		29.0	2.5	/experiments/knapen_aot/videos/S_production_ID_3943334.mp4	0.0	245.337562084198	
31	87.4493179321289	movie	1		192.0	29.0	2.5	/experiments/knapen_aot/videos/S_production_ID_3943334.mp4	0.0	245.34576392173767	2.508303165435791
31	89.9576210975647	fix_post	2		12.0	29.0	2.5	/experiments/knapen_aot/videos/S_production_ID_3943334.mp4	0.0	247.85406708717346	0.09996795654296875
32	90.05758905410767	fix_pre	0		18.0	30.0	2.5	/experiments/knapen_aot/videos/R_S_production_ID_4325509.mp4	0.0	247.95403504371643	0.14998793601989746
32	90.19941806793213	response	0	2		30.0	2.5	/experiments/knapen_aot/videos/R_S_production_ID_4325509.mp4	0.0	248.0958640575409	
32	90.20757699012756	movie	1		191.0	30.0	2.5	/experiments/knapen_aot/videos/R_S_production_ID_4325509.mp4	0.0	248.10402297973633	2.508376121520996
32	92.71595311164856	fix_post	2		12.0	30.0	2.5	/experiments/knapen_aot/videos/R_S_production_ID_4325509.mp4	0.0	250.61239910125732	0.10000896453857422
33	92.81596207618713	fix_pre	0		1.0	31.0	2.5	/experiments/knapen_aot/videos/S_yt-yPl8LcgSMjo_32.mp4	0.0	250.7124080657959	0.00828695297241211
33	92.81759405136108	response	0	2		31.0	2.5	/experiments/knapen_aot/videos/S_yt-yPl8LcgSMjo_32.mp4	0.0	250.71404004096985	
33	92.82424902915955	movie	1		301.0	31.0	2.5	/experiments/knapen_aot/videos/S_yt-yPl8LcgSMjo_32.mp4	0.0	250.7206950187683	2.5082850456237793
33	95.33253407478333	fix_post	2		12.0	31.0	2.5	/experiments/knapen_aot/videos/S_yt-yPl8LcgSMjo_32.mp4	0.0	253.2289800643921	0.10003805160522461
34	95.43257212638855	fix_pre	0		4.0	32.0	2.5	/experiments/knapen_aot/videos/R_S_yt-hMyqUMAbFAk_303.mp4	0.0	253.32901811599731	0.033357858657836914
34	95.45029807090759	response	0	2		32.0	2.5	/experiments/knapen_aot/videos/R_S_yt-hMyqUMAbFAk_303.mp4	0.0	253.34674406051636	
34	95.46592998504639	movie	1		299.0	32.0	2.5	/experiments/knapen_aot/videos/R_S_yt-hMyqUMAbFAk_303.mp4	0.0	253.36237597465515	2.510209083557129
34	97.96602296829224	response	1	2		32.0	2.5	/experiments/knapen_aot/videos/R_S_yt-hMyqUMAbFAk_303.mp4	0.0	255.862468957901	
34	97.97613906860352	fix_post	2		12.0	32.0	2.5	/experiments/knapen_aot/videos/R_S_yt-hMyqUMAbFAk_303.mp4	0.0	255.87258505821228	0.09808683395385742
35	98.07422590255737	fix_pre	0		39.0	33.0	2.5	blank	1.0	255.97067189216614	0.3254530429840088
35	98.39113092422485	response	0	2		33.0	2.5	blank	1.0	256.2875769138336	
35	98.39967894554138	movie	1		301.0	33.0	2.5	blank	1.0	256.29612493515015	2.5078721046447754
35	100.90755105018616	fix_post	2		12.0	33.0	2.5	blank	1.0	258.8039970397949	0.09992504119873047
36	101.00747609138489	fix_pre	0		57.0	34.0	2.5	/experiments/knapen_aot/videos/R_S_yt-2IxVZeiSv3g_28.mp4	0.0	258.90392208099365	0.4754760265350342
36	101.4743640422821	response	0	2		34.0	2.5	/experiments/knapen_aot/videos/R_S_yt-2IxVZeiSv3g_28.mp4	0.0	259.37081003189087	
36	101.48295211791992	movie	1		301.0	34.0	2.5	/experiments/knapen_aot/videos/R_S_yt-2IxVZeiSv3g_28.mp4	0.0	259.3793981075287	2.5079758167266846
36	103.94932699203491	response	1	2		34.0	2.5	/experiments/knapen_aot/videos/R_S_yt-2IxVZeiSv3g_28.mp4	0.0	261.8457729816437	
36	103.9909279346466	fix_post	2		12.0	34.0	2.5	/experiments/knapen_aot/videos/R_S_yt-2IxVZeiSv3g_28.mp4	0.0	261.88737392425537	0.09996914863586426
37	104.09089708328247	fix_pre	0		89.0	35.0	2.5	/experiments/knapen_aot/videos/R_S_yt-7WYXuBHeorw_188.mp4	0.0	261.98734307289124	0.7416050434112549
37	104.8243420124054	response	0	2		35.0	2.5	/experiments/knapen_aot/videos/R_S_yt-7WYXuBHeorw_188.mp4	0.0	262.72078800201416	
37	104.83250212669373	movie	1		301.0	35.0	2.5	/experiments/knapen_aot/videos/R_S_yt-7WYXuBHeorw_188.mp4	0.0	262.7289481163025	2.5083858966827393
37	107.34088802337646	fix_post	2		12.0	35.0	2.5	/experiments/knapen_aot/videos/R_S_yt-7WYXuBHeorw_188.mp4	0.0	265.23733401298523	0.10035490989685059
37	107.43265295028687	response	2	2		35.0	2.5	/experiments/knapen_aot/videos/R_S_yt-7WYXuBHeorw_188.mp4	0.0	265.32909893989563	
38	107.44124293327332	fix_pre	0		118.0	36.0	2.5	/experiments/knapen_aot/videos/R_S_PA_A004_C003_SDR_20190719_SDR_2K_AVC.mp4	0.0	265.3376889228821	0.9829151630401611
38	108.41598105430603	response	0	2		36.0	2.5	/experiments/knapen_aot/videos/R_S_PA_A004_C003_SDR_20190719_SDR_2K_AVC.mp4	0.0	266.3124270439148	
38	108.42415809631348	movie	1		181.0	36.0	2.5	/experiments/knapen_aot/videos/R_S_PA_A004_C003_SDR_20190719_SDR_2K_AVC.mp4	0.0	266.32060408592224	2.508344888687134
38	110.93250298500061	fix_post	2		12.0	36.0	2.5	/experiments/knapen_aot/videos/R_S_PA_A004_C003_SDR_20190719_SDR_2K_AVC.mp4	0.0	268.8289489746094	0.10007095336914062
38	110.99926209449768	response	2	2		36.0	2.5	/experiments/knapen_aot/videos/R_S_PA_A004_C003_SDR_20190719_SDR_2K_AVC.mp4	0.0	268.89570808410645	
39	111.03257393836975	fix_pre	0		100.0	37.0	2.5	/experiments/knapen_aot/videos/R_S_yt-oVrkSsEpuvk_118.mp4	0.0	268.9290199279785	0.8332631587982178
39	111.85764193534851	response	0	2		37.0	2.5	/experiments/knapen_aot/videos/R_S_yt-oVrkSsEpuvk_118.mp4	0.0	269.7540879249573	
39	111.86583709716797	movie	1		301.0	37.0	2.5	/experiments/knapen_aot/videos/R_S_yt-oVrkSsEpuvk_118.mp4	0.0	269.76228308677673	2.5083680152893066
39	114.37420511245728	fix_post	2		12.0	37.0	2.5	/experiments/knapen_aot/videos/R_S_yt-oVrkSsEpuvk_118.mp4	0.0	272.27065110206604	0.09995293617248535
40	114.47415804862976	fix_pre	0		8.0	38.0	2.5	/experiments/knapen_aot/videos/S_comp_N008_C009_PS_v01_SDR_PS_20180925_SDR_2K_AVC.mp4	0.0	272.3706040382385	0.06663703918457031
40	114.53262710571289	response	0	2		38.0	2.5	/experiments/knapen_aot/videos/S_comp_N008_C009_PS_v01_SDR_PS_20180925_SDR_2K_AVC.mp4	0.0	272.42907309532166	
40	114.54079508781433	movie	1		171.0	38.0	2.5	/experiments/knapen_aot/videos/S_comp_N008_C009_PS_v01_SDR_PS_20180925_SDR_2K_AVC.mp4	0.0	272.4372410774231	2.508335828781128
40	117.04913091659546	fix_post	2		12.0	38.0	2.5	/experiments/knapen_aot/videos/S_comp_N008_C009_PS_v01_SDR_PS_20180925_SDR_2K_AVC.mp4	0.0	274.9455769062042	0.10016202926635742
41	117.14929294586182	fix_pre	0		24.0	39.0	2.5	/experiments/knapen_aot/videos/R_S_yt-0lfSyC79n14_7.mp4	0.0	275.0457389354706	0.19982695579528809
41	117.34091711044312	response	0	2		39.0	2.5	/experiments/knapen_aot/videos/R_S_yt-0lfSyC79n14_7.mp4	0.0	275.2373631000519	
41	117.3491199016571	movie	1		301.0	39.0	2.5	/experiments/knapen_aot/videos/R_S_yt-0lfSyC79n14_7.mp4	0.0	275.24556589126587	2.5083529949188232
41	119.85747289657593	fix_post	2		12.0	39.0	2.5	/experiments/knapen_aot/videos/R_S_yt-0lfSyC79n14_7.mp4	0.0	277.7539188861847	0.10002923011779785
42	119.95750212669373	fix_pre	0		11.0	40.0	2.5	/experiments/knapen_aot/videos/S_ILSVRC2015_train_00368000.mp4	0.0	277.8539481163025	0.09164786338806152
42	120.04094696044922	response	0	2		40.0	2.5	/experiments/knapen_aot/videos/S_ILSVRC2015_train_00368000.mp4	0.0	277.937392950058	
42	120.04914999008179	movie	1		298.0	40.0	2.5	/experiments/knapen_aot/videos/S_ILSVRC2015_train_00368000.mp4	0.0	277.94559597969055	2.5082650184631348
42	122.55741500854492	fix_post	2		12.0	40.0	2.5	/experiments/knapen_aot/videos/S_ILSVRC2015_train_00368000.mp4	0.0	280.4538609981537	0.10009288787841797
43	122.65750789642334	fix_pre	0		7.0	41.0	2.5	/experiments/knapen_aot/videos/R_S_video-12.mp4	0.0	280.5539538860321	0.05830717086791992
43	122.70755100250244	response	0	2		41.0	2.5	/experiments/knapen_aot/videos/R_S_video-12.mp4	0.0	280.6039969921112	
43	122.71581506729126	movie	1		163.0	41.0	2.5	/experiments/knapen_aot/videos/R_S_video-12.mp4	0.0	280.6122610569	2.508314847946167
43	125.22412991523743	fix_post	2		12.0	41.0	2.5	/experiments/knapen_aot/videos/R_S_video-12.mp4	0.0	283.1205759048462	0.10000205039978027
44	125.3241319656372	fix_pre	0		21.0	42.0	2.5	blank	1.0	283.220577955246	0.17498111724853516
44	125.49091100692749	response	0	2		42.0	2.5	blank	1.0	283.38735699653625	
44	125.49911308288574	movie	1		301.0	42.0	2.5	blank	1.0	283.3955590724945	2.5083398818969727
44	128.00745296478271	fix_post	2		12.0	42.0	2.5	blank	1.0	285.9038989543915	0.10026407241821289
45	128.10771703720093	fix_pre	0		24.0	43.0	2.5	/experiments/knapen_aot/videos/R_S_yt-QJ2k6vA8aco_12.mp4	0.0	286.0041630268097	0.19968295097351074
45	128.29916501045227	response	0	2		43.0	2.5	/experiments/knapen_aot/videos/R_S_yt-QJ2k6vA8aco_12.mp4	0.0	286.19561100006104	
45	128.30739998817444	movie	1		301.0	43.0	2.5	/experiments/knapen_aot/videos/R_S_yt-QJ2k6vA8aco_12.mp4	0.0	286.2038459777832	2.5083770751953125
45	130.81577706336975	fix_post	2		12.0	43.0	2.5	/experiments/knapen_aot/videos/R_S_yt-QJ2k6vA8aco_12.mp4	0.0	288.7122230529785	0.09999585151672363
46	130.91577291488647	fix_pre	0		17.0	44.0	2.5	/experiments/knapen_aot/videos/S_production_ID_4325591.mp4	0.0	288.81221890449524	0.14163517951965332
46	131.049222946167	response	0	2		44.0	2.5	/experiments/knapen_aot/videos/S_production_ID_4325591.mp4	0.0	288.94566893577576	
46	131.05740809440613	movie	1		186.0	44.0	2.5	/experiments/knapen_aot/videos/S_production_ID_4325591.mp4	0.0	288.9538540840149	2.5083439350128174
46	133.56575202941895	fix_post	2		12.0	44.0	2.5	/experiments/knapen_aot/videos/S_production_ID_4325591.mp4	0.0	291.4621980190277	0.10001587867736816
47	133.6657679080963	fix_pre	0		14.0	45.0	2.5	/experiments/knapen_aot/videos/S_yt-PvWkOmfZuSY_4.mp4	0.0	291.5622138977051	0.11661410331726074
47	133.77419996261597	response	0	2		45.0	2.5	/experiments/knapen_aot/videos/S_yt-PvWkOmfZuSY_4.mp4	0.0	291.67064595222473	
47	133.78238201141357	movie	1		299.0	45.0	2.5	/experiments/knapen_aot/videos/S_yt-PvWkOmfZuSY_4.mp4	0.0	291.67882800102234	2.5084009170532227
47	136.2907829284668	fix_post	2		12.0	45.0	2.5	/experiments/knapen_aot/videos/S_yt-PvWkOmfZuSY_4.mp4	0.0	294.18722891807556	0.09999799728393555
48	136.39078092575073	fix_pre	0		23.0	46.0	2.5	/experiments/knapen_aot/videos/S_yt-wE0cEswyaaM_53.mp4	0.0	294.2872269153595	0.19165396690368652
48	136.57428693771362	response	0	2		46.0	2.5	/experiments/knapen_aot/videos/S_yt-wE0cEswyaaM_53.mp4	0.0	294.4707329273224	
48	136.58243489265442	movie	1		300.0	46.0	2.5	/experiments/knapen_aot/videos/S_yt-wE0cEswyaaM_53.mp4	0.0	294.4788808822632	2.508317232131958
48	139.09075212478638	fix_post	2		12.0	46.0	2.5	/experiments/knapen_aot/videos/S_yt-wE0cEswyaaM_53.mp4	0.0	296.98719811439514	0.10017776489257812
49	139.19092988967896	fix_pre	0		30.0	47.0	2.5	/experiments/knapen_aot/videos/R_S_yt-wrxk7fFkxHg_177.mp4	0.0	297.0873758792877	0.2499241828918457
49	139.43263602256775	response	0	2		47.0	2.5	/experiments/knapen_aot/videos/R_S_yt-wrxk7fFkxHg_177.mp4	0.0	297.3290820121765	
49	139.4408540725708	movie	1		300.0	47.0	2.5	/experiments/knapen_aot/videos/R_S_yt-wrxk7fFkxHg_177.mp4	0.0	297.33730006217957	2.5082008838653564
49	141.94905495643616	fix_post	2		12.0	47.0	2.5	/experiments/knapen_aot/videos/R_S_yt-wrxk7fFkxHg_177.mp4	0.0	299.8455009460449	0.1000680923461914
50	142.04912304878235	fix_pre	0		25.0	48.0	2.5	/experiments/knapen_aot/videos/R_S_production_ID_3943334.mp4	0.0	299.9455690383911	0.2082500457763672
50	142.2491009235382	response	0	2		48.0	2.5	/experiments/knapen_aot/videos/R_S_production_ID_3943334.mp4	0.0	300.145546913147	
50	142.25737309455872	movie	1		202.0	48.0	2.5	/experiments/knapen_aot/videos/R_S_production_ID_3943334.mp4	0.0	300.1538190841675	2.5083680152893066
50	144.76574110984802	fix_post	2		12.0	48.0	2.5	/experiments/knapen_aot/videos/R_S_production_ID_3943334.mp4	0.0	302.6621870994568	0.09993791580200195
51	144.86567902565002	fix_pre	0		4.0	49.0	2.5	blank	1.0	302.7621250152588	0.03356003761291504
51	144.8907871246338	response	0	2		49.0	2.5	blank	1.0	302.78723311424255	
51	144.89923906326294	movie	1		301.0	49.0	2.5	blank	1.0	302.7956850528717	2.508107900619507
51	147.40734696388245	fix_post	2		12.0	49.0	2.5	blank	1.0	305.3037929534912	0.10001993179321289
52	147.50736689567566	fix_pre	0		34.0	50.0	2.5	/experiments/knapen_aot/videos/S_yt-_6j2NXrB-zE_28.mp4	0.0	305.4038128852844	0.28330016136169434
52	147.7824420928955	response	0	2		50.0	2.5	/experiments/knapen_aot/videos/S_yt-_6j2NXrB-zE_28.mp4	0.0	305.6788880825043	
52	147.79066705703735	movie	1		301.0	50.0	2.5	/experiments/knapen_aot/videos/S_yt-_6j2NXrB-zE_28.mp4	0.0	305.6871130466461	2.508331060409546
52	150.2989981174469	fix_post	2		12.0	50.0	2.5	/experiments/knapen_aot/videos/S_yt-_6j2NXrB-zE_28.mp4	0.0	308.19544410705566	0.10015082359313965
53	150.39914894104004	fix_pre	0		16.0	51.0	2.5	/experiments/knapen_aot/videos/S_yt-MyL1VlXiZa4_25.mp4	0.0	308.2955949306488	0.13318300247192383
53	150.5241219997406	response	0	2		51.0	2.5	/experiments/knapen_aot/videos/S_yt-MyL1VlXiZa4_25.mp4	0.0	308.42056798934937	
53	150.53233194351196	movie	1		301.0	51.0	2.5	/experiments/knapen_aot/videos/S_yt-MyL1VlXiZa4_25.mp4	0.0	308.4287779331207	2.508373975753784
53	153.04070591926575	fix_post	2		12.0	51.0	2.5	/experiments/knapen_aot/videos/S_yt-MyL1VlXiZa4_25.mp4	0.0	310.9371519088745	0.10001611709594727
54	153.1407220363617	fix_pre	0		4.0	52.0	2.5	/experiments/knapen_aot/videos/S_yt-QJ2k6vA8aco_12.mp4	0.0	311.03716802597046	0.03333592414855957
54	153.16586899757385	response	0	2		52.0	2.5	/experiments/knapen_aot/videos/S_yt-QJ2k6vA8aco_12.mp4	0.0	311.0623149871826	
54	153.17405796051025	movie	1		300.0	52.0	2.5	/experiments/knapen_aot/videos/S_yt-QJ2k6vA8aco_12.mp4	0.0	311.070503950119	2.508294105529785
54	155.68235206604004	fix_post	2		12.0	52.0	2.5	/experiments/knapen_aot/videos/S_yt-QJ2k6vA8aco_12.mp4	0.0	313.5787980556488	0.09998583793640137
55	155.78233790397644	fix_pre	0		14.0	53.0	2.5	/experiments/knapen_aot/videos/S_yt-7WYXuBHeorw_188.mp4	0.0	313.6787838935852	0.11679816246032715
55	155.89082312583923	response	0	2		53.0	2.5	/experiments/knapen_aot/videos/S_yt-7WYXuBHeorw_188.mp4	0.0	313.787269115448	
55	155.89913606643677	movie	1		301.0	53.0	2.5	/experiments/knapen_aot/videos/S_yt-7WYXuBHeorw_188.mp4	0.0	313.79558205604553	2.5082108974456787
55	158.40734696388245	fix_post	2		12.0	53.0	2.5	/experiments/knapen_aot/videos/S_yt-7WYXuBHeorw_188.mp4	0.0	316.3037929534912	0.10003304481506348
56	158.5073800086975	fix_pre	0		23.0	54.0	2.5	blank	1.0	316.4038259983063	0.1915440559387207
56	158.69081211090088	response	0	2		54.0	2.5	blank	1.0	316.58725810050964	
56	158.69892406463623	movie	1		301.0	54.0	2.5	blank	1.0	316.595370054245	2.5084140300750732
56	161.2073380947113	fix_post	2		12.0	54.0	2.5	blank	1.0	319.10378408432007	0.10005688667297363
57	161.30739498138428	fix_pre	0		32.0	55.0	2.5	/experiments/knapen_aot/videos/S_yt-nfDPFHUDq8g_136.mp4	0.0	319.20384097099304	0.2665519714355469
57	161.56575107574463	response	0	2		55.0	2.5	/experiments/knapen_aot/videos/S_yt-nfDPFHUDq8g_136.mp4	0.0	319.4621970653534	
57	161.57394695281982	movie	1		301.0	55.0	2.5	/experiments/knapen_aot/videos/S_yt-nfDPFHUDq8g_136.mp4	0.0	319.4703929424286	2.5083601474761963
57	164.08230710029602	fix_post	2		12.0	55.0	2.5	/experiments/knapen_aot/videos/S_yt-nfDPFHUDq8g_136.mp4	0.0	321.9787530899048	0.09998679161071777
58	164.18229389190674	fix_pre	0		17.0	56.0	2.5	/experiments/knapen_aot/videos/S_yt-vDjj0EWFdIU_49.mp4	0.0	322.0787398815155	0.141679048538208
58	164.3158040046692	response	0	2		56.0	2.5	/experiments/knapen_aot/videos/S_yt-vDjj0EWFdIU_49.mp4	0.0	322.21224999427795	
58	164.32397294044495	movie	1		301.0	56.0	2.5	/experiments/knapen_aot/videos/S_yt-vDjj0EWFdIU_49.mp4	0.0	322.2204189300537	2.5083470344543457
58	166.8323199748993	fix_post	2		12.0	56.0	2.5	/experiments/knapen_aot/videos/S_yt-vDjj0EWFdIU_49.mp4	0.0	324.72876596450806	0.0999910831451416
59	166.93231105804443	fix_pre	0		17.0	57.0	2.5	/experiments/knapen_aot/videos/R_S_yt-vDjj0EWFdIU_49.mp4	0.0	324.8287570476532	0.1416339874267578
59	167.06572103500366	response	0	2		57.0	2.5	/experiments/knapen_aot/videos/R_S_yt-vDjj0EWFdIU_49.mp4	0.0	324.9621670246124	
59	167.0739450454712	movie	1		301.0	57.0	2.5	/experiments/knapen_aot/videos/R_S_yt-vDjj0EWFdIU_49.mp4	0.0	324.97039103507996	2.5083789825439453
59	169.58232402801514	fix_post	2		12.0	57.0	2.5	/experiments/knapen_aot/videos/R_S_yt-vDjj0EWFdIU_49.mp4	0.0	327.4787700176239	0.09993505477905273
60	169.6822590827942	fix_pre	0		26.0	58.0	2.5	/experiments/knapen_aot/videos/R_S_yt-4ouMuGUuPHI_193.mp4	0.0	327.57870507240295	0.2166898250579834
60	169.89072108268738	response	0	2		58.0	2.5	/experiments/knapen_aot/videos/R_S_yt-4ouMuGUuPHI_193.mp4	0.0	327.78716707229614	
60	169.89894890785217	movie	1		300.0	58.0	2.5	/experiments/knapen_aot/videos/R_S_yt-4ouMuGUuPHI_193.mp4	0.0	327.79539489746094	2.508319139480591
60	172.40726804733276	fix_post	2		12.0	58.0	2.5	/experiments/knapen_aot/videos/R_S_yt-4ouMuGUuPHI_193.mp4	0.0	330.3037140369415	0.10001397132873535
61	172.5072820186615	fix_pre	0		12.0	59.0	2.5	/experiments/knapen_aot/videos/S_yt-mDil5vGZb14_4049.mp4	0.0	330.40372800827026	0.10000491142272949
61	172.5990869998932	response	0	2		59.0	2.5	/experiments/knapen_aot/videos/S_yt-mDil5vGZb14_4049.mp4	0.0	330.49553298950195	
61	172.60728693008423	movie	1		301.0	59.0	2.5	/experiments/knapen_aot/videos/S_yt-mDil5vGZb14_4049.mp4	0.0	330.503732919693	2.5083141326904297
61	175.11560106277466	fix_post	2		12.0	59.0	2.5	/experiments/knapen_aot/videos/S_yt-mDil5vGZb14_4049.mp4	0.0	333.0120470523834	0.09996390342712402
62	175.21556496620178	fix_pre	0		16.0	60.0	2.5	/experiments/knapen_aot/videos/S_yt-aiDGx4AN8J0_9.mp4	0.0	333.11201095581055	0.13329195976257324
62	175.34063506126404	response	0	4		60.0	2.5	/experiments/knapen_aot/videos/S_yt-aiDGx4AN8J0_9.mp4	0.0	333.2370810508728	
62	175.34885692596436	movie	1		301.0	60.0	2.5	/experiments/knapen_aot/videos/S_yt-aiDGx4AN8J0_9.mp4	0.0	333.2453029155731	2.5083770751953125
62	177.85723400115967	fix_post	2		12.0	60.0	2.5	/experiments/knapen_aot/videos/S_yt-aiDGx4AN8J0_9.mp4	0.0	335.75367999076843	0.10001707077026367
63	177.95725107192993	fix_pre	0		30.0	61.0	2.5	/experiments/knapen_aot/videos/S_yt-p0buJEEKeuI_61.mp4	0.0	335.8536970615387	0.24993586540222168
63	178.19899702072144	response	0	4		61.0	2.5	/experiments/knapen_aot/videos/S_yt-p0buJEEKeuI_61.mp4	0.0	336.0954430103302	
63	178.20718693733215	movie	1		301.0	61.0	2.5	/experiments/knapen_aot/videos/S_yt-p0buJEEKeuI_61.mp4	0.0	336.1036329269409	2.508371114730835
63	180.715558052063	fix_post	2		12.0	61.0	2.5	/experiments/knapen_aot/videos/S_yt-p0buJEEKeuI_61.mp4	0.0	338.61200404167175	0.10000300407409668
64	180.81556105613708	fix_pre	0		18.0	62.0	2.5	blank	1.0	338.71200704574585	0.14987897872924805
64	180.95729207992554	response	0	2		62.0	2.5	blank	1.0	338.8537380695343	
64	180.96544003486633	movie	1		301.0	62.0	2.5	blank	1.0	338.8618860244751	2.5084469318389893
64	183.47388696670532	fix_post	2		12.0	62.0	2.5	blank	1.0	341.3703329563141	0.10005903244018555
65	183.5739459991455	fix_pre	0		20.0	63.0	2.5	/experiments/knapen_aot/videos/R_S_yt-dj0XQUJos38_14.mp4	0.0	341.4703919887543	0.16661906242370605
65	183.73237204551697	response	0	2		63.0	2.5	/experiments/knapen_aot/videos/R_S_yt-dj0XQUJos38_14.mp4	0.0	341.62881803512573	
65	183.7405650615692	movie	1		301.0	63.0	2.5	/experiments/knapen_aot/videos/R_S_yt-dj0XQUJos38_14.mp4	0.0	341.637011051178	2.5082828998565674
65	186.24884796142578	fix_post	2		12.0	63.0	2.5	/experiments/knapen_aot/videos/R_S_yt-dj0XQUJos38_14.mp4	0.0	344.14529395103455	0.10001015663146973
66	186.34885811805725	fix_pre	0		30.0	64.0	2.5	/experiments/knapen_aot/videos/S_production_ID_4101242.mp4	0.0	344.245304107666	0.2513458728790283
66	186.5906810760498	response	0	4		64.0	2.5	/experiments/knapen_aot/videos/S_production_ID_4101242.mp4	0.0	344.48712706565857	
66	186.60020399093628	movie	1		188.0	64.0	2.5	/experiments/knapen_aot/videos/S_production_ID_4101242.mp4	0.0	344.49664998054504	2.507014036178589
66	189.10721802711487	fix_post	2		12.0	64.0	2.5	/experiments/knapen_aot/videos/S_production_ID_4101242.mp4	0.0	347.00366401672363	0.09996986389160156
67	189.20718789100647	fix_pre	0		26.0	65.0	2.5	/experiments/knapen_aot/videos/S_yt-2IxVZeiSv3g_28.mp4	0.0	347.10363388061523	0.2166152000427246
67	189.41556596755981	response	0	4		65.0	2.5	/experiments/knapen_aot/videos/S_yt-2IxVZeiSv3g_28.mp4	0.0	347.3120119571686	
67	189.4238030910492	movie	1		301.0	65.0	2.5	/experiments/knapen_aot/videos/S_yt-2IxVZeiSv3g_28.mp4	0.0	347.32024908065796	2.5083699226379395
67	191.93217301368713	fix_post	2		12.0	65.0	2.5	/experiments/knapen_aot/videos/S_yt-2IxVZeiSv3g_28.mp4	0.0	349.8286190032959	0.09993100166320801
68	192.03210401535034	fix_pre	0		18.0	66.0	2.5	/experiments/knapen_aot/videos/R_S_yt-PvWkOmfZuSY_4.mp4	0.0	349.9285500049591	0.15003299713134766
68	192.1739718914032	response	0	4		66.0	2.5	/experiments/knapen_aot/videos/R_S_yt-PvWkOmfZuSY_4.mp4	0.0	350.07041788101196	
68	192.1821370124817	movie	1		301.0	66.0	2.5	/experiments/knapen_aot/videos/R_S_yt-PvWkOmfZuSY_4.mp4	0.0	350.07858300209045	2.5083398818969727
68	194.69047689437866	fix_post	2		12.0	66.0	2.5	/experiments/knapen_aot/videos/R_S_yt-PvWkOmfZuSY_4.mp4	0.0	352.5869228839874	0.1000220775604248
69	194.7904989719391	fix_pre	0		3.0	67.0	2.5	/experiments/knapen_aot/videos/S_ILSVRC2015_train_00354001.mp4	0.0	352.68694496154785	0.02502894401550293
69	194.80734610557556	response	0	4		67.0	2.5	/experiments/knapen_aot/videos/S_ILSVRC2015_train_00354001.mp4	0.0	352.7037920951843	
69	194.8155279159546	movie	1		301.0	67.0	2.5	/experiments/knapen_aot/videos/S_ILSVRC2015_train_00354001.mp4	0.0	352.71197390556335	2.5083131790161133
69	197.3238410949707	fix_post	2		12.0	67.0	2.5	/experiments/knapen_aot/videos/S_ILSVRC2015_train_00354001.mp4	0.0	355.22028708457947	0.09993290901184082
70	197.42377400398254	fix_pre	0		16.0	68.0	2.5	/experiments/knapen_aot/videos/S_yt-sPhtPyQM00c_106.mp4	0.0	355.3202199935913	0.13333797454833984
70	197.54893112182617	response	0	4		68.0	2.5	/experiments/knapen_aot/videos/S_yt-sPhtPyQM00c_106.mp4	0.0	355.44537711143494	
70	197.55711197853088	movie	1		301.0	68.0	2.5	/experiments/knapen_aot/videos/S_yt-sPhtPyQM00c_106.mp4	0.0	355.45355796813965	2.5083911418914795
70	200.06550312042236	fix_post	2		12.0	68.0	2.5	/experiments/knapen_aot/videos/S_yt-sPhtPyQM00c_106.mp4	0.0	357.9619491100311	0.09994196891784668
71	200.1654450893402	fix_pre	0		15.0	69.0	2.5	/experiments/knapen_aot/videos/S_video_inspire_oregon_portland_00064.1080-h264.mp4	0.0	358.061891078949	0.12506699562072754
71	200.28227400779724	response	0	4		69.0	2.5	/experiments/knapen_aot/videos/S_video_inspire_oregon_portland_00064.1080-h264.mp4	0.0	358.178719997406	
71	200.29051208496094	movie	1		170.0	69.0	2.5	/experiments/knapen_aot/videos/S_video_inspire_oregon_portland_00064.1080-h264.mp4	0.0	358.1869580745697	2.508328914642334
71	202.79884099960327	fix_post	2		12.0	69.0	2.5	/experiments/knapen_aot/videos/S_video_inspire_oregon_portland_00064.1080-h264.mp4	0.0	360.69528698921204	0.09994292259216309
72	202.89878392219543	fix_pre	0		25.0	70.0	2.5	blank	1.0	360.7952299118042	0.20841717720031738
72	203.0988290309906	response	0	4		70.0	2.5	blank	1.0	360.99527502059937	
72	203.10720109939575	movie	1		301.0	70.0	2.5	blank	1.0	361.0036470890045	2.5082449913024902
72	205.61544609069824	fix_post	2		12.0	70.0	2.5	blank	1.0	363.511892080307	0.09993600845336914
73	205.7153820991516	fix_pre	0		19.0	71.0	2.5	/experiments/knapen_aot/videos/R_S_comp_CH_C007_C011_PSNK_v02_SDR_PS_FINAL_20180709_SDR_2K_AVC.mp4	0.0	363.6118280887604	0.15843796730041504
73	205.86554408073425	response	0	4		71.0	2.5	/experiments/knapen_aot/videos/R_S_comp_CH_C007_C011_PSNK_v02_SDR_PS_FINAL_20180709_SDR_2K_AVC.mp4	0.0	363.761990070343	
73	205.87382006645203	movie	1		174.0	71.0	2.5	/experiments/knapen_aot/videos/R_S_comp_CH_C007_C011_PSNK_v02_SDR_PS_FINAL_20180709_SDR_2K_AVC.mp4	0.0	363.7702660560608	2.5082850456237793
73	208.3821051120758	fix_post	2		12.0	71.0	2.5	/experiments/knapen_aot/videos/R_S_comp_CH_C007_C011_PSNK_v02_SDR_PS_FINAL_20180709_SDR_2K_AVC.mp4	0.0	366.27855110168457	0.10014200210571289
74	208.48224711418152	fix_pre	0		30.0	72.0	2.5	/experiments/knapen_aot/videos/S_production_ID_4584682.mp4	0.0	366.3786931037903	0.2498149871826172
74	208.72387790679932	response	0	4		72.0	2.5	/experiments/knapen_aot/videos/S_production_ID_4584682.mp4	0.0	366.6203238964081	
74	208.73206210136414	movie	1		166.0	72.0	2.5	/experiments/knapen_aot/videos/S_production_ID_4584682.mp4	0.0	366.6285080909729	2.508366823196411
74	211.24042892456055	fix_post	2		12.0	72.0	2.5	/experiments/knapen_aot/videos/S_production_ID_4584682.mp4	0.0	369.1368749141693	0.10004901885986328
74	211.28232097625732	response	2	4		72.0	2.5	/experiments/knapen_aot/videos/S_production_ID_4584682.mp4	0.0	369.1787669658661	
75	211.3404779434204	fix_pre	0		91.0	73.0	2.5	/experiments/knapen_aot/videos/S_yt-EKPrSw5xF7k_112.mp4	0.0	369.2369239330292	0.759505033493042
75	212.0904541015625	response	0	4		73.0	2.5	/experiments/knapen_aot/videos/S_yt-EKPrSw5xF7k_112.mp4	0.0	369.98690009117126	
75	212.09998297691345	movie	1		301.0	73.0	2.5	/experiments/knapen_aot/videos/S_yt-EKPrSw5xF7k_112.mp4	0.0	369.9964289665222	2.5070440769195557
75	214.607027053833	fix_post	2		12.0	73.0	2.5	/experiments/knapen_aot/videos/S_yt-EKPrSw5xF7k_112.mp4	0.0	372.5034730434418	0.10003185272216797
76	214.70705890655518	fix_pre	0		11.0	74.0	2.5	/experiments/knapen_aot/videos/R_S_production_ID_3943334.mp4	0.0	372.60350489616394	0.09164118766784668
76	214.7905559539795	response	0	4		74.0	2.5	/experiments/knapen_aot/videos/R_S_production_ID_3943334.mp4	0.0	372.68700194358826	
76	214.79870009422302	movie	1		201.0	74.0	2.5	/experiments/knapen_aot/videos/R_S_production_ID_3943334.mp4	0.0	372.6951460838318	2.5083868503570557
76	217.30708694458008	fix_post	2		12.0	74.0	2.5	/experiments/knapen_aot/videos/R_S_production_ID_3943334.mp4	0.0	375.20353293418884	0.09999895095825195
77	217.40708589553833	fix_pre	0		3.0	75.0	2.5	blank	1.0	375.3035318851471	0.02498912811279297
77	217.41636991500854	response	0	4		75.0	2.5	blank	1.0	375.3128159046173	
77	217.43207502365112	movie	1		301.0	75.0	2.5	blank	1.0	375.3285210132599	2.5083370208740234
77	219.94041204452515	fix_post	2		12.0	75.0	2.5	blank	1.0	377.8368580341339	0.09999489784240723
78	220.04040694236755	fix_pre	0		34.0	76.0	2.5	/experiments/knapen_aot/videos/R_S__9v_wUywaAA_35.mp4	0.0	377.9368529319763	0.283282995223999
78	220.3155300617218	response	0	4		76.0	2.5	/experiments/knapen_aot/videos/R_S__9v_wUywaAA_35.mp4	0.0	378.21197605133057	
78	220.32368993759155	movie	1		301.0	76.0	2.5	/experiments/knapen_aot/videos/R_S__9v_wUywaAA_35.mp4	0.0	378.2201359272003	2.5083651542663574
78	222.8320550918579	fix_post	2		12.0	76.0	2.5	/experiments/knapen_aot/videos/R_S__9v_wUywaAA_35.mp4	0.0	380.7285010814667	0.09995293617248535
79	222.9320080280304	fix_pre	0		12.0	77.0	2.5	/experiments/knapen_aot/videos/R_S_yt-9NV8zv2Sdq4_30.mp4	0.0	380.82845401763916	0.09997391700744629
79	223.0238480567932	response	0	4		77.0	2.5	/experiments/knapen_aot/videos/R_S_yt-9NV8zv2Sdq4_30.mp4	0.0	380.920294046402	
79	223.03198194503784	movie	1		301.0	77.0	2.5	/experiments/knapen_aot/videos/R_S_yt-9NV8zv2Sdq4_30.mp4	0.0	380.9284279346466	2.5085151195526123
79	225.54049706459045	fix_post	2		12.0	77.0	2.5	/experiments/knapen_aot/videos/R_S_yt-9NV8zv2Sdq4_30.mp4	0.0	383.4369430541992	0.09988594055175781
80	225.6403830051422	fix_pre	0		21.0	78.0	2.5	/experiments/knapen_aot/videos/S_yt--jzScB82vKI_90.mp4	0.0	383.536828994751	0.1749739646911621
80	225.80718898773193	response	0	4		78.0	2.5	/experiments/knapen_aot/videos/S_yt--jzScB82vKI_90.mp4	0.0	383.7036349773407	
80	225.81535696983337	movie	1		301.0	78.0	2.5	/experiments/knapen_aot/videos/S_yt--jzScB82vKI_90.mp4	0.0	383.71180295944214	2.5083279609680176
80	228.3236849308014	fix_post	2		12.0	78.0	2.5	/experiments/knapen_aot/videos/S_yt--jzScB82vKI_90.mp4	0.0	386.22013092041016	0.09999299049377441
81	228.42367792129517	fix_pre	0		26.0	79.0	2.5	/experiments/knapen_aot/videos/S_yt-vDjj0EWFdIU_49.mp4	0.0	386.32012391090393	0.217818021774292
81	228.63215589523315	response	0	4		79.0	2.5	/experiments/knapen_aot/videos/S_yt-vDjj0EWFdIU_49.mp4	0.0	386.5286018848419	
81	228.64149594306946	movie	1		301.0	79.0	2.5	/experiments/knapen_aot/videos/S_yt-vDjj0EWFdIU_49.mp4	0.0	386.5379419326782	2.5071330070495605
81	231.14862895011902	fix_post	2		12.0	79.0	2.5	/experiments/knapen_aot/videos/S_yt-vDjj0EWFdIU_49.mp4	0.0	389.0450749397278	0.10000395774841309
82	231.24863290786743	fix_pre	0		8.0	80.0	2.5	/experiments/knapen_aot/videos/R_S_ILSVRC2015_train_00682007.mp4	0.0	389.1450788974762	0.06661200523376465
82	231.30709409713745	response	0	4		80.0	2.5	/experiments/knapen_aot/videos/R_S_ILSVRC2015_train_00682007.mp4	0.0	389.2035400867462	
82	231.3152449131012	movie	1		301.0	80.0	2.5	/experiments/knapen_aot/videos/R_S_ILSVRC2015_train_00682007.mp4	0.0	389.21169090270996	2.5083541870117188
82	233.82359910011292	fix_post	2		12.0	80.0	2.5	/experiments/knapen_aot/videos/R_S_ILSVRC2015_train_00682007.mp4	0.0	391.7200450897217	0.10009384155273438
83	233.92369294166565	fix_pre	0		13.0	81.0	2.5	/experiments/knapen_aot/videos/R_S_video_inspire_texas_pecos_foggy-landscape_00018.1080-h264.mp4	0.0	391.8201389312744	0.10826706886291504
83	234.02379202842712	response	0	4		81.0	2.5	/experiments/knapen_aot/videos/R_S_video_inspire_texas_pecos_foggy-landscape_00018.1080-h264.mp4	0.0	391.9202380180359	
83	234.03196001052856	movie	1		172.0	81.0	2.5	/experiments/knapen_aot/videos/R_S_video_inspire_texas_pecos_foggy-landscape_00018.1080-h264.mp4	0.0	391.92840600013733	2.5083439350128174
83	236.54030394554138	fix_post	2		12.0	81.0	2.5	/experiments/knapen_aot/videos/R_S_video_inspire_texas_pecos_foggy-landscape_00018.1080-h264.mp4	0.0	394.43674993515015	0.0999760627746582
84	236.64028000831604	fix_pre	0		3.0	82.0	2.5	/experiments/knapen_aot/videos/S_yt-_6j2NXrB-zE_28.mp4	0.0	394.5367259979248	0.025036096572875977
84	236.65709710121155	response	0	4		82.0	2.5	/experiments/knapen_aot/videos/S_yt-_6j2NXrB-zE_28.mp4	0.0	394.5535430908203	
84	236.66531610488892	movie	1		301.0	82.0	2.5	/experiments/knapen_aot/videos/S_yt-_6j2NXrB-zE_28.mp4	0.0	394.5617620944977	2.508312940597534
84	239.17362904548645	fix_post	2		12.0	82.0	2.5	/experiments/knapen_aot/videos/S_yt-_6j2NXrB-zE_28.mp4	0.0	397.0700750350952	0.09999990463256836
85	239.27362895011902	fix_pre	0		18.0	83.0	2.5	blank	1.0	397.1700749397278	0.14995408058166504
85	239.41546893119812	response	0	4		83.0	2.5	blank	1.0	397.3119149208069	
85	239.42358303070068	movie	1		301.0	83.0	2.5	blank	1.0	397.32002902030945	2.5083680152893066
85	241.93195104599	fix_post	2		12.0	83.0	2.5	blank	1.0	399.82839703559875	0.09996986389160156
87	242.0319209098816	stim	0		140.0					399.92836689949036	1.166661024093628
87	242.23205995559692	response	0	4						400.1285059452057	
87	243.1883659362793	response	0	space						401.08481192588806	
