trial_nr	onset	event_type	phase	response	nr_frames	movie_index	movie_duration	movie_file	blank	onset_abs	duration
0	0.13336682319641113	stim	0		37.0					68.62912583351135	0.3085660934448242
0	0.43340492248535156	response	0	space						68.9291639328003	
1	0.44193291664123535	stim	0		121.0					68.93769192695618	1.0080499649047852
1	1.3417408466339111	response	0	space						69.83749985694885	
1	1.4499828815460205	stim	1		120.0					69.94574189186096	0.9996471405029297
1	1.849668025970459	response	1	space						70.3454270362854	
1	2.1579978466033936	response	1	space						70.65375685691833	
2	2.44963002204895	fix_pre	0		1.0	0.0	2.5	/experiments/knapen_aot/videos/S_4_D1iUb87uE_15.mp4	0.0	70.94538903236389	0.012724876403808594
2	2.4534449577331543	response	0	space		0.0	2.5	/experiments/knapen_aot/videos/S_4_D1iUb87uE_15.mp4	0.0	70.9492039680481	
2	2.462354898452759	movie	1		297.0	0.0	2.5	/experiments/knapen_aot/videos/S_4_D1iUb87uE_15.mp4	0.0	70.9581139087677	2.5039031505584717
2	2.5944528579711914	response	1	space		0.0	2.5	/experiments/knapen_aot/videos/S_4_D1iUb87uE_15.mp4	0.0	71.09021186828613	
2	4.9662580490112305	fix_post	2		12.0	0.0	2.5	/experiments/knapen_aot/videos/S_4_D1iUb87uE_15.mp4	0.0	73.46201705932617	0.10030198097229004
3	5.0665600299835205	fix_pre	0		40.0	1.0	2.5	/experiments/knapen_aot/videos/R_S_yt-7WYXuBHeorw_188.mp4	0.0	73.56231904029846	0.33313584327697754
3	5.395226001739502	response	0	2		1.0	2.5	/experiments/knapen_aot/videos/R_S_yt-7WYXuBHeorw_188.mp4	0.0	73.89098501205444	
3	5.399695873260498	movie	1		301.0	1.0	2.5	/experiments/knapen_aot/videos/R_S_yt-7WYXuBHeorw_188.mp4	0.0	73.89545488357544	2.5084991455078125
3	7.9081950187683105	fix_post	2		12.0	1.0	2.5	/experiments/knapen_aot/videos/R_S_yt-7WYXuBHeorw_188.mp4	0.0	76.40395402908325	0.09972786903381348
4	8.007922887802124	fix_pre	0		38.0	2.0	2.5	/experiments/knapen_aot/videos/R_S_pexels-pavel-danilyuk-8626652.mp4	0.0	76.50368189811707	0.31664299964904785
4	8.316370010375977	response	0	2		2.0	2.5	/experiments/knapen_aot/videos/R_S_pexels-pavel-danilyuk-8626652.mp4	0.0	76.81212902069092	
4	8.324565887451172	movie	1		170.0	2.0	2.5	/experiments/knapen_aot/videos/R_S_pexels-pavel-danilyuk-8626652.mp4	0.0	76.82032489776611	2.5083560943603516
4	10.832921981811523	fix_post	2		12.0	2.0	2.5	/experiments/knapen_aot/videos/R_S_pexels-pavel-danilyuk-8626652.mp4	0.0	79.32868099212646	0.10016202926635742
5	10.93308401107788	fix_pre	0		27.0	3.0	2.5	/experiments/knapen_aot/videos/R_S_goAwcQiFu1Q_99.mp4	0.0	79.42884302139282	0.22475385665893555
5	11.149687051773071	response	0	2		3.0	2.5	/experiments/knapen_aot/videos/R_S_goAwcQiFu1Q_99.mp4	0.0	79.64544606208801	
5	11.157837867736816	movie	1		301.0	3.0	2.5	/experiments/knapen_aot/videos/R_S_goAwcQiFu1Q_99.mp4	0.0	79.65359687805176	2.5083789825439453
5	13.666216850280762	fix_post	2		12.0	3.0	2.5	/experiments/knapen_aot/videos/R_S_goAwcQiFu1Q_99.mp4	0.0	82.1619758605957	0.10004901885986328
6	13.766265869140625	fix_pre	0		41.0	4.0	2.5	/experiments/knapen_aot/videos/S_yt-0aHV3uU8xFY_75.mp4	0.0	82.26202487945557	0.34180307388305664
6	14.09972095489502	response	0	2		4.0	2.5	/experiments/knapen_aot/videos/S_yt-0aHV3uU8xFY_75.mp4	0.0	82.59547996520996	
6	14.108068943023682	movie	1		301.0	4.0	2.5	/experiments/knapen_aot/videos/S_yt-0aHV3uU8xFY_75.mp4	0.0	82.60382795333862	2.5081570148468018
6	16.616225957870483	fix_post	2		12.0	4.0	2.5	/experiments/knapen_aot/videos/S_yt-0aHV3uU8xFY_75.mp4	0.0	85.11198496818542	0.10005593299865723
7	16.71628189086914	fix_pre	0		44.0	5.0	2.5	blank	1.0	85.21204090118408	0.36661815643310547
7	17.074695825576782	response	0	2		5.0	2.5	blank	1.0	85.57045483589172	
7	17.082900047302246	movie	1		301.0	5.0	2.5	blank	1.0	85.57865905761719	2.508715867996216
7	19.591615915298462	fix_post	2		12.0	5.0	2.5	blank	1.0	88.0873749256134	0.09975409507751465
8	19.691370010375977	fix_pre	0		48.0	6.0	2.5	/experiments/knapen_aot/videos/S_RS_A008_C010_SDR_20191218_SDR_2K_AVC.mp4	0.0	88.18712902069092	0.39986586570739746
8	20.083019018173218	response	0	2		6.0	2.5	/experiments/knapen_aot/videos/S_RS_A008_C010_SDR_20191218_SDR_2K_AVC.mp4	0.0	88.57877802848816	
8	20.091235876083374	movie	1		191.0	6.0	2.5	/experiments/knapen_aot/videos/S_RS_A008_C010_SDR_20191218_SDR_2K_AVC.mp4	0.0	88.58699488639832	2.5083200931549072
8	22.59955596923828	fix_post	2		12.0	6.0	2.5	/experiments/knapen_aot/videos/S_RS_A008_C010_SDR_20191218_SDR_2K_AVC.mp4	0.0	91.09531497955322	0.09996294975280762
9	22.69951891899109	fix_pre	0		48.0	7.0	2.5	/experiments/knapen_aot/videos/R_S_Pexels_Videos_278654_1.mp4	0.0	91.19527792930603	0.40001797676086426
9	23.091290950775146	response	0	2		7.0	2.5	/experiments/knapen_aot/videos/R_S_Pexels_Videos_278654_1.mp4	0.0	91.58704996109009	
9	23.099536895751953	movie	1		166.0	7.0	2.5	/experiments/knapen_aot/videos/R_S_Pexels_Videos_278654_1.mp4	0.0	91.5952959060669	2.508463144302368
9	25.60800004005432	fix_post	2		12.0	7.0	2.5	/experiments/knapen_aot/videos/R_S_Pexels_Videos_278654_1.mp4	0.0	94.10375905036926	0.09978795051574707
10	25.70778799057007	fix_pre	0		33.0	8.0	2.5	/experiments/knapen_aot/videos/R_S_production_ID_4802712.mp4	0.0	94.20354700088501	0.2751948833465576
10	25.97461485862732	response	0	2		8.0	2.5	/experiments/knapen_aot/videos/R_S_production_ID_4802712.mp4	0.0	94.47037386894226	
10	25.982982873916626	movie	1		165.0	8.0	2.5	/experiments/knapen_aot/videos/R_S_production_ID_4802712.mp4	0.0	94.47874188423157	2.508258104324341
10	28.491240978240967	fix_post	2		12.0	8.0	2.5	/experiments/knapen_aot/videos/R_S_production_ID_4802712.mp4	0.0	96.98699998855591	0.09998893737792969
11	28.591229915618896	fix_pre	0		46.0	9.0	2.5	/experiments/knapen_aot/videos/R_S_yt-bOgChEHiroI_20.mp4	0.0	97.08698892593384	0.3833739757537842
11	28.96631383895874	response	0	2		9.0	2.5	/experiments/knapen_aot/videos/R_S_yt-bOgChEHiroI_20.mp4	0.0	97.46207284927368	
11	28.97460389137268	movie	1		301.0	9.0	2.5	/experiments/knapen_aot/videos/R_S_yt-bOgChEHiroI_20.mp4	0.0	97.47036290168762	2.508294105529785
11	31.482897996902466	fix_post	2		12.0	9.0	2.5	/experiments/knapen_aot/videos/R_S_yt-bOgChEHiroI_20.mp4	0.0	99.97865700721741	0.09989285469055176
12	31.582790851593018	fix_pre	0		44.0	10.0	2.5	/experiments/knapen_aot/videos/R_S_yt-F3hhts3bwWg_25.mp4	0.0	100.07854986190796	0.3666551113128662
12	31.94120502471924	response	0	2		10.0	2.5	/experiments/knapen_aot/videos/R_S_yt-F3hhts3bwWg_25.mp4	0.0	100.43696403503418	
12	31.949445962905884	movie	1		301.0	10.0	2.5	/experiments/knapen_aot/videos/R_S_yt-F3hhts3bwWg_25.mp4	0.0	100.44520497322083	2.508312940597534
12	34.45775890350342	fix_post	2		12.0	10.0	2.5	/experiments/knapen_aot/videos/R_S_yt-F3hhts3bwWg_25.mp4	0.0	102.95351791381836	0.10030007362365723
13	34.558058977127075	fix_pre	0		47.0	11.0	2.5	/experiments/knapen_aot/videos/S_yt-hQ5pge893b4_6.mp4	0.0	103.05381798744202	0.3913898468017578
13	34.93377900123596	response	0	2		11.0	2.5	/experiments/knapen_aot/videos/S_yt-hQ5pge893b4_6.mp4	0.0	103.4295380115509	
13	34.94944882392883	movie	1		301.0	11.0	2.5	/experiments/knapen_aot/videos/S_yt-hQ5pge893b4_6.mp4	0.0	103.44520783424377	2.508280038833618
13	37.45772886276245	fix_post	2		12.0	11.0	2.5	/experiments/knapen_aot/videos/S_yt-hQ5pge893b4_6.mp4	0.0	105.95348787307739	0.1000821590423584
14	37.55781102180481	fix_pre	0		67.0	12.0	2.5	blank	1.0	106.05357003211975	0.5582859516143799
14	38.10790205001831	response	0	2		12.0	2.5	blank	1.0	106.60366106033325	
14	38.11609697341919	movie	1		301.0	12.0	2.5	blank	1.0	106.61185598373413	2.50833797454834
14	40.62443494796753	fix_post	2		12.0	12.0	2.5	blank	1.0	109.12019395828247	0.10002303123474121
15	40.72445797920227	fix_pre	0		52.0	13.0	2.5	/experiments/knapen_aot/videos/R_S_FK_U009_C004_SDR_20191220_SDR_2K_AVC.mp4	0.0	109.22021698951721	0.433243989944458
15	41.14959692955017	response	0	2		13.0	2.5	/experiments/knapen_aot/videos/R_S_FK_U009_C004_SDR_20191220_SDR_2K_AVC.mp4	0.0	109.64535593986511	
15	41.15770196914673	movie	1		166.0	13.0	2.5	/experiments/knapen_aot/videos/R_S_FK_U009_C004_SDR_20191220_SDR_2K_AVC.mp4	0.0	109.65346097946167	2.5084009170532227
15	43.66610288619995	fix_post	2		12.0	13.0	2.5	/experiments/knapen_aot/videos/R_S_FK_U009_C004_SDR_20191220_SDR_2K_AVC.mp4	0.0	112.16186189651489	0.10000395774841309
16	43.766106843948364	fix_pre	0		41.0	14.0	2.5	/experiments/knapen_aot/videos/R_S_comp_LA_A008_C004_ALTB_ED_FROM_FLAME_RETIME_v46_SDR_PS_20180917_SDR_2K_AVC.mp4	0.0	112.2618658542633	0.34156107902526855
16	44.09959292411804	response	0	2		14.0	2.5	/experiments/knapen_aot/videos/R_S_comp_LA_A008_C004_ALTB_ED_FROM_FLAME_RETIME_v46_SDR_PS_20180917_SDR_2K_AVC.mp4	0.0	112.59535193443298	
16	44.10766792297363	movie	1		170.0	14.0	2.5	/experiments/knapen_aot/videos/R_S_comp_LA_A008_C004_ALTB_ED_FROM_FLAME_RETIME_v46_SDR_PS_20180917_SDR_2K_AVC.mp4	0.0	112.60342693328857	2.508441925048828
16	46.61610984802246	fix_post	2		12.0	14.0	2.5	/experiments/knapen_aot/videos/R_S_comp_LA_A008_C004_ALTB_ED_FROM_FLAME_RETIME_v46_SDR_PS_20180917_SDR_2K_AVC.mp4	0.0	115.1118688583374	0.09996414184570312
17	46.716073989868164	fix_pre	0		33.0	15.0	2.5	/experiments/knapen_aot/videos/R_S_yt-C0INfEJ4Awk_53.mp4	0.0	115.2118330001831	0.27503490447998047
17	46.98286294937134	response	0	2		15.0	2.5	/experiments/knapen_aot/videos/R_S_yt-C0INfEJ4Awk_53.mp4	0.0	115.47862195968628	
17	46.991108894348145	movie	1		301.0	15.0	2.5	/experiments/knapen_aot/videos/R_S_yt-C0INfEJ4Awk_53.mp4	0.0	115.48686790466309	2.5082340240478516
17	49.499342918395996	fix_post	2		12.0	15.0	2.5	/experiments/knapen_aot/videos/R_S_yt-C0INfEJ4Awk_53.mp4	0.0	117.99510192871094	0.10009908676147461
18	49.59944200515747	fix_pre	0		34.0	16.0	2.5	/experiments/knapen_aot/videos/S_yt-oT4Bq8zYN4E_42.mp4	0.0	118.09520101547241	0.28322696685791016
18	49.87450194358826	response	0	2		16.0	2.5	/experiments/knapen_aot/videos/S_yt-oT4Bq8zYN4E_42.mp4	0.0	118.3702609539032	
18	49.88266897201538	movie	1		301.0	16.0	2.5	/experiments/knapen_aot/videos/S_yt-oT4Bq8zYN4E_42.mp4	0.0	118.37842798233032	2.5084030628204346
18	52.391072034835815	fix_post	2		12.0	16.0	2.5	/experiments/knapen_aot/videos/S_yt-oT4Bq8zYN4E_42.mp4	0.0	120.88683104515076	0.09999489784240723
19	52.49106693267822	fix_pre	0		37.0	17.0	2.5	/experiments/knapen_aot/videos/R_S_yt-H45g6700wbc_159.mp4	0.0	120.98682594299316	0.30827999114990234
19	52.791306018829346	response	0	2		17.0	2.5	/experiments/knapen_aot/videos/R_S_yt-H45g6700wbc_159.mp4	0.0	121.28706502914429	
19	52.799346923828125	movie	1		301.0	17.0	2.5	/experiments/knapen_aot/videos/R_S_yt-H45g6700wbc_159.mp4	0.0	121.29510593414307	2.5084240436553955
19	55.30777096748352	fix_post	2		12.0	17.0	2.5	/experiments/knapen_aot/videos/R_S_yt-H45g6700wbc_159.mp4	0.0	123.80352997779846	0.09994196891784668
20	55.40771293640137	fix_pre	0		52.0	18.0	2.5	/experiments/knapen_aot/videos/R_S_yt_R-JaY8f33fOCw_25.mp4	0.0	123.90347194671631	0.4332890510559082
20	55.83279895782471	response	0	2		18.0	2.5	/experiments/knapen_aot/videos/R_S_yt_R-JaY8f33fOCw_25.mp4	0.0	124.32855796813965	
20	55.841001987457275	movie	1		301.0	18.0	2.5	/experiments/knapen_aot/videos/R_S_yt_R-JaY8f33fOCw_25.mp4	0.0	124.33676099777222	2.5083470344543457
20	58.34934902191162	fix_post	2		12.0	18.0	2.5	/experiments/knapen_aot/videos/R_S_yt_R-JaY8f33fOCw_25.mp4	0.0	126.84510803222656	0.10001587867736816
21	58.44936490058899	fix_pre	0		85.0	19.0	2.5	/experiments/knapen_aot/videos/R_S_yt-7WYXuBHeorw_188.mp4	0.0	126.94512391090393	0.7083659172058105
21	59.14951801300049	response	0	2		19.0	2.5	/experiments/knapen_aot/videos/R_S_yt-7WYXuBHeorw_188.mp4	0.0	127.64527702331543	
21	59.1577308177948	movie	1		301.0	19.0	2.5	/experiments/knapen_aot/videos/R_S_yt-7WYXuBHeorw_188.mp4	0.0	127.65348982810974	2.5083742141723633
21	61.66610503196716	fix_post	2		12.0	19.0	2.5	/experiments/knapen_aot/videos/R_S_yt-7WYXuBHeorw_188.mp4	0.0	130.1618640422821	0.10017895698547363
22	61.76628398895264	fix_pre	0		62.0	20.0	2.5	/experiments/knapen_aot/videos/S_KP_A010_C002_SDR_20190717_SDR_2K_AVC.mp4	0.0	130.26204299926758	0.516442060470581
22	62.27446985244751	response	0	2		20.0	2.5	/experiments/knapen_aot/videos/S_KP_A010_C002_SDR_20190717_SDR_2K_AVC.mp4	0.0	130.77022886276245	
22	62.28272604942322	movie	1		164.0	20.0	2.5	/experiments/knapen_aot/videos/S_KP_A010_C002_SDR_20190717_SDR_2K_AVC.mp4	0.0	130.77848505973816	2.5082859992980957
22	64.79101204872131	fix_post	2		12.0	20.0	2.5	/experiments/knapen_aot/videos/S_KP_A010_C002_SDR_20190717_SDR_2K_AVC.mp4	0.0	133.28677105903625	0.10009384155273438
23	64.89110589027405	fix_pre	0		96.0	21.0	2.5	blank	1.0	133.386864900589	0.7999041080474854
23	65.67526483535767	response	0	2		21.0	2.5	blank	1.0	134.1710238456726	
23	65.69100999832153	movie	1		301.0	21.0	2.5	blank	1.0	134.18676900863647	2.508420944213867
23	68.1994309425354	fix_post	2		12.0	21.0	2.5	blank	1.0	136.69518995285034	0.09983611106872559
24	68.29926705360413	fix_pre	0		36.0	22.0	2.5	/experiments/knapen_aot/videos/R_S_yt-KM_SJx8CMGc_10.mp4	0.0	136.79502606391907	0.3013458251953125
24	68.59109997749329	response	0	2		22.0	2.5	/experiments/knapen_aot/videos/R_S_yt-KM_SJx8CMGc_10.mp4	0.0	137.08685898780823	
24	68.60061287879944	movie	1		301.0	22.0	2.5	/experiments/knapen_aot/videos/R_S_yt-KM_SJx8CMGc_10.mp4	0.0	137.09637188911438	2.5071070194244385
24	71.10771989822388	fix_post	2		12.0	22.0	2.5	/experiments/knapen_aot/videos/R_S_yt-KM_SJx8CMGc_10.mp4	0.0	139.60347890853882	0.09997701644897461
25	71.20769691467285	fix_pre	0		35.0	23.0	2.5	/experiments/knapen_aot/videos/S_yt-3R23XwTXpKs_238.mp4	0.0	139.7034559249878	0.2915639877319336
25	71.4909930229187	response	0	2		23.0	2.5	/experiments/knapen_aot/videos/S_yt-3R23XwTXpKs_238.mp4	0.0	139.98675203323364	
25	71.49926090240479	movie	1		300.0	23.0	2.5	/experiments/knapen_aot/videos/S_yt-3R23XwTXpKs_238.mp4	0.0	139.99501991271973	2.5083601474761963
25	74.00762104988098	fix_post	2		12.0	23.0	2.5	/experiments/knapen_aot/videos/S_yt-3R23XwTXpKs_238.mp4	0.0	142.50338006019592	0.09999895095825195
26	74.10762000083923	fix_pre	0		63.0	24.0	2.5	/experiments/knapen_aot/videos/S_gHYomsO1dSU_5.mp4	0.0	142.60337901115417	0.5249700546264648
26	74.62434792518616	response	0	2		24.0	2.5	/experiments/knapen_aot/videos/S_gHYomsO1dSU_5.mp4	0.0	143.1201069355011	
26	74.6325900554657	movie	1		301.0	24.0	2.5	/experiments/knapen_aot/videos/S_gHYomsO1dSU_5.mp4	0.0	143.12834906578064	2.5084388256073
26	77.141028881073	fix_post	2		12.0	24.0	2.5	/experiments/knapen_aot/videos/S_gHYomsO1dSU_5.mp4	0.0	145.63678789138794	0.10001516342163086
27	77.24104404449463	fix_pre	0		41.0	25.0	2.5	/experiments/knapen_aot/videos/S_bing-www_dailymotion_com_video_x64c56w_164.mp4	0.0	145.73680305480957	0.3415517807006836
27	77.57433199882507	response	0	2		25.0	2.5	/experiments/knapen_aot/videos/S_bing-www_dailymotion_com_video_x64c56w_164.mp4	0.0	146.07009100914001	
27	77.58259582519531	movie	1		163.0	25.0	2.5	/experiments/knapen_aot/videos/S_bing-www_dailymotion_com_video_x64c56w_164.mp4	0.0	146.07835483551025	2.5086190700531006
27	80.09121489524841	fix_post	2		12.0	25.0	2.5	/experiments/knapen_aot/videos/S_bing-www_dailymotion_com_video_x64c56w_164.mp4	0.0	148.58697390556335	0.09977102279663086
28	80.19098591804504	fix_pre	0		41.0	26.0	2.5	/experiments/knapen_aot/videos/R_S_yt-KLInd-KrK_w_19.mp4	0.0	148.68674492835999	0.34174609184265137
28	80.52444982528687	response	0	2		26.0	2.5	/experiments/knapen_aot/videos/R_S_yt-KLInd-KrK_w_19.mp4	0.0	149.0202088356018	
28	80.5327320098877	movie	1		301.0	26.0	2.5	/experiments/knapen_aot/videos/R_S_yt-KLInd-KrK_w_19.mp4	0.0	149.02849102020264	2.508281946182251
28	83.04101395606995	fix_post	2		12.0	26.0	2.5	/experiments/knapen_aot/videos/R_S_yt-KLInd-KrK_w_19.mp4	0.0	151.5367729663849	0.09989690780639648
29	83.14091086387634	fix_pre	0		57.0	27.0	2.5	blank	1.0	151.63666987419128	0.4749929904937744
29	83.60769891738892	response	0	2		27.0	2.5	blank	1.0	152.10345792770386	
29	83.61590385437012	movie	1		301.0	27.0	2.5	blank	1.0	152.11166286468506	2.5083470344543457
29	86.12425088882446	fix_post	2		12.0	27.0	2.5	blank	1.0	154.6200098991394	0.10001111030578613
30	86.22426199913025	fix_pre	0		53.0	28.0	2.5	/experiments/knapen_aot/videos/S_yt-BAwvfRmE1LU_79.mp4	0.0	154.7200210094452	0.44155192375183105
30	86.65011787414551	response	0	2		28.0	2.5	/experiments/knapen_aot/videos/S_yt-BAwvfRmE1LU_79.mp4	0.0	155.14587688446045	
30	86.66581392288208	movie	1		301.0	28.0	2.5	/experiments/knapen_aot/videos/S_yt-BAwvfRmE1LU_79.mp4	0.0	155.16157293319702	2.50844407081604
30	89.17425799369812	fix_post	2		12.0	28.0	2.5	/experiments/knapen_aot/videos/S_yt-BAwvfRmE1LU_79.mp4	0.0	157.67001700401306	0.09998703002929688
31	89.27424502372742	fix_pre	0		32.0	29.0	2.5	/experiments/knapen_aot/videos/S_yt-iO0efV_PV-k_102.mp4	0.0	157.77000403404236	0.26656293869018555
31	89.53269386291504	response	0	2		29.0	2.5	/experiments/knapen_aot/videos/S_yt-iO0efV_PV-k_102.mp4	0.0	158.02845287322998	
31	89.5408079624176	movie	1		301.0	29.0	2.5	/experiments/knapen_aot/videos/S_yt-iO0efV_PV-k_102.mp4	0.0	158.03656697273254	2.508423089981079
31	92.04923105239868	fix_post	2		12.0	29.0	2.5	/experiments/knapen_aot/videos/S_yt-iO0efV_PV-k_102.mp4	0.0	160.54499006271362	0.10010600090026855
32	92.14933705329895	fix_pre	0		74.0	30.0	2.5	/experiments/knapen_aot/videos/R_S_yt-0aHV3uU8xFY_75.mp4	0.0	160.6450960636139	0.6177639961242676
32	92.75769305229187	response	0	2		30.0	2.5	/experiments/knapen_aot/videos/R_S_yt-0aHV3uU8xFY_75.mp4	0.0	161.2534520626068	
32	92.76710104942322	movie	1		301.0	30.0	2.5	/experiments/knapen_aot/videos/R_S_yt-0aHV3uU8xFY_75.mp4	0.0	161.26286005973816	2.5071167945861816
32	95.2742178440094	fix_post	2		12.0	30.0	2.5	/experiments/knapen_aot/videos/R_S_yt-0aHV3uU8xFY_75.mp4	0.0	163.76997685432434	0.09998512268066406
33	95.37420296669006	fix_pre	0		61.0	31.0	2.5	/experiments/knapen_aot/videos/S_yt-1V0KJEc4cJ4_203.mp4	0.0	163.869961977005	0.5083498954772949
33	95.87430500984192	response	0	2		31.0	2.5	/experiments/knapen_aot/videos/S_yt-1V0KJEc4cJ4_203.mp4	0.0	164.37006402015686	
33	95.88255286216736	movie	1		301.0	31.0	2.5	/experiments/knapen_aot/videos/S_yt-1V0KJEc4cJ4_203.mp4	0.0	164.3783118724823	2.5082499980926514
33	98.39080286026001	fix_post	2		12.0	31.0	2.5	/experiments/knapen_aot/videos/S_yt-1V0KJEc4cJ4_203.mp4	0.0	166.88656187057495	0.10007596015930176
34	98.49087882041931	fix_pre	0		53.0	32.0	2.5	/experiments/knapen_aot/videos/S_yt-Jo6PxivsTOg_247.mp4	0.0	166.98663783073425	0.4418301582336426
34	98.91676783561707	response	0	2		32.0	2.5	/experiments/knapen_aot/videos/S_yt-Jo6PxivsTOg_247.mp4	0.0	167.412526845932	
34	98.93270897865295	movie	1		301.0	32.0	2.5	/experiments/knapen_aot/videos/S_yt-Jo6PxivsTOg_247.mp4	0.0	167.4284679889679	2.508190870285034
34	101.44089984893799	fix_post	2		12.0	32.0	2.5	/experiments/knapen_aot/videos/S_yt-Jo6PxivsTOg_247.mp4	0.0	169.93665885925293	0.09988713264465332
35	101.54078698158264	fix_pre	0		51.0	33.0	2.5	/experiments/knapen_aot/videos/R_S_yt-4oacL3aXtlU_11.mp4	0.0	170.03654599189758	0.42504286766052246
35	101.95762300491333	response	0	2		33.0	2.5	/experiments/knapen_aot/videos/R_S_yt-4oacL3aXtlU_11.mp4	0.0	170.45338201522827	
35	101.96582984924316	movie	1		301.0	33.0	2.5	/experiments/knapen_aot/videos/R_S_yt-4oacL3aXtlU_11.mp4	0.0	170.4615888595581	2.508303165435791
35	104.47413301467896	fix_post	2		12.0	33.0	2.5	/experiments/knapen_aot/videos/R_S_yt-4oacL3aXtlU_11.mp4	0.0	172.9698920249939	0.10003995895385742
36	104.57417297363281	fix_pre	0		47.0	34.0	2.5	/experiments/knapen_aot/videos/S_yt-oT4Bq8zYN4E_42.mp4	0.0	173.06993198394775	0.39163899421691895
36	104.95775699615479	response	0	2		34.0	2.5	/experiments/knapen_aot/videos/S_yt-oT4Bq8zYN4E_42.mp4	0.0	173.45351600646973	
36	104.96581196784973	movie	1		301.0	34.0	2.5	/experiments/knapen_aot/videos/S_yt-oT4Bq8zYN4E_42.mp4	0.0	173.46157097816467	2.5082790851593018
36	107.47409105300903	fix_post	2		12.0	34.0	2.5	/experiments/knapen_aot/videos/S_yt-oT4Bq8zYN4E_42.mp4	0.0	175.96985006332397	0.10013890266418457
37	107.57422995567322	fix_pre	0		44.0	35.0	2.5	blank	1.0	176.06998896598816	0.36658787727355957
37	107.93258500099182	response	0	2		35.0	2.5	blank	1.0	176.42834401130676	
37	107.94081783294678	movie	1		301.0	35.0	2.5	blank	1.0	176.43657684326172	2.5083141326904297
37	110.4491319656372	fix_post	2		12.0	35.0	2.5	blank	1.0	178.94489097595215	0.10001587867736816
38	110.54914784431458	fix_pre	0		46.0	36.0	2.5	/experiments/knapen_aot/videos/R_S_pexels-kelly-lacy-6756531.mp4	0.0	179.04490685462952	0.3843810558319092
38	110.92426085472107	response	0	2		36.0	2.5	/experiments/knapen_aot/videos/R_S_pexels-kelly-lacy-6756531.mp4	0.0	179.420019865036	
38	110.93352890014648	movie	1		187.0	36.0	2.5	/experiments/knapen_aot/videos/R_S_pexels-kelly-lacy-6756531.mp4	0.0	179.42928791046143	2.507282018661499
38	113.44081091880798	fix_post	2		12.0	36.0	2.5	/experiments/knapen_aot/videos/R_S_pexels-kelly-lacy-6756531.mp4	0.0	181.93656992912292	0.09991908073425293
39	113.54072999954224	fix_pre	0		33.0	37.0	2.5	/experiments/knapen_aot/videos/S_yt-qsyDLtXcyHc_8.mp4	0.0	182.03648900985718	0.27504587173461914
39	113.80758595466614	response	0	2		37.0	2.5	/experiments/knapen_aot/videos/S_yt-qsyDLtXcyHc_8.mp4	0.0	182.30334496498108	
39	113.81577587127686	movie	1		301.0	37.0	2.5	/experiments/knapen_aot/videos/S_yt-qsyDLtXcyHc_8.mp4	0.0	182.3115348815918	2.508310079574585
39	116.32408595085144	fix_post	2		12.0	37.0	2.5	/experiments/knapen_aot/videos/S_yt-qsyDLtXcyHc_8.mp4	0.0	184.81984496116638	0.1000359058380127
40	116.42412185668945	fix_pre	0		44.0	38.0	2.5	/experiments/knapen_aot/videos/S_ILSVRC2015_train_00405000.mp4	0.0	184.9198808670044	0.3666400909423828
40	116.78249502182007	response	0	2		38.0	2.5	/experiments/knapen_aot/videos/S_ILSVRC2015_train_00405000.mp4	0.0	185.278254032135	
40	116.79076194763184	movie	1		301.0	38.0	2.5	/experiments/knapen_aot/videos/S_ILSVRC2015_train_00405000.mp4	0.0	185.28652095794678	2.508333921432495
40	119.29909586906433	fix_post	2		12.0	38.0	2.5	/experiments/knapen_aot/videos/S_ILSVRC2015_train_00405000.mp4	0.0	187.79485487937927	0.10003495216369629
41	119.39913082122803	fix_pre	0		46.0	39.0	2.5	/experiments/knapen_aot/videos/S_yt-ycfVJyrFgB4_15.mp4	0.0	187.89488983154297	0.3832681179046631
41	119.7665798664093	response	0	2		39.0	2.5	/experiments/knapen_aot/videos/S_yt-ycfVJyrFgB4_15.mp4	0.0	188.26233887672424	
41	119.78239893913269	movie	1		301.0	39.0	2.5	/experiments/knapen_aot/videos/S_yt-ycfVJyrFgB4_15.mp4	0.0	188.27815794944763	2.5084478855133057
41	122.290846824646	fix_post	2		12.0	39.0	2.5	/experiments/knapen_aot/videos/S_yt-ycfVJyrFgB4_15.mp4	0.0	190.78660583496094	0.09997916221618652
42	122.39082598686218	fix_pre	0		50.0	40.0	2.5	/experiments/knapen_aot/videos/S_yt-kAUL5o7i5mo_116.mp4	0.0	190.88658499717712	0.417633056640625
42	122.79914593696594	response	0	2		40.0	2.5	/experiments/knapen_aot/videos/S_yt-kAUL5o7i5mo_116.mp4	0.0	191.29490494728088	
42	122.80845904350281	movie	1		301.0	40.0	2.5	/experiments/knapen_aot/videos/S_yt-kAUL5o7i5mo_116.mp4	0.0	191.30421805381775	2.50728178024292
42	125.31574082374573	fix_post	2		12.0	40.0	2.5	/experiments/knapen_aot/videos/S_yt-kAUL5o7i5mo_116.mp4	0.0	193.81149983406067	0.10018110275268555
43	125.41592192649841	fix_pre	0		47.0	41.0	2.5	/experiments/knapen_aot/videos/S_BO_A014_C023_SDR_20190717_F240F3709_SDR_2K_AVC.mp4	0.0	193.91168093681335	0.3924539089202881
43	125.79913187026978	response	0	2		41.0	2.5	/experiments/knapen_aot/videos/S_BO_A014_C023_SDR_20190717_F240F3709_SDR_2K_AVC.mp4	0.0	194.29489088058472	
43	125.8083758354187	movie	1		172.0	41.0	2.5	/experiments/knapen_aot/videos/S_BO_A014_C023_SDR_20190717_F240F3709_SDR_2K_AVC.mp4	0.0	194.30413484573364	2.507362127304077
43	128.31573796272278	fix_post	2		12.0	41.0	2.5	/experiments/knapen_aot/videos/S_BO_A014_C023_SDR_20190717_F240F3709_SDR_2K_AVC.mp4	0.0	196.81149697303772	0.09997797012329102
44	128.41571593284607	fix_pre	0		47.0	42.0	2.5	blank	1.0	196.911474943161	0.3916900157928467
44	128.79917788505554	response	0	2		42.0	2.5	blank	1.0	197.29493689537048	
44	128.80740594863892	movie	1		301.0	42.0	2.5	blank	1.0	197.30316495895386	2.5083420276641846
44	131.3157479763031	fix_post	2		12.0	42.0	2.5	blank	1.0	199.81150698661804	0.09999394416809082
45	131.4157419204712	fix_pre	0		46.0	43.0	2.5	/experiments/knapen_aot/videos/S_yt-Kwfwhd07dVo_2.mp4	0.0	199.91150093078613	0.383281946182251
45	131.79085493087769	response	0	2		43.0	2.5	/experiments/knapen_aot/videos/S_yt-Kwfwhd07dVo_2.mp4	0.0	200.28661394119263	
45	131.79902386665344	movie	1		301.0	43.0	2.5	/experiments/knapen_aot/videos/S_yt-Kwfwhd07dVo_2.mp4	0.0	200.29478287696838	2.508347988128662
45	134.3073718547821	fix_post	2		12.0	43.0	2.5	/experiments/knapen_aot/videos/S_yt-Kwfwhd07dVo_2.mp4	0.0	202.80313086509705	0.09999513626098633
46	134.4073669910431	fix_pre	0		56.0	44.0	2.5	/experiments/knapen_aot/videos/S_yt-C0INfEJ4Awk_53.mp4	0.0	202.90312600135803	0.46668100357055664
46	134.86582803726196	response	0	2		44.0	2.5	/experiments/knapen_aot/videos/S_yt-C0INfEJ4Awk_53.mp4	0.0	203.3615870475769	
46	134.87404799461365	movie	1		301.0	44.0	2.5	/experiments/knapen_aot/videos/S_yt-C0INfEJ4Awk_53.mp4	0.0	203.3698070049286	2.508486032485962
46	137.3825340270996	fix_post	2		12.0	44.0	2.5	/experiments/knapen_aot/videos/S_yt-C0INfEJ4Awk_53.mp4	0.0	205.87829303741455	0.09977388381958008
47	137.4823079109192	fix_pre	0		44.0	45.0	2.5	/experiments/knapen_aot/videos/R_S_yt-K_gHa2x2OQA_319.mp4	0.0	205.97806692123413	0.36760807037353516
47	137.8332040309906	response	0	2		45.0	2.5	/experiments/knapen_aot/videos/R_S_yt-K_gHa2x2OQA_319.mp4	0.0	206.32896304130554	
47	137.84991598129272	movie	1		301.0	45.0	2.5	/experiments/knapen_aot/videos/R_S_yt-K_gHa2x2OQA_319.mp4	0.0	206.34567499160767	2.507434844970703
47	140.35735082626343	fix_post	2		12.0	45.0	2.5	/experiments/knapen_aot/videos/R_S_yt-K_gHa2x2OQA_319.mp4	0.0	208.85310983657837	0.10001516342163086
48	140.45736598968506	fix_pre	0		35.0	46.0	2.5	/experiments/knapen_aot/videos/S_yt-LYnwnfi1JJ4_120.mp4	0.0	208.953125	0.2916100025177002
48	140.74081683158875	response	0	2		46.0	2.5	/experiments/knapen_aot/videos/S_yt-LYnwnfi1JJ4_120.mp4	0.0	209.2365758419037	
48	140.74897599220276	movie	1		301.0	46.0	2.5	/experiments/knapen_aot/videos/S_yt-LYnwnfi1JJ4_120.mp4	0.0	209.2447350025177	2.5083260536193848
48	143.25730204582214	fix_post	2		12.0	46.0	2.5	/experiments/knapen_aot/videos/S_yt-LYnwnfi1JJ4_120.mp4	0.0	211.75306105613708	0.10004997253417969
49	143.35735201835632	fix_pre	0		62.0	47.0	2.5	blank	1.0	211.85311102867126	0.5166079998016357
49	143.865788936615	response	0	2		47.0	2.5	blank	1.0	212.36154794692993	
49	143.87396001815796	movie	1		301.0	47.0	2.5	blank	1.0	212.3697190284729	2.508457899093628
49	146.3824179172516	fix_post	2		12.0	47.0	2.5	blank	1.0	214.87817692756653	0.09988594055175781
50	146.48230385780334	fix_pre	0		57.0	48.0	2.5	/experiments/knapen_aot/videos/R_S_comp_A105_C003_0212CT_FLARE_v10_SDR_PS_FINAL_20180711_SDR_2K_AVC.mp4	0.0	214.9780628681183	0.47498297691345215
50	146.94913291931152	response	0	2		48.0	2.5	/experiments/knapen_aot/videos/R_S_comp_A105_C003_0212CT_FLARE_v10_SDR_PS_FINAL_20180711_SDR_2K_AVC.mp4	0.0	215.44489192962646	
50	146.9572868347168	movie	1		167.0	48.0	2.5	/experiments/knapen_aot/videos/R_S_comp_A105_C003_0212CT_FLARE_v10_SDR_PS_FINAL_20180711_SDR_2K_AVC.mp4	0.0	215.45304584503174	2.5083491802215576
50	149.46563601493835	fix_post	2		12.0	48.0	2.5	/experiments/knapen_aot/videos/R_S_comp_A105_C003_0212CT_FLARE_v10_SDR_PS_FINAL_20180711_SDR_2K_AVC.mp4	0.0	217.9613950252533	0.10000991821289062
51	149.56564593315125	fix_pre	0		35.0	49.0	2.5	/experiments/knapen_aot/videos/R_S_wc-PqINyFk_ku4u_18.mp4	0.0	218.0614049434662	0.29158711433410645
51	149.8490388393402	response	0	2		49.0	2.5	/experiments/knapen_aot/videos/R_S_wc-PqINyFk_ku4u_18.mp4	0.0	218.34479784965515	
51	149.85723304748535	movie	1		165.0	49.0	2.5	/experiments/knapen_aot/videos/R_S_wc-PqINyFk_ku4u_18.mp4	0.0	218.3529920578003	2.508419990539551
51	152.3656530380249	fix_post	2		12.0	49.0	2.5	/experiments/knapen_aot/videos/R_S_wc-PqINyFk_ku4u_18.mp4	0.0	220.86141204833984	0.09993290901184082
52	152.46558594703674	fix_pre	0		25.0	50.0	2.5	/experiments/knapen_aot/videos/S_SPNvf6JCjGw_123.mp4	0.0	220.96134495735168	0.20830702781677246
52	152.66569185256958	response	0	2		50.0	2.5	/experiments/knapen_aot/videos/S_SPNvf6JCjGw_123.mp4	0.0	221.16145086288452	
52	152.67389297485352	movie	1		301.0	50.0	2.5	/experiments/knapen_aot/videos/S_SPNvf6JCjGw_123.mp4	0.0	221.16965198516846	2.508302927017212
52	155.18219590187073	fix_post	2		12.0	50.0	2.5	/experiments/knapen_aot/videos/S_SPNvf6JCjGw_123.mp4	0.0	223.67795491218567	0.10011911392211914
53	155.28231501579285	fix_pre	0		36.0	51.0	2.5	/experiments/knapen_aot/videos/S_comp_GL_G002_C002_PSNK_v03_SDR_PS_20180925_SDR_2K_AVC.mp4	0.0	223.7780740261078	0.2999579906463623
53	155.57406497001648	response	0	2		51.0	2.5	/experiments/knapen_aot/videos/S_comp_GL_G002_C002_PSNK_v03_SDR_PS_20180925_SDR_2K_AVC.mp4	0.0	224.06982398033142	
53	155.5822730064392	movie	1		168.0	51.0	2.5	/experiments/knapen_aot/videos/S_comp_GL_G002_C002_PSNK_v03_SDR_PS_20180925_SDR_2K_AVC.mp4	0.0	224.07803201675415	2.5083630084991455
53	158.09063601493835	fix_post	2		12.0	51.0	2.5	/experiments/knapen_aot/videos/S_comp_GL_G002_C002_PSNK_v03_SDR_PS_20180925_SDR_2K_AVC.mp4	0.0	226.5863950252533	0.09995889663696289
54	158.19059491157532	fix_pre	0		50.0	52.0	2.5	/experiments/knapen_aot/videos/R_S_bing-www_cnet_com_videos_amazon-wants-to-put-alexa-on-your-pc__50.mp4	0.0	226.68635392189026	0.4167299270629883
54	158.59908485412598	response	0	2		52.0	2.5	/experiments/knapen_aot/videos/R_S_bing-www_cnet_com_videos_amazon-wants-to-put-alexa-on-your-pc__50.mp4	0.0	227.09484386444092	
54	158.6073248386383	movie	1		168.0	52.0	2.5	/experiments/knapen_aot/videos/R_S_bing-www_cnet_com_videos_amazon-wants-to-put-alexa-on-your-pc__50.mp4	0.0	227.10308384895325	2.5083420276641846
54	161.1156668663025	fix_post	2		12.0	52.0	2.5	/experiments/knapen_aot/videos/R_S_bing-www_cnet_com_videos_amazon-wants-to-put-alexa-on-your-pc__50.mp4	0.0	229.61142587661743	0.0999751091003418
55	161.21564197540283	fix_pre	0		57.0	53.0	2.5	/experiments/knapen_aot/videos/S_yt-UKrWbJEs7pw_74.mp4	0.0	229.71140098571777	0.4750380516052246
55	161.68241000175476	response	0	2		53.0	2.5	/experiments/knapen_aot/videos/S_yt-UKrWbJEs7pw_74.mp4	0.0	230.1781690120697	
55	161.69068002700806	movie	1		301.0	53.0	2.5	/experiments/knapen_aot/videos/S_yt-UKrWbJEs7pw_74.mp4	0.0	230.186439037323	2.5083508491516113
55	164.19903087615967	fix_post	2		12.0	53.0	2.5	/experiments/knapen_aot/videos/S_yt-UKrWbJEs7pw_74.mp4	0.0	232.6947898864746	0.09989714622497559
56	164.29892802238464	fix_pre	0		57.0	54.0	2.5	/experiments/knapen_aot/videos/R_S_yt-ZTAaH5XbtfE_3.mp4	0.0	232.79468703269958	0.4749460220336914
56	164.7581238746643	response	0	2		54.0	2.5	/experiments/knapen_aot/videos/R_S_yt-ZTAaH5XbtfE_3.mp4	0.0	233.25388288497925	
56	164.77387404441833	movie	1		301.0	54.0	2.5	/experiments/knapen_aot/videos/R_S_yt-ZTAaH5XbtfE_3.mp4	0.0	233.26963305473328	2.5083858966827393
56	167.28225994110107	fix_post	2		12.0	54.0	2.5	/experiments/knapen_aot/videos/R_S_yt-ZTAaH5XbtfE_3.mp4	0.0	235.77801895141602	0.1000969409942627
57	167.38235688209534	fix_pre	0		40.0	55.0	2.5	blank	1.0	235.87811589241028	0.3332099914550781
57	167.70732498168945	response	0	2		55.0	2.5	blank	1.0	236.2030839920044	
57	167.71556687355042	movie	1		301.0	55.0	2.5	blank	1.0	236.21132588386536	2.5082881450653076
57	170.22385501861572	fix_post	2		12.0	55.0	2.5	blank	1.0	238.71961402893066	0.10002779960632324
58	170.32388281822205	fix_pre	0		66.0	56.0	2.5	/experiments/knapen_aot/videos/R_S_yt-e_eOzV7qMZo_374.mp4	0.0	238.819641828537	0.5499022006988525
58	170.86563086509705	response	0	2		56.0	2.5	/experiments/knapen_aot/videos/R_S_yt-e_eOzV7qMZo_374.mp4	0.0	239.361389875412	
58	170.8737850189209	movie	1		301.0	56.0	2.5	/experiments/knapen_aot/videos/R_S_yt-e_eOzV7qMZo_374.mp4	0.0	239.36954402923584	2.50836181640625
58	173.38214683532715	fix_post	2		12.0	56.0	2.5	/experiments/knapen_aot/videos/R_S_yt-e_eOzV7qMZo_374.mp4	0.0	241.8779058456421	0.10003900527954102
59	173.4821858406067	fix_pre	0		31.0	57.0	2.5	/experiments/knapen_aot/videos/R_S_yt-ni4JaYu7PhU_6.mp4	0.0	241.97794485092163	0.25832605361938477
59	173.7322690486908	response	0	2		57.0	2.5	/experiments/knapen_aot/videos/R_S_yt-ni4JaYu7PhU_6.mp4	0.0	242.22802805900574	
59	173.74051189422607	movie	1		301.0	57.0	2.5	/experiments/knapen_aot/videos/R_S_yt-ni4JaYu7PhU_6.mp4	0.0	242.23627090454102	2.508331060409546
59	176.24884295463562	fix_post	2		12.0	57.0	2.5	/experiments/knapen_aot/videos/R_S_yt-ni4JaYu7PhU_6.mp4	0.0	244.74460196495056	0.09994888305664062
60	176.34879183769226	fix_pre	0		54.0	58.0	2.5	/experiments/knapen_aot/videos/S_wc-16LozRfhUGea_49.mp4	0.0	244.8445508480072	0.4500260353088379
60	176.79064202308655	response	0	2		58.0	2.5	/experiments/knapen_aot/videos/S_wc-16LozRfhUGea_49.mp4	0.0	245.2864010334015	
60	176.7988178730011	movie	1		301.0	58.0	2.5	/experiments/knapen_aot/videos/S_wc-16LozRfhUGea_49.mp4	0.0	245.29457688331604	2.5083329677581787
60	179.30715084075928	fix_post	2		12.0	58.0	2.5	/experiments/knapen_aot/videos/S_wc-16LozRfhUGea_49.mp4	0.0	247.80290985107422	0.10001516342163086
61	179.4071660041809	fix_pre	0		74.0	59.0	2.5	/experiments/knapen_aot/videos/S_yt-iKe-0YNR5Eo_164.mp4	0.0	247.90292501449585	0.6166160106658936
61	180.01557898521423	response	0	2		59.0	2.5	/experiments/knapen_aot/videos/S_yt-iKe-0YNR5Eo_164.mp4	0.0	248.51133799552917	
61	180.0237820148468	movie	1		301.0	59.0	2.5	/experiments/knapen_aot/videos/S_yt-iKe-0YNR5Eo_164.mp4	0.0	248.51954102516174	2.508404016494751
61	182.53218603134155	fix_post	2		12.0	59.0	2.5	/experiments/knapen_aot/videos/S_yt-iKe-0YNR5Eo_164.mp4	0.0	251.0279450416565	0.09995484352111816
62	182.63214087486267	fix_pre	0		36.0	60.0	2.5	/experiments/knapen_aot/videos/S_yt-XUnZ7FbBtvk_162.mp4	0.0	251.1278998851776	0.3006751537322998
62	182.92395401000977	response	0	2		60.0	2.5	/experiments/knapen_aot/videos/S_yt-XUnZ7FbBtvk_162.mp4	0.0	251.4197130203247	
62	182.93281602859497	movie	1		301.0	60.0	2.5	/experiments/knapen_aot/videos/S_yt-XUnZ7FbBtvk_162.mp4	0.0	251.4285750389099	2.50767183303833
62	185.4404878616333	fix_post	2		12.0	60.0	2.5	/experiments/knapen_aot/videos/S_yt-XUnZ7FbBtvk_162.mp4	0.0	253.93624687194824	0.09999418258666992
63	185.54048204421997	fix_pre	0		53.0	61.0	2.5	/experiments/knapen_aot/videos/R_S_Y011_C008_SDR_2K_AVC.mp4	0.0	254.0362410545349	0.44163990020751953
63	185.97409391403198	response	0	2		61.0	2.5	/experiments/knapen_aot/videos/R_S_Y011_C008_SDR_2K_AVC.mp4	0.0	254.46985292434692	
63	185.9821219444275	movie	1		176.0	61.0	2.5	/experiments/knapen_aot/videos/R_S_Y011_C008_SDR_2K_AVC.mp4	0.0	254.47788095474243	2.508333921432495
63	188.49045586585999	fix_post	2		12.0	61.0	2.5	/experiments/knapen_aot/videos/R_S_Y011_C008_SDR_2K_AVC.mp4	0.0	256.9862148761749	0.09993600845336914
64	188.59039187431335	fix_pre	0		42.0	62.0	2.5	/experiments/knapen_aot/videos/S_yt-s2PWkCdT-TM_258.mp4	0.0	257.0861508846283	0.35001611709594727
64	188.92470693588257	response	0	2		62.0	2.5	/experiments/knapen_aot/videos/S_yt-s2PWkCdT-TM_258.mp4	0.0	257.4204659461975	
64	188.9404079914093	movie	1		301.0	62.0	2.5	/experiments/knapen_aot/videos/S_yt-s2PWkCdT-TM_258.mp4	0.0	257.43616700172424	2.508314847946167
64	191.44872283935547	fix_post	2		12.0	62.0	2.5	/experiments/knapen_aot/videos/S_yt-s2PWkCdT-TM_258.mp4	0.0	259.9444818496704	0.10016918182373047
65	191.5488920211792	fix_pre	0		36.0	63.0	2.5	blank	1.0	260.04465103149414	0.30060482025146484
65	191.84057998657227	response	0	2		63.0	2.5	blank	1.0	260.3363389968872	
65	191.84949684143066	movie	1		301.0	63.0	2.5	blank	1.0	260.3452558517456	2.507625102996826
65	194.3571219444275	fix_post	2		12.0	63.0	2.5	blank	1.0	262.85288095474243	0.1000518798828125
66	194.4571738243103	fix_pre	0		58.0	64.0	2.5	/experiments/knapen_aot/videos/S_yt-Ojy5TMPX8_Q_165.mp4	0.0	262.95293283462524	0.4832170009613037
66	194.9322259426117	response	0	2		64.0	2.5	/experiments/knapen_aot/videos/S_yt-Ojy5TMPX8_Q_165.mp4	0.0	263.42798495292664	
66	194.9403908252716	movie	1		301.0	64.0	2.5	/experiments/knapen_aot/videos/S_yt-Ojy5TMPX8_Q_165.mp4	0.0	263.43614983558655	2.5083510875701904
66	197.4487419128418	fix_post	2		12.0	64.0	2.5	/experiments/knapen_aot/videos/S_yt-Ojy5TMPX8_Q_165.mp4	0.0	265.94450092315674	0.10006093978881836
67	197.54880285263062	fix_pre	0		37.0	65.0	2.5	/experiments/knapen_aot/videos/R_S_pexels-rodnae-productions-5993654.mp4	0.0	266.04456186294556	0.3083009719848633
67	197.84887194633484	response	0	2		65.0	2.5	/experiments/knapen_aot/videos/R_S_pexels-rodnae-productions-5993654.mp4	0.0	266.3446309566498	
67	197.85710382461548	movie	1		170.0	65.0	2.5	/experiments/knapen_aot/videos/R_S_pexels-rodnae-productions-5993654.mp4	0.0	266.3528628349304	2.5083560943603516
67	200.36545991897583	fix_post	2		12.0	65.0	2.5	/experiments/knapen_aot/videos/R_S_pexels-rodnae-productions-5993654.mp4	0.0	268.86121892929077	0.09999895095825195
68	200.46545886993408	fix_pre	0		86.0	66.0	2.5	/experiments/knapen_aot/videos/R_S_yt-0lfSyC79n14_7.mp4	0.0	268.961217880249	0.7171909809112549
68	201.16632986068726	response	0	2		66.0	2.5	/experiments/knapen_aot/videos/R_S_yt-0lfSyC79n14_7.mp4	0.0	269.6620888710022	
68	201.18264985084534	movie	1		301.0	66.0	2.5	/experiments/knapen_aot/videos/R_S_yt-0lfSyC79n14_7.mp4	0.0	269.6784088611603	2.5078351497650146
68	203.69048500061035	fix_post	2		12.0	66.0	2.5	/experiments/knapen_aot/videos/R_S_yt-0lfSyC79n14_7.mp4	0.0	272.1862440109253	0.09996986389160156
69	203.79045486450195	fix_pre	0		89.0	67.0	2.5	/experiments/knapen_aot/videos/S_yt-mI9voWol7cE_104.mp4	0.0	272.2862138748169	0.7415971755981445
69	204.5239119529724	response	0	2		67.0	2.5	/experiments/knapen_aot/videos/S_yt-mI9voWol7cE_104.mp4	0.0	273.01967096328735	
69	204.5320520401001	movie	1		301.0	67.0	2.5	/experiments/knapen_aot/videos/S_yt-mI9voWol7cE_104.mp4	0.0	273.02781105041504	2.5083389282226562
69	207.04039096832275	fix_post	2		12.0	67.0	2.5	/experiments/knapen_aot/videos/S_yt-mI9voWol7cE_104.mp4	0.0	275.5361499786377	0.10000801086425781
70	207.140398979187	fix_pre	0		56.0	68.0	2.5	blank	1.0	275.63615798950195	0.46663689613342285
70	207.5988998413086	response	0	2		68.0	2.5	blank	1.0	276.09465885162354	
70	207.60703587532043	movie	1		301.0	68.0	2.5	blank	1.0	276.1027948856354	2.5083229541778564
70	210.1153588294983	fix_post	2		12.0	68.0	2.5	blank	1.0	278.61111783981323	0.1000971794128418
71	210.21545600891113	fix_pre	0		48.0	69.0	2.5	/experiments/knapen_aot/videos/S_yt-FsylDeYfcxU_24.mp4	0.0	278.7112150192261	0.3999178409576416
71	210.5996220111847	response	0	2		69.0	2.5	/experiments/knapen_aot/videos/S_yt-FsylDeYfcxU_24.mp4	0.0	279.09538102149963	
71	210.61537384986877	movie	1		301.0	69.0	2.5	/experiments/knapen_aot/videos/S_yt-FsylDeYfcxU_24.mp4	0.0	279.1111328601837	2.5083401203155518
71	213.12371397018433	fix_post	2		12.0	69.0	2.5	/experiments/knapen_aot/videos/S_yt-FsylDeYfcxU_24.mp4	0.0	281.61947298049927	0.10055899620056152
72	213.2242729663849	fix_pre	0		41.0	70.0	2.5	/experiments/knapen_aot/videos/R_S_yt_R-JaY8f33fOCw_25.mp4	0.0	281.72003197669983	0.34104204177856445
72	213.55712604522705	response	0	2		70.0	2.5	/experiments/knapen_aot/videos/R_S_yt_R-JaY8f33fOCw_25.mp4	0.0	282.052885055542	
72	213.56531500816345	movie	1		301.0	70.0	2.5	/experiments/knapen_aot/videos/R_S_yt_R-JaY8f33fOCw_25.mp4	0.0	282.0610740184784	2.5083839893341064
72	216.07369899749756	fix_post	2		12.0	70.0	2.5	/experiments/knapen_aot/videos/R_S_yt_R-JaY8f33fOCw_25.mp4	0.0	284.5694580078125	0.10002493858337402
73	216.17372393608093	fix_pre	0		55.0	71.0	2.5	/experiments/knapen_aot/videos/R_S_yt-BG-G7m5wLZ4_94.mp4	0.0	284.6694829463959	0.45821094512939453
73	216.62380003929138	response	0	2		71.0	2.5	/experiments/knapen_aot/videos/R_S_yt-BG-G7m5wLZ4_94.mp4	0.0	285.1195590496063	
73	216.63193488121033	movie	1		301.0	71.0	2.5	/experiments/knapen_aot/videos/R_S_yt-BG-G7m5wLZ4_94.mp4	0.0	285.12769389152527	2.5084969997406006
73	219.14043188095093	fix_post	2		12.0	71.0	2.5	/experiments/knapen_aot/videos/R_S_yt-BG-G7m5wLZ4_94.mp4	0.0	287.63619089126587	0.09986209869384766
74	219.24029397964478	fix_pre	0		43.0	72.0	2.5	/experiments/knapen_aot/videos/S_yt-cBCeq1NQgj0_1129.mp4	0.0	287.7360529899597	0.3590080738067627
74	219.59045791625977	response	0	2		72.0	2.5	/experiments/knapen_aot/videos/S_yt-cBCeq1NQgj0_1129.mp4	0.0	288.0862169265747	
74	219.59930205345154	movie	1		301.0	72.0	2.5	/experiments/knapen_aot/videos/S_yt-cBCeq1NQgj0_1129.mp4	0.0	288.0950610637665	2.507685899734497
74	222.10698795318604	fix_post	2		12.0	72.0	2.5	/experiments/knapen_aot/videos/S_yt-cBCeq1NQgj0_1129.mp4	0.0	290.602746963501	0.09992599487304688
75	222.20691394805908	fix_pre	0		53.0	73.0	2.5	/experiments/knapen_aot/videos/R_S_yt-FsylDeYfcxU_24.mp4	0.0	290.702672958374	0.44180893898010254
75	222.64045000076294	response	0	2		73.0	2.5	/experiments/knapen_aot/videos/R_S_yt-FsylDeYfcxU_24.mp4	0.0	291.1362090110779	
75	222.64872288703918	movie	1		301.0	73.0	2.5	/experiments/knapen_aot/videos/R_S_yt-FsylDeYfcxU_24.mp4	0.0	291.1444818973541	2.508226156234741
75	225.15694904327393	fix_post	2		12.0	73.0	2.5	/experiments/knapen_aot/videos/R_S_yt-FsylDeYfcxU_24.mp4	0.0	293.65270805358887	0.10016489028930664
76	225.25711393356323	fix_pre	0		89.0	74.0	2.5	/experiments/knapen_aot/videos/S_yt-s2tZ2NIQrxg_175.mp4	0.0	293.7528729438782	0.7415370941162109
76	225.9904489517212	response	0	2		74.0	2.5	/experiments/knapen_aot/videos/S_yt-s2tZ2NIQrxg_175.mp4	0.0	294.48620796203613	
76	225.99865102767944	movie	1		301.0	74.0	2.5	/experiments/knapen_aot/videos/S_yt-s2tZ2NIQrxg_175.mp4	0.0	294.4944100379944	2.5082719326019287
76	228.50692296028137	fix_post	2		12.0	74.0	2.5	/experiments/knapen_aot/videos/S_yt-s2tZ2NIQrxg_175.mp4	0.0	297.0026819705963	0.1000819206237793
77	228.60700488090515	fix_pre	0		104.0	75.0	2.5	/experiments/knapen_aot/videos/S_yt-kA0ybjmoiMc_284.mp4	0.0	297.1027638912201	0.8671319484710693
77	229.4654049873352	response	0	2		75.0	2.5	/experiments/knapen_aot/videos/S_yt-kA0ybjmoiMc_284.mp4	0.0	297.96116399765015	
77	229.47413682937622	movie	1		301.0	75.0	2.5	/experiments/knapen_aot/videos/S_yt-kA0ybjmoiMc_284.mp4	0.0	297.96989583969116	2.507812023162842
77	231.98194885253906	fix_post	2		12.0	75.0	2.5	/experiments/knapen_aot/videos/S_yt-kA0ybjmoiMc_284.mp4	0.0	300.477707862854	0.10000109672546387
78	232.08194994926453	fix_pre	0		67.0	76.0	2.5	blank	1.0	300.57770895957947	0.5587480068206787
78	232.63205289840698	response	0	2		76.0	2.5	blank	1.0	301.1278119087219	
78	232.6406979560852	movie	1		301.0	76.0	2.5	blank	1.0	301.13645696640015	2.5078790187835693
78	235.14857697486877	fix_post	2		12.0	76.0	2.5	blank	1.0	303.6443359851837	0.10005688667297363
79	235.24863386154175	fix_pre	0		87.0	77.0	2.5	/experiments/knapen_aot/videos/S_yt-mdxs8FCKLFc_232.mp4	0.0	303.7443928718567	0.7253830432891846
79	235.96538090705872	response	0	2		77.0	2.5	/experiments/knapen_aot/videos/S_yt-mdxs8FCKLFc_232.mp4	0.0	304.46113991737366	
79	235.97401690483093	movie	1		301.0	77.0	2.5	/experiments/knapen_aot/videos/S_yt-mdxs8FCKLFc_232.mp4	0.0	304.4697759151459	2.507910966873169
79	238.4819278717041	fix_post	2		12.0	77.0	2.5	/experiments/knapen_aot/videos/S_yt-mdxs8FCKLFc_232.mp4	0.0	306.97768688201904	0.09997105598449707
80	238.5818989276886	fix_pre	0		57.0	78.0	2.5	/experiments/knapen_aot/videos/S_yt-5MyvZYFlc9g_125.mp4	0.0	307.07765793800354	0.47542595863342285
80	239.0487198829651	response	0	2		78.0	2.5	/experiments/knapen_aot/videos/S_yt-5MyvZYFlc9g_125.mp4	0.0	307.54447889328003	
80	239.05732488632202	movie	1		301.0	78.0	2.5	/experiments/knapen_aot/videos/S_yt-5MyvZYFlc9g_125.mp4	0.0	307.55308389663696	2.5078980922698975
80	241.56522297859192	fix_post	2		12.0	78.0	2.5	/experiments/knapen_aot/videos/S_yt-5MyvZYFlc9g_125.mp4	0.0	310.06098198890686	0.09998488426208496
81	241.665207862854	fix_pre	0		55.0	79.0	2.5	/experiments/knapen_aot/videos/R_S_comp_HK_H004_C001_PSNK_DENOISE_v14_SDR_PS_FINAL_20180731_SDR_2K_AVC.mp4	0.0	310.16096687316895	0.458341121673584
81	242.11535596847534	response	0	2		79.0	2.5	/experiments/knapen_aot/videos/R_S_comp_HK_H004_C001_PSNK_DENOISE_v14_SDR_PS_FINAL_20180731_SDR_2K_AVC.mp4	0.0	310.6111149787903	
81	242.1235489845276	movie	1		167.0	79.0	2.5	/experiments/knapen_aot/videos/R_S_comp_HK_H004_C001_PSNK_DENOISE_v14_SDR_PS_FINAL_20180731_SDR_2K_AVC.mp4	0.0	310.61930799484253	2.5082709789276123
81	244.6318199634552	fix_post	2		12.0	79.0	2.5	/experiments/knapen_aot/videos/R_S_comp_HK_H004_C001_PSNK_DENOISE_v14_SDR_PS_FINAL_20180731_SDR_2K_AVC.mp4	0.0	313.12757897377014	0.1000680923461914
82	244.7318880558014	fix_pre	0		66.0	80.0	2.5	/experiments/knapen_aot/videos/S_comp_CH_C007_C004_PSNK_v02_SDR_PS_FINAL_20180709_SDR_2K_AVC.mp4	0.0	313.22764706611633	0.5499389171600342
82	245.27362394332886	response	0	2		80.0	2.5	/experiments/knapen_aot/videos/S_comp_CH_C007_C004_PSNK_v02_SDR_PS_FINAL_20180709_SDR_2K_AVC.mp4	0.0	313.7693829536438	
82	245.28182697296143	movie	1		171.0	80.0	2.5	/experiments/knapen_aot/videos/S_comp_CH_C007_C004_PSNK_v02_SDR_PS_FINAL_20180709_SDR_2K_AVC.mp4	0.0	313.77758598327637	2.5083580017089844
82	247.7901849746704	fix_post	2		12.0	80.0	2.5	/experiments/knapen_aot/videos/S_comp_CH_C007_C004_PSNK_v02_SDR_PS_FINAL_20180709_SDR_2K_AVC.mp4	0.0	316.28594398498535	0.1000208854675293
83	247.89020586013794	fix_pre	0		50.0	81.0	2.5	/experiments/knapen_aot/videos/R_S_production_ID_4101309.mp4	0.0	316.3859648704529	0.4169590473175049
83	248.29869103431702	response	0	2		81.0	2.5	/experiments/knapen_aot/videos/R_S_production_ID_4101309.mp4	0.0	316.79445004463196	
83	248.30716490745544	movie	1		203.0	81.0	2.5	/experiments/knapen_aot/videos/R_S_production_ID_4101309.mp4	0.0	316.8029239177704	2.5082321166992188
83	250.81539702415466	fix_post	2		12.0	81.0	2.5	/experiments/knapen_aot/videos/R_S_production_ID_4101309.mp4	0.0	319.3111560344696	0.09976983070373535
84	250.9151668548584	fix_pre	0		41.0	82.0	2.5	blank	1.0	319.41092586517334	0.3416311740875244
84	251.24862790107727	response	0	2		82.0	2.5	blank	1.0	319.7443869113922	
84	251.25679802894592	movie	1		301.0	82.0	2.5	blank	1.0	319.75255703926086	2.508370876312256
84	253.76516890525818	fix_post	2		12.0	82.0	2.5	blank	1.0	322.2609279155731	0.10000014305114746
85	253.86516904830933	fix_pre	0		76.0	83.0	2.5	/experiments/knapen_aot/videos/R_S_yt-CRw9-cCQqbg_332.mp4	0.0	322.36092805862427	0.6332528591156006
85	254.49028301239014	response	0	2		83.0	2.5	/experiments/knapen_aot/videos/R_S_yt-CRw9-cCQqbg_332.mp4	0.0	322.9860420227051	
85	254.49842190742493	movie	1		301.0	83.0	2.5	/experiments/knapen_aot/videos/R_S_yt-CRw9-cCQqbg_332.mp4	0.0	322.99418091773987	2.5083320140838623
85	257.0067539215088	fix_post	2		12.0	83.0	2.5	/experiments/knapen_aot/videos/R_S_yt-CRw9-cCQqbg_332.mp4	0.0	325.50251293182373	0.10012006759643555
87	257.1068739891052	stim	0		197.0					325.60263299942017	1.6415879726409912
87	258.31070494651794	response	0	return						326.8064639568329	
87	258.7402069568634	response	0	space						327.23596596717834	
