trial_nr	onset	event_type	phase	response	nr_frames	movie_index	movie_duration	movie_file	blank	onset_abs	duration
0	0.1534738540649414	stim	0		29.0					54.9524610042572	0.24242115020751953
0	0.3869919776916504	response	0	space						55.18597912788391	
1	0.39589500427246094	stim	0		121.0					55.19488215446472	1.0073189735412598
1	1.4032139778137207	stim	1		120.0					56.20220112800598	1.0000028610229492
1	1.578333854675293	response	1	space						56.377321004867554	
1	2.0449068546295166	response	1	space						56.84389400482178	
2	2.40321683883667	fix_pre	0		12.0	0.0	2.5	/experiments/knapen_aot/videos/S_yt-PYP0fEQ357c_89.mp4	0.0	57.20220398902893	0.09995508193969727
2	2.4949889183044434	response	0	space		0.0	2.5	/experiments/knapen_aot/videos/S_yt-PYP0fEQ357c_89.mp4	0.0	57.293976068496704	
2	2.503171920776367	movie	1		301.0	0.0	2.5	/experiments/knapen_aot/videos/S_yt-PYP0fEQ357c_89.mp4	0.0	57.30215907096863	2.50833797454834
2	5.011509895324707	fix_post	2		12.0	0.0	2.5	/experiments/knapen_aot/videos/S_yt-PYP0fEQ357c_89.mp4	0.0	59.81049704551697	0.09995198249816895
3	5.111461877822876	fix_pre	0		133.0	1.0	2.5	/experiments/knapen_aot/videos/S_ILSVRC2015_train_00479003.mp4	0.0	59.91044902801514	1.1104021072387695
3	6.21560001373291	response	0	2		1.0	2.5	/experiments/knapen_aot/videos/S_ILSVRC2015_train_00479003.mp4	0.0	61.01458716392517	
3	6.2218639850616455	movie	1		296.0	1.0	2.5	/experiments/knapen_aot/videos/S_ILSVRC2015_train_00479003.mp4	0.0	61.020851135253906	2.506412982940674
3	8.72827696800232	fix_post	2		12.0	1.0	2.5	/experiments/knapen_aot/videos/S_ILSVRC2015_train_00479003.mp4	0.0	63.52726411819458	0.09983301162719727
4	8.828109979629517	fix_pre	0		77.0	2.0	2.5	/experiments/knapen_aot/videos/S_yt-kA0ybjmoiMc_284.mp4	0.0	63.62709712982178	0.641679048538208
4	9.46157193183899	response	0	2		2.0	2.5	/experiments/knapen_aot/videos/S_yt-kA0ybjmoiMc_284.mp4	0.0	64.26055908203125	
4	9.469789028167725	movie	1		301.0	2.0	2.5	/experiments/knapen_aot/videos/S_yt-kA0ybjmoiMc_284.mp4	0.0	64.26877617835999	2.50834584236145
4	11.978134870529175	fix_post	2		12.0	2.0	2.5	/experiments/knapen_aot/videos/S_yt-kA0ybjmoiMc_284.mp4	0.0	66.77712202072144	0.1000680923461914
5	12.078202962875366	fix_pre	0		55.0	3.0	2.5	/experiments/knapen_aot/videos/R_S_yt-tEzCpMrjOHs_24.mp4	0.0	66.87719011306763	0.458237886428833
5	12.528250932693481	response	0	2		3.0	2.5	/experiments/knapen_aot/videos/R_S_yt-tEzCpMrjOHs_24.mp4	0.0	67.32723808288574	
5	12.5364408493042	movie	1		301.0	3.0	2.5	/experiments/knapen_aot/videos/R_S_yt-tEzCpMrjOHs_24.mp4	0.0	67.33542799949646	2.508423089981079
5	15.044863939285278	fix_post	2		12.0	3.0	2.5	/experiments/knapen_aot/videos/R_S_yt-tEzCpMrjOHs_24.mp4	0.0	69.84385108947754	0.09995698928833008
6	15.144820928573608	fix_pre	0		126.0	4.0	2.5	/experiments/knapen_aot/videos/R_S_ILSVRC2015_train_00460000.mp4	0.0	69.94380807876587	1.0499300956726074
6	16.18653893470764	response	0	2		4.0	2.5	/experiments/knapen_aot/videos/R_S_ILSVRC2015_train_00460000.mp4	0.0	70.9855260848999	
6	16.194751024246216	movie	1		301.0	4.0	2.5	/experiments/knapen_aot/videos/R_S_ILSVRC2015_train_00460000.mp4	0.0	70.99373817443848	2.508392810821533
6	18.70314383506775	fix_post	2		12.0	4.0	2.5	/experiments/knapen_aot/videos/R_S_ILSVRC2015_train_00460000.mp4	0.0	73.50213098526001	0.09992718696594238
7	18.80307102203369	fix_pre	0		45.0	5.0	2.5	/experiments/knapen_aot/videos/R_S_yt-HwZFMTZ7Xko_35.mp4	0.0	73.60205817222595	0.3750638961791992
7	19.169911861419678	response	0	2		5.0	2.5	/experiments/knapen_aot/videos/R_S_yt-HwZFMTZ7Xko_35.mp4	0.0	73.96889901161194	
7	19.17813491821289	movie	1		301.0	5.0	2.5	/experiments/knapen_aot/videos/R_S_yt-HwZFMTZ7Xko_35.mp4	0.0	73.97712206840515	2.508255958557129
7	21.68639087677002	fix_post	2		12.0	5.0	2.5	/experiments/knapen_aot/videos/R_S_yt-HwZFMTZ7Xko_35.mp4	0.0	76.48537802696228	0.10009312629699707
8	21.786484003067017	fix_pre	0		15.0	6.0	2.5	blank	1.0	76.58547115325928	0.12490200996398926
8	21.90321683883667	response	0	2		6.0	2.5	blank	1.0	76.70220398902893	
8	21.911386013031006	movie	1		301.0	6.0	2.5	blank	1.0	76.71037316322327	2.5084149837493896
8	24.419800996780396	fix_post	2		12.0	6.0	2.5	blank	1.0	79.21878814697266	0.10000395774841309
9	24.51980495452881	fix_pre	0		64.0	7.0	2.5	/experiments/knapen_aot/videos/R_S_wc-q23aBNJMZbnZ_27.mp4	0.0	79.31879210472107	0.5332448482513428
9	25.044920921325684	response	0	2		7.0	2.5	/experiments/knapen_aot/videos/R_S_wc-q23aBNJMZbnZ_27.mp4	0.0	79.84390807151794	
9	25.05304980278015	movie	1		171.0	7.0	2.5	/experiments/knapen_aot/videos/R_S_wc-q23aBNJMZbnZ_27.mp4	0.0	79.85203695297241	2.508371114730835
9	27.561420917510986	fix_post	2		12.0	7.0	2.5	/experiments/knapen_aot/videos/R_S_wc-q23aBNJMZbnZ_27.mp4	0.0	82.36040806770325	0.09998488426208496
10	27.66140580177307	fix_pre	0		50.0	8.0	2.5	/experiments/knapen_aot/videos/S_ILSVRC2015_train_00066005.mp4	0.0	82.46039295196533	0.4166710376739502
10	28.06990694999695	response	0	2		8.0	2.5	/experiments/knapen_aot/videos/S_ILSVRC2015_train_00066005.mp4	0.0	82.86889410018921	
10	28.07807683944702	movie	1		301.0	8.0	2.5	/experiments/knapen_aot/videos/S_ILSVRC2015_train_00066005.mp4	0.0	82.87706398963928	2.508394956588745
10	30.586471796035767	fix_post	2		12.0	8.0	2.5	/experiments/knapen_aot/videos/S_ILSVRC2015_train_00066005.mp4	0.0	85.38545894622803	0.09995722770690918
11	30.686429023742676	fix_pre	0		12.0	9.0	2.5	/experiments/knapen_aot/videos/R_S_yt-utYnOeoj2Rw_3.mp4	0.0	85.48541617393494	0.09991598129272461
11	30.77818489074707	response	0	2		9.0	2.5	/experiments/knapen_aot/videos/R_S_yt-utYnOeoj2Rw_3.mp4	0.0	85.57717204093933	
11	30.7863450050354	movie	1		301.0	9.0	2.5	/experiments/knapen_aot/videos/R_S_yt-utYnOeoj2Rw_3.mp4	0.0	85.58533215522766	2.5084619522094727
11	33.29480695724487	fix_post	2		12.0	9.0	2.5	/experiments/knapen_aot/videos/R_S_yt-utYnOeoj2Rw_3.mp4	0.0	88.09379410743713	0.09995293617248535
12	33.39475989341736	fix_pre	0		42.0	10.0	2.5	/experiments/knapen_aot/videos/R_S_yt-bwSRV1Vr21s_435.mp4	0.0	88.19374704360962	0.3499469757080078
12	33.73653602600098	response	0	2		10.0	2.5	/experiments/knapen_aot/videos/R_S_yt-bwSRV1Vr21s_435.mp4	0.0	88.53552317619324	
12	33.744706869125366	movie	1		301.0	10.0	2.5	/experiments/knapen_aot/videos/R_S_yt-bwSRV1Vr21s_435.mp4	0.0	88.54369401931763	2.5083670616149902
12	36.253073930740356	fix_post	2		12.0	10.0	2.5	/experiments/knapen_aot/videos/R_S_yt-bwSRV1Vr21s_435.mp4	0.0	91.05206108093262	0.09998703002929688
13	36.35306096076965	fix_pre	0		44.0	11.0	2.5	/experiments/knapen_aot/videos/R_S_production_ID_5144824.mp4	0.0	91.15204811096191	0.3666260242462158
13	36.7115159034729	response	0	2		11.0	2.5	/experiments/knapen_aot/videos/R_S_production_ID_5144824.mp4	0.0	91.51050305366516	
13	36.71968698501587	movie	1		162.0	11.0	2.5	/experiments/knapen_aot/videos/R_S_production_ID_5144824.mp4	0.0	91.51867413520813	2.5083508491516113
13	39.22803783416748	fix_post	2		12.0	11.0	2.5	/experiments/knapen_aot/videos/R_S_production_ID_5144824.mp4	0.0	94.02702498435974	0.10003304481506348
14	39.328070878982544	fix_pre	0		63.0	12.0	2.5	blank	1.0	94.1270580291748	0.5254371166229248
14	39.84483098983765	response	0	2		12.0	2.5	blank	1.0	94.64381814002991	
14	39.85350799560547	movie	1		301.0	12.0	2.5	blank	1.0	94.65249514579773	2.507861852645874
14	42.36136984825134	fix_post	2		12.0	12.0	2.5	blank	1.0	97.1603569984436	0.10007309913635254
15	42.461442947387695	fix_pre	0		64.0	13.0	2.5	/experiments/knapen_aot/videos/S_yt-utYnOeoj2Rw_3.mp4	0.0	97.26043009757996	0.5331759452819824
15	42.98644495010376	response	0	2		13.0	2.5	/experiments/knapen_aot/videos/S_yt-utYnOeoj2Rw_3.mp4	0.0	97.78543210029602	
15	42.99461889266968	movie	1		301.0	13.0	2.5	/experiments/knapen_aot/videos/S_yt-utYnOeoj2Rw_3.mp4	0.0	97.79360604286194	2.508316993713379
15	45.50293588638306	fix_post	2		12.0	13.0	2.5	/experiments/knapen_aot/videos/S_yt-utYnOeoj2Rw_3.mp4	0.0	100.30192303657532	0.10013508796691895
16	45.603070974349976	fix_pre	0		37.0	14.0	2.5	/experiments/knapen_aot/videos/S_ILSVRC2015_train_00682000.mp4	0.0	100.40205812454224	0.3082590103149414
16	45.903177976608276	response	0	2		14.0	2.5	/experiments/knapen_aot/videos/S_ILSVRC2015_train_00682000.mp4	0.0	100.70216512680054	
16	45.91132998466492	movie	1		301.0	14.0	2.5	/experiments/knapen_aot/videos/S_ILSVRC2015_train_00682000.mp4	0.0	100.71031713485718	2.50833797454834
16	48.41966795921326	fix_post	2		12.0	14.0	2.5	/experiments/knapen_aot/videos/S_ILSVRC2015_train_00682000.mp4	0.0	103.21865510940552	0.10001707077026367
17	48.51968502998352	fix_pre	0		65.0	15.0	2.5	/experiments/knapen_aot/videos/R_S_flickr-clarkstonscamp-4863427159_1.mp4	0.0	103.31867218017578	0.5420308113098145
17	49.053098917007446	response	0	2		15.0	2.5	/experiments/knapen_aot/videos/R_S_flickr-clarkstonscamp-4863427159_1.mp4	0.0	103.8520860671997	
17	49.061715841293335	movie	1		301.0	15.0	2.5	/experiments/knapen_aot/videos/R_S_flickr-clarkstonscamp-4863427159_1.mp4	0.0	103.8607029914856	2.507963180541992
17	51.56967902183533	fix_post	2		12.0	15.0	2.5	/experiments/knapen_aot/videos/R_S_flickr-clarkstonscamp-4863427159_1.mp4	0.0	106.36866617202759	0.09998178482055664
18	51.669660806655884	fix_pre	0		20.0	16.0	2.5	/experiments/knapen_aot/videos/R_S_comp_A105_C003_0212CT_FLARE_v10_SDR_PS_FINAL_20180711_SDR_2K_AVC.mp4	0.0	106.46864795684814	0.1666581630706787
18	51.82814693450928	response	0	2		16.0	2.5	/experiments/knapen_aot/videos/R_S_comp_A105_C003_0212CT_FLARE_v10_SDR_PS_FINAL_20180711_SDR_2K_AVC.mp4	0.0	106.62713408470154	
18	51.83631896972656	movie	1		163.0	16.0	2.5	/experiments/knapen_aot/videos/R_S_comp_A105_C003_0212CT_FLARE_v10_SDR_PS_FINAL_20180711_SDR_2K_AVC.mp4	0.0	106.63530611991882	2.5084240436553955
18	54.34474301338196	fix_post	2		12.0	16.0	2.5	/experiments/knapen_aot/videos/R_S_comp_A105_C003_0212CT_FLARE_v10_SDR_PS_FINAL_20180711_SDR_2K_AVC.mp4	0.0	109.14373016357422	0.09993386268615723
19	54.444676876068115	fix_pre	0		65.0	17.0	2.5	/experiments/knapen_aot/videos/S_Pexels_Videos_2376809.mp4	0.0	109.24366402626038	0.5416159629821777
19	54.97808599472046	response	0	2		17.0	2.5	/experiments/knapen_aot/videos/S_Pexels_Videos_2376809.mp4	0.0	109.77707314491272	
19	54.98629283905029	movie	1		163.0	17.0	2.5	/experiments/knapen_aot/videos/S_Pexels_Videos_2376809.mp4	0.0	109.78527998924255	2.5083529949188232
19	57.494645833969116	fix_post	2		12.0	17.0	2.5	/experiments/knapen_aot/videos/S_Pexels_Videos_2376809.mp4	0.0	112.29363298416138	0.1000370979309082
20	57.594682931900024	fix_pre	0		42.0	18.0	2.5	/experiments/knapen_aot/videos/R_S_production_ID_4707837.mp4	0.0	112.39367008209229	0.350053071975708
20	57.93640685081482	response	0	2		18.0	2.5	/experiments/knapen_aot/videos/R_S_production_ID_4707837.mp4	0.0	112.73539400100708	
20	57.94473600387573	movie	1		164.0	18.0	2.5	/experiments/knapen_aot/videos/R_S_production_ID_4707837.mp4	0.0	112.743723154068	2.5082268714904785
20	60.45296287536621	fix_post	2		12.0	18.0	2.5	/experiments/knapen_aot/videos/R_S_production_ID_4707837.mp4	0.0	115.25195002555847	0.09991693496704102
21	60.55287981033325	fix_pre	0		15.0	19.0	2.5	blank	1.0	115.35186696052551	0.1250321865081787
21	60.66972589492798	response	0	2		19.0	2.5	blank	1.0	115.46871304512024	
21	60.67791199684143	movie	1		301.0	19.0	2.5	blank	1.0	115.47689914703369	2.508349895477295
21	63.186261892318726	fix_post	2		12.0	19.0	2.5	blank	1.0	117.98524904251099	0.09999990463256836
22	63.286261796951294	fix_pre	0		30.0	20.0	2.5	/experiments/knapen_aot/videos/R_S_production_ID_4707837.mp4	0.0	118.08524894714355	0.2499561309814453
22	63.52803182601929	response	0	2		20.0	2.5	/experiments/knapen_aot/videos/R_S_production_ID_4707837.mp4	0.0	118.32701897621155	
22	63.53621792793274	movie	1		164.0	20.0	2.5	/experiments/knapen_aot/videos/R_S_production_ID_4707837.mp4	0.0	118.335205078125	2.5083770751953125
22	66.04459500312805	fix_post	2		12.0	20.0	2.5	/experiments/knapen_aot/videos/R_S_production_ID_4707837.mp4	0.0	120.84358215332031	0.10031580924987793
23	66.14491081237793	fix_pre	0		60.0	21.0	2.5	/experiments/knapen_aot/videos/S_ILSVRC2015_train_00569003.mp4	0.0	120.94389796257019	0.499953031539917
23	66.63628196716309	response	0	2		21.0	2.5	/experiments/knapen_aot/videos/S_ILSVRC2015_train_00569003.mp4	0.0	121.43526911735535	
23	66.64486384391785	movie	1		301.0	21.0	2.5	/experiments/knapen_aot/videos/S_ILSVRC2015_train_00569003.mp4	0.0	121.44385099411011	2.508094072341919
23	69.15295791625977	fix_post	2		12.0	21.0	2.5	/experiments/knapen_aot/videos/S_ILSVRC2015_train_00569003.mp4	0.0	123.95194506645203	0.09994792938232422
24	69.25290584564209	fix_pre	0		77.0	22.0	2.5	/experiments/knapen_aot/videos/S_pexels-anthony-shkraba-production-8135459.mp4	0.0	124.05189299583435	0.6418759822845459
24	69.88637280464172	response	0	2		22.0	2.5	/experiments/knapen_aot/videos/S_pexels-anthony-shkraba-production-8135459.mp4	0.0	124.68535995483398	
24	69.89478182792664	movie	1		163.0	22.0	2.5	/experiments/knapen_aot/videos/S_pexels-anthony-shkraba-production-8135459.mp4	0.0	124.6937689781189	2.5081491470336914
24	72.40293097496033	fix_post	2		12.0	22.0	2.5	/experiments/knapen_aot/videos/S_pexels-anthony-shkraba-production-8135459.mp4	0.0	127.20191812515259	0.1000969409942627
25	72.50302791595459	fix_pre	0		60.0	23.0	2.5	/experiments/knapen_aot/videos/R_S_yt-uXDyvrm0Tw0_17.mp4	0.0	127.30201506614685	0.499845027923584
25	72.99475693702698	response	0	2		23.0	2.5	/experiments/knapen_aot/videos/R_S_yt-uXDyvrm0Tw0_17.mp4	0.0	127.79374408721924	
25	73.00287294387817	movie	1		301.0	23.0	2.5	/experiments/knapen_aot/videos/R_S_yt-uXDyvrm0Tw0_17.mp4	0.0	127.80186009407043	2.5084140300750732
25	75.51128697395325	fix_post	2		12.0	23.0	2.5	/experiments/knapen_aot/videos/R_S_yt-uXDyvrm0Tw0_17.mp4	0.0	130.3102741241455	0.09997296333312988
26	75.61125993728638	fix_pre	0		36.0	24.0	2.5	/experiments/knapen_aot/videos/S_yt-kKRGgUhVRzc_74.mp4	0.0	130.41024708747864	0.29996204376220703
26	75.90296483039856	response	0	2		24.0	2.5	/experiments/knapen_aot/videos/S_yt-kKRGgUhVRzc_74.mp4	0.0	130.70195198059082	
26	75.91122198104858	movie	1		301.0	24.0	2.5	/experiments/knapen_aot/videos/S_yt-kKRGgUhVRzc_74.mp4	0.0	130.71020913124084	2.5083038806915283
26	78.41952586174011	fix_post	2		12.0	24.0	2.5	/experiments/knapen_aot/videos/S_yt-kKRGgUhVRzc_74.mp4	0.0	133.21851301193237	0.10052895545959473
27	78.5200548171997	fix_pre	0		251.0	25.0	2.5	/experiments/knapen_aot/videos/R_S_yt-w_C-15eJeCQ_191.mp4	0.0	133.31904196739197	2.091149091720581
27	80.60296392440796	response	0	2		25.0	2.5	/experiments/knapen_aot/videos/R_S_yt-w_C-15eJeCQ_191.mp4	0.0	135.40195107460022	
27	80.61120390892029	movie	1		301.0	25.0	2.5	/experiments/knapen_aot/videos/R_S_yt-w_C-15eJeCQ_191.mp4	0.0	135.41019105911255	2.508323907852173
27	83.11952781677246	fix_post	2		12.0	25.0	2.5	/experiments/knapen_aot/videos/R_S_yt-w_C-15eJeCQ_191.mp4	0.0	137.91851496696472	0.10000419616699219
28	83.21953201293945	fix_pre	0		168.0	26.0	2.5	blank	1.0	138.0185191631317	1.3999059200286865
28	84.61122989654541	response	0	2		26.0	2.5	blank	1.0	139.41021704673767	
28	84.61943793296814	movie	1		301.0	26.0	2.5	blank	1.0	139.4184250831604	2.5084729194641113
28	87.12791085243225	fix_post	2		12.0	26.0	2.5	blank	1.0	141.9268980026245	0.10023808479309082
29	87.22814893722534	fix_pre	0		214.0	27.0	2.5	/experiments/knapen_aot/videos/R_S_yt-Xq6uX1jfFRk_21.mp4	0.0	142.0271360874176	1.782938003540039
29	89.00299096107483	response	0	2		27.0	2.5	/experiments/knapen_aot/videos/R_S_yt-Xq6uX1jfFRk_21.mp4	0.0	143.8019781112671	
29	89.01108694076538	movie	1		301.0	27.0	2.5	/experiments/knapen_aot/videos/R_S_yt-Xq6uX1jfFRk_21.mp4	0.0	143.81007409095764	2.508660078048706
29	91.51974701881409	fix_post	2		12.0	27.0	2.5	/experiments/knapen_aot/videos/R_S_yt-Xq6uX1jfFRk_21.mp4	0.0	146.31873416900635	0.09973788261413574
30	91.61948490142822	fix_pre	0		76.0	28.0	2.5	/experiments/knapen_aot/videos/R_S_comp_GMT110_112NC_364D_1054_AURORA_ANTARTICA__COMP_FINAL_v34_PS_SDR_20181107_SDR_2K_AVC.mp4	0.0	146.41847205162048	0.6332669258117676
30	92.2446060180664	response	0	2		28.0	2.5	/experiments/knapen_aot/videos/R_S_comp_GMT110_112NC_364D_1054_AURORA_ANTARTICA__COMP_FINAL_v34_PS_SDR_20181107_SDR_2K_AVC.mp4	0.0	147.04359316825867	
30	92.25275182723999	movie	1		160.0	28.0	2.5	/experiments/knapen_aot/videos/R_S_comp_GMT110_112NC_364D_1054_AURORA_ANTARTICA__COMP_FINAL_v34_PS_SDR_20181107_SDR_2K_AVC.mp4	0.0	147.05173897743225	2.5087451934814453
30	94.76149702072144	fix_post	2		12.0	28.0	2.5	/experiments/knapen_aot/videos/R_S_comp_GMT110_112NC_364D_1054_AURORA_ANTARTICA__COMP_FINAL_v34_PS_SDR_20181107_SDR_2K_AVC.mp4	0.0	149.5604841709137	0.09966182708740234
31	94.86115884780884	fix_pre	0		35.0	29.0	2.5	/experiments/knapen_aot/videos/S_yt-W00vtWnXgIk_73.mp4	0.0	149.6601459980011	0.2916259765625
31	95.14454698562622	response	0	2		29.0	2.5	/experiments/knapen_aot/videos/S_yt-W00vtWnXgIk_73.mp4	0.0	149.94353413581848	
31	95.15278482437134	movie	1		301.0	29.0	2.5	/experiments/knapen_aot/videos/S_yt-W00vtWnXgIk_73.mp4	0.0	149.9517719745636	2.5083541870117188
31	97.66113901138306	fix_post	2		12.0	29.0	2.5	/experiments/knapen_aot/videos/S_yt-W00vtWnXgIk_73.mp4	0.0	152.46012616157532	0.09999680519104004
32	97.7611358165741	fix_pre	0		21.0	30.0	2.5	/experiments/knapen_aot/videos/R_S_yt-nn-8LZcafGs_35.mp4	0.0	152.56012296676636	0.17509198188781738
32	97.92786383628845	response	0	2		30.0	2.5	/experiments/knapen_aot/videos/R_S_yt-nn-8LZcafGs_35.mp4	0.0	152.7268509864807	
32	97.93622779846191	movie	1		301.0	30.0	2.5	/experiments/knapen_aot/videos/R_S_yt-nn-8LZcafGs_35.mp4	0.0	152.73521494865417	2.508291006088257
32	100.44451880455017	fix_post	2		12.0	30.0	2.5	/experiments/knapen_aot/videos/R_S_yt-nn-8LZcafGs_35.mp4	0.0	155.24350595474243	0.0998990535736084
33	100.54441785812378	fix_pre	0		62.0	31.0	2.5	/experiments/knapen_aot/videos/R_S_yt-SHTeTAnZgho_43.mp4	0.0	155.34340500831604	0.5168509483337402
33	101.05291080474854	response	0	2		31.0	2.5	/experiments/knapen_aot/videos/R_S_yt-SHTeTAnZgho_43.mp4	0.0	155.8518979549408	
33	101.06126880645752	movie	1		301.0	31.0	2.5	/experiments/knapen_aot/videos/R_S_yt-SHTeTAnZgho_43.mp4	0.0	155.86025595664978	2.508226156234741
33	103.56949496269226	fix_post	2		12.0	31.0	2.5	/experiments/knapen_aot/videos/R_S_yt-SHTeTAnZgho_43.mp4	0.0	158.36848211288452	0.0999138355255127
34	103.66940879821777	fix_pre	0		39.0	32.0	2.5	/experiments/knapen_aot/videos/S_comp_GMT308_139K_142NC_CARIBBEAN_DAY_v09_SDR_FINAL_22062018_SDR_2K_AVC.mp4	0.0	158.46839594841003	0.32493019104003906
34	103.98618483543396	response	0	2		32.0	2.5	/experiments/knapen_aot/videos/S_comp_GMT308_139K_142NC_CARIBBEAN_DAY_v09_SDR_FINAL_22062018_SDR_2K_AVC.mp4	0.0	158.78517198562622	
34	103.99433898925781	movie	1		169.0	32.0	2.5	/experiments/knapen_aot/videos/S_comp_GMT308_139K_142NC_CARIBBEAN_DAY_v09_SDR_FINAL_22062018_SDR_2K_AVC.mp4	0.0	158.79332613945007	2.5083889961242676
34	106.50272798538208	fix_post	2		12.0	32.0	2.5	/experiments/knapen_aot/videos/S_comp_GMT308_139K_142NC_CARIBBEAN_DAY_v09_SDR_FINAL_22062018_SDR_2K_AVC.mp4	0.0	161.30171513557434	0.10015988349914551
35	106.60288786888123	fix_pre	0		33.0	33.0	2.5	/experiments/knapen_aot/videos/S_ILSVRC2015_train_00756000.mp4	0.0	161.4018750190735	0.27483296394348145
35	106.86953687667847	response	0	2		33.0	2.5	/experiments/knapen_aot/videos/S_ILSVRC2015_train_00756000.mp4	0.0	161.66852402687073	
35	106.8777208328247	movie	1		301.0	33.0	2.5	/experiments/knapen_aot/videos/S_ILSVRC2015_train_00756000.mp4	0.0	161.67670798301697	2.508258104324341
35	109.38597893714905	fix_post	2		12.0	33.0	2.5	/experiments/knapen_aot/videos/S_ILSVRC2015_train_00756000.mp4	0.0	164.1849660873413	0.10012602806091309
36	109.48610496520996	fix_pre	0		293.0	34.0	2.5	/experiments/knapen_aot/videos/S_yt-JpOBXV46TLE_124.mp4	0.0	164.28509211540222	2.441628932952881
36	111.91951084136963	response	0	2		34.0	2.5	/experiments/knapen_aot/videos/S_yt-JpOBXV46TLE_124.mp4	0.0	166.7184979915619	
36	111.92773389816284	movie	1		301.0	34.0	2.5	/experiments/knapen_aot/videos/S_yt-JpOBXV46TLE_124.mp4	0.0	166.7267210483551	2.5084190368652344
36	114.43615293502808	fix_post	2		12.0	34.0	2.5	/experiments/knapen_aot/videos/S_yt-JpOBXV46TLE_124.mp4	0.0	169.23514008522034	0.09983205795288086
37	114.53598499298096	fix_pre	0		43.0	35.0	2.5	blank	1.0	169.33497214317322	0.3584558963775635
37	114.8860969543457	response	0	2		35.0	2.5	blank	1.0	169.68508410453796	
37	114.89444088935852	movie	1		301.0	35.0	2.5	blank	1.0	169.69342803955078	2.5082499980926514
37	117.40269088745117	fix_post	2		12.0	35.0	2.5	blank	1.0	172.20167803764343	0.10001802444458008
38	117.50270891189575	fix_pre	0		82.0	36.0	2.5	/experiments/knapen_aot/videos/S_yt-1CV2cYtUlxE_57.mp4	0.0	172.301696062088	0.6833100318908691
38	118.17780089378357	response	0	2		36.0	2.5	/experiments/knapen_aot/videos/S_yt-1CV2cYtUlxE_57.mp4	0.0	172.97678804397583	
38	118.18601894378662	movie	1		301.0	36.0	2.5	/experiments/knapen_aot/videos/S_yt-1CV2cYtUlxE_57.mp4	0.0	172.98500609397888	2.508368968963623
38	120.69438791275024	fix_post	2		12.0	36.0	2.5	/experiments/knapen_aot/videos/S_yt-1CV2cYtUlxE_57.mp4	0.0	175.4933750629425	0.09991598129272461
39	120.79430389404297	fix_pre	0		59.0	37.0	2.5	/experiments/knapen_aot/videos/S_production_ID_4154238.mp4	0.0	175.59329104423523	0.49167394638061523
39	121.27785086631775	response	0	2		37.0	2.5	/experiments/knapen_aot/videos/S_production_ID_4154238.mp4	0.0	176.07683801651	
39	121.28597784042358	movie	1		196.0	37.0	2.5	/experiments/knapen_aot/videos/S_production_ID_4154238.mp4	0.0	176.08496499061584	2.508404016494751
39	123.79438185691833	fix_post	2		12.0	37.0	2.5	/experiments/knapen_aot/videos/S_production_ID_4154238.mp4	0.0	178.5933690071106	0.10007596015930176
40	123.89445781707764	fix_pre	0		58.0	38.0	2.5	/experiments/knapen_aot/videos/S_production_ID_4584682.mp4	0.0	178.6934449672699	0.48311805725097656
40	124.36944580078125	response	0	2		38.0	2.5	/experiments/knapen_aot/videos/S_production_ID_4584682.mp4	0.0	179.1684329509735	
40	124.37757587432861	movie	1		165.0	38.0	2.5	/experiments/knapen_aot/videos/S_production_ID_4584682.mp4	0.0	179.17656302452087	2.5084800720214844
40	126.8860559463501	fix_post	2		12.0	38.0	2.5	/experiments/knapen_aot/videos/S_production_ID_4584682.mp4	0.0	181.68504309654236	0.09994101524353027
41	126.98599696159363	fix_pre	0		59.0	39.0	2.5	/experiments/knapen_aot/videos/S_yt-x7NWmdlvVIQ_183.mp4	0.0	181.7849841117859	0.49163103103637695
41	127.46944284439087	response	0	2		39.0	2.5	/experiments/knapen_aot/videos/S_yt-x7NWmdlvVIQ_183.mp4	0.0	182.26842999458313	
41	127.47762799263	movie	1		301.0	39.0	2.5	/experiments/knapen_aot/videos/S_yt-x7NWmdlvVIQ_183.mp4	0.0	182.27661514282227	2.5083789825439453
41	129.98600697517395	fix_post	2		12.0	39.0	2.5	/experiments/knapen_aot/videos/S_yt-x7NWmdlvVIQ_183.mp4	0.0	184.7849941253662	0.10018682479858398
42	130.08619379997253	fix_pre	0		36.0	40.0	2.5	/experiments/knapen_aot/videos/R_S_yt-RVoC19C420Y_27.mp4	0.0	184.8851809501648	0.29971909523010254
42	130.37778091430664	response	0	2		40.0	2.5	/experiments/knapen_aot/videos/R_S_yt-RVoC19C420Y_27.mp4	0.0	185.1767680644989	
42	130.38591289520264	movie	1		301.0	40.0	2.5	/experiments/knapen_aot/videos/R_S_yt-RVoC19C420Y_27.mp4	0.0	185.1849000453949	2.5083460807800293
42	132.89425897598267	fix_post	2		12.0	40.0	2.5	/experiments/knapen_aot/videos/R_S_yt-RVoC19C420Y_27.mp4	0.0	187.69324612617493	0.10005998611450195
43	132.99431896209717	fix_pre	0		65.0	41.0	2.5	/experiments/knapen_aot/videos/S_yt-OFbbvxTLrtM_132.mp4	0.0	187.79330611228943	0.5415539741516113
43	133.5277819633484	response	0	2		41.0	2.5	/experiments/knapen_aot/videos/S_yt-OFbbvxTLrtM_132.mp4	0.0	188.32676911354065	
43	133.53587293624878	movie	1		301.0	41.0	2.5	/experiments/knapen_aot/videos/S_yt-OFbbvxTLrtM_132.mp4	0.0	188.33486008644104	2.508357048034668
43	136.04422998428345	fix_post	2		12.0	41.0	2.5	/experiments/knapen_aot/videos/S_yt-OFbbvxTLrtM_132.mp4	0.0	190.8432171344757	0.10004901885986328
44	136.1442790031433	fix_pre	0		71.0	42.0	2.5	blank	1.0	190.94326615333557	0.5917079448699951
44	136.72772002220154	response	0	2		42.0	2.5	blank	1.0	191.5267071723938	
44	136.7359869480133	movie	1		301.0	42.0	2.5	blank	1.0	191.53497409820557	2.508314847946167
44	139.24430179595947	fix_post	2		12.0	42.0	2.5	blank	1.0	194.04328894615173	0.09991621971130371
45	139.34421801567078	fix_pre	0		25.0	43.0	2.5	/experiments/knapen_aot/videos/S_production_ID_4835060.mp4	0.0	194.14320516586304	0.20840883255004883
45	139.54429602622986	response	0	2		43.0	2.5	/experiments/knapen_aot/videos/S_production_ID_4835060.mp4	0.0	194.34328317642212	
45	139.55262684822083	movie	1		174.0	43.0	2.5	/experiments/knapen_aot/videos/S_production_ID_4835060.mp4	0.0	194.3516139984131	2.50829815864563
45	142.06092500686646	fix_post	2		12.0	43.0	2.5	/experiments/knapen_aot/videos/S_production_ID_4835060.mp4	0.0	196.85991215705872	0.10001993179321289
46	142.16094493865967	fix_pre	0		34.0	44.0	2.5	/experiments/knapen_aot/videos/R_S_yt-FLMdajcbjcg_35.mp4	0.0	196.95993208885193	0.28330302238464355
46	142.43616485595703	response	0	2		44.0	2.5	/experiments/knapen_aot/videos/R_S_yt-FLMdajcbjcg_35.mp4	0.0	197.2351520061493	
46	142.4442479610443	movie	1		301.0	44.0	2.5	/experiments/knapen_aot/videos/R_S_yt-FLMdajcbjcg_35.mp4	0.0	197.24323511123657	2.508349895477295
46	144.9525978565216	fix_post	2		12.0	44.0	2.5	/experiments/knapen_aot/videos/R_S_yt-FLMdajcbjcg_35.mp4	0.0	199.75158500671387	0.100006103515625
47	145.05260396003723	fix_pre	0		42.0	45.0	2.5	/experiments/knapen_aot/videos/R_S_yt-Xq6uX1jfFRk_21.mp4	0.0	199.8515911102295	0.3499150276184082
47	145.39433598518372	response	0	2		45.0	2.5	/experiments/knapen_aot/videos/R_S_yt-Xq6uX1jfFRk_21.mp4	0.0	200.19332313537598	
47	145.40251898765564	movie	1		301.0	45.0	2.5	/experiments/knapen_aot/videos/R_S_yt-Xq6uX1jfFRk_21.mp4	0.0	200.2015061378479	2.508352041244507
47	147.91087102890015	fix_post	2		12.0	45.0	2.5	/experiments/knapen_aot/videos/R_S_yt-Xq6uX1jfFRk_21.mp4	0.0	202.7098581790924	0.10002279281616211
48	148.0108938217163	fix_pre	0		40.0	46.0	2.5	/experiments/knapen_aot/videos/R_S_yt-GBt59U0KUR0_6.mp4	0.0	202.80988097190857	0.3332960605621338
48	148.32846689224243	response	0	2		46.0	2.5	/experiments/knapen_aot/videos/R_S_yt-GBt59U0KUR0_6.mp4	0.0	203.1274540424347	
48	148.34418988227844	movie	1		301.0	46.0	2.5	/experiments/knapen_aot/videos/R_S_yt-GBt59U0KUR0_6.mp4	0.0	203.1431770324707	2.5083529949188232
48	150.85254287719727	fix_post	2		12.0	46.0	2.5	/experiments/knapen_aot/videos/R_S_yt-GBt59U0KUR0_6.mp4	0.0	205.65153002738953	0.10001611709594727
49	150.9525589942932	fix_pre	0		30.0	47.0	2.5	blank	1.0	205.75154614448547	0.24994802474975586
49	151.1943519115448	response	0	2		47.0	2.5	blank	1.0	205.99333906173706	
49	151.20250701904297	movie	1		301.0	47.0	2.5	blank	1.0	206.00149416923523	2.5083718299865723
49	153.71087884902954	fix_post	2		12.0	47.0	2.5	blank	1.0	208.5098659992218	0.10004711151123047
50	153.81092596054077	fix_pre	0		555.0	48.0	2.5	/experiments/knapen_aot/videos/R_S_yt-1ruRqcfBMw0_21.mp4	0.0	208.60991311073303	4.624835968017578
50	158.4276008605957	response	0	2		48.0	2.5	/experiments/knapen_aot/videos/R_S_yt-1ruRqcfBMw0_21.mp4	0.0	213.22658801078796	
50	158.43576192855835	movie	1		301.0	48.0	2.5	/experiments/knapen_aot/videos/R_S_yt-1ruRqcfBMw0_21.mp4	0.0	213.2347490787506	2.50839900970459
50	160.94416093826294	fix_post	2		12.0	48.0	2.5	/experiments/knapen_aot/videos/R_S_yt-1ruRqcfBMw0_21.mp4	0.0	215.7431480884552	0.0999460220336914
51	161.04410696029663	fix_pre	0		33.0	49.0	2.5	/experiments/knapen_aot/videos/S_comp_A001_C001_120530_v04_SDR_FINAL_20180706_SDR_2K_AVC.mp4	0.0	215.8430941104889	0.2750279903411865
51	161.31095600128174	response	0	2		49.0	2.5	/experiments/knapen_aot/videos/S_comp_A001_C001_120530_v04_SDR_FINAL_20180706_SDR_2K_AVC.mp4	0.0	216.109943151474	
51	161.31913495063782	movie	1		169.0	49.0	2.5	/experiments/knapen_aot/videos/S_comp_A001_C001_120530_v04_SDR_FINAL_20180706_SDR_2K_AVC.mp4	0.0	216.11812210083008	2.508347988128662
51	163.82748293876648	fix_post	2		12.0	49.0	2.5	/experiments/knapen_aot/videos/S_comp_A001_C001_120530_v04_SDR_FINAL_20180706_SDR_2K_AVC.mp4	0.0	218.62647008895874	0.10004496574401855
52	163.9275279045105	fix_pre	0		48.0	50.0	2.5	/experiments/knapen_aot/videos/S_production_ID_4540332.mp4	0.0	218.72651505470276	0.3999481201171875
52	164.3193027973175	response	0	2		50.0	2.5	/experiments/knapen_aot/videos/S_production_ID_4540332.mp4	0.0	219.11828994750977	
52	164.32747602462769	movie	1		167.0	50.0	2.5	/experiments/knapen_aot/videos/S_production_ID_4540332.mp4	0.0	219.12646317481995	2.5084269046783447
52	166.83590292930603	fix_post	2		12.0	50.0	2.5	/experiments/knapen_aot/videos/S_production_ID_4540332.mp4	0.0	221.6348900794983	0.0999140739440918
53	166.93581700325012	fix_pre	0		43.0	51.0	2.5	/experiments/knapen_aot/videos/R_S_ILSVRC2015_train_00515000.mp4	0.0	221.73480415344238	0.35834383964538574
53	167.2859649658203	response	0	2		51.0	2.5	/experiments/knapen_aot/videos/R_S_ILSVRC2015_train_00515000.mp4	0.0	222.08495211601257	
53	167.2941608428955	movie	1		301.0	51.0	2.5	/experiments/knapen_aot/videos/R_S_ILSVRC2015_train_00515000.mp4	0.0	222.09314799308777	2.5082809925079346
53	169.80244183540344	fix_post	2		12.0	51.0	2.5	/experiments/knapen_aot/videos/R_S_ILSVRC2015_train_00515000.mp4	0.0	224.6014289855957	0.10024213790893555
54	169.90268397331238	fix_pre	0		48.0	52.0	2.5	/experiments/knapen_aot/videos/R_S_yt-kQpE9L-fsNE_55.mp4	0.0	224.70167112350464	0.4009709358215332
54	170.29428696632385	response	0	2		52.0	2.5	/experiments/knapen_aot/videos/R_S_yt-kQpE9L-fsNE_55.mp4	0.0	225.0932741165161	
54	170.3036549091339	movie	1		301.0	52.0	2.5	/experiments/knapen_aot/videos/R_S_yt-kQpE9L-fsNE_55.mp4	0.0	225.10264205932617	2.5071449279785156
54	172.81079983711243	fix_post	2		12.0	52.0	2.5	/experiments/knapen_aot/videos/R_S_yt-kQpE9L-fsNE_55.mp4	0.0	227.6097869873047	0.10000014305114746
55	172.91079998016357	fix_pre	0		44.0	53.0	2.5	/experiments/knapen_aot/videos/S_ILSVRC2015_train_00569006.mp4	0.0	227.70978713035583	0.3665938377380371
55	173.26924800872803	response	0	2		53.0	2.5	/experiments/knapen_aot/videos/S_ILSVRC2015_train_00569006.mp4	0.0	228.0682351589203	
55	173.2773938179016	movie	1		301.0	53.0	2.5	/experiments/knapen_aot/videos/S_ILSVRC2015_train_00569006.mp4	0.0	228.07638096809387	2.508441209793091
55	175.7858350276947	fix_post	2		12.0	53.0	2.5	/experiments/knapen_aot/videos/S_ILSVRC2015_train_00569006.mp4	0.0	230.58482217788696	0.09995388984680176
56	175.8857889175415	fix_pre	0		41.0	54.0	2.5	blank	1.0	230.68477606773376	0.3416299819946289
56	176.21917080879211	response	0	2		54.0	2.5	blank	1.0	231.01815795898438	
56	176.22741889953613	movie	1		301.0	54.0	2.5	blank	1.0	231.0264060497284	2.508362054824829
56	178.73578095436096	fix_post	2		12.0	54.0	2.5	blank	1.0	233.53476810455322	0.09998202323913574
57	178.8357629776001	fix_pre	0		61.0	55.0	2.5	/experiments/knapen_aot/videos/R_S_yt-a5TGHnldsKg_102.mp4	0.0	233.63475012779236	0.5094258785247803
57	179.33588290214539	response	0	2		55.0	2.5	/experiments/knapen_aot/videos/R_S_yt-a5TGHnldsKg_102.mp4	0.0	234.13487005233765	
57	179.34518885612488	movie	1		301.0	55.0	2.5	/experiments/knapen_aot/videos/R_S_yt-a5TGHnldsKg_102.mp4	0.0	234.14417600631714	2.5076310634613037
57	181.85281991958618	fix_post	2		12.0	55.0	2.5	/experiments/knapen_aot/videos/R_S_yt-a5TGHnldsKg_102.mp4	0.0	236.65180706977844	0.0996088981628418
58	181.95242881774902	fix_pre	0		16.0	56.0	2.5	/experiments/knapen_aot/videos/R_S_yt-nn-8LZcafGs_35.mp4	0.0	236.75141596794128	0.13333916664123535
58	182.0775430202484	response	0	2		56.0	2.5	/experiments/knapen_aot/videos/R_S_yt-nn-8LZcafGs_35.mp4	0.0	236.87653017044067	
58	182.08576798439026	movie	1		301.0	56.0	2.5	/experiments/knapen_aot/videos/R_S_yt-nn-8LZcafGs_35.mp4	0.0	236.88475513458252	2.5082948207855225
58	184.59406280517578	fix_post	2		12.0	56.0	2.5	/experiments/knapen_aot/videos/R_S_yt-nn-8LZcafGs_35.mp4	0.0	239.39304995536804	0.09999799728393555
59	184.69406080245972	fix_pre	0		34.0	57.0	2.5	/experiments/knapen_aot/videos/S_yt-6vkiJedss6g_5.mp4	0.0	239.49304795265198	0.2833251953125
59	184.96918892860413	response	0	2		57.0	2.5	/experiments/knapen_aot/videos/S_yt-6vkiJedss6g_5.mp4	0.0	239.7681760787964	
59	184.97738599777222	movie	1		301.0	57.0	2.5	/experiments/knapen_aot/videos/S_yt-6vkiJedss6g_5.mp4	0.0	239.77637314796448	2.5083439350128174
59	187.48572993278503	fix_post	2		12.0	57.0	2.5	/experiments/knapen_aot/videos/S_yt-6vkiJedss6g_5.mp4	0.0	242.2847170829773	0.10001492500305176
60	187.5857448577881	fix_pre	0		35.0	58.0	2.5	/experiments/knapen_aot/videos/S_ILSVRC2015_train_00479003.mp4	0.0	242.38473200798035	0.291701078414917
60	187.86919593811035	response	0	2		58.0	2.5	/experiments/knapen_aot/videos/S_ILSVRC2015_train_00479003.mp4	0.0	242.6681830883026	
60	187.877445936203	movie	1		301.0	58.0	2.5	/experiments/knapen_aot/videos/S_ILSVRC2015_train_00479003.mp4	0.0	242.67643308639526	2.508241891860962
60	190.38568782806396	fix_post	2		12.0	58.0	2.5	/experiments/knapen_aot/videos/S_ILSVRC2015_train_00479003.mp4	0.0	245.18467497825623	0.10002303123474121
61	190.4857108592987	fix_pre	0		48.0	59.0	2.5	/experiments/knapen_aot/videos/R_S_yt-jUGt_Byqczw_599.mp4	0.0	245.28469800949097	0.40105509757995605
61	190.8775269985199	response	0	2		59.0	2.5	/experiments/knapen_aot/videos/R_S_yt-jUGt_Byqczw_599.mp4	0.0	245.67651414871216	
61	190.88676595687866	movie	1		301.0	59.0	2.5	/experiments/knapen_aot/videos/R_S_yt-jUGt_Byqczw_599.mp4	0.0	245.68575310707092	2.507282018661499
61	193.39404797554016	fix_post	2		12.0	59.0	2.5	/experiments/knapen_aot/videos/R_S_yt-jUGt_Byqczw_599.mp4	0.0	248.19303512573242	0.09998583793640137
62	193.49403381347656	fix_pre	0		107.0	60.0	2.5	/experiments/knapen_aot/videos/S_ILSVRC2015_train_00155004.mp4	0.0	248.29302096366882	0.8927512168884277
62	194.37751698493958	response	0	2		60.0	2.5	/experiments/knapen_aot/videos/S_ILSVRC2015_train_00155004.mp4	0.0	249.17650413513184	
62	194.386785030365	movie	1		301.0	60.0	2.5	/experiments/knapen_aot/videos/S_ILSVRC2015_train_00155004.mp4	0.0	249.18577218055725	2.507258892059326
62	196.89404392242432	fix_post	2		12.0	60.0	2.5	/experiments/knapen_aot/videos/S_ILSVRC2015_train_00155004.mp4	0.0	251.69303107261658	0.0999910831451416
63	196.99403500556946	fix_pre	0		74.0	61.0	2.5	/experiments/knapen_aot/videos/S_yt-c-H45QS0CF4_147.mp4	0.0	251.79302215576172	0.6166548728942871
63	197.60246682167053	response	0	2		61.0	2.5	/experiments/knapen_aot/videos/S_yt-c-H45QS0CF4_147.mp4	0.0	252.4014539718628	
63	197.61068987846375	movie	1		301.0	61.0	2.5	/experiments/knapen_aot/videos/S_yt-c-H45QS0CF4_147.mp4	0.0	252.409677028656	2.5083250999450684
63	200.1190149784088	fix_post	2		12.0	61.0	2.5	/experiments/knapen_aot/videos/S_yt-c-H45QS0CF4_147.mp4	0.0	254.91800212860107	0.09997701644897461
64	200.2189919948578	fix_pre	0		54.0	62.0	2.5	blank	1.0	255.01797914505005	0.4499979019165039
64	200.66074895858765	response	0	2		62.0	2.5	blank	1.0	255.4597361087799	
64	200.6689898967743	movie	1		301.0	62.0	2.5	blank	1.0	255.46797704696655	2.508328914642334
64	203.17731881141663	fix_post	2		12.0	62.0	2.5	blank	1.0	257.9763059616089	0.10008811950683594
65	203.27740693092346	fix_pre	0		70.0	63.0	2.5	/experiments/knapen_aot/videos/S_yt-7W50lcw5FCo_37.mp4	0.0	258.0763940811157	0.583258867263794
65	203.8523769378662	response	0	2		63.0	2.5	/experiments/knapen_aot/videos/S_yt-7W50lcw5FCo_37.mp4	0.0	258.6513640880585	
65	203.86066579818726	movie	1		301.0	63.0	2.5	/experiments/knapen_aot/videos/S_yt-7W50lcw5FCo_37.mp4	0.0	258.6596529483795	2.508324146270752
65	206.368989944458	fix_post	2		12.0	63.0	2.5	/experiments/knapen_aot/videos/S_yt-7W50lcw5FCo_37.mp4	0.0	261.16797709465027	0.10014891624450684
66	206.46913886070251	fix_pre	0		91.0	64.0	2.5	/experiments/knapen_aot/videos/R_S_wc-16LozRfhUGea_49.mp4	0.0	261.2681260108948	0.758155107498169
66	207.21906399726868	response	0	2		64.0	2.5	/experiments/knapen_aot/videos/R_S_wc-16LozRfhUGea_49.mp4	0.0	262.01805114746094	
66	207.22729396820068	movie	1		301.0	64.0	2.5	/experiments/knapen_aot/videos/R_S_wc-16LozRfhUGea_49.mp4	0.0	262.02628111839294	2.5083470344543457
66	209.73564100265503	fix_post	2		12.0	64.0	2.5	/experiments/knapen_aot/videos/R_S_wc-16LozRfhUGea_49.mp4	0.0	264.5346281528473	0.09999895095825195
67	209.83563995361328	fix_pre	0		41.0	65.0	2.5	/experiments/knapen_aot/videos/S_yt--a-d97T4Gak_75.mp4	0.0	264.63462710380554	0.34264588356018066
67	210.16912698745728	response	0	2		65.0	2.5	/experiments/knapen_aot/videos/S_yt--a-d97T4Gak_75.mp4	0.0	264.96811413764954	
67	210.17828583717346	movie	1		301.0	65.0	2.5	/experiments/knapen_aot/videos/S_yt--a-d97T4Gak_75.mp4	0.0	264.9772729873657	2.507333993911743
67	212.6856198310852	fix_post	2		12.0	65.0	2.5	/experiments/knapen_aot/videos/S_yt--a-d97T4Gak_75.mp4	0.0	267.48460698127747	0.09998202323913574
68	212.78560185432434	fix_pre	0		23.0	66.0	2.5	/experiments/knapen_aot/videos/R_S_wc-7ugQ0V4lxYkJ_131.mp4	0.0	267.5845890045166	0.1917109489440918
68	212.96902680397034	response	0	2		66.0	2.5	/experiments/knapen_aot/videos/R_S_wc-7ugQ0V4lxYkJ_131.mp4	0.0	267.7680139541626	
68	212.97731280326843	movie	1		301.0	66.0	2.5	/experiments/knapen_aot/videos/R_S_wc-7ugQ0V4lxYkJ_131.mp4	0.0	267.7762999534607	2.5083091259002686
68	215.4856219291687	fix_post	2		12.0	66.0	2.5	/experiments/knapen_aot/videos/R_S_wc-7ugQ0V4lxYkJ_131.mp4	0.0	270.28460907936096	0.10006403923034668
69	215.58568596839905	fix_pre	0		25.0	67.0	2.5	/experiments/knapen_aot/videos/R_S_ILSVRC2015_train_00610000.mp4	0.0	270.3846731185913	0.20821905136108398
69	215.78570985794067	response	0	2		67.0	2.5	/experiments/knapen_aot/videos/R_S_ILSVRC2015_train_00610000.mp4	0.0	270.58469700813293	
69	215.79390501976013	movie	1		301.0	67.0	2.5	/experiments/knapen_aot/videos/R_S_ILSVRC2015_train_00610000.mp4	0.0	270.5928921699524	2.5083768367767334
69	218.30228185653687	fix_post	2		12.0	67.0	2.5	/experiments/knapen_aot/videos/R_S_ILSVRC2015_train_00610000.mp4	0.0	273.1012690067291	0.0999901294708252
70	218.4022719860077	fix_pre	0		52.0	68.0	2.5	/experiments/knapen_aot/videos/R_S_ILSVRC2015_train_00743005.mp4	0.0	273.20125913619995	0.43343186378479004
70	218.82733798027039	response	0	2		68.0	2.5	/experiments/knapen_aot/videos/R_S_ILSVRC2015_train_00743005.mp4	0.0	273.62632513046265	
70	218.83570384979248	movie	1		301.0	68.0	2.5	/experiments/knapen_aot/videos/R_S_ILSVRC2015_train_00743005.mp4	0.0	273.63469099998474	2.5082521438598633
70	221.34395599365234	fix_post	2		12.0	68.0	2.5	/experiments/knapen_aot/videos/R_S_ILSVRC2015_train_00743005.mp4	0.0	276.1429431438446	0.09996390342712402
71	221.44391989707947	fix_pre	0		27.0	69.0	2.5	blank	1.0	276.24290704727173	0.22497296333312988
71	221.660710811615	response	0	2		69.0	2.5	blank	1.0	276.45969796180725	
71	221.6688928604126	movie	1		301.0	69.0	2.5	blank	1.0	276.46788001060486	2.508352041244507
71	224.1772449016571	fix_post	2		12.0	69.0	2.5	blank	1.0	278.97623205184937	0.10001206398010254
72	224.2772569656372	fix_pre	0		59.0	70.0	2.5	/experiments/knapen_aot/videos/R_S_yt-JpOBXV46TLE_124.mp4	0.0	279.07624411582947	0.49153590202331543
72	224.7606658935547	response	0	2		70.0	2.5	/experiments/knapen_aot/videos/R_S_yt-JpOBXV46TLE_124.mp4	0.0	279.55965304374695	
72	224.76879286766052	movie	1		301.0	70.0	2.5	/experiments/knapen_aot/videos/R_S_yt-JpOBXV46TLE_124.mp4	0.0	279.5677800178528	2.508439064025879
72	227.2772319316864	fix_post	2		12.0	70.0	2.5	/experiments/knapen_aot/videos/R_S_yt-JpOBXV46TLE_124.mp4	0.0	282.07621908187866	0.09996390342712402
73	227.37719583511353	fix_pre	0		51.0	71.0	2.5	/experiments/knapen_aot/videos/R_S_production_ID_4765899.mp4	0.0	282.1761829853058	0.4259669780731201
73	227.79398202896118	response	0	2		71.0	2.5	/experiments/knapen_aot/videos/R_S_production_ID_4765899.mp4	0.0	282.59296917915344	
73	227.80316281318665	movie	1		166.0	71.0	2.5	/experiments/knapen_aot/videos/R_S_production_ID_4765899.mp4	0.0	282.6021499633789	2.507385015487671
73	230.31054782867432	fix_post	2		12.0	71.0	2.5	/experiments/knapen_aot/videos/R_S_production_ID_4765899.mp4	0.0	285.1095349788666	0.09993314743041992
74	230.41048097610474	fix_pre	0		34.0	72.0	2.5	/experiments/knapen_aot/videos/R_S_yt-rlEPywo5BEQ_36.mp4	0.0	285.209468126297	0.283383846282959
74	230.68557786941528	response	0	2		72.0	2.5	/experiments/knapen_aot/videos/R_S_yt-rlEPywo5BEQ_36.mp4	0.0	285.48456501960754	
74	230.6938648223877	movie	1		301.0	72.0	2.5	/experiments/knapen_aot/videos/R_S_yt-rlEPywo5BEQ_36.mp4	0.0	285.49285197257996	2.508315086364746
74	233.20217990875244	fix_post	2		12.0	72.0	2.5	/experiments/knapen_aot/videos/R_S_yt-rlEPywo5BEQ_36.mp4	0.0	288.0011670589447	0.10000395774841309
75	233.30218386650085	fix_pre	0		61.0	73.0	2.5	/experiments/knapen_aot/videos/S_pexels-mikael-blomkvist-8689852.mp4	0.0	288.1011710166931	0.5082981586456299
75	233.80227899551392	response	0	2		73.0	2.5	/experiments/knapen_aot/videos/S_pexels-mikael-blomkvist-8689852.mp4	0.0	288.6012661457062	
75	233.81048202514648	movie	1		163.0	73.0	2.5	/experiments/knapen_aot/videos/S_pexels-mikael-blomkvist-8689852.mp4	0.0	288.60946917533875	2.5084688663482666
75	236.31895089149475	fix_post	2		12.0	73.0	2.5	/experiments/knapen_aot/videos/S_pexels-mikael-blomkvist-8689852.mp4	0.0	291.117938041687	0.10006093978881836
76	236.41901183128357	fix_pre	0		55.0	74.0	2.5	/experiments/knapen_aot/videos/S_yt-tX3slAQb9yY_13.mp4	0.0	291.21799898147583	0.4580850601196289
76	236.86899280548096	response	0	2		74.0	2.5	/experiments/knapen_aot/videos/S_yt-tX3slAQb9yY_13.mp4	0.0	291.6679799556732	
76	236.8770968914032	movie	1		301.0	74.0	2.5	/experiments/knapen_aot/videos/S_yt-tX3slAQb9yY_13.mp4	0.0	291.67608404159546	2.508397102355957
76	239.38549399375916	fix_post	2		12.0	74.0	2.5	/experiments/knapen_aot/videos/S_yt-tX3slAQb9yY_13.mp4	0.0	294.1844811439514	0.10002899169921875
77	239.48552298545837	fix_pre	0		26.0	75.0	2.5	blank	1.0	294.28451013565063	0.21665096282958984
77	239.69391202926636	response	0	2		75.0	2.5	blank	1.0	294.4928991794586	
77	239.70217394828796	movie	1		301.0	75.0	2.5	blank	1.0	294.5011610984802	2.5083470344543457
77	242.2105209827423	fix_post	2		12.0	75.0	2.5	blank	1.0	297.00950813293457	0.09997296333312988
78	242.31049394607544	fix_pre	0		70.0	76.0	2.5	/experiments/knapen_aot/videos/S_yt-eVAlSjH8E8k_127.mp4	0.0	297.1094810962677	0.5832910537719727
78	242.88566493988037	response	0	2		76.0	2.5	/experiments/knapen_aot/videos/S_yt-eVAlSjH8E8k_127.mp4	0.0	297.68465209007263	
78	242.8937849998474	movie	1		301.0	76.0	2.5	/experiments/knapen_aot/videos/S_yt-eVAlSjH8E8k_127.mp4	0.0	297.6927721500397	2.508344888687134
78	245.40212988853455	fix_post	2		12.0	76.0	2.5	/experiments/knapen_aot/videos/S_yt-eVAlSjH8E8k_127.mp4	0.0	300.2011170387268	0.09997296333312988
79	245.50210285186768	fix_pre	0		47.0	77.0	2.5	/experiments/knapen_aot/videos/R_S_production_ID_4720614.mp4	0.0	300.30109000205994	0.3916780948638916
79	245.88545680046082	response	0	2		77.0	2.5	/experiments/knapen_aot/videos/R_S_production_ID_4720614.mp4	0.0	300.6844439506531	
79	245.89378094673157	movie	1		198.0	77.0	2.5	/experiments/knapen_aot/videos/R_S_production_ID_4720614.mp4	0.0	300.6927680969238	2.508370876312256
79	248.40215182304382	fix_post	2		12.0	77.0	2.5	/experiments/knapen_aot/videos/R_S_production_ID_4720614.mp4	0.0	303.2011389732361	0.0999760627746582
80	248.50212788581848	fix_pre	0		40.0	78.0	2.5	/experiments/knapen_aot/videos/R_S_pexels-anthony-shkraba-production-8135459.mp4	0.0	303.30111503601074	0.33329200744628906
80	248.81961584091187	response	0	2		78.0	2.5	/experiments/knapen_aot/videos/R_S_pexels-anthony-shkraba-production-8135459.mp4	0.0	303.6186029911041	
80	248.83541989326477	movie	1		167.0	78.0	2.5	/experiments/knapen_aot/videos/R_S_pexels-anthony-shkraba-production-8135459.mp4	0.0	303.63440704345703	2.5083930492401123
80	251.34381294250488	fix_post	2		12.0	78.0	2.5	/experiments/knapen_aot/videos/R_S_pexels-anthony-shkraba-production-8135459.mp4	0.0	306.14280009269714	0.0999898910522461
81	251.44380283355713	fix_pre	0		83.0	79.0	2.5	/experiments/knapen_aot/videos/R_S_yt-b7bIulV49DQ_81.mp4	0.0	306.2427899837494	0.6924259662628174
81	252.12726187705994	response	0	2		79.0	2.5	/experiments/knapen_aot/videos/R_S_yt-b7bIulV49DQ_81.mp4	0.0	306.9262490272522	
81	252.13622879981995	movie	1		301.0	79.0	2.5	/experiments/knapen_aot/videos/R_S_yt-b7bIulV49DQ_81.mp4	0.0	306.9352159500122	2.5075230598449707
81	254.64375185966492	fix_post	2		12.0	79.0	2.5	/experiments/knapen_aot/videos/R_S_yt-b7bIulV49DQ_81.mp4	0.0	309.4427390098572	0.10002303123474121
82	254.74377489089966	fix_pre	0		49.0	80.0	2.5	/experiments/knapen_aot/videos/S_yt-tEzCpMrjOHs_24.mp4	0.0	309.5427620410919	0.40828704833984375
82	255.14391994476318	response	0	2		80.0	2.5	/experiments/knapen_aot/videos/S_yt-tEzCpMrjOHs_24.mp4	0.0	309.94290709495544	
82	255.1520619392395	movie	1		301.0	80.0	2.5	/experiments/knapen_aot/videos/S_yt-tEzCpMrjOHs_24.mp4	0.0	309.95104908943176	2.5083858966827393
82	257.66044783592224	fix_post	2		12.0	80.0	2.5	/experiments/knapen_aot/videos/S_yt-tEzCpMrjOHs_24.mp4	0.0	312.4594349861145	0.10071802139282227
83	257.76116585731506	fix_pre	0		77.0	81.0	2.5	/experiments/knapen_aot/videos/R_S_yt-W00vtWnXgIk_73.mp4	0.0	312.5601530075073	0.6408801078796387
83	258.386332988739	response	0	2		81.0	2.5	/experiments/knapen_aot/videos/R_S_yt-W00vtWnXgIk_73.mp4	0.0	313.1853201389313	
83	258.4020459651947	movie	1		301.0	81.0	2.5	/experiments/knapen_aot/videos/R_S_yt-W00vtWnXgIk_73.mp4	0.0	313.20103311538696	2.508391857147217
83	260.9104378223419	fix_post	2		12.0	81.0	2.5	/experiments/knapen_aot/videos/R_S_yt-W00vtWnXgIk_73.mp4	0.0	315.7094249725342	0.10021519660949707
84	261.0106530189514	fix_pre	0		61.0	82.0	2.5	blank	1.0	315.8096401691437	0.5080749988555908
84	261.51053380966187	response	0	2		82.0	2.5	blank	1.0	316.3095209598541	
84	261.518728017807	movie	1		301.0	82.0	2.5	blank	1.0	316.31771516799927	2.508392810821533
84	264.02712082862854	fix_post	2		12.0	82.0	2.5	blank	1.0	318.8261079788208	0.09998106956481934
85	264.12710189819336	fix_pre	0		110.0	83.0	2.5	/experiments/knapen_aot/videos/R_S_yt-NOnR6C2sjpI_97.mp4	0.0	318.9260890483856	0.916611909866333
85	265.03549790382385	response	0	2		83.0	2.5	/experiments/knapen_aot/videos/R_S_yt-NOnR6C2sjpI_97.mp4	0.0	319.8344850540161	
85	265.0437138080597	movie	1		301.0	83.0	2.5	/experiments/knapen_aot/videos/R_S_yt-NOnR6C2sjpI_97.mp4	0.0	319.84270095825195	2.5084311962127686
85	267.55214500427246	fix_post	2		12.0	83.0	2.5	/experiments/knapen_aot/videos/R_S_yt-NOnR6C2sjpI_97.mp4	0.0	322.3511321544647	0.09997797012329102
87	267.65212297439575	stim	0		386.0					322.451110124588	3.220026969909668
87	270.86533284187317	response	0	space						325.66431999206543	
