trial_nr	onset	event_type	phase	response	nr_frames	movie_index	movie_duration	movie_file	blank	onset_abs	duration
0	0.12739300727844238	stim	0		24.0					52.61467623710632	0.19964194297790527
0	0.3196449279785156	response	0	space						52.8069281578064	
1	0.32703495025634766	stim	0		121.0					52.81431818008423	1.0079560279846191
1	1.0696120262145996	response	0	space						53.55689525604248	
1	1.3349909782409668	stim	1		120.0					53.82227420806885	0.999985933303833
1	1.3361408710479736	response	1	space						53.823424100875854	
1	1.7350728511810303	response	1	space						54.22235608100891	
1	2.051682949066162	response	1	space						54.53896617889404	
2	2.3349769115448	fix_pre	0		3.0	0.0	2.5	/experiments/knapen_aot/videos/R_S_yt-Xegmd8whqBs_230.mp4	0.0	54.82226014137268	0.026122093200683594
2	2.351793050765991	response	0	space		0.0	2.5	/experiments/knapen_aot/videos/R_S_yt-Xegmd8whqBs_230.mp4	0.0	54.83907628059387	
2	2.3610990047454834	movie	1		301.0	0.0	2.5	/experiments/knapen_aot/videos/R_S_yt-Xegmd8whqBs_230.mp4	0.0	54.848382234573364	2.507174015045166
2	4.868273019790649	fix_post	2		12.0	0.0	2.5	/experiments/knapen_aot/videos/R_S_yt-Xegmd8whqBs_230.mp4	0.0	57.35555624961853	0.10021686553955078
3	4.9684898853302	fix_pre	0		7.0	1.0	2.5	/experiments/knapen_aot/videos/R_S_ILSVRC2015_train_00074011.mp4	0.0	57.45577311515808	0.058897972106933594
3	5.019820928573608	response	0	2		1.0	2.5	/experiments/knapen_aot/videos/R_S_ILSVRC2015_train_00074011.mp4	0.0	57.50710415840149	
3	5.027387857437134	movie	1		301.0	1.0	2.5	/experiments/knapen_aot/videos/R_S_ILSVRC2015_train_00074011.mp4	0.0	57.514671087265015	2.5075881481170654
3	7.534976005554199	fix_post	2		12.0	1.0	2.5	/experiments/knapen_aot/videos/R_S_ILSVRC2015_train_00074011.mp4	0.0	60.02225923538208	0.10001802444458008
4	7.634994029998779	fix_pre	0		13.0	2.0	2.5	/experiments/knapen_aot/videos/R_S_Pexels_Videos_2795731_1.mp4	0.0	60.12227725982666	0.10821890830993652
4	7.735008955001831	response	0	2		2.0	2.5	/experiments/knapen_aot/videos/R_S_Pexels_Videos_2795731_1.mp4	0.0	60.22229218482971	
4	7.743212938308716	movie	1		159.0	2.0	2.5	/experiments/knapen_aot/videos/R_S_Pexels_Videos_2795731_1.mp4	0.0	60.2304961681366	2.508394956588745
4	10.251607894897461	fix_post	2		12.0	2.0	2.5	/experiments/knapen_aot/videos/R_S_Pexels_Videos_2795731_1.mp4	0.0	62.73889112472534	0.09998416900634766
5	10.351592063903809	fix_pre	0		25.0	3.0	2.5	/experiments/knapen_aot/videos/S_Person_Going_Through_A_Bible.mp4	0.0	62.83887529373169	0.20828795433044434
5	10.551552057266235	response	0	2		3.0	2.5	/experiments/knapen_aot/videos/S_Person_Going_Through_A_Bible.mp4	0.0	63.038835287094116	
5	10.559880018234253	movie	1		164.0	3.0	2.5	/experiments/knapen_aot/videos/S_Person_Going_Through_A_Bible.mp4	0.0	63.047163248062134	2.5083608627319336
5	13.068240880966187	fix_post	2		12.0	3.0	2.5	/experiments/knapen_aot/videos/S_Person_Going_Through_A_Bible.mp4	0.0	65.55552411079407	0.10001111030578613
6	13.168251991271973	fix_pre	0		13.0	4.0	2.5	/experiments/knapen_aot/videos/S_yt-kQpE9L-fsNE_55.mp4	0.0	65.65553522109985	0.10916996002197266
6	13.260837078094482	response	0	2		4.0	2.5	/experiments/knapen_aot/videos/S_yt-kQpE9L-fsNE_55.mp4	0.0	65.74812030792236	
6	13.277421951293945	movie	1		301.0	4.0	2.5	/experiments/knapen_aot/videos/S_yt-kQpE9L-fsNE_55.mp4	0.0	65.76470518112183	2.507474899291992
6	15.784896850585938	fix_post	2		12.0	4.0	2.5	/experiments/knapen_aot/videos/S_yt-kQpE9L-fsNE_55.mp4	0.0	68.27218008041382	0.09990620613098145
7	15.884803056716919	fix_pre	0		21.0	5.0	2.5	/experiments/knapen_aot/videos/S_yt-bTcbsBET7gc_270.mp4	0.0	68.3720862865448	0.1750328540802002
7	16.0516140460968	response	0	2		5.0	2.5	/experiments/knapen_aot/videos/S_yt-bTcbsBET7gc_270.mp4	0.0	68.53889727592468	
7	16.05983591079712	movie	1		301.0	5.0	2.5	/experiments/knapen_aot/videos/S_yt-bTcbsBET7gc_270.mp4	0.0	68.547119140625	2.5084121227264404
7	18.56824803352356	fix_post	2		12.0	5.0	2.5	/experiments/knapen_aot/videos/S_yt-bTcbsBET7gc_270.mp4	0.0	71.05553126335144	0.09988689422607422
8	18.668134927749634	fix_pre	0		14.0	6.0	2.5	blank	1.0	71.15541815757751	0.11668801307678223
8	18.77656102180481	response	0	2		6.0	2.5	blank	1.0	71.26384425163269	
8	18.784822940826416	movie	1		301.0	6.0	2.5	blank	1.0	71.2721061706543	2.508418083190918
8	21.293241024017334	fix_post	2		12.0	6.0	2.5	blank	1.0	73.78052425384521	0.09998297691345215
9	21.393224000930786	fix_pre	0		27.0	7.0	2.5	/experiments/knapen_aot/videos/R_S_yt-JQOHHL30Y54_101.mp4	0.0	73.88050723075867	0.22490906715393066
9	21.609920024871826	response	0	2		7.0	2.5	/experiments/knapen_aot/videos/R_S_yt-JQOHHL30Y54_101.mp4	0.0	74.0972032546997	
9	21.618133068084717	movie	1		301.0	7.0	2.5	/experiments/knapen_aot/videos/R_S_yt-JQOHHL30Y54_101.mp4	0.0	74.1054162979126	2.5082688331604004
9	24.126401901245117	fix_post	2		12.0	7.0	2.5	/experiments/knapen_aot/videos/R_S_yt-JQOHHL30Y54_101.mp4	0.0	76.613685131073	0.10011100769042969
10	24.226512908935547	fix_pre	0		24.0	8.0	2.5	/experiments/knapen_aot/videos/S_comp_HK_H004_C008_PSNK_v19_SDR_PS_20180914_SDR_2K_AVC.mp4	0.0	76.71379613876343	0.19994115829467773
10	24.41834306716919	response	0	2		8.0	2.5	/experiments/knapen_aot/videos/S_comp_HK_H004_C008_PSNK_v19_SDR_PS_20180914_SDR_2K_AVC.mp4	0.0	76.90562629699707	
10	24.426454067230225	movie	1		165.0	8.0	2.5	/experiments/knapen_aot/videos/S_comp_HK_H004_C008_PSNK_v19_SDR_PS_20180914_SDR_2K_AVC.mp4	0.0	76.9137372970581	2.5083940029144287
10	26.934848070144653	fix_post	2		12.0	8.0	2.5	/experiments/knapen_aot/videos/S_comp_HK_H004_C008_PSNK_v19_SDR_PS_20180914_SDR_2K_AVC.mp4	0.0	79.42213129997253	0.1001119613647461
11	27.0349600315094	fix_pre	0		5.0	9.0	2.5	/experiments/knapen_aot/videos/S_yt-3roniRu6w58_10.mp4	0.0	79.52224326133728	0.04155302047729492
11	27.068300008773804	response	0	2		9.0	2.5	/experiments/knapen_aot/videos/S_yt-3roniRu6w58_10.mp4	0.0	79.55558323860168	
11	27.076513051986694	movie	1		301.0	9.0	2.5	/experiments/knapen_aot/videos/S_yt-3roniRu6w58_10.mp4	0.0	79.56379628181458	2.508301019668579
11	29.576555013656616	response	1	2		9.0	2.5	/experiments/knapen_aot/videos/S_yt-3roniRu6w58_10.mp4	0.0	82.0638382434845	
11	29.584814071655273	fix_post	2		12.0	9.0	2.5	/experiments/knapen_aot/videos/S_yt-3roniRu6w58_10.mp4	0.0	82.07209730148315	0.10002779960632324
12	29.684841871261597	fix_pre	0		41.0	10.0	2.5	/experiments/knapen_aot/videos/S_ILSVRC2015_train_00324001.mp4	0.0	82.17212510108948	0.3423600196838379
12	30.01816987991333	response	0	2		10.0	2.5	/experiments/knapen_aot/videos/S_ILSVRC2015_train_00324001.mp4	0.0	82.50545310974121	
12	30.027201890945435	movie	1		301.0	10.0	2.5	/experiments/knapen_aot/videos/S_ILSVRC2015_train_00324001.mp4	0.0	82.51448512077332	2.5076041221618652
12	32.5348060131073	fix_post	2		12.0	10.0	2.5	/experiments/knapen_aot/videos/S_ILSVRC2015_train_00324001.mp4	0.0	85.02208924293518	0.1000208854675293
13	32.63482689857483	fix_pre	0		21.0	11.0	2.5	/experiments/knapen_aot/videos/R_S_ILSVRC2015_train_00549000.mp4	0.0	85.12211012840271	0.17504405975341797
13	32.80160903930664	response	0	2		11.0	2.5	/experiments/knapen_aot/videos/R_S_ILSVRC2015_train_00549000.mp4	0.0	85.28889226913452	
13	32.80987095832825	movie	1		301.0	11.0	2.5	/experiments/knapen_aot/videos/R_S_ILSVRC2015_train_00549000.mp4	0.0	85.29715418815613	2.508368968963623
13	35.31823992729187	fix_post	2		12.0	11.0	2.5	/experiments/knapen_aot/videos/R_S_ILSVRC2015_train_00549000.mp4	0.0	87.80552315711975	0.09990906715393066
14	35.4181489944458	fix_pre	0		13.0	12.0	2.5	/experiments/knapen_aot/videos/S_yt-s-J3C6e5A3Q_18.mp4	0.0	87.90543222427368	0.10890698432922363
14	35.51819586753845	response	0	2		12.0	2.5	/experiments/knapen_aot/videos/S_yt-s-J3C6e5A3Q_18.mp4	0.0	88.00547909736633	
14	35.527055978775024	movie	1		301.0	12.0	2.5	/experiments/knapen_aot/videos/S_yt-s-J3C6e5A3Q_18.mp4	0.0	88.0143392086029	2.5077600479125977
14	37.58023190498352	response	1	2		12.0	2.5	/experiments/knapen_aot/videos/S_yt-s-J3C6e5A3Q_18.mp4	0.0	90.0675151348114	
14	38.03481602668762	fix_post	2		12.0	12.0	2.5	/experiments/knapen_aot/videos/S_yt-s-J3C6e5A3Q_18.mp4	0.0	90.5220992565155	0.09997987747192383
15	38.134795904159546	fix_pre	0		4.0	13.0	2.5	blank	1.0	90.62207913398743	0.033288002014160156
15	38.15995788574219	response	0	2		13.0	2.5	blank	1.0	90.64724111557007	
15	38.168083906173706	movie	1		301.0	13.0	2.5	blank	1.0	90.65536713600159	2.5083539485931396
15	38.45984196662903	response	1	2		13.0	2.5	blank	1.0	90.94712519645691	
15	38.684885025024414	response	1	2		13.0	2.5	blank	1.0	91.1721682548523	
15	38.90153193473816	response	1	2		13.0	2.5	blank	1.0	91.38881516456604	
15	39.101441860198975	response	1	2		13.0	2.5	blank	1.0	91.58872509002686	
15	40.65982389450073	response	1	2		13.0	2.5	blank	1.0	93.14710712432861	
15	40.676437854766846	fix_post	2		12.0	13.0	2.5	blank	1.0	93.16372108459473	0.10018014907836914
16	40.776618003845215	fix_pre	0		20.0	14.0	2.5	/experiments/knapen_aot/videos/R_S_Person_Going_Through_A_Bible.mp4	0.0	93.2639012336731	0.16725897789001465
16	40.93484592437744	response	0	2		14.0	2.5	/experiments/knapen_aot/videos/R_S_Person_Going_Through_A_Bible.mp4	0.0	93.42212915420532	
16	40.94387698173523	movie	1		164.0	14.0	2.5	/experiments/knapen_aot/videos/R_S_Person_Going_Through_A_Bible.mp4	0.0	93.43116021156311	2.5075700283050537
16	43.45144701004028	fix_post	2		12.0	14.0	2.5	/experiments/knapen_aot/videos/R_S_Person_Going_Through_A_Bible.mp4	0.0	95.93873023986816	0.09999799728393555
17	43.55144500732422	fix_pre	0		8.0	15.0	2.5	/experiments/knapen_aot/videos/R_S_yt-aiDGx4AN8J0_9.mp4	0.0	96.0387282371521	0.06661796569824219
17	43.60986399650574	response	0	2		15.0	2.5	/experiments/knapen_aot/videos/R_S_yt-aiDGx4AN8J0_9.mp4	0.0	96.09714722633362	
17	43.61806297302246	movie	1		301.0	15.0	2.5	/experiments/knapen_aot/videos/R_S_yt-aiDGx4AN8J0_9.mp4	0.0	96.10534620285034	2.5083060264587402
17	46.1263689994812	fix_post	2		12.0	15.0	2.5	/experiments/knapen_aot/videos/R_S_yt-aiDGx4AN8J0_9.mp4	0.0	98.61365222930908	0.10003185272216797
18	46.22640085220337	fix_pre	0		23.0	16.0	2.5	/experiments/knapen_aot/videos/S_ILSVRC2015_train_00074011.mp4	0.0	98.71368408203125	0.19162416458129883
18	46.40988302230835	response	0	2		16.0	2.5	/experiments/knapen_aot/videos/S_ILSVRC2015_train_00074011.mp4	0.0	98.89716625213623	
18	46.41802501678467	movie	1		301.0	16.0	2.5	/experiments/knapen_aot/videos/S_ILSVRC2015_train_00074011.mp4	0.0	98.90530824661255	2.5087859630584717
18	48.92681097984314	fix_post	2		12.0	16.0	2.5	/experiments/knapen_aot/videos/S_ILSVRC2015_train_00074011.mp4	0.0	101.41409420967102	0.09947800636291504
19	49.026288986206055	fix_pre	0		4.0	17.0	2.5	/experiments/knapen_aot/videos/R_S_yt-_HuBzj8EPBc_62.mp4	0.0	101.51357221603394	0.03345608711242676
19	49.05147695541382	response	0	2		17.0	2.5	/experiments/knapen_aot/videos/R_S_yt-_HuBzj8EPBc_62.mp4	0.0	101.5387601852417	
19	49.05974507331848	movie	1		301.0	17.0	2.5	/experiments/knapen_aot/videos/R_S_yt-_HuBzj8EPBc_62.mp4	0.0	101.54702830314636	2.5083518028259277
19	51.56809687614441	fix_post	2		12.0	17.0	2.5	/experiments/knapen_aot/videos/R_S_yt-_HuBzj8EPBc_62.mp4	0.0	104.05538010597229	0.09995698928833008
20	51.66805386543274	fix_pre	0		17.0	18.0	2.5	/experiments/knapen_aot/videos/S_yt-FzMLLmcD1mE_19.mp4	0.0	104.15533709526062	0.1416621208190918
20	51.801501989364624	response	0	2		18.0	2.5	/experiments/knapen_aot/videos/S_yt-FzMLLmcD1mE_19.mp4	0.0	104.2887852191925	
20	51.80971598625183	movie	1		301.0	18.0	2.5	/experiments/knapen_aot/videos/S_yt-FzMLLmcD1mE_19.mp4	0.0	104.29699921607971	2.508424997329712
20	54.31814098358154	fix_post	2		12.0	18.0	2.5	/experiments/knapen_aot/videos/S_yt-FzMLLmcD1mE_19.mp4	0.0	106.80542421340942	0.09994006156921387
21	54.41808104515076	fix_pre	0		24.0	19.0	2.5	/experiments/knapen_aot/videos/S_yt-fjOsq03OC2c_188.mp4	0.0	106.90536427497864	0.19985103607177734
21	54.609806060791016	response	0	2		19.0	2.5	/experiments/knapen_aot/videos/S_yt-fjOsq03OC2c_188.mp4	0.0	107.0970892906189	
21	54.617932081222534	movie	1		301.0	19.0	2.5	/experiments/knapen_aot/videos/S_yt-fjOsq03OC2c_188.mp4	0.0	107.10521531105042	2.5084328651428223
21	56.668115854263306	response	1	2		19.0	2.5	/experiments/knapen_aot/videos/S_yt-fjOsq03OC2c_188.mp4	0.0	109.15539908409119	
21	56.98814797401428	response	1	2		19.0	2.5	/experiments/knapen_aot/videos/S_yt-fjOsq03OC2c_188.mp4	0.0	109.47543120384216	
21	57.126364946365356	fix_post	2		12.0	19.0	2.5	/experiments/knapen_aot/videos/S_yt-fjOsq03OC2c_188.mp4	0.0	109.61364817619324	0.10016202926635742
22	57.226526975631714	fix_pre	0		3.0	20.0	2.5	/experiments/knapen_aot/videos/R_S_yt-qjg6kRxNXK8_217.mp4	0.0	109.7138102054596	0.02488398551940918
22	57.2431640625	response	0	2		20.0	2.5	/experiments/knapen_aot/videos/R_S_yt-qjg6kRxNXK8_217.mp4	0.0	109.73044729232788	
22	57.25141096115112	movie	1		301.0	20.0	2.5	/experiments/knapen_aot/videos/R_S_yt-qjg6kRxNXK8_217.mp4	0.0	109.738694190979	2.5083401203155518
22	59.759751081466675	fix_post	2		12.0	20.0	2.5	/experiments/knapen_aot/videos/R_S_yt-qjg6kRxNXK8_217.mp4	0.0	112.24703431129456	0.09986495971679688
23	59.85961604118347	fix_pre	0		21.0	21.0	2.5	blank	1.0	112.34689927101135	0.17512297630310059
23	60.02647590637207	response	0	2		21.0	2.5	blank	1.0	112.51375913619995	
23	60.03473901748657	movie	1		301.0	21.0	2.5	blank	1.0	112.52202224731445	2.5082719326019287
23	61.87647294998169	response	1	2		21.0	2.5	blank	1.0	114.36375617980957	
23	62.159719944000244	response	1	2		21.0	2.5	blank	1.0	114.64700317382812	
23	62.418067932128906	response	1	2		21.0	2.5	blank	1.0	114.90535116195679	
23	62.5430109500885	fix_post	2		12.0	21.0	2.5	blank	1.0	115.03029417991638	0.0999460220336914
24	62.64295697212219	fix_pre	0		39.0	22.0	2.5	/experiments/knapen_aot/videos/S_yt-yJmHtBFyhH4_15.mp4	0.0	115.13024020195007	0.325045108795166
24	62.952239990234375	response	0	2		22.0	2.5	/experiments/knapen_aot/videos/S_yt-yJmHtBFyhH4_15.mp4	0.0	115.43952322006226	
24	62.96800208091736	movie	1		301.0	22.0	2.5	/experiments/knapen_aot/videos/S_yt-yJmHtBFyhH4_15.mp4	0.0	115.45528531074524	2.50833797454834
24	65.4763400554657	fix_post	2		12.0	22.0	2.5	/experiments/knapen_aot/videos/S_yt-yJmHtBFyhH4_15.mp4	0.0	117.96362328529358	0.10018396377563477
25	65.57652401924133	fix_pre	0		19.0	23.0	2.5	/experiments/knapen_aot/videos/S_yt-aiWUhl8MCto_71.mp4	0.0	118.06380724906921	0.1586298942565918
25	65.72645092010498	response	0	2		23.0	2.5	/experiments/knapen_aot/videos/S_yt-aiWUhl8MCto_71.mp4	0.0	118.21373414993286	
25	65.73515391349792	movie	1		300.0	23.0	2.5	/experiments/knapen_aot/videos/S_yt-aiWUhl8MCto_71.mp4	0.0	118.2224371433258	2.5078351497650146
25	67.80517506599426	response	1	2		23.0	2.5	/experiments/knapen_aot/videos/S_yt-aiWUhl8MCto_71.mp4	0.0	120.29245829582214	
25	68.13466501235962	response	1	2		23.0	2.5	/experiments/knapen_aot/videos/S_yt-aiWUhl8MCto_71.mp4	0.0	120.6219482421875	
25	68.24298906326294	fix_post	2		12.0	23.0	2.5	/experiments/knapen_aot/videos/S_yt-aiWUhl8MCto_71.mp4	0.0	120.73027229309082	0.10000896453857422
26	68.34299802780151	fix_pre	0		22.0	24.0	2.5	/experiments/knapen_aot/videos/R_S_OdxWh1oU8e8_1.mp4	0.0	120.8302812576294	0.18384695053100586
26	68.51801300048828	response	0	2		24.0	2.5	/experiments/knapen_aot/videos/R_S_OdxWh1oU8e8_1.mp4	0.0	121.00529623031616	
26	68.52684497833252	movie	1		301.0	24.0	2.5	/experiments/knapen_aot/videos/R_S_OdxWh1oU8e8_1.mp4	0.0	121.0141282081604	2.5077829360961914
26	71.03462791442871	fix_post	2		12.0	24.0	2.5	/experiments/knapen_aot/videos/R_S_OdxWh1oU8e8_1.mp4	0.0	123.52191114425659	0.10001707077026367
27	71.13464498519897	fix_pre	0		32.0	25.0	2.5	/experiments/knapen_aot/videos/R_S_yt-2XRGfGc0q44_37.mp4	0.0	123.62192821502686	0.26711392402648926
27	71.38553285598755	response	0	2		25.0	2.5	/experiments/knapen_aot/videos/R_S_yt-2XRGfGc0q44_37.mp4	0.0	123.87281608581543	
27	71.40175890922546	movie	1		301.0	25.0	2.5	/experiments/knapen_aot/videos/R_S_yt-2XRGfGc0q44_37.mp4	0.0	123.88904213905334	2.5078799724578857
27	73.90963888168335	fix_post	2		12.0	25.0	2.5	/experiments/knapen_aot/videos/R_S_yt-2XRGfGc0q44_37.mp4	0.0	126.39692211151123	0.10002803802490234
28	74.00966691970825	fix_pre	0		21.0	26.0	2.5	/experiments/knapen_aot/videos/R_S_yt-ZTAaH5XbtfE_3.mp4	0.0	126.49695014953613	0.17488503456115723
28	74.17639994621277	response	0	2		26.0	2.5	/experiments/knapen_aot/videos/R_S_yt-ZTAaH5XbtfE_3.mp4	0.0	126.66368317604065	
28	74.18455195426941	movie	1		301.0	26.0	2.5	/experiments/knapen_aot/videos/R_S_yt-ZTAaH5XbtfE_3.mp4	0.0	126.67183518409729	2.5083909034729004
28	76.69294285774231	fix_post	2		12.0	26.0	2.5	/experiments/knapen_aot/videos/R_S_yt-ZTAaH5XbtfE_3.mp4	0.0	129.1802260875702	0.1000361442565918
29	76.7929790019989	fix_pre	0		26.0	27.0	2.5	/experiments/knapen_aot/videos/S_yt-vY49oIv_dWg_73.mp4	0.0	129.28026223182678	0.21665287017822266
29	77.00149893760681	response	0	2		27.0	2.5	/experiments/knapen_aot/videos/S_yt-vY49oIv_dWg_73.mp4	0.0	129.4887821674347	
29	77.00963187217712	movie	1		301.0	27.0	2.5	/experiments/knapen_aot/videos/S_yt-vY49oIv_dWg_73.mp4	0.0	129.496915102005	2.5083000659942627
29	79.51793193817139	fix_post	2		12.0	27.0	2.5	/experiments/knapen_aot/videos/S_yt-vY49oIv_dWg_73.mp4	0.0	132.00521516799927	0.0999600887298584
30	79.61789202690125	fix_pre	0		21.0	28.0	2.5	blank	1.0	132.10517525672913	0.17503786087036133
30	79.78466892242432	response	0	2		28.0	2.5	blank	1.0	132.2719521522522	
30	79.7929298877716	movie	1		301.0	28.0	2.5	blank	1.0	132.2802131175995	2.508373975753784
30	80.96799397468567	response	1	2		28.0	2.5	blank	1.0	133.45527720451355	
30	81.60131001472473	response	1	2		28.0	2.5	blank	1.0	134.0885932445526	
30	81.88463687896729	response	1	2		28.0	2.5	blank	1.0	134.37192010879517	
30	82.14291906356812	response	1	2		28.0	2.5	blank	1.0	134.630202293396	
30	82.30130386352539	fix_post	2		12.0	28.0	2.5	blank	1.0	134.78858709335327	0.10001206398010254
30	82.3771059513092	response	2	2		28.0	2.5	blank	1.0	134.86438918113708	
31	82.4013159275055	fix_pre	0		24.0	29.0	2.5	/experiments/knapen_aot/videos/R_S_ILSVRC2015_train_00434000.mp4	0.0	134.88859915733337	0.1999220848083496
31	82.59298396110535	response	0	2		29.0	2.5	/experiments/knapen_aot/videos/R_S_ILSVRC2015_train_00434000.mp4	0.0	135.08026719093323	
31	82.60123801231384	movie	1		301.0	29.0	2.5	/experiments/knapen_aot/videos/R_S_ILSVRC2015_train_00434000.mp4	0.0	135.08852124214172	2.508373975753784
31	85.10961198806763	fix_post	2		12.0	29.0	2.5	/experiments/knapen_aot/videos/R_S_ILSVRC2015_train_00434000.mp4	0.0	137.5968952178955	0.09996199607849121
31	85.18479585647583	response	2	2		29.0	2.5	/experiments/knapen_aot/videos/R_S_ILSVRC2015_train_00434000.mp4	0.0	137.6720790863037	
32	85.20957398414612	fix_pre	0		44.0	30.0	2.5	/experiments/knapen_aot/videos/R_S_production_ID_4360158.mp4	0.0	137.696857213974	0.36667609214782715
32	85.56802201271057	response	0	2		30.0	2.5	/experiments/knapen_aot/videos/R_S_production_ID_4360158.mp4	0.0	138.05530524253845	
32	85.57625007629395	movie	1		163.0	30.0	2.5	/experiments/knapen_aot/videos/R_S_production_ID_4360158.mp4	0.0	138.06353330612183	2.5083558559417725
32	88.08460593223572	fix_post	2		12.0	30.0	2.5	/experiments/knapen_aot/videos/R_S_production_ID_4360158.mp4	0.0	140.5718891620636	0.09998893737792969
33	88.18459486961365	fix_pre	0		6.0	31.0	2.5	/experiments/knapen_aot/videos/S_g201_WH_D004_L014_SDR_20191031_SDR_2K_AVC.mp4	0.0	140.67187809944153	0.050353050231933594
33	88.2264518737793	response	0	2		31.0	2.5	/experiments/knapen_aot/videos/S_g201_WH_D004_L014_SDR_20191031_SDR_2K_AVC.mp4	0.0	140.71373510360718	
33	88.23494791984558	movie	1		162.0	31.0	2.5	/experiments/knapen_aot/videos/S_g201_WH_D004_L014_SDR_20191031_SDR_2K_AVC.mp4	0.0	140.72223114967346	2.508056163787842
33	90.74300408363342	fix_post	2		12.0	31.0	2.5	/experiments/knapen_aot/videos/S_g201_WH_D004_L014_SDR_20191031_SDR_2K_AVC.mp4	0.0	143.2302873134613	0.09990286827087402
34	90.8429069519043	fix_pre	0		8.0	32.0	2.5	/experiments/knapen_aot/videos/R_S_yt-xQPKYWDRy2A_491.mp4	0.0	143.33019018173218	0.06657695770263672
34	90.90132308006287	response	0	2		32.0	2.5	/experiments/knapen_aot/videos/R_S_yt-xQPKYWDRy2A_491.mp4	0.0	143.38860630989075	
34	90.90948390960693	movie	1		301.0	32.0	2.5	/experiments/knapen_aot/videos/R_S_yt-xQPKYWDRy2A_491.mp4	0.0	143.39676713943481	2.5083940029144287
34	93.41787791252136	fix_post	2		12.0	32.0	2.5	/experiments/knapen_aot/videos/R_S_yt-xQPKYWDRy2A_491.mp4	0.0	145.90516114234924	0.0999910831451416
35	93.5178689956665	fix_pre	0		5.0	33.0	2.5	/experiments/knapen_aot/videos/S_comp_GMT329_113NC_396B_1105_CHINA_v04_SDR_FINAL_20180706_F900F2700_SDR_2K_AVC.mp4	0.0	146.00515222549438	0.04168105125427246
35	93.55133891105652	response	0	2		33.0	2.5	/experiments/knapen_aot/videos/S_comp_GMT329_113NC_396B_1105_CHINA_v04_SDR_FINAL_20180706_F900F2700_SDR_2K_AVC.mp4	0.0	146.0386221408844	
35	93.55955004692078	movie	1		162.0	33.0	2.5	/experiments/knapen_aot/videos/S_comp_GMT329_113NC_396B_1105_CHINA_v04_SDR_FINAL_20180706_F900F2700_SDR_2K_AVC.mp4	0.0	146.04683327674866	2.508281946182251
35	96.06783199310303	fix_post	2		12.0	33.0	2.5	/experiments/knapen_aot/videos/S_comp_GMT329_113NC_396B_1105_CHINA_v04_SDR_FINAL_20180706_F900F2700_SDR_2K_AVC.mp4	0.0	148.5551152229309	0.10013198852539062
36	96.16796398162842	fix_pre	0		14.0	34.0	2.5	blank	1.0	148.6552472114563	0.11655402183532715
36	96.2687599658966	response	0	2		34.0	2.5	blank	1.0	148.7560431957245	
36	96.28451800346375	movie	1		301.0	34.0	2.5	blank	1.0	148.77180123329163	2.5083470344543457
36	96.43465089797974	response	1	2		34.0	2.5	blank	1.0	148.92193412780762	
36	98.79286503791809	fix_post	2		12.0	34.0	2.5	blank	1.0	151.28014826774597	0.10001087188720703
37	98.8928759098053	fix_pre	0		35.0	35.0	2.5	/experiments/knapen_aot/videos/S_yt-l_pvPAznG1A_20.mp4	0.0	151.38015913963318	0.2916381359100342
37	99.17626190185547	response	0	2		35.0	2.5	/experiments/knapen_aot/videos/S_yt-l_pvPAznG1A_20.mp4	0.0	151.66354513168335	
37	99.18451404571533	movie	1		301.0	35.0	2.5	/experiments/knapen_aot/videos/S_yt-l_pvPAznG1A_20.mp4	0.0	151.6717972755432	2.5083389282226562
37	101.69285297393799	fix_post	2		12.0	35.0	2.5	/experiments/knapen_aot/videos/S_yt-l_pvPAznG1A_20.mp4	0.0	154.18013620376587	0.10000801086425781
38	101.79286098480225	fix_pre	0		22.0	36.0	2.5	/experiments/knapen_aot/videos/R_S_yt-2l6VKd94eAI_151.mp4	0.0	154.28014421463013	0.18332195281982422
38	101.96795105934143	response	0	2		36.0	2.5	/experiments/knapen_aot/videos/R_S_yt-2l6VKd94eAI_151.mp4	0.0	154.4552342891693	
38	101.97618293762207	movie	1		301.0	36.0	2.5	/experiments/knapen_aot/videos/R_S_yt-2l6VKd94eAI_151.mp4	0.0	154.46346616744995	2.5083389282226562
38	104.48452186584473	fix_post	2		12.0	36.0	2.5	/experiments/knapen_aot/videos/R_S_yt-2l6VKd94eAI_151.mp4	0.0	156.9718050956726	0.09992408752441406
39	104.58444595336914	fix_pre	0		13.0	37.0	2.5	/experiments/knapen_aot/videos/S_ILSVRC2015_train_00682007.mp4	0.0	157.07172918319702	0.10871005058288574
39	104.68456602096558	response	0	2		37.0	2.5	/experiments/knapen_aot/videos/S_ILSVRC2015_train_00682007.mp4	0.0	157.17184925079346	
39	104.69315600395203	movie	1		301.0	37.0	2.5	/experiments/knapen_aot/videos/S_ILSVRC2015_train_00682007.mp4	0.0	157.1804392337799	2.5079939365386963
39	107.20114994049072	fix_post	2		12.0	37.0	2.5	/experiments/knapen_aot/videos/S_ILSVRC2015_train_00682007.mp4	0.0	159.6884331703186	0.1000509262084961
40	107.30120086669922	fix_pre	0		16.0	38.0	2.5	/experiments/knapen_aot/videos/S_yt-R0gFQo85cAE_5.mp4	0.0	159.7884840965271	0.13334107398986816
40	107.4261999130249	response	0	2		38.0	2.5	/experiments/knapen_aot/videos/S_yt-R0gFQo85cAE_5.mp4	0.0	159.91348314285278	
40	107.43454194068909	movie	1		301.0	38.0	2.5	/experiments/knapen_aot/videos/S_yt-R0gFQo85cAE_5.mp4	0.0	159.92182517051697	2.50826096534729
40	109.94280290603638	fix_post	2		12.0	38.0	2.5	/experiments/knapen_aot/videos/S_yt-R0gFQo85cAE_5.mp4	0.0	162.43008613586426	0.10003900527954102
41	110.04284191131592	fix_pre	0		7.0	39.0	2.5	/experiments/knapen_aot/videos/S_yt-VrEuTDQxtD0_226.mp4	0.0	162.5301251411438	0.058274030685424805
41	110.09286594390869	response	0	2		39.0	2.5	/experiments/knapen_aot/videos/S_yt-VrEuTDQxtD0_226.mp4	0.0	162.58014917373657	
41	110.10111594200134	movie	1		301.0	39.0	2.5	/experiments/knapen_aot/videos/S_yt-VrEuTDQxtD0_226.mp4	0.0	162.58839917182922	2.5082740783691406
41	112.60939002037048	fix_post	2		12.0	39.0	2.5	/experiments/knapen_aot/videos/S_yt-VrEuTDQxtD0_226.mp4	0.0	165.09667325019836	0.10027885437011719
42	112.7096688747406	fix_pre	0		14.0	40.0	2.5	blank	1.0	165.19695210456848	0.11647319793701172
42	112.8179099559784	response	0	2		40.0	2.5	blank	1.0	165.30519318580627	
42	112.82614207267761	movie	1		301.0	40.0	2.5	blank	1.0	165.3134253025055	2.5083389282226562
42	115.33448100090027	fix_post	2		12.0	40.0	2.5	blank	1.0	167.82176423072815	0.1001429557800293
43	115.4346239566803	fix_pre	0		23.0	41.0	2.5	/experiments/knapen_aot/videos/R_S_video_inspire_oregon_lone-ranch-beach_00021.1080-h264.mp4	0.0	167.92190718650818	0.19147300720214844
43	115.61785697937012	response	0	2		41.0	2.5	/experiments/knapen_aot/videos/R_S_video_inspire_oregon_lone-ranch-beach_00021.1080-h264.mp4	0.0	168.105140209198	
43	115.62609696388245	movie	1		170.0	41.0	2.5	/experiments/knapen_aot/videos/R_S_video_inspire_oregon_lone-ranch-beach_00021.1080-h264.mp4	0.0	168.11338019371033	2.5083370208740234
43	118.13443398475647	fix_post	2		12.0	41.0	2.5	/experiments/knapen_aot/videos/R_S_video_inspire_oregon_lone-ranch-beach_00021.1080-h264.mp4	0.0	170.62171721458435	0.10033392906188965
44	118.23476791381836	fix_pre	0		15.0	42.0	2.5	/experiments/knapen_aot/videos/S_production_ID_4802716.mp4	0.0	170.72205114364624	0.12493896484375
44	118.35125589370728	response	0	2		42.0	2.5	/experiments/knapen_aot/videos/S_production_ID_4802716.mp4	0.0	170.83853912353516	
44	118.35970687866211	movie	1		165.0	42.0	2.5	/experiments/knapen_aot/videos/S_production_ID_4802716.mp4	0.0	170.84699010849	2.5080580711364746
44	120.82617592811584	response	1	2		42.0	2.5	/experiments/knapen_aot/videos/S_production_ID_4802716.mp4	0.0	173.31345915794373	
44	120.86776494979858	fix_post	2		12.0	42.0	2.5	/experiments/knapen_aot/videos/S_production_ID_4802716.mp4	0.0	173.35504817962646	0.09995293617248535
45	120.96771788597107	fix_pre	0		32.0	43.0	2.5	/experiments/knapen_aot/videos/S_yt-2l6VKd94eAI_151.mp4	0.0	173.45500111579895	0.2668800354003906
45	121.22616195678711	response	0	2		43.0	2.5	/experiments/knapen_aot/videos/S_yt-2l6VKd94eAI_151.mp4	0.0	173.713445186615	
45	121.23459792137146	movie	1		301.0	43.0	2.5	/experiments/knapen_aot/videos/S_yt-2l6VKd94eAI_151.mp4	0.0	173.72188115119934	2.508207082748413
45	123.74280500411987	fix_post	2		12.0	43.0	2.5	/experiments/knapen_aot/videos/S_yt-2l6VKd94eAI_151.mp4	0.0	176.23008823394775	0.09995102882385254
46	123.84275603294373	fix_pre	0		19.0	44.0	2.5	/experiments/knapen_aot/videos/R_S_yt-mJzkLd3Mr_c_35.mp4	0.0	176.3300392627716	0.15828895568847656
46	123.99275803565979	response	0	2		44.0	2.5	/experiments/knapen_aot/videos/R_S_yt-mJzkLd3Mr_c_35.mp4	0.0	176.48004126548767	
46	124.0010449886322	movie	1		301.0	44.0	2.5	/experiments/knapen_aot/videos/R_S_yt-mJzkLd3Mr_c_35.mp4	0.0	176.48832821846008	2.5084710121154785
46	126.50951600074768	fix_post	2		12.0	44.0	2.5	/experiments/knapen_aot/videos/R_S_yt-mJzkLd3Mr_c_35.mp4	0.0	178.99679923057556	0.10013294219970703
47	126.60964894294739	fix_pre	0		21.0	45.0	2.5	/experiments/knapen_aot/videos/S_yt-BW6jWEVbxxk_4.mp4	0.0	179.09693217277527	0.17482209205627441
47	126.776113986969	response	0	2		45.0	2.5	/experiments/knapen_aot/videos/S_yt-BW6jWEVbxxk_4.mp4	0.0	179.26339721679688	
47	126.78447103500366	movie	1		301.0	45.0	2.5	/experiments/knapen_aot/videos/S_yt-BW6jWEVbxxk_4.mp4	0.0	179.27175426483154	2.5083279609680176
47	129.29279899597168	fix_post	2		12.0	45.0	2.5	/experiments/knapen_aot/videos/S_yt-BW6jWEVbxxk_4.mp4	0.0	181.78008222579956	0.09992408752441406
48	129.3927230834961	fix_pre	0		19.0	46.0	2.5	/experiments/knapen_aot/videos/R_S_pexels-pavel-danilyuk-8057714.mp4	0.0	181.88000631332397	0.1583099365234375
48	129.5427269935608	response	0	2		46.0	2.5	/experiments/knapen_aot/videos/R_S_pexels-pavel-danilyuk-8057714.mp4	0.0	182.03001022338867	
48	129.55103302001953	movie	1		171.0	46.0	2.5	/experiments/knapen_aot/videos/R_S_pexels-pavel-danilyuk-8057714.mp4	0.0	182.0383162498474	2.5084550380706787
48	132.0594880580902	fix_post	2		12.0	46.0	2.5	/experiments/knapen_aot/videos/R_S_pexels-pavel-danilyuk-8057714.mp4	0.0	184.5467712879181	0.09989690780639648
49	132.1593849658966	fix_pre	0		6.0	47.0	2.5	blank	1.0	184.6466681957245	0.04996299743652344
49	132.20118403434753	response	0	2		47.0	2.5	blank	1.0	184.68846726417542	
49	132.20934796333313	movie	1		301.0	47.0	2.5	blank	1.0	184.696631193161	2.5083329677581787
49	134.7176809310913	fix_post	2		12.0	47.0	2.5	blank	1.0	187.2049641609192	0.10064411163330078
50	134.8183250427246	fix_pre	0		65.0	48.0	2.5	/experiments/knapen_aot/videos/S_ILSVRC2015_train_00556000.mp4	0.0	187.3056082725525	0.5411770343780518
50	135.35116291046143	response	0	2		48.0	2.5	/experiments/knapen_aot/videos/S_ILSVRC2015_train_00556000.mp4	0.0	187.8384461402893	
50	135.35950207710266	movie	1		301.0	48.0	2.5	/experiments/knapen_aot/videos/S_ILSVRC2015_train_00556000.mp4	0.0	187.84678530693054	2.508190870285034
50	137.8676929473877	fix_post	2		12.0	48.0	2.5	/experiments/knapen_aot/videos/S_ILSVRC2015_train_00556000.mp4	0.0	190.35497617721558	0.0999751091003418
51	137.96766805648804	fix_pre	0		11.0	49.0	2.5	/experiments/knapen_aot/videos/S_yt-LB9LoYfH_EA_15.mp4	0.0	190.45495128631592	0.09164690971374512
51	138.0435700416565	response	0	2		49.0	2.5	/experiments/knapen_aot/videos/S_yt-LB9LoYfH_EA_15.mp4	0.0	190.53085327148438	
51	138.05931496620178	movie	1		301.0	49.0	2.5	/experiments/knapen_aot/videos/S_yt-LB9LoYfH_EA_15.mp4	0.0	190.54659819602966	2.508910894393921
51	140.5682258605957	fix_post	2		12.0	49.0	2.5	/experiments/knapen_aot/videos/S_yt-LB9LoYfH_EA_15.mp4	0.0	193.05550909042358	0.0994710922241211
52	140.66769695281982	fix_pre	0		18.0	50.0	2.5	/experiments/knapen_aot/videos/R_S_yt-JTBXPfbkjsA_11.mp4	0.0	193.1549801826477	0.15019798278808594
52	140.8094720840454	response	0	2		50.0	2.5	/experiments/knapen_aot/videos/R_S_yt-JTBXPfbkjsA_11.mp4	0.0	193.2967553138733	
52	140.8178949356079	movie	1		301.0	50.0	2.5	/experiments/knapen_aot/videos/R_S_yt-JTBXPfbkjsA_11.mp4	0.0	193.3051781654358	2.508018970489502
52	143.3259139060974	fix_post	2		12.0	50.0	2.5	/experiments/knapen_aot/videos/R_S_yt-JTBXPfbkjsA_11.mp4	0.0	195.8131971359253	0.10012006759643555
53	143.42603397369385	fix_pre	0		11.0	51.0	2.5	/experiments/knapen_aot/videos/R_S_ILSVRC2015_train_00274003.mp4	0.0	195.91331720352173	0.09162092208862305
53	143.5093879699707	response	0	2		51.0	2.5	/experiments/knapen_aot/videos/R_S_ILSVRC2015_train_00274003.mp4	0.0	195.99667119979858	
53	143.51765489578247	movie	1		301.0	51.0	2.5	/experiments/knapen_aot/videos/R_S_ILSVRC2015_train_00274003.mp4	0.0	196.00493812561035	2.5084681510925293
53	146.026123046875	fix_post	2		12.0	51.0	2.5	/experiments/knapen_aot/videos/R_S_ILSVRC2015_train_00274003.mp4	0.0	198.51340627670288	0.0998380184173584
54	146.12596106529236	fix_pre	0		10.0	52.0	2.5	/experiments/knapen_aot/videos/R_S_yt-3roniRu6w58_10.mp4	0.0	198.61324429512024	0.08332085609436035
54	146.20107793807983	response	0	2		52.0	2.5	/experiments/knapen_aot/videos/R_S_yt-3roniRu6w58_10.mp4	0.0	198.68836116790771	
54	146.20928192138672	movie	1		301.0	52.0	2.5	/experiments/knapen_aot/videos/R_S_yt-3roniRu6w58_10.mp4	0.0	198.6965651512146	2.5083651542663574
54	148.71764707565308	fix_post	2		12.0	52.0	2.5	/experiments/knapen_aot/videos/R_S_yt-3roniRu6w58_10.mp4	0.0	201.20493030548096	0.1001439094543457
55	148.81779098510742	fix_pre	0		28.0	53.0	2.5	/experiments/knapen_aot/videos/R_S_ILSVRC2015_train_00682007.mp4	0.0	201.3050742149353	0.23313689231872559
55	149.04278802871704	response	0	2		53.0	2.5	/experiments/knapen_aot/videos/R_S_ILSVRC2015_train_00682007.mp4	0.0	201.53007125854492	
55	149.05092787742615	movie	1		301.0	53.0	2.5	/experiments/knapen_aot/videos/R_S_ILSVRC2015_train_00682007.mp4	0.0	201.53821110725403	2.5083560943603516
55	151.5592839717865	fix_post	2		12.0	53.0	2.5	/experiments/knapen_aot/videos/R_S_ILSVRC2015_train_00682007.mp4	0.0	204.04656720161438	0.0999898910522461
55	151.62675595283508	response	2	2		53.0	2.5	/experiments/knapen_aot/videos/R_S_ILSVRC2015_train_00682007.mp4	0.0	204.11403918266296	
56	151.65927386283875	fix_pre	0		48.0	54.0	2.5	blank	1.0	204.14655709266663	0.3999810218811035
56	152.05102705955505	response	0	2		54.0	2.5	blank	1.0	204.53831028938293	
56	152.05925488471985	movie	1		301.0	54.0	2.5	blank	1.0	204.54653811454773	2.5084681510925293
56	154.56772303581238	fix_post	2		12.0	54.0	2.5	blank	1.0	207.05500626564026	0.0998530387878418
57	154.66757607460022	fix_pre	0		33.0	55.0	2.5	/experiments/knapen_aot/videos/S_yt-4wjGeLyvfjY_223.mp4	0.0	207.1548593044281	0.2750248908996582
57	154.9343900680542	response	0	2		55.0	2.5	/experiments/knapen_aot/videos/S_yt-4wjGeLyvfjY_223.mp4	0.0	207.42167329788208	
57	154.94260096549988	movie	1		301.0	55.0	2.5	/experiments/knapen_aot/videos/S_yt-4wjGeLyvfjY_223.mp4	0.0	207.42988419532776	2.508359909057617
57	157.4509608745575	fix_post	2		12.0	55.0	2.5	/experiments/knapen_aot/videos/S_yt-4wjGeLyvfjY_223.mp4	0.0	209.93824410438538	0.10001611709594727
58	157.55097699165344	fix_pre	0		29.0	56.0	2.5	/experiments/knapen_aot/videos/S_yt-osz-TXlRdXs_2.mp4	0.0	210.03826022148132	0.24153995513916016
58	157.78438687324524	response	0	2		56.0	2.5	/experiments/knapen_aot/videos/S_yt-osz-TXlRdXs_2.mp4	0.0	210.27167010307312	
58	157.7925169467926	movie	1		301.0	56.0	2.5	/experiments/knapen_aot/videos/S_yt-osz-TXlRdXs_2.mp4	0.0	210.27980017662048	2.5083909034729004
58	160.3009078502655	fix_post	2		12.0	56.0	2.5	/experiments/knapen_aot/videos/S_yt-osz-TXlRdXs_2.mp4	0.0	212.78819108009338	0.10014700889587402
59	160.40105485916138	fix_pre	0		22.0	57.0	2.5	/experiments/knapen_aot/videos/R_S_yt-TZ107yBhXoA_1.mp4	0.0	212.88833808898926	0.1831340789794922
59	160.57599806785583	response	0	2		57.0	2.5	/experiments/knapen_aot/videos/R_S_yt-TZ107yBhXoA_1.mp4	0.0	213.06328129768372	
59	160.58418893814087	movie	1		301.0	57.0	2.5	/experiments/knapen_aot/videos/R_S_yt-TZ107yBhXoA_1.mp4	0.0	213.07147216796875	2.5085179805755615
59	163.09270691871643	fix_post	2		12.0	57.0	2.5	/experiments/knapen_aot/videos/R_S_yt-TZ107yBhXoA_1.mp4	0.0	215.5799901485443	0.09993410110473633
60	163.19264101982117	fix_pre	0		31.0	58.0	2.5	/experiments/knapen_aot/videos/R_S_ILSVRC2015_train_00743001.mp4	0.0	215.67992424964905	0.2582709789276123
60	163.44266486167908	response	0	2		58.0	2.5	/experiments/knapen_aot/videos/R_S_ILSVRC2015_train_00743001.mp4	0.0	215.92994809150696	
60	163.45091199874878	movie	1		301.0	58.0	2.5	/experiments/knapen_aot/videos/R_S_ILSVRC2015_train_00743001.mp4	0.0	215.93819522857666	2.50832200050354
60	165.95923399925232	fix_post	2		12.0	58.0	2.5	/experiments/knapen_aot/videos/R_S_ILSVRC2015_train_00743001.mp4	0.0	218.4465172290802	0.10003185272216797
61	166.0592658519745	fix_pre	0		29.0	59.0	2.5	/experiments/knapen_aot/videos/S_comp_A103_C002_0205DG_v12_SDR_FINAL_20180706_SDR_2K_AVC.mp4	0.0	218.54654908180237	0.241591215133667
61	166.29265189170837	response	0	2		59.0	2.5	/experiments/knapen_aot/videos/S_comp_A103_C002_0205DG_v12_SDR_FINAL_20180706_SDR_2K_AVC.mp4	0.0	218.77993512153625	
61	166.30085706710815	movie	1		165.0	59.0	2.5	/experiments/knapen_aot/videos/S_comp_A103_C002_0205DG_v12_SDR_FINAL_20180706_SDR_2K_AVC.mp4	0.0	218.78814029693604	2.50834584236145
61	168.8092029094696	fix_post	2		12.0	59.0	2.5	/experiments/knapen_aot/videos/S_comp_A103_C002_0205DG_v12_SDR_FINAL_20180706_SDR_2K_AVC.mp4	0.0	221.29648613929749	0.0999460220336914
62	168.9091489315033	fix_pre	0		22.0	60.0	2.5	/experiments/knapen_aot/videos/R_S_yt-osz-TXlRdXs_2.mp4	0.0	221.39643216133118	0.18335199356079102
62	169.08426690101624	response	0	2		60.0	2.5	/experiments/knapen_aot/videos/R_S_yt-osz-TXlRdXs_2.mp4	0.0	221.57155013084412	
62	169.0925009250641	movie	1		301.0	60.0	2.5	/experiments/knapen_aot/videos/R_S_yt-osz-TXlRdXs_2.mp4	0.0	221.57978415489197	2.5083229541778564
62	171.53443002700806	response	1	2		60.0	2.5	/experiments/knapen_aot/videos/R_S_yt-osz-TXlRdXs_2.mp4	0.0	224.02171325683594	
62	171.60082387924194	fix_post	2		12.0	60.0	2.5	/experiments/knapen_aot/videos/R_S_yt-osz-TXlRdXs_2.mp4	0.0	224.08810710906982	0.10005307197570801
63	171.70087695121765	fix_pre	0		21.0	61.0	2.5	/experiments/knapen_aot/videos/R_S_yt-GWgG8PVM1iw_34.mp4	0.0	224.18816018104553	0.17493700981140137
63	171.86756491661072	response	0	2		61.0	2.5	/experiments/knapen_aot/videos/R_S_yt-GWgG8PVM1iw_34.mp4	0.0	224.3548481464386	
63	171.87581396102905	movie	1		301.0	61.0	2.5	/experiments/knapen_aot/videos/R_S_yt-GWgG8PVM1iw_34.mp4	0.0	224.36309719085693	2.5083649158477783
63	174.38417887687683	fix_post	2		12.0	61.0	2.5	/experiments/knapen_aot/videos/R_S_yt-GWgG8PVM1iw_34.mp4	0.0	226.8714621067047	0.10001111030578613
64	174.48418998718262	fix_pre	0		17.0	62.0	2.5	/experiments/knapen_aot/videos/S_yt-zgkJCgcT1s4_300.mp4	0.0	226.9714732170105	0.1415998935699463
64	174.61760187149048	response	0	2		62.0	2.5	/experiments/knapen_aot/videos/S_yt-zgkJCgcT1s4_300.mp4	0.0	227.10488510131836	
64	174.62578988075256	movie	1		301.0	62.0	2.5	/experiments/knapen_aot/videos/S_yt-zgkJCgcT1s4_300.mp4	0.0	227.11307311058044	2.50833797454834
64	177.1341278553009	fix_post	2		12.0	62.0	2.5	/experiments/knapen_aot/videos/S_yt-zgkJCgcT1s4_300.mp4	0.0	229.62141108512878	0.10009312629699707
65	177.2342209815979	fix_pre	0		31.0	63.0	2.5	blank	1.0	229.72150421142578	0.25823497772216797
65	177.48429989814758	response	0	2		63.0	2.5	blank	1.0	229.97158312797546	
65	177.49245595932007	movie	1		301.0	63.0	2.5	blank	1.0	229.97973918914795	2.5084080696105957
65	180.00086402893066	fix_post	2		12.0	63.0	2.5	blank	1.0	232.48814725875854	0.09990286827087402
66	180.10076689720154	fix_pre	0		35.0	64.0	2.5	/experiments/knapen_aot/videos/S_yt-3DM_SqT4RII_10.mp4	0.0	232.58805012702942	0.2917780876159668
66	180.38427996635437	response	0	2		64.0	2.5	/experiments/knapen_aot/videos/S_yt-3DM_SqT4RII_10.mp4	0.0	232.87156319618225	
66	180.3925449848175	movie	1		301.0	64.0	2.5	/experiments/knapen_aot/videos/S_yt-3DM_SqT4RII_10.mp4	0.0	232.87982821464539	2.5083658695220947
66	182.9009108543396	fix_post	2		12.0	64.0	2.5	/experiments/knapen_aot/videos/S_yt-3DM_SqT4RII_10.mp4	0.0	235.38819408416748	0.10004901885986328
67	183.00095987319946	fix_pre	0		14.0	65.0	2.5	/experiments/knapen_aot/videos/S_yt-Gokv9ZtV6zo_70.mp4	0.0	235.48824310302734	0.11646199226379395
67	183.1092278957367	response	0	2		65.0	2.5	/experiments/knapen_aot/videos/S_yt-Gokv9ZtV6zo_70.mp4	0.0	235.59651112556458	
67	183.11742186546326	movie	1		301.0	65.0	2.5	/experiments/knapen_aot/videos/S_yt-Gokv9ZtV6zo_70.mp4	0.0	235.60470509529114	2.5083811283111572
67	185.6258029937744	fix_post	2		12.0	65.0	2.5	/experiments/knapen_aot/videos/S_yt-Gokv9ZtV6zo_70.mp4	0.0	238.1130862236023	0.09992790222167969
68	185.7257308959961	fix_pre	0		26.0	66.0	2.5	/experiments/knapen_aot/videos/R_S_ILSVRC2015_train_00434000.mp4	0.0	238.21301412582397	0.2167201042175293
68	185.93424892425537	response	0	2		66.0	2.5	/experiments/knapen_aot/videos/R_S_ILSVRC2015_train_00434000.mp4	0.0	238.42153215408325	
68	185.94245100021362	movie	1		301.0	66.0	2.5	/experiments/knapen_aot/videos/R_S_ILSVRC2015_train_00434000.mp4	0.0	238.4297342300415	2.5085039138793945
68	186.11759185791016	response	1	2		66.0	2.5	/experiments/knapen_aot/videos/R_S_ILSVRC2015_train_00434000.mp4	0.0	238.60487508773804	
68	188.45095491409302	fix_post	2		12.0	66.0	2.5	/experiments/knapen_aot/videos/R_S_ILSVRC2015_train_00434000.mp4	0.0	240.9382381439209	0.10007095336914062
69	188.55102586746216	fix_pre	0		8.0	67.0	2.5	/experiments/knapen_aot/videos/S_ILSVRC2015_train_00473000.mp4	0.0	241.03830909729004	0.06639909744262695
69	188.609277009964	response	0	2		67.0	2.5	/experiments/knapen_aot/videos/S_ILSVRC2015_train_00473000.mp4	0.0	241.09656023979187	
69	188.61742496490479	movie	1		301.0	67.0	2.5	/experiments/knapen_aot/videos/S_ILSVRC2015_train_00473000.mp4	0.0	241.10470819473267	2.508371114730835
69	190.9354739189148	response	1	2		67.0	2.5	/experiments/knapen_aot/videos/S_ILSVRC2015_train_00473000.mp4	0.0	243.42275714874268	
69	191.12579607963562	fix_post	2		12.0	67.0	2.5	/experiments/knapen_aot/videos/S_ILSVRC2015_train_00473000.mp4	0.0	243.6130793094635	0.10032296180725098
70	191.22611904144287	fix_pre	0		11.0	68.0	2.5	/experiments/knapen_aot/videos/S_production_ID_4360158.mp4	0.0	243.71340227127075	0.09132599830627441
70	191.3092029094696	response	0	2		68.0	2.5	/experiments/knapen_aot/videos/S_production_ID_4360158.mp4	0.0	243.79648613929749	
70	191.31744503974915	movie	1		165.0	68.0	2.5	/experiments/knapen_aot/videos/S_production_ID_4360158.mp4	0.0	243.80472826957703	2.5082719326019287
70	193.82571697235107	fix_post	2		12.0	68.0	2.5	/experiments/knapen_aot/videos/S_production_ID_4360158.mp4	0.0	246.31300020217896	0.10005903244018555
71	193.92577600479126	fix_pre	0		14.0	69.0	2.5	blank	1.0	246.41305923461914	0.11656904220581055
71	194.03421807289124	response	0	2		69.0	2.5	blank	1.0	246.52150130271912	
71	194.04234504699707	movie	1		301.0	69.0	2.5	blank	1.0	246.52962827682495	2.5085229873657227
71	196.4925708770752	response	1	2		69.0	2.5	blank	1.0	248.97985410690308	
71	196.5508680343628	fix_post	2		12.0	69.0	2.5	blank	1.0	249.03815126419067	0.09987187385559082
72	196.65073990821838	fix_pre	0		9.0	70.0	2.5	/experiments/knapen_aot/videos/S_ILSVRC2015_train_00479001.mp4	0.0	249.13802313804626	0.07502412796020508
72	196.71005606651306	response	0	2		70.0	2.5	/experiments/knapen_aot/videos/S_ILSVRC2015_train_00479001.mp4	0.0	249.19733929634094	
72	196.7257640361786	movie	1		301.0	70.0	2.5	/experiments/knapen_aot/videos/S_ILSVRC2015_train_00479001.mp4	0.0	249.21304726600647	2.5083329677581787
72	199.23409700393677	fix_post	2		12.0	70.0	2.5	/experiments/knapen_aot/videos/S_ILSVRC2015_train_00479001.mp4	0.0	251.72138023376465	0.10002303123474121
73	199.3341200351715	fix_pre	0		65.0	71.0	2.5	/experiments/knapen_aot/videos/R_S_yt-Fm97IY0Z2LU_110.mp4	0.0	251.8214032649994	0.5415568351745605
73	199.86747407913208	response	0	2		71.0	2.5	/experiments/knapen_aot/videos/R_S_yt-Fm97IY0Z2LU_110.mp4	0.0	252.35475730895996	
73	199.87567687034607	movie	1		301.0	71.0	2.5	/experiments/knapen_aot/videos/R_S_yt-Fm97IY0Z2LU_110.mp4	0.0	252.36296010017395	2.5083720684051514
73	202.38404893875122	fix_post	2		12.0	71.0	2.5	/experiments/knapen_aot/videos/R_S_yt-Fm97IY0Z2LU_110.mp4	0.0	254.8713321685791	0.10003805160522461
74	202.48408699035645	fix_pre	0		69.0	72.0	2.5	/experiments/knapen_aot/videos/R_S_yt-OFbbvxTLrtM_132.mp4	0.0	254.97137022018433	0.576225996017456
74	203.0508749485016	response	0	2		72.0	2.5	/experiments/knapen_aot/videos/R_S_yt-OFbbvxTLrtM_132.mp4	0.0	255.53815817832947	
74	203.0603129863739	movie	1		301.0	72.0	2.5	/experiments/knapen_aot/videos/R_S_yt-OFbbvxTLrtM_132.mp4	0.0	255.54759621620178	2.5070960521698
74	205.5674090385437	fix_post	2		12.0	72.0	2.5	/experiments/knapen_aot/videos/R_S_yt-OFbbvxTLrtM_132.mp4	0.0	258.0546922683716	0.10003185272216797
75	205.66744089126587	fix_pre	0		20.0	73.0	2.5	/experiments/knapen_aot/videos/R_S_comp_LA_A006_C004_v01_SDR_FINAL_PS_20180730_SDR_2K_AVC.mp4	0.0	258.15472412109375	0.16659212112426758
75	205.82585501670837	response	0	2		73.0	2.5	/experiments/knapen_aot/videos/R_S_comp_LA_A006_C004_v01_SDR_FINAL_PS_20180730_SDR_2K_AVC.mp4	0.0	258.31313824653625	
75	205.83403301239014	movie	1		166.0	73.0	2.5	/experiments/knapen_aot/videos/R_S_comp_LA_A006_C004_v01_SDR_FINAL_PS_20180730_SDR_2K_AVC.mp4	0.0	258.321316242218	2.5084009170532227
75	208.34243392944336	fix_post	2		12.0	73.0	2.5	/experiments/knapen_aot/videos/R_S_comp_LA_A006_C004_v01_SDR_FINAL_PS_20180730_SDR_2K_AVC.mp4	0.0	260.82971715927124	0.09998106956481934
75	208.417475938797	response	2	2		73.0	2.5	/experiments/knapen_aot/videos/R_S_comp_LA_A006_C004_v01_SDR_FINAL_PS_20180730_SDR_2K_AVC.mp4	0.0	260.9047591686249	
76	208.44241499900818	fix_pre	0		38.0	74.0	2.5	/experiments/knapen_aot/videos/R_S_production_ID_3943334.mp4	0.0	260.92969822883606	0.31661295890808105
76	208.7508590221405	response	0	2		74.0	2.5	/experiments/knapen_aot/videos/R_S_production_ID_3943334.mp4	0.0	261.2381422519684	
76	208.75902795791626	movie	1		194.0	74.0	2.5	/experiments/knapen_aot/videos/R_S_production_ID_3943334.mp4	0.0	261.24631118774414	2.508280038833618
76	211.26730799674988	fix_post	2		12.0	74.0	2.5	/experiments/knapen_aot/videos/R_S_production_ID_3943334.mp4	0.0	263.75459122657776	0.10005998611450195
77	211.36736798286438	fix_pre	0		13.0	75.0	2.5	blank	1.0	263.85465121269226	0.1083230972290039
77	211.46751499176025	response	0	2		75.0	2.5	blank	1.0	263.95479822158813	
77	211.47569108009338	movie	1		301.0	75.0	2.5	blank	1.0	263.96297430992126	2.508363962173462
77	213.98405504226685	fix_post	2		12.0	75.0	2.5	blank	1.0	266.4713382720947	0.09996485710144043
78	214.0840198993683	fix_pre	0		29.0	76.0	2.5	/experiments/knapen_aot/videos/S_yt-F2x6e7e7cAE_70.mp4	0.0	266.57130312919617	0.2416989803314209
78	214.3174660205841	response	0	2		76.0	2.5	/experiments/knapen_aot/videos/S_yt-F2x6e7e7cAE_70.mp4	0.0	266.804749250412	
78	214.3257188796997	movie	1		301.0	76.0	2.5	/experiments/knapen_aot/videos/S_yt-F2x6e7e7cAE_70.mp4	0.0	266.8130021095276	2.5083980560302734
78	216.83411693572998	fix_post	2		12.0	76.0	2.5	/experiments/knapen_aot/videos/S_yt-F2x6e7e7cAE_70.mp4	0.0	269.32140016555786	0.09988808631896973
79	216.93400502204895	fix_pre	0		7.0	77.0	2.5	/experiments/knapen_aot/videos/R_S_yt-a5TGHnldsKg_102.mp4	0.0	269.42128825187683	0.0583348274230957
79	216.98403096199036	response	0	2		77.0	2.5	/experiments/knapen_aot/videos/R_S_yt-a5TGHnldsKg_102.mp4	0.0	269.47131419181824	
79	216.99233984947205	movie	1		301.0	77.0	2.5	/experiments/knapen_aot/videos/R_S_yt-a5TGHnldsKg_102.mp4	0.0	269.4796230792999	2.5083301067352295
79	219.50066995620728	fix_post	2		12.0	77.0	2.5	/experiments/knapen_aot/videos/R_S_yt-a5TGHnldsKg_102.mp4	0.0	271.98795318603516	0.10001802444458008
80	219.60068798065186	fix_pre	0		28.0	78.0	2.5	/experiments/knapen_aot/videos/S_yt-_HuBzj8EPBc_62.mp4	0.0	272.08797121047974	0.2332620620727539
80	219.82581186294556	response	0	2		78.0	2.5	/experiments/knapen_aot/videos/S_yt-_HuBzj8EPBc_62.mp4	0.0	272.31309509277344	
80	219.8339500427246	movie	1		301.0	78.0	2.5	/experiments/knapen_aot/videos/S_yt-_HuBzj8EPBc_62.mp4	0.0	272.3212332725525	2.5084378719329834
80	222.3423879146576	fix_post	2		12.0	78.0	2.5	/experiments/knapen_aot/videos/S_yt-_HuBzj8EPBc_62.mp4	0.0	274.8296711444855	0.09992694854736328
81	222.44231486320496	fix_pre	0		42.0	79.0	2.5	/experiments/knapen_aot/videos/R_S_yt-3NMDWrZr1Z4_255.mp4	0.0	274.92959809303284	0.3501260280609131
81	222.77649188041687	response	0	2		79.0	2.5	/experiments/knapen_aot/videos/R_S_yt-3NMDWrZr1Z4_255.mp4	0.0	275.26377511024475	
81	222.79244089126587	movie	1		301.0	79.0	2.5	/experiments/knapen_aot/videos/R_S_yt-3NMDWrZr1Z4_255.mp4	0.0	275.27972412109375	2.5081939697265625
81	225.30063486099243	fix_post	2		12.0	79.0	2.5	/experiments/knapen_aot/videos/R_S_yt-3NMDWrZr1Z4_255.mp4	0.0	277.7879180908203	0.0999910831451416
82	225.40062594413757	fix_pre	0		17.0	80.0	2.5	/experiments/knapen_aot/videos/S_m-aeoYPMqfg_185.mp4	0.0	277.88790917396545	0.14155292510986328
82	225.5340850353241	response	0	2		80.0	2.5	/experiments/knapen_aot/videos/S_m-aeoYPMqfg_185.mp4	0.0	278.021368265152	
82	225.54217886924744	movie	1		301.0	80.0	2.5	/experiments/knapen_aot/videos/S_m-aeoYPMqfg_185.mp4	0.0	278.0294620990753	2.508424997329712
82	228.05060386657715	fix_post	2		12.0	80.0	2.5	/experiments/knapen_aot/videos/S_m-aeoYPMqfg_185.mp4	0.0	280.53788709640503	0.10001206398010254
83	228.15061593055725	fix_pre	0		34.0	81.0	2.5	/experiments/knapen_aot/videos/R_S_production_ID_3735542.mp4	0.0	280.63789916038513	0.2846720218658447
83	228.42580485343933	response	0	2		81.0	2.5	/experiments/knapen_aot/videos/R_S_production_ID_3735542.mp4	0.0	280.9130880832672	
83	228.4352879524231	movie	1		165.0	81.0	2.5	/experiments/knapen_aot/videos/R_S_production_ID_3735542.mp4	0.0	280.922571182251	2.5069899559020996
83	230.9422779083252	fix_post	2		12.0	81.0	2.5	/experiments/knapen_aot/videos/R_S_production_ID_3735542.mp4	0.0	283.4295611381531	0.09994006156921387
84	231.0422179698944	fix_pre	0		16.0	82.0	2.5	/experiments/knapen_aot/videos/R_S_pexels-anthony-shkraba-production-8135459.mp4	0.0	283.5295011997223	0.13335204124450684
84	231.1598310470581	response	0	2		82.0	2.5	/experiments/knapen_aot/videos/R_S_pexels-anthony-shkraba-production-8135459.mp4	0.0	283.647114276886	
84	231.17557001113892	movie	1		175.0	82.0	2.5	/experiments/knapen_aot/videos/R_S_pexels-anthony-shkraba-production-8135459.mp4	0.0	283.6628532409668	2.508333921432495
84	233.6839039325714	fix_post	2		12.0	82.0	2.5	/experiments/knapen_aot/videos/R_S_pexels-anthony-shkraba-production-8135459.mp4	0.0	286.1711871623993	0.10001611709594727
85	233.78392004966736	fix_pre	0		13.0	83.0	2.5	blank	1.0	286.27120327949524	0.1083078384399414
85	233.88399600982666	response	0	2		83.0	2.5	blank	1.0	286.37127923965454	
85	233.8922278881073	movie	1		301.0	83.0	2.5	blank	1.0	286.3795111179352	2.5083470344543457
85	236.40057492256165	fix_post	2		12.0	83.0	2.5	blank	1.0	288.8878581523895	0.10006308555603027
87	236.50063800811768	stim	0		207.0					288.98792123794556	1.7259280681610107
87	236.77572107315063	response	0	2						289.2630043029785	
87	238.21972489356995	response	0	space						290.7070081233978	
