trial_nr	onset	event_type	phase	response	nr_frames	movie_index	movie_duration	movie_file	blank	onset_abs	duration
0	0.15831995010375977	stim	0		101.0					60.39360785484314	0.8414402008056641
0	0.9918160438537598	response	0	space						61.22710394859314	
1	0.9997601509094238	stim	0		121.0					61.235048055648804	1.0080678462982178
1	1.6329710483551025	response	0	space						61.86825895309448	
1	2.0078279972076416	stim	1		120.0					62.24311590194702	1.0000460147857666
1	2.5996241569519043	response	1	space						62.834912061691284	
1	2.899531126022339	response	1	space						63.13481903076172	
2	3.007874011993408	fix_pre	0		30.0	0.0	2.5	/experiments/knapen_aot/videos/S_yt-mWlx1SIXl5M_850.mp4	0.0	63.24316191673279	0.24994707107543945
2	3.249516010284424	response	0	space		0.0	2.5	/experiments/knapen_aot/videos/S_yt-mWlx1SIXl5M_850.mp4	0.0	63.484803915023804	
2	3.2578210830688477	movie	1		300.0	0.0	2.5	/experiments/knapen_aot/videos/S_yt-mWlx1SIXl5M_850.mp4	0.0	63.49310898780823	2.508286952972412
2	5.76610803604126	fix_post	2		12.0	0.0	2.5	/experiments/knapen_aot/videos/S_yt-mWlx1SIXl5M_850.mp4	0.0	66.00139594078064	0.10009002685546875
3	5.8661980628967285	fix_pre	0		54.0	1.0	2.5	/experiments/knapen_aot/videos/S_pexels-artem-podrez-5457692.mp4	0.0	66.10148596763611	0.45141100883483887
3	6.312485933303833	response	0	2		1.0	2.5	/experiments/knapen_aot/videos/S_pexels-artem-podrez-5457692.mp4	0.0	66.54777383804321	
3	6.317609071731567	movie	1		175.0	1.0	2.5	/experiments/knapen_aot/videos/S_pexels-artem-podrez-5457692.mp4	0.0	66.55289697647095	2.506963014602661
3	8.824572086334229	fix_post	2		12.0	1.0	2.5	/experiments/knapen_aot/videos/S_pexels-artem-podrez-5457692.mp4	0.0	69.05985999107361	0.09979104995727539
4	8.924363136291504	fix_pre	0		31.0	2.0	2.5	/experiments/knapen_aot/videos/S_production_ID_4325585.mp4	0.0	69.15965104103088	0.2584249973297119
4	9.174628019332886	response	0	2		2.0	2.5	/experiments/knapen_aot/videos/S_production_ID_4325585.mp4	0.0	69.40991592407227	
4	9.182788133621216	movie	1		209.0	2.0	2.5	/experiments/knapen_aot/videos/S_production_ID_4325585.mp4	0.0	69.4180760383606	2.5083179473876953
4	11.691106081008911	fix_post	2		12.0	2.0	2.5	/experiments/knapen_aot/videos/S_production_ID_4325585.mp4	0.0	71.92639398574829	0.10006594657897949
5	11.79117202758789	fix_pre	0		35.0	3.0	2.5	/experiments/knapen_aot/videos/S_comp_GMT329_113NC_396B_1105_CHINA_v04_SDR_FINAL_20180706_F900F2700_SDR_2K_AVC.mp4	0.0	72.02645993232727	0.29159998893737793
5	12.074573993682861	response	0	2		3.0	2.5	/experiments/knapen_aot/videos/S_comp_GMT329_113NC_396B_1105_CHINA_v04_SDR_FINAL_20180706_F900F2700_SDR_2K_AVC.mp4	0.0	72.30986189842224	
5	12.082772016525269	movie	1		163.0	3.0	2.5	/experiments/knapen_aot/videos/S_comp_GMT329_113NC_396B_1105_CHINA_v04_SDR_FINAL_20180706_F900F2700_SDR_2K_AVC.mp4	0.0	72.31805992126465	2.5083489418029785
5	14.591120958328247	fix_post	2		12.0	3.0	2.5	/experiments/knapen_aot/videos/S_comp_GMT329_113NC_396B_1105_CHINA_v04_SDR_FINAL_20180706_F900F2700_SDR_2K_AVC.mp4	0.0	74.82640886306763	0.09993600845336914
6	14.691056966781616	fix_pre	0		32.0	4.0	2.5	/experiments/knapen_aot/videos/R_S_yt-7Fyu2vr7zbA_31.mp4	0.0	74.926344871521	0.26670408248901367
6	14.949573040008545	response	0	2		4.0	2.5	/experiments/knapen_aot/videos/R_S_yt-7Fyu2vr7zbA_31.mp4	0.0	75.18486094474792	
6	14.95776104927063	movie	1		300.0	4.0	2.5	/experiments/knapen_aot/videos/R_S_yt-7Fyu2vr7zbA_31.mp4	0.0	75.19304895401001	2.5082499980926514
6	17.46601104736328	fix_post	2		12.0	4.0	2.5	/experiments/knapen_aot/videos/R_S_yt-7Fyu2vr7zbA_31.mp4	0.0	77.70129895210266	0.10160303115844727
7	17.56761407852173	fix_pre	0		38.0	5.0	2.5	/experiments/knapen_aot/videos/S_yt-Ryb0K9lGPrg_5.mp4	0.0	77.80290198326111	0.3151390552520752
7	17.874535083770752	response	0	2		5.0	2.5	/experiments/knapen_aot/videos/S_yt-Ryb0K9lGPrg_5.mp4	0.0	78.10982298851013	
7	17.882753133773804	movie	1		301.0	5.0	2.5	/experiments/knapen_aot/videos/S_yt-Ryb0K9lGPrg_5.mp4	0.0	78.11804103851318	2.508328914642334
7	20.391082048416138	fix_post	2		12.0	5.0	2.5	/experiments/knapen_aot/videos/S_yt-Ryb0K9lGPrg_5.mp4	0.0	80.62636995315552	0.10005593299865723
8	20.491137981414795	fix_pre	0		27.0	6.0	2.5	/experiments/knapen_aot/videos/S_yt-thmqgEV-sYY_91.mp4	0.0	80.72642588615417	0.2249140739440918
8	20.707844018936157	response	0	2		6.0	2.5	/experiments/knapen_aot/videos/S_yt-thmqgEV-sYY_91.mp4	0.0	80.94313192367554	
8	20.716052055358887	movie	1		301.0	6.0	2.5	/experiments/knapen_aot/videos/S_yt-thmqgEV-sYY_91.mp4	0.0	80.95133996009827	2.508328914642334
8	23.22438097000122	fix_post	2		11.0	6.0	2.5	/experiments/knapen_aot/videos/S_yt-thmqgEV-sYY_91.mp4	0.0	83.4596688747406	0.09997105598449707
9	23.324352025985718	fix_pre	0		25.0	7.0	2.5	blank	1.0	83.5596399307251	0.2084181308746338
9	23.5245361328125	response	0	2		7.0	2.5	blank	1.0	83.75982403755188	
9	23.53277015686035	movie	1		301.0	7.0	2.5	blank	1.0	83.76805806159973	2.508281946182251
9	26.041052103042603	fix_post	2		12.0	7.0	2.5	blank	1.0	86.27634000778198	0.10000300407409668
10	26.1410551071167	fix_pre	0		39.0	8.0	2.5	/experiments/knapen_aot/videos/R_S_yt-aiwDdJm1ek8_90.mp4	0.0	86.37634301185608	0.3249928951263428
10	26.45031499862671	response	0	2		8.0	2.5	/experiments/knapen_aot/videos/R_S_yt-aiwDdJm1ek8_90.mp4	0.0	86.68560290336609	
10	26.466048002243042	movie	1		298.0	8.0	2.5	/experiments/knapen_aot/videos/R_S_yt-aiwDdJm1ek8_90.mp4	0.0	86.70133590698242	2.508273124694824
10	28.974321126937866	fix_post	2		12.0	8.0	2.5	/experiments/knapen_aot/videos/R_S_yt-aiwDdJm1ek8_90.mp4	0.0	89.20960903167725	0.10006499290466309
11	29.07438611984253	fix_pre	0		49.0	9.0	2.5	/experiments/knapen_aot/videos/S_yt-2dRSJcaJIXw_32.mp4	0.0	89.30967402458191	0.4083080291748047
11	29.474497079849243	response	0	2		9.0	2.5	/experiments/knapen_aot/videos/S_yt-2dRSJcaJIXw_32.mp4	0.0	89.70978498458862	
11	29.482694149017334	movie	1		301.0	9.0	2.5	/experiments/knapen_aot/videos/S_yt-2dRSJcaJIXw_32.mp4	0.0	89.71798205375671	2.5082919597625732
11	31.990986108779907	fix_post	2		12.0	9.0	2.5	/experiments/knapen_aot/videos/S_yt-2dRSJcaJIXw_32.mp4	0.0	92.22627401351929	0.10008001327514648
12	32.091066122055054	fix_pre	0		44.0	10.0	2.5	/experiments/knapen_aot/videos/S_yt-MSdNCUWOp4o_4.mp4	0.0	92.32635402679443	0.36658382415771484
12	32.44954204559326	response	0	2		10.0	2.5	/experiments/knapen_aot/videos/S_yt-MSdNCUWOp4o_4.mp4	0.0	92.68482995033264	
12	32.45764994621277	movie	1		301.0	10.0	2.5	/experiments/knapen_aot/videos/S_yt-MSdNCUWOp4o_4.mp4	0.0	92.69293785095215	2.508390188217163
12	34.96604013442993	fix_post	2		12.0	10.0	2.5	/experiments/knapen_aot/videos/S_yt-MSdNCUWOp4o_4.mp4	0.0	95.20132803916931	0.09991002082824707
13	35.06595015525818	fix_pre	0		48.0	11.0	2.5	/experiments/knapen_aot/videos/S_yt-_BvMLZo0MG0_1226.mp4	0.0	95.30123805999756	0.4000527858734131
13	35.45785212516785	response	0	2		11.0	2.5	/experiments/knapen_aot/videos/S_yt-_BvMLZo0MG0_1226.mp4	0.0	95.69314002990723	
13	35.46600294113159	movie	1		301.0	11.0	2.5	/experiments/knapen_aot/videos/S_yt-_BvMLZo0MG0_1226.mp4	0.0	95.70129084587097	2.5083401203155518
13	37.974343061447144	fix_post	2		12.0	11.0	2.5	/experiments/knapen_aot/videos/S_yt-_BvMLZo0MG0_1226.mp4	0.0	98.20963096618652	0.09999704360961914
14	38.07434010505676	fix_pre	0		32.0	12.0	2.5	blank	1.0	98.30962800979614	0.2666590213775635
14	38.3327910900116	response	0	2		12.0	2.5	blank	1.0	98.56807899475098	
14	38.340999126434326	movie	1		301.0	12.0	2.5	blank	1.0	98.5762870311737	2.5083489418029785
14	40.849348068237305	fix_post	2		12.0	12.0	2.5	blank	1.0	101.08463597297668	0.09997892379760742
15	40.94932699203491	fix_pre	0		80.0	13.0	2.5	/experiments/knapen_aot/videos/R_S_production_ID_4997166.mp4	0.0	101.18461489677429	0.6666531562805176
15	41.600242137908936	response	0	2		13.0	2.5	/experiments/knapen_aot/videos/R_S_production_ID_4997166.mp4	0.0	101.83553004264832	
15	41.61598014831543	movie	1		165.0	13.0	2.5	/experiments/knapen_aot/videos/R_S_production_ID_4997166.mp4	0.0	101.85126805305481	2.50834584236145
15	44.12432599067688	fix_post	2		12.0	13.0	2.5	/experiments/knapen_aot/videos/R_S_production_ID_4997166.mp4	0.0	104.35961389541626	0.0999910831451416
16	44.22431707382202	fix_pre	0		23.0	14.0	2.5	/experiments/knapen_aot/videos/R_S_yt-ujTY1igjc3E_2.mp4	0.0	104.4596049785614	0.19156289100646973
16	44.40778994560242	response	0	2		14.0	2.5	/experiments/knapen_aot/videos/R_S_yt-ujTY1igjc3E_2.mp4	0.0	104.6430778503418	
16	44.41587996482849	movie	1		301.0	14.0	2.5	/experiments/knapen_aot/videos/R_S_yt-ujTY1igjc3E_2.mp4	0.0	104.65116786956787	2.5084030628204346
16	46.924283027648926	fix_post	2		12.0	14.0	2.5	/experiments/knapen_aot/videos/R_S_yt-ujTY1igjc3E_2.mp4	0.0	107.1595709323883	0.10003495216369629
17	47.02431797981262	fix_pre	0		38.0	15.0	2.5	/experiments/knapen_aot/videos/S_comp_GMT060_117NC_363D_1034_AUSTRALIA_v35_SDR_PS_FINAL_20180731_SDR_2K_AVC.mp4	0.0	107.259605884552	0.3166661262512207
17	47.33274006843567	response	0	2		15.0	2.5	/experiments/knapen_aot/videos/S_comp_GMT060_117NC_363D_1034_AUSTRALIA_v35_SDR_PS_FINAL_20180731_SDR_2K_AVC.mp4	0.0	107.56802797317505	
17	47.34098410606384	movie	1		164.0	15.0	2.5	/experiments/knapen_aot/videos/S_comp_GMT060_117NC_363D_1034_AUSTRALIA_v35_SDR_PS_FINAL_20180731_SDR_2K_AVC.mp4	0.0	107.57627201080322	2.50833797454834
17	49.84932208061218	fix_post	2		12.0	15.0	2.5	/experiments/knapen_aot/videos/S_comp_GMT060_117NC_363D_1034_AUSTRALIA_v35_SDR_PS_FINAL_20180731_SDR_2K_AVC.mp4	0.0	110.08460998535156	0.09997200965881348
18	49.949294090270996	fix_pre	0		40.0	16.0	2.5	/experiments/knapen_aot/videos/R_S_yt-LUIvP_NDWAs_45.mp4	0.0	110.18458199501038	0.3333148956298828
18	50.26687002182007	response	0	2		16.0	2.5	/experiments/knapen_aot/videos/R_S_yt-LUIvP_NDWAs_45.mp4	0.0	110.50215792655945	
18	50.28260898590088	movie	1		301.0	16.0	2.5	/experiments/knapen_aot/videos/R_S_yt-LUIvP_NDWAs_45.mp4	0.0	110.51789689064026	2.5082509517669678
18	52.79085993766785	fix_post	2		12.0	16.0	2.5	/experiments/knapen_aot/videos/R_S_yt-LUIvP_NDWAs_45.mp4	0.0	113.02614784240723	0.10002803802490234
19	52.89088797569275	fix_pre	0		36.0	17.0	2.5	/experiments/knapen_aot/videos/R_S_yt-kxWtOXNIsRA_329.mp4	0.0	113.12617588043213	0.30002808570861816
19	53.18270397186279	response	0	2		17.0	2.5	/experiments/knapen_aot/videos/R_S_yt-kxWtOXNIsRA_329.mp4	0.0	113.41799187660217	
19	53.19091606140137	movie	1		301.0	17.0	2.5	/experiments/knapen_aot/videos/R_S_yt-kxWtOXNIsRA_329.mp4	0.0	113.42620396614075	2.5083889961242676
19	55.699305057525635	fix_post	2		12.0	17.0	2.5	/experiments/knapen_aot/videos/R_S_yt-kxWtOXNIsRA_329.mp4	0.0	115.93459296226501	0.09997892379760742
20	55.79928398132324	fix_pre	0		34.0	18.0	2.5	/experiments/knapen_aot/videos/R_S_yt-VjTiMtjdjTw_103.mp4	0.0	116.03457188606262	0.283311128616333
20	56.07440400123596	response	0	2		18.0	2.5	/experiments/knapen_aot/videos/R_S_yt-VjTiMtjdjTw_103.mp4	0.0	116.30969190597534	
20	56.082595109939575	movie	1		301.0	18.0	2.5	/experiments/knapen_aot/videos/R_S_yt-VjTiMtjdjTw_103.mp4	0.0	116.31788301467896	2.5082688331604004
20	58.590863943099976	fix_post	2		12.0	18.0	2.5	/experiments/knapen_aot/videos/R_S_yt-VjTiMtjdjTw_103.mp4	0.0	118.82615184783936	0.09998703002929688
21	58.69085097312927	fix_pre	0		37.0	19.0	2.5	/experiments/knapen_aot/videos/S_yt-6B69qmkEdTI_1.mp4	0.0	118.92613887786865	0.30834507942199707
21	58.991037130355835	response	0	2		19.0	2.5	/experiments/knapen_aot/videos/S_yt-6B69qmkEdTI_1.mp4	0.0	119.22632503509521	
21	58.99919605255127	movie	1		301.0	19.0	2.5	/experiments/knapen_aot/videos/S_yt-6B69qmkEdTI_1.mp4	0.0	119.23448395729065	2.5084269046783447
21	61.507622957229614	fix_post	2		12.0	19.0	2.5	/experiments/knapen_aot/videos/S_yt-6B69qmkEdTI_1.mp4	0.0	121.742910861969	0.1012120246887207
22	61.608834981918335	fix_pre	0		49.0	20.0	2.5	blank	1.0	121.84412288665771	0.4070320129394531
22	62.00769400596619	response	0	2		20.0	2.5	blank	1.0	122.24298191070557	
22	62.01586699485779	movie	1		301.0	20.0	2.5	blank	1.0	122.25115489959717	2.508331060409546
22	64.52419805526733	fix_post	2		12.0	20.0	2.5	blank	1.0	124.75948596000671	0.10010409355163574
23	64.62430214881897	fix_pre	0		36.0	21.0	2.5	/experiments/knapen_aot/videos/S_yt-a9bnYU0Gnxg_59.mp4	0.0	124.85959005355835	0.29988694190979004
23	64.916011095047	response	0	2		21.0	2.5	/experiments/knapen_aot/videos/S_yt-a9bnYU0Gnxg_59.mp4	0.0	125.15129899978638	
23	64.92418909072876	movie	1		301.0	21.0	2.5	/experiments/knapen_aot/videos/S_yt-a9bnYU0Gnxg_59.mp4	0.0	125.15947699546814	2.5083680152893066
23	67.43255710601807	fix_post	2		12.0	21.0	2.5	/experiments/knapen_aot/videos/S_yt-a9bnYU0Gnxg_59.mp4	0.0	127.66784501075745	0.10000991821289062
24	67.53256702423096	fix_pre	0		49.0	22.0	2.5	/experiments/knapen_aot/videos/R_S_production_ID_5139371.mp4	0.0	127.76785492897034	0.40943193435668945
24	67.93267893791199	response	0	2		22.0	2.5	/experiments/knapen_aot/videos/R_S_production_ID_5139371.mp4	0.0	128.16796684265137	
24	67.94199895858765	movie	1		167.0	22.0	2.5	/experiments/knapen_aot/videos/R_S_production_ID_5139371.mp4	0.0	128.17728686332703	2.5071849822998047
24	70.44918394088745	fix_post	2		12.0	22.0	2.5	/experiments/knapen_aot/videos/R_S_production_ID_5139371.mp4	0.0	130.68447184562683	0.09997010231018066
25	70.54915404319763	fix_pre	0		35.0	23.0	2.5	/experiments/knapen_aot/videos/R_S_ILSVRC2015_train_00682009.mp4	0.0	130.784441947937	0.2916829586029053
25	70.83269906044006	response	0	2		23.0	2.5	/experiments/knapen_aot/videos/R_S_ILSVRC2015_train_00682009.mp4	0.0	131.06798696517944	
25	70.84083700180054	movie	1		300.0	23.0	2.5	/experiments/knapen_aot/videos/R_S_ILSVRC2015_train_00682009.mp4	0.0	131.07612490653992	2.508273124694824
25	73.34911012649536	fix_post	2		12.0	23.0	2.5	/experiments/knapen_aot/videos/R_S_ILSVRC2015_train_00682009.mp4	0.0	133.58439803123474	0.10014081001281738
26	73.44925093650818	fix_pre	0		24.0	24.0	2.5	/experiments/knapen_aot/videos/S_Nh81j72Utbs_5.mp4	0.0	133.68453884124756	0.2010822296142578
26	73.64099311828613	response	0	2		24.0	2.5	/experiments/knapen_aot/videos/S_Nh81j72Utbs_5.mp4	0.0	133.8762810230255	
26	73.65033316612244	movie	1		299.0	24.0	2.5	/experiments/knapen_aot/videos/S_Nh81j72Utbs_5.mp4	0.0	133.88562107086182	2.50720477104187
26	76.1575379371643	fix_post	2		12.0	24.0	2.5	/experiments/knapen_aot/videos/S_Nh81j72Utbs_5.mp4	0.0	136.3928258419037	0.0999910831451416
27	76.25752902030945	fix_pre	0		66.0	25.0	2.5	/experiments/knapen_aot/videos/S_yt-2IfvnrF3IV0_241.mp4	0.0	136.49281692504883	0.5499870777130127
27	76.7993540763855	response	0	2		25.0	2.5	/experiments/knapen_aot/videos/S_yt-2IfvnrF3IV0_241.mp4	0.0	137.03464198112488	
27	76.80751609802246	movie	1		301.0	25.0	2.5	/experiments/knapen_aot/videos/S_yt-2IfvnrF3IV0_241.mp4	0.0	137.04280400276184	2.508344888687134
27	79.3158609867096	fix_post	2		12.0	25.0	2.5	/experiments/knapen_aot/videos/S_yt-2IfvnrF3IV0_241.mp4	0.0	139.55114889144897	0.09999799728393555
28	79.41585898399353	fix_pre	0		34.0	26.0	2.5	/experiments/knapen_aot/videos/R_S_yt-WRBmpC-RxIc_678.mp4	0.0	139.6511468887329	0.2833290100097656
28	79.69096302986145	response	0	2		26.0	2.5	/experiments/knapen_aot/videos/R_S_yt-WRBmpC-RxIc_678.mp4	0.0	139.92625093460083	
28	79.6991879940033	movie	1		301.0	26.0	2.5	/experiments/knapen_aot/videos/R_S_yt-WRBmpC-RxIc_678.mp4	0.0	139.93447589874268	2.5083560943603516
28	82.20754408836365	fix_post	2		12.0	26.0	2.5	/experiments/knapen_aot/videos/R_S_yt-WRBmpC-RxIc_678.mp4	0.0	142.44283199310303	0.09996199607849121
29	82.30750608444214	fix_pre	0		40.0	27.0	2.5	blank	1.0	142.54279398918152	0.33330702781677246
29	82.63261413574219	response	0	2		27.0	2.5	blank	1.0	142.86790204048157	
29	82.64081311225891	movie	1		301.0	27.0	2.5	blank	1.0	142.8761010169983	2.508323907852173
29	85.14913702011108	fix_post	2		12.0	27.0	2.5	blank	1.0	145.38442492485046	0.09990501403808594
30	85.24904203414917	fix_pre	0		79.0	28.0	2.5	/experiments/knapen_aot/videos/S_ILSVRC2015_train_00067003.mp4	0.0	145.48432993888855	0.6584370136260986
30	85.8992829322815	response	0	2		28.0	2.5	/experiments/knapen_aot/videos/S_ILSVRC2015_train_00067003.mp4	0.0	146.13457083702087	
30	85.90747904777527	movie	1		301.0	28.0	2.5	/experiments/knapen_aot/videos/S_ILSVRC2015_train_00067003.mp4	0.0	146.14276695251465	2.508336067199707
30	88.41581511497498	fix_post	2		12.0	28.0	2.5	/experiments/knapen_aot/videos/S_ILSVRC2015_train_00067003.mp4	0.0	148.65110301971436	0.09999299049377441
31	88.51580810546875	fix_pre	0		42.0	29.0	2.5	/experiments/knapen_aot/videos/S_pexels-ron-lach-8071987.mp4	0.0	148.75109601020813	0.3500180244445801
31	88.85757493972778	response	0	2		29.0	2.5	/experiments/knapen_aot/videos/S_pexels-ron-lach-8071987.mp4	0.0	149.09286284446716	
31	88.86582612991333	movie	1		194.0	29.0	2.5	/experiments/knapen_aot/videos/S_pexels-ron-lach-8071987.mp4	0.0	149.1011140346527	2.5082459449768066
31	91.37407207489014	fix_post	2		12.0	29.0	2.5	/experiments/knapen_aot/videos/S_pexels-ron-lach-8071987.mp4	0.0	151.60935997962952	0.10002589225769043
32	91.47409796714783	fix_pre	0		23.0	30.0	2.5	/experiments/knapen_aot/videos/S_production_ID_4101242.mp4	0.0	151.7093858718872	0.19167208671569824
32	91.65756511688232	response	0	2		30.0	2.5	/experiments/knapen_aot/videos/S_production_ID_4101242.mp4	0.0	151.8928530216217	
32	91.66577005386353	movie	1		210.0	30.0	2.5	/experiments/knapen_aot/videos/S_production_ID_4101242.mp4	0.0	151.9010579586029	2.5083119869232178
32	94.17408204078674	fix_post	2		12.0	30.0	2.5	/experiments/knapen_aot/videos/S_production_ID_4101242.mp4	0.0	154.40936994552612	0.10003089904785156
33	94.2741129398346	fix_pre	0		28.0	31.0	2.5	/experiments/knapen_aot/videos/S_pexels-diva-plavalaguna-6985395.mp4	0.0	154.50940084457397	0.23330307006835938
33	94.49923896789551	response	0	2		31.0	2.5	/experiments/knapen_aot/videos/S_pexels-diva-plavalaguna-6985395.mp4	0.0	154.7345268726349	
33	94.50741600990295	movie	1		164.0	31.0	2.5	/experiments/knapen_aot/videos/S_pexels-diva-plavalaguna-6985395.mp4	0.0	154.74270391464233	2.508373975753784
33	97.01578998565674	fix_post	2		12.0	31.0	2.5	/experiments/knapen_aot/videos/S_pexels-diva-plavalaguna-6985395.mp4	0.0	157.25107789039612	0.09996199607849121
34	97.11575198173523	fix_pre	0		38.0	32.0	2.5	/experiments/knapen_aot/videos/S_gHYomsO1dSU_5.mp4	0.0	157.3510398864746	0.31661200523376465
34	97.42416095733643	response	0	2		32.0	2.5	/experiments/knapen_aot/videos/S_gHYomsO1dSU_5.mp4	0.0	157.6594488620758	
34	97.432363986969	movie	1		301.0	32.0	2.5	/experiments/knapen_aot/videos/S_gHYomsO1dSU_5.mp4	0.0	157.66765189170837	2.5083861351013184
34	99.94075012207031	fix_post	2		12.0	32.0	2.5	/experiments/knapen_aot/videos/S_gHYomsO1dSU_5.mp4	0.0	160.1760380268097	0.09998393058776855
35	100.04073405265808	fix_pre	0		30.0	33.0	2.5	blank	1.0	160.27602195739746	0.25000500679016113
35	100.28251814842224	response	0	2		33.0	2.5	blank	1.0	160.51780605316162	
35	100.29073905944824	movie	1		301.0	33.0	2.5	blank	1.0	160.52602696418762	2.508302927017212
35	102.79904198646545	fix_post	2		12.0	33.0	2.5	blank	1.0	163.03432989120483	0.10100102424621582
36	102.90004301071167	fix_pre	0		57.0	34.0	2.5	/experiments/knapen_aot/videos/R_S_Nh81j72Utbs_5.mp4	0.0	163.13533091545105	0.47392702102661133
36	103.36582493782043	response	0	2		34.0	2.5	/experiments/knapen_aot/videos/R_S_Nh81j72Utbs_5.mp4	0.0	163.60111284255981	
36	103.37397003173828	movie	1		301.0	34.0	2.5	/experiments/knapen_aot/videos/R_S_Nh81j72Utbs_5.mp4	0.0	163.60925793647766	2.508384943008423
36	105.8823549747467	fix_post	2		12.0	34.0	2.5	/experiments/knapen_aot/videos/R_S_Nh81j72Utbs_5.mp4	0.0	166.11764287948608	0.10002708435058594
37	105.98238205909729	fix_pre	0		51.0	35.0	2.5	/experiments/knapen_aot/videos/S_yt-CR86bVrRwfo_13.mp4	0.0	166.21766996383667	0.42496609687805176
37	106.39908909797668	response	0	2		35.0	2.5	/experiments/knapen_aot/videos/S_yt-CR86bVrRwfo_13.mp4	0.0	166.63437700271606	
37	106.40734815597534	movie	1		301.0	35.0	2.5	/experiments/knapen_aot/videos/S_yt-CR86bVrRwfo_13.mp4	0.0	166.64263606071472	2.5083718299865723
37	108.91571998596191	fix_post	2		12.0	35.0	2.5	/experiments/knapen_aot/videos/S_yt-CR86bVrRwfo_13.mp4	0.0	169.1510078907013	0.10001301765441895
38	109.01573300361633	fix_pre	0		47.0	36.0	2.5	/experiments/knapen_aot/videos/R_S_Y003_C009_SDR_2K_AVC.mp4	0.0	169.2510209083557	0.3916170597076416
38	109.39921116828918	response	0	2		36.0	2.5	/experiments/knapen_aot/videos/R_S_Y003_C009_SDR_2K_AVC.mp4	0.0	169.63449907302856	
38	109.40735006332397	movie	1		173.0	36.0	2.5	/experiments/knapen_aot/videos/R_S_Y003_C009_SDR_2K_AVC.mp4	0.0	169.64263796806335	2.5083160400390625
38	111.91566610336304	fix_post	2		12.0	36.0	2.5	/experiments/knapen_aot/videos/R_S_Y003_C009_SDR_2K_AVC.mp4	0.0	172.15095400810242	0.10001087188720703
39	112.01567697525024	fix_pre	0		28.0	37.0	2.5	/experiments/knapen_aot/videos/R_S_Xq0a2BWE3zA_53.mp4	0.0	172.25096487998962	0.23331713676452637
39	112.24091696739197	response	0	2		37.0	2.5	/experiments/knapen_aot/videos/R_S_Xq0a2BWE3zA_53.mp4	0.0	172.47620487213135	
39	112.24899411201477	movie	1		297.0	37.0	2.5	/experiments/knapen_aot/videos/R_S_Xq0a2BWE3zA_53.mp4	0.0	172.48428201675415	2.508283853530884
39	114.75727796554565	fix_post	2		12.0	37.0	2.5	/experiments/knapen_aot/videos/R_S_Xq0a2BWE3zA_53.mp4	0.0	174.99256587028503	0.10007214546203613
40	114.85735011100769	fix_pre	0		20.0	38.0	2.5	/experiments/knapen_aot/videos/R_S_yt-B7ZRYVhfW2U_52.mp4	0.0	175.09263801574707	0.16755294799804688
40	115.01580810546875	response	0	2		38.0	2.5	/experiments/knapen_aot/videos/R_S_yt-B7ZRYVhfW2U_52.mp4	0.0	175.25109601020813	
40	115.02490305900574	movie	1		301.0	38.0	2.5	/experiments/knapen_aot/videos/R_S_yt-B7ZRYVhfW2U_52.mp4	0.0	175.26019096374512	2.5074570178985596
40	117.5323600769043	fix_post	2		12.0	38.0	2.5	/experiments/knapen_aot/videos/R_S_yt-B7ZRYVhfW2U_52.mp4	0.0	177.76764798164368	0.09994006156921387
41	117.63230013847351	fix_pre	0		47.0	39.0	2.5	/experiments/knapen_aot/videos/S_yt-2IN85w8ptmM_51.mp4	0.0	177.8675880432129	0.3926088809967041
41	118.01576900482178	response	0	2		39.0	2.5	/experiments/knapen_aot/videos/S_yt-2IN85w8ptmM_51.mp4	0.0	178.25105690956116	
41	118.02490901947021	movie	1		301.0	39.0	2.5	/experiments/knapen_aot/videos/S_yt-2IN85w8ptmM_51.mp4	0.0	178.2601969242096	2.5074350833892822
41	120.5323441028595	fix_post	2		12.0	39.0	2.5	/experiments/knapen_aot/videos/S_yt-2IN85w8ptmM_51.mp4	0.0	180.76763200759888	0.09999895095825195
42	120.63234305381775	fix_pre	0		58.0	40.0	2.5	blank	1.0	180.86763095855713	0.483335018157959
42	121.10748600959778	response	0	2		40.0	2.5	blank	1.0	181.34277391433716	
42	121.11567807197571	movie	1		301.0	40.0	2.5	blank	1.0	181.3509659767151	2.5082950592041016
42	123.62397313117981	fix_post	2		12.0	40.0	2.5	blank	1.0	183.8592610359192	0.10001182556152344
43	123.72398495674133	fix_pre	0		42.0	41.0	2.5	/experiments/knapen_aot/videos/S_yt-Ub5Xx5BqIOk_74.mp4	0.0	183.9592728614807	0.34999799728393555
43	124.06573915481567	response	0	2		41.0	2.5	/experiments/knapen_aot/videos/S_yt-Ub5Xx5BqIOk_74.mp4	0.0	184.30102705955505	
43	124.07398295402527	movie	1		301.0	41.0	2.5	/experiments/knapen_aot/videos/S_yt-Ub5Xx5BqIOk_74.mp4	0.0	184.30927085876465	2.5083351135253906
43	126.58231806755066	fix_post	2		12.0	41.0	2.5	/experiments/knapen_aot/videos/S_yt-Ub5Xx5BqIOk_74.mp4	0.0	186.81760597229004	0.0999760627746582
44	126.68229413032532	fix_pre	0		57.0	42.0	2.5	/experiments/knapen_aot/videos/S_yt-B7ZRYVhfW2U_52.mp4	0.0	186.9175820350647	0.4750049114227295
44	127.1491391658783	response	0	2		42.0	2.5	/experiments/knapen_aot/videos/S_yt-B7ZRYVhfW2U_52.mp4	0.0	187.38442707061768	
44	127.15729904174805	movie	1		301.0	42.0	2.5	/experiments/knapen_aot/videos/S_yt-B7ZRYVhfW2U_52.mp4	0.0	187.39258694648743	2.5083389282226562
44	129.6656379699707	fix_post	2		12.0	42.0	2.5	/experiments/knapen_aot/videos/S_yt-B7ZRYVhfW2U_52.mp4	0.0	189.90092587471008	0.10002613067626953
45	129.76566410064697	fix_pre	0		28.0	43.0	2.5	/experiments/knapen_aot/videos/R_S_3WAnGcPubBY_179.mp4	0.0	190.00095200538635	0.23330187797546387
45	129.9907910823822	response	0	2		43.0	2.5	/experiments/knapen_aot/videos/R_S_3WAnGcPubBY_179.mp4	0.0	190.22607898712158	
45	129.99896597862244	movie	1		301.0	43.0	2.5	/experiments/knapen_aot/videos/R_S_3WAnGcPubBY_179.mp4	0.0	190.23425388336182	2.5083119869232178
45	132.50727796554565	fix_post	2		12.0	43.0	2.5	/experiments/knapen_aot/videos/R_S_3WAnGcPubBY_179.mp4	0.0	192.74256587028503	0.10003018379211426
46	132.60730814933777	fix_pre	0		55.0	44.0	2.5	/experiments/knapen_aot/videos/R_S_yt-Ndwek2tpIOA_169.mp4	0.0	192.84259605407715	0.45916295051574707
46	133.05748009681702	response	0	2		44.0	2.5	/experiments/knapen_aot/videos/R_S_yt-Ndwek2tpIOA_169.mp4	0.0	193.2927680015564	
46	133.06647109985352	movie	1		301.0	44.0	2.5	/experiments/knapen_aot/videos/R_S_yt-Ndwek2tpIOA_169.mp4	0.0	193.3017590045929	2.507516860961914
46	135.57398796081543	fix_post	2		12.0	44.0	2.5	/experiments/knapen_aot/videos/R_S_yt-Ndwek2tpIOA_169.mp4	0.0	195.8092758655548	0.09995818138122559
47	135.67394614219666	fix_pre	0		50.0	45.0	2.5	/experiments/knapen_aot/videos/R_S_pexels-laker-5793000.mp4	0.0	195.90923404693604	0.4167158603668213
47	136.0824580192566	response	0	2		45.0	2.5	/experiments/knapen_aot/videos/R_S_pexels-laker-5793000.mp4	0.0	196.31774592399597	
47	136.09066200256348	movie	1		190.0	45.0	2.5	/experiments/knapen_aot/videos/R_S_pexels-laker-5793000.mp4	0.0	196.32594990730286	2.5082409381866455
47	138.59890294075012	fix_post	2		12.0	45.0	2.5	/experiments/knapen_aot/videos/R_S_pexels-laker-5793000.mp4	0.0	198.8341908454895	0.10000419616699219
48	138.69890713691711	fix_pre	0		43.0	46.0	2.5	/experiments/knapen_aot/videos/S_yt-9t5-3Qe_t9A_591.mp4	0.0	198.9341950416565	0.3583378791809082
48	139.04912400245667	response	0	2		46.0	2.5	/experiments/knapen_aot/videos/S_yt-9t5-3Qe_t9A_591.mp4	0.0	199.28441190719604	
48	139.05724501609802	movie	1		301.0	46.0	2.5	/experiments/knapen_aot/videos/S_yt-9t5-3Qe_t9A_591.mp4	0.0	199.2925329208374	2.5083870887756348
48	141.56563210487366	fix_post	2		12.0	46.0	2.5	/experiments/knapen_aot/videos/S_yt-9t5-3Qe_t9A_591.mp4	0.0	201.80092000961304	0.09993505477905273
49	141.6655671596527	fix_pre	0		24.0	47.0	2.5	blank	1.0	201.9008550643921	0.20005488395690918
49	141.85741806030273	response	0	2		47.0	2.5	blank	1.0	202.09270596504211	
49	141.86562204360962	movie	1		301.0	47.0	2.5	blank	1.0	202.100909948349	2.508302927017212
49	144.37392497062683	fix_post	2		12.0	47.0	2.5	blank	1.0	204.6092128753662	0.10004997253417969
50	144.473974943161	fix_pre	0		49.0	48.0	2.5	/experiments/knapen_aot/videos/S_pexels-mikhail-nilov-8410063.mp4	0.0	204.7092628479004	0.4082961082458496
50	144.87410306930542	response	0	2		48.0	2.5	/experiments/knapen_aot/videos/S_pexels-mikhail-nilov-8410063.mp4	0.0	205.1093909740448	
50	144.88227105140686	movie	1		164.0	48.0	2.5	/experiments/knapen_aot/videos/S_pexels-mikhail-nilov-8410063.mp4	0.0	205.11755895614624	2.5082740783691406
50	147.390545129776	fix_post	2		12.0	48.0	2.5	/experiments/knapen_aot/videos/S_pexels-mikhail-nilov-8410063.mp4	0.0	207.62583303451538	0.09992289543151855
51	147.49046802520752	fix_pre	0		14.0	49.0	2.5	/experiments/knapen_aot/videos/R_S_comp_GMT329_113NC_396B_1105_CHINA_v04_SDR_FINAL_20180706_F900F2700_SDR_2K_AVC.mp4	0.0	207.7257559299469	0.11746597290039062
51	147.59896802902222	response	0	2		49.0	2.5	/experiments/knapen_aot/videos/R_S_comp_GMT329_113NC_396B_1105_CHINA_v04_SDR_FINAL_20180706_F900F2700_SDR_2K_AVC.mp4	0.0	207.8342559337616	
51	147.6079339981079	movie	1		168.0	49.0	2.5	/experiments/knapen_aot/videos/R_S_comp_GMT329_113NC_396B_1105_CHINA_v04_SDR_FINAL_20180706_F900F2700_SDR_2K_AVC.mp4	0.0	207.8432219028473	2.5075290203094482
51	150.11546301841736	fix_post	2		12.0	49.0	2.5	/experiments/knapen_aot/videos/R_S_comp_GMT329_113NC_396B_1105_CHINA_v04_SDR_FINAL_20180706_F900F2700_SDR_2K_AVC.mp4	0.0	210.35075092315674	0.10002899169921875
52	150.21549201011658	fix_pre	0		25.0	50.0	2.5	/experiments/knapen_aot/videos/R_S_yt-2WPmM2vIuBE_41.mp4	0.0	210.45077991485596	0.20832109451293945
52	150.41563296318054	response	0	2		50.0	2.5	/experiments/knapen_aot/videos/R_S_yt-2WPmM2vIuBE_41.mp4	0.0	210.65092086791992	
52	150.42381310462952	movie	1		301.0	50.0	2.5	/experiments/knapen_aot/videos/R_S_yt-2WPmM2vIuBE_41.mp4	0.0	210.6591010093689	2.508394956588745
52	152.93220806121826	fix_post	2		12.0	50.0	2.5	/experiments/knapen_aot/videos/R_S_yt-2WPmM2vIuBE_41.mp4	0.0	213.16749596595764	0.10001707077026367
53	153.03222513198853	fix_pre	0		27.0	51.0	2.5	/experiments/knapen_aot/videos/R_S_wc-ZGCMbPfXQ71L_31.mp4	0.0	213.2675130367279	0.224992036819458
53	153.241534948349	response	0	2		51.0	2.5	/experiments/knapen_aot/videos/R_S_wc-ZGCMbPfXQ71L_31.mp4	0.0	213.47682285308838	
53	153.25721716880798	movie	1		161.0	51.0	2.5	/experiments/knapen_aot/videos/R_S_wc-ZGCMbPfXQ71L_31.mp4	0.0	213.49250507354736	2.5083138942718506
53	155.76553106307983	fix_post	2		12.0	51.0	2.5	/experiments/knapen_aot/videos/R_S_wc-ZGCMbPfXQ71L_31.mp4	0.0	216.0008189678192	0.0999290943145752
54	155.8654601573944	fix_pre	0		18.0	52.0	2.5	/experiments/knapen_aot/videos/R_S_comp_1223LV_FLARE_v21_SDR_PS_FINAL_20180709_F0F5700_SDR_2K_AVC.mp4	0.0	216.1007480621338	0.15002679824829102
54	156.007306098938	response	0	2		52.0	2.5	/experiments/knapen_aot/videos/R_S_comp_1223LV_FLARE_v21_SDR_PS_FINAL_20180709_F0F5700_SDR_2K_AVC.mp4	0.0	216.24259400367737	
54	156.0154869556427	movie	1		164.0	52.0	2.5	/experiments/knapen_aot/videos/R_S_comp_1223LV_FLARE_v21_SDR_PS_FINAL_20180709_F0F5700_SDR_2K_AVC.mp4	0.0	216.25077486038208	2.508364200592041
54	158.52385115623474	fix_post	2		12.0	52.0	2.5	/experiments/knapen_aot/videos/R_S_comp_1223LV_FLARE_v21_SDR_PS_FINAL_20180709_F0F5700_SDR_2K_AVC.mp4	0.0	218.75913906097412	0.09991097450256348
55	158.6237621307373	fix_pre	0		17.0	53.0	2.5	/experiments/knapen_aot/videos/S_yt-dWF89kq2JIA_13.mp4	0.0	218.85905003547668	0.14171600341796875
55	158.7572820186615	response	0	2		53.0	2.5	/experiments/knapen_aot/videos/S_yt-dWF89kq2JIA_13.mp4	0.0	218.99256992340088	
55	158.76547813415527	movie	1		301.0	53.0	2.5	/experiments/knapen_aot/videos/S_yt-dWF89kq2JIA_13.mp4	0.0	219.00076603889465	2.5083630084991455
55	161.27384114265442	fix_post	2		12.0	53.0	2.5	/experiments/knapen_aot/videos/S_yt-dWF89kq2JIA_13.mp4	0.0	221.5091290473938	0.0999898910522461
56	161.37383103370667	fix_pre	0		21.0	54.0	2.5	/experiments/knapen_aot/videos/R_S_yt-bD1U6bo-6bE_465.mp4	0.0	221.60911893844604	0.1749560832977295
56	161.54062700271606	response	0	2		54.0	2.5	/experiments/knapen_aot/videos/R_S_yt-bD1U6bo-6bE_465.mp4	0.0	221.77591490745544	
56	161.5487871170044	movie	1		301.0	54.0	2.5	/experiments/knapen_aot/videos/R_S_yt-bD1U6bo-6bE_465.mp4	0.0	221.78407502174377	2.50834584236145
56	164.05713295936584	fix_post	2		12.0	54.0	2.5	/experiments/knapen_aot/videos/R_S_yt-bD1U6bo-6bE_465.mp4	0.0	224.29242086410522	0.10000014305114746
57	164.157133102417	fix_pre	0		15.0	55.0	2.5	/experiments/knapen_aot/videos/R_S_yt-BiBS8EO5GPc_4.mp4	0.0	224.39242100715637	0.12491202354431152
57	164.27392601966858	response	0	2		55.0	2.5	/experiments/knapen_aot/videos/R_S_yt-BiBS8EO5GPc_4.mp4	0.0	224.50921392440796	
57	164.2820451259613	movie	1		301.0	55.0	2.5	/experiments/knapen_aot/videos/R_S_yt-BiBS8EO5GPc_4.mp4	0.0	224.51733303070068	2.508347988128662
57	166.79039311408997	fix_post	2		12.0	55.0	2.5	/experiments/knapen_aot/videos/R_S_yt-BiBS8EO5GPc_4.mp4	0.0	227.02568101882935	0.10005402565002441
58	166.89044713974	fix_pre	0		14.0	56.0	2.5	blank	1.0	227.12573504447937	0.11671185493469238
58	166.99896812438965	response	0	2		56.0	2.5	blank	1.0	227.23425602912903	
58	167.00715899467468	movie	1		301.0	56.0	2.5	blank	1.0	227.24244689941406	2.508316993713379
58	169.51547598838806	fix_post	2		12.0	56.0	2.5	blank	1.0	229.75076389312744	0.09999704360961914
59	169.61547303199768	fix_pre	0		22.0	57.0	2.5	/experiments/knapen_aot/videos/R_S_ILSVRC2015_train_00460000.mp4	0.0	229.85076093673706	0.18330812454223633
59	169.79055309295654	response	0	2		57.0	2.5	/experiments/knapen_aot/videos/R_S_ILSVRC2015_train_00460000.mp4	0.0	230.02584099769592	
59	169.79878115653992	movie	1		301.0	57.0	2.5	/experiments/knapen_aot/videos/R_S_ILSVRC2015_train_00460000.mp4	0.0	230.0340690612793	2.508297920227051
59	172.30707907676697	fix_post	2		12.0	57.0	2.5	/experiments/knapen_aot/videos/R_S_ILSVRC2015_train_00460000.mp4	0.0	232.54236698150635	0.10003900527954102
60	172.4071180820465	fix_pre	0		33.0	58.0	2.5	/experiments/knapen_aot/videos/R_S_wc-__wCAtivIDG3_93.mp4	0.0	232.6424059867859	0.2749779224395752
60	172.6739330291748	response	0	2		58.0	2.5	/experiments/knapen_aot/videos/R_S_wc-__wCAtivIDG3_93.mp4	0.0	232.90922093391418	
60	172.68209600448608	movie	1		168.0	58.0	2.5	/experiments/knapen_aot/videos/R_S_wc-__wCAtivIDG3_93.mp4	0.0	232.91738390922546	2.5083470344543457
60	175.19044303894043	fix_post	2		12.0	58.0	2.5	/experiments/knapen_aot/videos/R_S_wc-__wCAtivIDG3_93.mp4	0.0	235.4257309436798	0.09997296333312988
61	175.29041600227356	fix_pre	0		34.0	59.0	2.5	/experiments/knapen_aot/videos/S_yt-b7bIulV49DQ_81.mp4	0.0	235.52570390701294	0.283311128616333
61	175.5655870437622	response	0	2		59.0	2.5	/experiments/knapen_aot/videos/S_yt-b7bIulV49DQ_81.mp4	0.0	235.8008749485016	
61	175.5737271308899	movie	1		301.0	59.0	2.5	/experiments/knapen_aot/videos/S_yt-b7bIulV49DQ_81.mp4	0.0	235.80901503562927	2.508391857147217
61	178.0821189880371	fix_post	2		12.0	59.0	2.5	/experiments/knapen_aot/videos/S_yt-b7bIulV49DQ_81.mp4	0.0	238.3174068927765	0.09999704360961914
62	178.18211603164673	fix_pre	0		32.0	60.0	2.5	/experiments/knapen_aot/videos/S_comp_A009_C001_010181A_v09_SDR_PS_FINAL_20180725_SDR_2K_AVC.mp4	0.0	238.4174039363861	0.2666490077972412
62	178.44064497947693	response	0	2		60.0	2.5	/experiments/knapen_aot/videos/S_comp_A009_C001_010181A_v09_SDR_PS_FINAL_20180725_SDR_2K_AVC.mp4	0.0	238.6759328842163	
62	178.44876503944397	movie	1		167.0	60.0	2.5	/experiments/knapen_aot/videos/S_comp_A009_C001_010181A_v09_SDR_PS_FINAL_20180725_SDR_2K_AVC.mp4	0.0	238.68405294418335	2.508359909057617
62	180.9571249485016	fix_post	2		12.0	60.0	2.5	/experiments/knapen_aot/videos/S_comp_A009_C001_010181A_v09_SDR_PS_FINAL_20180725_SDR_2K_AVC.mp4	0.0	241.19241285324097	0.09996604919433594
63	181.05709099769592	fix_pre	0		43.0	61.0	2.5	blank	1.0	241.2923789024353	0.35837507247924805
63	181.39963507652283	response	0	2		61.0	2.5	blank	1.0	241.6349229812622	
63	181.41546607017517	movie	1		301.0	61.0	2.5	blank	1.0	241.65075397491455	2.5082929134368896
63	183.92375898361206	fix_post	2		12.0	61.0	2.5	blank	1.0	244.15904688835144	0.10001802444458008
64	184.02377700805664	fix_pre	0		47.0	62.0	2.5	/experiments/knapen_aot/videos/S_3WAnGcPubBY_179.mp4	0.0	244.25906491279602	0.39168596267700195
64	184.40725898742676	response	0	2		62.0	2.5	/experiments/knapen_aot/videos/S_3WAnGcPubBY_179.mp4	0.0	244.64254689216614	
64	184.41546297073364	movie	1		299.0	62.0	2.5	/experiments/knapen_aot/videos/S_3WAnGcPubBY_179.mp4	0.0	244.65075087547302	2.5082931518554688
64	186.9237561225891	fix_post	2		12.0	62.0	2.5	/experiments/knapen_aot/videos/S_3WAnGcPubBY_179.mp4	0.0	247.1590440273285	0.1005709171295166
65	187.02432703971863	fix_pre	0		33.0	63.0	2.5	/experiments/knapen_aot/videos/R_S_yt-M8wvzt_BMXM_173.mp4	0.0	247.259614944458	0.27440309524536133
65	187.2905571460724	response	0	2		63.0	2.5	/experiments/knapen_aot/videos/R_S_yt-M8wvzt_BMXM_173.mp4	0.0	247.52584505081177	
65	187.298730134964	movie	1		301.0	63.0	2.5	/experiments/knapen_aot/videos/R_S_yt-M8wvzt_BMXM_173.mp4	0.0	247.53401803970337	2.5082929134368896
65	189.80702304840088	fix_post	2		12.0	63.0	2.5	/experiments/knapen_aot/videos/R_S_yt-M8wvzt_BMXM_173.mp4	0.0	250.04231095314026	0.10006308555603027
66	189.9070861339569	fix_pre	0		40.0	64.0	2.5	/experiments/knapen_aot/videos/S_yt-2dRSJcaJIXw_32.mp4	0.0	250.1423740386963	0.33339500427246094
66	190.2321810722351	response	0	2		64.0	2.5	/experiments/knapen_aot/videos/S_yt-2dRSJcaJIXw_32.mp4	0.0	250.4674689769745	
66	190.24048113822937	movie	1		301.0	64.0	2.5	/experiments/knapen_aot/videos/S_yt-2dRSJcaJIXw_32.mp4	0.0	250.47576904296875	2.508236885070801
66	192.74871802330017	fix_post	2		12.0	64.0	2.5	/experiments/knapen_aot/videos/S_yt-2dRSJcaJIXw_32.mp4	0.0	252.98400592803955	0.09996604919433594
67	192.8486840724945	fix_pre	0		48.0	65.0	2.5	/experiments/knapen_aot/videos/S_ILSVRC2015_train_00682000.mp4	0.0	253.0839719772339	0.40000009536743164
67	193.24055194854736	response	0	2		65.0	2.5	/experiments/knapen_aot/videos/S_ILSVRC2015_train_00682000.mp4	0.0	253.47583985328674	
67	193.24868416786194	movie	1		301.0	65.0	2.5	/experiments/knapen_aot/videos/S_ILSVRC2015_train_00682000.mp4	0.0	253.48397207260132	2.508349895477295
67	195.75703406333923	fix_post	2		12.0	65.0	2.5	/experiments/knapen_aot/videos/S_ILSVRC2015_train_00682000.mp4	0.0	255.9923219680786	0.0999290943145752
68	195.8569631576538	fix_pre	0		14.0	66.0	2.5	/experiments/knapen_aot/videos/S_yt-D9uD7yM6bxQ_269.mp4	0.0	256.0922510623932	0.1166989803314209
68	195.9654369354248	response	0	2		66.0	2.5	/experiments/knapen_aot/videos/S_yt-D9uD7yM6bxQ_269.mp4	0.0	256.2007248401642	
68	195.97366213798523	movie	1		301.0	66.0	2.5	/experiments/knapen_aot/videos/S_yt-D9uD7yM6bxQ_269.mp4	0.0	256.2089500427246	2.5083348751068115
68	198.48199701309204	fix_post	2		12.0	66.0	2.5	/experiments/knapen_aot/videos/S_yt-D9uD7yM6bxQ_269.mp4	0.0	258.7172849178314	0.09993910789489746
69	198.58193612098694	fix_pre	0		32.0	67.0	2.5	/experiments/knapen_aot/videos/R_S_wc-dwTccI0TNwps_15.mp4	0.0	258.8172240257263	0.2667219638824463
69	198.84049010276794	response	0	2		67.0	2.5	/experiments/knapen_aot/videos/R_S_wc-dwTccI0TNwps_15.mp4	0.0	259.0757780075073	
69	198.84865808486938	movie	1		301.0	67.0	2.5	/experiments/knapen_aot/videos/R_S_wc-dwTccI0TNwps_15.mp4	0.0	259.08394598960876	2.508307933807373
69	201.35696601867676	fix_post	2		12.0	67.0	2.5	/experiments/knapen_aot/videos/R_S_wc-dwTccI0TNwps_15.mp4	0.0	261.59225392341614	0.09997105598449707
70	201.45693707466125	fix_pre	0		68.0	68.0	2.5	blank	1.0	261.69222497940063	0.5671839714050293
70	202.01539206504822	response	0	2		68.0	2.5	blank	1.0	262.2506799697876	
70	202.02412104606628	movie	1		301.0	68.0	2.5	blank	1.0	262.25940895080566	2.507788896560669
70	204.53190994262695	fix_post	2		12.0	68.0	2.5	blank	1.0	264.76719784736633	0.10009217262268066
71	204.63200211524963	fix_pre	0		48.0	69.0	2.5	/experiments/knapen_aot/videos/R_S_yt-CR86bVrRwfo_13.mp4	0.0	264.867290019989	0.39987802505493164
71	205.01614904403687	response	0	2		69.0	2.5	/experiments/knapen_aot/videos/R_S_yt-CR86bVrRwfo_13.mp4	0.0	265.25143694877625	
71	205.03188014030457	movie	1		301.0	69.0	2.5	/experiments/knapen_aot/videos/R_S_yt-CR86bVrRwfo_13.mp4	0.0	265.26716804504395	2.508312940597534
71	207.5401930809021	fix_post	2		12.0	69.0	2.5	/experiments/knapen_aot/videos/R_S_yt-CR86bVrRwfo_13.mp4	0.0	267.7754809856415	0.10004401206970215
72	207.6402370929718	fix_pre	0		28.0	70.0	2.5	/experiments/knapen_aot/videos/R_S_yt-c5KPuyzO-50_4.mp4	0.0	267.8755249977112	0.2333369255065918
72	207.86545395851135	response	0	2		70.0	2.5	/experiments/knapen_aot/videos/R_S_yt-c5KPuyzO-50_4.mp4	0.0	268.10074186325073	
72	207.8735740184784	movie	1		300.0	70.0	2.5	/experiments/knapen_aot/videos/R_S_yt-c5KPuyzO-50_4.mp4	0.0	268.1088619232178	2.508316993713379
72	210.38189101219177	fix_post	2		12.0	70.0	2.5	/experiments/knapen_aot/videos/R_S_yt-c5KPuyzO-50_4.mp4	0.0	270.61717891693115	0.1000509262084961
73	210.48194193840027	fix_pre	0		36.0	71.0	2.5	/experiments/knapen_aot/videos/R_S_3WAnGcPubBY_179.mp4	0.0	270.71722984313965	0.2999441623687744
73	210.77374410629272	response	0	2		71.0	2.5	/experiments/knapen_aot/videos/R_S_3WAnGcPubBY_179.mp4	0.0	271.0090320110321	
73	210.78188610076904	movie	1		296.0	71.0	2.5	/experiments/knapen_aot/videos/R_S_3WAnGcPubBY_179.mp4	0.0	271.0171740055084	2.5083000659942627
73	213.2901861667633	fix_post	2		12.0	71.0	2.5	/experiments/knapen_aot/videos/R_S_3WAnGcPubBY_179.mp4	0.0	273.5254740715027	0.10006189346313477
73	213.37370109558105	response	2	2		71.0	2.5	/experiments/knapen_aot/videos/R_S_3WAnGcPubBY_179.mp4	0.0	273.60898900032043	
74	213.39024806022644	fix_pre	0		113.0	72.0	2.5	/experiments/knapen_aot/videos/S_comp_LA_A008_C004_ALTB_ED_FROM_FLAME_RETIME_v46_SDR_PS_20180917_SDR_2K_AVC.mp4	0.0	273.6255359649658	0.9416558742523193
74	214.3237099647522	response	0	2		72.0	2.5	/experiments/knapen_aot/videos/S_comp_LA_A008_C004_ALTB_ED_FROM_FLAME_RETIME_v46_SDR_PS_20180917_SDR_2K_AVC.mp4	0.0	274.5589978694916	
74	214.33190393447876	movie	1		174.0	72.0	2.5	/experiments/knapen_aot/videos/S_comp_LA_A008_C004_ALTB_ED_FROM_FLAME_RETIME_v46_SDR_PS_20180917_SDR_2K_AVC.mp4	0.0	274.56719183921814	2.5083751678466797
74	216.84027910232544	fix_post	2		12.0	72.0	2.5	/experiments/knapen_aot/videos/S_comp_LA_A008_C004_ALTB_ED_FROM_FLAME_RETIME_v46_SDR_PS_20180917_SDR_2K_AVC.mp4	0.0	277.0755670070648	0.09992098808288574
75	216.94020009040833	fix_pre	0		45.0	73.0	2.5	/experiments/knapen_aot/videos/S_yt-aiwDdJm1ek8_90.mp4	0.0	277.1754879951477	0.37544798851013184
75	217.30698108673096	response	0	2		73.0	2.5	/experiments/knapen_aot/videos/S_yt-aiwDdJm1ek8_90.mp4	0.0	277.54226899147034	
75	217.31564807891846	movie	1		299.0	73.0	2.5	/experiments/knapen_aot/videos/S_yt-aiwDdJm1ek8_90.mp4	0.0	277.55093598365784	2.5079569816589355
75	219.8236050605774	fix_post	2		12.0	73.0	2.5	/experiments/knapen_aot/videos/S_yt-aiwDdJm1ek8_90.mp4	0.0	280.0588929653168	0.0999150276184082
76	219.9235200881958	fix_pre	0		26.0	74.0	2.5	/experiments/knapen_aot/videos/S_yt-8aJDzfAaArQ_75.mp4	0.0	280.1588079929352	0.21674084663391113
76	220.13201904296875	response	0	2		74.0	2.5	/experiments/knapen_aot/videos/S_yt-8aJDzfAaArQ_75.mp4	0.0	280.36730694770813	
76	220.1402609348297	movie	1		300.0	74.0	2.5	/experiments/knapen_aot/videos/S_yt-8aJDzfAaArQ_75.mp4	0.0	280.3755488395691	2.5083131790161133
76	222.64857411384583	fix_post	2		12.0	74.0	2.5	/experiments/knapen_aot/videos/S_yt-8aJDzfAaArQ_75.mp4	0.0	282.8838620185852	0.09999203681945801
77	222.74856615066528	fix_pre	0		55.0	75.0	2.5	blank	1.0	282.98385405540466	0.4583778381347656
77	223.1911780834198	response	0	2		75.0	2.5	blank	1.0	283.4264659881592	
77	223.20694398880005	movie	1		301.0	75.0	2.5	blank	1.0	283.44223189353943	2.508258104324341
77	225.7152020931244	fix_post	2		12.0	75.0	2.5	blank	1.0	285.95048999786377	0.10040593147277832
78	225.81560802459717	fix_pre	0		54.0	76.0	2.5	/experiments/knapen_aot/videos/S_comp_GMT329_113NC_396B_1105_CHINA_v04_SDR_FINAL_20180706_F900F2700_SDR_2K_AVC.mp4	0.0	286.05089592933655	0.4495410919189453
78	226.2570080757141	response	0	2		76.0	2.5	/experiments/knapen_aot/videos/S_comp_GMT329_113NC_396B_1105_CHINA_v04_SDR_FINAL_20180706_F900F2700_SDR_2K_AVC.mp4	0.0	286.4922959804535	
78	226.2651491165161	movie	1		161.0	76.0	2.5	/experiments/knapen_aot/videos/S_comp_GMT329_113NC_396B_1105_CHINA_v04_SDR_FINAL_20180706_F900F2700_SDR_2K_AVC.mp4	0.0	286.5004370212555	2.508424997329712
78	228.77357411384583	fix_post	2		12.0	76.0	2.5	/experiments/knapen_aot/videos/S_comp_GMT329_113NC_396B_1105_CHINA_v04_SDR_FINAL_20180706_F900F2700_SDR_2K_AVC.mp4	0.0	289.0088620185852	0.09992694854736328
79	228.8735010623932	fix_pre	0		18.0	77.0	2.5	/experiments/knapen_aot/videos/R_S_yt-7K5X1G7Cpls_965.mp4	0.0	289.10878896713257	0.15038108825683594
79	229.0152940750122	response	0	2		77.0	2.5	/experiments/knapen_aot/videos/R_S_yt-7K5X1G7Cpls_965.mp4	0.0	289.2505819797516	
79	229.02388215065002	movie	1		301.0	77.0	2.5	/experiments/knapen_aot/videos/R_S_yt-7K5X1G7Cpls_965.mp4	0.0	289.2591700553894	2.5079360008239746
79	231.531818151474	fix_post	2		12.0	77.0	2.5	/experiments/knapen_aot/videos/R_S_yt-7K5X1G7Cpls_965.mp4	0.0	291.7671060562134	0.10010886192321777
80	231.63192701339722	fix_pre	0		38.0	78.0	2.5	/experiments/knapen_aot/videos/R_S_video_inspire_oregon_portland_00064.1080-h264.mp4	0.0	291.8672149181366	0.31652092933654785
80	231.9403350353241	response	0	2		78.0	2.5	/experiments/knapen_aot/videos/R_S_video_inspire_oregon_portland_00064.1080-h264.mp4	0.0	292.1756229400635	
80	231.94844794273376	movie	1		170.0	78.0	2.5	/experiments/knapen_aot/videos/R_S_video_inspire_oregon_portland_00064.1080-h264.mp4	0.0	292.18373584747314	2.5083820819854736
80	234.45683002471924	fix_post	2		12.0	78.0	2.5	/experiments/knapen_aot/videos/R_S_video_inspire_oregon_portland_00064.1080-h264.mp4	0.0	294.6921179294586	0.0999901294708252
81	234.55682015419006	fix_pre	0		33.0	79.0	2.5	/experiments/knapen_aot/videos/S_yt-VrEuTDQxtD0_226.mp4	0.0	294.79210805892944	0.2749979496002197
81	234.82364416122437	response	0	2		79.0	2.5	/experiments/knapen_aot/videos/S_yt-VrEuTDQxtD0_226.mp4	0.0	295.05893206596375	
81	234.83181810379028	movie	1		301.0	79.0	2.5	/experiments/knapen_aot/videos/S_yt-VrEuTDQxtD0_226.mp4	0.0	295.06710600852966	2.508316993713379
81	237.34013509750366	fix_post	2		12.0	79.0	2.5	/experiments/knapen_aot/videos/S_yt-VrEuTDQxtD0_226.mp4	0.0	297.57542300224304	0.10042595863342285
82	237.44056105613708	fix_pre	0		46.0	80.0	2.5	/experiments/knapen_aot/videos/R_S_video-5.mp4	0.0	297.67584896087646	0.38291406631469727
82	237.81522011756897	response	0	2		80.0	2.5	/experiments/knapen_aot/videos/R_S_video-5.mp4	0.0	298.05050802230835	
82	237.82347512245178	movie	1		170.0	80.0	2.5	/experiments/knapen_aot/videos/R_S_video-5.mp4	0.0	298.05876302719116	2.5083489418029785
82	240.33182406425476	fix_post	2		12.0	80.0	2.5	/experiments/knapen_aot/videos/R_S_video-5.mp4	0.0	300.56711196899414	0.09994292259216309
83	240.43176698684692	fix_pre	0		35.0	81.0	2.5	/experiments/knapen_aot/videos/R_S_pexels-diva-plavalaguna-6985395.mp4	0.0	300.6670548915863	0.2916700839996338
83	240.71527695655823	response	0	2		81.0	2.5	/experiments/knapen_aot/videos/R_S_pexels-diva-plavalaguna-6985395.mp4	0.0	300.9505648612976	
83	240.72343707084656	movie	1		164.0	81.0	2.5	/experiments/knapen_aot/videos/R_S_pexels-diva-plavalaguna-6985395.mp4	0.0	300.95872497558594	2.5086779594421387
83	243.2321150302887	fix_post	2		12.0	81.0	2.5	/experiments/knapen_aot/videos/R_S_pexels-diva-plavalaguna-6985395.mp4	0.0	303.4674029350281	0.0997309684753418
84	243.33184599876404	fix_pre	0		35.0	82.0	2.5	/experiments/knapen_aot/videos/R_S_yt-6B69qmkEdTI_1.mp4	0.0	303.5671339035034	0.29166603088378906
84	243.615296125412	response	0	2		82.0	2.5	/experiments/knapen_aot/videos/R_S_yt-6B69qmkEdTI_1.mp4	0.0	303.85058403015137	
84	243.62351202964783	movie	1		301.0	82.0	2.5	/experiments/knapen_aot/videos/R_S_yt-6B69qmkEdTI_1.mp4	0.0	303.8587999343872	2.5083260536193848
84	246.1318380832672	fix_post	2		12.0	82.0	2.5	/experiments/knapen_aot/videos/R_S_yt-6B69qmkEdTI_1.mp4	0.0	306.3671259880066	0.10842704772949219
85	246.2402651309967	fix_pre	0		38.0	83.0	2.5	blank	1.0	306.4755530357361	0.3164968490600586
85	246.54856204986572	response	0	2		83.0	2.5	blank	1.0	306.7838499546051	
85	246.55676198005676	movie	1		301.0	83.0	2.5	blank	1.0	306.79204988479614	2.508334159851074
85	249.06509613990784	fix_post	2		12.0	83.0	2.5	blank	1.0	309.3003840446472	0.10003280639648438
87	249.16512894630432	stim	0		162.0					309.4004168510437	1.3516161441802979
87	250.5083291530609	response	0	space						310.7436170578003	
