trial_nr	onset	event_type	phase	response	nr_frames	movie_index	movie_duration	movie_file	blank	onset_abs	duration
0	0.13325881958007812	stim	0		55.0					118.29533386230469	0.4584951400756836
0	0.5834188461303711	response	0	space						118.74549388885498	
1	0.5917539596557617	stim	0		121.0					118.75382900238037	1.0081610679626465
1	1.5999150276184082	stim	1		120.0					119.76199007034302	0.9996190071105957
1	2.2080769538879395	response	1	space						120.37015199661255	
2	2.599534034729004	fix_pre	0		14.0	0.0	2.5	/experiments/knapen_aot/videos/S_ILSVRC2015_train_00251005.mp4	0.0	120.76160907745361	0.11670088768005371
2	2.707979917526245	response	0	space		0.0	2.5	/experiments/knapen_aot/videos/S_ILSVRC2015_train_00251005.mp4	0.0	120.87005496025085	
2	2.7162349224090576	movie	1		299.0	0.0	2.5	/experiments/knapen_aot/videos/S_ILSVRC2015_train_00251005.mp4	0.0	120.87830996513367	2.5083320140838623
2	5.22456693649292	fix_post	2		11.0	0.0	2.5	/experiments/knapen_aot/videos/S_ILSVRC2015_train_00251005.mp4	0.0	123.38664197921753	0.09293293952941895
2	5.300493955612183	response	2	4		0.0	2.5	/experiments/knapen_aot/videos/S_ILSVRC2015_train_00251005.mp4	0.0	123.46256899833679	
3	5.317499876022339	fix_pre	0		35.0	1.0	2.5	/experiments/knapen_aot/videos/S_yt-R9Iabv0XgOQ_80.mp4	0.0	123.47957491874695	0.29166293144226074
3	5.599681854248047	response	0	4		1.0	2.5	/experiments/knapen_aot/videos/S_yt-R9Iabv0XgOQ_80.mp4	0.0	123.76175689697266	
3	5.6091628074646	movie	1		301.0	1.0	2.5	/experiments/knapen_aot/videos/S_yt-R9Iabv0XgOQ_80.mp4	0.0	123.77123785018921	2.5070371627807617
3	8.116199970245361	fix_post	2		12.0	1.0	2.5	/experiments/knapen_aot/videos/S_yt-R9Iabv0XgOQ_80.mp4	0.0	126.27827501296997	0.09999895095825195
4	8.216198921203613	fix_pre	0		15.0	2.0	2.5	/experiments/knapen_aot/videos/R_S_ILSVRC2015_train_00743005.mp4	0.0	126.37827396392822	0.1250600814819336
4	8.333011865615845	response	0	4		2.0	2.5	/experiments/knapen_aot/videos/R_S_ILSVRC2015_train_00743005.mp4	0.0	126.49508690834045	
4	8.341259002685547	movie	1		301.0	2.0	2.5	/experiments/knapen_aot/videos/R_S_ILSVRC2015_train_00743005.mp4	0.0	126.50333404541016	2.50826096534729
4	10.849519968032837	fix_post	2		12.0	2.0	2.5	/experiments/knapen_aot/videos/R_S_ILSVRC2015_train_00743005.mp4	0.0	129.01159501075745	0.10005402565002441
5	10.949573993682861	fix_pre	0		18.0	3.0	2.5	/experiments/knapen_aot/videos/S_video_inspire_california_santa-barbara_050.1080-h264.mp4	0.0	129.11164903640747	0.14992594718933105
5	11.091305017471313	response	0	4		3.0	2.5	/experiments/knapen_aot/videos/S_video_inspire_california_santa-barbara_050.1080-h264.mp4	0.0	129.25338006019592	
5	11.099499940872192	movie	1		167.0	3.0	2.5	/experiments/knapen_aot/videos/S_video_inspire_california_santa-barbara_050.1080-h264.mp4	0.0	129.2615749835968	2.5084619522094727
5	13.607961893081665	fix_post	2		12.0	3.0	2.5	/experiments/knapen_aot/videos/S_video_inspire_california_santa-barbara_050.1080-h264.mp4	0.0	131.77003693580627	0.09995102882385254
5	13.624797821044922	response	2	4		3.0	2.5	/experiments/knapen_aot/videos/S_video_inspire_california_santa-barbara_050.1080-h264.mp4	0.0	131.78687286376953	
6	13.707912921905518	fix_pre	0		29.0	4.0	2.5	/experiments/knapen_aot/videos/S_yt-XRQ_LSGGr3Y_712.mp4	0.0	131.86998796463013	0.24158406257629395
6	13.941296815872192	response	0	4		4.0	2.5	/experiments/knapen_aot/videos/S_yt-XRQ_LSGGr3Y_712.mp4	0.0	132.1033718585968	
6	13.949496984481812	movie	1		301.0	4.0	2.5	/experiments/knapen_aot/videos/S_yt-XRQ_LSGGr3Y_712.mp4	0.0	132.11157202720642	2.508362054824829
6	16.45785903930664	fix_post	2		12.0	4.0	2.5	/experiments/knapen_aot/videos/S_yt-XRQ_LSGGr3Y_712.mp4	0.0	134.61993408203125	0.10006999969482422
7	16.557929039001465	fix_pre	0		9.0	5.0	2.5	/experiments/knapen_aot/videos/S_yt-XUnZ7FbBtvk_162.mp4	0.0	134.72000408172607	0.07506489753723145
7	16.62483501434326	response	0	4		5.0	2.5	/experiments/knapen_aot/videos/S_yt-XUnZ7FbBtvk_162.mp4	0.0	134.78691005706787	
7	16.632993936538696	movie	1		301.0	5.0	2.5	/experiments/knapen_aot/videos/S_yt-XUnZ7FbBtvk_162.mp4	0.0	134.7950689792633	2.5082619190216064
7	19.141255855560303	fix_post	2		12.0	5.0	2.5	/experiments/knapen_aot/videos/S_yt-XUnZ7FbBtvk_162.mp4	0.0	137.3033308982849	0.09998512268066406
8	19.241240978240967	fix_pre	0		28.0	6.0	2.5	blank	1.0	137.40331602096558	0.2332909107208252
8	19.458786964416504	response	0	4		6.0	2.5	blank	1.0	137.6208620071411	
8	19.474531888961792	movie	1		301.0	6.0	2.5	blank	1.0	137.6366069316864	2.5082969665527344
8	21.982828855514526	fix_post	2		12.0	6.0	2.5	blank	1.0	140.14490389823914	0.10008096694946289
9	22.08290982246399	fix_pre	0		34.0	7.0	2.5	/experiments/knapen_aot/videos/S_Pexels_Videos_278654_1.mp4	0.0	140.2449848651886	0.2832911014556885
9	22.358031034469604	response	0	4		7.0	2.5	/experiments/knapen_aot/videos/S_Pexels_Videos_278654_1.mp4	0.0	140.5201060771942	
9	22.366200923919678	movie	1		166.0	7.0	2.5	/experiments/knapen_aot/videos/S_Pexels_Videos_278654_1.mp4	0.0	140.5282759666443	2.5083329677581787
9	24.874533891677856	fix_post	2		12.0	7.0	2.5	/experiments/knapen_aot/videos/S_Pexels_Videos_278654_1.mp4	0.0	143.03660893440247	0.10000300407409668
10	24.974536895751953	fix_pre	0		24.0	8.0	2.5	/experiments/knapen_aot/videos/R_S_bing-www_dailymotion_com_video_x64hzm7_8.mp4	0.0	143.13661193847656	0.19996905326843262
10	25.1663498878479	response	0	4		8.0	2.5	/experiments/knapen_aot/videos/R_S_bing-www_dailymotion_com_video_x64hzm7_8.mp4	0.0	143.3284249305725	
10	25.174505949020386	movie	1		169.0	8.0	2.5	/experiments/knapen_aot/videos/R_S_bing-www_dailymotion_com_video_x64hzm7_8.mp4	0.0	143.336580991745	2.508315086364746
10	27.682821035385132	fix_post	2		12.0	8.0	2.5	/experiments/knapen_aot/videos/R_S_bing-www_dailymotion_com_video_x64hzm7_8.mp4	0.0	145.84489607810974	0.10004281997680664
11	27.78286385536194	fix_pre	0		35.0	9.0	2.5	/experiments/knapen_aot/videos/S_yt-5AI_SyK5sg8_112.mp4	0.0	145.94493889808655	0.2916569709777832
11	28.066311836242676	response	0	4		9.0	2.5	/experiments/knapen_aot/videos/S_yt-5AI_SyK5sg8_112.mp4	0.0	146.22838687896729	
11	28.07452082633972	movie	1		301.0	9.0	2.5	/experiments/knapen_aot/videos/S_yt-5AI_SyK5sg8_112.mp4	0.0	146.23659586906433	2.5082671642303467
11	30.58278799057007	fix_post	2		12.0	9.0	2.5	/experiments/knapen_aot/videos/S_yt-5AI_SyK5sg8_112.mp4	0.0	148.74486303329468	0.10003399848937988
12	30.68282198905945	fix_pre	0		24.0	10.0	2.5	/experiments/knapen_aot/videos/S_yt-Wf-RauSbVgA_56.mp4	0.0	148.84489703178406	0.1999518871307373
12	30.874665021896362	response	0	4		10.0	2.5	/experiments/knapen_aot/videos/S_yt-Wf-RauSbVgA_56.mp4	0.0	149.03674006462097	
12	30.882773876190186	movie	1		301.0	10.0	2.5	/experiments/knapen_aot/videos/S_yt-Wf-RauSbVgA_56.mp4	0.0	149.0448489189148	2.50838303565979
12	33.391156911849976	fix_post	2		12.0	10.0	2.5	/experiments/knapen_aot/videos/S_yt-Wf-RauSbVgA_56.mp4	0.0	151.55323195457458	0.09994912147521973
13	33.491106033325195	fix_pre	0		18.0	11.0	2.5	/experiments/knapen_aot/videos/S_comp_A012_C014_1223PT_v53_SDR_PS_FINAL_20180709_F0F8700_SDR_2K_AVC.mp4	0.0	151.6531810760498	0.1500258445739746
13	33.63285994529724	response	0	4		11.0	2.5	/experiments/knapen_aot/videos/S_comp_A012_C014_1223PT_v53_SDR_PS_FINAL_20180709_F0F8700_SDR_2K_AVC.mp4	0.0	151.79493498802185	
13	33.64113187789917	movie	1		169.0	11.0	2.5	/experiments/knapen_aot/videos/S_comp_A012_C014_1223PT_v53_SDR_PS_FINAL_20180709_F0F8700_SDR_2K_AVC.mp4	0.0	151.80320692062378	2.5082249641418457
13	36.149356842041016	fix_post	2		12.0	11.0	2.5	/experiments/knapen_aot/videos/S_comp_A012_C014_1223PT_v53_SDR_PS_FINAL_20180709_F0F8700_SDR_2K_AVC.mp4	0.0	154.31143188476562	0.10003805160522461
14	36.24939489364624	fix_pre	0		2.0	12.0	2.5	/experiments/knapen_aot/videos/S_pexels-kindel-media-7147375.mp4	0.0	154.41146993637085	0.01700305938720703
14	36.25787687301636	response	0	4		12.0	2.5	/experiments/knapen_aot/videos/S_pexels-kindel-media-7147375.mp4	0.0	154.41995191574097	
14	36.26639795303345	movie	1		169.0	12.0	2.5	/experiments/knapen_aot/videos/S_pexels-kindel-media-7147375.mp4	0.0	154.42847299575806	2.5080718994140625
14	38.77446985244751	fix_post	2		12.0	12.0	2.5	/experiments/knapen_aot/videos/S_pexels-kindel-media-7147375.mp4	0.0	156.93654489517212	0.10000109672546387
15	38.874470949172974	fix_pre	0		16.0	13.0	2.5	blank	1.0	157.03654599189758	0.13334393501281738
15	38.999634981155396	response	0	4		13.0	2.5	blank	1.0	157.16171002388	
15	39.00781488418579	movie	1		301.0	13.0	2.5	blank	1.0	157.1698899269104	2.508324146270752
15	41.51613903045654	fix_post	2		12.0	13.0	2.5	blank	1.0	159.67821407318115	0.09994387626647949
16	41.61608290672302	fix_pre	0		23.0	14.0	2.5	/experiments/knapen_aot/videos/R_S_video_inspire_california_santa-barbara_050.1080-h264.mp4	0.0	159.77815794944763	0.19169211387634277
16	41.79947280883789	response	0	4		14.0	2.5	/experiments/knapen_aot/videos/R_S_video_inspire_california_santa-barbara_050.1080-h264.mp4	0.0	159.9615478515625	
16	41.807775020599365	movie	1		169.0	14.0	2.5	/experiments/knapen_aot/videos/R_S_video_inspire_california_santa-barbara_050.1080-h264.mp4	0.0	159.96985006332397	2.508358955383301
16	44.316133975982666	fix_post	2		12.0	14.0	2.5	/experiments/knapen_aot/videos/R_S_video_inspire_california_santa-barbara_050.1080-h264.mp4	0.0	162.47820901870728	0.09995889663696289
17	44.41609287261963	fix_pre	0		15.0	15.0	2.5	/experiments/knapen_aot/videos/S_yt-vDjj0EWFdIU_49.mp4	0.0	162.57816791534424	0.12508606910705566
17	44.52536988258362	response	0	4		15.0	2.5	/experiments/knapen_aot/videos/S_yt-vDjj0EWFdIU_49.mp4	0.0	162.68744492530823	
17	44.541178941726685	movie	1		301.0	15.0	2.5	/experiments/knapen_aot/videos/S_yt-vDjj0EWFdIU_49.mp4	0.0	162.7032539844513	2.5082900524139404
17	47.049468994140625	fix_post	2		12.0	15.0	2.5	/experiments/knapen_aot/videos/S_yt-vDjj0EWFdIU_49.mp4	0.0	165.21154403686523	0.09998297691345215
18	47.14945197105408	fix_pre	0		22.0	16.0	2.5	/experiments/knapen_aot/videos/R_S_yt-rlVzHENWufE_61.mp4	0.0	165.3115270137787	0.18331694602966309
18	47.32445788383484	response	0	4		16.0	2.5	/experiments/knapen_aot/videos/R_S_yt-rlVzHENWufE_61.mp4	0.0	165.48653292655945	
18	47.33276891708374	movie	1		299.0	16.0	2.5	/experiments/knapen_aot/videos/R_S_yt-rlVzHENWufE_61.mp4	0.0	165.49484395980835	2.5083060264587402
18	49.84107494354248	fix_post	2		12.0	16.0	2.5	/experiments/knapen_aot/videos/R_S_yt-rlVzHENWufE_61.mp4	0.0	168.0031499862671	0.09999990463256836
19	49.94107484817505	fix_pre	0		26.0	17.0	2.5	/experiments/knapen_aot/videos/S_xq822dX6DDM_1.mp4	0.0	168.10314989089966	0.21665215492248535
19	50.14949297904968	response	0	4		17.0	2.5	/experiments/knapen_aot/videos/S_xq822dX6DDM_1.mp4	0.0	168.3115680217743	
19	50.157727003097534	movie	1		301.0	17.0	2.5	/experiments/knapen_aot/videos/S_xq822dX6DDM_1.mp4	0.0	168.31980204582214	2.5082619190216064
19	52.66598892211914	fix_post	2		12.0	17.0	2.5	/experiments/knapen_aot/videos/S_xq822dX6DDM_1.mp4	0.0	170.82806396484375	0.10006999969482422
20	52.766058921813965	fix_pre	0		28.0	18.0	2.5	/experiments/knapen_aot/videos/R_S_yt-fk-z6WCvjjA_3.mp4	0.0	170.92813396453857	0.23328089714050293
20	52.99118781089783	response	0	4		18.0	2.5	/experiments/knapen_aot/videos/R_S_yt-fk-z6WCvjjA_3.mp4	0.0	171.15326285362244	
20	52.99933981895447	movie	1		301.0	18.0	2.5	/experiments/knapen_aot/videos/R_S_yt-fk-z6WCvjjA_3.mp4	0.0	171.16141486167908	2.5083861351013184
20	55.507725954055786	fix_post	2		12.0	18.0	2.5	/experiments/knapen_aot/videos/R_S_yt-fk-z6WCvjjA_3.mp4	0.0	173.6698009967804	0.09998297691345215
21	55.60770893096924	fix_pre	0		17.0	19.0	2.5	/experiments/knapen_aot/videos/S_ILSVRC2015_train_00185002.mp4	0.0	173.76978397369385	0.1416020393371582
21	55.7411470413208	response	0	4		19.0	2.5	/experiments/knapen_aot/videos/S_ILSVRC2015_train_00185002.mp4	0.0	173.9032220840454	
21	55.7493109703064	movie	1		301.0	19.0	2.5	/experiments/knapen_aot/videos/S_ILSVRC2015_train_00185002.mp4	0.0	173.911386013031	2.508362054824829
21	58.257673025131226	fix_post	2		12.0	19.0	2.5	/experiments/knapen_aot/videos/S_ILSVRC2015_train_00185002.mp4	0.0	176.41974806785583	0.09995198249816895
22	58.357625007629395	fix_pre	0		3.0	20.0	2.5	blank	1.0	176.519700050354	0.02508091926574707
22	58.374467849731445	response	0	4		20.0	2.5	blank	1.0	176.53654289245605	
22	58.38270592689514	movie	1		301.0	20.0	2.5	blank	1.0	176.54478096961975	2.5083038806915283
22	60.89100980758667	fix_post	2		12.0	20.0	2.5	blank	1.0	179.05308485031128	0.09993410110473633
23	60.990943908691406	fix_pre	0		42.0	21.0	2.5	/experiments/knapen_aot/videos/R_S_pexels-pavel-danilyuk-8057714.mp4	0.0	179.15301895141602	0.35002613067626953
23	61.33275389671326	response	0	4		21.0	2.5	/experiments/knapen_aot/videos/R_S_pexels-pavel-danilyuk-8057714.mp4	0.0	179.49482893943787	
23	61.340970039367676	movie	1		171.0	21.0	2.5	/experiments/knapen_aot/videos/R_S_pexels-pavel-danilyuk-8057714.mp4	0.0	179.50304508209229	2.5084228515625
23	63.849392890930176	fix_post	2		12.0	21.0	2.5	/experiments/knapen_aot/videos/R_S_pexels-pavel-danilyuk-8057714.mp4	0.0	182.01146793365479	0.09992098808288574
23	63.90781593322754	response	2	4		21.0	2.5	/experiments/knapen_aot/videos/R_S_pexels-pavel-danilyuk-8057714.mp4	0.0	182.06989097595215	
24	63.94931387901306	fix_pre	0		50.0	22.0	2.5	/experiments/knapen_aot/videos/S_ILSVRC2015_train_00572000.mp4	0.0	182.11138892173767	0.4166679382324219
24	64.35774493217468	response	0	4		22.0	2.5	/experiments/knapen_aot/videos/S_ILSVRC2015_train_00572000.mp4	0.0	182.5198199748993	
24	64.36598181724548	movie	1		301.0	22.0	2.5	/experiments/knapen_aot/videos/S_ILSVRC2015_train_00572000.mp4	0.0	182.5280568599701	2.508301019668579
24	66.87428283691406	fix_post	2		12.0	22.0	2.5	/experiments/knapen_aot/videos/S_ILSVRC2015_train_00572000.mp4	0.0	185.03635787963867	0.10004901885986328
25	66.97433185577393	fix_pre	0		13.0	23.0	2.5	/experiments/knapen_aot/videos/S_yt-Tt_LkR4iAt4_11.mp4	0.0	185.13640689849854	0.10829615592956543
25	67.07450890541077	response	0	4		23.0	2.5	/experiments/knapen_aot/videos/S_yt-Tt_LkR4iAt4_11.mp4	0.0	185.23658394813538	
25	67.08262801170349	movie	1		299.0	23.0	2.5	/experiments/knapen_aot/videos/S_yt-Tt_LkR4iAt4_11.mp4	0.0	185.2447030544281	2.5083420276641846
25	69.59097003936768	fix_post	2		12.0	23.0	2.5	/experiments/knapen_aot/videos/S_yt-Tt_LkR4iAt4_11.mp4	0.0	187.75304508209229	0.1000058650970459
26	69.69097590446472	fix_pre	0		16.0	24.0	2.5	/experiments/knapen_aot/videos/S_pexels-mart-production-7698911.mp4	0.0	187.85305094718933	0.1332840919494629
26	69.81606483459473	response	0	4		24.0	2.5	/experiments/knapen_aot/videos/S_pexels-mart-production-7698911.mp4	0.0	187.97813987731934	
26	69.82425999641418	movie	1		201.0	24.0	2.5	/experiments/knapen_aot/videos/S_pexels-mart-production-7698911.mp4	0.0	187.9863350391388	2.5083279609680176
26	72.3325879573822	fix_post	2		12.0	24.0	2.5	/experiments/knapen_aot/videos/S_pexels-mart-production-7698911.mp4	0.0	190.4946630001068	0.10006999969482422
27	72.43265795707703	fix_pre	0		7.0	25.0	2.5	/experiments/knapen_aot/videos/S_b2-2.mp4	0.0	190.59473299980164	0.05829000473022461
27	72.48284983634949	response	0	4		25.0	2.5	/experiments/knapen_aot/videos/S_b2-2.mp4	0.0	190.6449248790741	
27	72.49094796180725	movie	1		170.0	25.0	2.5	/experiments/knapen_aot/videos/S_b2-2.mp4	0.0	190.65302300453186	2.508302927017212
27	74.99925088882446	fix_post	2		12.0	25.0	2.5	/experiments/knapen_aot/videos/S_b2-2.mp4	0.0	193.16132593154907	0.1000521183013916
28	75.09930300712585	fix_pre	0		11.0	26.0	2.5	blank	1.0	193.26137804985046	0.09259581565856934
28	75.18293690681458	response	0	4		26.0	2.5	blank	1.0	193.34501194953918	
28	75.19189882278442	movie	1		301.0	26.0	2.5	blank	1.0	193.35397386550903	2.5073790550231934
28	77.69927787780762	fix_post	2		12.0	26.0	2.5	blank	1.0	195.86135292053223	0.10001206398010254
29	77.79928994178772	fix_pre	0		32.0	27.0	2.5	/experiments/knapen_aot/videos/S_yt-14tjqjjjAEI_15.mp4	0.0	195.96136498451233	0.26752805709838867
29	78.05774903297424	response	0	4		27.0	2.5	/experiments/knapen_aot/videos/S_yt-14tjqjjjAEI_15.mp4	0.0	196.21982407569885	
29	78.06681799888611	movie	1		301.0	27.0	2.5	/experiments/knapen_aot/videos/S_yt-14tjqjjjAEI_15.mp4	0.0	196.22889304161072	2.5074689388275146
29	80.57428693771362	fix_post	2		12.0	27.0	2.5	/experiments/knapen_aot/videos/S_yt-14tjqjjjAEI_15.mp4	0.0	198.73636198043823	0.10020804405212402
30	80.67449498176575	fix_pre	0		19.0	28.0	2.5	/experiments/knapen_aot/videos/R_S_yt-fk-z6WCvjjA_3.mp4	0.0	198.83657002449036	0.15806984901428223
30	80.82436490058899	response	0	4		28.0	2.5	/experiments/knapen_aot/videos/R_S_yt-fk-z6WCvjjA_3.mp4	0.0	198.9864399433136	
30	80.83256483078003	movie	1		301.0	28.0	2.5	/experiments/knapen_aot/videos/R_S_yt-fk-z6WCvjjA_3.mp4	0.0	198.99463987350464	2.508341073989868
30	83.3409059047699	fix_post	2		12.0	28.0	2.5	/experiments/knapen_aot/videos/R_S_yt-fk-z6WCvjjA_3.mp4	0.0	201.5029809474945	0.10088706016540527
31	83.4417929649353	fix_pre	0		20.0	29.0	2.5	/experiments/knapen_aot/videos/R_S_xq822dX6DDM_1.mp4	0.0	201.6038680076599	0.16668200492858887
31	83.59939193725586	response	0	4		29.0	2.5	/experiments/knapen_aot/videos/R_S_xq822dX6DDM_1.mp4	0.0	201.76146697998047	
31	83.60847496986389	movie	1		300.0	29.0	2.5	/experiments/knapen_aot/videos/R_S_xq822dX6DDM_1.mp4	0.0	201.7705500125885	2.5074899196624756
31	86.11596488952637	fix_post	2		12.0	29.0	2.5	/experiments/knapen_aot/videos/R_S_xq822dX6DDM_1.mp4	0.0	204.27803993225098	0.0998530387878418
32	86.21581792831421	fix_pre	0		35.0	30.0	2.5	/experiments/knapen_aot/videos/R_S_dwi2oPzQ1Wo_48.mp4	0.0	204.37789297103882	0.2916910648345947
32	86.49942803382874	response	0	4		30.0	2.5	/experiments/knapen_aot/videos/R_S_dwi2oPzQ1Wo_48.mp4	0.0	204.66150307655334	
32	86.5075089931488	movie	1		301.0	30.0	2.5	/experiments/knapen_aot/videos/R_S_dwi2oPzQ1Wo_48.mp4	0.0	204.6695840358734	2.5084068775177
32	89.0159158706665	fix_post	2		12.0	30.0	2.5	/experiments/knapen_aot/videos/R_S_dwi2oPzQ1Wo_48.mp4	0.0	207.1779909133911	0.09996914863586426
33	89.11588501930237	fix_pre	0		15.0	31.0	2.5	/experiments/knapen_aot/videos/S_comp_HK_H004_C008_PSNK_v19_SDR_PS_20180914_SDR_2K_AVC.mp4	0.0	207.27796006202698	0.12496185302734375
33	89.23265194892883	response	0	4		31.0	2.5	/experiments/knapen_aot/videos/S_comp_HK_H004_C008_PSNK_v19_SDR_PS_20180914_SDR_2K_AVC.mp4	0.0	207.39472699165344	
33	89.24084687232971	movie	1		171.0	31.0	2.5	/experiments/knapen_aot/videos/S_comp_HK_H004_C008_PSNK_v19_SDR_PS_20180914_SDR_2K_AVC.mp4	0.0	207.40292191505432	2.5083670616149902
33	91.7492139339447	fix_post	2		12.0	31.0	2.5	/experiments/knapen_aot/videos/S_comp_HK_H004_C008_PSNK_v19_SDR_PS_20180914_SDR_2K_AVC.mp4	0.0	209.9112889766693	0.09999799728393555
34	91.84921193122864	fix_pre	0		22.0	32.0	2.5	/experiments/knapen_aot/videos/S_yt-IC62JSYpq9w_71.mp4	0.0	210.01128697395325	0.18329691886901855
34	92.02435898780823	response	0	4		32.0	2.5	/experiments/knapen_aot/videos/S_yt-IC62JSYpq9w_71.mp4	0.0	210.18643403053284	
34	92.03250885009766	movie	1		301.0	32.0	2.5	/experiments/knapen_aot/videos/S_yt-IC62JSYpq9w_71.mp4	0.0	210.19458389282227	2.5083940029144287
34	94.54090285301208	fix_post	2		12.0	32.0	2.5	/experiments/knapen_aot/videos/S_yt-IC62JSYpq9w_71.mp4	0.0	212.7029778957367	0.10007214546203613
35	94.64097499847412	fix_pre	0		9.0	33.0	2.5	/experiments/knapen_aot/videos/R_S_yt-wPXrAuiiRZg_1062.mp4	0.0	212.80305004119873	0.07489585876464844
35	94.70769190788269	response	0	4		33.0	2.5	/experiments/knapen_aot/videos/R_S_yt-wPXrAuiiRZg_1062.mp4	0.0	212.8697669506073	
35	94.71587085723877	movie	1		301.0	33.0	2.5	/experiments/knapen_aot/videos/R_S_yt-wPXrAuiiRZg_1062.mp4	0.0	212.87794589996338	2.508406162261963
35	97.22427701950073	fix_post	2		12.0	33.0	2.5	/experiments/knapen_aot/videos/R_S_yt-wPXrAuiiRZg_1062.mp4	0.0	215.38635206222534	0.09987282752990723
36	97.32414984703064	fix_pre	0		8.0	34.0	2.5	/experiments/knapen_aot/videos/S_yt-5AI_SyK5sg8_112.mp4	0.0	215.48622488975525	0.06681108474731445
36	97.38273096084595	response	0	4		34.0	2.5	/experiments/knapen_aot/videos/S_yt-5AI_SyK5sg8_112.mp4	0.0	215.54480600357056	
36	97.39096093177795	movie	1		301.0	34.0	2.5	/experiments/knapen_aot/videos/S_yt-5AI_SyK5sg8_112.mp4	0.0	215.55303597450256	2.5082271099090576
36	99.89918804168701	fix_post	2		12.0	34.0	2.5	/experiments/knapen_aot/videos/S_yt-5AI_SyK5sg8_112.mp4	0.0	218.06126308441162	0.10001587867736816
36	99.90081787109375	response	2	4		34.0	2.5	/experiments/knapen_aot/videos/S_yt-5AI_SyK5sg8_112.mp4	0.0	218.06289291381836	
37	99.99920392036438	fix_pre	0		45.0	35.0	2.5	blank	1.0	218.161278963089	0.37492895126342773
37	100.36593985557556	response	0	4		35.0	2.5	blank	1.0	218.52801489830017	
37	100.37413287162781	movie	1		301.0	35.0	2.5	blank	1.0	218.53620791435242	2.508376121520996
37	102.8825089931488	fix_post	2		12.0	35.0	2.5	blank	1.0	221.0445840358734	0.09994983673095703
38	102.98245882987976	fix_pre	0		37.0	36.0	2.5	/experiments/knapen_aot/videos/R_S_yt-eLQydFSMGCU_75.mp4	0.0	221.14453387260437	0.3083200454711914
38	103.28258299827576	response	0	4		36.0	2.5	/experiments/knapen_aot/videos/R_S_yt-eLQydFSMGCU_75.mp4	0.0	221.44465804100037	
38	103.29077887535095	movie	1		301.0	36.0	2.5	/experiments/knapen_aot/videos/R_S_yt-eLQydFSMGCU_75.mp4	0.0	221.45285391807556	2.5084259510040283
38	105.79920482635498	fix_post	2		12.0	36.0	2.5	/experiments/knapen_aot/videos/R_S_yt-eLQydFSMGCU_75.mp4	0.0	223.9612798690796	0.09992599487304688
39	105.89913082122803	fix_pre	0		16.0	37.0	2.5	/experiments/knapen_aot/videos/S_yt-_WFwhcmbXXY_51.mp4	0.0	224.06120586395264	0.13330912590026855
39	106.02434086799622	response	0	4		37.0	2.5	/experiments/knapen_aot/videos/S_yt-_WFwhcmbXXY_51.mp4	0.0	224.18641591072083	
39	106.0324399471283	movie	1		301.0	37.0	2.5	/experiments/knapen_aot/videos/S_yt-_WFwhcmbXXY_51.mp4	0.0	224.1945149898529	2.5084068775177
39	108.540846824646	fix_post	2		12.0	37.0	2.5	/experiments/knapen_aot/videos/S_yt-_WFwhcmbXXY_51.mp4	0.0	226.7029218673706	0.10003519058227539
40	108.64088201522827	fix_pre	0		17.0	38.0	2.5	/experiments/knapen_aot/videos/R_S_ILSVRC2015_train_00001011.mp4	0.0	226.80295705795288	0.14164090156555176
40	108.77433490753174	response	0	4		38.0	2.5	/experiments/knapen_aot/videos/R_S_ILSVRC2015_train_00001011.mp4	0.0	226.93640995025635	
40	108.78252291679382	movie	1		301.0	38.0	2.5	/experiments/knapen_aot/videos/R_S_ILSVRC2015_train_00001011.mp4	0.0	226.94459795951843	2.508316993713379
40	111.2908399105072	fix_post	2		12.0	38.0	2.5	/experiments/knapen_aot/videos/R_S_ILSVRC2015_train_00001011.mp4	0.0	229.4529149532318	0.10001707077026367
41	111.39085698127747	fix_pre	0		9.0	39.0	2.5	/experiments/knapen_aot/videos/S_ILSVRC2015_train_00404003.mp4	0.0	229.55293202400208	0.0749509334564209
41	111.45755982398987	response	0	4		39.0	2.5	/experiments/knapen_aot/videos/S_ILSVRC2015_train_00404003.mp4	0.0	229.61963486671448	
41	111.46580791473389	movie	1		301.0	39.0	2.5	/experiments/knapen_aot/videos/S_ILSVRC2015_train_00404003.mp4	0.0	229.6278829574585	2.5083909034729004
41	113.97419881820679	fix_post	2		12.0	39.0	2.5	/experiments/knapen_aot/videos/S_ILSVRC2015_train_00404003.mp4	0.0	232.1362738609314	0.09995818138122559
42	114.07415699958801	fix_pre	0		32.0	40.0	2.5	/experiments/knapen_aot/videos/S_b4-3.mp4	0.0	232.23623204231262	0.26665186882019043
42	114.33266997337341	response	0	4		40.0	2.5	/experiments/knapen_aot/videos/S_b4-3.mp4	0.0	232.49474501609802	
42	114.3408088684082	movie	1		167.0	40.0	2.5	/experiments/knapen_aot/videos/S_b4-3.mp4	0.0	232.5028839111328	2.5083391666412354
42	116.84914803504944	fix_post	2		12.0	40.0	2.5	/experiments/knapen_aot/videos/S_b4-3.mp4	0.0	235.01122307777405	0.10001993179321289
43	116.94916796684265	fix_pre	0		14.0	41.0	2.5	/experiments/knapen_aot/videos/R_S_comp_A013_C012_0122D6_CC_v01_SDR_PS_FINAL_20180709_SDR_2K_AVC.mp4	0.0	235.11124300956726	0.11730790138244629
43	117.0576000213623	response	0	4		41.0	2.5	/experiments/knapen_aot/videos/R_S_comp_A013_C012_0122D6_CC_v01_SDR_PS_FINAL_20180709_SDR_2K_AVC.mp4	0.0	235.2196750640869	
43	117.0664758682251	movie	1		184.0	41.0	2.5	/experiments/knapen_aot/videos/R_S_comp_A013_C012_0122D6_CC_v01_SDR_PS_FINAL_20180709_SDR_2K_AVC.mp4	0.0	235.2285509109497	2.507686138153076
43	119.57416200637817	fix_post	2		12.0	41.0	2.5	/experiments/knapen_aot/videos/R_S_comp_A013_C012_0122D6_CC_v01_SDR_PS_FINAL_20180709_SDR_2K_AVC.mp4	0.0	237.73623704910278	0.09998297691345215
44	119.67414498329163	fix_pre	0		3.0	42.0	2.5	blank	1.0	237.83622002601624	0.025043010711669922
44	119.68339586257935	response	0	4		42.0	2.5	blank	1.0	237.84547090530396	
44	119.6991879940033	movie	1		301.0	42.0	2.5	blank	1.0	237.8612630367279	2.508275032043457
44	122.20746302604675	fix_post	2		12.0	42.0	2.5	blank	1.0	240.36953806877136	0.10003185272216797
45	122.30749487876892	fix_pre	0		15.0	43.0	2.5	/experiments/knapen_aot/videos/S_yt-sxZ_ONShI7U_75.mp4	0.0	240.46956992149353	0.12495994567871094
45	122.42418503761292	response	0	4		43.0	2.5	/experiments/knapen_aot/videos/S_yt-sxZ_ONShI7U_75.mp4	0.0	240.58626008033752	
45	122.43245482444763	movie	1		301.0	43.0	2.5	/experiments/knapen_aot/videos/S_yt-sxZ_ONShI7U_75.mp4	0.0	240.59452986717224	2.508329153060913
45	124.94078397750854	fix_post	2		12.0	43.0	2.5	/experiments/knapen_aot/videos/S_yt-sxZ_ONShI7U_75.mp4	0.0	243.10285902023315	0.09999704360961914
46	125.04078102111816	fix_pre	0		36.0	44.0	2.5	/experiments/knapen_aot/videos/S_yt-_WFwhcmbXXY_51.mp4	0.0	243.20285606384277	0.2999908924102783
46	125.33261489868164	response	0	4		44.0	2.5	/experiments/knapen_aot/videos/S_yt-_WFwhcmbXXY_51.mp4	0.0	243.49468994140625	
46	125.34077191352844	movie	1		301.0	44.0	2.5	/experiments/knapen_aot/videos/S_yt-_WFwhcmbXXY_51.mp4	0.0	243.50284695625305	2.508362054824829
46	127.84913396835327	fix_post	2		12.0	44.0	2.5	/experiments/knapen_aot/videos/S_yt-_WFwhcmbXXY_51.mp4	0.0	246.01120901107788	0.10000395774841309
47	127.94913792610168	fix_pre	0		10.0	45.0	2.5	/experiments/knapen_aot/videos/R_S_yt-gzjV6YoK6X0_3.mp4	0.0	246.1112129688263	0.08329010009765625
47	128.02431201934814	response	0	4		45.0	2.5	/experiments/knapen_aot/videos/R_S_yt-gzjV6YoK6X0_3.mp4	0.0	246.18638706207275	
47	128.03242802619934	movie	1		301.0	45.0	2.5	/experiments/knapen_aot/videos/R_S_yt-gzjV6YoK6X0_3.mp4	0.0	246.19450306892395	2.5082879066467285
47	130.54071593284607	fix_post	2		12.0	45.0	2.5	/experiments/knapen_aot/videos/R_S_yt-gzjV6YoK6X0_3.mp4	0.0	248.70279097557068	0.10003900527954102
48	130.6407549381256	fix_pre	0		39.0	46.0	2.5	/experiments/knapen_aot/videos/S_production_ID_5049072.mp4	0.0	248.80282998085022	0.3249969482421875
48	130.95009303092957	response	0	4		46.0	2.5	/experiments/knapen_aot/videos/S_production_ID_5049072.mp4	0.0	249.11216807365417	
48	130.9657518863678	movie	1		174.0	46.0	2.5	/experiments/knapen_aot/videos/S_production_ID_5049072.mp4	0.0	249.1278269290924	2.508208990097046
48	133.47396087646484	fix_post	2		12.0	46.0	2.5	/experiments/knapen_aot/videos/S_production_ID_5049072.mp4	0.0	251.63603591918945	0.10007596015930176
49	133.57403683662415	fix_pre	0		5.0	47.0	2.5	/experiments/knapen_aot/videos/R_S_production_ID_4707837.mp4	0.0	251.73611187934875	0.04167604446411133
49	133.60752296447754	response	0	4		47.0	2.5	/experiments/knapen_aot/videos/R_S_production_ID_4707837.mp4	0.0	251.76959800720215	
49	133.61571288108826	movie	1		171.0	47.0	2.5	/experiments/knapen_aot/videos/R_S_production_ID_4707837.mp4	0.0	251.77778792381287	2.508336067199707
49	136.12404894828796	fix_post	2		12.0	47.0	2.5	/experiments/knapen_aot/videos/R_S_production_ID_4707837.mp4	0.0	254.28612399101257	0.0999600887298584
50	136.22400903701782	fix_pre	0		2.0	48.0	2.5	blank	1.0	254.38608407974243	0.016638994216918945
50	136.23307991027832	response	0	4		48.0	2.5	blank	1.0	254.39515495300293	
50	136.24064803123474	movie	1		301.0	48.0	2.5	blank	1.0	254.40272307395935	2.508309841156006
50	138.74895787239075	fix_post	2		12.0	48.0	2.5	blank	1.0	256.91103291511536	0.10007905960083008
51	138.84903693199158	fix_pre	0		25.0	49.0	2.5	/experiments/knapen_aot/videos/S_yt-jeVeQBuzbEQ_120.mp4	0.0	257.0111119747162	0.20821809768676758
51	139.0491669178009	response	0	4		49.0	2.5	/experiments/knapen_aot/videos/S_yt-jeVeQBuzbEQ_120.mp4	0.0	257.2112419605255	
51	139.05725502967834	movie	1		298.0	49.0	2.5	/experiments/knapen_aot/videos/S_yt-jeVeQBuzbEQ_120.mp4	0.0	257.21933007240295	2.5084218978881836
51	141.56567692756653	fix_post	2		12.0	49.0	2.5	/experiments/knapen_aot/videos/S_yt-jeVeQBuzbEQ_120.mp4	0.0	259.72775197029114	0.09996700286865234
52	141.66564393043518	fix_pre	0		13.0	50.0	2.5	/experiments/knapen_aot/videos/R_S_ILSVRC2015_train_00155004.mp4	0.0	259.8277189731598	0.1088860034942627
52	141.76581192016602	response	0	4		50.0	2.5	/experiments/knapen_aot/videos/R_S_ILSVRC2015_train_00155004.mp4	0.0	259.9278869628906	
52	141.77452993392944	movie	1		301.0	50.0	2.5	/experiments/knapen_aot/videos/R_S_ILSVRC2015_train_00155004.mp4	0.0	259.93660497665405	2.507776975631714
52	144.28230690956116	fix_post	2		12.0	50.0	2.5	/experiments/knapen_aot/videos/R_S_ILSVRC2015_train_00155004.mp4	0.0	262.44438195228577	0.1000981330871582
53	144.38240504264832	fix_pre	0		2.0	51.0	2.5	/experiments/knapen_aot/videos/S_yt-gmiyqQDGN78_7.mp4	0.0	262.5444800853729	0.017154932022094727
53	144.39278602600098	response	0	4		51.0	2.5	/experiments/knapen_aot/videos/S_yt-gmiyqQDGN78_7.mp4	0.0	262.5548610687256	
53	144.3995599746704	movie	1		295.0	51.0	2.5	/experiments/knapen_aot/videos/S_yt-gmiyqQDGN78_7.mp4	0.0	262.561635017395	2.507766008377075
53	146.90732598304749	fix_post	2		12.0	51.0	2.5	/experiments/knapen_aot/videos/S_yt-gmiyqQDGN78_7.mp4	0.0	265.0694010257721	0.10000205039978027
54	147.00732803344727	fix_pre	0		12.0	52.0	2.5	/experiments/knapen_aot/videos/S_yt-dO0OuozAgt0_225.mp4	0.0	265.1694030761719	0.10046195983886719
54	147.092022895813	response	0	4		52.0	2.5	/experiments/knapen_aot/videos/S_yt-dO0OuozAgt0_225.mp4	0.0	265.2540979385376	
54	147.10778999328613	movie	1		301.0	52.0	2.5	/experiments/knapen_aot/videos/S_yt-dO0OuozAgt0_225.mp4	0.0	265.26986503601074	2.5078320503234863
54	149.61562204360962	fix_post	2		12.0	52.0	2.5	/experiments/knapen_aot/videos/S_yt-dO0OuozAgt0_225.mp4	0.0	267.77769708633423	0.1000068187713623
55	149.71562886238098	fix_pre	0		17.0	53.0	2.5	/experiments/knapen_aot/videos/S_pexels-koolshooters-7327401_1.mp4	0.0	267.8777039051056	0.14214015007019043
55	149.84904885292053	response	0	4		53.0	2.5	/experiments/knapen_aot/videos/S_pexels-koolshooters-7327401_1.mp4	0.0	268.01112389564514	
55	149.85776901245117	movie	1		167.0	53.0	2.5	/experiments/knapen_aot/videos/S_pexels-koolshooters-7327401_1.mp4	0.0	268.0198440551758	2.5078468322753906
55	152.36561584472656	fix_post	2		12.0	53.0	2.5	/experiments/knapen_aot/videos/S_pexels-koolshooters-7327401_1.mp4	0.0	270.5276908874512	0.1000211238861084
56	152.46563696861267	fix_pre	0		16.0	54.0	2.5	/experiments/knapen_aot/videos/S_yt-I2n2eo2zoZs_94.mp4	0.0	270.6277120113373	0.13326096534729004
56	152.590744972229	response	0	4		54.0	2.5	/experiments/knapen_aot/videos/S_yt-I2n2eo2zoZs_94.mp4	0.0	270.7528200149536	
56	152.59889793395996	movie	1		301.0	54.0	2.5	/experiments/knapen_aot/videos/S_yt-I2n2eo2zoZs_94.mp4	0.0	270.76097297668457	2.50833797454834
56	155.1072359085083	fix_post	2		12.0	54.0	2.5	/experiments/knapen_aot/videos/S_yt-I2n2eo2zoZs_94.mp4	0.0	273.2693109512329	0.10002803802490234
57	155.2072639465332	fix_pre	0		13.0	55.0	2.5	blank	1.0	273.3693389892578	0.10885787010192871
57	155.30742001533508	response	0	4		55.0	2.5	blank	1.0	273.4694950580597	
57	155.31612181663513	movie	1		301.0	55.0	2.5	blank	1.0	273.47819685935974	2.5077900886535645
57	157.8239119052887	fix_post	2		12.0	55.0	2.5	blank	1.0	275.9859869480133	0.0999901294708252
58	157.92390203475952	fix_pre	0		23.0	56.0	2.5	/experiments/knapen_aot/videos/R_S_yt_R-JarqKC4X8nM_4.mp4	0.0	276.08597707748413	0.19166779518127441
58	158.10740089416504	response	0	4		56.0	2.5	/experiments/knapen_aot/videos/R_S_yt_R-JarqKC4X8nM_4.mp4	0.0	276.26947593688965	
58	158.1155698299408	movie	1		301.0	56.0	2.5	/experiments/knapen_aot/videos/R_S_yt_R-JarqKC4X8nM_4.mp4	0.0	276.2776448726654	2.5083069801330566
58	160.62387681007385	fix_post	2		12.0	56.0	2.5	/experiments/knapen_aot/videos/R_S_yt_R-JarqKC4X8nM_4.mp4	0.0	278.78595185279846	0.10004115104675293
58	160.68241381645203	response	2	4		56.0	2.5	/experiments/knapen_aot/videos/R_S_yt_R-JarqKC4X8nM_4.mp4	0.0	278.84448885917664	
59	160.7239179611206	fix_pre	0		33.0	57.0	2.5	/experiments/knapen_aot/videos/R_S_yt-WTxvvlP8xnw_113.mp4	0.0	278.8859930038452	0.2749929428100586
59	160.99071288108826	response	0	4		57.0	2.5	/experiments/knapen_aot/videos/R_S_yt-WTxvvlP8xnw_113.mp4	0.0	279.15278792381287	
59	160.99891090393066	movie	1		299.0	57.0	2.5	/experiments/knapen_aot/videos/R_S_yt-WTxvvlP8xnw_113.mp4	0.0	279.1609859466553	2.508371114730835
59	163.5072820186615	fix_post	2		12.0	57.0	2.5	/experiments/knapen_aot/videos/R_S_yt-WTxvvlP8xnw_113.mp4	0.0	281.6693570613861	0.09996390342712402
60	163.60724592208862	fix_pre	0		22.0	58.0	2.5	/experiments/knapen_aot/videos/R_S_yt-OdTWn1U1mO4_68.mp4	0.0	281.76932096481323	0.18331098556518555
60	163.78241682052612	response	0	4		58.0	2.5	/experiments/knapen_aot/videos/R_S_yt-OdTWn1U1mO4_68.mp4	0.0	281.94449186325073	
60	163.7905569076538	movie	1		301.0	58.0	2.5	/experiments/knapen_aot/videos/R_S_yt-OdTWn1U1mO4_68.mp4	0.0	281.9526319503784	2.5083680152893066
60	166.29892492294312	fix_post	2		12.0	58.0	2.5	/experiments/knapen_aot/videos/R_S_yt-OdTWn1U1mO4_68.mp4	0.0	284.4609999656677	0.10002708435058594
60	166.38240003585815	response	2	4		58.0	2.5	/experiments/knapen_aot/videos/R_S_yt-OdTWn1U1mO4_68.mp4	0.0	284.54447507858276	
61	166.3989520072937	fix_pre	0		47.0	59.0	2.5	/experiments/knapen_aot/videos/R_S_ILSVRC2015_train_00404003.mp4	0.0	284.5610270500183	0.3916959762573242
61	166.7823989391327	response	0	4		59.0	2.5	/experiments/knapen_aot/videos/R_S_ILSVRC2015_train_00404003.mp4	0.0	284.9444739818573	
61	166.79064798355103	movie	1		299.0	59.0	2.5	/experiments/knapen_aot/videos/R_S_ILSVRC2015_train_00404003.mp4	0.0	284.95272302627563	2.5083048343658447
61	169.29895281791687	fix_post	2		12.0	59.0	2.5	/experiments/knapen_aot/videos/R_S_ILSVRC2015_train_00404003.mp4	0.0	287.4610278606415	0.10034298896789551
62	169.39929580688477	fix_pre	0		16.0	60.0	2.5	/experiments/knapen_aot/videos/R_S_yt-vDjj0EWFdIU_49.mp4	0.0	287.5613708496094	0.13296818733215332
62	169.52409195899963	response	0	4		60.0	2.5	/experiments/knapen_aot/videos/R_S_yt-vDjj0EWFdIU_49.mp4	0.0	287.68616700172424	
62	169.53226399421692	movie	1		301.0	60.0	2.5	/experiments/knapen_aot/videos/R_S_yt-vDjj0EWFdIU_49.mp4	0.0	287.6943390369415	2.508222818374634
62	172.04048681259155	fix_post	2		12.0	60.0	2.5	/experiments/knapen_aot/videos/R_S_yt-vDjj0EWFdIU_49.mp4	0.0	290.20256185531616	0.100006103515625
63	172.14049291610718	fix_pre	0		21.0	61.0	2.5	blank	1.0	290.3025679588318	0.17545104026794434
63	172.30728697776794	response	0	4		61.0	2.5	blank	1.0	290.46936202049255	
63	172.31594395637512	movie	1		301.0	61.0	2.5	blank	1.0	290.47801899909973	2.5079240798950195
63	174.82386803627014	fix_post	2		12.0	61.0	2.5	blank	1.0	292.98594307899475	0.10006499290466309
64	174.9239330291748	fix_pre	0		46.0	62.0	2.5	/experiments/knapen_aot/videos/R_S_yt-PyO8-WsbaLU_43.mp4	0.0	293.0860080718994	0.3832550048828125
64	175.29896593093872	response	0	4		62.0	2.5	/experiments/knapen_aot/videos/R_S_yt-PyO8-WsbaLU_43.mp4	0.0	293.46104097366333	
64	175.30718803405762	movie	1		301.0	62.0	2.5	/experiments/knapen_aot/videos/R_S_yt-PyO8-WsbaLU_43.mp4	0.0	293.4692630767822	2.508373975753784
64	177.8155620098114	fix_post	2		12.0	62.0	2.5	/experiments/knapen_aot/videos/R_S_yt-PyO8-WsbaLU_43.mp4	0.0	295.977637052536	0.09998798370361328
65	177.91554999351501	fix_pre	0		19.0	63.0	2.5	/experiments/knapen_aot/videos/R_S_yt-QI6k6mhpxLo_453.mp4	0.0	296.0776250362396	0.15833687782287598
65	178.06570887565613	response	0	4		63.0	2.5	/experiments/knapen_aot/videos/R_S_yt-QI6k6mhpxLo_453.mp4	0.0	296.22778391838074	
65	178.0738868713379	movie	1		301.0	63.0	2.5	/experiments/knapen_aot/videos/R_S_yt-QI6k6mhpxLo_453.mp4	0.0	296.2359619140625	2.508324146270752
65	180.58221101760864	fix_post	2		12.0	63.0	2.5	/experiments/knapen_aot/videos/R_S_yt-QI6k6mhpxLo_453.mp4	0.0	298.74428606033325	0.09995079040527344
66	180.68216180801392	fix_pre	0		13.0	64.0	2.5	/experiments/knapen_aot/videos/R_S_b4-3.mp4	0.0	298.8442368507385	0.1083211898803711
66	180.78228187561035	response	0	4		64.0	2.5	/experiments/knapen_aot/videos/R_S_b4-3.mp4	0.0	298.94435691833496	
66	180.7904829978943	movie	1		164.0	64.0	2.5	/experiments/knapen_aot/videos/R_S_b4-3.mp4	0.0	298.9525580406189	2.508356809616089
66	183.29883980751038	fix_post	2		12.0	64.0	2.5	/experiments/knapen_aot/videos/R_S_b4-3.mp4	0.0	301.460914850235	0.09995222091674805
67	183.39879202842712	fix_pre	0		3.0	65.0	2.5	/experiments/knapen_aot/videos/R_S_ILSVRC2015_train_00185002.mp4	0.0	301.56086707115173	0.02502584457397461
67	183.415678024292	response	0	4		65.0	2.5	/experiments/knapen_aot/videos/R_S_ILSVRC2015_train_00185002.mp4	0.0	301.5777530670166	
67	183.4238178730011	movie	1		301.0	65.0	2.5	/experiments/knapen_aot/videos/R_S_ILSVRC2015_train_00185002.mp4	0.0	301.5858929157257	2.5083720684051514
67	185.93218994140625	fix_post	2		12.0	65.0	2.5	/experiments/knapen_aot/videos/R_S_ILSVRC2015_train_00185002.mp4	0.0	304.09426498413086	0.09997797012329102
67	185.99886393547058	response	2	4		65.0	2.5	/experiments/knapen_aot/videos/R_S_ILSVRC2015_train_00185002.mp4	0.0	304.1609389781952	
68	186.03216791152954	fix_pre	0		49.0	66.0	2.5	/experiments/knapen_aot/videos/S_yt-deiWoIfK6vg_44.mp4	0.0	304.19424295425415	0.4086589813232422
68	186.4322488307953	response	0	4		66.0	2.5	/experiments/knapen_aot/videos/S_yt-deiWoIfK6vg_44.mp4	0.0	304.5943238735199	
68	186.44082689285278	movie	1		301.0	66.0	2.5	/experiments/knapen_aot/videos/S_yt-deiWoIfK6vg_44.mp4	0.0	304.6029019355774	2.5079901218414307
68	188.9488170146942	fix_post	2		12.0	66.0	2.5	/experiments/knapen_aot/videos/S_yt-deiWoIfK6vg_44.mp4	0.0	307.1108920574188	0.10000181198120117
69	189.04881882667542	fix_pre	0		11.0	67.0	2.5	/experiments/knapen_aot/videos/S_yt-F3hhts3bwWg_25.mp4	0.0	307.2108938694	0.0916750431060791
69	189.13221788406372	response	0	4		67.0	2.5	/experiments/knapen_aot/videos/S_yt-F3hhts3bwWg_25.mp4	0.0	307.29429292678833	
69	189.1404938697815	movie	1		301.0	67.0	2.5	/experiments/knapen_aot/videos/S_yt-F3hhts3bwWg_25.mp4	0.0	307.3025689125061	2.5082571506500244
69	191.64875102043152	fix_post	2		12.0	67.0	2.5	/experiments/knapen_aot/videos/S_yt-F3hhts3bwWg_25.mp4	0.0	309.8108260631561	0.10001182556152344
70	191.74876284599304	fix_pre	0		44.0	68.0	2.5	/experiments/knapen_aot/videos/S_flickr-hapanine-31880782705_22.mp4	0.0	309.91083788871765	0.366595983505249
70	192.10728001594543	response	0	4		68.0	2.5	/experiments/knapen_aot/videos/S_flickr-hapanine-31880782705_22.mp4	0.0	310.26935505867004	
70	192.1153588294983	movie	1		170.0	68.0	2.5	/experiments/knapen_aot/videos/S_flickr-hapanine-31880782705_22.mp4	0.0	310.2774338722229	2.508437156677246
70	194.62379598617554	fix_post	2		12.0	68.0	2.5	/experiments/knapen_aot/videos/S_flickr-hapanine-31880782705_22.mp4	0.0	312.78587102890015	0.09998703002929688
71	194.72378301620483	fix_pre	0		27.0	69.0	2.5	blank	1.0	312.88585805892944	0.22503399848937988
71	194.9404740333557	response	0	4		69.0	2.5	blank	1.0	313.1025490760803	
71	194.9488170146942	movie	1		301.0	69.0	2.5	blank	1.0	313.1108920574188	2.508279800415039
71	197.45709681510925	fix_post	2		12.0	69.0	2.5	blank	1.0	315.61917185783386	0.09992408752441406
72	197.55702090263367	fix_pre	0		16.0	70.0	2.5	/experiments/knapen_aot/videos/R_S_yt_R-JarqKC4X8nM_4.mp4	0.0	315.7190959453583	0.13371992111206055
72	197.68222999572754	response	0	4		70.0	2.5	/experiments/knapen_aot/videos/R_S_yt_R-JarqKC4X8nM_4.mp4	0.0	315.84430503845215	
72	197.69074082374573	movie	1		301.0	70.0	2.5	/experiments/knapen_aot/videos/R_S_yt_R-JarqKC4X8nM_4.mp4	0.0	315.85281586647034	2.508010149002075
72	200.1987509727478	fix_post	2		12.0	70.0	2.5	/experiments/knapen_aot/videos/R_S_yt_R-JarqKC4X8nM_4.mp4	0.0	318.3608260154724	0.10001087188720703
72	200.24057698249817	response	2	4		70.0	2.5	/experiments/knapen_aot/videos/R_S_yt_R-JarqKC4X8nM_4.mp4	0.0	318.4026520252228	
73	200.298761844635	fix_pre	0		29.0	71.0	2.5	/experiments/knapen_aot/videos/R_S_pexels-rodnae-productions-5993671.mp4	0.0	318.4608368873596	0.24161911010742188
73	200.5321569442749	response	0	4		71.0	2.5	/experiments/knapen_aot/videos/R_S_pexels-rodnae-productions-5993671.mp4	0.0	318.6942319869995	
73	200.54038095474243	movie	1		165.0	71.0	2.5	/experiments/knapen_aot/videos/R_S_pexels-rodnae-productions-5993671.mp4	0.0	318.70245599746704	2.508349895477295
73	203.04873085021973	fix_post	2		12.0	71.0	2.5	/experiments/knapen_aot/videos/R_S_pexels-rodnae-productions-5993671.mp4	0.0	321.21080589294434	0.10024619102478027
73	203.07386684417725	response	2	4		71.0	2.5	/experiments/knapen_aot/videos/R_S_pexels-rodnae-productions-5993671.mp4	0.0	321.23594188690186	
74	203.1489770412445	fix_pre	0		20.0	72.0	2.5	/experiments/knapen_aot/videos/S_yt-RNPFV7lgAvE_362.mp4	0.0	321.3110520839691	0.16666197776794434
74	203.30716586112976	response	0	4		72.0	2.5	/experiments/knapen_aot/videos/S_yt-RNPFV7lgAvE_362.mp4	0.0	321.46924090385437	
74	203.31563901901245	movie	1		300.0	72.0	2.5	/experiments/knapen_aot/videos/S_yt-RNPFV7lgAvE_362.mp4	0.0	321.47771406173706	2.5081357955932617
74	205.8237748146057	fix_post	2		12.0	72.0	2.5	/experiments/knapen_aot/videos/S_yt-RNPFV7lgAvE_362.mp4	0.0	323.9858498573303	0.09999322891235352
74	205.91554498672485	response	2	4		72.0	2.5	/experiments/knapen_aot/videos/S_yt-RNPFV7lgAvE_362.mp4	0.0	324.07762002944946	
75	205.92376804351807	fix_pre	0		43.0	73.0	2.5	/experiments/knapen_aot/videos/R_S_ILSVRC2015_train_00251005.mp4	0.0	324.0858430862427	0.35827088356018066
75	206.27387881278992	response	0	4		73.0	2.5	/experiments/knapen_aot/videos/R_S_ILSVRC2015_train_00251005.mp4	0.0	324.4359538555145	
75	206.28203892707825	movie	1		301.0	73.0	2.5	/experiments/knapen_aot/videos/R_S_ILSVRC2015_train_00251005.mp4	0.0	324.44411396980286	2.5083389282226562
75	208.7903778553009	fix_post	2		12.0	73.0	2.5	/experiments/knapen_aot/videos/R_S_ILSVRC2015_train_00251005.mp4	0.0	326.9524528980255	0.10004496574401855
76	208.89042282104492	fix_pre	0		3.0	74.0	2.5	/experiments/knapen_aot/videos/R_S_ILSVRC2015_train_00578000.mp4	0.0	327.05249786376953	0.024993181228637695
76	208.90729403495789	response	0	4		74.0	2.5	/experiments/knapen_aot/videos/R_S_ILSVRC2015_train_00578000.mp4	0.0	327.0693690776825	
76	208.91541600227356	movie	1		301.0	74.0	2.5	/experiments/knapen_aot/videos/R_S_ILSVRC2015_train_00578000.mp4	0.0	327.07749104499817	2.5082948207855225
76	211.42371082305908	fix_post	2		12.0	74.0	2.5	/experiments/knapen_aot/videos/R_S_ILSVRC2015_train_00578000.mp4	0.0	329.5857858657837	0.1002202033996582
77	211.52393102645874	fix_pre	0		9.0	75.0	2.5	/experiments/knapen_aot/videos/R_S_production_ID_4325591.mp4	0.0	329.68600606918335	0.0747988224029541
77	211.59054589271545	response	0	4		75.0	2.5	/experiments/knapen_aot/videos/R_S_production_ID_4325591.mp4	0.0	329.75262093544006	
77	211.5987298488617	movie	1		206.0	75.0	2.5	/experiments/knapen_aot/videos/R_S_production_ID_4325591.mp4	0.0	329.7608048915863	2.5084781646728516
77	214.10720801353455	fix_post	2		12.0	75.0	2.5	/experiments/knapen_aot/videos/R_S_production_ID_4325591.mp4	0.0	332.26928305625916	0.09982991218566895
78	214.20703792572021	fix_pre	0		16.0	76.0	2.5	blank	1.0	332.3691129684448	0.1332709789276123
78	214.33218598365784	response	0	4		76.0	2.5	blank	1.0	332.49426102638245	
78	214.34030890464783	movie	1		301.0	76.0	2.5	blank	1.0	332.50238394737244	2.50827693939209
78	216.84858584403992	fix_post	2		12.0	76.0	2.5	blank	1.0	335.0106608867645	0.10006403923034668
79	216.94864988327026	fix_pre	0		25.0	77.0	2.5	/experiments/knapen_aot/videos/S_yt-kA0ybjmoiMc_284.mp4	0.0	335.1107249259949	0.20836901664733887
79	217.14884090423584	response	0	4		77.0	2.5	/experiments/knapen_aot/videos/S_yt-kA0ybjmoiMc_284.mp4	0.0	335.31091594696045	
79	217.1570188999176	movie	1		301.0	77.0	2.5	/experiments/knapen_aot/videos/S_yt-kA0ybjmoiMc_284.mp4	0.0	335.3190939426422	2.5082900524139404
79	219.66530895233154	fix_post	2		12.0	77.0	2.5	/experiments/knapen_aot/videos/S_yt-kA0ybjmoiMc_284.mp4	0.0	337.82738399505615	0.10003805160522461
80	219.76534700393677	fix_pre	0		9.0	78.0	2.5	/experiments/knapen_aot/videos/R_S_ILSVRC2015_train_00001011.mp4	0.0	337.9274220466614	0.07499003410339355
80	219.8321089744568	response	0	4		78.0	2.5	/experiments/knapen_aot/videos/R_S_ILSVRC2015_train_00001011.mp4	0.0	337.9941840171814	
80	219.84033703804016	movie	1		301.0	78.0	2.5	/experiments/knapen_aot/videos/R_S_ILSVRC2015_train_00001011.mp4	0.0	338.00241208076477	2.5082929134368896
80	222.34862995147705	fix_post	2		12.0	78.0	2.5	/experiments/knapen_aot/videos/R_S_ILSVRC2015_train_00001011.mp4	0.0	340.51070499420166	0.10001707077026367
80	222.39943504333496	response	2	4		78.0	2.5	/experiments/knapen_aot/videos/R_S_ILSVRC2015_train_00001011.mp4	0.0	340.56151008605957	
81	222.44864702224731	fix_pre	0		29.0	79.0	2.5	/experiments/knapen_aot/videos/S_ILSVRC2015_train_00654000.mp4	0.0	340.6107220649719	0.24174094200134277
81	222.6821539402008	response	0	4		79.0	2.5	/experiments/knapen_aot/videos/S_ILSVRC2015_train_00654000.mp4	0.0	340.8442289829254	
81	222.69038796424866	movie	1		301.0	79.0	2.5	/experiments/knapen_aot/videos/S_ILSVRC2015_train_00654000.mp4	0.0	340.85246300697327	2.5082499980926514
81	225.1986379623413	fix_post	2		12.0	79.0	2.5	/experiments/knapen_aot/videos/S_ILSVRC2015_train_00654000.mp4	0.0	343.3607130050659	0.10007405281066895
82	225.29871201515198	fix_pre	0		11.0	80.0	2.5	/experiments/knapen_aot/videos/S_yt-wPXrAuiiRZg_1062.mp4	0.0	343.4607870578766	0.0915989875793457
82	225.38208293914795	response	0	4		80.0	2.5	/experiments/knapen_aot/videos/S_yt-wPXrAuiiRZg_1062.mp4	0.0	343.54415798187256	
82	225.39031100273132	movie	1		301.0	80.0	2.5	/experiments/knapen_aot/videos/S_yt-wPXrAuiiRZg_1062.mp4	0.0	343.55238604545593	2.5083138942718506
82	227.89862489700317	fix_post	2		12.0	80.0	2.5	/experiments/knapen_aot/videos/S_yt-wPXrAuiiRZg_1062.mp4	0.0	346.0606999397278	0.10011410713195801
83	227.99873900413513	fix_pre	0		8.0	81.0	2.5	/experiments/knapen_aot/videos/R_S_yt-AbJBxqEYoMg_27.mp4	0.0	346.16081404685974	0.06678485870361328
83	228.05718898773193	response	0	4		81.0	2.5	/experiments/knapen_aot/videos/R_S_yt-AbJBxqEYoMg_27.mp4	0.0	346.21926403045654	
83	228.06552386283875	movie	1		298.0	81.0	2.5	/experiments/knapen_aot/videos/R_S_yt-AbJBxqEYoMg_27.mp4	0.0	346.22759890556335	2.508085012435913
83	230.57360887527466	fix_post	2		12.0	81.0	2.5	/experiments/knapen_aot/videos/R_S_yt-AbJBxqEYoMg_27.mp4	0.0	348.73568391799927	0.099945068359375
84	230.67355394363403	fix_pre	0		9.0	82.0	2.5	blank	1.0	348.83562898635864	0.07501387596130371
84	230.74040293693542	response	0	4		82.0	2.5	blank	1.0	348.90247797966003	
84	230.74856781959534	movie	1		301.0	82.0	2.5	blank	1.0	348.91064286231995	2.5083141326904297
84	233.25688195228577	fix_post	2		12.0	82.0	2.5	blank	1.0	351.4189569950104	0.10013890266418457
85	233.35702085494995	fix_pre	0		18.0	83.0	2.5	/experiments/knapen_aot/videos/S_Pexels_Videos_278654_1.mp4	0.0	351.51909589767456	0.14988398551940918
85	233.49876499176025	response	0	4		83.0	2.5	/experiments/knapen_aot/videos/S_Pexels_Videos_278654_1.mp4	0.0	351.66084003448486	
85	233.50690484046936	movie	1		169.0	83.0	2.5	/experiments/knapen_aot/videos/S_Pexels_Videos_278654_1.mp4	0.0	351.66897988319397	2.508406162261963
85	236.01531100273132	fix_post	2		12.0	83.0	2.5	/experiments/knapen_aot/videos/S_Pexels_Videos_278654_1.mp4	0.0	354.17738604545593	0.09992790222167969
87	236.115238904953	stim	0		153.0					354.2773139476776	1.276489019393921
87	236.18328094482422	response	0	4						354.3453559875488	
87	236.69886183738708	response	0	4						354.8609368801117	
87	237.38681387901306	response	0	space						355.54888892173767	
