trial_nr	onset	event_type	phase	response	nr_frames	movie_index	movie_duration	movie_file	blank	onset_abs	duration
0	0.12487602233886719	stim	0		77.0					75.33358311653137	0.6416940689086914
0	0.7584540843963623	response	0	space						75.96716117858887	
1	0.7665700912475586	stim	0		121.0					75.97527718544006	1.0079569816589355
1	1.2249782085418701	response	0	space						76.43368530273438	
1	1.4752311706542969	response	0	space						76.6839382648468	
1	1.70064115524292	response	0	space						76.90934824943542	
1	1.7745270729064941	stim	1		120.0					76.983234167099	0.9999699592590332
1	1.9009411334991455	response	1	space						77.10964822769165	
1	2.100565195083618	response	1	space						77.30927228927612	
1	2.3162691593170166	response	1	space						77.52497625350952	
1	2.351257085800171	response	1	2						77.55996417999268	
2	2.7744970321655273	fix_pre	0		4.0	0.0	2.5	/experiments/knapen_aot/videos/R_S_yt-d5jBQ-LOW2I_17.mp4	0.0	77.98320412635803	0.03717398643493652
2	2.802274227142334	response	0	space		0.0	2.5	/experiments/knapen_aot/videos/R_S_yt-d5jBQ-LOW2I_17.mp4	0.0	78.01098132133484	
2	2.811671018600464	movie	1		299.0	0.0	2.5	/experiments/knapen_aot/videos/R_S_yt-d5jBQ-LOW2I_17.mp4	0.0	78.02037811279297	2.504592180252075
2	4.659271001815796	response	1	4		0.0	2.5	/experiments/knapen_aot/videos/R_S_yt-d5jBQ-LOW2I_17.mp4	0.0	79.8679780960083	
2	5.316263198852539	fix_post	2		12.0	0.0	2.5	/experiments/knapen_aot/videos/R_S_yt-d5jBQ-LOW2I_17.mp4	0.0	80.52497029304504	0.09992098808288574
3	5.416184186935425	fix_pre	0		36.0	1.0	2.5	/experiments/knapen_aot/videos/R_S_yt-uXDyvrm0Tw0_17.mp4	0.0	80.62489128112793	0.3000519275665283
3	5.7005860805511475	response	0	4		1.0	2.5	/experiments/knapen_aot/videos/R_S_yt-uXDyvrm0Tw0_17.mp4	0.0	80.90929317474365	
3	5.716236114501953	movie	1		301.0	1.0	2.5	/experiments/knapen_aot/videos/R_S_yt-uXDyvrm0Tw0_17.mp4	0.0	80.92494320869446	2.5083329677581787
3	8.224569082260132	fix_post	2		12.0	1.0	2.5	/experiments/knapen_aot/videos/R_S_yt-uXDyvrm0Tw0_17.mp4	0.0	83.43327617645264	0.0999150276184082
4	8.32448410987854	fix_pre	0		14.0	2.0	2.5	/experiments/knapen_aot/videos/R_S_yt-Gc1p5CnDbDY_22.mp4	0.0	83.53319120407104	0.11668896675109863
4	8.433043003082275	response	0	4		2.0	2.5	/experiments/knapen_aot/videos/R_S_yt-Gc1p5CnDbDY_22.mp4	0.0	83.64175009727478	
4	8.441173076629639	movie	1		301.0	2.0	2.5	/experiments/knapen_aot/videos/R_S_yt-Gc1p5CnDbDY_22.mp4	0.0	83.64988017082214	2.5083861351013184
4	10.87469220161438	response	1	4		2.0	2.5	/experiments/knapen_aot/videos/R_S_yt-Gc1p5CnDbDY_22.mp4	0.0	86.08339929580688	
4	10.949559211730957	fix_post	2		12.0	2.0	2.5	/experiments/knapen_aot/videos/R_S_yt-Gc1p5CnDbDY_22.mp4	0.0	86.15826630592346	0.0999748706817627
5	11.04953408241272	fix_pre	0		125.0	3.0	2.5	/experiments/knapen_aot/videos/R_S_yt-FzMLLmcD1mE_19.mp4	0.0	86.25824117660522	1.041628122329712
5	12.082956075668335	response	0	4		3.0	2.5	/experiments/knapen_aot/videos/R_S_yt-FzMLLmcD1mE_19.mp4	0.0	87.29166316986084	
5	12.091162204742432	movie	1		301.0	3.0	2.5	/experiments/knapen_aot/videos/R_S_yt-FzMLLmcD1mE_19.mp4	0.0	87.29986929893494	2.508380889892578
5	14.59954309463501	fix_post	2		12.0	3.0	2.5	/experiments/knapen_aot/videos/R_S_yt-FzMLLmcD1mE_19.mp4	0.0	89.80825018882751	0.09995198249816895
6	14.699495077133179	fix_pre	0		204.0	4.0	2.5	/experiments/knapen_aot/videos/R_S_yt-cG2qDR5ka5w_119.mp4	0.0	89.90820217132568	1.700019121170044
6	16.391311168670654	response	0	4		4.0	2.5	/experiments/knapen_aot/videos/R_S_yt-cG2qDR5ka5w_119.mp4	0.0	91.60001826286316	
6	16.399514198303223	movie	1		301.0	4.0	2.5	/experiments/knapen_aot/videos/R_S_yt-cG2qDR5ka5w_119.mp4	0.0	91.60822129249573	2.508419990539551
6	18.907934188842773	fix_post	2		12.0	4.0	2.5	/experiments/knapen_aot/videos/R_S_yt-cG2qDR5ka5w_119.mp4	0.0	94.11664128303528	0.09988093376159668
7	19.00781512260437	fix_pre	0		36.0	5.0	2.5	blank	1.0	94.21652221679688	0.3000650405883789
7	19.29970121383667	response	0	4		5.0	2.5	blank	1.0	94.50840830802917	
7	19.30788016319275	movie	1		301.0	5.0	2.5	blank	1.0	94.51658725738525	2.508327007293701
7	21.81620717048645	fix_post	2		12.0	5.0	2.5	blank	1.0	97.02491426467896	0.09999704360961914
8	21.91620421409607	fix_pre	0		24.0	6.0	2.5	/experiments/knapen_aot/videos/R_S_yt-VjTiMtjdjTw_103.mp4	0.0	97.12491130828857	0.2007608413696289
8	22.1079740524292	response	0	4		6.0	2.5	/experiments/knapen_aot/videos/R_S_yt-VjTiMtjdjTw_103.mp4	0.0	97.3166811466217	
8	22.1169650554657	movie	1		299.0	6.0	2.5	/experiments/knapen_aot/videos/R_S_yt-VjTiMtjdjTw_103.mp4	0.0	97.3256721496582	2.5074570178985596
8	24.32546901702881	response	1	4		6.0	2.5	/experiments/knapen_aot/videos/R_S_yt-VjTiMtjdjTw_103.mp4	0.0	99.53417611122131	
8	24.624422073364258	fix_post	2		12.0	6.0	2.5	/experiments/knapen_aot/videos/R_S_yt-VjTiMtjdjTw_103.mp4	0.0	99.83312916755676	0.10005307197570801
9	24.724475145339966	fix_pre	0		31.0	7.0	2.5	/experiments/knapen_aot/videos/S_yt-thmqgEV-sYY_91.mp4	0.0	99.93318223953247	0.25833892822265625
9	24.974611043930054	response	0	4		7.0	2.5	/experiments/knapen_aot/videos/S_yt-thmqgEV-sYY_91.mp4	0.0	100.18331813812256	
9	24.982814073562622	movie	1		301.0	7.0	2.5	/experiments/knapen_aot/videos/S_yt-thmqgEV-sYY_91.mp4	0.0	100.19152116775513	2.5083260536193848
9	27.491140127182007	fix_post	2		12.0	7.0	2.5	/experiments/knapen_aot/videos/S_yt-thmqgEV-sYY_91.mp4	0.0	102.69984722137451	0.10001802444458008
10	27.591158151626587	fix_pre	0		19.0	8.0	2.5	/experiments/knapen_aot/videos/R_S_bing-www_dailymotion_com_video_x64hzm7_8.mp4	0.0	102.79986524581909	0.1582958698272705
10	27.733704090118408	response	0	4		8.0	2.5	/experiments/knapen_aot/videos/R_S_bing-www_dailymotion_com_video_x64hzm7_8.mp4	0.0	102.94241118431091	
10	27.749454021453857	movie	1		167.0	8.0	2.5	/experiments/knapen_aot/videos/R_S_bing-www_dailymotion_com_video_x64hzm7_8.mp4	0.0	102.95816111564636	2.508357048034668
10	30.257811069488525	fix_post	2		12.0	8.0	2.5	/experiments/knapen_aot/videos/R_S_bing-www_dailymotion_com_video_x64hzm7_8.mp4	0.0	105.46651816368103	0.09998703002929688
11	30.357798099517822	fix_pre	0		15.0	9.0	2.5	/experiments/knapen_aot/videos/R_S_yt-kawmL3oVw8c_2.mp4	0.0	105.56650519371033	0.12496590614318848
11	30.474621057510376	response	0	4		9.0	2.5	/experiments/knapen_aot/videos/R_S_yt-kawmL3oVw8c_2.mp4	0.0	105.68332815170288	
11	30.48276400566101	movie	1		301.0	9.0	2.5	/experiments/knapen_aot/videos/R_S_yt-kawmL3oVw8c_2.mp4	0.0	105.69147109985352	2.5083131790161133
11	32.991077184677124	fix_post	2		12.0	9.0	2.5	/experiments/knapen_aot/videos/R_S_yt-kawmL3oVw8c_2.mp4	0.0	108.19978427886963	0.09994697570800781
12	33.09102416038513	fix_pre	0		40.0	10.0	2.5	/experiments/knapen_aot/videos/R_S_OdxWh1oU8e8_1.mp4	0.0	108.29973125457764	0.33341288566589355
12	33.41622018814087	response	0	4		10.0	2.5	/experiments/knapen_aot/videos/R_S_OdxWh1oU8e8_1.mp4	0.0	108.62492728233337	
12	33.424437046051025	movie	1		301.0	10.0	2.5	/experiments/knapen_aot/videos/R_S_OdxWh1oU8e8_1.mp4	0.0	108.63314414024353	2.5083420276641846
12	35.93277907371521	fix_post	2		12.0	10.0	2.5	/experiments/knapen_aot/videos/R_S_OdxWh1oU8e8_1.mp4	0.0	111.14148616790771	0.10002899169921875
13	36.03280806541443	fix_pre	0		49.0	11.0	2.5	/experiments/knapen_aot/videos/R_S_yt-6mRpmfIvdew_1435.mp4	0.0	111.24151515960693	0.4082319736480713
13	36.42533302307129	response	0	4		11.0	2.5	/experiments/knapen_aot/videos/R_S_yt-6mRpmfIvdew_1435.mp4	0.0	111.6340401172638	
13	36.4410400390625	movie	1		301.0	11.0	2.5	/experiments/knapen_aot/videos/R_S_yt-6mRpmfIvdew_1435.mp4	0.0	111.649747133255	2.508342981338501
13	38.949383020401	fix_post	2		12.0	11.0	2.5	/experiments/knapen_aot/videos/R_S_yt-6mRpmfIvdew_1435.mp4	0.0	114.1580901145935	0.10006403923034668
14	39.04944705963135	fix_pre	0		24.0	12.0	2.5	blank	1.0	114.25815415382385	0.2000291347503662
14	39.23371410369873	response	0	4		12.0	2.5	blank	1.0	114.44242119789124	
14	39.249476194381714	movie	1		301.0	12.0	2.5	blank	1.0	114.45818328857422	2.5082638263702393
14	41.75774002075195	fix_post	2		12.0	12.0	2.5	blank	1.0	116.96644711494446	0.10007500648498535
15	41.85781502723694	fix_pre	0		28.0	13.0	2.5	/experiments/knapen_aot/videos/S_yt-VQtbKGzI9SE_431.mp4	0.0	117.06652212142944	0.23339200019836426
15	42.0828640460968	response	0	4		13.0	2.5	/experiments/knapen_aot/videos/S_yt-VQtbKGzI9SE_431.mp4	0.0	117.2915711402893	
15	42.0912070274353	movie	1		300.0	13.0	2.5	/experiments/knapen_aot/videos/S_yt-VQtbKGzI9SE_431.mp4	0.0	117.29991412162781	2.508169174194336
15	43.86717700958252	response	1	4		13.0	2.5	/experiments/knapen_aot/videos/S_yt-VQtbKGzI9SE_431.mp4	0.0	119.07588410377502	
15	44.59937620162964	fix_post	2		12.0	13.0	2.5	/experiments/knapen_aot/videos/S_yt-VQtbKGzI9SE_431.mp4	0.0	119.80808329582214	0.09994888305664062
16	44.69932508468628	fix_pre	0		25.0	14.0	2.5	/experiments/knapen_aot/videos/R_S_yt-SCzpSxzt0TA_46.mp4	0.0	119.90803217887878	0.20910000801086426
16	44.899447202682495	response	0	4		14.0	2.5	/experiments/knapen_aot/videos/R_S_yt-SCzpSxzt0TA_46.mp4	0.0	120.108154296875	
16	44.908425092697144	movie	1		301.0	14.0	2.5	/experiments/knapen_aot/videos/R_S_yt-SCzpSxzt0TA_46.mp4	0.0	120.11713218688965	2.5076100826263428
16	47.416035175323486	fix_post	2		12.0	14.0	2.5	/experiments/knapen_aot/videos/R_S_yt-SCzpSxzt0TA_46.mp4	0.0	122.62474226951599	0.09998393058776855
17	47.516019105911255	fix_pre	0		36.0	15.0	2.5	/experiments/knapen_aot/videos/S_yt-lADkWM79teI_18.mp4	0.0	122.72472620010376	0.29999589920043945
17	47.80785417556763	response	0	4		15.0	2.5	/experiments/knapen_aot/videos/S_yt-lADkWM79teI_18.mp4	0.0	123.01656126976013	
17	47.816015005111694	movie	1		301.0	15.0	2.5	/experiments/knapen_aot/videos/S_yt-lADkWM79teI_18.mp4	0.0	123.0247220993042	2.5083370208740234
17	50.32435202598572	fix_post	2		12.0	15.0	2.5	/experiments/knapen_aot/videos/S_yt-lADkWM79teI_18.mp4	0.0	125.53305912017822	0.10001516342163086
18	50.42436718940735	fix_pre	0		34.0	16.0	2.5	/experiments/knapen_aot/videos/R_S_yt-4sSV4iIs8gQ_55.mp4	0.0	125.63307428359985	0.2832508087158203
18	50.6995210647583	response	0	4		16.0	2.5	/experiments/knapen_aot/videos/R_S_yt-4sSV4iIs8gQ_55.mp4	0.0	125.9082281589508	
18	50.70761799812317	movie	1		301.0	16.0	2.5	/experiments/knapen_aot/videos/R_S_yt-4sSV4iIs8gQ_55.mp4	0.0	125.91632509231567	2.5083580017089844
18	52.80785822868347	response	1	4		16.0	2.5	/experiments/knapen_aot/videos/R_S_yt-4sSV4iIs8gQ_55.mp4	0.0	128.01656532287598	
18	53.21597599983215	fix_post	2		12.0	16.0	2.5	/experiments/knapen_aot/videos/R_S_yt-4sSV4iIs8gQ_55.mp4	0.0	128.42468309402466	0.10008716583251953
19	53.31606316566467	fix_pre	0		493.0	17.0	2.5	/experiments/knapen_aot/videos/R_S_yt-0Zze3Ff12Ys_58.mp4	0.0	128.52477025985718	4.108228921890259
19	57.41612005233765	response	0	4		17.0	2.5	/experiments/knapen_aot/videos/R_S_yt-0Zze3Ff12Ys_58.mp4	0.0	132.62482714653015	
19	57.42429208755493	movie	1		301.0	17.0	2.5	/experiments/knapen_aot/videos/R_S_yt-0Zze3Ff12Ys_58.mp4	0.0	132.63299918174744	2.5083580017089844
19	59.932650089263916	fix_post	2		12.0	17.0	2.5	/experiments/knapen_aot/videos/R_S_yt-0Zze3Ff12Ys_58.mp4	0.0	135.14135718345642	0.09997010231018066
20	60.0326201915741	fix_pre	0		25.0	18.0	2.5	/experiments/knapen_aot/videos/R_S_yt-oT4Bq8zYN4E_42.mp4	0.0	135.2413272857666	0.20899391174316406
20	60.23278212547302	response	0	4		18.0	2.5	/experiments/knapen_aot/videos/R_S_yt-oT4Bq8zYN4E_42.mp4	0.0	135.44148921966553	
20	60.24161410331726	movie	1		301.0	18.0	2.5	/experiments/knapen_aot/videos/R_S_yt-oT4Bq8zYN4E_42.mp4	0.0	135.45032119750977	2.5077269077301025
20	62.74934101104736	fix_post	2		12.0	18.0	2.5	/experiments/knapen_aot/videos/R_S_yt-oT4Bq8zYN4E_42.mp4	0.0	137.95804810523987	0.09999299049377441
21	62.84933400154114	fix_pre	0		5.0	19.0	2.5	/experiments/knapen_aot/videos/S_yt-_Hnr82bYGEQ_103.mp4	0.0	138.05804109573364	0.04160714149475098
21	62.87571120262146	response	0	4		19.0	2.5	/experiments/knapen_aot/videos/S_yt-_Hnr82bYGEQ_103.mp4	0.0	138.08441829681396	
21	62.89094114303589	movie	1		301.0	19.0	2.5	/experiments/knapen_aot/videos/S_yt-_Hnr82bYGEQ_103.mp4	0.0	138.0996482372284	2.5103759765625
21	65.40131711959839	fix_post	2		12.0	19.0	2.5	/experiments/knapen_aot/videos/S_yt-_Hnr82bYGEQ_103.mp4	0.0	140.6100242137909	0.0980379581451416
22	65.49935507774353	fix_pre	0		189.0	20.0	2.5	blank	1.0	140.70806217193604	1.5756011009216309
22	67.0660560131073	response	0	4		20.0	2.5	blank	1.0	142.2747631072998	
22	67.07495617866516	movie	1		301.0	20.0	2.5	blank	1.0	142.28366327285767	2.5076658725738525
22	69.58262205123901	fix_post	2		12.0	20.0	2.5	blank	1.0	144.79132914543152	0.09996795654296875
23	69.68259000778198	fix_pre	0		58.0	21.0	2.5	/experiments/knapen_aot/videos/S_yt-83nimFMNhrM_131.mp4	0.0	144.8912971019745	0.4833540916442871
23	70.1577742099762	response	0	4		21.0	2.5	/experiments/knapen_aot/videos/S_yt-83nimFMNhrM_131.mp4	0.0	145.3664813041687	
23	70.16594409942627	movie	1		301.0	21.0	2.5	/experiments/knapen_aot/videos/S_yt-83nimFMNhrM_131.mp4	0.0	145.37465119361877	2.5084710121154785
23	72.67441511154175	fix_post	2		12.0	21.0	2.5	/experiments/knapen_aot/videos/S_yt-83nimFMNhrM_131.mp4	0.0	147.88312220573425	0.09989190101623535
24	72.77430701255798	fix_pre	0		20.0	22.0	2.5	/experiments/knapen_aot/videos/R_S_yt-vQGD-rJyMw4_166.mp4	0.0	147.9830141067505	0.1666100025177002
24	72.93279004096985	response	0	4		22.0	2.5	/experiments/knapen_aot/videos/R_S_yt-vQGD-rJyMw4_166.mp4	0.0	148.14149713516235	
24	72.94091701507568	movie	1		301.0	22.0	2.5	/experiments/knapen_aot/videos/R_S_yt-vQGD-rJyMw4_166.mp4	0.0	148.1496241092682	2.5083930492401123
24	75.4493100643158	fix_post	2		12.0	22.0	2.5	/experiments/knapen_aot/videos/R_S_yt-vQGD-rJyMw4_166.mp4	0.0	150.6580171585083	0.10000014305114746
25	75.54931020736694	fix_pre	0		27.0	23.0	2.5	/experiments/knapen_aot/videos/S_yt-urJgH6tpfkU_204.mp4	0.0	150.75801730155945	0.2249770164489746
25	75.7660551071167	response	0	4		23.0	2.5	/experiments/knapen_aot/videos/S_yt-urJgH6tpfkU_204.mp4	0.0	150.9747622013092	
25	75.77428722381592	movie	1		301.0	23.0	2.5	/experiments/knapen_aot/videos/S_yt-urJgH6tpfkU_204.mp4	0.0	150.98299431800842	2.508342981338501
25	78.28263020515442	fix_post	2		12.0	23.0	2.5	/experiments/knapen_aot/videos/S_yt-urJgH6tpfkU_204.mp4	0.0	153.49133729934692	0.09993290901184082
26	78.38256311416626	fix_pre	0		30.0	24.0	2.5	/experiments/knapen_aot/videos/R_S_yt-yXJr3FR2xrM_27.mp4	0.0	153.59127020835876	0.25002503395080566
26	78.62440514564514	response	0	4		24.0	2.5	/experiments/knapen_aot/videos/R_S_yt-yXJr3FR2xrM_27.mp4	0.0	153.83311223983765	
26	78.63258814811707	movie	1		300.0	24.0	2.5	/experiments/knapen_aot/videos/R_S_yt-yXJr3FR2xrM_27.mp4	0.0	153.84129524230957	2.50838303565979
26	80.82497215270996	response	1	4		24.0	2.5	/experiments/knapen_aot/videos/R_S_yt-yXJr3FR2xrM_27.mp4	0.0	156.03367924690247	
26	81.14097118377686	fix_post	2		12.0	24.0	2.5	/experiments/knapen_aot/videos/R_S_yt-yXJr3FR2xrM_27.mp4	0.0	156.34967827796936	0.09996199607849121
26	81.15930819511414	response	2	4		24.0	2.5	/experiments/knapen_aot/videos/R_S_yt-yXJr3FR2xrM_27.mp4	0.0	156.36801528930664	
27	81.24093317985535	fix_pre	0		673.0	25.0	2.5	/experiments/knapen_aot/videos/S_yt-V35ubrbe8gA_86.mp4	0.0	156.44964027404785	5.60827898979187
27	86.83351707458496	response	0	4		25.0	2.5	/experiments/knapen_aot/videos/S_yt-V35ubrbe8gA_86.mp4	0.0	162.04222416877747	
27	86.84921216964722	movie	1		301.0	25.0	2.5	/experiments/knapen_aot/videos/S_yt-V35ubrbe8gA_86.mp4	0.0	162.05791926383972	2.508270025253296
27	89.35748219490051	fix_post	2		12.0	25.0	2.5	/experiments/knapen_aot/videos/S_yt-V35ubrbe8gA_86.mp4	0.0	164.56618928909302	0.10005784034729004
28	89.4575400352478	fix_pre	0		19.0	26.0	2.5	/experiments/knapen_aot/videos/S_yt-cjndulbUtRc_51.mp4	0.0	164.6662471294403	0.1587841510772705
28	89.607675075531	response	0	4		26.0	2.5	/experiments/knapen_aot/videos/S_yt-cjndulbUtRc_51.mp4	0.0	164.8163821697235	
28	89.61632418632507	movie	1		301.0	26.0	2.5	/experiments/knapen_aot/videos/S_yt-cjndulbUtRc_51.mp4	0.0	164.82503128051758	2.5077760219573975
28	91.94978308677673	response	1	4		26.0	2.5	/experiments/knapen_aot/videos/S_yt-cjndulbUtRc_51.mp4	0.0	167.15849018096924	
28	92.12410020828247	fix_post	2		12.0	26.0	2.5	/experiments/knapen_aot/videos/S_yt-cjndulbUtRc_51.mp4	0.0	167.33280730247498	0.10013890266418457
29	92.22423911094666	fix_pre	0		30.0	27.0	2.5	blank	1.0	167.43294620513916	0.24993300437927246
29	92.46596312522888	response	0	4		27.0	2.5	blank	1.0	167.6746702194214	
29	92.47417211532593	movie	1		301.0	27.0	2.5	blank	1.0	167.68287920951843	2.5082900524139404
29	94.98246216773987	fix_post	2		12.0	27.0	2.5	blank	1.0	170.19116926193237	0.10005497932434082
30	95.08251714706421	fix_pre	0		40.0	28.0	2.5	/experiments/knapen_aot/videos/S_yt-eF5J5Kjt6oY_23.mp4	0.0	170.2912242412567	0.33332085609436035
30	95.40765023231506	response	0	4		28.0	2.5	/experiments/knapen_aot/videos/S_yt-eF5J5Kjt6oY_23.mp4	0.0	170.61635732650757	
30	95.41583800315857	movie	1		301.0	28.0	2.5	/experiments/knapen_aot/videos/S_yt-eF5J5Kjt6oY_23.mp4	0.0	170.62454509735107	2.5082790851593018
30	97.69284105300903	response	1	4		28.0	2.5	/experiments/knapen_aot/videos/S_yt-eF5J5Kjt6oY_23.mp4	0.0	172.90154814720154	
30	97.92411708831787	fix_post	2		12.0	28.0	2.5	/experiments/knapen_aot/videos/S_yt-eF5J5Kjt6oY_23.mp4	0.0	173.13282418251038	0.10001611709594727
31	98.02413320541382	fix_pre	0		35.0	29.0	2.5	/experiments/knapen_aot/videos/S_yt-J_FnFAl1uL0_143.mp4	0.0	173.23284029960632	0.2916228771209717
31	98.30763912200928	response	0	4		29.0	2.5	/experiments/knapen_aot/videos/S_yt-J_FnFAl1uL0_143.mp4	0.0	173.51634621620178	
31	98.31575608253479	movie	1		301.0	29.0	2.5	/experiments/knapen_aot/videos/S_yt-J_FnFAl1uL0_143.mp4	0.0	173.5244631767273	2.5083069801330566
31	100.82406306266785	fix_post	2		12.0	29.0	2.5	/experiments/knapen_aot/videos/S_yt-J_FnFAl1uL0_143.mp4	0.0	176.03277015686035	0.10007405281066895
32	100.92413711547852	fix_pre	0		22.0	30.0	2.5	/experiments/knapen_aot/videos/S_yt-0Zze3Ff12Ys_58.mp4	0.0	176.13284420967102	0.1833789348602295
32	101.09919810295105	response	0	4		30.0	2.5	/experiments/knapen_aot/videos/S_yt-0Zze3Ff12Ys_58.mp4	0.0	176.30790519714355	
32	101.10751605033875	movie	1		301.0	30.0	2.5	/experiments/knapen_aot/videos/S_yt-0Zze3Ff12Ys_58.mp4	0.0	176.31622314453125	2.508334159851074
32	103.61585021018982	fix_post	2		12.0	30.0	2.5	/experiments/knapen_aot/videos/S_yt-0Zze3Ff12Ys_58.mp4	0.0	178.82455730438232	0.09997296333312988
32	103.70765399932861	response	2	4		30.0	2.5	/experiments/knapen_aot/videos/S_yt-0Zze3Ff12Ys_58.mp4	0.0	178.91636109352112	
33	103.71582317352295	fix_pre	0		66.0	31.0	2.5	/experiments/knapen_aot/videos/R_S_yt-tneuR3EtSZE_72.mp4	0.0	178.92453026771545	0.549940824508667
33	104.2575011253357	response	0	4		31.0	2.5	/experiments/knapen_aot/videos/R_S_yt-tneuR3EtSZE_72.mp4	0.0	179.4662082195282	
33	104.26576399803162	movie	1		301.0	31.0	2.5	/experiments/knapen_aot/videos/R_S_yt-tneuR3EtSZE_72.mp4	0.0	179.47447109222412	2.5083601474761963
33	106.77412414550781	fix_post	2		12.0	31.0	2.5	/experiments/knapen_aot/videos/R_S_yt-tneuR3EtSZE_72.mp4	0.0	181.98283123970032	0.09999990463256836
34	106.87412405014038	fix_pre	0		25.0	32.0	2.5	/experiments/knapen_aot/videos/R_S_ILSVRC2015_train_00473001.mp4	0.0	182.08283114433289	0.20830798149108887
34	107.0742712020874	response	0	4		32.0	2.5	/experiments/knapen_aot/videos/R_S_ILSVRC2015_train_00473001.mp4	0.0	182.2829782962799	
34	107.08243203163147	movie	1		301.0	32.0	2.5	/experiments/knapen_aot/videos/R_S_ILSVRC2015_train_00473001.mp4	0.0	182.29113912582397	2.508395195007324
34	109.5908272266388	fix_post	2		12.0	32.0	2.5	/experiments/knapen_aot/videos/R_S_ILSVRC2015_train_00473001.mp4	0.0	184.7995343208313	0.09993100166320801
35	109.690758228302	fix_pre	0		8.0	33.0	2.5	blank	1.0	184.8994653224945	0.06670999526977539
35	109.74925518035889	response	0	4		33.0	2.5	blank	1.0	184.9579622745514	
35	109.75746822357178	movie	1		301.0	33.0	2.5	blank	1.0	184.96617531776428	2.5082828998565674
35	112.26575112342834	fix_post	2		12.0	33.0	2.5	blank	1.0	187.47445821762085	0.10003209114074707
36	112.36578321456909	fix_pre	0		73.0	34.0	2.5	/experiments/knapen_aot/videos/S_yt-2SVpSaBAxsw_78.mp4	0.0	187.5744903087616	0.6083128452301025
36	112.96603512763977	response	0	4		34.0	2.5	/experiments/knapen_aot/videos/S_yt-2SVpSaBAxsw_78.mp4	0.0	188.17474222183228	
36	112.9740960597992	movie	1		301.0	34.0	2.5	/experiments/knapen_aot/videos/S_yt-2SVpSaBAxsw_78.mp4	0.0	188.1828031539917	2.5083560943603516
36	115.48245215415955	fix_post	2		12.0	34.0	2.5	/experiments/knapen_aot/videos/S_yt-2SVpSaBAxsw_78.mp4	0.0	190.69115924835205	0.09998393058776855
37	115.58243608474731	fix_pre	0		44.0	35.0	2.5	/experiments/knapen_aot/videos/S_production_ID_4540332.mp4	0.0	190.79114317893982	0.3670320510864258
37	115.94093418121338	response	0	4		35.0	2.5	/experiments/knapen_aot/videos/S_production_ID_4540332.mp4	0.0	191.14964127540588	
37	115.94946813583374	movie	1		171.0	35.0	2.5	/experiments/knapen_aot/videos/S_production_ID_4540332.mp4	0.0	191.15817523002625	2.507986068725586
37	118.45745420455933	fix_post	2		12.0	35.0	2.5	/experiments/knapen_aot/videos/S_production_ID_4540332.mp4	0.0	193.66616129875183	0.10008692741394043
38	118.55754113197327	fix_pre	0		20.0	36.0	2.5	/experiments/knapen_aot/videos/R_S_yt-vQGD-rJyMw4_166.mp4	0.0	193.76624822616577	0.1665480136871338
38	118.71597218513489	response	0	4		36.0	2.5	/experiments/knapen_aot/videos/R_S_yt-vQGD-rJyMw4_166.mp4	0.0	193.9246792793274	
38	118.7240891456604	movie	1		301.0	36.0	2.5	/experiments/knapen_aot/videos/R_S_yt-vQGD-rJyMw4_166.mp4	0.0	193.9327962398529	2.5083940029144287
38	121.23248314857483	fix_post	2		12.0	36.0	2.5	/experiments/knapen_aot/videos/R_S_yt-vQGD-rJyMw4_166.mp4	0.0	196.44119024276733	0.09996390342712402
39	121.33244705200195	fix_pre	0		321.0	37.0	2.5	/experiments/knapen_aot/videos/S_yt-s73Xqkcq9Js_285.mp4	0.0	196.54115414619446	2.674959182739258
39	123.99923419952393	response	0	4		37.0	2.5	/experiments/knapen_aot/videos/S_yt-s73Xqkcq9Js_285.mp4	0.0	199.20794129371643	
39	124.00740623474121	movie	1		301.0	37.0	2.5	/experiments/knapen_aot/videos/S_yt-s73Xqkcq9Js_285.mp4	0.0	199.21611332893372	2.508375883102417
39	126.51578211784363	fix_post	2		12.0	37.0	2.5	/experiments/knapen_aot/videos/S_yt-s73Xqkcq9Js_285.mp4	0.0	201.72448921203613	0.10033798217773438
40	126.61612010002136	fix_pre	0		26.0	38.0	2.5	/experiments/knapen_aot/videos/R_S_yt-eoASPwIAiHY_244.mp4	0.0	201.82482719421387	0.2163090705871582
40	126.82417702674866	response	0	4		38.0	2.5	/experiments/knapen_aot/videos/R_S_yt-eoASPwIAiHY_244.mp4	0.0	202.03288412094116	
40	126.83242917060852	movie	1		299.0	38.0	2.5	/experiments/knapen_aot/videos/R_S_yt-eoASPwIAiHY_244.mp4	0.0	202.04113626480103	2.5082950592041016
40	129.34072422981262	fix_post	2		12.0	38.0	2.5	/experiments/knapen_aot/videos/R_S_yt-eoASPwIAiHY_244.mp4	0.0	204.54943132400513	0.09998178482055664
41	129.44070601463318	fix_pre	0		30.0	39.0	2.5	/experiments/knapen_aot/videos/R_S_yt-SgiTZNjCPCo_19.mp4	0.0	204.64941310882568	0.24997401237487793
41	129.68252301216125	response	0	4		39.0	2.5	/experiments/knapen_aot/videos/R_S_yt-SgiTZNjCPCo_19.mp4	0.0	204.89123010635376	
41	129.69068002700806	movie	1		301.0	39.0	2.5	/experiments/knapen_aot/videos/R_S_yt-SgiTZNjCPCo_19.mp4	0.0	204.89938712120056	2.5083351135253906
41	132.19901514053345	fix_post	2		12.0	39.0	2.5	/experiments/knapen_aot/videos/R_S_yt-SgiTZNjCPCo_19.mp4	0.0	207.40772223472595	0.0999300479888916
42	132.29894518852234	fix_pre	0		41.0	40.0	2.5	blank	1.0	207.50765228271484	0.3418288230895996
42	132.6324942111969	response	0	4		40.0	2.5	blank	1.0	207.8412013053894	
42	132.64077401161194	movie	1		301.0	40.0	2.5	blank	1.0	207.84948110580444	2.508247137069702
42	135.14902114868164	fix_post	2		12.0	40.0	2.5	blank	1.0	210.35772824287415	0.09994006156921387
43	135.24896121025085	fix_pre	0		14.0	41.0	2.5	/experiments/knapen_aot/videos/R_S_yt-RVoC19C420Y_27.mp4	0.0	210.45766830444336	0.11694884300231934
43	135.35750722885132	response	0	4		41.0	2.5	/experiments/knapen_aot/videos/R_S_yt-RVoC19C420Y_27.mp4	0.0	210.56621432304382	
43	135.36591005325317	movie	1		301.0	41.0	2.5	/experiments/knapen_aot/videos/R_S_yt-RVoC19C420Y_27.mp4	0.0	210.57461714744568	2.5081000328063965
43	137.87401008605957	fix_post	2		12.0	41.0	2.5	/experiments/knapen_aot/videos/R_S_yt-RVoC19C420Y_27.mp4	0.0	213.08271718025208	0.10006403923034668
44	137.97407412528992	fix_pre	0		99.0	42.0	2.5	/experiments/knapen_aot/videos/R_S_yt-HFiRYTnMZxE_338.mp4	0.0	213.18278121948242	0.8249139785766602
44	138.79081416130066	response	0	4		42.0	2.5	/experiments/knapen_aot/videos/R_S_yt-HFiRYTnMZxE_338.mp4	0.0	213.99952125549316	
44	138.79898810386658	movie	1		301.0	42.0	2.5	/experiments/knapen_aot/videos/R_S_yt-HFiRYTnMZxE_338.mp4	0.0	214.00769519805908	2.5084290504455566
44	141.30741715431213	fix_post	2		12.0	42.0	2.5	/experiments/knapen_aot/videos/R_S_yt-HFiRYTnMZxE_338.mp4	0.0	216.51612424850464	0.10010099411010742
45	141.40751814842224	fix_pre	0		327.0	43.0	2.5	/experiments/knapen_aot/videos/R_S_pexels-kindel-media-7147375.mp4	0.0	216.61622524261475	2.724714994430542
45	144.12410616874695	response	0	4		43.0	2.5	/experiments/knapen_aot/videos/R_S_pexels-kindel-media-7147375.mp4	0.0	219.33281326293945	
45	144.13223314285278	movie	1		161.0	43.0	2.5	/experiments/knapen_aot/videos/R_S_pexels-kindel-media-7147375.mp4	0.0	219.3409402370453	2.5084309577941895
45	146.64066410064697	fix_post	2		12.0	43.0	2.5	/experiments/knapen_aot/videos/R_S_pexels-kindel-media-7147375.mp4	0.0	221.84937119483948	0.10014510154724121
46	146.7408092021942	fix_pre	0		25.0	44.0	2.5	/experiments/knapen_aot/videos/S_yt-4r-oovk9JWg_85.mp4	0.0	221.94951629638672	0.20830702781677246
46	146.94070100784302	response	0	4		44.0	2.5	/experiments/knapen_aot/videos/S_yt-4r-oovk9JWg_85.mp4	0.0	222.14940810203552	
46	146.949116230011	movie	1		301.0	44.0	2.5	/experiments/knapen_aot/videos/S_yt-4r-oovk9JWg_85.mp4	0.0	222.1578233242035	2.5081679821014404
46	149.45728421211243	fix_post	2		12.0	44.0	2.5	/experiments/knapen_aot/videos/S_yt-4r-oovk9JWg_85.mp4	0.0	224.66599130630493	0.09993195533752441
47	149.55721616744995	fix_pre	0		42.0	45.0	2.5	/experiments/knapen_aot/videos/R_S_pexels-c-technical-6753390.mp4	0.0	224.76592326164246	0.35021400451660156
47	149.89910507202148	response	0	4		45.0	2.5	/experiments/knapen_aot/videos/R_S_pexels-c-technical-6753390.mp4	0.0	225.107812166214	
47	149.90743017196655	movie	1		205.0	45.0	2.5	/experiments/knapen_aot/videos/R_S_pexels-c-technical-6753390.mp4	0.0	225.11613726615906	2.5080950260162354
47	152.4155251979828	fix_post	2		12.0	45.0	2.5	/experiments/knapen_aot/videos/R_S_pexels-c-technical-6753390.mp4	0.0	227.6242322921753	0.10006999969482422
48	152.5155951976776	fix_pre	0		302.0	46.0	2.5	/experiments/knapen_aot/videos/R_S_yt-RVoC19C420Y_27.mp4	0.0	227.72430229187012	2.5167689323425293
48	155.0241150856018	response	0	4		46.0	2.5	/experiments/knapen_aot/videos/R_S_yt-RVoC19C420Y_27.mp4	0.0	230.2328221797943	
48	155.03236413002014	movie	1		301.0	46.0	2.5	/experiments/knapen_aot/videos/R_S_yt-RVoC19C420Y_27.mp4	0.0	230.24107122421265	2.508251905441284
48	157.54061603546143	fix_post	2		12.0	46.0	2.5	/experiments/knapen_aot/videos/R_S_yt-RVoC19C420Y_27.mp4	0.0	232.74932312965393	0.10002613067626953
49	157.6406421661377	fix_pre	0		83.0	47.0	2.5	/experiments/knapen_aot/videos/R_S_yt-3aTDYxyF6bc_35.mp4	0.0	232.8493492603302	0.691551923751831
49	158.32407212257385	response	0	4		47.0	2.5	/experiments/knapen_aot/videos/R_S_yt-3aTDYxyF6bc_35.mp4	0.0	233.53277921676636	
49	158.33219408988953	movie	1		300.0	47.0	2.5	/experiments/knapen_aot/videos/R_S_yt-3aTDYxyF6bc_35.mp4	0.0	233.54090118408203	2.508363962173462
49	160.74082803726196	response	1	4		47.0	2.5	/experiments/knapen_aot/videos/R_S_yt-3aTDYxyF6bc_35.mp4	0.0	235.94953513145447	
49	160.840558052063	fix_post	2		12.0	47.0	2.5	/experiments/knapen_aot/videos/R_S_yt-3aTDYxyF6bc_35.mp4	0.0	236.0492651462555	0.10004115104675293
50	160.94059920310974	fix_pre	0		39.0	48.0	2.5	blank	1.0	236.14930629730225	0.3249678611755371
50	161.25735020637512	response	0	4		48.0	2.5	blank	1.0	236.46605730056763	
50	161.26556706428528	movie	1		301.0	48.0	2.5	blank	1.0	236.47427415847778	2.5083210468292236
50	163.39898800849915	response	1	4		48.0	2.5	blank	1.0	238.60769510269165	
50	163.7738881111145	fix_post	2		12.0	48.0	2.5	blank	1.0	238.982595205307	0.09998393058776855
50	163.86565017700195	response	2	4		48.0	2.5	blank	1.0	239.07435727119446	
51	163.87387204170227	fix_pre	0		48.0	49.0	2.5	/experiments/knapen_aot/videos/S_ILSVRC2015_train_00524001.mp4	0.0	239.08257913589478	0.39998817443847656
51	164.26556611061096	response	0	4		49.0	2.5	/experiments/knapen_aot/videos/S_ILSVRC2015_train_00524001.mp4	0.0	239.47427320480347	
51	164.27386021614075	movie	1		301.0	49.0	2.5	/experiments/knapen_aot/videos/S_ILSVRC2015_train_00524001.mp4	0.0	239.48256731033325	2.5084218978881836
51	166.78228211402893	fix_post	2		12.0	49.0	2.5	/experiments/knapen_aot/videos/S_ILSVRC2015_train_00524001.mp4	0.0	241.99098920822144	0.09989809989929199
52	166.88218021392822	fix_pre	0		32.0	50.0	2.5	/experiments/knapen_aot/videos/R_S_yt-JDHApyT5ngs_128.mp4	0.0	242.09088730812073	0.2667109966278076
52	167.1406991481781	response	0	4		50.0	2.5	/experiments/knapen_aot/videos/R_S_yt-JDHApyT5ngs_128.mp4	0.0	242.3494062423706	
52	167.14889121055603	movie	1		301.0	50.0	2.5	/experiments/knapen_aot/videos/R_S_yt-JDHApyT5ngs_128.mp4	0.0	242.35759830474854	2.5083630084991455
52	169.65725421905518	fix_post	2		12.0	50.0	2.5	/experiments/knapen_aot/videos/R_S_yt-JDHApyT5ngs_128.mp4	0.0	244.86596131324768	0.0999748706817627
53	169.75722908973694	fix_pre	0		31.0	51.0	2.5	/experiments/knapen_aot/videos/R_S_yt-s2tZ2NIQrxg_175.mp4	0.0	244.96593618392944	0.2582221031188965
53	170.00740003585815	response	0	4		51.0	2.5	/experiments/knapen_aot/videos/R_S_yt-s2tZ2NIQrxg_175.mp4	0.0	245.21610713005066	
53	170.01545119285583	movie	1		301.0	51.0	2.5	/experiments/knapen_aot/videos/R_S_yt-s2tZ2NIQrxg_175.mp4	0.0	245.22415828704834	2.5084400177001953
53	172.52389121055603	fix_post	2		12.0	51.0	2.5	/experiments/knapen_aot/videos/R_S_yt-s2tZ2NIQrxg_175.mp4	0.0	247.73259830474854	0.0999608039855957
54	172.62385201454163	fix_pre	0		45.0	52.0	2.5	/experiments/knapen_aot/videos/R_S_comp_C001_C005_PS_v01_SDR_PS_20180925_SDR_2K_AVC.mp4	0.0	247.83255910873413	0.37499308586120605
54	172.98309803009033	response	0	4		52.0	2.5	/experiments/knapen_aot/videos/R_S_comp_C001_C005_PS_v01_SDR_PS_20180925_SDR_2K_AVC.mp4	0.0	248.19180512428284	
54	172.99884510040283	movie	1		171.0	52.0	2.5	/experiments/knapen_aot/videos/R_S_comp_C001_C005_PS_v01_SDR_PS_20180925_SDR_2K_AVC.mp4	0.0	248.20755219459534	2.5083229541778564
54	175.49889516830444	response	1	4		52.0	2.5	/experiments/knapen_aot/videos/R_S_comp_C001_C005_PS_v01_SDR_PS_20180925_SDR_2K_AVC.mp4	0.0	250.70760226249695	
54	175.5071680545807	fix_post	2		12.0	52.0	2.5	/experiments/knapen_aot/videos/R_S_comp_C001_C005_PS_v01_SDR_PS_20180925_SDR_2K_AVC.mp4	0.0	250.7158751487732	0.09994101524353027
55	175.60710906982422	fix_pre	0		27.0	53.0	2.5	/experiments/knapen_aot/videos/R_S_production_ID_4540332.mp4	0.0	250.81581616401672	0.22505402565002441
55	175.8239622116089	response	0	4		53.0	2.5	/experiments/knapen_aot/videos/R_S_production_ID_4540332.mp4	0.0	251.0326693058014	
55	175.83216309547424	movie	1		169.0	53.0	2.5	/experiments/knapen_aot/videos/R_S_production_ID_4540332.mp4	0.0	251.04087018966675	2.508358955383301
55	178.34052205085754	fix_post	2		12.0	53.0	2.5	/experiments/knapen_aot/videos/R_S_production_ID_4540332.mp4	0.0	253.54922914505005	0.10002017021179199
56	178.44054222106934	fix_pre	0		14.0	54.0	2.5	blank	1.0	253.64924931526184	0.1166999340057373
56	178.549054145813	response	0	4		54.0	2.5	blank	1.0	253.7577612400055	
56	178.55724215507507	movie	1		301.0	54.0	2.5	blank	1.0	253.76594924926758	2.508336067199707
56	181.06557822227478	fix_post	2		12.0	54.0	2.5	blank	1.0	256.2742853164673	0.0999608039855957
57	181.16553902626038	fix_pre	0		27.0	55.0	2.5	/experiments/knapen_aot/videos/S_video-12.mp4	0.0	256.3742461204529	0.22499418258666992
57	181.37480115890503	response	0	4		55.0	2.5	/experiments/knapen_aot/videos/S_video-12.mp4	0.0	256.58350825309753	
57	181.39053320884705	movie	1		165.0	55.0	2.5	/experiments/knapen_aot/videos/S_video-12.mp4	0.0	256.59924030303955	2.5083208084106445
57	183.8988540172577	fix_post	2		12.0	55.0	2.5	/experiments/knapen_aot/videos/S_video-12.mp4	0.0	259.1075611114502	0.10005998611450195
58	183.9989140033722	fix_pre	0		26.0	56.0	2.5	/experiments/knapen_aot/videos/S_pexels-diva-plavalaguna-6985395.mp4	0.0	259.2076210975647	0.21661114692687988
58	184.2072730064392	response	0	4		56.0	2.5	/experiments/knapen_aot/videos/S_pexels-diva-plavalaguna-6985395.mp4	0.0	259.4159801006317	
58	184.21552515029907	movie	1		164.0	56.0	2.5	/experiments/knapen_aot/videos/S_pexels-diva-plavalaguna-6985395.mp4	0.0	259.4242322444916	2.508349895477295
58	186.72387504577637	fix_post	2		12.0	56.0	2.5	/experiments/knapen_aot/videos/S_pexels-diva-plavalaguna-6985395.mp4	0.0	261.9325821399689	0.09998106956481934
59	186.8238561153412	fix_pre	0		13.0	57.0	2.5	/experiments/knapen_aot/videos/S_yt-ZBk_XFb5PGo_25.mp4	0.0	262.0325632095337	0.10831308364868164
59	186.92398500442505	response	0	4		57.0	2.5	/experiments/knapen_aot/videos/S_yt-ZBk_XFb5PGo_25.mp4	0.0	262.13269209861755	
59	186.93216919898987	movie	1		301.0	57.0	2.5	/experiments/knapen_aot/videos/S_yt-ZBk_XFb5PGo_25.mp4	0.0	262.1408762931824	2.5083518028259277
59	189.4405210018158	fix_post	2		12.0	57.0	2.5	/experiments/knapen_aot/videos/S_yt-ZBk_XFb5PGo_25.mp4	0.0	264.6492280960083	0.09993910789489746
60	189.5404601097107	fix_pre	0		29.0	58.0	2.5	/experiments/knapen_aot/videos/R_S_pexels-diva-plavalaguna-6985395.mp4	0.0	264.7491672039032	0.24168109893798828
60	189.77401614189148	response	0	4		58.0	2.5	/experiments/knapen_aot/videos/R_S_pexels-diva-plavalaguna-6985395.mp4	0.0	264.982723236084	
60	189.78214120864868	movie	1		165.0	58.0	2.5	/experiments/knapen_aot/videos/R_S_pexels-diva-plavalaguna-6985395.mp4	0.0	264.9908483028412	2.5083138942718506
60	192.29045510292053	fix_post	2		12.0	58.0	2.5	/experiments/knapen_aot/videos/R_S_pexels-diva-plavalaguna-6985395.mp4	0.0	267.49916219711304	0.10001802444458008
61	192.3904731273651	fix_pre	0		13.0	59.0	2.5	/experiments/knapen_aot/videos/S_wc-PsidKmkEV7Km_14.mp4	0.0	267.5991802215576	0.10833406448364258
61	192.49064302444458	response	0	4		59.0	2.5	/experiments/knapen_aot/videos/S_wc-PsidKmkEV7Km_14.mp4	0.0	267.6993501186371	
61	192.49880719184875	movie	1		164.0	59.0	2.5	/experiments/knapen_aot/videos/S_wc-PsidKmkEV7Km_14.mp4	0.0	267.70751428604126	2.5083508491516113
61	195.00715804100037	fix_post	2		12.0	59.0	2.5	/experiments/knapen_aot/videos/S_wc-PsidKmkEV7Km_14.mp4	0.0	270.21586513519287	0.10006117820739746
62	195.10721921920776	fix_pre	0		38.0	60.0	2.5	/experiments/knapen_aot/videos/R_S_g201_CA_A016_C002_SDR_20191114_SDR_2K_AVC.mp4	0.0	270.31592631340027	0.3165419101715088
62	195.41562604904175	response	0	4		60.0	2.5	/experiments/knapen_aot/videos/R_S_g201_CA_A016_C002_SDR_20191114_SDR_2K_AVC.mp4	0.0	270.62433314323425	
62	195.42376112937927	movie	1		166.0	60.0	2.5	/experiments/knapen_aot/videos/R_S_g201_CA_A016_C002_SDR_20191114_SDR_2K_AVC.mp4	0.0	270.6324682235718	2.5083229541778564
62	197.93208408355713	fix_post	2		12.0	60.0	2.5	/experiments/knapen_aot/videos/R_S_g201_CA_A016_C002_SDR_20191114_SDR_2K_AVC.mp4	0.0	273.14079117774963	0.09998297691345215
63	198.03206706047058	fix_pre	0		94.0	61.0	2.5	/experiments/knapen_aot/videos/S_yt-3ohvpS42xug_184.mp4	0.0	273.2407741546631	0.7846381664276123
63	198.80724906921387	response	0	4		61.0	2.5	/experiments/knapen_aot/videos/S_yt-3ohvpS42xug_184.mp4	0.0	274.0159561634064	
63	198.8167052268982	movie	1		301.0	61.0	2.5	/experiments/knapen_aot/videos/S_yt-3ohvpS42xug_184.mp4	0.0	274.0254123210907	2.5070199966430664
63	201.32372522354126	fix_post	2		12.0	61.0	2.5	/experiments/knapen_aot/videos/S_yt-3ohvpS42xug_184.mp4	0.0	276.53243231773376	0.1000068187713623
64	201.42373204231262	fix_pre	0		59.0	62.0	2.5	blank	1.0	276.6324391365051	0.49167418479919434
64	201.90726900100708	response	0	4		62.0	2.5	blank	1.0	277.1159760951996	
64	201.91540622711182	movie	1		301.0	62.0	2.5	blank	1.0	277.1241133213043	2.5082387924194336
64	204.2404592037201	response	1	4		62.0	2.5	blank	1.0	279.4491662979126	
64	204.42364501953125	fix_post	2		12.0	62.0	2.5	blank	1.0	279.63235211372375	0.10013413429260254
65	204.52377915382385	fix_pre	0		38.0	63.0	2.5	/experiments/knapen_aot/videos/S_yt-4sSV4iIs8gQ_55.mp4	0.0	279.73248624801636	0.3166160583496094
65	204.83218002319336	response	0	4		63.0	2.5	/experiments/knapen_aot/videos/S_yt-4sSV4iIs8gQ_55.mp4	0.0	280.04088711738586	
65	204.84039521217346	movie	1		301.0	63.0	2.5	/experiments/knapen_aot/videos/S_yt-4sSV4iIs8gQ_55.mp4	0.0	280.04910230636597	2.5083119869232178
65	207.34870719909668	fix_post	2		12.0	63.0	2.5	/experiments/knapen_aot/videos/S_yt-4sSV4iIs8gQ_55.mp4	0.0	282.5574142932892	0.10000801086425781
66	207.44871520996094	fix_pre	0		359.0	64.0	2.5	/experiments/knapen_aot/videos/S_ILSVRC2015_train_00569007.mp4	0.0	282.65742230415344	2.9928808212280273
66	210.43215823173523	response	0	4		64.0	2.5	/experiments/knapen_aot/videos/S_ILSVRC2015_train_00569007.mp4	0.0	285.64086532592773	
66	210.44159603118896	movie	1		300.0	64.0	2.5	/experiments/knapen_aot/videos/S_ILSVRC2015_train_00569007.mp4	0.0	285.65030312538147	2.5071070194244385
66	212.9487030506134	fix_post	2		12.0	64.0	2.5	/experiments/knapen_aot/videos/S_ILSVRC2015_train_00569007.mp4	0.0	288.1574101448059	0.09992313385009766
67	213.0486261844635	fix_pre	0		140.0	65.0	2.5	/experiments/knapen_aot/videos/R_S_yt-GOgS--rzmKQ_51.mp4	0.0	288.257333278656	1.1666898727416992
67	214.20712018013	response	0	4		65.0	2.5	/experiments/knapen_aot/videos/R_S_yt-GOgS--rzmKQ_51.mp4	0.0	289.4158272743225	
67	214.2153160572052	movie	1		301.0	65.0	2.5	/experiments/knapen_aot/videos/R_S_yt-GOgS--rzmKQ_51.mp4	0.0	289.4240231513977	2.5083441734313965
67	216.7236602306366	fix_post	2		12.0	65.0	2.5	/experiments/knapen_aot/videos/R_S_yt-GOgS--rzmKQ_51.mp4	0.0	291.9323673248291	0.09996199607849121
67	216.74047803878784	response	2	4		65.0	2.5	/experiments/knapen_aot/videos/R_S_yt-GOgS--rzmKQ_51.mp4	0.0	291.94918513298035	
68	216.8236222267151	fix_pre	0		31.0	66.0	2.5	/experiments/knapen_aot/videos/S_yt-EApB0DJ3ECg_119.mp4	0.0	292.0323293209076	0.25832080841064453
68	217.07376217842102	response	0	4		66.0	2.5	/experiments/knapen_aot/videos/S_yt-EApB0DJ3ECg_119.mp4	0.0	292.2824692726135	
68	217.08194303512573	movie	1		301.0	66.0	2.5	/experiments/knapen_aot/videos/S_yt-EApB0DJ3ECg_119.mp4	0.0	292.29065012931824	2.508368968963623
68	219.59031200408936	fix_post	2		12.0	66.0	2.5	/experiments/knapen_aot/videos/S_yt-EApB0DJ3ECg_119.mp4	0.0	294.79901909828186	0.10009908676147461
69	219.69041109085083	fix_pre	0		3.0	67.0	2.5	/experiments/knapen_aot/videos/S_yt-s73Xqkcq9Js_285.mp4	0.0	294.89911818504333	0.024946928024291992
69	219.70710611343384	response	0	4		67.0	2.5	/experiments/knapen_aot/videos/S_yt-s73Xqkcq9Js_285.mp4	0.0	294.91581320762634	
69	219.71535801887512	movie	1		301.0	67.0	2.5	/experiments/knapen_aot/videos/S_yt-s73Xqkcq9Js_285.mp4	0.0	294.9240651130676	2.5082991123199463
69	222.22365713119507	fix_post	2		12.0	67.0	2.5	/experiments/knapen_aot/videos/S_yt-s73Xqkcq9Js_285.mp4	0.0	297.4323642253876	0.09997296333312988
70	222.3236300945282	fix_pre	0		4.0	68.0	2.5	/experiments/knapen_aot/videos/S_comp_LA_A008_C004_ALTB_ED_FROM_FLAME_RETIME_v46_SDR_PS_20180917_SDR_2K_AVC.mp4	0.0	297.5323371887207	0.03454303741455078
70	222.34899306297302	response	0	4		68.0	2.5	/experiments/knapen_aot/videos/S_comp_LA_A008_C004_ALTB_ED_FROM_FLAME_RETIME_v46_SDR_PS_20180917_SDR_2K_AVC.mp4	0.0	297.5577001571655	
70	222.35817313194275	movie	1		167.0	68.0	2.5	/experiments/knapen_aot/videos/S_comp_LA_A008_C004_ALTB_ED_FROM_FLAME_RETIME_v46_SDR_PS_20180917_SDR_2K_AVC.mp4	0.0	297.56688022613525	2.5071170330047607
70	224.8652901649475	fix_post	2		12.0	68.0	2.5	/experiments/knapen_aot/videos/S_comp_LA_A008_C004_ALTB_ED_FROM_FLAME_RETIME_v46_SDR_PS_20180917_SDR_2K_AVC.mp4	0.0	300.07399725914	0.09997105598449707
70	224.90784215927124	response	2	4		68.0	2.5	/experiments/knapen_aot/videos/S_comp_LA_A008_C004_ALTB_ED_FROM_FLAME_RETIME_v46_SDR_PS_20180917_SDR_2K_AVC.mp4	0.0	300.11654925346375	
71	224.965261220932	fix_pre	0		37.0	69.0	2.5	/experiments/knapen_aot/videos/R_S_comp_GL_G010_C006_PSNK_NOSUN_v12_SDR_PS_FINAL_20180709_SDR_2K_AVC.mp4	0.0	300.1739683151245	0.30953097343444824
71	225.26546621322632	response	0	4		69.0	2.5	/experiments/knapen_aot/videos/R_S_comp_GL_G010_C006_PSNK_NOSUN_v12_SDR_PS_FINAL_20180709_SDR_2K_AVC.mp4	0.0	300.4741733074188	
71	225.27479219436646	movie	1		168.0	69.0	2.5	/experiments/knapen_aot/videos/R_S_comp_GL_G010_C006_PSNK_NOSUN_v12_SDR_PS_FINAL_20180709_SDR_2K_AVC.mp4	0.0	300.48349928855896	2.507251024246216
71	227.78204321861267	fix_post	2		12.0	69.0	2.5	/experiments/knapen_aot/videos/R_S_comp_GL_G010_C006_PSNK_NOSUN_v12_SDR_PS_FINAL_20180709_SDR_2K_AVC.mp4	0.0	302.9907503128052	0.09995079040527344
71	227.873761177063	response	2	4		69.0	2.5	/experiments/knapen_aot/videos/R_S_comp_GL_G010_C006_PSNK_NOSUN_v12_SDR_PS_FINAL_20180709_SDR_2K_AVC.mp4	0.0	303.0824682712555	
72	227.88199400901794	fix_pre	0		40.0	70.0	2.5	blank	1.0	303.09070110321045	0.33330416679382324
72	228.20698404312134	response	0	4		70.0	2.5	blank	1.0	303.41569113731384	
72	228.21529817581177	movie	1		301.0	70.0	2.5	blank	1.0	303.4240052700043	2.508333921432495
72	230.72363209724426	fix_post	2		12.0	70.0	2.5	blank	1.0	305.93233919143677	0.09997296333312988
73	230.8236050605774	fix_pre	0		28.0	71.0	2.5	/experiments/knapen_aot/videos/S_1y-EvnfGO9Y_70.mp4	0.0	306.0323121547699	0.2332921028137207
73	231.04879307746887	response	0	4		71.0	2.5	/experiments/knapen_aot/videos/S_1y-EvnfGO9Y_70.mp4	0.0	306.2575001716614	
73	231.0568971633911	movie	1		301.0	71.0	2.5	/experiments/knapen_aot/videos/S_1y-EvnfGO9Y_70.mp4	0.0	306.2656042575836	2.508316993713379
73	233.5652141571045	fix_post	2		12.0	71.0	2.5	/experiments/knapen_aot/videos/S_1y-EvnfGO9Y_70.mp4	0.0	308.773921251297	0.10001897811889648
74	233.6652331352234	fix_pre	0		1.0	72.0	2.5	/experiments/knapen_aot/videos/S_yt-FLMdajcbjcg_35.mp4	0.0	308.8739402294159	0.008373022079467773
74	233.66686820983887	response	0	4		72.0	2.5	/experiments/knapen_aot/videos/S_yt-FLMdajcbjcg_35.mp4	0.0	308.8755753040314	
74	233.67360615730286	movie	1		301.0	72.0	2.5	/experiments/knapen_aot/videos/S_yt-FLMdajcbjcg_35.mp4	0.0	308.88231325149536	2.5083348751068115
74	236.18194103240967	fix_post	2		12.0	72.0	2.5	/experiments/knapen_aot/videos/S_yt-FLMdajcbjcg_35.mp4	0.0	311.3906481266022	0.09994196891784668
74	236.19160509109497	response	2	4		72.0	2.5	/experiments/knapen_aot/videos/S_yt-FLMdajcbjcg_35.mp4	0.0	311.4003121852875	
75	236.28188300132751	fix_pre	0		52.0	73.0	2.5	/experiments/knapen_aot/videos/S_yt-2pRKCSgdXXU_30.mp4	0.0	311.49059009552	0.43332409858703613
75	236.69948315620422	response	0	4		73.0	2.5	/experiments/knapen_aot/videos/S_yt-2pRKCSgdXXU_30.mp4	0.0	311.90819025039673	
75	236.71520709991455	movie	1		301.0	73.0	2.5	/experiments/knapen_aot/videos/S_yt-2pRKCSgdXXU_30.mp4	0.0	311.92391419410706	2.508312940597534
75	239.22352004051208	fix_post	2		12.0	73.0	2.5	/experiments/knapen_aot/videos/S_yt-2pRKCSgdXXU_30.mp4	0.0	314.4322271347046	0.10001397132873535
76	239.32353401184082	fix_pre	0		18.0	74.0	2.5	/experiments/knapen_aot/videos/S_yt-QxNuo4ojvz4_420.mp4	0.0	314.5322411060333	0.15000414848327637
76	239.46538400650024	response	0	4		74.0	2.5	/experiments/knapen_aot/videos/S_yt-QxNuo4ojvz4_420.mp4	0.0	314.67409110069275	
76	239.4735381603241	movie	1		301.0	74.0	2.5	/experiments/knapen_aot/videos/S_yt-QxNuo4ojvz4_420.mp4	0.0	314.6822452545166	2.5083839893341064
76	241.9819221496582	fix_post	2		12.0	74.0	2.5	/experiments/knapen_aot/videos/S_yt-QxNuo4ojvz4_420.mp4	0.0	317.1906292438507	0.10009098052978516
77	242.082013130188	fix_pre	0		12.0	75.0	2.5	/experiments/knapen_aot/videos/S_yt-0xzYSBvVfYM_197.mp4	0.0	317.2907202243805	0.09988594055175781
77	242.17367506027222	response	0	4		75.0	2.5	/experiments/knapen_aot/videos/S_yt-0xzYSBvVfYM_197.mp4	0.0	317.3823821544647	
77	242.18189907073975	movie	1		301.0	75.0	2.5	/experiments/knapen_aot/videos/S_yt-0xzYSBvVfYM_197.mp4	0.0	317.39060616493225	2.5082621574401855
77	244.69016122817993	fix_post	2		12.0	75.0	2.5	/experiments/knapen_aot/videos/S_yt-0xzYSBvVfYM_197.mp4	0.0	319.89886832237244	0.10006284713745117
78	244.79022407531738	fix_pre	0		37.0	76.0	2.5	/experiments/knapen_aot/videos/R_S_ILSVRC2015_train_00599000.mp4	0.0	319.9989311695099	0.3082890510559082
78	245.09040307998657	response	0	4		76.0	2.5	/experiments/knapen_aot/videos/R_S_ILSVRC2015_train_00599000.mp4	0.0	320.2991101741791	
78	245.0985131263733	movie	1		300.0	76.0	2.5	/experiments/knapen_aot/videos/R_S_ILSVRC2015_train_00599000.mp4	0.0	320.3072202205658	2.5083720684051514
78	247.60688519477844	fix_post	2		12.0	76.0	2.5	/experiments/knapen_aot/videos/R_S_ILSVRC2015_train_00599000.mp4	0.0	322.81559228897095	0.10002493858337402
79	247.70691013336182	fix_pre	0		35.0	77.0	2.5	blank	1.0	322.9156172275543	0.29158902168273926
79	247.99032616615295	response	0	4		77.0	2.5	blank	1.0	323.19903326034546	
79	247.99849915504456	movie	1		301.0	77.0	2.5	blank	1.0	323.20720624923706	2.5083789825439453
79	249.59864616394043	response	1	4		77.0	2.5	blank	1.0	324.80735325813293	
79	250.5068781375885	fix_post	2		12.0	77.0	2.5	blank	1.0	325.715585231781	0.09997797012329102
80	250.6068561077118	fix_pre	0		31.0	78.0	2.5	/experiments/knapen_aot/videos/S_yt-Ev39pXXfr1Y_152.mp4	0.0	325.8155632019043	0.2582969665527344
80	250.85692501068115	response	0	4		78.0	2.5	/experiments/knapen_aot/videos/S_yt-Ev39pXXfr1Y_152.mp4	0.0	326.06563210487366	
80	250.86515307426453	movie	1		301.0	78.0	2.5	/experiments/knapen_aot/videos/S_yt-Ev39pXXfr1Y_152.mp4	0.0	326.07386016845703	2.508347988128662
80	253.3735010623932	fix_post	2		12.0	78.0	2.5	/experiments/knapen_aot/videos/S_yt-Ev39pXXfr1Y_152.mp4	0.0	328.5822081565857	0.10001516342163086
81	253.47351622581482	fix_pre	0		32.0	79.0	2.5	/experiments/knapen_aot/videos/S_yt-QD74nNliDvI_10.mp4	0.0	328.6822233200073	0.26662778854370117
81	253.7321012020111	response	0	4		79.0	2.5	/experiments/knapen_aot/videos/S_yt-QD74nNliDvI_10.mp4	0.0	328.9408082962036	
81	253.74014401435852	movie	1		301.0	79.0	2.5	/experiments/knapen_aot/videos/S_yt-QD74nNliDvI_10.mp4	0.0	328.948851108551	2.5083320140838623
81	256.2484760284424	fix_post	2		12.0	79.0	2.5	/experiments/knapen_aot/videos/S_yt-QD74nNliDvI_10.mp4	0.0	331.4571831226349	0.10001802444458008
82	256.34849405288696	fix_pre	0		68.0	80.0	2.5	/experiments/knapen_aot/videos/S_yt-hZxbKZ1WCVg_24.mp4	0.0	331.55720114707947	0.5666570663452148
82	256.9069981575012	response	0	4		80.0	2.5	/experiments/knapen_aot/videos/S_yt-hZxbKZ1WCVg_24.mp4	0.0	332.1157052516937	
82	256.9151511192322	movie	1		299.0	80.0	2.5	/experiments/knapen_aot/videos/S_yt-hZxbKZ1WCVg_24.mp4	0.0	332.1238582134247	2.5083560943603516
82	259.1427080631256	response	1	4		80.0	2.5	/experiments/knapen_aot/videos/S_yt-hZxbKZ1WCVg_24.mp4	0.0	334.3514151573181	
82	259.42350721359253	fix_post	2		12.0	80.0	2.5	/experiments/knapen_aot/videos/S_yt-hZxbKZ1WCVg_24.mp4	0.0	334.63221430778503	0.10002779960632324
83	259.52353501319885	fix_pre	0		253.0	81.0	2.5	/experiments/knapen_aot/videos/R_S_yt-6B69qmkEdTI_1.mp4	0.0	334.73224210739136	2.1082491874694824
83	261.62364315986633	response	0	4		81.0	2.5	/experiments/knapen_aot/videos/R_S_yt-6B69qmkEdTI_1.mp4	0.0	336.83235025405884	
83	261.63178420066833	movie	1		300.0	81.0	2.5	/experiments/knapen_aot/videos/R_S_yt-6B69qmkEdTI_1.mp4	0.0	336.84049129486084	2.508302927017212
83	264.14008712768555	fix_post	2		12.0	81.0	2.5	/experiments/knapen_aot/videos/R_S_yt-6B69qmkEdTI_1.mp4	0.0	339.34879422187805	0.10000801086425781
84	264.2400951385498	fix_pre	0		17.0	82.0	2.5	blank	1.0	339.4488022327423	0.14170193672180176
84	264.3735852241516	response	0	4		82.0	2.5	blank	1.0	339.5822923183441	
84	264.3817970752716	movie	1		301.0	82.0	2.5	blank	1.0	339.5905041694641	2.508247137069702
84	266.86535716056824	response	1	4		82.0	2.5	blank	1.0	342.07406425476074	
84	266.8900442123413	fix_post	2		12.0	82.0	2.5	blank	1.0	342.0987513065338	0.1000368595123291
85	266.99008107185364	fix_pre	0		23.0	83.0	2.5	/experiments/knapen_aot/videos/S_production_ID_4360158.mp4	0.0	342.19878816604614	0.19163298606872559
85	267.17354106903076	response	0	4		83.0	2.5	/experiments/knapen_aot/videos/S_production_ID_4360158.mp4	0.0	342.38224816322327	
85	267.18171405792236	movie	1		166.0	83.0	2.5	/experiments/knapen_aot/videos/S_production_ID_4360158.mp4	0.0	342.39042115211487	2.508355140686035
85	269.6900691986084	fix_post	2		12.0	83.0	2.5	/experiments/knapen_aot/videos/S_production_ID_4360158.mp4	0.0	344.8987762928009	0.1000058650970459
85	269.72362303733826	response	2	4		83.0	2.5	/experiments/knapen_aot/videos/S_production_ID_4360158.mp4	0.0	344.93233013153076	
87	269.79007506370544	stim	0		171.0					344.99878215789795	1.4287469387054443
87	270.14856219291687	response	0	4						345.3572692871094	
87	271.2105801105499	response	0	space						346.41928720474243	
