trial_nr	onset	event_type	phase	response	nr_frames	movie_index	movie_duration	movie_file	blank	onset_abs	duration
0	0.13418197631835938	stim	0		154.0					75.25675797462463	1.2862520217895508
0	0.9055280685424805	response	0	4						76.02810406684875	
0	1.4119760990142822	response	0	space						76.53455209732056	
1	1.4204339981079102	stim	0		121.0					76.54300999641418	1.0042130947113037
1	1.9997851848602295	response	0	space						77.1223611831665	
1	2.333062171936035	response	0	space						77.45563817024231	
1	2.424647092819214	stim	1		120.0					77.54722309112549	1.0001189708709717
1	2.608109951019287	response	1	space						77.73068594932556	
1	2.974730968475342	response	1	space						78.09730696678162	
1	3.291443109512329	response	1	space						78.4140191078186	
2	3.4247660636901855	fix_pre	0		21.0	0.0	2.5	/experiments/knapen_aot/videos/R_S_yt-Tt_LkR4iAt4_11.mp4	0.0	78.54734206199646	0.17594408988952637
2	3.5914971828460693	response	0	space		0.0	2.5	/experiments/knapen_aot/videos/R_S_yt-Tt_LkR4iAt4_11.mp4	0.0	78.71407318115234	
2	3.600710153579712	movie	1		301.0	0.0	2.5	/experiments/knapen_aot/videos/R_S_yt-Tt_LkR4iAt4_11.mp4	0.0	78.72328615188599	2.50732684135437
2	6.108036994934082	fix_post	2		12.0	0.0	2.5	/experiments/knapen_aot/videos/R_S_yt-Tt_LkR4iAt4_11.mp4	0.0	81.23061299324036	0.10000109672546387
3	6.208038091659546	fix_pre	0		200.0	1.0	2.5	/experiments/knapen_aot/videos/R_S_wc-6or3Gl2Fif0m_13.mp4	0.0	81.33061408996582	1.674921989440918
3	7.871992111206055	response	0	4		1.0	2.5	/experiments/knapen_aot/videos/R_S_wc-6or3Gl2Fif0m_13.mp4	0.0	82.99456810951233	
3	7.882960081100464	movie	1		165.0	1.0	2.5	/experiments/knapen_aot/videos/R_S_wc-6or3Gl2Fif0m_13.mp4	0.0	83.00553607940674	2.5000579357147217
3	10.383018016815186	fix_post	2		12.0	1.0	2.5	/experiments/knapen_aot/videos/R_S_wc-6or3Gl2Fif0m_13.mp4	0.0	85.50559401512146	0.0999140739440918
4	10.482932090759277	fix_pre	0		37.0	2.0	2.5	/experiments/knapen_aot/videos/R_S_yt-O6FS0xnF0CU_106.mp4	0.0	85.60550808906555	0.30829405784606934
4	10.783058166503906	response	0	4		2.0	2.5	/experiments/knapen_aot/videos/R_S_yt-O6FS0xnF0CU_106.mp4	0.0	85.90563416481018	
4	10.791226148605347	movie	1		301.0	2.0	2.5	/experiments/knapen_aot/videos/R_S_yt-O6FS0xnF0CU_106.mp4	0.0	85.91380214691162	2.508457899093628
4	13.299684047698975	fix_post	2		12.0	2.0	2.5	/experiments/knapen_aot/videos/R_S_yt-O6FS0xnF0CU_106.mp4	0.0	88.42226004600525	0.09997391700744629
5	13.399657964706421	fix_pre	0		31.0	3.0	2.5	/experiments/knapen_aot/videos/R_S_comp_GL_G004_C010_PSNK_v04_SDR_PS_FINAL_20180709_SDR_2K_AVC.mp4	0.0	88.5222339630127	0.25834107398986816
5	13.64975118637085	response	0	4		3.0	2.5	/experiments/knapen_aot/videos/R_S_comp_GL_G004_C010_PSNK_v04_SDR_PS_FINAL_20180709_SDR_2K_AVC.mp4	0.0	88.77232718467712	
5	13.657999038696289	movie	1		168.0	3.0	2.5	/experiments/knapen_aot/videos/R_S_comp_GL_G004_C010_PSNK_v04_SDR_PS_FINAL_20180709_SDR_2K_AVC.mp4	0.0	88.78057503700256	2.5083160400390625
5	16.16631507873535	fix_post	2		12.0	3.0	2.5	/experiments/knapen_aot/videos/R_S_comp_GL_G004_C010_PSNK_v04_SDR_PS_FINAL_20180709_SDR_2K_AVC.mp4	0.0	91.28889107704163	0.10006403923034668
6	16.2663791179657	fix_pre	0		99.0	4.0	2.5	/experiments/knapen_aot/videos/S_production_ID_4325509.mp4	0.0	91.38895511627197	0.8249478340148926
6	17.083106994628906	response	0	4		4.0	2.5	/experiments/knapen_aot/videos/S_production_ID_4325509.mp4	0.0	92.20568299293518	
6	17.09132695198059	movie	1		198.0	4.0	2.5	/experiments/knapen_aot/videos/S_production_ID_4325509.mp4	0.0	92.21390295028687	2.508291006088257
6	19.599617958068848	fix_post	2		12.0	4.0	2.5	/experiments/knapen_aot/videos/S_production_ID_4325509.mp4	0.0	94.72219395637512	0.09992599487304688
7	19.699543952941895	fix_pre	0		36.0	5.0	2.5	/experiments/knapen_aot/videos/R_S_yt-tfHCqgH1guY_235.mp4	0.0	94.82211995124817	0.2999861240386963
7	19.991368055343628	response	0	4		5.0	2.5	/experiments/knapen_aot/videos/R_S_yt-tfHCqgH1guY_235.mp4	0.0	95.1139440536499	
7	19.99953007698059	movie	1		301.0	5.0	2.5	/experiments/knapen_aot/videos/R_S_yt-tfHCqgH1guY_235.mp4	0.0	95.12210607528687	2.508470058441162
7	22.508000135421753	fix_post	2		12.0	5.0	2.5	/experiments/knapen_aot/videos/R_S_yt-tfHCqgH1guY_235.mp4	0.0	97.63057613372803	0.09995293617248535
8	22.60795307159424	fix_pre	0		30.0	6.0	2.5	blank	1.0	97.73052906990051	0.2500030994415283
8	22.849771976470947	response	0	4		6.0	2.5	blank	1.0	97.97234797477722	
8	22.857956171035767	movie	1		301.0	6.0	2.5	blank	1.0	97.98053216934204	2.5083467960357666
8	25.366302967071533	fix_post	2		12.0	6.0	2.5	blank	1.0	100.48887896537781	0.09996199607849121
9	25.466264963150024	fix_pre	0		100.0	7.0	2.5	/experiments/knapen_aot/videos/S_comp_DB_D002_C003_PSNK_v04_SDR_PS_20180914_SDR_2K_AVC.mp4	0.0	100.5888409614563	0.8333430290222168
9	26.291516065597534	response	0	4		7.0	2.5	/experiments/knapen_aot/videos/S_comp_DB_D002_C003_PSNK_v04_SDR_PS_20180914_SDR_2K_AVC.mp4	0.0	101.41409206390381	
9	26.29960799217224	movie	1		165.0	7.0	2.5	/experiments/knapen_aot/videos/S_comp_DB_D002_C003_PSNK_v04_SDR_PS_20180914_SDR_2K_AVC.mp4	0.0	101.42218399047852	2.508329153060913
9	28.483047008514404	response	1	4		7.0	2.5	/experiments/knapen_aot/videos/S_comp_DB_D002_C003_PSNK_v04_SDR_PS_20180914_SDR_2K_AVC.mp4	0.0	103.60562300682068	
9	28.807937145233154	fix_post	2		12.0	7.0	2.5	/experiments/knapen_aot/videos/S_comp_DB_D002_C003_PSNK_v04_SDR_PS_20180914_SDR_2K_AVC.mp4	0.0	103.93051314353943	0.09997200965881348
10	28.907909154891968	fix_pre	0		25.0	8.0	2.5	/experiments/knapen_aot/videos/S_yt-mdxs8FCKLFc_232.mp4	0.0	104.03048515319824	0.20830082893371582
10	29.10799503326416	response	0	4		8.0	2.5	/experiments/knapen_aot/videos/S_yt-mdxs8FCKLFc_232.mp4	0.0	104.23057103157043	
10	29.116209983825684	movie	1		301.0	8.0	2.5	/experiments/knapen_aot/videos/S_yt-mdxs8FCKLFc_232.mp4	0.0	104.23878598213196	2.5083720684051514
10	31.624582052230835	fix_post	2		12.0	8.0	2.5	/experiments/knapen_aot/videos/S_yt-mdxs8FCKLFc_232.mp4	0.0	106.74715805053711	0.09989094734191895
11	31.724472999572754	fix_pre	0		53.0	9.0	2.5	/experiments/knapen_aot/videos/S_yt-tfHCqgH1guY_235.mp4	0.0	106.84704899787903	0.441709041595459
11	32.15798306465149	response	0	4		9.0	2.5	/experiments/knapen_aot/videos/S_yt-tfHCqgH1guY_235.mp4	0.0	107.28055906295776	
11	32.16618204116821	movie	1		301.0	9.0	2.5	/experiments/knapen_aot/videos/S_yt-tfHCqgH1guY_235.mp4	0.0	107.28875803947449	2.508502960205078
11	34.416298151016235	response	1	4		9.0	2.5	/experiments/knapen_aot/videos/S_yt-tfHCqgH1guY_235.mp4	0.0	109.53887414932251	
11	34.67468500137329	fix_post	2		12.0	9.0	2.5	/experiments/knapen_aot/videos/S_yt-tfHCqgH1guY_235.mp4	0.0	109.79726099967957	0.09983205795288086
12	34.77451705932617	fix_pre	0		105.0	10.0	2.5	/experiments/knapen_aot/videos/S_ILSVRC2015_train_00572000.mp4	0.0	109.89709305763245	0.8749411106109619
12	35.64132499694824	response	0	4		10.0	2.5	/experiments/knapen_aot/videos/S_ILSVRC2015_train_00572000.mp4	0.0	110.76390099525452	
12	35.649458169937134	movie	1		301.0	10.0	2.5	/experiments/knapen_aot/videos/S_ILSVRC2015_train_00572000.mp4	0.0	110.77203416824341	2.508408784866333
12	38.15786695480347	fix_post	2		12.0	10.0	2.5	/experiments/knapen_aot/videos/S_ILSVRC2015_train_00572000.mp4	0.0	113.28044295310974	0.09996414184570312
13	38.25783109664917	fix_pre	0		36.0	11.0	2.5	/experiments/knapen_aot/videos/R_S_production_ID_4121250.mp4	0.0	113.38040709495544	0.30091094970703125
13	38.54961705207825	response	0	4		11.0	2.5	/experiments/knapen_aot/videos/R_S_production_ID_4121250.mp4	0.0	113.67219305038452	
13	38.5587420463562	movie	1		169.0	11.0	2.5	/experiments/knapen_aot/videos/R_S_production_ID_4121250.mp4	0.0	113.68131804466248	2.5076189041137695
13	41.06636095046997	fix_post	2		12.0	11.0	2.5	/experiments/knapen_aot/videos/R_S_production_ID_4121250.mp4	0.0	116.18893694877625	0.09986710548400879
14	41.16622805595398	fix_pre	0		18.0	12.0	2.5	blank	1.0	116.28880405426025	0.14989399909973145
14	41.30038905143738	response	0	4		12.0	2.5	blank	1.0	116.42296504974365	
14	41.31612205505371	movie	1		301.0	12.0	2.5	blank	1.0	116.43869805335999	2.5083611011505127
14	43.824483156204224	fix_post	2		12.0	12.0	2.5	blank	1.0	118.9470591545105	0.10041689872741699
15	43.92490005493164	fix_pre	0		37.0	13.0	2.5	/experiments/knapen_aot/videos/S_yt-XRQ_LSGGr3Y_712.mp4	0.0	119.04747605323792	0.3078620433807373
15	44.22453808784485	response	0	4		13.0	2.5	/experiments/knapen_aot/videos/S_yt-XRQ_LSGGr3Y_712.mp4	0.0	119.34711408615112	
15	44.23276209831238	movie	1		301.0	13.0	2.5	/experiments/knapen_aot/videos/S_yt-XRQ_LSGGr3Y_712.mp4	0.0	119.35533809661865	2.50833797454834
15	46.74110007286072	fix_post	2		12.0	13.0	2.5	/experiments/knapen_aot/videos/S_yt-XRQ_LSGGr3Y_712.mp4	0.0	121.86367607116699	0.10005593299865723
16	46.841156005859375	fix_pre	0		44.0	14.0	2.5	/experiments/knapen_aot/videos/R_S_yt-LsCCAQ8BRO8_7.mp4	0.0	121.96373200416565	0.3666081428527832
16	47.199589014053345	response	0	4		14.0	2.5	/experiments/knapen_aot/videos/R_S_yt-LsCCAQ8BRO8_7.mp4	0.0	122.32216501235962	
16	47.20776414871216	movie	1		301.0	14.0	2.5	/experiments/knapen_aot/videos/R_S_yt-LsCCAQ8BRO8_7.mp4	0.0	122.33034014701843	2.508476972579956
16	49.716241121292114	fix_post	2		12.0	14.0	2.5	/experiments/knapen_aot/videos/R_S_yt-LsCCAQ8BRO8_7.mp4	0.0	124.83881711959839	0.09986090660095215
17	49.816102027893066	fix_pre	0		40.0	15.0	2.5	/experiments/knapen_aot/videos/R_S_yt-qxtmtMnUfD0_124.mp4	0.0	124.93867802619934	0.33331298828125
17	50.14124011993408	response	0	4		15.0	2.5	/experiments/knapen_aot/videos/R_S_yt-qxtmtMnUfD0_124.mp4	0.0	125.26381611824036	
17	50.149415016174316	movie	1		301.0	15.0	2.5	/experiments/knapen_aot/videos/R_S_yt-qxtmtMnUfD0_124.mp4	0.0	125.27199101448059	2.5083701610565186
17	52.657785177230835	fix_post	2		12.0	15.0	2.5	/experiments/knapen_aot/videos/R_S_yt-qxtmtMnUfD0_124.mp4	0.0	127.78036117553711	0.09998297691345215
18	52.75776815414429	fix_pre	0		35.0	16.0	2.5	/experiments/knapen_aot/videos/R_S_ILSVRC2015_train_00418001.mp4	0.0	127.88034415245056	0.2916388511657715
18	53.04118895530701	response	0	4		16.0	2.5	/experiments/knapen_aot/videos/R_S_ILSVRC2015_train_00418001.mp4	0.0	128.16376495361328	
18	53.04940700531006	movie	1		301.0	16.0	2.5	/experiments/knapen_aot/videos/R_S_ILSVRC2015_train_00418001.mp4	0.0	128.17198300361633	2.5083999633789062
18	55.557806968688965	fix_post	2		12.0	16.0	2.5	/experiments/knapen_aot/videos/R_S_ILSVRC2015_train_00418001.mp4	0.0	130.68038296699524	0.10005521774291992
18	55.5828800201416	response	2	4		16.0	2.5	/experiments/knapen_aot/videos/R_S_ILSVRC2015_train_00418001.mp4	0.0	130.70545601844788	
19	55.657862186431885	fix_pre	0		51.0	17.0	2.5	/experiments/knapen_aot/videos/S_wc-jujp1kJRHrkJ_54.mp4	0.0	130.78043818473816	0.42478299140930176
19	56.074517011642456	response	0	4		17.0	2.5	/experiments/knapen_aot/videos/S_wc-jujp1kJRHrkJ_54.mp4	0.0	131.19709300994873	
19	56.08264517784119	movie	1		301.0	17.0	2.5	/experiments/knapen_aot/videos/S_wc-jujp1kJRHrkJ_54.mp4	0.0	131.20522117614746	2.508439779281616
19	58.128066062927246	response	1	4		17.0	2.5	/experiments/knapen_aot/videos/S_wc-jujp1kJRHrkJ_54.mp4	0.0	133.25064206123352	
19	58.5910849571228	fix_post	2		12.0	17.0	2.5	/experiments/knapen_aot/videos/S_wc-jujp1kJRHrkJ_54.mp4	0.0	133.71366095542908	0.10005617141723633
20	58.69114112854004	fix_pre	0		41.0	18.0	2.5	/experiments/knapen_aot/videos/R_S_yt-BDCyXL5e9S4_223.mp4	0.0	133.8137171268463	0.3415219783782959
20	59.02456617355347	response	0	4		18.0	2.5	/experiments/knapen_aot/videos/R_S_yt-BDCyXL5e9S4_223.mp4	0.0	134.14714217185974	
20	59.032663106918335	movie	1		301.0	18.0	2.5	/experiments/knapen_aot/videos/R_S_yt-BDCyXL5e9S4_223.mp4	0.0	134.1552391052246	2.5084218978881836
20	61.54108500480652	fix_post	2		12.0	18.0	2.5	/experiments/knapen_aot/videos/R_S_yt-BDCyXL5e9S4_223.mp4	0.0	136.6636610031128	0.10018301010131836
21	61.64126801490784	fix_pre	0		42.0	19.0	2.5	blank	1.0	136.7638440132141	0.3497481346130371
21	61.98286199569702	response	0	4		19.0	2.5	blank	1.0	137.1054379940033	
21	61.991016149520874	movie	1		301.0	19.0	2.5	blank	1.0	137.11359214782715	2.5083768367767334
21	64.49939298629761	fix_post	2		12.0	19.0	2.5	blank	1.0	139.62196898460388	0.10019111633300781
22	64.59958410263062	fix_pre	0		30.0	20.0	2.5	/experiments/knapen_aot/videos/S_yt-XtzmBXKYEWk_60.mp4	0.0	139.7221601009369	0.2504539489746094
22	64.8411750793457	response	0	4		20.0	2.5	/experiments/knapen_aot/videos/S_yt-XtzmBXKYEWk_60.mp4	0.0	139.96375107765198	
22	64.85003805160522	movie	1		301.0	20.0	2.5	/experiments/knapen_aot/videos/S_yt-XtzmBXKYEWk_60.mp4	0.0	139.9726140499115	2.507678985595703
22	67.35771703720093	fix_post	2		12.0	20.0	2.5	/experiments/knapen_aot/videos/S_yt-XtzmBXKYEWk_60.mp4	0.0	142.4802930355072	0.09997892379760742
23	67.45769596099854	fix_pre	0		55.0	21.0	2.5	/experiments/knapen_aot/videos/S_yt-xqjVM0Vj4mI_161.mp4	0.0	142.5802719593048	0.4583401679992676
23	67.90784406661987	response	0	4		21.0	2.5	/experiments/knapen_aot/videos/S_yt-xqjVM0Vj4mI_161.mp4	0.0	143.03042006492615	
23	67.9160361289978	movie	1		301.0	21.0	2.5	/experiments/knapen_aot/videos/S_yt-xqjVM0Vj4mI_161.mp4	0.0	143.03861212730408	2.5083189010620117
23	70.42435503005981	fix_post	2		12.0	21.0	2.5	/experiments/knapen_aot/videos/S_yt-xqjVM0Vj4mI_161.mp4	0.0	145.5469310283661	0.09998512268066406
24	70.52434015274048	fix_pre	0		28.0	22.0	2.5	/experiments/knapen_aot/videos/S_yt-qxtmtMnUfD0_124.mp4	0.0	145.64691615104675	0.2333378791809082
24	70.7494421005249	response	0	4		22.0	2.5	/experiments/knapen_aot/videos/S_yt-qxtmtMnUfD0_124.mp4	0.0	145.87201809883118	
24	70.75767803192139	movie	1		300.0	22.0	2.5	/experiments/knapen_aot/videos/S_yt-qxtmtMnUfD0_124.mp4	0.0	145.88025403022766	2.5083580017089844
24	73.26603603363037	fix_post	2		12.0	22.0	2.5	/experiments/knapen_aot/videos/S_yt-qxtmtMnUfD0_124.mp4	0.0	148.38861203193665	0.09996414184570312
25	73.36600017547607	fix_pre	0		30.0	23.0	2.5	/experiments/knapen_aot/videos/S_video_inspire_nevada_lasvegas_northstrip_021.1080-h264.mp4	0.0	148.48857617378235	0.24993491172790527
25	73.6077721118927	response	0	4		23.0	2.5	/experiments/knapen_aot/videos/S_video_inspire_nevada_lasvegas_northstrip_021.1080-h264.mp4	0.0	148.73034811019897	
25	73.61593508720398	movie	1		167.0	23.0	2.5	/experiments/knapen_aot/videos/S_video_inspire_nevada_lasvegas_northstrip_021.1080-h264.mp4	0.0	148.73851108551025	2.5084900856018066
25	75.2066490650177	response	1	4		23.0	2.5	/experiments/knapen_aot/videos/S_video_inspire_nevada_lasvegas_northstrip_021.1080-h264.mp4	0.0	150.32922506332397	
25	76.12442517280579	fix_post	2		12.0	23.0	2.5	/experiments/knapen_aot/videos/S_video_inspire_nevada_lasvegas_northstrip_021.1080-h264.mp4	0.0	151.24700117111206	0.10003089904785156
26	76.22445607185364	fix_pre	0		16.0	24.0	2.5	/experiments/knapen_aot/videos/S_yt-NuZy8Rjk4d0_156.mp4	0.0	151.3470320701599	0.13314390182495117
26	76.34937596321106	response	0	4		24.0	2.5	/experiments/knapen_aot/videos/S_yt-NuZy8Rjk4d0_156.mp4	0.0	151.47195196151733	
26	76.35759997367859	movie	1		301.0	24.0	2.5	/experiments/knapen_aot/videos/S_yt-NuZy8Rjk4d0_156.mp4	0.0	151.48017597198486	2.508427143096924
26	78.86602711677551	fix_post	2		12.0	24.0	2.5	/experiments/knapen_aot/videos/S_yt-NuZy8Rjk4d0_156.mp4	0.0	153.9886031150818	0.10002994537353516
27	78.96605706214905	fix_pre	0		47.0	25.0	2.5	/experiments/knapen_aot/videos/S_yt-HwEfWfFJhRo_73.mp4	0.0	154.08863306045532	0.3915860652923584
27	79.349454164505	response	0	4		25.0	2.5	/experiments/knapen_aot/videos/S_yt-HwEfWfFJhRo_73.mp4	0.0	154.47203016281128	
27	79.3576431274414	movie	1		301.0	25.0	2.5	/experiments/knapen_aot/videos/S_yt-HwEfWfFJhRo_73.mp4	0.0	154.48021912574768	2.508330821990967
27	81.86597394943237	fix_post	2		12.0	25.0	2.5	/experiments/knapen_aot/videos/S_yt-HwEfWfFJhRo_73.mp4	0.0	156.98854994773865	0.10012006759643555
28	81.96609401702881	fix_pre	0		19.0	26.0	2.5	blank	1.0	157.08867001533508	0.15825104713439941
28	82.11610507965088	response	0	4		26.0	2.5	blank	1.0	157.23868107795715	
28	82.12434506416321	movie	1		301.0	26.0	2.5	blank	1.0	157.24692106246948	2.508275032043457
28	84.63262009620667	fix_post	2		12.0	26.0	2.5	blank	1.0	159.75519609451294	0.10007286071777344
29	84.73269295692444	fix_pre	0		43.0	27.0	2.5	/experiments/knapen_aot/videos/S_yt--I4Ggi6-QOE_23.mp4	0.0	159.8552689552307	0.35826611518859863
29	85.08280897140503	response	0	4		27.0	2.5	/experiments/knapen_aot/videos/S_yt--I4Ggi6-QOE_23.mp4	0.0	160.2053849697113	
29	85.09095907211304	movie	1		301.0	27.0	2.5	/experiments/knapen_aot/videos/S_yt--I4Ggi6-QOE_23.mp4	0.0	160.2135350704193	2.5085289478302
29	87.59948801994324	fix_post	2		12.0	27.0	2.5	/experiments/knapen_aot/videos/S_yt--I4Ggi6-QOE_23.mp4	0.0	162.7220640182495	0.09980511665344238
30	87.69929313659668	fix_pre	0		11.0	28.0	2.5	/experiments/knapen_aot/videos/S_comp_DB_D002_C003_PSNK_v04_SDR_PS_20180914_SDR_2K_AVC.mp4	0.0	162.82186913490295	0.09168696403503418
30	87.78266406059265	response	0	4		28.0	2.5	/experiments/knapen_aot/videos/S_comp_DB_D002_C003_PSNK_v04_SDR_PS_20180914_SDR_2K_AVC.mp4	0.0	162.90524005889893	
30	87.79098010063171	movie	1		165.0	28.0	2.5	/experiments/knapen_aot/videos/S_comp_DB_D002_C003_PSNK_v04_SDR_PS_20180914_SDR_2K_AVC.mp4	0.0	162.913556098938	2.508228063583374
30	89.39829516410828	response	1	4		28.0	2.5	/experiments/knapen_aot/videos/S_comp_DB_D002_C003_PSNK_v04_SDR_PS_20180914_SDR_2K_AVC.mp4	0.0	164.52087116241455	
30	90.29920816421509	fix_post	2		12.0	28.0	2.5	/experiments/knapen_aot/videos/S_comp_DB_D002_C003_PSNK_v04_SDR_PS_20180914_SDR_2K_AVC.mp4	0.0	165.42178416252136	0.10004496574401855
31	90.3992531299591	fix_pre	0		19.0	29.0	2.5	/experiments/knapen_aot/videos/S_ILSVRC2015_train_00303008.mp4	0.0	165.52182912826538	0.1588878631591797
31	90.54935216903687	response	0	4		29.0	2.5	/experiments/knapen_aot/videos/S_ILSVRC2015_train_00303008.mp4	0.0	165.67192816734314	
31	90.55814099311829	movie	1		300.0	29.0	2.5	/experiments/knapen_aot/videos/S_ILSVRC2015_train_00303008.mp4	0.0	165.68071699142456	2.507840156555176
31	91.67624402046204	response	1	4		29.0	2.5	/experiments/knapen_aot/videos/S_ILSVRC2015_train_00303008.mp4	0.0	166.7988200187683	
31	93.06598114967346	fix_post	2		12.0	29.0	2.5	/experiments/knapen_aot/videos/S_ILSVRC2015_train_00303008.mp4	0.0	168.18855714797974	0.09995698928833008
32	93.16593813896179	fix_pre	0		10.0	30.0	2.5	/experiments/knapen_aot/videos/S_yt-2V2tq9-O_Nc_1669.mp4	0.0	168.28851413726807	0.08328485488891602
32	93.24101495742798	response	0	4		30.0	2.5	/experiments/knapen_aot/videos/S_yt-2V2tq9-O_Nc_1669.mp4	0.0	168.36359095573425	
32	93.24922299385071	movie	1		301.0	30.0	2.5	/experiments/knapen_aot/videos/S_yt-2V2tq9-O_Nc_1669.mp4	0.0	168.37179899215698	2.508371114730835
32	95.75759410858154	fix_post	2		12.0	30.0	2.5	/experiments/knapen_aot/videos/S_yt-2V2tq9-O_Nc_1669.mp4	0.0	170.88017010688782	0.09999299049377441
33	95.85758709907532	fix_pre	0		28.0	31.0	2.5	/experiments/knapen_aot/videos/R_S_yt-waWM9vAfsIw_116.mp4	0.0	170.9801630973816	0.23319792747497559
33	96.07510018348694	response	0	4		31.0	2.5	/experiments/knapen_aot/videos/R_S_yt-waWM9vAfsIw_116.mp4	0.0	171.1976761817932	
33	96.0907850265503	movie	1		301.0	31.0	2.5	/experiments/knapen_aot/videos/R_S_yt-waWM9vAfsIw_116.mp4	0.0	171.21336102485657	2.508471965789795
33	98.59925699234009	fix_post	2		12.0	31.0	2.5	/experiments/knapen_aot/videos/R_S_yt-waWM9vAfsIw_116.mp4	0.0	173.72183299064636	0.09999513626098633
34	98.69925212860107	fix_pre	0		39.0	32.0	2.5	/experiments/knapen_aot/videos/S_yt-BLmwmX-mni8_1030.mp4	0.0	173.82182812690735	0.32500290870666504
34	99.01596808433533	response	0	4		32.0	2.5	/experiments/knapen_aot/videos/S_yt-BLmwmX-mni8_1030.mp4	0.0	174.1385440826416	
34	99.02425503730774	movie	1		301.0	32.0	2.5	/experiments/knapen_aot/videos/S_yt-BLmwmX-mni8_1030.mp4	0.0	174.146831035614	2.5082170963287354
34	101.24944400787354	response	1	4		32.0	2.5	/experiments/knapen_aot/videos/S_yt-BLmwmX-mni8_1030.mp4	0.0	176.3720200061798	
34	101.53247213363647	fix_post	2		12.0	32.0	2.5	/experiments/knapen_aot/videos/S_yt-BLmwmX-mni8_1030.mp4	0.0	176.65504813194275	0.10004281997680664
35	101.63251495361328	fix_pre	0		76.0	33.0	2.5	/experiments/knapen_aot/videos/S_yt-mdxs8FCKLFc_232.mp4	0.0	176.75509095191956	0.6337990760803223
35	102.25756406784058	response	0	4		33.0	2.5	/experiments/knapen_aot/videos/S_yt-mdxs8FCKLFc_232.mp4	0.0	177.38014006614685	
35	102.2663140296936	movie	1		301.0	33.0	2.5	/experiments/knapen_aot/videos/S_yt-mdxs8FCKLFc_232.mp4	0.0	177.38889002799988	2.507889986038208
35	104.77420401573181	fix_post	2		12.0	33.0	2.5	/experiments/knapen_aot/videos/S_yt-mdxs8FCKLFc_232.mp4	0.0	179.8967800140381	0.0999910831451416
36	104.87419509887695	fix_pre	0		28.0	34.0	2.5	/experiments/knapen_aot/videos/S_ILSVRC2015_train_00418001.mp4	0.0	179.99677109718323	0.2332470417022705
36	105.09179306030273	response	0	4		34.0	2.5	/experiments/knapen_aot/videos/S_ILSVRC2015_train_00418001.mp4	0.0	180.214369058609	
36	105.10744214057922	movie	1		301.0	34.0	2.5	/experiments/knapen_aot/videos/S_ILSVRC2015_train_00418001.mp4	0.0	180.2300181388855	2.5083839893341064
36	107.61582612991333	fix_post	2		12.0	34.0	2.5	/experiments/knapen_aot/videos/S_ILSVRC2015_train_00418001.mp4	0.0	182.7384021282196	0.10002303123474121
37	107.71584916114807	fix_pre	0		6.0	35.0	2.5	blank	1.0	182.83842515945435	0.05055999755859375
37	107.75019717216492	response	0	4		35.0	2.5	blank	1.0	182.8727731704712	
37	107.76640915870667	movie	1		301.0	35.0	2.5	blank	1.0	182.88898515701294	2.5077569484710693
37	110.27416610717773	fix_post	2		12.0	35.0	2.5	blank	1.0	185.396742105484	0.09994387626647949
38	110.37410998344421	fix_pre	0		27.0	36.0	2.5	/experiments/knapen_aot/videos/R_S_yt-V_2XgfjJfeQ_67.mp4	0.0	185.4966859817505	0.22542619705200195
38	110.58346915245056	response	0	4		36.0	2.5	/experiments/knapen_aot/videos/R_S_yt-V_2XgfjJfeQ_67.mp4	0.0	185.70604515075684	
38	110.59953618049622	movie	1		301.0	36.0	2.5	/experiments/knapen_aot/videos/R_S_yt-V_2XgfjJfeQ_67.mp4	0.0	185.7221121788025	2.507913827896118
38	112.83247518539429	response	1	4		36.0	2.5	/experiments/knapen_aot/videos/R_S_yt-V_2XgfjJfeQ_67.mp4	0.0	187.95505118370056	
38	113.10745000839233	fix_post	2		12.0	36.0	2.5	/experiments/knapen_aot/videos/R_S_yt-V_2XgfjJfeQ_67.mp4	0.0	188.2300260066986	0.10002017021179199
39	113.20747017860413	fix_pre	0		312.0	37.0	2.5	/experiments/knapen_aot/videos/S_yt-316ecr1BT84_44.mp4	0.0	188.3300461769104	2.6003689765930176
39	115.7916829586029	response	0	4		37.0	2.5	/experiments/knapen_aot/videos/S_yt-316ecr1BT84_44.mp4	0.0	190.91425895690918	
39	115.80783915519714	movie	1		301.0	37.0	2.5	/experiments/knapen_aot/videos/S_yt-316ecr1BT84_44.mp4	0.0	190.93041515350342	2.5079898834228516
39	118.31582903862	fix_post	2		12.0	37.0	2.5	/experiments/knapen_aot/videos/S_yt-316ecr1BT84_44.mp4	0.0	193.43840503692627	0.09996604919433594
40	118.41579508781433	fix_pre	0		168.0	38.0	2.5	/experiments/knapen_aot/videos/S_pexels-cottonbro-6788024.mp4	0.0	193.5383710861206	1.3999860286712646
40	119.80758595466614	response	0	4		38.0	2.5	/experiments/knapen_aot/videos/S_pexels-cottonbro-6788024.mp4	0.0	194.9301619529724	
40	119.8157811164856	movie	1		198.0	38.0	2.5	/experiments/knapen_aot/videos/S_pexels-cottonbro-6788024.mp4	0.0	194.93835711479187	2.5083320140838623
40	122.32411313056946	fix_post	2		12.0	38.0	2.5	/experiments/knapen_aot/videos/S_pexels-cottonbro-6788024.mp4	0.0	197.44668912887573	0.09999704360961914
41	122.42411017417908	fix_pre	0		204.0	39.0	2.5	/experiments/knapen_aot/videos/S_yt-35i8UeYXjGw_47.mp4	0.0	197.54668617248535	1.6999328136444092
41	124.11593198776245	response	0	4		39.0	2.5	/experiments/knapen_aot/videos/S_yt-35i8UeYXjGw_47.mp4	0.0	199.23850798606873	
41	124.12404298782349	movie	1		301.0	39.0	2.5	/experiments/knapen_aot/videos/S_yt-35i8UeYXjGw_47.mp4	0.0	199.24661898612976	2.5085301399230957
41	126.63257312774658	fix_post	2		12.0	39.0	2.5	/experiments/knapen_aot/videos/S_yt-35i8UeYXjGw_47.mp4	0.0	201.75514912605286	0.09986591339111328
42	126.7324390411377	fix_pre	0		37.0	40.0	2.5	/experiments/knapen_aot/videos/R_S_yt-FMIevUic_XY_50.mp4	0.0	201.85501503944397	0.30824995040893555
42	127.03248715400696	response	0	4		40.0	2.5	/experiments/knapen_aot/videos/R_S_yt-FMIevUic_XY_50.mp4	0.0	202.15506315231323	
42	127.04068899154663	movie	1		301.0	40.0	2.5	/experiments/knapen_aot/videos/R_S_yt-FMIevUic_XY_50.mp4	0.0	202.1632649898529	2.5084781646728516
42	129.54916715621948	fix_post	2		12.0	40.0	2.5	/experiments/knapen_aot/videos/R_S_yt-FMIevUic_XY_50.mp4	0.0	204.67174315452576	0.09992384910583496
43	129.64909100532532	fix_pre	0		12.0	41.0	2.5	blank	1.0	204.7716670036316	0.09993505477905273
43	129.7408561706543	response	0	4		41.0	2.5	blank	1.0	204.86343216896057	
43	129.74902606010437	movie	1		301.0	41.0	2.5	blank	1.0	204.87160205841064	2.508502960205078
43	131.9074981212616	response	1	4		41.0	2.5	blank	1.0	207.03007411956787	
43	132.25752902030945	fix_post	2		12.0	41.0	2.5	blank	1.0	207.38010501861572	0.09986305236816406
44	132.3573920726776	fix_pre	0		37.0	42.0	2.5	/experiments/knapen_aot/videos/R_S_yt-KLInd-KrK_w_19.mp4	0.0	207.4799680709839	0.3082740306854248
44	132.65745401382446	response	0	4		42.0	2.5	/experiments/knapen_aot/videos/R_S_yt-KLInd-KrK_w_19.mp4	0.0	207.78003001213074	
44	132.66566610336304	movie	1		301.0	42.0	2.5	/experiments/knapen_aot/videos/R_S_yt-KLInd-KrK_w_19.mp4	0.0	207.7882421016693	2.5085690021514893
44	135.17423510551453	fix_post	2		12.0	42.0	2.5	/experiments/knapen_aot/videos/R_S_yt-KLInd-KrK_w_19.mp4	0.0	210.2968111038208	0.09981703758239746
45	135.27405214309692	fix_pre	0		90.0	43.0	2.5	/experiments/knapen_aot/videos/R_S_yt-w_e3sxIzepA_27.mp4	0.0	210.3966281414032	0.7499539852142334
45	136.01586818695068	response	0	4		43.0	2.5	/experiments/knapen_aot/videos/R_S_yt-w_e3sxIzepA_27.mp4	0.0	211.13844418525696	
45	136.02400612831116	movie	1		301.0	43.0	2.5	/experiments/knapen_aot/videos/R_S_yt-w_e3sxIzepA_27.mp4	0.0	211.14658212661743	2.5084359645843506
45	138.5324420928955	fix_post	2		12.0	43.0	2.5	/experiments/knapen_aot/videos/R_S_yt-w_e3sxIzepA_27.mp4	0.0	213.65501809120178	0.10001492500305176
46	138.63245701789856	fix_pre	0		70.0	44.0	2.5	/experiments/knapen_aot/videos/R_S_yt-JPsTqfqfPIY_319.mp4	0.0	213.75503301620483	0.5831201076507568
46	139.2075071334839	response	0	4		44.0	2.5	/experiments/knapen_aot/videos/R_S_yt-JPsTqfqfPIY_319.mp4	0.0	214.33008313179016	
46	139.21557712554932	movie	1		301.0	44.0	2.5	/experiments/knapen_aot/videos/R_S_yt-JPsTqfqfPIY_319.mp4	0.0	214.3381531238556	2.508462905883789
46	141.7240400314331	fix_post	2		12.0	44.0	2.5	/experiments/knapen_aot/videos/R_S_yt-JPsTqfqfPIY_319.mp4	0.0	216.84661602973938	0.09996914863586426
47	141.82400918006897	fix_pre	0		357.0	45.0	2.5	/experiments/knapen_aot/videos/S_yt-Xkx53mjgj2E_30.mp4	0.0	216.94658517837524	2.9749228954315186
47	144.79080605506897	response	0	4		45.0	2.5	/experiments/knapen_aot/videos/S_yt-Xkx53mjgj2E_30.mp4	0.0	219.91338205337524	
47	144.7989320755005	movie	1		301.0	45.0	2.5	/experiments/knapen_aot/videos/S_yt-Xkx53mjgj2E_30.mp4	0.0	219.92150807380676	2.508716106414795
47	147.30764818191528	fix_post	2		12.0	45.0	2.5	/experiments/knapen_aot/videos/S_yt-Xkx53mjgj2E_30.mp4	0.0	222.43022418022156	0.09968280792236328
48	147.40733098983765	fix_pre	0		38.0	46.0	2.5	/experiments/knapen_aot/videos/S_pexels-mart-production-7698911_1.mp4	0.0	222.52990698814392	0.3168489933013916
48	147.71564412117004	response	0	4		46.0	2.5	/experiments/knapen_aot/videos/S_pexels-mart-production-7698911_1.mp4	0.0	222.83822011947632	
48	147.72417998313904	movie	1		200.0	46.0	2.5	/experiments/knapen_aot/videos/S_pexels-mart-production-7698911_1.mp4	0.0	222.8467559814453	2.5081660747528076
48	150.23234605789185	fix_post	2		12.0	46.0	2.5	/experiments/knapen_aot/videos/S_pexels-mart-production-7698911_1.mp4	0.0	225.35492205619812	0.09999394416809082
49	150.33234000205994	fix_pre	0		32.0	47.0	2.5	/experiments/knapen_aot/videos/S_G010_C026_UHD_SDR_v02_2K_AVC.mp4	0.0	225.4549160003662	0.2668640613555908
49	150.59082913398743	response	0	4		47.0	2.5	/experiments/knapen_aot/videos/S_G010_C026_UHD_SDR_v02_2K_AVC.mp4	0.0	225.7134051322937	
49	150.59920406341553	movie	1		168.0	47.0	2.5	/experiments/knapen_aot/videos/S_G010_C026_UHD_SDR_v02_2K_AVC.mp4	0.0	225.7217800617218	2.508120059967041
49	153.10732412338257	fix_post	2		12.0	47.0	2.5	/experiments/knapen_aot/videos/S_G010_C026_UHD_SDR_v02_2K_AVC.mp4	0.0	228.22990012168884	0.09997391700744629
50	153.20729804039001	fix_pre	0		44.0	48.0	2.5	blank	1.0	228.3298740386963	0.3666849136352539
50	153.56561398506165	response	0	4		48.0	2.5	blank	1.0	228.68818998336792	
50	153.57398295402527	movie	1		301.0	48.0	2.5	blank	1.0	228.69655895233154	2.5083160400390625
50	156.08229899406433	fix_post	2		12.0	48.0	2.5	blank	1.0	231.2048749923706	0.10019207000732422
51	156.18249106407166	fix_pre	0		1.0	49.0	2.5	/experiments/knapen_aot/videos/S_pexels-koolshooters-7689098.mp4	0.0	231.30506706237793	0.008086919784545898
51	156.17516708374023	response	0	4		49.0	2.5	/experiments/knapen_aot/videos/S_pexels-koolshooters-7689098.mp4	0.0	231.2977430820465	
51	156.1905779838562	movie	1		164.0	49.0	2.5	/experiments/knapen_aot/videos/S_pexels-koolshooters-7689098.mp4	0.0	231.31315398216248	2.5084099769592285
51	158.69898796081543	fix_post	2		12.0	49.0	2.5	/experiments/knapen_aot/videos/S_pexels-koolshooters-7689098.mp4	0.0	233.8215639591217	0.09993600845336914
52	158.7989239692688	fix_pre	0		41.0	50.0	2.5	/experiments/knapen_aot/videos/R_S_yt-YeT4acsbqok_210.mp4	0.0	233.92149996757507	0.34177613258361816
52	159.13236117362976	response	0	4		50.0	2.5	/experiments/knapen_aot/videos/R_S_yt-YeT4acsbqok_210.mp4	0.0	234.25493717193604	
52	159.14070010185242	movie	1		301.0	50.0	2.5	/experiments/knapen_aot/videos/R_S_yt-YeT4acsbqok_210.mp4	0.0	234.2632761001587	2.5081870555877686
52	161.64888715744019	fix_post	2		12.0	50.0	2.5	/experiments/knapen_aot/videos/R_S_yt-YeT4acsbqok_210.mp4	0.0	236.77146315574646	0.1000359058380127
53	161.7489230632782	fix_pre	0		22.0	51.0	2.5	/experiments/knapen_aot/videos/S_ILSVRC2015_train_00723001.mp4	0.0	236.87149906158447	0.18346190452575684
53	161.91647005081177	response	0	4		51.0	2.5	/experiments/knapen_aot/videos/S_ILSVRC2015_train_00723001.mp4	0.0	237.03904604911804	
53	161.93238496780396	movie	1		301.0	51.0	2.5	/experiments/knapen_aot/videos/S_ILSVRC2015_train_00723001.mp4	0.0	237.05496096611023	2.5081660747528076
53	164.44055104255676	fix_post	2		12.0	51.0	2.5	/experiments/knapen_aot/videos/S_ILSVRC2015_train_00723001.mp4	0.0	239.56312704086304	0.10001611709594727
54	164.5405671596527	fix_pre	0		127.0	52.0	2.5	/experiments/knapen_aot/videos/R_S_bing-www_break_com_video_like-a-cat-catching-a-fly-3131008_12.mp4	0.0	239.66314315795898	1.0584988594055176
54	165.59073209762573	response	0	4		52.0	2.5	/experiments/knapen_aot/videos/R_S_bing-www_break_com_video_like-a-cat-catching-a-fly-3131008_12.mp4	0.0	240.713308095932	
54	165.59906601905823	movie	1		301.0	52.0	2.5	/experiments/knapen_aot/videos/R_S_bing-www_break_com_video_like-a-cat-catching-a-fly-3131008_12.mp4	0.0	240.7216420173645	2.508213996887207
54	168.10728001594543	fix_post	2		12.0	52.0	2.5	/experiments/knapen_aot/videos/R_S_bing-www_break_com_video_like-a-cat-catching-a-fly-3131008_12.mp4	0.0	243.2298560142517	0.0999441146850586
55	168.2072241306305	fix_pre	0		56.0	53.0	2.5	/experiments/knapen_aot/videos/S_ILSVRC2015_train_00743005.mp4	0.0	243.32980012893677	0.46658992767333984
55	168.6657199859619	response	0	4		53.0	2.5	/experiments/knapen_aot/videos/S_ILSVRC2015_train_00743005.mp4	0.0	243.7882959842682	
55	168.67381405830383	movie	1		301.0	53.0	2.5	/experiments/knapen_aot/videos/S_ILSVRC2015_train_00743005.mp4	0.0	243.7963900566101	2.5085830688476562
55	171.1823971271515	fix_post	2		12.0	53.0	2.5	/experiments/knapen_aot/videos/S_ILSVRC2015_train_00743005.mp4	0.0	246.30497312545776	0.0998849868774414
56	171.28228211402893	fix_pre	0		7.0	54.0	2.5	blank	1.0	246.4048581123352	0.0582270622253418
56	171.3323061466217	response	0	4		54.0	2.5	blank	1.0	246.45488214492798	
56	171.34050917625427	movie	1		301.0	54.0	2.5	blank	1.0	246.46308517456055	2.5085089206695557
56	173.84901809692383	fix_post	2		12.0	54.0	2.5	blank	1.0	248.9715940952301	0.09978199005126953
57	173.9488000869751	fix_pre	0		60.0	55.0	2.5	/experiments/knapen_aot/videos/S_video_inspire_oregon_portland_00064.1080-h264.mp4	0.0	249.07137608528137	0.5000839233398438
57	174.44059014320374	response	0	4		55.0	2.5	/experiments/knapen_aot/videos/S_video_inspire_oregon_portland_00064.1080-h264.mp4	0.0	249.56316614151	
57	174.44888401031494	movie	1		167.0	55.0	2.5	/experiments/knapen_aot/videos/S_video_inspire_oregon_portland_00064.1080-h264.mp4	0.0	249.57146000862122	2.508336067199707
57	176.95722007751465	fix_post	2		12.0	55.0	2.5	/experiments/knapen_aot/videos/S_video_inspire_oregon_portland_00064.1080-h264.mp4	0.0	252.07979607582092	0.10018396377563477
58	177.05740404129028	fix_pre	0		12.0	56.0	2.5	/experiments/knapen_aot/videos/R_S_yt-uT4MXm0UBJM_64.mp4	0.0	252.17998003959656	0.09973406791687012
58	177.14893698692322	response	0	4		56.0	2.5	/experiments/knapen_aot/videos/R_S_yt-uT4MXm0UBJM_64.mp4	0.0	252.2715129852295	
58	177.15713810920715	movie	1		301.0	56.0	2.5	/experiments/knapen_aot/videos/R_S_yt-uT4MXm0UBJM_64.mp4	0.0	252.27971410751343	2.508368968963623
58	179.66550707817078	fix_post	2		12.0	56.0	2.5	/experiments/knapen_aot/videos/R_S_yt-uT4MXm0UBJM_64.mp4	0.0	254.78808307647705	0.10018706321716309
59	179.76569414138794	fix_pre	0		26.0	57.0	2.5	/experiments/knapen_aot/videos/R_S_yt-Fm97IY0Z2LU_79.mp4	0.0	254.8882701396942	0.21636390686035156
59	179.97390604019165	response	0	4		57.0	2.5	/experiments/knapen_aot/videos/R_S_yt-Fm97IY0Z2LU_79.mp4	0.0	255.09648203849792	
59	179.9820580482483	movie	1		301.0	57.0	2.5	/experiments/knapen_aot/videos/R_S_yt-Fm97IY0Z2LU_79.mp4	0.0	255.10463404655457	2.5084691047668457
59	182.49052715301514	fix_post	2		12.0	57.0	2.5	/experiments/knapen_aot/videos/R_S_yt-Fm97IY0Z2LU_79.mp4	0.0	257.6131031513214	0.09996294975280762
60	182.59049010276794	fix_pre	0		32.0	58.0	2.5	/experiments/knapen_aot/videos/R_S_yt-YFl_NAWBFAw_166.mp4	0.0	257.7130661010742	0.2666299343109131
60	182.84890007972717	response	0	4		58.0	2.5	/experiments/knapen_aot/videos/R_S_yt-YFl_NAWBFAw_166.mp4	0.0	257.97147607803345	
60	182.85712003707886	movie	1		301.0	58.0	2.5	/experiments/knapen_aot/videos/R_S_yt-YFl_NAWBFAw_166.mp4	0.0	257.97969603538513	2.508316993713379
60	185.36543703079224	fix_post	2		12.0	58.0	2.5	/experiments/knapen_aot/videos/R_S_yt-YFl_NAWBFAw_166.mp4	0.0	260.4880130290985	0.10004591941833496
61	185.46548295021057	fix_pre	0		38.0	59.0	2.5	/experiments/knapen_aot/videos/S_yt-316ecr1BT84_44.mp4	0.0	260.58805894851685	0.3166201114654541
61	185.77377700805664	response	0	4		59.0	2.5	/experiments/knapen_aot/videos/S_yt-316ecr1BT84_44.mp4	0.0	260.8963530063629	
61	185.78210306167603	movie	1		301.0	59.0	2.5	/experiments/knapen_aot/videos/S_yt-316ecr1BT84_44.mp4	0.0	260.9046790599823	2.5083870887756348
61	188.29049015045166	fix_post	2		12.0	59.0	2.5	/experiments/knapen_aot/videos/S_yt-316ecr1BT84_44.mp4	0.0	263.41306614875793	0.10028600692749023
62	188.39077615737915	fix_pre	0		94.0	60.0	2.5	/experiments/knapen_aot/videos/S_yt-IigHVUksnw8_7.mp4	0.0	263.5133521556854	0.7829499244689941
62	189.15794897079468	response	0	4		60.0	2.5	/experiments/knapen_aot/videos/S_yt-IigHVUksnw8_7.mp4	0.0	264.28052496910095	
62	189.17372608184814	movie	1		301.0	60.0	2.5	/experiments/knapen_aot/videos/S_yt-IigHVUksnw8_7.mp4	0.0	264.2963020801544	2.508509874343872
62	191.68223595619202	fix_post	2		12.0	60.0	2.5	/experiments/knapen_aot/videos/S_yt-IigHVUksnw8_7.mp4	0.0	266.8048119544983	0.09990715980529785
63	191.78214311599731	fix_pre	0		36.0	61.0	2.5	/experiments/knapen_aot/videos/S_nTA7B2uHaCQ_1.mp4	0.0	266.9047191143036	0.29994893074035645
63	192.06646704673767	response	0	4		61.0	2.5	/experiments/knapen_aot/videos/S_nTA7B2uHaCQ_1.mp4	0.0	267.18904304504395	
63	192.08209204673767	movie	1		301.0	61.0	2.5	/experiments/knapen_aot/videos/S_nTA7B2uHaCQ_1.mp4	0.0	267.20466804504395	2.5083560943603516
63	194.59044814109802	fix_post	2		12.0	61.0	2.5	/experiments/knapen_aot/videos/S_nTA7B2uHaCQ_1.mp4	0.0	269.7130241394043	0.09999895095825195
64	194.69044709205627	fix_pre	0		38.0	62.0	2.5	/experiments/knapen_aot/videos/S_yt-lGQ3wMI5-Yg_140.mp4	0.0	269.81302309036255	0.3166508674621582
64	194.99890303611755	response	0	4		62.0	2.5	/experiments/knapen_aot/videos/S_yt-lGQ3wMI5-Yg_140.mp4	0.0	270.1214790344238	
64	195.00709795951843	movie	1		301.0	62.0	2.5	/experiments/knapen_aot/videos/S_yt-lGQ3wMI5-Yg_140.mp4	0.0	270.1296739578247	2.508423089981079
64	197.5155210494995	fix_post	2		12.0	62.0	2.5	/experiments/knapen_aot/videos/S_yt-lGQ3wMI5-Yg_140.mp4	0.0	272.6380970478058	0.09992313385009766
65	197.6154441833496	fix_pre	0		31.0	63.0	2.5	blank	1.0	272.7380201816559	0.2583329677581787
65	197.86562705039978	response	0	4		63.0	2.5	blank	1.0	272.98820304870605	
65	197.8737771511078	movie	1		301.0	63.0	2.5	blank	1.0	272.99635314941406	2.5083019733428955
65	200.38207912445068	fix_post	2		12.0	63.0	2.5	blank	1.0	275.50465512275696	0.10002398490905762
66	200.48210310935974	fix_pre	0		83.0	64.0	2.5	/experiments/knapen_aot/videos/R_S_ILSVRC2015_train_00457000.mp4	0.0	275.604679107666	0.6930768489837646
66	201.16556406021118	response	0	4		64.0	2.5	/experiments/knapen_aot/videos/R_S_ILSVRC2015_train_00457000.mp4	0.0	276.28814005851746	
66	201.1751799583435	movie	1		301.0	64.0	2.5	/experiments/knapen_aot/videos/R_S_ILSVRC2015_train_00457000.mp4	0.0	276.2977559566498	2.5069050788879395
66	203.68208503723145	fix_post	2		12.0	64.0	2.5	/experiments/knapen_aot/videos/R_S_ILSVRC2015_train_00457000.mp4	0.0	278.8046610355377	0.10016107559204102
67	203.7822461128235	fix_pre	0		259.0	65.0	2.5	/experiments/knapen_aot/videos/R_S_comp_GL_G002_C002_PSNK_v03_SDR_PS_20180925_SDR_2K_AVC.mp4	0.0	278.90482211112976	2.158086061477661
67	205.93221616744995	response	0	4		65.0	2.5	/experiments/knapen_aot/videos/R_S_comp_GL_G002_C002_PSNK_v03_SDR_PS_20180925_SDR_2K_AVC.mp4	0.0	281.0547921657562	
67	205.94033217430115	movie	1		165.0	65.0	2.5	/experiments/knapen_aot/videos/R_S_comp_GL_G002_C002_PSNK_v03_SDR_PS_20180925_SDR_2K_AVC.mp4	0.0	281.0629081726074	2.508391857147217
67	208.44872403144836	fix_post	2		12.0	65.0	2.5	/experiments/knapen_aot/videos/R_S_comp_GL_G002_C002_PSNK_v03_SDR_PS_20180925_SDR_2K_AVC.mp4	0.0	283.57130002975464	0.09996700286865234
68	208.54869103431702	fix_pre	0		39.0	66.0	2.5	/experiments/knapen_aot/videos/S_yt-O6FS0xnF0CU_106.mp4	0.0	283.6712670326233	0.3249819278717041
68	208.86548113822937	response	0	4		66.0	2.5	/experiments/knapen_aot/videos/S_yt-O6FS0xnF0CU_106.mp4	0.0	283.98805713653564	
68	208.87367296218872	movie	1		301.0	66.0	2.5	/experiments/knapen_aot/videos/S_yt-O6FS0xnF0CU_106.mp4	0.0	283.996248960495	2.508336067199707
68	210.96683812141418	response	1	4		66.0	2.5	/experiments/knapen_aot/videos/S_yt-O6FS0xnF0CU_106.mp4	0.0	286.08941411972046	
68	211.38200902938843	fix_post	2		12.0	66.0	2.5	/experiments/knapen_aot/videos/S_yt-O6FS0xnF0CU_106.mp4	0.0	286.5045850276947	0.10002803802490234
69	211.48203706741333	fix_pre	0		35.0	67.0	2.5	/experiments/knapen_aot/videos/R_S_ILSVRC2015_train_00638000.mp4	0.0	286.6046130657196	0.2915821075439453
69	211.76547408103943	response	0	4		67.0	2.5	/experiments/knapen_aot/videos/R_S_ILSVRC2015_train_00638000.mp4	0.0	286.8880500793457	
69	211.77361917495728	movie	1		301.0	67.0	2.5	/experiments/knapen_aot/videos/R_S_ILSVRC2015_train_00638000.mp4	0.0	286.89619517326355	2.508600950241089
69	212.74042201042175	response	1	4		67.0	2.5	/experiments/knapen_aot/videos/R_S_ILSVRC2015_train_00638000.mp4	0.0	287.862998008728	
69	213.7404270172119	response	1	4		67.0	2.5	/experiments/knapen_aot/videos/R_S_ILSVRC2015_train_00638000.mp4	0.0	288.8630030155182	
69	214.28222012519836	fix_post	2		12.0	67.0	2.5	/experiments/knapen_aot/videos/R_S_ILSVRC2015_train_00638000.mp4	0.0	289.40479612350464	0.0997779369354248
70	214.3819980621338	fix_pre	0		29.0	68.0	2.5	/experiments/knapen_aot/videos/R_S_flickr-evananderica-2662125519_8.mp4	0.0	289.50457406044006	0.24159502983093262
70	214.61550116539001	response	0	4		68.0	2.5	/experiments/knapen_aot/videos/R_S_flickr-evananderica-2662125519_8.mp4	0.0	289.7380771636963	
70	214.62359309196472	movie	1		301.0	68.0	2.5	/experiments/knapen_aot/videos/R_S_flickr-evananderica-2662125519_8.mp4	0.0	289.746169090271	2.508413076400757
70	217.13200616836548	fix_post	2		12.0	68.0	2.5	/experiments/knapen_aot/videos/R_S_flickr-evananderica-2662125519_8.mp4	0.0	292.25458216667175	0.10028195381164551
71	217.23228812217712	fix_pre	0		42.0	69.0	2.5	/experiments/knapen_aot/videos/S_X-D3lUv-atE_376.mp4	0.0	292.3548641204834	0.3496429920196533
71	217.5737030506134	response	0	4		69.0	2.5	/experiments/knapen_aot/videos/S_X-D3lUv-atE_376.mp4	0.0	292.6962790489197	
71	217.58193111419678	movie	1		301.0	69.0	2.5	/experiments/knapen_aot/videos/S_X-D3lUv-atE_376.mp4	0.0	292.70450711250305	2.5084240436553955
71	220.09035515785217	fix_post	2		12.0	69.0	2.5	/experiments/knapen_aot/videos/S_X-D3lUv-atE_376.mp4	0.0	295.21293115615845	0.09994101524353027
72	220.1902961730957	fix_pre	0		30.0	70.0	2.5	blank	1.0	295.312872171402	0.25001096725463867
72	220.43206214904785	response	0	4		70.0	2.5	blank	1.0	295.5546381473541	
72	220.44030714035034	movie	1		301.0	70.0	2.5	blank	1.0	295.5628831386566	2.508330821990967
72	221.63207006454468	response	1	4		70.0	2.5	blank	1.0	296.75464606285095	
72	222.78205800056458	response	1	4		70.0	2.5	blank	1.0	297.90463399887085	
72	222.9486379623413	fix_post	2		12.0	70.0	2.5	blank	1.0	298.0712139606476	0.09997820854187012
73	223.04861617088318	fix_pre	0		38.0	71.0	2.5	/experiments/knapen_aot/videos/R_S_yt-7W50lcw5FCo_37.mp4	0.0	298.17119216918945	0.3166489601135254
73	223.34951615333557	response	0	4		71.0	2.5	/experiments/knapen_aot/videos/R_S_yt-7W50lcw5FCo_37.mp4	0.0	298.47209215164185	
73	223.3652651309967	movie	1		301.0	71.0	2.5	/experiments/knapen_aot/videos/R_S_yt-7W50lcw5FCo_37.mp4	0.0	298.487841129303	2.508302927017212
73	225.87356805801392	fix_post	2		12.0	71.0	2.5	/experiments/knapen_aot/videos/R_S_yt-7W50lcw5FCo_37.mp4	0.0	300.9961440563202	0.10007095336914062
74	225.97363901138306	fix_pre	0		20.0	72.0	2.5	/experiments/knapen_aot/videos/R_S_yt-lfDIg8kaXhA_169.mp4	0.0	301.09621500968933	0.16661715507507324
74	226.13208198547363	response	0	4		72.0	2.5	/experiments/knapen_aot/videos/R_S_yt-lfDIg8kaXhA_169.mp4	0.0	301.2546579837799	
74	226.14025616645813	movie	1		301.0	72.0	2.5	/experiments/knapen_aot/videos/R_S_yt-lfDIg8kaXhA_169.mp4	0.0	301.2628321647644	2.508551836013794
74	228.64880800247192	fix_post	2		12.0	72.0	2.5	/experiments/knapen_aot/videos/R_S_yt-lfDIg8kaXhA_169.mp4	0.0	303.7713840007782	0.09975099563598633
75	228.7485589981079	fix_pre	0		27.0	73.0	2.5	/experiments/knapen_aot/videos/S_yt-XRQ_LSGGr3Y_712.mp4	0.0	303.8711349964142	0.22499895095825195
75	228.9654040336609	response	0	4		73.0	2.5	/experiments/knapen_aot/videos/S_yt-XRQ_LSGGr3Y_712.mp4	0.0	304.08798003196716	
75	228.97355794906616	movie	1		301.0	73.0	2.5	/experiments/knapen_aot/videos/S_yt-XRQ_LSGGr3Y_712.mp4	0.0	304.09613394737244	2.508338212966919
75	230.28208208084106	response	1	4		73.0	2.5	/experiments/knapen_aot/videos/S_yt-XRQ_LSGGr3Y_712.mp4	0.0	305.40465807914734	
75	231.48189616203308	fix_post	2		12.0	73.0	2.5	/experiments/knapen_aot/videos/S_yt-XRQ_LSGGr3Y_712.mp4	0.0	306.60447216033936	0.1000828742980957
76	231.58197903633118	fix_pre	0		69.0	74.0	2.5	/experiments/knapen_aot/videos/R_S_BO_A018_C029_SDR_20190812_SDR_2K_AVC.mp4	0.0	306.70455503463745	0.5749070644378662
76	232.14865708351135	response	0	4		74.0	2.5	/experiments/knapen_aot/videos/R_S_BO_A018_C029_SDR_20190812_SDR_2K_AVC.mp4	0.0	307.2712330818176	
76	232.15688610076904	movie	1		170.0	74.0	2.5	/experiments/knapen_aot/videos/R_S_BO_A018_C029_SDR_20190812_SDR_2K_AVC.mp4	0.0	307.2794620990753	2.5083959102630615
76	234.6652820110321	fix_post	2		12.0	74.0	2.5	/experiments/knapen_aot/videos/R_S_BO_A018_C029_SDR_20190812_SDR_2K_AVC.mp4	0.0	309.7878580093384	0.09994196891784668
77	234.76522397994995	fix_pre	0		10.0	75.0	2.5	/experiments/knapen_aot/videos/S_comp_GMT060_117NC_363D_1034_AUSTRALIA_v35_SDR_PS_FINAL_20180731_SDR_2K_AVC.mp4	0.0	309.8877999782562	0.0833730697631836
77	234.8403241634369	response	0	4		75.0	2.5	/experiments/knapen_aot/videos/S_comp_GMT060_117NC_363D_1034_AUSTRALIA_v35_SDR_PS_FINAL_20180731_SDR_2K_AVC.mp4	0.0	309.96290016174316	
77	234.84859704971313	movie	1		166.0	75.0	2.5	/experiments/knapen_aot/videos/S_comp_GMT060_117NC_363D_1034_AUSTRALIA_v35_SDR_PS_FINAL_20180731_SDR_2K_AVC.mp4	0.0	309.9711730480194	2.508500099182129
77	237.35709714889526	fix_post	2		12.0	75.0	2.5	/experiments/knapen_aot/videos/S_comp_GMT060_117NC_363D_1034_AUSTRALIA_v35_SDR_PS_FINAL_20180731_SDR_2K_AVC.mp4	0.0	312.47967314720154	0.10013794898986816
78	237.45723509788513	fix_pre	0		18.0	76.0	2.5	blank	1.0	312.5798110961914	0.1495680809020996
78	237.59867000579834	response	0	4		76.0	2.5	blank	1.0	312.7212460041046	
78	237.60680317878723	movie	1		301.0	76.0	2.5	blank	1.0	312.7293791770935	2.508363962173462
78	240.1151671409607	fix_post	2		12.0	76.0	2.5	blank	1.0	315.23774313926697	0.10007381439208984
79	240.21524095535278	fix_pre	0		37.0	77.0	2.5	/experiments/knapen_aot/videos/R_S_yt-DmlSN7mzczI_62.mp4	0.0	315.33781695365906	0.30825209617614746
79	240.51527905464172	response	0	4		77.0	2.5	/experiments/knapen_aot/videos/R_S_yt-DmlSN7mzczI_62.mp4	0.0	315.637855052948	
79	240.52349305152893	movie	1		301.0	77.0	2.5	/experiments/knapen_aot/videos/R_S_yt-DmlSN7mzczI_62.mp4	0.0	315.6460690498352	2.5083889961242676
79	242.8569791316986	response	1	4		77.0	2.5	/experiments/knapen_aot/videos/R_S_yt-DmlSN7mzczI_62.mp4	0.0	317.9795551300049	
79	243.0318820476532	fix_post	2		12.0	77.0	2.5	/experiments/knapen_aot/videos/R_S_yt-DmlSN7mzczI_62.mp4	0.0	318.1544580459595	0.10000491142272949
80	243.13188695907593	fix_pre	0		36.0	78.0	2.5	/experiments/knapen_aot/videos/S_wc-6or3Gl2Fif0m_13.mp4	0.0	318.2544629573822	0.299854040145874
80	243.42360615730286	response	0	4		78.0	2.5	/experiments/knapen_aot/videos/S_wc-6or3Gl2Fif0m_13.mp4	0.0	318.54618215560913	
80	243.4317409992218	movie	1		181.0	78.0	2.5	/experiments/knapen_aot/videos/S_wc-6or3Gl2Fif0m_13.mp4	0.0	318.5543169975281	2.508488178253174
80	244.698646068573	response	1	4		78.0	2.5	/experiments/knapen_aot/videos/S_wc-6or3Gl2Fif0m_13.mp4	0.0	319.8212220668793	
80	245.48934602737427	response	1	4		78.0	2.5	/experiments/knapen_aot/videos/S_wc-6or3Gl2Fif0m_13.mp4	0.0	320.61192202568054	
80	245.94022917747498	fix_post	2		12.0	78.0	2.5	/experiments/knapen_aot/videos/S_wc-6or3Gl2Fif0m_13.mp4	0.0	321.06280517578125	0.09995579719543457
81	246.0401849746704	fix_pre	0		19.0	79.0	2.5	/experiments/knapen_aot/videos/R_S_yt-PyO8-WsbaLU_43.mp4	0.0	321.1627609729767	0.15822815895080566
81	246.19032907485962	response	0	4		79.0	2.5	/experiments/knapen_aot/videos/R_S_yt-PyO8-WsbaLU_43.mp4	0.0	321.3129050731659	
81	246.19841313362122	movie	1		301.0	79.0	2.5	/experiments/knapen_aot/videos/R_S_yt-PyO8-WsbaLU_43.mp4	0.0	321.3209891319275	2.5083978176116943
81	246.7238531112671	response	1	4		79.0	2.5	/experiments/knapen_aot/videos/R_S_yt-PyO8-WsbaLU_43.mp4	0.0	321.84642910957336	
81	248.7068109512329	fix_post	2		12.0	79.0	2.5	/experiments/knapen_aot/videos/R_S_yt-PyO8-WsbaLU_43.mp4	0.0	323.8293869495392	0.10001206398010254
82	248.806823015213	fix_pre	0		6.0	80.0	2.5	/experiments/knapen_aot/videos/S_ILSVRC2015_train_00638000.mp4	0.0	323.9293990135193	0.04993104934692383
82	248.8486030101776	response	0	4		80.0	2.5	/experiments/knapen_aot/videos/S_ILSVRC2015_train_00638000.mp4	0.0	323.9711790084839	
82	248.85675406455994	movie	1		301.0	80.0	2.5	/experiments/knapen_aot/videos/S_ILSVRC2015_train_00638000.mp4	0.0	323.9793300628662	2.5084140300750732
82	251.365168094635	fix_post	2		12.0	80.0	2.5	/experiments/knapen_aot/videos/S_ILSVRC2015_train_00638000.mp4	0.0	326.4877440929413	0.09997892379760742
83	251.46514701843262	fix_pre	0		28.0	81.0	2.5	/experiments/knapen_aot/videos/R_S_flickr-53807584@N00-5565833509_7.mp4	0.0	326.5877230167389	0.23324799537658691
83	251.68274807929993	response	0	4		81.0	2.5	/experiments/knapen_aot/videos/R_S_flickr-53807584@N00-5565833509_7.mp4	0.0	326.8053240776062	
83	251.6983950138092	movie	1		301.0	81.0	2.5	/experiments/knapen_aot/videos/R_S_flickr-53807584@N00-5565833509_7.mp4	0.0	326.8209710121155	2.5083539485931396
83	254.20674896240234	fix_post	2		12.0	81.0	2.5	/experiments/knapen_aot/videos/R_S_flickr-53807584@N00-5565833509_7.mp4	0.0	329.3293249607086	0.10005617141723633
84	254.30680513381958	fix_pre	0		50.0	82.0	2.5	/experiments/knapen_aot/videos/S_yt-XtzmBXKYEWk_60.mp4	0.0	329.42938113212585	0.41664695739746094
84	254.71527814865112	response	0	4		82.0	2.5	/experiments/knapen_aot/videos/S_yt-XtzmBXKYEWk_60.mp4	0.0	329.8378541469574	
84	254.72345209121704	movie	1		301.0	82.0	2.5	/experiments/knapen_aot/videos/S_yt-XtzmBXKYEWk_60.mp4	0.0	329.8460280895233	2.508333921432495
84	257.23178601264954	fix_post	2		12.0	82.0	2.5	/experiments/knapen_aot/videos/S_yt-XtzmBXKYEWk_60.mp4	0.0	332.3543620109558	0.10012102127075195
85	257.3319070339203	fix_pre	0		62.0	83.0	2.5	blank	1.0	332.45448303222656	0.5164699554443359
85	257.8402271270752	response	0	4		83.0	2.5	blank	1.0	332.96280312538147	
85	257.8483769893646	movie	1		301.0	83.0	2.5	blank	1.0	332.9709529876709	2.508315086364746
85	260.35669207572937	fix_post	2		12.0	83.0	2.5	blank	1.0	335.47926807403564	0.10015201568603516
87	260.4568440914154	stim	0		446.0					335.5794200897217	3.7175750732421875
87	260.70680117607117	response	0	4						335.82937717437744	
87	264.16261315345764	response	0	space						339.2851891517639	
