trial_nr	onset	event_type	phase	response	nr_frames	movie_index	movie_duration	movie_file	blank	onset_abs	duration
0	0.15265703201293945	stim	0		18.0					96.47003293037415	0.14644408226013184
0	0.29081296920776367	response	0	space						96.60818886756897	
1	0.2991011142730713	stim	0		121.0					96.61647701263428	1.0083329677581787
1	1.30743408203125	stim	1		120.0					97.62480998039246	0.9996669292449951
1	1.5574920177459717	response	1	space						97.87486791610718	
2	2.307101011276245	fix_pre	0		1.0	0.0	2.5	/experiments/knapen_aot/videos/S_yt-OrTpetjDNKs_31.mp4	0.0	98.62447690963745	0.012016057968139648
2	2.3110458850860596	response	0	space		0.0	2.5	/experiments/knapen_aot/videos/S_yt-OrTpetjDNKs_31.mp4	0.0	98.62842178344727	
2	2.3191170692443848	movie	1		299.0	0.0	2.5	/experiments/knapen_aot/videos/S_yt-OrTpetjDNKs_31.mp4	0.0	98.63649296760559	2.504619836807251
2	4.823736906051636	fix_post	2		12.0	0.0	2.5	/experiments/knapen_aot/videos/S_yt-OrTpetjDNKs_31.mp4	0.0	101.14111280441284	0.10003018379211426
3	4.92376708984375	fix_pre	0		50.0	1.0	2.5	/experiments/knapen_aot/videos/R_S_meta-11482036_235.mp4	0.0	101.24114298820496	0.41663193702697754
3	5.333456993103027	response	0	2		1.0	2.5	/experiments/knapen_aot/videos/R_S_meta-11482036_235.mp4	0.0	101.65083289146423	
3	5.3403990268707275	movie	1		300.0	1.0	2.5	/experiments/knapen_aot/videos/R_S_meta-11482036_235.mp4	0.0	101.65777492523193	2.508362054824829
3	7.848761081695557	fix_post	2		12.0	1.0	2.5	/experiments/knapen_aot/videos/R_S_meta-11482036_235.mp4	0.0	104.16613698005676	0.09999895095825195
4	7.948760032653809	fix_pre	0		3.0	2.0	2.5	/experiments/knapen_aot/videos/R_S_yt-_HuBzj8EPBc_62.mp4	0.0	104.26613593101501	0.024971961975097656
4	7.965518951416016	response	0	2		2.0	2.5	/experiments/knapen_aot/videos/R_S_yt-_HuBzj8EPBc_62.mp4	0.0	104.28289484977722	
4	7.973731994628906	movie	1		301.0	2.0	2.5	/experiments/knapen_aot/videos/R_S_yt-_HuBzj8EPBc_62.mp4	0.0	104.29110789299011	2.508347988128662
4	10.482079982757568	fix_post	2		12.0	2.0	2.5	/experiments/knapen_aot/videos/R_S_yt-_HuBzj8EPBc_62.mp4	0.0	106.79945588111877	0.1008291244506836
5	10.582909107208252	fix_pre	0		16.0	3.0	2.5	/experiments/knapen_aot/videos/S_EFR8AteY59I_15.mp4	0.0	106.90028500556946	0.13249778747558594
5	10.70718789100647	response	0	2		3.0	2.5	/experiments/knapen_aot/videos/S_EFR8AteY59I_15.mp4	0.0	107.02456378936768	
5	10.715406894683838	movie	1		301.0	3.0	2.5	/experiments/knapen_aot/videos/S_EFR8AteY59I_15.mp4	0.0	107.03278279304504	2.5083370208740234
5	13.223743915557861	fix_post	2		12.0	3.0	2.5	/experiments/knapen_aot/videos/S_EFR8AteY59I_15.mp4	0.0	109.54111981391907	0.0999150276184082
6	13.32365894317627	fix_pre	0		9.0	4.0	2.5	/experiments/knapen_aot/videos/R_S_yt-zydTlQGCUjQ_277.mp4	0.0	109.64103484153748	0.07504796981811523
6	13.39082407951355	response	0	2		4.0	2.5	/experiments/knapen_aot/videos/R_S_yt-zydTlQGCUjQ_277.mp4	0.0	109.70819997787476	
6	13.398706912994385	movie	1		301.0	4.0	2.5	/experiments/knapen_aot/videos/R_S_yt-zydTlQGCUjQ_277.mp4	0.0	109.71608281135559	2.5082340240478516
6	15.906940937042236	fix_post	2		12.0	4.0	2.5	/experiments/knapen_aot/videos/R_S_yt-zydTlQGCUjQ_277.mp4	0.0	112.22431683540344	0.10006403923034668
7	16.007004976272583	fix_pre	0		1.0	5.0	2.5	blank	1.0	112.32438087463379	0.008378028869628906
7	16.008755922317505	response	0	2		5.0	2.5	blank	1.0	112.32613182067871	
7	16.015383005142212	movie	1		301.0	5.0	2.5	blank	1.0	112.33275890350342	2.5084259510040283
7	18.52380895614624	fix_post	2		12.0	5.0	2.5	blank	1.0	114.84118485450745	0.09990596771240234
8	18.623714923858643	fix_pre	0		48.0	6.0	2.5	/experiments/knapen_aot/videos/S_DL_B002_C011_SDR_20191122_SDR_2K_AVC.mp4	0.0	114.94109082221985	0.39995813369750977
8	19.015486001968384	response	0	2		6.0	2.5	/experiments/knapen_aot/videos/S_DL_B002_C011_SDR_20191122_SDR_2K_AVC.mp4	0.0	115.33286190032959	
8	19.023673057556152	movie	1		168.0	6.0	2.5	/experiments/knapen_aot/videos/S_DL_B002_C011_SDR_20191122_SDR_2K_AVC.mp4	0.0	115.34104895591736	2.5083398818969727
8	21.532012939453125	fix_post	2		12.0	6.0	2.5	/experiments/knapen_aot/videos/S_DL_B002_C011_SDR_20191122_SDR_2K_AVC.mp4	0.0	117.84938883781433	0.10004305839538574
9	21.63205599784851	fix_pre	0		21.0	7.0	2.5	/experiments/knapen_aot/videos/S_yt-9Ow95khYa_M_91.mp4	0.0	117.94943189620972	0.1749401092529297
9	21.798866987228394	response	0	2		7.0	2.5	/experiments/knapen_aot/videos/S_yt-9Ow95khYa_M_91.mp4	0.0	118.1162428855896	
9	21.80699610710144	movie	1		301.0	7.0	2.5	/experiments/knapen_aot/videos/S_yt-9Ow95khYa_M_91.mp4	0.0	118.12437200546265	2.5083489418029785
9	24.31534504890442	fix_post	2		12.0	7.0	2.5	/experiments/knapen_aot/videos/S_yt-9Ow95khYa_M_91.mp4	0.0	120.63272094726562	0.09993600845336914
10	24.415281057357788	fix_pre	0		11.0	8.0	2.5	/experiments/knapen_aot/videos/S_yt-K-iCphzt_RE_17.mp4	0.0	120.732656955719	0.09164905548095703
10	24.498761892318726	response	0	2		8.0	2.5	/experiments/knapen_aot/videos/S_yt-K-iCphzt_RE_17.mp4	0.0	120.81613779067993	
10	24.506930112838745	movie	1		301.0	8.0	2.5	/experiments/knapen_aot/videos/S_yt-K-iCphzt_RE_17.mp4	0.0	120.82430601119995	2.508331775665283
10	27.01526188850403	fix_post	2		12.0	8.0	2.5	/experiments/knapen_aot/videos/S_yt-K-iCphzt_RE_17.mp4	0.0	123.33263778686523	0.10007619857788086
11	27.11533808708191	fix_pre	0		28.0	9.0	2.5	/experiments/knapen_aot/videos/R_S_yt-tqxZlasEvZA_43.mp4	0.0	123.43271398544312	0.23332786560058594
11	27.34048104286194	response	0	2		9.0	2.5	/experiments/knapen_aot/videos/R_S_yt-tqxZlasEvZA_43.mp4	0.0	123.65785694122314	
11	27.348665952682495	movie	1		301.0	9.0	2.5	/experiments/knapen_aot/videos/R_S_yt-tqxZlasEvZA_43.mp4	0.0	123.6660418510437	2.5082199573516846
11	29.85688591003418	fix_post	2		12.0	9.0	2.5	/experiments/knapen_aot/videos/R_S_yt-tqxZlasEvZA_43.mp4	0.0	126.17426180839539	0.10008406639099121
12	29.95696997642517	fix_pre	0		10.0	10.0	2.5	/experiments/knapen_aot/videos/S_yt-VJ65ukWmdxQ_193.mp4	0.0	126.27434587478638	0.08400106430053711
12	30.032124996185303	response	0	2		10.0	2.5	/experiments/knapen_aot/videos/S_yt-VJ65ukWmdxQ_193.mp4	0.0	126.34950089454651	
12	30.040971040725708	movie	1		301.0	10.0	2.5	/experiments/knapen_aot/videos/S_yt-VJ65ukWmdxQ_193.mp4	0.0	126.35834693908691	2.507567882537842
12	32.54853892326355	fix_post	2		12.0	10.0	2.5	/experiments/knapen_aot/videos/S_yt-VJ65ukWmdxQ_193.mp4	0.0	128.86591482162476	0.10011696815490723
13	32.64865589141846	fix_pre	0		10.0	11.0	2.5	/experiments/knapen_aot/videos/R_S_pexels-roman-odintsov-8233166.mp4	0.0	128.96603178977966	0.08327412605285645
13	32.72370791435242	response	0	2		11.0	2.5	/experiments/knapen_aot/videos/R_S_pexels-roman-odintsov-8233166.mp4	0.0	129.04108381271362	
13	32.73193001747131	movie	1		195.0	11.0	2.5	/experiments/knapen_aot/videos/R_S_pexels-roman-odintsov-8233166.mp4	0.0	129.04930591583252	2.508302927017212
13	35.240232944488525	fix_post	2		12.0	11.0	2.5	/experiments/knapen_aot/videos/R_S_pexels-roman-odintsov-8233166.mp4	0.0	131.55760884284973	0.10006308555603027
14	35.340296030044556	fix_pre	0		9.0	12.0	2.5	blank	1.0	131.65767192840576	0.07570791244506836
14	35.407130002975464	response	0	2		12.0	2.5	blank	1.0	131.72450590133667	
14	35.416003942489624	movie	1		301.0	12.0	2.5	blank	1.0	131.73337984085083	2.5075950622558594
14	37.92359900474548	fix_post	2		12.0	12.0	2.5	blank	1.0	134.2409749031067	0.10002708435058594
15	38.02362608909607	fix_pre	0		12.0	13.0	2.5	/experiments/knapen_aot/videos/S_comp_H005_C012_PS_v01_SDR_PS_20180925_SDR_2K_AVC.mp4	0.0	134.34100198745728	0.1006009578704834
15	38.11537790298462	response	0	2		13.0	2.5	/experiments/knapen_aot/videos/S_comp_H005_C012_PS_v01_SDR_PS_20180925_SDR_2K_AVC.mp4	0.0	134.43275380134583	
15	38.12422704696655	movie	1		168.0	13.0	2.5	/experiments/knapen_aot/videos/S_comp_H005_C012_PS_v01_SDR_PS_20180925_SDR_2K_AVC.mp4	0.0	134.44160294532776	2.50780987739563
15	40.63203692436218	fix_post	2		12.0	13.0	2.5	/experiments/knapen_aot/videos/S_comp_H005_C012_PS_v01_SDR_PS_20180925_SDR_2K_AVC.mp4	0.0	136.9494128227234	0.0999000072479248
16	40.73193693161011	fix_pre	0		1.0	14.0	2.5	/experiments/knapen_aot/videos/R_S_yt-ebylvieB_4g_16.mp4	0.0	137.0493128299713	0.010429143905639648
16	40.733723878860474	response	0	2		14.0	2.5	/experiments/knapen_aot/videos/R_S_yt-ebylvieB_4g_16.mp4	0.0	137.05109977722168	
16	40.74236607551575	movie	1		301.0	14.0	2.5	/experiments/knapen_aot/videos/R_S_yt-ebylvieB_4g_16.mp4	0.0	137.05974197387695	2.506220817565918
16	43.248586893081665	fix_post	2		12.0	14.0	2.5	/experiments/knapen_aot/videos/R_S_yt-ebylvieB_4g_16.mp4	0.0	139.56596279144287	0.09989118576049805
17	43.34847807884216	fix_pre	0		6.0	15.0	2.5	/experiments/knapen_aot/videos/S_ILSVRC2015_train_00594001.mp4	0.0	139.66585397720337	0.0501399040222168
17	43.39041090011597	response	0	2		15.0	2.5	/experiments/knapen_aot/videos/S_ILSVRC2015_train_00594001.mp4	0.0	139.70778679847717	
17	43.39861798286438	movie	1		301.0	15.0	2.5	/experiments/knapen_aot/videos/S_ILSVRC2015_train_00594001.mp4	0.0	139.7159938812256	2.508305072784424
17	45.906923055648804	fix_post	2		12.0	15.0	2.5	/experiments/knapen_aot/videos/S_ILSVRC2015_train_00594001.mp4	0.0	142.22429895401	0.09989404678344727
18	46.00681710243225	fix_pre	0		11.0	16.0	2.5	/experiments/knapen_aot/videos/R_S_yt-2cwARrUMj40_67.mp4	0.0	142.32419300079346	0.09173178672790527
18	46.08283495903015	response	0	2		16.0	2.5	/experiments/knapen_aot/videos/R_S_yt-2cwARrUMj40_67.mp4	0.0	142.40021085739136	
18	46.098548889160156	movie	1		301.0	16.0	2.5	/experiments/knapen_aot/videos/R_S_yt-2cwARrUMj40_67.mp4	0.0	142.41592478752136	2.508324146270752
18	48.60687303543091	fix_post	2		12.0	16.0	2.5	/experiments/knapen_aot/videos/R_S_yt-2cwARrUMj40_67.mp4	0.0	144.92424893379211	0.10004591941833496
19	48.70691895484924	fix_pre	0		13.0	17.0	2.5	/experiments/knapen_aot/videos/S_X-D3lUv-atE_376.mp4	0.0	145.02429485321045	0.11659097671508789
19	48.815311908721924	response	0	2		17.0	2.5	/experiments/knapen_aot/videos/S_X-D3lUv-atE_376.mp4	0.0	145.13268780708313	
19	48.82350993156433	movie	1		301.0	17.0	2.5	/experiments/knapen_aot/videos/S_X-D3lUv-atE_376.mp4	0.0	145.14088582992554	2.5084240436553955
19	51.33193397521973	fix_post	2		12.0	17.0	2.5	/experiments/knapen_aot/videos/S_X-D3lUv-atE_376.mp4	0.0	147.64930987358093	0.09995412826538086
20	51.43188810348511	fix_pre	0		13.0	18.0	2.5	/experiments/knapen_aot/videos/R_S_yt-qjg6kRxNXK8_217.mp4	0.0	147.7492640018463	0.10886478424072266
20	51.53205704689026	response	0	2		18.0	2.5	/experiments/knapen_aot/videos/R_S_yt-qjg6kRxNXK8_217.mp4	0.0	147.84943294525146	
20	51.54075288772583	movie	1		301.0	18.0	2.5	/experiments/knapen_aot/videos/R_S_yt-qjg6kRxNXK8_217.mp4	0.0	147.85812878608704	2.507758140563965
20	54.048511028289795	fix_post	2		12.0	18.0	2.5	/experiments/knapen_aot/videos/R_S_yt-qjg6kRxNXK8_217.mp4	0.0	150.365886926651	0.09999299049377441
21	54.14850401878357	fix_pre	0		9.0	19.0	2.5	/experiments/knapen_aot/videos/R_S_wc-16LozRfhUGea_49.mp4	0.0	150.46587991714478	0.0750420093536377
21	54.20790910720825	response	0	2		19.0	2.5	/experiments/knapen_aot/videos/R_S_wc-16LozRfhUGea_49.mp4	0.0	150.52528500556946	
21	54.22354602813721	movie	1		300.0	19.0	2.5	/experiments/knapen_aot/videos/R_S_wc-16LozRfhUGea_49.mp4	0.0	150.5409219264984	2.5083389282226562
21	56.73188495635986	fix_post	2		12.0	19.0	2.5	/experiments/knapen_aot/videos/R_S_wc-16LozRfhUGea_49.mp4	0.0	153.04926085472107	0.10080695152282715
22	56.83269190788269	fix_pre	0		6.0	20.0	2.5	/experiments/knapen_aot/videos/S_yt-ZTAaH5XbtfE_3.mp4	0.0	153.1500678062439	0.049154043197631836
22	56.87438893318176	response	0	2		20.0	2.5	/experiments/knapen_aot/videos/S_yt-ZTAaH5XbtfE_3.mp4	0.0	153.19176483154297	
22	56.88184595108032	movie	1		300.0	20.0	2.5	/experiments/knapen_aot/videos/S_yt-ZTAaH5XbtfE_3.mp4	0.0	153.19922184944153	2.5083510875701904
22	59.39019703865051	fix_post	2		12.0	20.0	2.5	/experiments/knapen_aot/videos/S_yt-ZTAaH5XbtfE_3.mp4	0.0	155.70757293701172	0.10002589225769043
23	59.4902229309082	fix_pre	0		10.0	21.0	2.5	blank	1.0	155.8075988292694	0.08331799507141113
23	59.55790090560913	response	0	2		21.0	2.5	blank	1.0	155.87527680397034	
23	59.573540925979614	movie	1		301.0	21.0	2.5	blank	1.0	155.89091682434082	2.5082550048828125
23	62.08179593086243	fix_post	2		12.0	21.0	2.5	blank	1.0	158.39917182922363	0.10000205039978027
24	62.18179798126221	fix_pre	0		27.0	22.0	2.5	/experiments/knapen_aot/videos/R_S_yt-cM5PvgE7aJs_243.mp4	0.0	158.4991738796234	0.2249619960784912
24	62.39860200881958	response	0	2		22.0	2.5	/experiments/knapen_aot/videos/R_S_yt-cM5PvgE7aJs_243.mp4	0.0	158.7159779071808	
24	62.4067599773407	movie	1		301.0	22.0	2.5	/experiments/knapen_aot/videos/R_S_yt-cM5PvgE7aJs_243.mp4	0.0	158.7241358757019	2.508409023284912
24	64.91516900062561	fix_post	2		12.0	22.0	2.5	/experiments/knapen_aot/videos/R_S_yt-cM5PvgE7aJs_243.mp4	0.0	161.23254489898682	0.09997701644897461
24	65.00702404975891	response	2	2		22.0	2.5	/experiments/knapen_aot/videos/R_S_yt-cM5PvgE7aJs_243.mp4	0.0	161.32439994812012	
25	65.01514601707458	fix_pre	0		36.0	23.0	2.5	/experiments/knapen_aot/videos/R_S_ILSVRC2015_train_00415003.mp4	0.0	161.3325219154358	0.30002689361572266
25	65.30699396133423	response	0	2		23.0	2.5	/experiments/knapen_aot/videos/R_S_ILSVRC2015_train_00415003.mp4	0.0	161.62436985969543	
25	65.31517291069031	movie	1		301.0	23.0	2.5	/experiments/knapen_aot/videos/R_S_ILSVRC2015_train_00415003.mp4	0.0	161.6325488090515	2.5083541870117188
25	67.82352709770203	fix_post	2		12.0	23.0	2.5	/experiments/knapen_aot/videos/R_S_ILSVRC2015_train_00415003.mp4	0.0	164.14090299606323	0.09992480278015137
26	67.92345190048218	fix_pre	0		5.0	24.0	2.5	/experiments/knapen_aot/videos/R_S_P001_C005_UHD_SDR_2K_AVC.mp4	0.0	164.24082779884338	0.04171109199523926
26	67.95698404312134	response	0	2		24.0	2.5	/experiments/knapen_aot/videos/R_S_P001_C005_UHD_SDR_2K_AVC.mp4	0.0	164.27435994148254	
26	67.96516299247742	movie	1		170.0	24.0	2.5	/experiments/knapen_aot/videos/R_S_P001_C005_UHD_SDR_2K_AVC.mp4	0.0	164.28253889083862	2.5082900524139404
26	70.47345304489136	fix_post	2		12.0	24.0	2.5	/experiments/knapen_aot/videos/R_S_P001_C005_UHD_SDR_2K_AVC.mp4	0.0	166.79082894325256	0.10000085830688477
27	70.57345390319824	fix_pre	0		8.0	25.0	2.5	/experiments/knapen_aot/videos/S_yt-ZYrQIw9VUok_111.mp4	0.0	166.89082980155945	0.06666302680969238
27	70.63201189041138	response	0	2		25.0	2.5	/experiments/knapen_aot/videos/S_yt-ZYrQIw9VUok_111.mp4	0.0	166.94938778877258	
27	70.64011693000793	movie	1		301.0	25.0	2.5	/experiments/knapen_aot/videos/S_yt-ZYrQIw9VUok_111.mp4	0.0	166.95749282836914	2.5084309577941895
27	73.14854788780212	fix_post	2		12.0	25.0	2.5	/experiments/knapen_aot/videos/S_yt-ZYrQIw9VUok_111.mp4	0.0	169.46592378616333	0.10044717788696289
28	73.24899506568909	fix_pre	0		16.0	26.0	2.5	/experiments/knapen_aot/videos/S_ILSVRC2015_train_00761000.mp4	0.0	169.5663709640503	0.13280797004699707
28	73.36611795425415	response	0	2		26.0	2.5	/experiments/knapen_aot/videos/S_ILSVRC2015_train_00761000.mp4	0.0	169.68349385261536	
28	73.38180303573608	movie	1		301.0	26.0	2.5	/experiments/knapen_aot/videos/S_ILSVRC2015_train_00761000.mp4	0.0	169.6991789340973	2.508349895477295
28	75.89015293121338	fix_post	2		12.0	26.0	2.5	/experiments/knapen_aot/videos/S_ILSVRC2015_train_00761000.mp4	0.0	172.20752882957458	0.09994912147521973
29	75.9901020526886	fix_pre	0		7.0	27.0	2.5	/experiments/knapen_aot/videos/R_S_yt-LQrnLKP5tiQ_48.mp4	0.0	172.3074779510498	0.058409929275512695
29	76.04042100906372	response	0	2		27.0	2.5	/experiments/knapen_aot/videos/R_S_yt-LQrnLKP5tiQ_48.mp4	0.0	172.35779690742493	
29	76.04851198196411	movie	1		301.0	27.0	2.5	/experiments/knapen_aot/videos/R_S_yt-LQrnLKP5tiQ_48.mp4	0.0	172.36588788032532	2.508286952972412
29	78.55679893493652	fix_post	2		12.0	27.0	2.5	/experiments/knapen_aot/videos/R_S_yt-LQrnLKP5tiQ_48.mp4	0.0	174.87417483329773	0.10001707077026367
30	78.65681600570679	fix_pre	0		20.0	28.0	2.5	blank	1.0	174.974191904068	0.16665291786193848
30	78.815190076828	response	0	2		28.0	2.5	blank	1.0	175.1325659751892	
30	78.82346892356873	movie	1		301.0	28.0	2.5	blank	1.0	175.14084482192993	2.5083541870117188
30	81.33182311058044	fix_post	2		12.0	28.0	2.5	blank	1.0	177.64919900894165	0.09995293617248535
31	81.43177604675293	fix_pre	0		14.0	29.0	2.5	/experiments/knapen_aot/videos/S_ILSVRC2015_train_00682009.mp4	0.0	177.74915194511414	0.1166989803314209
31	81.54025793075562	response	0	2		29.0	2.5	/experiments/knapen_aot/videos/S_ILSVRC2015_train_00682009.mp4	0.0	177.85763382911682	
31	81.54847502708435	movie	1		301.0	29.0	2.5	/experiments/knapen_aot/videos/S_ILSVRC2015_train_00682009.mp4	0.0	177.86585092544556	2.5083119869232178
31	84.05678701400757	fix_post	2		12.0	29.0	2.5	/experiments/knapen_aot/videos/S_ILSVRC2015_train_00682009.mp4	0.0	180.37416291236877	0.09999704360961914
32	84.15678405761719	fix_pre	0		6.0	30.0	2.5	/experiments/knapen_aot/videos/S_yt-Q5wYs9vSzlA_30.mp4	0.0	180.4741599559784	0.050395965576171875
32	84.19853591918945	response	0	2		30.0	2.5	/experiments/knapen_aot/videos/S_yt-Q5wYs9vSzlA_30.mp4	0.0	180.51591181755066	
32	84.20718002319336	movie	1		301.0	30.0	2.5	/experiments/knapen_aot/videos/S_yt-Q5wYs9vSzlA_30.mp4	0.0	180.52455592155457	2.5079219341278076
32	86.71510195732117	fix_post	2		12.0	30.0	2.5	/experiments/knapen_aot/videos/S_yt-Q5wYs9vSzlA_30.mp4	0.0	183.03247785568237	0.09995102882385254
33	86.81505298614502	fix_pre	0		5.0	31.0	2.5	/experiments/knapen_aot/videos/R_S_yt-t8NfuFA7OlM_26.mp4	0.0	183.13242888450623	0.04164910316467285
33	86.84856390953064	response	0	2		31.0	2.5	/experiments/knapen_aot/videos/R_S_yt-t8NfuFA7OlM_26.mp4	0.0	183.16593980789185	
33	86.85670208930969	movie	1		300.0	31.0	2.5	/experiments/knapen_aot/videos/R_S_yt-t8NfuFA7OlM_26.mp4	0.0	183.1740779876709	2.508344888687134
33	89.36504697799683	fix_post	2		12.0	31.0	2.5	/experiments/knapen_aot/videos/R_S_yt-t8NfuFA7OlM_26.mp4	0.0	185.68242287635803	0.10003805160522461
34	89.46508502960205	fix_pre	0		22.0	32.0	2.5	/experiments/knapen_aot/videos/S_yt-RXqc3JAmmPM_72.mp4	0.0	185.78246092796326	0.18325304985046387
34	89.64018487930298	response	0	2		32.0	2.5	/experiments/knapen_aot/videos/S_yt-RXqc3JAmmPM_72.mp4	0.0	185.95756077766418	
34	89.64833807945251	movie	1		301.0	32.0	2.5	/experiments/knapen_aot/videos/S_yt-RXqc3JAmmPM_72.mp4	0.0	185.96571397781372	2.5083768367767334
34	92.15671491622925	fix_post	2		12.0	32.0	2.5	/experiments/knapen_aot/videos/S_yt-RXqc3JAmmPM_72.mp4	0.0	188.47409081459045	0.09994697570800781
35	92.25666189193726	fix_pre	0		25.0	33.0	2.5	blank	1.0	188.57403779029846	0.20839309692382812
35	92.45680594444275	response	0	2		33.0	2.5	blank	1.0	188.77418184280396	
35	92.46505498886108	movie	1		301.0	33.0	2.5	blank	1.0	188.7824308872223	2.5083110332489014
35	94.97336602210999	fix_post	2		12.0	33.0	2.5	blank	1.0	191.2907419204712	0.10008001327514648
36	95.07344603538513	fix_pre	0		28.0	34.0	2.5	/experiments/knapen_aot/videos/S_video_inspire_uk_london_hampstead-heath_003.1080-h264.mp4	0.0	191.39082193374634	0.2332139015197754
36	95.29843211174011	response	0	2		34.0	2.5	/experiments/knapen_aot/videos/S_video_inspire_uk_london_hampstead-heath_003.1080-h264.mp4	0.0	191.61580801010132	
36	95.30665993690491	movie	1		166.0	34.0	2.5	/experiments/knapen_aot/videos/S_video_inspire_uk_london_hampstead-heath_003.1080-h264.mp4	0.0	191.6240358352661	2.5083041191101074
36	97.81496405601501	fix_post	2		12.0	34.0	2.5	/experiments/knapen_aot/videos/S_video_inspire_uk_london_hampstead-heath_003.1080-h264.mp4	0.0	194.13233995437622	0.10004997253417969
36	97.83181405067444	response	2	2		34.0	2.5	/experiments/knapen_aot/videos/S_video_inspire_uk_london_hampstead-heath_003.1080-h264.mp4	0.0	194.14918994903564	
37	97.9150140285492	fix_pre	0		27.0	35.0	2.5	/experiments/knapen_aot/videos/R_S_yt-9Ow95khYa_M_91.mp4	0.0	194.2323899269104	0.22498106956481934
37	98.13175296783447	response	0	2		35.0	2.5	/experiments/knapen_aot/videos/R_S_yt-9Ow95khYa_M_91.mp4	0.0	194.44912886619568	
37	98.13999509811401	movie	1		301.0	35.0	2.5	/experiments/knapen_aot/videos/R_S_yt-9Ow95khYa_M_91.mp4	0.0	194.45737099647522	2.5083248615264893
37	100.6483199596405	fix_post	2		12.0	35.0	2.5	/experiments/knapen_aot/videos/R_S_yt-9Ow95khYa_M_91.mp4	0.0	196.9656958580017	0.10036110877990723
38	100.74868106842041	fix_pre	0		11.0	36.0	2.5	/experiments/knapen_aot/videos/S_8lrGQK4UBj8_38.mp4	0.0	197.06605696678162	0.09123802185058594
38	100.8318259716034	response	0	2		36.0	2.5	/experiments/knapen_aot/videos/S_8lrGQK4UBj8_38.mp4	0.0	197.1492018699646	
38	100.839919090271	movie	1		301.0	36.0	2.5	/experiments/knapen_aot/videos/S_8lrGQK4UBj8_38.mp4	0.0	197.1572949886322	2.5084099769592285
38	103.34832906723022	fix_post	2		12.0	36.0	2.5	/experiments/knapen_aot/videos/S_8lrGQK4UBj8_38.mp4	0.0	199.66570496559143	0.1000218391418457
39	103.44835090637207	fix_pre	0		12.0	37.0	2.5	/experiments/knapen_aot/videos/S_pexels-cottonbro-9063801.mp4	0.0	199.76572680473328	0.10006117820739746
39	103.54010796546936	response	0	2		37.0	2.5	/experiments/knapen_aot/videos/S_pexels-cottonbro-9063801.mp4	0.0	199.85748386383057	
39	103.54841208457947	movie	1		191.0	37.0	2.5	/experiments/knapen_aot/videos/S_pexels-cottonbro-9063801.mp4	0.0	199.86578798294067	2.5082449913024902
39	106.05665707588196	fix_post	2		12.0	37.0	2.5	/experiments/knapen_aot/videos/S_pexels-cottonbro-9063801.mp4	0.0	202.37403297424316	0.10005593299865723
40	106.15671300888062	fix_pre	0		13.0	38.0	2.5	/experiments/knapen_aot/videos/R_S_yt-urJgH6tpfkU_204.mp4	0.0	202.47408890724182	0.10829806327819824
40	106.25676798820496	response	0	2		38.0	2.5	/experiments/knapen_aot/videos/R_S_yt-urJgH6tpfkU_204.mp4	0.0	202.57414388656616	
40	106.26501107215881	movie	1		301.0	38.0	2.5	/experiments/knapen_aot/videos/R_S_yt-urJgH6tpfkU_204.mp4	0.0	202.58238697052002	2.508431911468506
40	108.77344298362732	fix_post	2		12.0	38.0	2.5	/experiments/knapen_aot/videos/R_S_yt-urJgH6tpfkU_204.mp4	0.0	205.09081888198853	0.09986495971679688
41	108.87330794334412	fix_pre	0		23.0	39.0	2.5	/experiments/knapen_aot/videos/S_yt-Q4edV5qiqu0_578.mp4	0.0	205.19068384170532	0.19163107872009277
41	109.05678296089172	response	0	2		39.0	2.5	/experiments/knapen_aot/videos/S_yt-Q4edV5qiqu0_578.mp4	0.0	205.37415885925293	
41	109.06493902206421	movie	1		301.0	39.0	2.5	/experiments/knapen_aot/videos/S_yt-Q4edV5qiqu0_578.mp4	0.0	205.38231492042542	2.5083839893341064
41	111.57332301139832	fix_post	2		12.0	39.0	2.5	/experiments/knapen_aot/videos/S_yt-Q4edV5qiqu0_578.mp4	0.0	207.89069890975952	0.09995698928833008
42	111.67328000068665	fix_pre	0		23.0	40.0	2.5	/experiments/knapen_aot/videos/S_yt-EApB0DJ3ECg_66.mp4	0.0	207.99065589904785	0.19168305397033691
42	111.85670900344849	response	0	2		40.0	2.5	/experiments/knapen_aot/videos/S_yt-EApB0DJ3ECg_66.mp4	0.0	208.1740849018097	
42	111.86496305465698	movie	1		301.0	40.0	2.5	/experiments/knapen_aot/videos/S_yt-EApB0DJ3ECg_66.mp4	0.0	208.1823389530182	2.5083439350128174
42	114.3733069896698	fix_post	2		12.0	40.0	2.5	/experiments/knapen_aot/videos/S_yt-EApB0DJ3ECg_66.mp4	0.0	210.690682888031	0.1001429557800293
43	114.47344994544983	fix_pre	0		1.0	41.0	2.5	/experiments/knapen_aot/videos/R_S_wc-AyT9mzwZsu0T_14.mp4	0.0	210.79082584381104	0.008157014846801758
43	114.47514390945435	response	0	2		41.0	2.5	/experiments/knapen_aot/videos/R_S_wc-AyT9mzwZsu0T_14.mp4	0.0	210.79251980781555	
43	114.48160696029663	movie	1		165.0	41.0	2.5	/experiments/knapen_aot/videos/R_S_wc-AyT9mzwZsu0T_14.mp4	0.0	210.79898285865784	2.5083699226379395
43	116.98997688293457	fix_post	2		12.0	41.0	2.5	/experiments/knapen_aot/videos/R_S_wc-AyT9mzwZsu0T_14.mp4	0.0	213.30735278129578	0.09999799728393555
44	117.0899748802185	fix_pre	0		12.0	42.0	2.5	blank	1.0	213.4073507785797	0.10004115104675293
44	117.18177199363708	response	0	2		42.0	2.5	blank	1.0	213.4991478919983	
44	117.19001603126526	movie	1		301.0	42.0	2.5	blank	1.0	213.50739192962646	2.5082550048828125
44	119.69827103614807	fix_post	2		12.0	42.0	2.5	blank	1.0	216.01564693450928	0.09990787506103516
45	119.7981789112091	fix_pre	0		20.0	43.0	2.5	/experiments/knapen_aot/videos/R_S_ILSVRC2015_train_00405000.mp4	0.0	216.1155548095703	0.1667780876159668
45	119.95674991607666	response	0	2		43.0	2.5	/experiments/knapen_aot/videos/R_S_ILSVRC2015_train_00405000.mp4	0.0	216.27412581443787	
45	119.96495699882507	movie	1		301.0	43.0	2.5	/experiments/knapen_aot/videos/R_S_ILSVRC2015_train_00405000.mp4	0.0	216.28233289718628	2.508270025253296
45	122.47322702407837	fix_post	2		12.0	43.0	2.5	/experiments/knapen_aot/videos/R_S_ILSVRC2015_train_00405000.mp4	0.0	218.79060292243958	0.10003304481506348
46	122.57326006889343	fix_pre	0		5.0	44.0	2.5	/experiments/knapen_aot/videos/S_yt-xNKgc8sFYvU_35.mp4	0.0	218.89063596725464	0.04348397254943848
46	122.60678505897522	response	0	2		44.0	2.5	/experiments/knapen_aot/videos/S_yt-xNKgc8sFYvU_35.mp4	0.0	218.92416095733643	
46	122.61674404144287	movie	1		301.0	44.0	2.5	/experiments/knapen_aot/videos/S_yt-xNKgc8sFYvU_35.mp4	0.0	218.93411993980408	2.5066890716552734
46	125.12343311309814	fix_post	2		12.0	44.0	2.5	/experiments/knapen_aot/videos/S_yt-xNKgc8sFYvU_35.mp4	0.0	221.44080901145935	0.09978699684143066
47	125.22322010993958	fix_pre	0		14.0	45.0	2.5	/experiments/knapen_aot/videos/R_S_yt-khmJAQuCRRE_119.mp4	0.0	221.54059600830078	0.11670780181884766
47	125.33169388771057	response	0	2		45.0	2.5	/experiments/knapen_aot/videos/R_S_yt-khmJAQuCRRE_119.mp4	0.0	221.64906978607178	
47	125.33992791175842	movie	1		301.0	45.0	2.5	/experiments/knapen_aot/videos/R_S_yt-khmJAQuCRRE_119.mp4	0.0	221.65730381011963	2.5083019733428955
47	127.84822988510132	fix_post	2		12.0	45.0	2.5	/experiments/knapen_aot/videos/R_S_yt-khmJAQuCRRE_119.mp4	0.0	224.16560578346252	0.09999322891235352
48	127.94822311401367	fix_pre	0		8.0	46.0	2.5	/experiments/knapen_aot/videos/S_yt-_zDYi2P-QxY_128.mp4	0.0	224.26559901237488	0.06663894653320312
48	128.00667095184326	response	0	2		46.0	2.5	/experiments/knapen_aot/videos/S_yt-_zDYi2P-QxY_128.mp4	0.0	224.32404685020447	
48	128.01486206054688	movie	1		301.0	46.0	2.5	/experiments/knapen_aot/videos/S_yt-_zDYi2P-QxY_128.mp4	0.0	224.33223795890808	2.508347988128662
48	130.52321004867554	fix_post	2		12.0	46.0	2.5	/experiments/knapen_aot/videos/S_yt-_zDYi2P-QxY_128.mp4	0.0	226.84058594703674	0.10030603408813477
49	130.62351608276367	fix_pre	0		23.0	47.0	2.5	/experiments/knapen_aot/videos/R_S_yt-lkpfs_4qAGE_50.mp4	0.0	226.94089198112488	0.19132494926452637
49	130.79917001724243	response	0	2		47.0	2.5	/experiments/knapen_aot/videos/R_S_yt-lkpfs_4qAGE_50.mp4	0.0	227.11654591560364	
49	130.8148410320282	movie	1		301.0	47.0	2.5	/experiments/knapen_aot/videos/R_S_yt-lkpfs_4qAGE_50.mp4	0.0	227.1322169303894	2.5083508491516113
49	133.3231918811798	fix_post	2		12.0	47.0	2.5	/experiments/knapen_aot/videos/R_S_yt-lkpfs_4qAGE_50.mp4	0.0	229.64056777954102	0.1000821590423584
50	133.42327404022217	fix_pre	0		16.0	48.0	2.5	blank	1.0	229.74064993858337	0.13321590423583984
50	133.5483639240265	response	0	2		48.0	2.5	blank	1.0	229.8657398223877	
50	133.556489944458	movie	1		301.0	48.0	2.5	blank	1.0	229.8738658428192	2.5083940029144287
50	136.06488394737244	fix_post	2		12.0	48.0	2.5	blank	1.0	232.38225984573364	0.10009002685546875
51	136.1649739742279	fix_pre	0		23.0	49.0	2.5	/experiments/knapen_aot/videos/R_S_pexels-koolshooters-7327412.mp4	0.0	232.4823498725891	0.1915910243988037
51	136.34833788871765	response	0	2		49.0	2.5	/experiments/knapen_aot/videos/R_S_pexels-koolshooters-7327412.mp4	0.0	232.66571378707886	
51	136.3565649986267	movie	1		166.0	49.0	2.5	/experiments/knapen_aot/videos/R_S_pexels-koolshooters-7327412.mp4	0.0	232.67394089698792	2.508297920227051
51	138.86486291885376	fix_post	2		12.0	49.0	2.5	/experiments/knapen_aot/videos/R_S_pexels-koolshooters-7327412.mp4	0.0	235.18223881721497	0.10003399848937988
52	138.96489691734314	fix_pre	0		15.0	50.0	2.5	/experiments/knapen_aot/videos/S_yt-kuzdrmHa-W0_39.mp4	0.0	235.28227281570435	0.12489914894104004
52	139.08163499832153	response	0	2		50.0	2.5	/experiments/knapen_aot/videos/S_yt-kuzdrmHa-W0_39.mp4	0.0	235.39901089668274	
52	139.08979606628418	movie	1		301.0	50.0	2.5	/experiments/knapen_aot/videos/S_yt-kuzdrmHa-W0_39.mp4	0.0	235.40717196464539	2.5083730220794678
52	141.59816908836365	fix_post	2		12.0	50.0	2.5	/experiments/knapen_aot/videos/S_yt-kuzdrmHa-W0_39.mp4	0.0	237.91554498672485	0.10000491142272949
53	141.69817399978638	fix_pre	0		22.0	51.0	2.5	/experiments/knapen_aot/videos/R_S_ILSVRC2015_train_00405000.mp4	0.0	238.01554989814758	0.18329405784606934
53	141.87329292297363	response	0	2		51.0	2.5	/experiments/knapen_aot/videos/R_S_ILSVRC2015_train_00405000.mp4	0.0	238.19066882133484	
53	141.88146805763245	movie	1		299.0	51.0	2.5	/experiments/knapen_aot/videos/R_S_ILSVRC2015_train_00405000.mp4	0.0	238.19884395599365	2.5084269046783447
53	144.3898949623108	fix_post	2		12.0	51.0	2.5	/experiments/knapen_aot/videos/R_S_ILSVRC2015_train_00405000.mp4	0.0	240.707270860672	0.09995508193969727
54	144.4898500442505	fix_pre	0		21.0	52.0	2.5	/experiments/knapen_aot/videos/R_S_yt-gPhlnZG-pRY_4.mp4	0.0	240.8072259426117	0.1751258373260498
54	144.65666389465332	response	0	2		52.0	2.5	/experiments/knapen_aot/videos/R_S_yt-gPhlnZG-pRY_4.mp4	0.0	240.97403979301453	
54	144.66497588157654	movie	1		301.0	52.0	2.5	/experiments/knapen_aot/videos/R_S_yt-gPhlnZG-pRY_4.mp4	0.0	240.98235177993774	2.5082831382751465
54	147.17325901985168	fix_post	2		12.0	52.0	2.5	/experiments/knapen_aot/videos/R_S_yt-gPhlnZG-pRY_4.mp4	0.0	243.4906349182129	0.0999600887298584
55	147.27321910858154	fix_pre	0		22.0	53.0	2.5	/experiments/knapen_aot/videos/R_S_yt-xQPKYWDRy2A_491.mp4	0.0	243.59059500694275	0.18341588973999023
55	147.44833397865295	response	0	2		53.0	2.5	/experiments/knapen_aot/videos/R_S_yt-xQPKYWDRy2A_491.mp4	0.0	243.76570987701416	
55	147.45663499832153	movie	1		299.0	53.0	2.5	/experiments/knapen_aot/videos/R_S_yt-xQPKYWDRy2A_491.mp4	0.0	243.77401089668274	2.508284091949463
55	149.964919090271	fix_post	2		12.0	53.0	2.5	/experiments/knapen_aot/videos/R_S_yt-xQPKYWDRy2A_491.mp4	0.0	246.2822949886322	0.09989786148071289
56	150.0648169517517	fix_pre	0		15.0	54.0	2.5	/experiments/knapen_aot/videos/R_S_yt-dkBlyE3igk0_44.mp4	0.0	246.38219285011292	0.12488508224487305
56	150.18155598640442	response	0	2		54.0	2.5	/experiments/knapen_aot/videos/R_S_yt-dkBlyE3igk0_44.mp4	0.0	246.49893188476562	
56	150.18970203399658	movie	1		301.0	54.0	2.5	/experiments/knapen_aot/videos/R_S_yt-dkBlyE3igk0_44.mp4	0.0	246.5070779323578	2.508430004119873
56	152.69813203811646	fix_post	2		12.0	54.0	2.5	/experiments/knapen_aot/videos/R_S_yt-dkBlyE3igk0_44.mp4	0.0	249.01550793647766	0.10000896453857422
57	152.79814100265503	fix_pre	0		15.0	55.0	2.5	blank	1.0	249.11551690101624	0.12494492530822754
57	152.91498494148254	response	0	2		55.0	2.5	blank	1.0	249.23236083984375	
57	152.92308592796326	movie	1		301.0	55.0	2.5	blank	1.0	249.24046182632446	2.5083210468292236
57	155.43140697479248	fix_post	2		12.0	55.0	2.5	blank	1.0	251.7487828731537	0.10004210472106934
58	155.53144907951355	fix_pre	0		19.0	56.0	2.5	/experiments/knapen_aot/videos/S_yt-qurTr1BJMec_244.mp4	0.0	251.84882497787476	0.15830302238464355
58	155.68153309822083	response	0	2		56.0	2.5	/experiments/knapen_aot/videos/S_yt-qurTr1BJMec_244.mp4	0.0	251.99890899658203	
58	155.6897521018982	movie	1		301.0	56.0	2.5	/experiments/knapen_aot/videos/S_yt-qurTr1BJMec_244.mp4	0.0	252.0071280002594	2.508354902267456
58	158.19810700416565	fix_post	2		12.0	56.0	2.5	/experiments/knapen_aot/videos/S_yt-qurTr1BJMec_244.mp4	0.0	254.51548290252686	0.10002398490905762
59	158.2981309890747	fix_pre	0		26.0	57.0	2.5	/experiments/knapen_aot/videos/R_S_pexels-cottonbro-10640532.mp4	0.0	254.6155068874359	0.21657800674438477
59	158.5065529346466	response	0	2		57.0	2.5	/experiments/knapen_aot/videos/R_S_pexels-cottonbro-10640532.mp4	0.0	254.8239288330078	
59	158.5147089958191	movie	1		188.0	57.0	2.5	/experiments/knapen_aot/videos/R_S_pexels-cottonbro-10640532.mp4	0.0	254.8320848941803	2.50838303565979
59	161.02309203147888	fix_post	2		12.0	57.0	2.5	/experiments/knapen_aot/videos/R_S_pexels-cottonbro-10640532.mp4	0.0	257.3404679298401	0.10004401206970215
60	161.12313604354858	fix_pre	0		7.0	58.0	2.5	/experiments/knapen_aot/videos/R_S_FZ0hLmjCR0s_26.mp4	0.0	257.4405119419098	0.06682801246643066
60	161.17895007133484	response	0	2		58.0	2.5	/experiments/knapen_aot/videos/R_S_FZ0hLmjCR0s_26.mp4	0.0	257.49632596969604	
60	161.18996405601501	movie	1		300.0	58.0	2.5	/experiments/knapen_aot/videos/R_S_FZ0hLmjCR0s_26.mp4	0.0	257.5073399543762	2.4997949600219727
60	163.689759016037	fix_post	2		12.0	58.0	2.5	/experiments/knapen_aot/videos/R_S_FZ0hLmjCR0s_26.mp4	0.0	260.0071349143982	0.10013604164123535
61	163.78989505767822	fix_pre	0		12.0	59.0	2.5	/experiments/knapen_aot/videos/R_S_yt-K-iCphzt_RE_17.mp4	0.0	260.10727095603943	0.09983491897583008
61	163.88163208961487	response	0	2		59.0	2.5	/experiments/knapen_aot/videos/R_S_yt-K-iCphzt_RE_17.mp4	0.0	260.1990079879761	
61	163.88972997665405	movie	1		301.0	59.0	2.5	/experiments/knapen_aot/videos/R_S_yt-K-iCphzt_RE_17.mp4	0.0	260.20710587501526	2.5082781314849854
61	166.39800810813904	fix_post	2		12.0	59.0	2.5	/experiments/knapen_aot/videos/R_S_yt-K-iCphzt_RE_17.mp4	0.0	262.71538400650024	0.1000969409942627
62	166.4981050491333	fix_pre	0		34.0	60.0	2.5	/experiments/knapen_aot/videos/R_S_Ds4EKTLx_RI_51.mp4	0.0	262.8154809474945	0.28322291374206543
62	166.77321410179138	response	0	2		60.0	2.5	/experiments/knapen_aot/videos/R_S_Ds4EKTLx_RI_51.mp4	0.0	263.0905900001526	
62	166.78132796287537	movie	1		301.0	60.0	2.5	/experiments/knapen_aot/videos/R_S_Ds4EKTLx_RI_51.mp4	0.0	263.0987038612366	2.5084140300750732
62	169.28974199295044	fix_post	2		12.0	60.0	2.5	/experiments/knapen_aot/videos/R_S_Ds4EKTLx_RI_51.mp4	0.0	265.60711789131165	0.09999990463256836
63	169.389741897583	fix_pre	0		14.0	61.0	2.5	/experiments/knapen_aot/videos/R_S_video-7.mp4	0.0	265.7071177959442	0.11661100387573242
63	169.49815487861633	response	0	2		61.0	2.5	/experiments/knapen_aot/videos/R_S_video-7.mp4	0.0	265.81553077697754	
63	169.50635290145874	movie	1		168.0	61.0	2.5	/experiments/knapen_aot/videos/R_S_video-7.mp4	0.0	265.82372879981995	2.5084052085876465
63	172.0147581100464	fix_post	2		12.0	61.0	2.5	/experiments/knapen_aot/videos/R_S_video-7.mp4	0.0	268.3321340084076	0.0999748706817627
64	172.11473298072815	fix_pre	0		5.0	62.0	2.5	/experiments/knapen_aot/videos/S_ILSVRC2015_train_00574004.mp4	0.0	268.43210887908936	0.04307889938354492
64	172.14823508262634	response	0	2		62.0	2.5	/experiments/knapen_aot/videos/S_ILSVRC2015_train_00574004.mp4	0.0	268.46561098098755	
64	172.1578118801117	movie	1		297.0	62.0	2.5	/experiments/knapen_aot/videos/S_ILSVRC2015_train_00574004.mp4	0.0	268.4751877784729	2.5068960189819336
64	174.66470789909363	fix_post	2		12.0	62.0	2.5	/experiments/knapen_aot/videos/S_ILSVRC2015_train_00574004.mp4	0.0	270.98208379745483	0.10001420974731445
65	174.76472210884094	fix_pre	0		32.0	63.0	2.5	blank	1.0	271.08209800720215	0.2666628360748291
65	175.02313494682312	response	0	2		63.0	2.5	blank	1.0	271.3405108451843	
65	175.03138494491577	movie	1		301.0	63.0	2.5	blank	1.0	271.348760843277	2.508305072784424
65	177.5396900177002	fix_post	2		12.0	63.0	2.5	blank	1.0	273.8570659160614	0.09988808631896973
66	177.63957810401917	fix_pre	0		70.0	64.0	2.5	/experiments/knapen_aot/videos/S_yt-M5qZo3CUXYE_27.mp4	0.0	273.95695400238037	0.5834457874298096
66	178.21481490135193	response	0	2		64.0	2.5	/experiments/knapen_aot/videos/S_yt-M5qZo3CUXYE_27.mp4	0.0	274.53219079971313	
66	178.22302389144897	movie	1		301.0	64.0	2.5	/experiments/knapen_aot/videos/S_yt-M5qZo3CUXYE_27.mp4	0.0	274.5403997898102	2.508355140686035
66	180.731379032135	fix_post	2		12.0	64.0	2.5	/experiments/knapen_aot/videos/S_yt-M5qZo3CUXYE_27.mp4	0.0	277.0487549304962	0.09994101524353027
67	180.83132004737854	fix_pre	0		6.0	65.0	2.5	/experiments/knapen_aot/videos/S_nTA7B2uHaCQ_1.mp4	0.0	277.14869594573975	0.05002784729003906
67	180.8731849193573	response	0	2		65.0	2.5	/experiments/knapen_aot/videos/S_nTA7B2uHaCQ_1.mp4	0.0	277.1905608177185	
67	180.88134789466858	movie	1		301.0	65.0	2.5	/experiments/knapen_aot/videos/S_nTA7B2uHaCQ_1.mp4	0.0	277.1987237930298	2.508310079574585
67	183.38965797424316	fix_post	2		12.0	65.0	2.5	/experiments/knapen_aot/videos/S_nTA7B2uHaCQ_1.mp4	0.0	279.70703387260437	0.09995007514953613
68	183.4896080493927	fix_pre	0		14.0	66.0	2.5	/experiments/knapen_aot/videos/S_yt-hOtj2y9VWrc_354.mp4	0.0	279.8069839477539	0.11670899391174316
68	183.5981149673462	response	0	2		66.0	2.5	/experiments/knapen_aot/videos/S_yt-hOtj2y9VWrc_354.mp4	0.0	279.9154908657074	
68	183.60631704330444	movie	1		301.0	66.0	2.5	/experiments/knapen_aot/videos/S_yt-hOtj2y9VWrc_354.mp4	0.0	279.92369294166565	2.5083439350128174
68	186.11466097831726	fix_post	2		12.0	66.0	2.5	/experiments/knapen_aot/videos/S_yt-hOtj2y9VWrc_354.mp4	0.0	282.43203687667847	0.10003209114074707
69	186.214693069458	fix_pre	0		21.0	67.0	2.5	/experiments/knapen_aot/videos/R_S_yt-hOtj2y9VWrc_354.mp4	0.0	282.5320689678192	0.1749420166015625
69	186.38140892982483	response	0	2		67.0	2.5	/experiments/knapen_aot/videos/R_S_yt-hOtj2y9VWrc_354.mp4	0.0	282.69878482818604	
69	186.38963508605957	movie	1		301.0	67.0	2.5	/experiments/knapen_aot/videos/R_S_yt-hOtj2y9VWrc_354.mp4	0.0	282.7070109844208	2.5083868503570557
69	188.89802193641663	fix_post	2		12.0	67.0	2.5	/experiments/knapen_aot/videos/R_S_yt-hOtj2y9VWrc_354.mp4	0.0	285.21539783477783	0.09998416900634766
70	188.99800610542297	fix_pre	0		10.0	68.0	2.5	blank	1.0	285.3153820037842	0.0833139419555664
70	189.06558203697205	response	0	2		68.0	2.5	blank	1.0	285.38295793533325	
70	189.08132004737854	movie	1		301.0	68.0	2.5	blank	1.0	285.39869594573975	2.5082650184631348
70	191.58958506584167	fix_post	2		12.0	68.0	2.5	blank	1.0	287.9069609642029	0.10006594657897949
71	191.68965101242065	fix_pre	0		20.0	69.0	2.5	/experiments/knapen_aot/videos/R_S_yt-QFGyhhr1KSQ_9.mp4	0.0	288.00702691078186	0.16665291786193848
71	191.84806203842163	response	0	2		69.0	2.5	/experiments/knapen_aot/videos/R_S_yt-QFGyhhr1KSQ_9.mp4	0.0	288.16543793678284	
71	191.8563039302826	movie	1		299.0	69.0	2.5	/experiments/knapen_aot/videos/R_S_yt-QFGyhhr1KSQ_9.mp4	0.0	288.1736798286438	2.5083119869232178
71	194.3646159172058	fix_post	2		12.0	69.0	2.5	/experiments/knapen_aot/videos/R_S_yt-QFGyhhr1KSQ_9.mp4	0.0	290.681991815567	0.10001397132873535
72	194.46462988853455	fix_pre	0		1.0	70.0	2.5	/experiments/knapen_aot/videos/S_yt-26009GpQuUg_3.mp4	0.0	290.78200578689575	0.008296012878417969
72	194.4663848876953	response	0	2		70.0	2.5	/experiments/knapen_aot/videos/S_yt-26009GpQuUg_3.mp4	0.0	290.7837607860565	
72	194.47292590141296	movie	1		301.0	70.0	2.5	/experiments/knapen_aot/videos/S_yt-26009GpQuUg_3.mp4	0.0	290.79030179977417	2.508364200592041
72	196.981290102005	fix_post	2		12.0	70.0	2.5	/experiments/knapen_aot/videos/S_yt-26009GpQuUg_3.mp4	0.0	293.2986660003662	0.10003781318664551
73	197.08132791519165	fix_pre	0		30.0	71.0	2.5	/experiments/knapen_aot/videos/R_S_pexels-sora-shimazaki-5925295.mp4	0.0	293.39870381355286	0.24995112419128418
73	197.323077917099	response	0	2		71.0	2.5	/experiments/knapen_aot/videos/R_S_pexels-sora-shimazaki-5925295.mp4	0.0	293.6404538154602	
73	197.33127903938293	movie	1		164.0	71.0	2.5	/experiments/knapen_aot/videos/R_S_pexels-sora-shimazaki-5925295.mp4	0.0	293.64865493774414	2.5082788467407227
73	199.83955788612366	fix_post	2		12.0	71.0	2.5	/experiments/knapen_aot/videos/R_S_pexels-sora-shimazaki-5925295.mp4	0.0	296.15693378448486	0.10001015663146973
74	199.93956804275513	fix_pre	0		5.0	72.0	2.5	/experiments/knapen_aot/videos/S_pexels-kindel-media-8164443.mp4	0.0	296.25694394111633	0.044358015060424805
74	199.97327208518982	response	0	2		72.0	2.5	/experiments/knapen_aot/videos/S_pexels-kindel-media-8164443.mp4	0.0	296.290647983551	
74	199.98392605781555	movie	1		168.0	72.0	2.5	/experiments/knapen_aot/videos/S_pexels-kindel-media-8164443.mp4	0.0	296.30130195617676	2.505635976791382
74	202.48956203460693	fix_post	2		12.0	72.0	2.5	/experiments/knapen_aot/videos/S_pexels-kindel-media-8164443.mp4	0.0	298.80693793296814	0.10008788108825684
74	202.5646710395813	response	2	2		72.0	2.5	/experiments/knapen_aot/videos/S_pexels-kindel-media-8164443.mp4	0.0	298.8820469379425	
75	202.5896499156952	fix_pre	0		40.0	73.0	2.5	/experiments/knapen_aot/videos/R_S_8lrGQK4UBj8_38.mp4	0.0	298.9070258140564	0.33322715759277344
75	202.91466903686523	response	0	2		73.0	2.5	/experiments/knapen_aot/videos/R_S_8lrGQK4UBj8_38.mp4	0.0	299.23204493522644	
75	202.92287707328796	movie	1		301.0	73.0	2.5	/experiments/knapen_aot/videos/R_S_8lrGQK4UBj8_38.mp4	0.0	299.24025297164917	2.5083370208740234
75	205.431214094162	fix_post	2		12.0	73.0	2.5	/experiments/knapen_aot/videos/R_S_8lrGQK4UBj8_38.mp4	0.0	301.7485899925232	0.1000068187713623
76	205.53122091293335	fix_pre	0		15.0	74.0	2.5	/experiments/knapen_aot/videos/R_S_yt-316ecr1BT84_44.mp4	0.0	301.84859681129456	0.12613797187805176
76	205.64803504943848	response	0	2		74.0	2.5	/experiments/knapen_aot/videos/R_S_yt-316ecr1BT84_44.mp4	0.0	301.9654109477997	
76	205.6573588848114	movie	1		301.0	74.0	2.5	/experiments/knapen_aot/videos/R_S_yt-316ecr1BT84_44.mp4	0.0	301.9747347831726	2.5072011947631836
76	208.16456007957458	fix_post	2		12.0	74.0	2.5	/experiments/knapen_aot/videos/R_S_yt-316ecr1BT84_44.mp4	0.0	304.4819359779358	0.09994888305664062
77	208.26450896263123	fix_pre	0		12.0	75.0	2.5	/experiments/knapen_aot/videos/R_S_comp_GMT329_113NC_396B_1105_CHINA_v04_SDR_FINAL_20180706_F900F2700_SDR_2K_AVC.mp4	0.0	304.58188486099243	0.10119199752807617
77	208.35635995864868	response	0	2		75.0	2.5	/experiments/knapen_aot/videos/R_S_comp_GMT329_113NC_396B_1105_CHINA_v04_SDR_FINAL_20180706_F900F2700_SDR_2K_AVC.mp4	0.0	304.6737358570099	
77	208.3657009601593	movie	1		166.0	75.0	2.5	/experiments/knapen_aot/videos/R_S_comp_GMT329_113NC_396B_1105_CHINA_v04_SDR_FINAL_20180706_F900F2700_SDR_2K_AVC.mp4	0.0	304.6830768585205	2.5071611404418945
77	210.8728621006012	fix_post	2		12.0	75.0	2.5	/experiments/knapen_aot/videos/R_S_comp_GMT329_113NC_396B_1105_CHINA_v04_SDR_FINAL_20180706_F900F2700_SDR_2K_AVC.mp4	0.0	307.1902379989624	0.10003089904785156
78	210.97289299964905	fix_pre	0		4.0	76.0	2.5	blank	1.0	307.29026889801025	0.03341102600097656
78	210.9981939792633	response	0	2		76.0	2.5	blank	1.0	307.3155698776245	
78	211.00630402565002	movie	1		301.0	76.0	2.5	blank	1.0	307.32367992401123	2.508236885070801
78	213.51454091072083	fix_post	2		12.0	76.0	2.5	blank	1.0	309.83191680908203	0.09995198249816895
79	213.614492893219	fix_pre	0		19.0	77.0	2.5	/experiments/knapen_aot/videos/S_ILSVRC2015_train_00473001.mp4	0.0	309.9318687915802	0.15839219093322754
79	213.75712704658508	response	0	2		77.0	2.5	/experiments/knapen_aot/videos/S_ILSVRC2015_train_00473001.mp4	0.0	310.0745029449463	
79	213.77288508415222	movie	1		301.0	77.0	2.5	/experiments/knapen_aot/videos/S_ILSVRC2015_train_00473001.mp4	0.0	310.0902609825134	2.50833797454834
79	216.28122305870056	fix_post	2		12.0	77.0	2.5	/experiments/knapen_aot/videos/S_ILSVRC2015_train_00473001.mp4	0.0	312.59859895706177	0.09994792938232422
80	216.38117098808289	fix_pre	0		6.0	78.0	2.5	/experiments/knapen_aot/videos/S_yt--OkafQ5VFHs_51.mp4	0.0	312.6985468864441	0.049954891204833984
80	216.4230239391327	response	0	2		78.0	2.5	/experiments/knapen_aot/videos/S_yt--OkafQ5VFHs_51.mp4	0.0	312.7403998374939	
80	216.43112587928772	movie	1		301.0	78.0	2.5	/experiments/knapen_aot/videos/S_yt--OkafQ5VFHs_51.mp4	0.0	312.7485017776489	2.5083320140838623
80	218.93945789337158	fix_post	2		12.0	78.0	2.5	/experiments/knapen_aot/videos/S_yt--OkafQ5VFHs_51.mp4	0.0	315.2568337917328	0.10004210472106934
81	219.03949999809265	fix_pre	0		8.0	79.0	2.5	/experiments/knapen_aot/videos/S_ILSVRC2015_train_00417000.mp4	0.0	315.35687589645386	0.06669998168945312
81	219.09796404838562	response	0	2		79.0	2.5	/experiments/knapen_aot/videos/S_ILSVRC2015_train_00417000.mp4	0.0	315.4153399467468	
81	219.1061999797821	movie	1		301.0	79.0	2.5	/experiments/knapen_aot/videos/S_ILSVRC2015_train_00417000.mp4	0.0	315.4235758781433	2.508281946182251
81	221.61448192596436	fix_post	2		12.0	79.0	2.5	/experiments/knapen_aot/videos/S_ILSVRC2015_train_00417000.mp4	0.0	317.93185782432556	0.09998106956481934
82	221.71446299552917	fix_pre	0		3.0	80.0	2.5	/experiments/knapen_aot/videos/S_meta-11482036_235.mp4	0.0	318.0318388938904	0.026155948638916016
82	221.72380304336548	response	0	2		80.0	2.5	/experiments/knapen_aot/videos/S_meta-11482036_235.mp4	0.0	318.0411789417267	
82	221.7406189441681	movie	1		301.0	80.0	2.5	/experiments/knapen_aot/videos/S_meta-11482036_235.mp4	0.0	318.0579948425293	2.507194995880127
82	224.24781394004822	fix_post	2		12.0	80.0	2.5	/experiments/knapen_aot/videos/S_meta-11482036_235.mp4	0.0	320.5651898384094	0.09998297691345215
83	224.34779691696167	fix_pre	0		11.0	81.0	2.5	/experiments/knapen_aot/videos/S_yt-kRR0CluqaX4_130.mp4	0.0	320.6651728153229	0.09168815612792969
83	224.43129706382751	response	0	2		81.0	2.5	/experiments/knapen_aot/videos/S_yt-kRR0CluqaX4_130.mp4	0.0	320.7486729621887	
83	224.4394850730896	movie	1		301.0	81.0	2.5	/experiments/knapen_aot/videos/S_yt-kRR0CluqaX4_130.mp4	0.0	320.7568609714508	2.508309841156006
83	226.9477949142456	fix_post	2		12.0	81.0	2.5	/experiments/knapen_aot/videos/S_yt-kRR0CluqaX4_130.mp4	0.0	323.2651708126068	0.10010600090026855
84	227.04790091514587	fix_pre	0		19.0	82.0	2.5	/experiments/knapen_aot/videos/R_S_ILSVRC2015_train_00568000.mp4	0.0	323.3652768135071	0.15817809104919434
84	227.19793391227722	response	0	2		82.0	2.5	/experiments/knapen_aot/videos/R_S_ILSVRC2015_train_00568000.mp4	0.0	323.5153098106384	
84	227.20607900619507	movie	1		301.0	82.0	2.5	/experiments/knapen_aot/videos/R_S_ILSVRC2015_train_00568000.mp4	0.0	323.5234549045563	2.508357048034668
84	229.71443605422974	fix_post	2		12.0	82.0	2.5	/experiments/knapen_aot/videos/R_S_ILSVRC2015_train_00568000.mp4	0.0	326.03181195259094	0.09999203681945801
85	229.8144280910492	fix_pre	0		9.0	83.0	2.5	blank	1.0	326.1318039894104	0.07498598098754883
85	229.8812611103058	response	0	2		83.0	2.5	blank	1.0	326.198637008667	
85	229.88941407203674	movie	1		301.0	83.0	2.5	blank	1.0	326.20678997039795	2.508272886276245
85	232.397686958313	fix_post	2		12.0	83.0	2.5	blank	1.0	328.7150628566742	0.10008692741394043
87	232.49777388572693	stim	0		84.0					328.81514978408813	0.7010722160339355
87	232.64807605743408	response	0	2						328.9654519557953	
87	233.1908860206604	response	0	space						329.5082619190216	
