trial_nr	onset	event_type	phase	response	nr_frames	movie_index	movie_duration	movie_file	blank	onset_abs	duration
0	0.12482714653015137	stim	0		74.0					55.66879224777222	0.6175100803375244
0	0.7333860397338867	response	0	space						56.27735114097595	
1	0.7423372268676758	stim	0		121.0					56.28630232810974	1.00728178024292
1	1.358030080795288	response	0	space						56.90199518203735	
1	1.7080440521240234	response	0	space						57.25200915336609	
1	1.7496190071105957	stim	1		120.0					57.29358410835266	1.0000991821289062
1	2.0246400833129883	response	1	space						57.568605184555054	
1	2.249589204788208	response	1	space						57.79355430603027	
1	2.6913890838623047	response	1	space						58.23535418510437	
2	2.749718189239502	fix_pre	0		65.0	0.0	2.5	/experiments/knapen_aot/videos/R_S_yt-GWO7FHN1Jb4_142.mp4	0.0	58.29368329048157	0.5414619445800781
2	3.282978057861328	response	0	space		0.0	2.5	/experiments/knapen_aot/videos/R_S_yt-GWO7FHN1Jb4_142.mp4	0.0	58.826943159103394	
2	3.29118013381958	movie	1		301.0	0.0	2.5	/experiments/knapen_aot/videos/R_S_yt-GWO7FHN1Jb4_142.mp4	0.0	58.835145235061646	2.50833797454834
2	5.79951810836792	fix_post	2		12.0	0.0	2.5	/experiments/knapen_aot/videos/R_S_yt-GWO7FHN1Jb4_142.mp4	0.0	61.343483209609985	0.10027098655700684
3	5.899789094924927	fix_pre	0		42.0	1.0	2.5	/experiments/knapen_aot/videos/S_yt-tX3slAQb9yY_13.mp4	0.0	61.44375419616699	0.349743127822876
3	6.241443157196045	response	0	2		1.0	2.5	/experiments/knapen_aot/videos/S_yt-tX3slAQb9yY_13.mp4	0.0	61.78540825843811	
3	6.249532222747803	movie	1		301.0	1.0	2.5	/experiments/knapen_aot/videos/S_yt-tX3slAQb9yY_13.mp4	0.0	61.79349732398987	2.5083789825439453
3	8.757911205291748	fix_post	2		12.0	1.0	2.5	/experiments/knapen_aot/videos/S_yt-tX3slAQb9yY_13.mp4	0.0	64.30187630653381	0.0999758243560791
4	8.857887029647827	fix_pre	0		59.0	2.0	2.5	/experiments/knapen_aot/videos/S_yt-bhiGMKSAz2g_370.mp4	0.0	64.40185213088989	0.4915621280670166
4	9.341407060623169	response	0	2		2.0	2.5	/experiments/knapen_aot/videos/S_yt-bhiGMKSAz2g_370.mp4	0.0	64.88537216186523	
4	9.349449157714844	movie	1		301.0	2.0	2.5	/experiments/knapen_aot/videos/S_yt-bhiGMKSAz2g_370.mp4	0.0	64.89341425895691	2.5083889961242676
4	11.857838153839111	fix_post	2		12.0	2.0	2.5	/experiments/knapen_aot/videos/S_yt-bhiGMKSAz2g_370.mp4	0.0	67.40180325508118	0.10005497932434082
5	11.957893133163452	fix_pre	0		64.0	3.0	2.5	/experiments/knapen_aot/videos/R_S_yt-TNtO8RPd3iE_25.mp4	0.0	67.50185823440552	0.5338890552520752
5	12.482921123504639	response	0	2		3.0	2.5	/experiments/knapen_aot/videos/R_S_yt-TNtO8RPd3iE_25.mp4	0.0	68.0268862247467	
5	12.491782188415527	movie	1		301.0	3.0	2.5	/experiments/knapen_aot/videos/R_S_yt-TNtO8RPd3iE_25.mp4	0.0	68.03574728965759	2.507751941680908
5	14.999534130096436	fix_post	2		12.0	3.0	2.5	/experiments/knapen_aot/videos/R_S_yt-TNtO8RPd3iE_25.mp4	0.0	70.5434992313385	0.09999895095825195
6	15.099533081054688	fix_pre	0		38.0	4.0	2.5	/experiments/knapen_aot/videos/S_yt-8gCfc-o3pyk_85.mp4	0.0	70.64349818229675	0.3166220188140869
6	15.407987117767334	response	0	2		4.0	2.5	/experiments/knapen_aot/videos/S_yt-8gCfc-o3pyk_85.mp4	0.0	70.9519522190094	
6	15.416155099868774	movie	1		301.0	4.0	2.5	/experiments/knapen_aot/videos/S_yt-8gCfc-o3pyk_85.mp4	0.0	70.96012020111084	2.508376121520996
6	17.92453122138977	fix_post	2		12.0	4.0	2.5	/experiments/knapen_aot/videos/S_yt-8gCfc-o3pyk_85.mp4	0.0	73.46849632263184	0.1000058650970459
7	18.024537086486816	fix_pre	0		43.0	5.0	2.5	/experiments/knapen_aot/videos/R_S_yt_R-lST38EdfMMQ_5.mp4	0.0	73.56850218772888	0.3582420349121094
7	18.374757051467896	response	0	2		5.0	2.5	/experiments/knapen_aot/videos/R_S_yt_R-lST38EdfMMQ_5.mp4	0.0	73.91872215270996	
7	18.382779121398926	movie	1		301.0	5.0	2.5	/experiments/knapen_aot/videos/R_S_yt_R-lST38EdfMMQ_5.mp4	0.0	73.92674422264099	2.508410930633545
7	20.89119005203247	fix_post	2		12.0	5.0	2.5	/experiments/knapen_aot/videos/R_S_yt_R-lST38EdfMMQ_5.mp4	0.0	76.43515515327454	0.09998011589050293
8	20.991170167922974	fix_pre	0		42.0	6.0	2.5	blank	1.0	76.53513526916504	0.3501899242401123
8	21.33298110961914	response	0	2		6.0	2.5	blank	1.0	76.8769462108612	
8	21.341360092163086	movie	1		301.0	6.0	2.5	blank	1.0	76.88532519340515	2.5081489086151123
8	23.8495090007782	fix_post	2		12.0	6.0	2.5	blank	1.0	79.39347410202026	0.099945068359375
9	23.949454069137573	fix_pre	0		30.0	7.0	2.5	/experiments/knapen_aot/videos/S_yt-TNtO8RPd3iE_25.mp4	0.0	79.49341917037964	0.250568151473999
9	24.191254138946533	response	0	2		7.0	2.5	/experiments/knapen_aot/videos/S_yt-TNtO8RPd3iE_25.mp4	0.0	79.7352192401886	
9	24.200022220611572	movie	1		301.0	7.0	2.5	/experiments/knapen_aot/videos/S_yt-TNtO8RPd3iE_25.mp4	0.0	79.74398732185364	2.507737874984741
9	26.707760095596313	fix_post	2		12.0	7.0	2.5	/experiments/knapen_aot/videos/S_yt-TNtO8RPd3iE_25.mp4	0.0	82.25172519683838	0.1000521183013916
10	26.807812213897705	fix_pre	0		30.0	8.0	2.5	/experiments/knapen_aot/videos/R_S_ILSVRC2015_train_00545000.mp4	0.0	82.35177731513977	0.24997186660766602
10	27.04207420349121	response	0	2		8.0	2.5	/experiments/knapen_aot/videos/R_S_ILSVRC2015_train_00545000.mp4	0.0	82.58603930473328	
10	27.05778408050537	movie	1		301.0	8.0	2.5	/experiments/knapen_aot/videos/R_S_ILSVRC2015_train_00545000.mp4	0.0	82.60174918174744	2.508345127105713
10	29.566129207611084	fix_post	2		12.0	8.0	2.5	/experiments/knapen_aot/videos/R_S_ILSVRC2015_train_00545000.mp4	0.0	85.11009430885315	0.09999799728393555
11	29.66612720489502	fix_pre	0		32.0	9.0	2.5	/experiments/knapen_aot/videos/R_S_yt-cG2qDR5ka5w_119.mp4	0.0	85.21009230613708	0.2666468620300293
11	29.92460322380066	response	0	2		9.0	2.5	/experiments/knapen_aot/videos/R_S_yt-cG2qDR5ka5w_119.mp4	0.0	85.46856832504272	
11	29.93277406692505	movie	1		301.0	9.0	2.5	/experiments/knapen_aot/videos/R_S_yt-cG2qDR5ka5w_119.mp4	0.0	85.47673916816711	2.5083651542663574
11	32.441139221191406	fix_post	2		12.0	9.0	2.5	/experiments/knapen_aot/videos/R_S_yt-cG2qDR5ka5w_119.mp4	0.0	87.98510432243347	0.09995794296264648
12	32.54109716415405	fix_pre	0		53.0	10.0	2.5	/experiments/knapen_aot/videos/R_S_comp_A105_C002_v06_SDR_FINAL_25062018_SDR_2K_AVC.mp4	0.0	88.08506226539612	0.4416508674621582
12	32.97454118728638	response	0	2		10.0	2.5	/experiments/knapen_aot/videos/R_S_comp_A105_C002_v06_SDR_FINAL_25062018_SDR_2K_AVC.mp4	0.0	88.51850628852844	
12	32.98274803161621	movie	1		166.0	10.0	2.5	/experiments/knapen_aot/videos/R_S_comp_A105_C002_v06_SDR_FINAL_25062018_SDR_2K_AVC.mp4	0.0	88.52671313285828	2.5083911418914795
12	35.49113917350769	fix_post	2		12.0	10.0	2.5	/experiments/knapen_aot/videos/R_S_comp_A105_C002_v06_SDR_FINAL_25062018_SDR_2K_AVC.mp4	0.0	91.03510427474976	0.09995794296264648
13	35.59109711647034	fix_pre	0		30.0	11.0	2.5	/experiments/knapen_aot/videos/S_BO_A014_C008_SDR_20190719_SDR_2K_AVC.mp4	0.0	91.1350622177124	0.24997997283935547
13	35.832903146743774	response	0	2		11.0	2.5	/experiments/knapen_aot/videos/S_BO_A014_C008_SDR_20190719_SDR_2K_AVC.mp4	0.0	91.37686824798584	
13	35.84107708930969	movie	1		165.0	11.0	2.5	/experiments/knapen_aot/videos/S_BO_A014_C008_SDR_20190719_SDR_2K_AVC.mp4	0.0	91.38504219055176	2.508568048477173
13	38.349645137786865	fix_post	2		12.0	11.0	2.5	/experiments/knapen_aot/videos/S_BO_A014_C008_SDR_20190719_SDR_2K_AVC.mp4	0.0	93.89361023902893	0.09975600242614746
14	38.44940114021301	fix_pre	0		64.0	12.0	2.5	/experiments/knapen_aot/videos/S_yt-4wYTkhggZNM_90.mp4	0.0	93.99336624145508	0.5332939624786377
14	38.97450518608093	response	0	2		12.0	2.5	/experiments/knapen_aot/videos/S_yt-4wYTkhggZNM_90.mp4	0.0	94.518470287323	
14	38.98269510269165	movie	1		301.0	12.0	2.5	/experiments/knapen_aot/videos/S_yt-4wYTkhggZNM_90.mp4	0.0	94.52666020393372	2.5084540843963623
14	41.49114918708801	fix_post	2		12.0	12.0	2.5	/experiments/knapen_aot/videos/S_yt-4wYTkhggZNM_90.mp4	0.0	97.03511428833008	0.09993195533752441
15	41.59108114242554	fix_pre	0		38.0	13.0	2.5	/experiments/knapen_aot/videos/S_yt-Zn0YwrsCFOQ_44.mp4	0.0	97.1350462436676	0.3170130252838135
15	41.89954400062561	response	0	2		13.0	2.5	/experiments/knapen_aot/videos/S_yt-Zn0YwrsCFOQ_44.mp4	0.0	97.44350910186768	
15	41.90809416770935	movie	1		301.0	13.0	2.5	/experiments/knapen_aot/videos/S_yt-Zn0YwrsCFOQ_44.mp4	0.0	97.45205926895142	2.507946014404297
15	44.41604018211365	fix_post	2		12.0	13.0	2.5	/experiments/knapen_aot/videos/S_yt-Zn0YwrsCFOQ_44.mp4	0.0	99.96000528335571	0.10003495216369629
16	44.516075134277344	fix_pre	0		43.0	14.0	2.5	blank	1.0	100.06004023551941	0.3583030700683594
16	44.86621117591858	response	0	2		14.0	2.5	blank	1.0	100.41017627716064	
16	44.8743782043457	movie	1		301.0	14.0	2.5	blank	1.0	100.41834330558777	2.508286952972412
16	47.382665157318115	fix_post	2		12.0	14.0	2.5	blank	1.0	102.92663025856018	0.10005998611450195
17	47.48272514343262	fix_pre	0		61.0	15.0	2.5	/experiments/knapen_aot/videos/S_yt-qurTr1BJMec_244.mp4	0.0	103.02669024467468	0.5086879730224609
17	47.975261211395264	response	0	2		15.0	2.5	/experiments/knapen_aot/videos/S_yt-qurTr1BJMec_244.mp4	0.0	103.51922631263733	
17	47.99141311645508	movie	1		301.0	15.0	2.5	/experiments/knapen_aot/videos/S_yt-qurTr1BJMec_244.mp4	0.0	103.53537821769714	2.5080111026763916
17	50.49942421913147	fix_post	2		12.0	15.0	2.5	/experiments/knapen_aot/videos/S_yt-qurTr1BJMec_244.mp4	0.0	106.04338932037354	0.10004281997680664
18	50.599467039108276	fix_pre	0		44.0	16.0	2.5	/experiments/knapen_aot/videos/R_S_yt-qBPDvSQD0XY_5.mp4	0.0	106.14343214035034	0.3665599822998047
18	50.95783615112305	response	0	2		16.0	2.5	/experiments/knapen_aot/videos/R_S_yt-qBPDvSQD0XY_5.mp4	0.0	106.50180125236511	
18	50.96602702140808	movie	1		301.0	16.0	2.5	/experiments/knapen_aot/videos/R_S_yt-qBPDvSQD0XY_5.mp4	0.0	106.50999212265015	2.5083160400390625
18	53.474343061447144	fix_post	2		12.0	16.0	2.5	/experiments/knapen_aot/videos/R_S_yt-qBPDvSQD0XY_5.mp4	0.0	109.01830816268921	0.09998893737792969
19	53.57433199882507	fix_pre	0		27.0	17.0	2.5	/experiments/knapen_aot/videos/S_wc-eJe3wXMgTLRV_20.mp4	0.0	109.11829710006714	0.225020170211792
19	53.791131019592285	response	0	2		17.0	2.5	/experiments/knapen_aot/videos/S_wc-eJe3wXMgTLRV_20.mp4	0.0	109.33509612083435	
19	53.799352169036865	movie	1		162.0	17.0	2.5	/experiments/knapen_aot/videos/S_wc-eJe3wXMgTLRV_20.mp4	0.0	109.34331727027893	2.5082929134368896
19	56.307645082473755	fix_post	2		12.0	17.0	2.5	/experiments/knapen_aot/videos/S_wc-eJe3wXMgTLRV_20.mp4	0.0	111.85161018371582	0.10001611709594727
20	56.4076611995697	fix_pre	0		54.0	18.0	2.5	/experiments/knapen_aot/videos/R_S_pexels-mikhail-nilov-8410063_1.mp4	0.0	111.95162630081177	0.4499328136444092
20	56.849478006362915	response	0	2		18.0	2.5	/experiments/knapen_aot/videos/R_S_pexels-mikhail-nilov-8410063_1.mp4	0.0	112.39344310760498	
20	56.85759401321411	movie	1		174.0	18.0	2.5	/experiments/knapen_aot/videos/R_S_pexels-mikhail-nilov-8410063_1.mp4	0.0	112.40155911445618	2.5083131790161133
20	59.365907192230225	fix_post	2		12.0	18.0	2.5	/experiments/knapen_aot/videos/R_S_pexels-mikhail-nilov-8410063_1.mp4	0.0	114.90987229347229	0.10007882118225098
21	59.465986013412476	fix_pre	0		28.0	19.0	2.5	/experiments/knapen_aot/videos/R_S_yt-SS7pSyb0_d0_32.mp4	0.0	115.00995111465454	0.23366808891296387
21	59.69125699996948	response	0	2		19.0	2.5	/experiments/knapen_aot/videos/R_S_yt-SS7pSyb0_d0_32.mp4	0.0	115.23522210121155	
21	59.69965410232544	movie	1		301.0	19.0	2.5	/experiments/knapen_aot/videos/R_S_yt-SS7pSyb0_d0_32.mp4	0.0	115.2436192035675	2.5079429149627686
21	62.20759701728821	fix_post	2		12.0	19.0	2.5	/experiments/knapen_aot/videos/R_S_yt-SS7pSyb0_d0_32.mp4	0.0	117.75156211853027	0.10003805160522461
22	62.30763506889343	fix_pre	0		60.0	20.0	2.5	/experiments/knapen_aot/videos/S_yt-FoO02U39gy4_398.mp4	0.0	117.8516001701355	0.49999403953552246
22	62.79944920539856	response	0	2		20.0	2.5	/experiments/knapen_aot/videos/S_yt-FoO02U39gy4_398.mp4	0.0	118.34341430664062	
22	62.807629108428955	movie	1		301.0	20.0	2.5	/experiments/knapen_aot/videos/S_yt-FoO02U39gy4_398.mp4	0.0	118.35159420967102	2.508354902267456
22	65.31598401069641	fix_post	2		12.0	20.0	2.5	/experiments/knapen_aot/videos/S_yt-FoO02U39gy4_398.mp4	0.0	120.85994911193848	0.10003113746643066
23	65.41601514816284	fix_pre	0		72.0	21.0	2.5	blank	1.0	120.95998024940491	0.5998280048370361
23	66.00776720046997	response	0	2		21.0	2.5	blank	1.0	121.55173230171204	
23	66.01584315299988	movie	1		301.0	21.0	2.5	blank	1.0	121.55980825424194	2.5085220336914062
23	68.52436518669128	fix_post	2		12.0	21.0	2.5	blank	1.0	124.06833028793335	0.09994292259216309
24	68.62430810928345	fix_pre	0		40.0	22.0	2.5	/experiments/knapen_aot/videos/R_S_comp_A009_C001_010181A_v09_SDR_PS_FINAL_20180725_SDR_2K_AVC.mp4	0.0	124.16827321052551	0.3332641124725342
24	68.94935917854309	response	0	2		22.0	2.5	/experiments/knapen_aot/videos/R_S_comp_A009_C001_010181A_v09_SDR_PS_FINAL_20180725_SDR_2K_AVC.mp4	0.0	124.49332427978516	
24	68.95757222175598	movie	1		163.0	22.0	2.5	/experiments/knapen_aot/videos/R_S_comp_A009_C001_010181A_v09_SDR_PS_FINAL_20180725_SDR_2K_AVC.mp4	0.0	124.50153732299805	2.5129528045654297
24	71.47052502632141	fix_post	2		12.0	22.0	2.5	/experiments/knapen_aot/videos/R_S_comp_A009_C001_010181A_v09_SDR_PS_FINAL_20180725_SDR_2K_AVC.mp4	0.0	127.01449012756348	0.0953531265258789
25	71.56587815284729	fix_pre	0		34.0	23.0	2.5	/experiments/knapen_aot/videos/S_yt_R-lST38EdfMMQ_5.mp4	0.0	127.10984325408936	0.2833380699157715
25	71.84102010726929	response	0	2		23.0	2.5	/experiments/knapen_aot/videos/S_yt_R-lST38EdfMMQ_5.mp4	0.0	127.38498520851135	
25	71.84921622276306	movie	1		301.0	23.0	2.5	/experiments/knapen_aot/videos/S_yt_R-lST38EdfMMQ_5.mp4	0.0	127.39318132400513	2.508298873901367
25	74.35751509666443	fix_post	2		12.0	23.0	2.5	/experiments/knapen_aot/videos/S_yt_R-lST38EdfMMQ_5.mp4	0.0	129.9014801979065	0.10029006004333496
26	74.45780515670776	fix_pre	0		35.0	24.0	2.5	/experiments/knapen_aot/videos/S_yt-gMqeZkpA_1Q_61.mp4	0.0	130.00177025794983	0.29145193099975586
26	74.74100303649902	response	0	2		24.0	2.5	/experiments/knapen_aot/videos/S_yt-gMqeZkpA_1Q_61.mp4	0.0	130.2849681377411	
26	74.74925708770752	movie	1		301.0	24.0	2.5	/experiments/knapen_aot/videos/S_yt-gMqeZkpA_1Q_61.mp4	0.0	130.29322218894958	2.5085489749908447
26	77.25780606269836	fix_post	2		12.0	24.0	2.5	/experiments/knapen_aot/videos/S_yt-gMqeZkpA_1Q_61.mp4	0.0	132.80177116394043	0.09985709190368652
27	77.35766315460205	fix_pre	0		122.0	25.0	2.5	/experiments/knapen_aot/videos/S_ILSVRC2015_train_00723001.mp4	0.0	132.90162825584412	1.0165259838104248
27	78.36601710319519	response	0	2		25.0	2.5	/experiments/knapen_aot/videos/S_ILSVRC2015_train_00723001.mp4	0.0	133.90998220443726	
27	78.37418913841248	movie	1		301.0	25.0	2.5	/experiments/knapen_aot/videos/S_ILSVRC2015_train_00723001.mp4	0.0	133.91815423965454	2.508409023284912
27	80.88259816169739	fix_post	2		12.0	25.0	2.5	/experiments/knapen_aot/videos/S_ILSVRC2015_train_00723001.mp4	0.0	136.42656326293945	0.09996485710144043
28	80.98256301879883	fix_pre	0		51.0	26.0	2.5	/experiments/knapen_aot/videos/R_S_yt-FoO02U39gy4_398.mp4	0.0	136.5265281200409	0.42514514923095703
28	81.39937901496887	response	0	2		26.0	2.5	/experiments/knapen_aot/videos/R_S_yt-FoO02U39gy4_398.mp4	0.0	136.94334411621094	
28	81.40770816802979	movie	1		301.0	26.0	2.5	/experiments/knapen_aot/videos/R_S_yt-FoO02U39gy4_398.mp4	0.0	136.95167326927185	2.5081889629364014
28	83.91589713096619	fix_post	2		12.0	26.0	2.5	/experiments/knapen_aot/videos/R_S_yt-FoO02U39gy4_398.mp4	0.0	139.45986223220825	0.10004401206970215
29	84.01594114303589	fix_pre	0		41.0	27.0	2.5	blank	1.0	139.55990624427795	0.34151506423950195
29	84.34933710098267	response	0	2		27.0	2.5	blank	1.0	139.89330220222473	
29	84.35745620727539	movie	1		301.0	27.0	2.5	blank	1.0	139.90142130851746	2.5084609985351562
29	86.86591720581055	fix_post	2		12.0	27.0	2.5	blank	1.0	142.4098823070526	0.09995388984680176
30	86.96587109565735	fix_pre	0		91.0	28.0	2.5	/experiments/knapen_aot/videos/S_wc-_W9iefBXz8bi_23.mp4	0.0	142.5098361968994	0.7582499980926514
30	87.71596312522888	response	0	2		28.0	2.5	/experiments/knapen_aot/videos/S_wc-_W9iefBXz8bi_23.mp4	0.0	143.25992822647095	
30	87.72412109375	movie	1		162.0	28.0	2.5	/experiments/knapen_aot/videos/S_wc-_W9iefBXz8bi_23.mp4	0.0	143.26808619499207	2.508368968963623
30	90.23249006271362	fix_post	2		12.0	28.0	2.5	/experiments/knapen_aot/videos/S_wc-_W9iefBXz8bi_23.mp4	0.0	145.7764551639557	0.10001516342163086
31	90.33250522613525	fix_pre	0		65.0	29.0	2.5	/experiments/knapen_aot/videos/S_yt-R0gFQo85cAE_5.mp4	0.0	145.87647032737732	0.5416839122772217
31	90.86591005325317	response	0	2		29.0	2.5	/experiments/knapen_aot/videos/S_yt-R0gFQo85cAE_5.mp4	0.0	146.40987515449524	
31	90.87418913841248	movie	1		301.0	29.0	2.5	/experiments/knapen_aot/videos/S_yt-R0gFQo85cAE_5.mp4	0.0	146.41815423965454	2.5082929134368896
31	93.38248205184937	fix_post	2		12.0	29.0	2.5	/experiments/knapen_aot/videos/S_yt-R0gFQo85cAE_5.mp4	0.0	148.92644715309143	0.10003399848937988
32	93.48251605033875	fix_pre	0		62.0	30.0	2.5	/experiments/knapen_aot/videos/S_Xq0a2BWE3zA_53.mp4	0.0	149.0264811515808	0.516618013381958
32	93.9912760257721	response	0	2		30.0	2.5	/experiments/knapen_aot/videos/S_Xq0a2BWE3zA_53.mp4	0.0	149.53524112701416	
32	93.9991340637207	movie	1		301.0	30.0	2.5	/experiments/knapen_aot/videos/S_Xq0a2BWE3zA_53.mp4	0.0	149.54309916496277	2.5083611011505127
32	96.50749516487122	fix_post	2		12.0	30.0	2.5	/experiments/knapen_aot/videos/S_Xq0a2BWE3zA_53.mp4	0.0	152.05146026611328	0.10001993179321289
33	96.60751509666443	fix_pre	0		88.0	31.0	2.5	/experiments/knapen_aot/videos/R_S_comp_LW_L001_C006_PSNK_DENOISE_v02_SDR_PS_FINAL_20180709_SDR_2K_AVC.mp4	0.0	152.1514801979065	0.7333331108093262
33	97.33266401290894	response	0	2		31.0	2.5	/experiments/knapen_aot/videos/R_S_comp_LW_L001_C006_PSNK_DENOISE_v02_SDR_PS_FINAL_20180709_SDR_2K_AVC.mp4	0.0	152.876629114151	
33	97.34084820747375	movie	1		164.0	31.0	2.5	/experiments/knapen_aot/videos/R_S_comp_LW_L001_C006_PSNK_DENOISE_v02_SDR_PS_FINAL_20180709_SDR_2K_AVC.mp4	0.0	152.88481330871582	2.508340835571289
33	99.84918904304504	fix_post	2		12.0	31.0	2.5	/experiments/knapen_aot/videos/R_S_comp_LW_L001_C006_PSNK_DENOISE_v02_SDR_PS_FINAL_20180709_SDR_2K_AVC.mp4	0.0	155.3931541442871	0.1004171371459961
34	99.94960618019104	fix_pre	0		94.0	32.0	2.5	/experiments/knapen_aot/videos/R_S_production_ID_4101242.mp4	0.0	155.4935712814331	0.7828600406646729
34	100.72427606582642	response	0	2		32.0	2.5	/experiments/knapen_aot/videos/R_S_production_ID_4101242.mp4	0.0	156.26824116706848	
34	100.73246622085571	movie	1		204.0	32.0	2.5	/experiments/knapen_aot/videos/R_S_production_ID_4101242.mp4	0.0	156.27643132209778	2.5085649490356445
34	103.24103116989136	fix_post	2		12.0	32.0	2.5	/experiments/knapen_aot/videos/R_S_production_ID_4101242.mp4	0.0	158.78499627113342	0.09982991218566895
35	103.34086108207703	fix_pre	0		216.0	33.0	2.5	blank	1.0	158.8848261833191	1.799912929534912
35	105.1326310634613	response	0	2		33.0	2.5	blank	1.0	160.67659616470337	
35	105.14077401161194	movie	1		301.0	33.0	2.5	blank	1.0	160.684739112854	2.508453130722046
35	107.64922714233398	fix_post	2		12.0	33.0	2.5	blank	1.0	163.19319224357605	0.09993386268615723
36	107.74916100502014	fix_pre	0		43.0	34.0	2.5	/experiments/knapen_aot/videos/S_yt-O_6CyqHeJig_132.mp4	0.0	163.2931261062622	0.35820817947387695
36	108.09916710853577	response	0	2		34.0	2.5	/experiments/knapen_aot/videos/S_yt-O_6CyqHeJig_132.mp4	0.0	163.64313220977783	
36	108.10736918449402	movie	1		301.0	34.0	2.5	/experiments/knapen_aot/videos/S_yt-O_6CyqHeJig_132.mp4	0.0	163.65133428573608	2.508591890335083
36	110.6159610748291	fix_post	2		12.0	34.0	2.5	/experiments/knapen_aot/videos/S_yt-O_6CyqHeJig_132.mp4	0.0	166.15992617607117	0.09983992576599121
37	110.71580100059509	fix_pre	0		39.0	35.0	2.5	/experiments/knapen_aot/videos/S_yt-JVhfcpV7OaY_71.mp4	0.0	166.25976610183716	0.32495903968811035
37	111.0326771736145	response	0	2		35.0	2.5	/experiments/knapen_aot/videos/S_yt-JVhfcpV7OaY_71.mp4	0.0	166.57664227485657	
37	111.0407600402832	movie	1		301.0	35.0	2.5	/experiments/knapen_aot/videos/S_yt-JVhfcpV7OaY_71.mp4	0.0	166.58472514152527	2.5083141326904297
37	113.54907417297363	fix_post	2		12.0	35.0	2.5	/experiments/knapen_aot/videos/S_yt-JVhfcpV7OaY_71.mp4	0.0	169.0930392742157	0.10003304481506348
38	113.6491072177887	fix_pre	0		52.0	36.0	2.5	/experiments/knapen_aot/videos/R_S_ILSVRC2015_train_00704000.mp4	0.0	169.19307231903076	0.43339085578918457
38	114.0742552280426	response	0	2		36.0	2.5	/experiments/knapen_aot/videos/R_S_ILSVRC2015_train_00704000.mp4	0.0	169.61822032928467	
38	114.08249807357788	movie	1		301.0	36.0	2.5	/experiments/knapen_aot/videos/R_S_ILSVRC2015_train_00704000.mp4	0.0	169.62646317481995	2.5085511207580566
38	116.59104919433594	fix_post	2		12.0	36.0	2.5	/experiments/knapen_aot/videos/R_S_ILSVRC2015_train_00704000.mp4	0.0	172.135014295578	0.09991788864135742
39	116.6909670829773	fix_pre	0		47.0	37.0	2.5	/experiments/knapen_aot/videos/R_S_b1-3.mp4	0.0	172.23493218421936	0.3914170265197754
39	117.07421803474426	response	0	2		37.0	2.5	/experiments/knapen_aot/videos/R_S_b1-3.mp4	0.0	172.61818313598633	
39	117.08238410949707	movie	1		170.0	37.0	2.5	/experiments/knapen_aot/videos/R_S_b1-3.mp4	0.0	172.62634921073914	2.508342981338501
39	119.59072709083557	fix_post	2		12.0	37.0	2.5	/experiments/knapen_aot/videos/R_S_b1-3.mp4	0.0	175.13469219207764	0.09988093376159668
40	119.69060802459717	fix_pre	0		41.0	38.0	2.5	/experiments/knapen_aot/videos/R_S_yt-xrWo3lnbshw_80.mp4	0.0	175.23457312583923	0.34180498123168945
40	120.02418422698975	response	0	2		38.0	2.5	/experiments/knapen_aot/videos/R_S_yt-xrWo3lnbshw_80.mp4	0.0	175.5681493282318	
40	120.03241300582886	movie	1		301.0	38.0	2.5	/experiments/knapen_aot/videos/R_S_yt-xrWo3lnbshw_80.mp4	0.0	175.57637810707092	2.508310079574585
40	122.54072308540344	fix_post	2		12.0	38.0	2.5	/experiments/knapen_aot/videos/R_S_yt-xrWo3lnbshw_80.mp4	0.0	178.0846881866455	0.09993910789489746
41	122.64066219329834	fix_pre	0		29.0	39.0	2.5	/experiments/knapen_aot/videos/R_S_yt-lzXao6Reec4_14.mp4	0.0	178.1846272945404	0.24164199829101562
41	122.8741512298584	response	0	2		39.0	2.5	/experiments/knapen_aot/videos/R_S_yt-lzXao6Reec4_14.mp4	0.0	178.41811633110046	
41	122.88230419158936	movie	1		301.0	39.0	2.5	/experiments/knapen_aot/videos/R_S_yt-lzXao6Reec4_14.mp4	0.0	178.42626929283142	2.508553981781006
41	125.39085817337036	fix_post	2		12.0	39.0	2.5	/experiments/knapen_aot/videos/R_S_yt-lzXao6Reec4_14.mp4	0.0	180.93482327461243	0.09992599487304688
42	125.49078416824341	fix_pre	0		33.0	40.0	2.5	blank	1.0	181.03474926948547	0.2748539447784424
42	125.75745010375977	response	0	2		40.0	2.5	blank	1.0	181.30141520500183	
42	125.76563811302185	movie	1		301.0	40.0	2.5	blank	1.0	181.30960321426392	2.5083940029144287
42	128.27403211593628	fix_post	2		12.0	40.0	2.5	blank	1.0	183.81799721717834	0.10000491142272949
43	128.374037027359	fix_pre	0		68.0	41.0	2.5	/experiments/knapen_aot/videos/R_S_video_inspire_oregon_lone-ranch-beach_00021.1080-h264.mp4	0.0	183.91800212860107	0.5666210651397705
43	128.9324610233307	response	0	2		41.0	2.5	/experiments/knapen_aot/videos/R_S_video_inspire_oregon_lone-ranch-beach_00021.1080-h264.mp4	0.0	184.47642612457275	
43	128.94065809249878	movie	1		168.0	41.0	2.5	/experiments/knapen_aot/videos/R_S_video_inspire_oregon_lone-ranch-beach_00021.1080-h264.mp4	0.0	184.48462319374084	2.508664131164551
43	131.44932222366333	fix_post	2		12.0	41.0	2.5	/experiments/knapen_aot/videos/R_S_video_inspire_oregon_lone-ranch-beach_00021.1080-h264.mp4	0.0	186.9932873249054	0.09958577156066895
44	131.548907995224	fix_pre	0		35.0	42.0	2.5	/experiments/knapen_aot/videos/R_S_yt-Fdv-V--QlR0_117.mp4	0.0	187.09287309646606	0.2916741371154785
44	131.83244609832764	response	0	2		42.0	2.5	/experiments/knapen_aot/videos/R_S_yt-Fdv-V--QlR0_117.mp4	0.0	187.3764111995697	
44	131.84058213233948	movie	1		301.0	42.0	2.5	/experiments/knapen_aot/videos/R_S_yt-Fdv-V--QlR0_117.mp4	0.0	187.38454723358154	2.5084478855133057
44	134.34903001785278	fix_post	2		12.0	42.0	2.5	/experiments/knapen_aot/videos/R_S_yt-Fdv-V--QlR0_117.mp4	0.0	189.89299511909485	0.09996700286865234
45	134.44899702072144	fix_pre	0		62.0	43.0	2.5	/experiments/knapen_aot/videos/S_yt-83nimFMNhrM_131.mp4	0.0	189.9929621219635	0.5166270732879639
45	134.95738315582275	response	0	2		43.0	2.5	/experiments/knapen_aot/videos/S_yt-83nimFMNhrM_131.mp4	0.0	190.50134825706482	
45	134.9656240940094	movie	1		301.0	43.0	2.5	/experiments/knapen_aot/videos/S_yt-83nimFMNhrM_131.mp4	0.0	190.50958919525146	2.5083370208740234
45	137.47396111488342	fix_post	2		12.0	43.0	2.5	/experiments/knapen_aot/videos/S_yt-83nimFMNhrM_131.mp4	0.0	193.0179262161255	0.10011410713195801
46	137.57407522201538	fix_pre	0		63.0	44.0	2.5	/experiments/knapen_aot/videos/R_S_G009_C003_UHD_SDR_2K_AVC.mp4	0.0	193.11804032325745	0.5250070095062256
46	138.09069418907166	response	0	2		44.0	2.5	/experiments/knapen_aot/videos/R_S_G009_C003_UHD_SDR_2K_AVC.mp4	0.0	193.63465929031372	
46	138.0990822315216	movie	1		168.0	44.0	2.5	/experiments/knapen_aot/videos/R_S_G009_C003_UHD_SDR_2K_AVC.mp4	0.0	193.64304733276367	2.5082099437713623
46	140.60729217529297	fix_post	2		12.0	44.0	2.5	/experiments/knapen_aot/videos/R_S_G009_C003_UHD_SDR_2K_AVC.mp4	0.0	196.15125727653503	0.10000491142272949
47	140.7072970867157	fix_pre	0		40.0	45.0	2.5	/experiments/knapen_aot/videos/S_ILSVRC2015_train_00743005.mp4	0.0	196.25126218795776	0.33329105377197266
47	141.02504920959473	response	0	2		45.0	2.5	/experiments/knapen_aot/videos/S_ILSVRC2015_train_00743005.mp4	0.0	196.5690143108368	
47	141.04058814048767	movie	1		301.0	45.0	2.5	/experiments/knapen_aot/videos/S_ILSVRC2015_train_00743005.mp4	0.0	196.58455324172974	2.5084450244903564
47	143.54903316497803	fix_post	2		12.0	45.0	2.5	/experiments/knapen_aot/videos/S_ILSVRC2015_train_00743005.mp4	0.0	199.0929982662201	0.09994101524353027
48	143.64897418022156	fix_pre	0		44.0	46.0	2.5	/experiments/knapen_aot/videos/R_S_yt-LdHRVIb4nIE_6.mp4	0.0	199.19293928146362	0.3666388988494873
48	144.00743508338928	response	0	2		46.0	2.5	/experiments/knapen_aot/videos/R_S_yt-LdHRVIb4nIE_6.mp4	0.0	199.55140018463135	
48	144.01561307907104	movie	1		301.0	46.0	2.5	/experiments/knapen_aot/videos/R_S_yt-LdHRVIb4nIE_6.mp4	0.0	199.5595781803131	2.508424997329712
48	146.52403807640076	fix_post	2		12.0	46.0	2.5	/experiments/knapen_aot/videos/R_S_yt-LdHRVIb4nIE_6.mp4	0.0	202.06800317764282	0.09992408752441406
49	146.62396216392517	fix_pre	0		53.0	47.0	2.5	/experiments/knapen_aot/videos/S_yt-YLcmfyfIokU_64.mp4	0.0	202.16792726516724	0.44165492057800293
49	147.05740904808044	response	0	2		47.0	2.5	/experiments/knapen_aot/videos/S_yt-YLcmfyfIokU_64.mp4	0.0	202.6013741493225	
49	147.06561708450317	movie	1		301.0	47.0	2.5	/experiments/knapen_aot/videos/S_yt-YLcmfyfIokU_64.mp4	0.0	202.60958218574524	2.508336067199707
49	149.57395315170288	fix_post	2		12.0	47.0	2.5	/experiments/knapen_aot/videos/S_yt-YLcmfyfIokU_64.mp4	0.0	205.11791825294495	0.1000070571899414
50	149.67396020889282	fix_pre	0		44.0	48.0	2.5	/experiments/knapen_aot/videos/R_S_production_ID_5049072.mp4	0.0	205.2179253101349	0.3665759563446045
50	150.03239107131958	response	0	2		48.0	2.5	/experiments/knapen_aot/videos/R_S_production_ID_5049072.mp4	0.0	205.57635617256165	
50	150.04053616523743	movie	1		169.0	48.0	2.5	/experiments/knapen_aot/videos/R_S_production_ID_5049072.mp4	0.0	205.5845012664795	2.508450984954834
50	152.54898715019226	fix_post	2		12.0	48.0	2.5	/experiments/knapen_aot/videos/R_S_production_ID_5049072.mp4	0.0	208.09295225143433	0.09993505477905273
51	152.6489222049713	fix_pre	0		41.0	49.0	2.5	blank	1.0	208.19288730621338	0.34168386459350586
51	152.9824252128601	response	0	2		49.0	2.5	blank	1.0	208.52639031410217	
51	152.99060606956482	movie	1		301.0	49.0	2.5	blank	1.0	208.53457117080688	2.508312940597534
51	155.49891901016235	fix_post	2		12.0	49.0	2.5	blank	1.0	211.04288411140442	0.10004901885986328
52	155.59896802902222	fix_pre	0		55.0	50.0	2.5	/experiments/knapen_aot/videos/S_yt-PK-Eip9wFr0_24.mp4	0.0	211.14293313026428	0.4581789970397949
52	156.04892015457153	response	0	2		50.0	2.5	/experiments/knapen_aot/videos/S_yt-PK-Eip9wFr0_24.mp4	0.0	211.5928852558136	
52	156.057147026062	movie	1		301.0	50.0	2.5	/experiments/knapen_aot/videos/S_yt-PK-Eip9wFr0_24.mp4	0.0	211.60111212730408	2.508578062057495
52	158.5657250881195	fix_post	2		12.0	50.0	2.5	/experiments/knapen_aot/videos/S_yt-PK-Eip9wFr0_24.mp4	0.0	214.10969018936157	0.09987902641296387
53	158.66560411453247	fix_pre	0		63.0	51.0	2.5	/experiments/knapen_aot/videos/S_yt-XY1n_Oze1kQ_9.mp4	0.0	214.20956921577454	0.5262389183044434
53	159.18232703208923	response	0	2		51.0	2.5	/experiments/knapen_aot/videos/S_yt-XY1n_Oze1kQ_9.mp4	0.0	214.7262921333313	
53	159.1918430328369	movie	1		301.0	51.0	2.5	/experiments/knapen_aot/videos/S_yt-XY1n_Oze1kQ_9.mp4	0.0	214.73580813407898	2.507014036178589
53	161.6988570690155	fix_post	2		12.0	51.0	2.5	/experiments/knapen_aot/videos/S_yt-XY1n_Oze1kQ_9.mp4	0.0	217.24282217025757	0.1000509262084961
54	161.798907995224	fix_pre	0		66.0	52.0	2.5	/experiments/knapen_aot/videos/R_S_yt-mdLT282PVbE_6.mp4	0.0	217.34287309646606	0.5499532222747803
54	162.3406331539154	response	0	2		52.0	2.5	/experiments/knapen_aot/videos/R_S_yt-mdLT282PVbE_6.mp4	0.0	217.88459825515747	
54	162.34886121749878	movie	1		301.0	52.0	2.5	/experiments/knapen_aot/videos/R_S_yt-mdLT282PVbE_6.mp4	0.0	217.89282631874084	2.508340835571289
54	164.85720205307007	fix_post	2		12.0	52.0	2.5	/experiments/knapen_aot/videos/R_S_yt-mdLT282PVbE_6.mp4	0.0	220.40116715431213	0.09995198249816895
55	164.95715403556824	fix_pre	0		73.0	53.0	2.5	/experiments/knapen_aot/videos/R_S_production_ID_4325506.mp4	0.0	220.5011191368103	0.6097719669342041
55	165.55732822418213	response	0	2		53.0	2.5	/experiments/knapen_aot/videos/R_S_production_ID_4325506.mp4	0.0	221.1012933254242	
55	165.56692600250244	movie	1		201.0	53.0	2.5	/experiments/knapen_aot/videos/R_S_production_ID_4325506.mp4	0.0	221.1108911037445	2.507158041000366
55	168.0740840435028	fix_post	2		12.0	53.0	2.5	/experiments/knapen_aot/videos/R_S_production_ID_4325506.mp4	0.0	223.61804914474487	0.09986495971679688
56	168.1739490032196	fix_pre	0		42.0	54.0	2.5	/experiments/knapen_aot/videos/S_yt-xrPrnzvWUkY_7.mp4	0.0	223.71791410446167	0.34986400604248047
56	168.51549410820007	response	0	2		54.0	2.5	/experiments/knapen_aot/videos/S_yt-xrPrnzvWUkY_7.mp4	0.0	224.05945920944214	
56	168.52381300926208	movie	1		301.0	54.0	2.5	/experiments/knapen_aot/videos/S_yt-xrPrnzvWUkY_7.mp4	0.0	224.06777811050415	2.50835919380188
56	171.03217220306396	fix_post	2		12.0	54.0	2.5	/experiments/knapen_aot/videos/S_yt-xrPrnzvWUkY_7.mp4	0.0	226.57613730430603	0.10001587867736816
57	171.13218808174133	fix_pre	0		58.0	55.0	2.5	blank	1.0	226.6761531829834	0.48327112197875977
57	171.6072862148285	response	0	2		55.0	2.5	blank	1.0	227.15125131607056	
57	171.6154592037201	movie	1		301.0	55.0	2.5	blank	1.0	227.15942430496216	2.5083320140838623
57	174.12379121780396	fix_post	2		12.0	55.0	2.5	blank	1.0	229.66775631904602	0.10001397132873535
58	174.2238051891327	fix_pre	0		108.0	56.0	2.5	/experiments/knapen_aot/videos/R_S_yt-8gCfc-o3pyk_85.mp4	0.0	229.76777029037476	0.8999989032745361
58	175.1080892086029	response	0	2		56.0	2.5	/experiments/knapen_aot/videos/R_S_yt-8gCfc-o3pyk_85.mp4	0.0	230.65205430984497	
58	175.12380409240723	movie	1		301.0	56.0	2.5	/experiments/knapen_aot/videos/R_S_yt-8gCfc-o3pyk_85.mp4	0.0	230.6677691936493	2.5083141326904297
58	177.63211822509766	fix_post	2		12.0	56.0	2.5	/experiments/knapen_aot/videos/R_S_yt-8gCfc-o3pyk_85.mp4	0.0	233.17608332633972	0.09995293617248535
59	177.73207116127014	fix_pre	0		22.0	57.0	2.5	/experiments/knapen_aot/videos/R_S_production_ID_4584682.mp4	0.0	233.2760362625122	0.1833479404449463
59	177.90729117393494	response	0	2		57.0	2.5	/experiments/knapen_aot/videos/R_S_production_ID_4584682.mp4	0.0	233.451256275177	
59	177.9154191017151	movie	1		165.0	57.0	2.5	/experiments/knapen_aot/videos/R_S_production_ID_4584682.mp4	0.0	233.45938420295715	2.5083439350128174
59	180.4237630367279	fix_post	2		12.0	57.0	2.5	/experiments/knapen_aot/videos/R_S_production_ID_4584682.mp4	0.0	235.96772813796997	0.1000211238861084
60	180.523784160614	fix_pre	0		19.0	58.0	2.5	/experiments/knapen_aot/videos/S_pexels-cottonbro-6844209.mp4	0.0	236.06774926185608	0.15831398963928223
60	180.67391514778137	response	0	2		58.0	2.5	/experiments/knapen_aot/videos/S_pexels-cottonbro-6844209.mp4	0.0	236.21788024902344	
60	180.6820981502533	movie	1		198.0	58.0	2.5	/experiments/knapen_aot/videos/S_pexels-cottonbro-6844209.mp4	0.0	236.22606325149536	2.5083529949188232
60	183.19045114517212	fix_post	2		12.0	58.0	2.5	/experiments/knapen_aot/videos/S_pexels-cottonbro-6844209.mp4	0.0	238.73441624641418	0.09988093376159668
61	183.29033207893372	fix_pre	0		28.0	59.0	2.5	/experiments/knapen_aot/videos/R_S_ILSVRC2015_train_00457000.mp4	0.0	238.83429718017578	0.23452401161193848
61	183.51552820205688	response	0	2		59.0	2.5	/experiments/knapen_aot/videos/R_S_ILSVRC2015_train_00457000.mp4	0.0	239.05949330329895	
61	183.52485609054565	movie	1		301.0	59.0	2.5	/experiments/knapen_aot/videos/R_S_ILSVRC2015_train_00457000.mp4	0.0	239.06882119178772	2.5072219371795654
61	186.03207802772522	fix_post	2		12.0	59.0	2.5	/experiments/knapen_aot/videos/R_S_ILSVRC2015_train_00457000.mp4	0.0	241.57604312896729	0.10013699531555176
62	186.13221502304077	fix_pre	0		42.0	60.0	2.5	/experiments/knapen_aot/videos/R_S_yt-M8wvzt_BMXM_173.mp4	0.0	241.67618012428284	0.35100317001342773
62	186.47408509254456	response	0	2		60.0	2.5	/experiments/knapen_aot/videos/R_S_yt-M8wvzt_BMXM_173.mp4	0.0	242.01805019378662	
62	186.4832181930542	movie	1		301.0	60.0	2.5	/experiments/knapen_aot/videos/R_S_yt-M8wvzt_BMXM_173.mp4	0.0	242.02718329429626	2.507476806640625
62	188.99069499969482	fix_post	2		12.0	60.0	2.5	/experiments/knapen_aot/videos/R_S_yt-M8wvzt_BMXM_173.mp4	0.0	244.5346601009369	0.0997161865234375
63	189.09041118621826	fix_pre	0		48.0	61.0	2.5	blank	1.0	244.63437628746033	0.39998483657836914
63	189.48222422599792	response	0	2		61.0	2.5	blank	1.0	245.02618932724	
63	189.49039602279663	movie	1		301.0	61.0	2.5	blank	1.0	245.0343611240387	2.5083541870117188
63	191.99875020980835	fix_post	2		12.0	61.0	2.5	blank	1.0	247.54271531105042	0.0999917984008789
64	192.09874200820923	fix_pre	0		35.0	62.0	2.5	/experiments/knapen_aot/videos/S_yt-s73Xqkcq9Js_285.mp4	0.0	247.6427071094513	0.29160213470458984
64	192.38229823112488	response	0	2		62.0	2.5	/experiments/knapen_aot/videos/S_yt-s73Xqkcq9Js_285.mp4	0.0	247.92626333236694	
64	192.39034414291382	movie	1		301.0	62.0	2.5	/experiments/knapen_aot/videos/S_yt-s73Xqkcq9Js_285.mp4	0.0	247.93430924415588	2.5083959102630615
64	194.89874005317688	fix_post	2		12.0	62.0	2.5	/experiments/knapen_aot/videos/S_yt-s73Xqkcq9Js_285.mp4	0.0	250.44270515441895	0.09997296333312988
65	194.99871301651	fix_pre	0		54.0	63.0	2.5	/experiments/knapen_aot/videos/R_S_yt-Ndwek2tpIOA_169.mp4	0.0	250.54267811775208	0.4499330520629883
65	195.4404740333557	response	0	2		63.0	2.5	/experiments/knapen_aot/videos/R_S_yt-Ndwek2tpIOA_169.mp4	0.0	250.98443913459778	
65	195.448646068573	movie	1		301.0	63.0	2.5	/experiments/knapen_aot/videos/R_S_yt-Ndwek2tpIOA_169.mp4	0.0	250.99261116981506	2.508392095565796
65	197.9570381641388	fix_post	2		12.0	63.0	2.5	/experiments/knapen_aot/videos/R_S_yt-Ndwek2tpIOA_169.mp4	0.0	253.50100326538086	0.10001993179321289
66	198.057058095932	fix_pre	0		38.0	64.0	2.5	/experiments/knapen_aot/videos/S_yt-8LO59eN9om4_16.mp4	0.0	253.60102319717407	0.3165309429168701
66	198.36546421051025	response	0	2		64.0	2.5	/experiments/knapen_aot/videos/S_yt-8LO59eN9om4_16.mp4	0.0	253.90942931175232	
66	198.37358903884888	movie	1		301.0	64.0	2.5	/experiments/knapen_aot/videos/S_yt-8LO59eN9om4_16.mp4	0.0	253.91755414009094	2.508357048034668
66	200.88194608688354	fix_post	2		12.0	64.0	2.5	/experiments/knapen_aot/videos/S_yt-8LO59eN9om4_16.mp4	0.0	256.4259111881256	0.10011911392211914
67	200.98206520080566	fix_pre	0		50.0	65.0	2.5	/experiments/knapen_aot/videos/R_S_yt-1sn8u-rQRas_7.mp4	0.0	256.52603030204773	0.4176328182220459
67	201.39051914215088	response	0	2		65.0	2.5	/experiments/knapen_aot/videos/R_S_yt-1sn8u-rQRas_7.mp4	0.0	256.93448424339294	
67	201.3996980190277	movie	1		301.0	65.0	2.5	/experiments/knapen_aot/videos/R_S_yt-1sn8u-rQRas_7.mp4	0.0	256.9436631202698	2.50727915763855
67	203.90697717666626	fix_post	2		12.0	65.0	2.5	/experiments/knapen_aot/videos/R_S_yt-1sn8u-rQRas_7.mp4	0.0	259.4509422779083	0.10001683235168457
68	204.00699400901794	fix_pre	0		37.0	66.0	2.5	/experiments/knapen_aot/videos/R_S_Y005_C003_SDR_2K_AVC.mp4	0.0	259.55095911026	0.3093550205230713
68	204.30708813667297	response	0	2		66.0	2.5	/experiments/knapen_aot/videos/R_S_Y005_C003_SDR_2K_AVC.mp4	0.0	259.85105323791504	
68	204.31634902954102	movie	1		165.0	66.0	2.5	/experiments/knapen_aot/videos/R_S_Y005_C003_SDR_2K_AVC.mp4	0.0	259.8603141307831	2.5072391033172607
68	206.82358813285828	fix_post	2		12.0	66.0	2.5	/experiments/knapen_aot/videos/R_S_Y005_C003_SDR_2K_AVC.mp4	0.0	262.36755323410034	0.10011506080627441
69	206.92370319366455	fix_pre	0		115.0	67.0	2.5	/experiments/knapen_aot/videos/R_S_ILSVRC2015_train_00042002.mp4	0.0	262.4676682949066	0.9582178592681885
69	207.87384009361267	response	0	2		67.0	2.5	/experiments/knapen_aot/videos/R_S_ILSVRC2015_train_00042002.mp4	0.0	263.41780519485474	
69	207.88192105293274	movie	1		301.0	67.0	2.5	/experiments/knapen_aot/videos/R_S_ILSVRC2015_train_00042002.mp4	0.0	263.4258861541748	2.508402109146118
69	210.39032316207886	fix_post	2		12.0	67.0	2.5	/experiments/knapen_aot/videos/R_S_ILSVRC2015_train_00042002.mp4	0.0	265.9342882633209	0.09996986389160156
70	210.49029302597046	fix_pre	0		35.0	68.0	2.5	/experiments/knapen_aot/videos/S_wc-_W9iefBXz8bi_23.mp4	0.0	266.0342581272125	0.2916140556335449
70	210.7737820148468	response	0	2		68.0	2.5	/experiments/knapen_aot/videos/S_wc-_W9iefBXz8bi_23.mp4	0.0	266.31774711608887	
70	210.781907081604	movie	1		163.0	68.0	2.5	/experiments/knapen_aot/videos/S_wc-_W9iefBXz8bi_23.mp4	0.0	266.32587218284607	2.5085039138793945
70	213.2904109954834	fix_post	2		12.0	68.0	2.5	/experiments/knapen_aot/videos/S_wc-_W9iefBXz8bi_23.mp4	0.0	268.83437609672546	0.09987616539001465
71	213.3902871608734	fix_pre	0		48.0	69.0	2.5	blank	1.0	268.9342522621155	0.39994192123413086
71	213.78207516670227	response	0	2		69.0	2.5	blank	1.0	269.32604026794434	
71	213.79022908210754	movie	1		301.0	69.0	2.5	blank	1.0	269.3341941833496	2.5083439350128174
71	216.29857301712036	fix_post	2		12.0	69.0	2.5	blank	1.0	271.8425381183624	0.10006403923034668
72	216.3986370563507	fix_pre	0		68.0	70.0	2.5	/experiments/knapen_aot/videos/S_yt-qBPDvSQD0XY_5.mp4	0.0	271.9426021575928	0.5666069984436035
72	216.95692801475525	response	0	2		70.0	2.5	/experiments/knapen_aot/videos/S_yt-qBPDvSQD0XY_5.mp4	0.0	272.5008931159973	
72	216.9652440547943	movie	1		301.0	70.0	2.5	/experiments/knapen_aot/videos/S_yt-qBPDvSQD0XY_5.mp4	0.0	272.5092091560364	2.508411169052124
72	219.47365522384644	fix_post	2		12.0	70.0	2.5	/experiments/knapen_aot/videos/S_yt-qBPDvSQD0XY_5.mp4	0.0	275.0176203250885	0.09997892379760742
73	219.57363414764404	fix_pre	0		44.0	71.0	2.5	/experiments/knapen_aot/videos/R_S_pexels-cottonbro-9063801.mp4	0.0	275.1175992488861	0.36764097213745117
73	219.93210005760193	response	0	2		71.0	2.5	/experiments/knapen_aot/videos/R_S_pexels-cottonbro-9063801.mp4	0.0	275.476065158844	
73	219.9412751197815	movie	1		199.0	71.0	2.5	/experiments/knapen_aot/videos/R_S_pexels-cottonbro-9063801.mp4	0.0	275.48524022102356	2.507335901260376
73	222.44861102104187	fix_post	2		12.0	71.0	2.5	/experiments/knapen_aot/videos/R_S_pexels-cottonbro-9063801.mp4	0.0	277.99257612228394	0.10003018379211426
74	222.54864120483398	fix_pre	0		33.0	72.0	2.5	/experiments/knapen_aot/videos/S_yt-VbKGc8N_29.mp4	0.0	278.09260630607605	0.27491092681884766
74	222.81536722183228	response	0	2		72.0	2.5	/experiments/knapen_aot/videos/S_yt-VbKGc8N_29.mp4	0.0	278.35933232307434	
74	222.82355213165283	movie	1		301.0	72.0	2.5	/experiments/knapen_aot/videos/S_yt-VbKGc8N_29.mp4	0.0	278.3675172328949	2.508352041244507
74	225.33190417289734	fix_post	2		12.0	72.0	2.5	/experiments/knapen_aot/videos/S_yt-VbKGc8N_29.mp4	0.0	280.8758692741394	0.09999299049377441
75	225.4318971633911	fix_pre	0		26.0	73.0	2.5	/experiments/knapen_aot/videos/R_S_production_ID_5139371.mp4	0.0	280.9758622646332	0.21764087677001953
75	225.64035606384277	response	0	2		73.0	2.5	/experiments/knapen_aot/videos/R_S_production_ID_5139371.mp4	0.0	281.18432116508484	
75	225.64953804016113	movie	1		169.0	73.0	2.5	/experiments/knapen_aot/videos/R_S_production_ID_5139371.mp4	0.0	281.1935031414032	2.5073580741882324
75	228.15689611434937	fix_post	2		12.0	73.0	2.5	/experiments/knapen_aot/videos/R_S_production_ID_5139371.mp4	0.0	283.70086121559143	0.1000208854675293
76	228.2569169998169	fix_pre	0		37.0	74.0	2.5	/experiments/knapen_aot/videos/R_S_yt-uE9XoCLZlFo_1.mp4	0.0	283.80088210105896	0.3092050552368164
76	228.55705404281616	response	0	2		74.0	2.5	/experiments/knapen_aot/videos/R_S_yt-uE9XoCLZlFo_1.mp4	0.0	284.1010191440582	
76	228.5661220550537	movie	1		301.0	74.0	2.5	/experiments/knapen_aot/videos/R_S_yt-uE9XoCLZlFo_1.mp4	0.0	284.1100871562958	2.507388114929199
76	231.0735101699829	fix_post	2		12.0	74.0	2.5	/experiments/knapen_aot/videos/R_S_yt-uE9XoCLZlFo_1.mp4	0.0	286.617475271225	0.10013294219970703
77	231.17364311218262	fix_pre	0		23.0	75.0	2.5	/experiments/knapen_aot/videos/R_S_pexels-cottonbro-6789228.mp4	0.0	286.7176082134247	0.19150495529174805
77	231.35698318481445	response	0	2		75.0	2.5	/experiments/knapen_aot/videos/R_S_pexels-cottonbro-6789228.mp4	0.0	286.9009482860565	
77	231.36514806747437	movie	1		207.0	75.0	2.5	/experiments/knapen_aot/videos/R_S_pexels-cottonbro-6789228.mp4	0.0	286.90911316871643	2.508549928665161
77	233.87369799613953	fix_post	2		12.0	75.0	2.5	/experiments/knapen_aot/videos/R_S_pexels-cottonbro-6789228.mp4	0.0	289.4176630973816	0.09982705116271973
78	233.97352504730225	fix_pre	0		36.0	76.0	2.5	blank	1.0	289.5174901485443	0.3011460304260254
78	234.26534008979797	response	0	2		76.0	2.5	blank	1.0	289.80930519104004	
78	234.27467107772827	movie	1		301.0	76.0	2.5	blank	1.0	289.81863617897034	2.5072009563446045
78	236.78187203407288	fix_post	2		12.0	76.0	2.5	blank	1.0	292.32583713531494	0.09990310668945312
79	236.88177514076233	fix_pre	0		33.0	77.0	2.5	/experiments/knapen_aot/videos/S_yt-xWCPbUQc-vg_7.mp4	0.0	292.4257402420044	0.2749779224395752
79	237.14857506752014	response	0	2		77.0	2.5	/experiments/knapen_aot/videos/S_yt-xWCPbUQc-vg_7.mp4	0.0	292.6925401687622	
79	237.1567530632019	movie	1		301.0	77.0	2.5	/experiments/knapen_aot/videos/S_yt-xWCPbUQc-vg_7.mp4	0.0	292.70071816444397	2.5083680152893066
79	239.6651210784912	fix_post	2		12.0	77.0	2.5	/experiments/knapen_aot/videos/S_yt-xWCPbUQc-vg_7.mp4	0.0	295.2090861797333	0.1000680923461914
80	239.7651891708374	fix_pre	0		21.0	78.0	2.5	/experiments/knapen_aot/videos/S_video_inspire_texas_pecos_foggy-landscape_00018.1080-h264.mp4	0.0	295.30915427207947	0.17585492134094238
80	239.93197512626648	response	0	2		78.0	2.5	/experiments/knapen_aot/videos/S_video_inspire_texas_pecos_foggy-landscape_00018.1080-h264.mp4	0.0	295.47594022750854	
80	239.94104409217834	movie	1		165.0	78.0	2.5	/experiments/knapen_aot/videos/S_video_inspire_texas_pecos_foggy-landscape_00018.1080-h264.mp4	0.0	295.4850091934204	2.5074450969696045
80	242.44848918914795	fix_post	2		12.0	78.0	2.5	/experiments/knapen_aot/videos/S_video_inspire_texas_pecos_foggy-landscape_00018.1080-h264.mp4	0.0	297.99245429039	0.09996986389160156
81	242.54845905303955	fix_pre	0		36.0	79.0	2.5	/experiments/knapen_aot/videos/R_S_MEX_A006_C008_SDR_20190923_SDR_2K_AVC.mp4	0.0	298.0924241542816	0.300037145614624
81	242.84029507637024	response	0	2		79.0	2.5	/experiments/knapen_aot/videos/R_S_MEX_A006_C008_SDR_20190923_SDR_2K_AVC.mp4	0.0	298.3842601776123	
81	242.84849619865417	movie	1		172.0	79.0	2.5	/experiments/knapen_aot/videos/R_S_MEX_A006_C008_SDR_20190923_SDR_2K_AVC.mp4	0.0	298.39246129989624	2.508312940597534
81	245.3568091392517	fix_post	2		12.0	79.0	2.5	/experiments/knapen_aot/videos/R_S_MEX_A006_C008_SDR_20190923_SDR_2K_AVC.mp4	0.0	300.9007742404938	0.09999608993530273
82	245.456805229187	fix_pre	0		29.0	80.0	2.5	/experiments/knapen_aot/videos/R_S_production_ID_4101309.mp4	0.0	301.0007703304291	0.2416517734527588
82	245.69024109840393	response	0	2		80.0	2.5	/experiments/knapen_aot/videos/R_S_production_ID_4101309.mp4	0.0	301.234206199646	
82	245.69845700263977	movie	1		190.0	80.0	2.5	/experiments/knapen_aot/videos/R_S_production_ID_4101309.mp4	0.0	301.24242210388184	2.5083160400390625
82	248.20677304267883	fix_post	2		12.0	80.0	2.5	/experiments/knapen_aot/videos/R_S_production_ID_4101309.mp4	0.0	303.7507381439209	0.09998011589050293
83	248.30675315856934	fix_pre	0		34.0	81.0	2.5	/experiments/knapen_aot/videos/S_production_ID_4101225.mp4	0.0	303.8507182598114	0.28334498405456543
83	248.58184599876404	response	0	2		81.0	2.5	/experiments/knapen_aot/videos/S_production_ID_4101225.mp4	0.0	304.1258111000061	
83	248.5900981426239	movie	1		194.0	81.0	2.5	/experiments/knapen_aot/videos/S_production_ID_4101225.mp4	0.0	304.13406324386597	2.508401870727539
83	251.09850001335144	fix_post	2		12.0	81.0	2.5	/experiments/knapen_aot/videos/S_production_ID_4101225.mp4	0.0	306.6424651145935	0.09999299049377441
84	251.19849300384521	fix_pre	0		33.0	82.0	2.5	/experiments/knapen_aot/videos/R_S_yt-tX3slAQb9yY_13.mp4	0.0	306.7424581050873	0.27504801750183105
84	251.46530508995056	response	0	2		82.0	2.5	/experiments/knapen_aot/videos/R_S_yt-tX3slAQb9yY_13.mp4	0.0	307.0092701911926	
84	251.47354102134705	movie	1		301.0	82.0	2.5	/experiments/knapen_aot/videos/R_S_yt-tX3slAQb9yY_13.mp4	0.0	307.0175061225891	2.5084869861602783
84	253.98202800750732	fix_post	2		12.0	82.0	2.5	/experiments/knapen_aot/videos/R_S_yt-tX3slAQb9yY_13.mp4	0.0	309.5259931087494	0.09973502159118652
85	254.0817630290985	fix_pre	0		57.0	83.0	2.5	blank	1.0	309.6257281303406	0.4749901294708252
85	254.54862713813782	response	0	2		83.0	2.5	blank	1.0	310.0925922393799	
85	254.55675315856934	movie	1		301.0	83.0	2.5	blank	1.0	310.1007182598114	2.508405923843384
85	257.0651590824127	fix_post	2		12.0	83.0	2.5	blank	1.0	312.6091241836548	0.10003805160522461
87	257.16519713401794	stim	0		58.0					312.70916223526	0.4839820861816406
87	257.6405122280121	response	0	space						313.18447732925415	
