trial_nr	onset	event_type	phase	response	nr_frames	movie_index	movie_duration	movie_file	blank	onset_abs	duration
0	0.13664984703063965	stim	0		10.0					58.02172088623047	0.08524608612060547
0	0.2116379737854004	response	0	space						58.09670901298523	
1	0.22189593315124512	stim	0		121.0					58.106966972351074	1.0063588619232178
1	0.828298807144165	response	0	space						58.713369846343994	
1	1.228254795074463	stim	1		120.0					59.11332583427429	0.9996671676635742
1	1.5278708934783936	response	1	space						59.41294193267822	
2	2.227921962738037	fix_pre	0		24.0	0.0	2.5	/experiments/knapen_aot/videos/R_S_yt--C2DDZ7LOQA_95.mp4	0.0	60.112993001937866	0.19983696937561035
2	2.4195878505706787	response	0	space		0.0	2.5	/experiments/knapen_aot/videos/R_S_yt--C2DDZ7LOQA_95.mp4	0.0	60.30465888977051	
2	2.4277589321136475	movie	1		301.0	0.0	2.5	/experiments/knapen_aot/videos/R_S_yt--C2DDZ7LOQA_95.mp4	0.0	60.31282997131348	2.508349895477295
2	4.936108827590942	fix_post	2		12.0	0.0	2.5	/experiments/knapen_aot/videos/R_S_yt--C2DDZ7LOQA_95.mp4	0.0	62.82117986679077	0.10007905960083008
3	5.0361878871917725	fix_pre	0		64.0	1.0	2.5	/experiments/knapen_aot/videos/S_yt-ROhKDdF1gV4_21.mp4	0.0	62.9212589263916	0.533390998840332
3	5.561814785003662	response	0	2		1.0	2.5	/experiments/knapen_aot/videos/S_yt-ROhKDdF1gV4_21.mp4	0.0	63.44688582420349	
3	5.5695788860321045	movie	1		301.0	1.0	2.5	/experiments/knapen_aot/videos/S_yt-ROhKDdF1gV4_21.mp4	0.0	63.454649925231934	2.508212089538574
3	8.077790975570679	fix_post	2		12.0	1.0	2.5	/experiments/knapen_aot/videos/S_yt-ROhKDdF1gV4_21.mp4	0.0	65.96286201477051	0.10001683235168457
4	8.177807807922363	fix_pre	0		39.0	2.0	2.5	/experiments/knapen_aot/videos/R_S_flickr-reginahart-31964450591_23.mp4	0.0	66.06287884712219	0.32493019104003906
4	8.494666814804077	response	0	2		2.0	2.5	/experiments/knapen_aot/videos/R_S_flickr-reginahart-31964450591_23.mp4	0.0	66.3797378540039	
4	8.502737998962402	movie	1		172.0	2.0	2.5	/experiments/knapen_aot/videos/R_S_flickr-reginahart-31964450591_23.mp4	0.0	66.38780903816223	2.5083768367767334
4	11.011114835739136	fix_post	2		12.0	2.0	2.5	/experiments/knapen_aot/videos/R_S_flickr-reginahart-31964450591_23.mp4	0.0	68.89618587493896	0.0999460220336914
5	11.111060857772827	fix_pre	0		23.0	3.0	2.5	/experiments/knapen_aot/videos/R_S_yt-ILARvS15SDQ_741.mp4	0.0	68.99613189697266	0.1916959285736084
5	11.294529914855957	response	0	2		3.0	2.5	/experiments/knapen_aot/videos/R_S_yt-ILARvS15SDQ_741.mp4	0.0	69.17960095405579	
5	11.302756786346436	movie	1		301.0	3.0	2.5	/experiments/knapen_aot/videos/R_S_yt-ILARvS15SDQ_741.mp4	0.0	69.18782782554626	2.5083680152893066
5	13.811124801635742	fix_post	2		12.0	3.0	2.5	/experiments/knapen_aot/videos/R_S_yt-ILARvS15SDQ_741.mp4	0.0	71.69619584083557	0.0999600887298584
6	13.9110848903656	fix_pre	0		45.0	4.0	2.5	/experiments/knapen_aot/videos/S_yt-P8vJa4YVcGU_488.mp4	0.0	71.79615592956543	0.37502408027648926
6	14.270440816879272	response	0	2		4.0	2.5	/experiments/knapen_aot/videos/S_yt-P8vJa4YVcGU_488.mp4	0.0	72.1555118560791	
6	14.28610897064209	movie	1		301.0	4.0	2.5	/experiments/knapen_aot/videos/S_yt-P8vJa4YVcGU_488.mp4	0.0	72.17118000984192	2.5083279609680176
6	16.794436931610107	fix_post	2		12.0	4.0	2.5	/experiments/knapen_aot/videos/S_yt-P8vJa4YVcGU_488.mp4	0.0	74.67950797080994	0.10003399848937988
7	16.894470930099487	fix_pre	0		51.0	5.0	2.5	/experiments/knapen_aot/videos/S_yt-HoRtvVuuvOs_5.mp4	0.0	74.77954196929932	0.4249100685119629
7	17.311192989349365	response	0	2		5.0	2.5	/experiments/knapen_aot/videos/S_yt-HoRtvVuuvOs_5.mp4	0.0	75.1962640285492	
7	17.31938099861145	movie	1		301.0	5.0	2.5	/experiments/knapen_aot/videos/S_yt-HoRtvVuuvOs_5.mp4	0.0	75.20445203781128	2.5083768367767334
7	19.827757835388184	fix_post	2		12.0	5.0	2.5	/experiments/knapen_aot/videos/S_yt-HoRtvVuuvOs_5.mp4	0.0	77.71282887458801	0.10001802444458008
8	19.927775859832764	fix_pre	0		27.0	6.0	2.5	blank	1.0	77.81284689903259	0.22499799728393555
8	20.144494771957397	response	0	2		6.0	2.5	blank	1.0	78.02956581115723	
8	20.1527738571167	movie	1		301.0	6.0	2.5	blank	1.0	78.03784489631653	2.5083200931549072
8	22.661093950271606	fix_post	2		12.0	6.0	2.5	blank	1.0	80.54616498947144	0.10001802444458008
9	22.761111974716187	fix_pre	0		54.0	7.0	2.5	/experiments/knapen_aot/videos/R_S_production_ID_5049072.mp4	0.0	80.64618301391602	0.44989585876464844
9	23.195382833480835	response	0	2		7.0	2.5	/experiments/knapen_aot/videos/R_S_production_ID_5049072.mp4	0.0	81.08045387268066	
9	23.211007833480835	movie	1		164.0	7.0	2.5	/experiments/knapen_aot/videos/R_S_production_ID_5049072.mp4	0.0	81.09607887268066	2.508427143096924
9	25.71943497657776	fix_post	2		12.0	7.0	2.5	/experiments/knapen_aot/videos/R_S_production_ID_5049072.mp4	0.0	83.60450601577759	0.0999598503112793
10	25.819394826889038	fix_pre	0		61.0	8.0	2.5	/experiments/knapen_aot/videos/S_yt-vY49oIv_dWg_73.mp4	0.0	83.70446586608887	0.5083410739898682
10	26.319525957107544	response	0	2		8.0	2.5	/experiments/knapen_aot/videos/S_yt-vY49oIv_dWg_73.mp4	0.0	84.20459699630737	
10	26.327735900878906	movie	1		301.0	8.0	2.5	/experiments/knapen_aot/videos/S_yt-vY49oIv_dWg_73.mp4	0.0	84.21280694007874	2.5083279609680176
10	28.836063861846924	fix_post	2		12.0	8.0	2.5	/experiments/knapen_aot/videos/S_yt-vY49oIv_dWg_73.mp4	0.0	86.72113490104675	0.1000211238861084
11	28.936084985733032	fix_pre	0		37.0	9.0	2.5	/experiments/knapen_aot/videos/S_yt-cokedWwwYYs_136.mp4	0.0	86.82115602493286	0.3083028793334961
11	29.236167907714844	response	0	2		9.0	2.5	/experiments/knapen_aot/videos/S_yt-cokedWwwYYs_136.mp4	0.0	87.12123894691467	
11	29.24438786506653	movie	1		301.0	9.0	2.5	/experiments/knapen_aot/videos/S_yt-cokedWwwYYs_136.mp4	0.0	87.12945890426636	2.50833797454834
11	31.752725839614868	fix_post	2		12.0	9.0	2.5	/experiments/knapen_aot/videos/S_yt-cokedWwwYYs_136.mp4	0.0	89.6377968788147	0.09998607635498047
12	31.85271191596985	fix_pre	0		46.0	10.0	2.5	/experiments/knapen_aot/videos/R_S_yt-fGN7sGPy8BA_13.mp4	0.0	89.73778295516968	0.38332486152648926
12	32.22781181335449	response	0	2		10.0	2.5	/experiments/knapen_aot/videos/R_S_yt-fGN7sGPy8BA_13.mp4	0.0	90.11288285255432	
12	32.23603677749634	movie	1		301.0	10.0	2.5	/experiments/knapen_aot/videos/R_S_yt-fGN7sGPy8BA_13.mp4	0.0	90.12110781669617	2.5083250999450684
12	34.744361877441406	fix_post	2		12.0	10.0	2.5	/experiments/knapen_aot/videos/R_S_yt-fGN7sGPy8BA_13.mp4	0.0	92.62943291664124	0.1000211238861084
13	34.844383001327515	fix_pre	0		33.0	11.0	2.5	/experiments/knapen_aot/videos/S_yt-rY_ra5Tb9XU_51.mp4	0.0	92.72945404052734	0.27487897872924805
13	35.111159801483154	response	0	2		11.0	2.5	/experiments/knapen_aot/videos/S_yt-rY_ra5Tb9XU_51.mp4	0.0	92.99623084068298	
13	35.11926198005676	movie	1		301.0	11.0	2.5	/experiments/knapen_aot/videos/S_yt-rY_ra5Tb9XU_51.mp4	0.0	93.00433301925659	2.50833797454834
13	37.6275999546051	fix_post	2		12.0	11.0	2.5	/experiments/knapen_aot/videos/S_yt-rY_ra5Tb9XU_51.mp4	0.0	95.51267099380493	0.10009098052978516
14	37.72769093513489	fix_pre	0		46.0	12.0	2.5	blank	1.0	95.61276197433472	0.38332486152648926
14	38.102789878845215	response	0	2		12.0	2.5	blank	1.0	95.98786091804504	
14	38.11101579666138	movie	1		301.0	12.0	2.5	blank	1.0	95.9960868358612	2.508331060409546
14	40.61934685707092	fix_post	2		12.0	12.0	2.5	blank	1.0	98.50441789627075	0.0999910831451416
15	40.719337940216064	fix_pre	0		54.0	13.0	2.5	/experiments/knapen_aot/videos/S_b6-4.mp4	0.0	98.6044089794159	0.4500129222869873
15	41.16110277175903	response	0	2		13.0	2.5	/experiments/knapen_aot/videos/S_b6-4.mp4	0.0	99.04617381095886	
15	41.16935086250305	movie	1		165.0	13.0	2.5	/experiments/knapen_aot/videos/S_b6-4.mp4	0.0	99.05442190170288	2.508363962173462
15	43.677714824676514	fix_post	2		12.0	13.0	2.5	/experiments/knapen_aot/videos/S_b6-4.mp4	0.0	101.56278586387634	0.0999460220336914
16	43.777660846710205	fix_pre	0		39.0	14.0	2.5	/experiments/knapen_aot/videos/S_pexels-koolshooters-7689098.mp4	0.0	101.66273188591003	0.32550811767578125
16	44.09435677528381	response	0	2		14.0	2.5	/experiments/knapen_aot/videos/S_pexels-koolshooters-7689098.mp4	0.0	101.97942781448364	
16	44.103168964385986	movie	1		165.0	14.0	2.5	/experiments/knapen_aot/videos/S_pexels-koolshooters-7689098.mp4	0.0	101.98824000358582	2.507843017578125
16	46.61101198196411	fix_post	2		12.0	14.0	2.5	/experiments/knapen_aot/videos/S_pexels-koolshooters-7689098.mp4	0.0	104.49608302116394	0.09997391700744629
17	46.71098589897156	fix_pre	0		37.0	15.0	2.5	/experiments/knapen_aot/videos/R_S_yt-lGQ3wMI5-Yg_140.mp4	0.0	104.59605693817139	0.30893898010253906
17	47.011114835739136	response	0	2		15.0	2.5	/experiments/knapen_aot/videos/R_S_yt-lGQ3wMI5-Yg_140.mp4	0.0	104.89618587493896	
17	47.0199248790741	movie	1		301.0	15.0	2.5	/experiments/knapen_aot/videos/R_S_yt-lGQ3wMI5-Yg_140.mp4	0.0	104.90499591827393	2.5077879428863525
17	49.52771282196045	fix_post	2		12.0	15.0	2.5	/experiments/knapen_aot/videos/R_S_yt-lGQ3wMI5-Yg_140.mp4	0.0	107.41278386116028	0.09986996650695801
18	49.62758278846741	fix_pre	0		32.0	16.0	2.5	/experiments/knapen_aot/videos/R_S_yt-hDYtYKUsVE4_120.mp4	0.0	107.51265382766724	0.2672140598297119
18	49.88605093955994	response	0	2		16.0	2.5	/experiments/knapen_aot/videos/R_S_yt-hDYtYKUsVE4_120.mp4	0.0	107.77112197875977	
18	49.89479684829712	movie	1		301.0	16.0	2.5	/experiments/knapen_aot/videos/R_S_yt-hDYtYKUsVE4_120.mp4	0.0	107.77986788749695	2.5078210830688477
18	52.40261793136597	fix_post	2		12.0	16.0	2.5	/experiments/knapen_aot/videos/R_S_yt-hDYtYKUsVE4_120.mp4	0.0	110.2876889705658	0.10000896453857422
19	52.50262689590454	fix_pre	0		37.0	17.0	2.5	/experiments/knapen_aot/videos/S_yt-rY_ra5Tb9XU_51.mp4	0.0	110.38769793510437	0.3088960647583008
19	52.80274677276611	response	0	2		17.0	2.5	/experiments/knapen_aot/videos/S_yt-rY_ra5Tb9XU_51.mp4	0.0	110.68781781196594	
19	52.81152296066284	movie	1		301.0	17.0	2.5	/experiments/knapen_aot/videos/S_yt-rY_ra5Tb9XU_51.mp4	0.0	110.69659399986267	2.5078790187835693
19	55.31940197944641	fix_post	2		12.0	17.0	2.5	/experiments/knapen_aot/videos/S_yt-rY_ra5Tb9XU_51.mp4	0.0	113.20447301864624	0.0998380184173584
20	55.41923999786377	fix_pre	0		51.0	18.0	2.5	/experiments/knapen_aot/videos/S_EFR8AteY59I_15.mp4	0.0	113.3043110370636	0.42504096031188965
20	55.82853984832764	response	0	2		18.0	2.5	/experiments/knapen_aot/videos/S_EFR8AteY59I_15.mp4	0.0	113.71361088752747	
20	55.84428095817566	movie	1		301.0	18.0	2.5	/experiments/knapen_aot/videos/S_EFR8AteY59I_15.mp4	0.0	113.72935199737549	2.508359909057617
20	58.352640867233276	fix_post	2		12.0	18.0	2.5	/experiments/knapen_aot/videos/S_EFR8AteY59I_15.mp4	0.0	116.2377119064331	0.10000491142272949
21	58.452645778656006	fix_pre	0		53.0	19.0	2.5	/experiments/knapen_aot/videos/R_S_yt-ROhKDdF1gV4_21.mp4	0.0	116.33771681785583	0.4420461654663086
21	58.8860399723053	response	0	2		19.0	2.5	/experiments/knapen_aot/videos/R_S_yt-ROhKDdF1gV4_21.mp4	0.0	116.77111101150513	
21	58.894691944122314	movie	1		301.0	19.0	2.5	/experiments/knapen_aot/videos/R_S_yt-ROhKDdF1gV4_21.mp4	0.0	116.77976298332214	2.5079898834228516
21	61.402681827545166	fix_post	2		12.0	19.0	2.5	/experiments/knapen_aot/videos/R_S_yt-ROhKDdF1gV4_21.mp4	0.0	119.287752866745	0.09992504119873047
22	61.5026068687439	fix_pre	0		36.0	20.0	2.5	blank	1.0	119.38767790794373	0.3000221252441406
22	61.794349908828735	response	0	2		20.0	2.5	blank	1.0	119.67942094802856	
22	61.80262899398804	movie	1		301.0	20.0	2.5	blank	1.0	119.68770003318787	2.508302927017212
22	64.31093192100525	fix_post	2		12.0	20.0	2.5	blank	1.0	122.19600296020508	0.09992003440856934
23	64.41085195541382	fix_pre	0		48.0	21.0	2.5	/experiments/knapen_aot/videos/S_yt-SCzpSxzt0TA_46.mp4	0.0	122.29592299461365	0.40056586265563965
23	64.80272793769836	response	0	2		21.0	2.5	/experiments/knapen_aot/videos/S_yt-SCzpSxzt0TA_46.mp4	0.0	122.6877989768982	
23	64.81141781806946	movie	1		301.0	21.0	2.5	/experiments/knapen_aot/videos/S_yt-SCzpSxzt0TA_46.mp4	0.0	122.69648885726929	2.5079801082611084
23	67.31939792633057	fix_post	2		12.0	21.0	2.5	/experiments/knapen_aot/videos/S_yt-SCzpSxzt0TA_46.mp4	0.0	125.2044689655304	0.09985089302062988
24	67.4192488193512	fix_pre	0		62.0	22.0	2.5	/experiments/knapen_aot/videos/S_yt-e1RAhIW6WAs_535.mp4	0.0	125.30431985855103	0.5170331001281738
24	67.92763781547546	response	0	2		22.0	2.5	/experiments/knapen_aot/videos/S_yt-e1RAhIW6WAs_535.mp4	0.0	125.8127088546753	
24	67.93628191947937	movie	1		300.0	22.0	2.5	/experiments/knapen_aot/videos/S_yt-e1RAhIW6WAs_535.mp4	0.0	125.8213529586792	2.5079550743103027
24	70.44423699378967	fix_post	2		12.0	22.0	2.5	/experiments/knapen_aot/videos/S_yt-e1RAhIW6WAs_535.mp4	0.0	128.3293080329895	0.10001778602600098
25	70.54425477981567	fix_pre	0		81.0	23.0	2.5	/experiments/knapen_aot/videos/S_yt-PaxmJhMoP3w_87.mp4	0.0	128.4293258190155	0.6749601364135742
25	71.21103596687317	response	0	2		23.0	2.5	/experiments/knapen_aot/videos/S_yt-PaxmJhMoP3w_87.mp4	0.0	129.096107006073	
25	71.21921491622925	movie	1		301.0	23.0	2.5	/experiments/knapen_aot/videos/S_yt-PaxmJhMoP3w_87.mp4	0.0	129.10428595542908	2.508347988128662
25	73.72756290435791	fix_post	2		12.0	23.0	2.5	/experiments/knapen_aot/videos/S_yt-PaxmJhMoP3w_87.mp4	0.0	131.61263394355774	0.09993600845336914
26	73.82749891281128	fix_pre	0		44.0	24.0	2.5	/experiments/knapen_aot/videos/S_comp_A050_C004_1027V8_v16_SDR_FINAL_20180706_SDR_2K_AVC.mp4	0.0	131.7125699520111	0.36677098274230957
26	74.18604493141174	response	0	2		24.0	2.5	/experiments/knapen_aot/videos/S_comp_A050_C004_1027V8_v16_SDR_FINAL_20180706_SDR_2K_AVC.mp4	0.0	132.07111597061157	
26	74.19426989555359	movie	1		168.0	24.0	2.5	/experiments/knapen_aot/videos/S_comp_A050_C004_1027V8_v16_SDR_FINAL_20180706_SDR_2K_AVC.mp4	0.0	132.07934093475342	2.5082778930664062
26	76.70254778862	fix_post	2		12.0	24.0	2.5	/experiments/knapen_aot/videos/S_comp_A050_C004_1027V8_v16_SDR_FINAL_20180706_SDR_2K_AVC.mp4	0.0	134.58761882781982	0.10001516342163086
27	76.80256295204163	fix_pre	0		73.0	25.0	2.5	/experiments/knapen_aot/videos/R_S_yt-XBAU3cq0rZs_150.mp4	0.0	134.68763399124146	0.6082499027252197
27	77.40268898010254	response	0	2		25.0	2.5	/experiments/knapen_aot/videos/R_S_yt-XBAU3cq0rZs_150.mp4	0.0	135.28776001930237	
27	77.41081285476685	movie	1		301.0	25.0	2.5	/experiments/knapen_aot/videos/R_S_yt-XBAU3cq0rZs_150.mp4	0.0	135.29588389396667	2.508430004119873
27	79.91924285888672	fix_post	2		12.0	25.0	2.5	/experiments/knapen_aot/videos/R_S_yt-XBAU3cq0rZs_150.mp4	0.0	137.80431389808655	0.09991002082824707
28	80.01915287971497	fix_pre	0		48.0	26.0	2.5	blank	1.0	137.9042239189148	0.4000699520111084
28	80.41095185279846	response	0	2		26.0	2.5	blank	1.0	138.2960228919983	
28	80.41922283172607	movie	1		301.0	26.0	2.5	blank	1.0	138.3042938709259	2.5082859992980957
28	82.92750883102417	fix_post	2		12.0	26.0	2.5	blank	1.0	140.812579870224	0.10015010833740234
29	83.02765893936157	fix_pre	0		60.0	27.0	2.5	/experiments/knapen_aot/videos/R_S_ILSVRC2015_train_00451000.mp4	0.0	140.9127299785614	0.4998610019683838
29	83.51916193962097	response	0	2		27.0	2.5	/experiments/knapen_aot/videos/R_S_ILSVRC2015_train_00451000.mp4	0.0	141.4042329788208	
29	83.52751994132996	movie	1		301.0	27.0	2.5	/experiments/knapen_aot/videos/R_S_ILSVRC2015_train_00451000.mp4	0.0	141.41259098052979	2.5083539485931396
29	86.0358738899231	fix_post	2		12.0	27.0	2.5	/experiments/knapen_aot/videos/R_S_ILSVRC2015_train_00451000.mp4	0.0	143.92094492912292	0.10003900527954102
30	86.13591289520264	fix_pre	0		42.0	28.0	2.5	/experiments/knapen_aot/videos/S_yt-nMWqezngycw_10.mp4	0.0	144.02098393440247	0.3498520851135254
30	86.47758984565735	response	0	2		28.0	2.5	/experiments/knapen_aot/videos/S_yt-nMWqezngycw_10.mp4	0.0	144.36266088485718	
30	86.48576498031616	movie	1		301.0	28.0	2.5	/experiments/knapen_aot/videos/S_yt-nMWqezngycw_10.mp4	0.0	144.370836019516	2.5084028244018555
30	88.99416780471802	fix_post	2		12.0	28.0	2.5	/experiments/knapen_aot/videos/S_yt-nMWqezngycw_10.mp4	0.0	146.87923884391785	0.10002613067626953
31	89.09419393539429	fix_pre	0		40.0	29.0	2.5	/experiments/knapen_aot/videos/R_S_yt-xqHrTtvFFIs_3.mp4	0.0	146.97926497459412	0.33331298828125
31	89.41929578781128	response	0	2		29.0	2.5	/experiments/knapen_aot/videos/R_S_yt-xqHrTtvFFIs_3.mp4	0.0	147.3043668270111	
31	89.42750692367554	movie	1		301.0	29.0	2.5	/experiments/knapen_aot/videos/R_S_yt-xqHrTtvFFIs_3.mp4	0.0	147.31257796287537	2.5083088874816895
31	91.93581581115723	fix_post	2		12.0	29.0	2.5	/experiments/knapen_aot/videos/R_S_yt-xqHrTtvFFIs_3.mp4	0.0	149.82088685035706	0.09994912147521973
32	92.03576493263245	fix_pre	0		37.0	30.0	2.5	/experiments/knapen_aot/videos/R_S_yt-TqVe93JCGmM_12.mp4	0.0	149.92083597183228	0.3083310127258301
32	92.33593487739563	response	0	2		30.0	2.5	/experiments/knapen_aot/videos/R_S_yt-TqVe93JCGmM_12.mp4	0.0	150.22100591659546	
32	92.34409594535828	movie	1		301.0	30.0	2.5	/experiments/knapen_aot/videos/R_S_yt-TqVe93JCGmM_12.mp4	0.0	150.2291669845581	2.508388042449951
32	94.85248398780823	fix_post	2		12.0	30.0	2.5	/experiments/knapen_aot/videos/R_S_yt-TqVe93JCGmM_12.mp4	0.0	152.73755502700806	0.1000068187713623
33	94.95249080657959	fix_pre	0		50.0	31.0	2.5	/experiments/knapen_aot/videos/R_S_DL_B002_C011_SDR_20191122_SDR_2K_AVC.mp4	0.0	152.83756184577942	0.4165811538696289
33	95.36090397834778	response	0	2		31.0	2.5	/experiments/knapen_aot/videos/R_S_DL_B002_C011_SDR_20191122_SDR_2K_AVC.mp4	0.0	153.2459750175476	
33	95.36907196044922	movie	1		164.0	31.0	2.5	/experiments/knapen_aot/videos/R_S_DL_B002_C011_SDR_20191122_SDR_2K_AVC.mp4	0.0	153.25414299964905	2.508535861968994
33	97.87760782241821	fix_post	2		12.0	31.0	2.5	/experiments/knapen_aot/videos/R_S_DL_B002_C011_SDR_20191122_SDR_2K_AVC.mp4	0.0	155.76267886161804	0.1004030704498291
34	97.97801089286804	fix_pre	0		37.0	32.0	2.5	/experiments/knapen_aot/videos/R_S_yt-UzWRbs9Syf4_7.mp4	0.0	155.86308193206787	0.30775904655456543
34	98.27759194374084	response	0	2		32.0	2.5	/experiments/knapen_aot/videos/R_S_yt-UzWRbs9Syf4_7.mp4	0.0	156.16266298294067	
34	98.28576993942261	movie	1		301.0	32.0	2.5	/experiments/knapen_aot/videos/R_S_yt-UzWRbs9Syf4_7.mp4	0.0	156.17084097862244	2.508391857147217
34	100.79416179656982	fix_post	2		12.0	32.0	2.5	/experiments/knapen_aot/videos/R_S_yt-UzWRbs9Syf4_7.mp4	0.0	158.67923283576965	0.09998798370361328
35	100.89414978027344	fix_pre	0		31.0	33.0	2.5	blank	1.0	158.77922081947327	0.2583591938018799
35	101.14431285858154	response	0	2		33.0	2.5	blank	1.0	159.02938389778137	
35	101.15250897407532	movie	1		301.0	33.0	2.5	blank	1.0	159.03758001327515	2.5083248615264893
35	103.6608338356018	fix_post	2		12.0	33.0	2.5	blank	1.0	161.54590487480164	0.0999901294708252
36	103.76082396507263	fix_pre	0		48.0	34.0	2.5	/experiments/knapen_aot/videos/R_S_yt-GI8BEHw2Lq8_3.mp4	0.0	161.64589500427246	0.4000849723815918
36	104.15259289741516	response	0	2		34.0	2.5	/experiments/knapen_aot/videos/R_S_yt-GI8BEHw2Lq8_3.mp4	0.0	162.037663936615	
36	104.16090893745422	movie	1		301.0	34.0	2.5	/experiments/knapen_aot/videos/R_S_yt-GI8BEHw2Lq8_3.mp4	0.0	162.04597997665405	2.508236885070801
36	106.66914582252502	fix_post	2		12.0	34.0	2.5	/experiments/knapen_aot/videos/R_S_yt-GI8BEHw2Lq8_3.mp4	0.0	164.55421686172485	0.10042595863342285
37	106.76957178115845	fix_pre	0		30.0	35.0	2.5	/experiments/knapen_aot/videos/R_S_yt-vY49oIv_dWg_73.mp4	0.0	164.65464282035828	0.24970102310180664
37	107.01087999343872	response	0	2		35.0	2.5	/experiments/knapen_aot/videos/R_S_yt-vY49oIv_dWg_73.mp4	0.0	164.89595103263855	
37	107.01927280426025	movie	1		301.0	35.0	2.5	/experiments/knapen_aot/videos/R_S_yt-vY49oIv_dWg_73.mp4	0.0	164.90434384346008	2.5081961154937744
37	109.52746891975403	fix_post	2		12.0	35.0	2.5	/experiments/knapen_aot/videos/R_S_yt-vY49oIv_dWg_73.mp4	0.0	167.41253995895386	0.09990191459655762
38	109.62737083435059	fix_pre	0		44.0	36.0	2.5	/experiments/knapen_aot/videos/S_yt-IC62JSYpq9w_71.mp4	0.0	167.51244187355042	0.3666820526123047
38	109.98601579666138	response	0	2		36.0	2.5	/experiments/knapen_aot/videos/S_yt-IC62JSYpq9w_71.mp4	0.0	167.8710868358612	
38	109.99405288696289	movie	1		301.0	36.0	2.5	/experiments/knapen_aot/videos/S_yt-IC62JSYpq9w_71.mp4	0.0	167.87912392616272	2.508331060409546
38	112.50238394737244	fix_post	2		12.0	36.0	2.5	/experiments/knapen_aot/videos/S_yt-IC62JSYpq9w_71.mp4	0.0	170.38745498657227	0.10051798820495605
39	112.60290193557739	fix_pre	0		29.0	37.0	2.5	/experiments/knapen_aot/videos/R_S_yt-McqS-QObQbk_122.mp4	0.0	170.48797297477722	0.2412710189819336
39	112.83586382865906	response	0	2		37.0	2.5	/experiments/knapen_aot/videos/R_S_yt-McqS-QObQbk_122.mp4	0.0	170.7209348678589	
39	112.84417295455933	movie	1		301.0	37.0	2.5	/experiments/knapen_aot/videos/R_S_yt-McqS-QObQbk_122.mp4	0.0	170.72924399375916	2.508527994155884
39	115.35270094871521	fix_post	2		12.0	37.0	2.5	/experiments/knapen_aot/videos/R_S_yt-McqS-QObQbk_122.mp4	0.0	173.23777198791504	0.09972190856933594
40	115.45242285728455	fix_pre	0		29.0	38.0	2.5	/experiments/knapen_aot/videos/R_S_yt-XbigWWtnGL4_75.mp4	0.0	173.33749389648438	0.24166512489318848
40	115.68590998649597	response	0	2		38.0	2.5	/experiments/knapen_aot/videos/R_S_yt-XbigWWtnGL4_75.mp4	0.0	173.5709810256958	
40	115.69408798217773	movie	1		301.0	38.0	2.5	/experiments/knapen_aot/videos/R_S_yt-XbigWWtnGL4_75.mp4	0.0	173.57915902137756	2.508370876312256
40	118.20245885848999	fix_post	2		12.0	38.0	2.5	/experiments/knapen_aot/videos/R_S_yt-XbigWWtnGL4_75.mp4	0.0	176.08752989768982	0.10000991821289062
41	118.30246877670288	fix_pre	0		35.0	39.0	2.5	/experiments/knapen_aot/videos/R_S_yt-QFGyhhr1KSQ_9.mp4	0.0	176.1875398159027	0.29160499572753906
41	118.58587884902954	response	0	2		39.0	2.5	/experiments/knapen_aot/videos/R_S_yt-QFGyhhr1KSQ_9.mp4	0.0	176.47094988822937	
41	118.59407377243042	movie	1		301.0	39.0	2.5	/experiments/knapen_aot/videos/R_S_yt-QFGyhhr1KSQ_9.mp4	0.0	176.47914481163025	2.508540153503418
41	121.10261392593384	fix_post	2		12.0	39.0	2.5	/experiments/knapen_aot/videos/R_S_yt-QFGyhhr1KSQ_9.mp4	0.0	178.98768496513367	0.09969401359558105
42	121.20230793952942	fix_pre	0		34.0	40.0	2.5	/experiments/knapen_aot/videos/S_yt--5ls65Ue1RA_52.mp4	0.0	179.08737897872925	0.2833688259124756
42	121.47747993469238	response	0	2		40.0	2.5	/experiments/knapen_aot/videos/S_yt--5ls65Ue1RA_52.mp4	0.0	179.3625509738922	
42	121.4856767654419	movie	1		301.0	40.0	2.5	/experiments/knapen_aot/videos/S_yt--5ls65Ue1RA_52.mp4	0.0	179.37074780464172	2.508385181427002
42	123.9940619468689	fix_post	2		12.0	40.0	2.5	/experiments/knapen_aot/videos/S_yt--5ls65Ue1RA_52.mp4	0.0	181.87913298606873	0.09990596771240234
43	124.0939679145813	fix_pre	0		57.0	41.0	2.5	/experiments/knapen_aot/videos/S_yt-2XRGfGc0q44_37.mp4	0.0	181.97903895378113	0.4750039577484131
43	124.5608479976654	response	0	2		41.0	2.5	/experiments/knapen_aot/videos/S_yt-2XRGfGc0q44_37.mp4	0.0	182.44591903686523	
43	124.56897187232971	movie	1		301.0	41.0	2.5	/experiments/knapen_aot/videos/S_yt-2XRGfGc0q44_37.mp4	0.0	182.45404291152954	2.5083351135253906
43	127.0773069858551	fix_post	2		12.0	41.0	2.5	/experiments/knapen_aot/videos/S_yt-2XRGfGc0q44_37.mp4	0.0	184.96237802505493	0.10011982917785645
44	127.17742681503296	fix_pre	0		45.0	42.0	2.5	blank	1.0	185.0624978542328	0.37493109703063965
44	127.5441370010376	response	0	2		42.0	2.5	blank	1.0	185.42920804023743	
44	127.5523579120636	movie	1		301.0	42.0	2.5	blank	1.0	185.43742895126343	2.508455991744995
44	130.0608139038086	fix_post	2		12.0	42.0	2.5	blank	1.0	187.94588494300842	0.09988689422607422
45	130.16070079803467	fix_pre	0		46.0	43.0	2.5	/experiments/knapen_aot/videos/R_S_yt-ycQy_fHCK-U_8.mp4	0.0	188.0457718372345	0.38330698013305664
45	130.53566098213196	response	0	2		43.0	2.5	/experiments/knapen_aot/videos/R_S_yt-ycQy_fHCK-U_8.mp4	0.0	188.4207320213318	
45	130.54400777816772	movie	1		301.0	43.0	2.5	/experiments/knapen_aot/videos/R_S_yt-ycQy_fHCK-U_8.mp4	0.0	188.42907881736755	2.508449077606201
45	133.05245685577393	fix_post	2		12.0	43.0	2.5	/experiments/knapen_aot/videos/R_S_yt-ycQy_fHCK-U_8.mp4	0.0	190.93752789497375	0.09984993934631348
46	133.15230679512024	fix_pre	0		38.0	44.0	2.5	/experiments/knapen_aot/videos/R_S_dnLAfffA-kU_53.mp4	0.0	191.03737783432007	0.3166391849517822
46	133.45330286026	response	0	2		44.0	2.5	/experiments/knapen_aot/videos/R_S_dnLAfffA-kU_53.mp4	0.0	191.33837389945984	
46	133.46894598007202	movie	1		301.0	44.0	2.5	/experiments/knapen_aot/videos/R_S_dnLAfffA-kU_53.mp4	0.0	191.35401701927185	2.5084569454193115
46	135.97740292549133	fix_post	2		12.0	44.0	2.5	/experiments/knapen_aot/videos/R_S_dnLAfffA-kU_53.mp4	0.0	193.86247396469116	0.0999760627746582
47	136.077378988266	fix_pre	0		39.0	45.0	2.5	/experiments/knapen_aot/videos/R_S_yt-GfPep7IhZIU_47.mp4	0.0	193.96245002746582	0.32488298416137695
47	136.39412879943848	response	0	2		45.0	2.5	/experiments/knapen_aot/videos/R_S_yt-GfPep7IhZIU_47.mp4	0.0	194.2791998386383	
47	136.40226197242737	movie	1		301.0	45.0	2.5	/experiments/knapen_aot/videos/R_S_yt-GfPep7IhZIU_47.mp4	0.0	194.2873330116272	2.5084118843078613
47	138.91067385673523	fix_post	2		12.0	45.0	2.5	/experiments/knapen_aot/videos/R_S_yt-GfPep7IhZIU_47.mp4	0.0	196.79574489593506	0.09999394416809082
48	139.01066780090332	fix_pre	0		23.0	46.0	2.5	/experiments/knapen_aot/videos/R_S_yt-AOP7QYQntPI_28.mp4	0.0	196.89573884010315	0.19162607192993164
48	139.19414377212524	response	0	2		46.0	2.5	/experiments/knapen_aot/videos/R_S_yt-AOP7QYQntPI_28.mp4	0.0	197.07921481132507	
48	139.20229387283325	movie	1		301.0	46.0	2.5	/experiments/knapen_aot/videos/R_S_yt-AOP7QYQntPI_28.mp4	0.0	197.08736491203308	2.5083420276641846
48	141.71063590049744	fix_post	2		12.0	46.0	2.5	/experiments/knapen_aot/videos/R_S_yt-AOP7QYQntPI_28.mp4	0.0	199.59570693969727	0.10046505928039551
49	141.81110095977783	fix_pre	0		22.0	47.0	2.5	blank	1.0	199.69617199897766	0.18290996551513672
49	141.98575592041016	response	0	2		47.0	2.5	blank	1.0	199.87082695960999	
49	141.99401092529297	movie	1		301.0	47.0	2.5	blank	1.0	199.8790819644928	2.508363962173462
49	144.50237488746643	fix_post	2		12.0	47.0	2.5	blank	1.0	202.38744592666626	0.0999460220336914
50	144.60232090950012	fix_pre	0		82.0	48.0	2.5	/experiments/knapen_aot/videos/R_S_yt-m8HxO_-RRq0_127.mp4	0.0	202.48739194869995	0.6832559108734131
50	145.27737092971802	response	0	2		48.0	2.5	/experiments/knapen_aot/videos/R_S_yt-m8HxO_-RRq0_127.mp4	0.0	203.16244196891785	
50	145.28557682037354	movie	1		301.0	48.0	2.5	/experiments/knapen_aot/videos/R_S_yt-m8HxO_-RRq0_127.mp4	0.0	203.17064785957336	2.5084309577941895
50	147.79400777816772	fix_post	2		12.0	48.0	2.5	/experiments/knapen_aot/videos/R_S_yt-m8HxO_-RRq0_127.mp4	0.0	205.67907881736755	0.10003209114074707
51	147.89403986930847	fix_pre	0		35.0	49.0	2.5	/experiments/knapen_aot/videos/S_yt-fjOsq03OC2c_188.mp4	0.0	205.7791109085083	0.2915520668029785
51	148.17744088172913	response	0	2		49.0	2.5	/experiments/knapen_aot/videos/S_yt-fjOsq03OC2c_188.mp4	0.0	206.06251192092896	
51	148.18559193611145	movie	1		301.0	49.0	2.5	/experiments/knapen_aot/videos/S_yt-fjOsq03OC2c_188.mp4	0.0	206.07066297531128	2.508430004119873
51	150.69402194023132	fix_post	2		12.0	49.0	2.5	/experiments/knapen_aot/videos/S_yt-fjOsq03OC2c_188.mp4	0.0	208.57909297943115	0.09993290901184082
52	150.79395484924316	fix_pre	0		39.0	50.0	2.5	/experiments/knapen_aot/videos/R_S_yt-giRwl4yChlw_9.mp4	0.0	208.679025888443	0.3249850273132324
52	151.1032099723816	response	0	2		50.0	2.5	/experiments/knapen_aot/videos/R_S_yt-giRwl4yChlw_9.mp4	0.0	208.98828101158142	
52	151.1189398765564	movie	1		300.0	50.0	2.5	/experiments/knapen_aot/videos/R_S_yt-giRwl4yChlw_9.mp4	0.0	209.00401091575623	2.508344888687134
52	153.62728476524353	fix_post	2		12.0	50.0	2.5	/experiments/knapen_aot/videos/R_S_yt-giRwl4yChlw_9.mp4	0.0	211.51235580444336	0.10004210472106934
53	153.7273268699646	fix_pre	0		51.0	51.0	2.5	/experiments/knapen_aot/videos/R_S_yt-nMWqezngycw_10.mp4	0.0	211.61239790916443	0.42492103576660156
53	154.14397883415222	response	0	2		51.0	2.5	/experiments/knapen_aot/videos/R_S_yt-nMWqezngycw_10.mp4	0.0	212.02904987335205	
53	154.1522479057312	movie	1		301.0	51.0	2.5	/experiments/knapen_aot/videos/R_S_yt-nMWqezngycw_10.mp4	0.0	212.03731894493103	2.508328914642334
53	156.66057682037354	fix_post	2		12.0	51.0	2.5	/experiments/knapen_aot/videos/R_S_yt-nMWqezngycw_10.mp4	0.0	214.54564785957336	0.10015106201171875
54	156.76072788238525	fix_pre	0		36.0	52.0	2.5	/experiments/knapen_aot/videos/R_S_yt-2XRGfGc0q44_37.mp4	0.0	214.64579892158508	0.2998170852661133
54	157.05233883857727	response	0	2		52.0	2.5	/experiments/knapen_aot/videos/R_S_yt-2XRGfGc0q44_37.mp4	0.0	214.9374098777771	
54	157.06054496765137	movie	1		301.0	52.0	2.5	/experiments/knapen_aot/videos/R_S_yt-2XRGfGc0q44_37.mp4	0.0	214.9456160068512	2.5083580017089844
54	159.56890296936035	fix_post	2		12.0	52.0	2.5	/experiments/knapen_aot/videos/R_S_yt-2XRGfGc0q44_37.mp4	0.0	217.45397400856018	0.10000395774841309
55	159.66890692710876	fix_pre	0		43.0	53.0	2.5	/experiments/knapen_aot/videos/R_S_wc-_W9iefBXz8bi_23.mp4	0.0	217.5539779663086	0.35827183723449707
55	160.01902890205383	response	0	2		53.0	2.5	/experiments/knapen_aot/videos/R_S_wc-_W9iefBXz8bi_23.mp4	0.0	217.90409994125366	
55	160.02717876434326	movie	1		164.0	53.0	2.5	/experiments/knapen_aot/videos/R_S_wc-_W9iefBXz8bi_23.mp4	0.0	217.9122498035431	2.5083980560302734
55	162.53557682037354	fix_post	2		12.0	53.0	2.5	/experiments/knapen_aot/videos/R_S_wc-_W9iefBXz8bi_23.mp4	0.0	220.42064785957336	0.10003209114074707
56	162.63560891151428	fix_pre	0		44.0	54.0	2.5	blank	1.0	220.5206799507141	0.36660099029541016
56	162.9940538406372	response	0	2		54.0	2.5	blank	1.0	220.87912487983704	
56	163.0022099018097	movie	1		301.0	54.0	2.5	blank	1.0	220.88728094100952	2.5083580017089844
56	165.51056790351868	fix_post	2		12.0	54.0	2.5	blank	1.0	223.3956389427185	0.09995102882385254
57	165.61051893234253	fix_pre	0		51.0	55.0	2.5	/experiments/knapen_aot/videos/R_S_yt-Jro_TRE8NUQ_234.mp4	0.0	223.49558997154236	0.4250049591064453
57	166.01979088783264	response	0	2		55.0	2.5	/experiments/knapen_aot/videos/R_S_yt-Jro_TRE8NUQ_234.mp4	0.0	223.90486192703247	
57	166.03552389144897	movie	1		301.0	55.0	2.5	/experiments/knapen_aot/videos/R_S_yt-Jro_TRE8NUQ_234.mp4	0.0	223.9205949306488	2.5083680152893066
57	168.54389190673828	fix_post	2		12.0	55.0	2.5	/experiments/knapen_aot/videos/R_S_yt-Jro_TRE8NUQ_234.mp4	0.0	226.4289629459381	0.0999910831451416
58	168.64388298988342	fix_pre	0		57.0	56.0	2.5	/experiments/knapen_aot/videos/R_S_ILSVRC2015_train_00447000.mp4	0.0	226.52895402908325	0.47498083114624023
58	169.1105659008026	response	0	2		56.0	2.5	/experiments/knapen_aot/videos/R_S_ILSVRC2015_train_00447000.mp4	0.0	226.99563694000244	
58	169.11886382102966	movie	1		301.0	56.0	2.5	/experiments/knapen_aot/videos/R_S_ILSVRC2015_train_00447000.mp4	0.0	227.0039348602295	2.508392095565796
58	171.62725591659546	fix_post	2		12.0	56.0	2.5	/experiments/knapen_aot/videos/R_S_ILSVRC2015_train_00447000.mp4	0.0	229.5123269557953	0.09995007514953613
59	171.727205991745	fix_pre	0		40.0	57.0	2.5	/experiments/knapen_aot/videos/S_yt-mdLT282PVbE_6.mp4	0.0	229.61227703094482	0.33326196670532227
59	172.05244398117065	response	0	2		57.0	2.5	/experiments/knapen_aot/videos/S_yt-mdLT282PVbE_6.mp4	0.0	229.93751502037048	
59	172.06046795845032	movie	1		301.0	57.0	2.5	/experiments/knapen_aot/videos/S_yt-mdLT282PVbE_6.mp4	0.0	229.94553899765015	2.508363962173462
59	174.56883192062378	fix_post	2		12.0	57.0	2.5	/experiments/knapen_aot/videos/S_yt-mdLT282PVbE_6.mp4	0.0	232.4539029598236	0.1000819206237793
60	174.66891384124756	fix_pre	0		41.0	58.0	2.5	/experiments/knapen_aot/videos/R_S_yt-ycQy_fHCK-U_8.mp4	0.0	232.5539848804474	0.34282898902893066
60	175.00235390663147	response	0	2		58.0	2.5	/experiments/knapen_aot/videos/R_S_yt-ycQy_fHCK-U_8.mp4	0.0	232.8874249458313	
60	175.0117428302765	movie	1		301.0	58.0	2.5	/experiments/knapen_aot/videos/R_S_yt-ycQy_fHCK-U_8.mp4	0.0	232.89681386947632	2.5071310997009277
60	177.51887392997742	fix_post	2		12.0	58.0	2.5	/experiments/knapen_aot/videos/R_S_yt-ycQy_fHCK-U_8.mp4	0.0	235.40394496917725	0.09993791580200195
61	177.61881184577942	fix_pre	0		50.0	59.0	2.5	/experiments/knapen_aot/videos/R_S_production_ID_5182928.mp4	0.0	235.50388288497925	0.41671299934387207
61	178.0272879600525	response	0	2		59.0	2.5	/experiments/knapen_aot/videos/R_S_production_ID_5182928.mp4	0.0	235.91235899925232	
61	178.0355248451233	movie	1		171.0	59.0	2.5	/experiments/knapen_aot/videos/R_S_production_ID_5182928.mp4	0.0	235.92059588432312	2.5083770751953125
61	180.5439019203186	fix_post	2		12.0	59.0	2.5	/experiments/knapen_aot/videos/R_S_production_ID_5182928.mp4	0.0	238.42897295951843	0.09996199607849121
62	180.6438639163971	fix_pre	0		89.0	60.0	2.5	/experiments/knapen_aot/videos/S_yt-z16pdVTZK1o_3.mp4	0.0	238.52893495559692	0.742919921875
62	181.3773169517517	response	0	2		60.0	2.5	/experiments/knapen_aot/videos/S_yt-z16pdVTZK1o_3.mp4	0.0	239.26238799095154	
62	181.3867838382721	movie	1		301.0	60.0	2.5	/experiments/knapen_aot/videos/S_yt-z16pdVTZK1o_3.mp4	0.0	239.27185487747192	2.5070040225982666
62	183.89378786087036	fix_post	2		12.0	60.0	2.5	/experiments/knapen_aot/videos/S_yt-z16pdVTZK1o_3.mp4	0.0	241.7788589000702	0.10020613670349121
63	183.99399399757385	fix_pre	0		47.0	61.0	2.5	/experiments/knapen_aot/videos/S_yt-fjOsq03OC2c_188.mp4	0.0	241.87906503677368	0.3926889896392822
63	184.37735199928284	response	0	2		61.0	2.5	/experiments/knapen_aot/videos/S_yt-fjOsq03OC2c_188.mp4	0.0	242.26242303848267	
63	184.38668298721313	movie	1		301.0	61.0	2.5	/experiments/knapen_aot/videos/S_yt-fjOsq03OC2c_188.mp4	0.0	242.27175402641296	2.507124900817871
63	186.893807888031	fix_post	2		12.0	61.0	2.5	/experiments/knapen_aot/videos/S_yt-fjOsq03OC2c_188.mp4	0.0	244.77887892723083	0.10001707077026367
64	186.99382495880127	fix_pre	0		70.0	62.0	2.5	/experiments/knapen_aot/videos/R_S_yt-z68VLDDCFdw_93.mp4	0.0	244.8788959980011	0.5832870006561279
64	187.56140089035034	response	0	2		62.0	2.5	/experiments/knapen_aot/videos/R_S_yt-z68VLDDCFdw_93.mp4	0.0	245.44647192955017	
64	187.5771119594574	movie	1		301.0	62.0	2.5	/experiments/knapen_aot/videos/R_S_yt-z68VLDDCFdw_93.mp4	0.0	245.46218299865723	2.508352041244507
64	190.0854640007019	fix_post	2		12.0	62.0	2.5	/experiments/knapen_aot/videos/R_S_yt-z68VLDDCFdw_93.mp4	0.0	247.97053503990173	0.10012197494506836
65	190.18558597564697	fix_pre	0		41.0	63.0	2.5	blank	1.0	248.0706570148468	0.3415219783782959
65	190.51891899108887	response	0	2		63.0	2.5	blank	1.0	248.4039900302887	
65	190.52710795402527	movie	1		301.0	63.0	2.5	blank	1.0	248.4121789932251	2.5084729194641113
65	193.03558087348938	fix_post	2		12.0	63.0	2.5	blank	1.0	250.9206519126892	0.09988808631896973
66	193.13546895980835	fix_pre	0		51.0	64.0	2.5	/experiments/knapen_aot/videos/S_yt-feTWuKPZA_k_34.mp4	0.0	251.02053999900818	0.42494702339172363
66	193.55218887329102	response	0	2		64.0	2.5	/experiments/knapen_aot/videos/S_yt-feTWuKPZA_k_34.mp4	0.0	251.43725991249084	
66	193.56041598320007	movie	1		301.0	64.0	2.5	/experiments/knapen_aot/videos/S_yt-feTWuKPZA_k_34.mp4	0.0	251.4454870223999	2.5083940029144287
66	196.0688099861145	fix_post	2		12.0	64.0	2.5	/experiments/knapen_aot/videos/S_yt-feTWuKPZA_k_34.mp4	0.0	253.95388102531433	0.09996390342712402
67	196.16877388954163	fix_pre	0		50.0	65.0	2.5	/experiments/knapen_aot/videos/S_production_ID_3735542.mp4	0.0	254.05384492874146	0.416546106338501
67	196.5771939754486	response	0	2		65.0	2.5	/experiments/knapen_aot/videos/S_production_ID_3735542.mp4	0.0	254.46226501464844	
67	196.58531999588013	movie	1		164.0	65.0	2.5	/experiments/knapen_aot/videos/S_production_ID_3735542.mp4	0.0	254.47039103507996	2.508450984954834
67	199.09377098083496	fix_post	2		12.0	65.0	2.5	/experiments/knapen_aot/videos/S_production_ID_3735542.mp4	0.0	256.9788420200348	0.09998178482055664
68	199.19375276565552	fix_pre	0		36.0	66.0	2.5	/experiments/knapen_aot/videos/R_S_yt-PaxmJhMoP3w_87.mp4	0.0	257.07882380485535	0.3000211715698242
68	199.4855659008026	response	0	2		66.0	2.5	/experiments/knapen_aot/videos/R_S_yt-PaxmJhMoP3w_87.mp4	0.0	257.37063694000244	
68	199.49377393722534	movie	1		301.0	66.0	2.5	/experiments/knapen_aot/videos/R_S_yt-PaxmJhMoP3w_87.mp4	0.0	257.37884497642517	2.5086588859558105
68	202.00243282318115	fix_post	2		12.0	66.0	2.5	/experiments/knapen_aot/videos/R_S_yt-PaxmJhMoP3w_87.mp4	0.0	259.887503862381	0.09987711906433105
69	202.10230994224548	fix_pre	0		39.0	67.0	2.5	/experiments/knapen_aot/videos/S_yt-3eQHOLBzOqA_100.mp4	0.0	259.9873809814453	0.32585787773132324
69	202.41886496543884	response	0	2		67.0	2.5	/experiments/knapen_aot/videos/S_yt-3eQHOLBzOqA_100.mp4	0.0	260.3039360046387	
69	202.4281678199768	movie	1		301.0	67.0	2.5	/experiments/knapen_aot/videos/S_yt-3eQHOLBzOqA_100.mp4	0.0	260.31323885917664	2.5072860717773438
69	204.93545389175415	fix_post	2		12.0	67.0	2.5	/experiments/knapen_aot/videos/S_yt-3eQHOLBzOqA_100.mp4	0.0	262.820524930954	0.09997892379760742
70	205.03543281555176	fix_pre	0		39.0	68.0	2.5	blank	1.0	262.9205038547516	0.32492804527282715
70	205.3523349761963	response	0	2		68.0	2.5	blank	1.0	263.2374060153961	
70	205.36036086082458	movie	1		301.0	68.0	2.5	blank	1.0	263.2454319000244	2.5083250999450684
70	207.86868596076965	fix_post	2		12.0	68.0	2.5	blank	1.0	265.7537569999695	0.10012602806091309
71	207.96881198883057	fix_pre	0		62.0	69.0	2.5	/experiments/knapen_aot/videos/R_S_yt-ILARvS15SDQ_741.mp4	0.0	265.8538830280304	0.5165798664093018
71	208.47716093063354	response	0	2		69.0	2.5	/experiments/knapen_aot/videos/R_S_yt-ILARvS15SDQ_741.mp4	0.0	266.3622319698334	
71	208.48539185523987	movie	1		301.0	69.0	2.5	/experiments/knapen_aot/videos/R_S_yt-ILARvS15SDQ_741.mp4	0.0	266.3704628944397	2.508336067199707
71	210.99372792243958	fix_post	2		12.0	69.0	2.5	/experiments/knapen_aot/videos/R_S_yt-ILARvS15SDQ_741.mp4	0.0	268.8787989616394	0.10001897811889648
72	211.09374690055847	fix_pre	0		72.0	70.0	2.5	/experiments/knapen_aot/videos/R_S_comp_A007_C017_01156B_v02_SDR_PS_20180925_SDR_2K_AVC.mp4	0.0	268.9788179397583	0.599945068359375
72	211.68552088737488	response	0	2		70.0	2.5	/experiments/knapen_aot/videos/R_S_comp_A007_C017_01156B_v02_SDR_PS_20180925_SDR_2K_AVC.mp4	0.0	269.5705919265747	
72	211.69369196891785	movie	1		163.0	70.0	2.5	/experiments/knapen_aot/videos/R_S_comp_A007_C017_01156B_v02_SDR_PS_20180925_SDR_2K_AVC.mp4	0.0	269.5787630081177	2.5083558559417725
72	214.20204782485962	fix_post	2		12.0	70.0	2.5	/experiments/knapen_aot/videos/R_S_comp_A007_C017_01156B_v02_SDR_PS_20180925_SDR_2K_AVC.mp4	0.0	272.08711886405945	0.0999600887298584
73	214.30200791358948	fix_pre	0		72.0	71.0	2.5	/experiments/knapen_aot/videos/R_S_yt-vjed5qyKqZw_1.mp4	0.0	272.1870789527893	0.5999939441680908
73	214.89385294914246	response	0	2		71.0	2.5	/experiments/knapen_aot/videos/R_S_yt-vjed5qyKqZw_1.mp4	0.0	272.7789239883423	
73	214.90200185775757	movie	1		301.0	71.0	2.5	/experiments/knapen_aot/videos/R_S_yt-vjed5qyKqZw_1.mp4	0.0	272.7870728969574	2.5085361003875732
73	217.41053795814514	fix_post	2		12.0	71.0	2.5	/experiments/knapen_aot/videos/R_S_yt-vjed5qyKqZw_1.mp4	0.0	275.29560899734497	0.0998389720916748
74	217.51037693023682	fix_pre	0		79.0	72.0	2.5	/experiments/knapen_aot/videos/S_yt-tqxZlasEvZA_43.mp4	0.0	275.39544796943665	0.6582629680633545
74	218.16041088104248	response	0	2		72.0	2.5	/experiments/knapen_aot/videos/S_yt-tqxZlasEvZA_43.mp4	0.0	276.0454819202423	
74	218.16863989830017	movie	1		301.0	72.0	2.5	/experiments/knapen_aot/videos/S_yt-tqxZlasEvZA_43.mp4	0.0	276.0537109375	2.508394956588745
74	220.67703485488892	fix_post	2		12.0	72.0	2.5	/experiments/knapen_aot/videos/S_yt-tqxZlasEvZA_43.mp4	0.0	278.56210589408875	0.09997701644897461
75	220.7770118713379	fix_pre	0		64.0	73.0	2.5	/experiments/knapen_aot/videos/S_yt-McqS-QObQbk_122.mp4	0.0	278.6620829105377	0.5332789421081543
75	221.3020739555359	response	0	2		73.0	2.5	/experiments/knapen_aot/videos/S_yt-McqS-QObQbk_122.mp4	0.0	279.1871449947357	
75	221.31029081344604	movie	1		301.0	73.0	2.5	/experiments/knapen_aot/videos/S_yt-McqS-QObQbk_122.mp4	0.0	279.1953618526459	2.508362054824829
75	223.81865286827087	fix_post	2		12.0	73.0	2.5	/experiments/knapen_aot/videos/S_yt-McqS-QObQbk_122.mp4	0.0	281.7037239074707	0.09990501403808594
76	223.91855788230896	fix_pre	0		40.0	74.0	2.5	/experiments/knapen_aot/videos/S_AK_A004_C012_SDR_20191217_SDR_2K_AVC.mp4	0.0	281.8036289215088	0.3334031105041504
76	224.24379181861877	response	0	2		74.0	2.5	/experiments/knapen_aot/videos/S_AK_A004_C012_SDR_20191217_SDR_2K_AVC.mp4	0.0	282.1288628578186	
76	224.2519609928131	movie	1		164.0	74.0	2.5	/experiments/knapen_aot/videos/S_AK_A004_C012_SDR_20191217_SDR_2K_AVC.mp4	0.0	282.13703203201294	2.508358955383301
76	226.7603199481964	fix_post	2		12.0	74.0	2.5	/experiments/knapen_aot/videos/S_AK_A004_C012_SDR_20191217_SDR_2K_AVC.mp4	0.0	284.64539098739624	0.0999758243560791
77	226.8602957725525	fix_pre	0		43.0	75.0	2.5	/experiments/knapen_aot/videos/R_S_yt--DXkjCUzThU_413.mp4	0.0	284.7453668117523	0.3593730926513672
77	227.21033596992493	response	0	2		75.0	2.5	/experiments/knapen_aot/videos/R_S_yt--DXkjCUzThU_413.mp4	0.0	285.09540700912476	
77	227.21966886520386	movie	1		301.0	75.0	2.5	/experiments/knapen_aot/videos/R_S_yt--DXkjCUzThU_413.mp4	0.0	285.1047399044037	2.5073280334472656
77	229.72699689865112	fix_post	2		12.0	75.0	2.5	/experiments/knapen_aot/videos/R_S_yt--DXkjCUzThU_413.mp4	0.0	287.61206793785095	0.09998488426208496
78	229.8269817829132	fix_pre	0		61.0	76.0	2.5	blank	1.0	287.71205282211304	0.5082871913909912
78	230.3271517753601	response	0	2		76.0	2.5	blank	1.0	288.21222281455994	
78	230.3352689743042	movie	1		301.0	76.0	2.5	blank	1.0	288.220340013504	2.508382797241211
78	232.8436517715454	fix_post	2		12.0	76.0	2.5	blank	1.0	290.72872281074524	0.10037112236022949
79	232.94402289390564	fix_pre	0		54.0	77.0	2.5	/experiments/knapen_aot/videos/S_yt-tqxZlasEvZA_43.mp4	0.0	290.82909393310547	0.4495110511779785
79	233.38539481163025	response	0	2		77.0	2.5	/experiments/knapen_aot/videos/S_yt-tqxZlasEvZA_43.mp4	0.0	291.2704658508301	
79	233.39353394508362	movie	1		301.0	77.0	2.5	/experiments/knapen_aot/videos/S_yt-tqxZlasEvZA_43.mp4	0.0	291.27860498428345	2.508404016494751
79	235.90193796157837	fix_post	2		12.0	77.0	2.5	/experiments/knapen_aot/videos/S_yt-tqxZlasEvZA_43.mp4	0.0	293.7870090007782	0.10007190704345703
80	236.00200986862183	fix_pre	0		67.0	78.0	2.5	/experiments/knapen_aot/videos/R_S_comp_H012_C009_PS_v01_SDR_PS_20180925_SDR_2K_AVC.mp4	0.0	293.88708090782166	0.5581691265106201
80	236.55212092399597	response	0	2		78.0	2.5	/experiments/knapen_aot/videos/R_S_comp_H012_C009_PS_v01_SDR_PS_20180925_SDR_2K_AVC.mp4	0.0	294.4371919631958	
80	236.56017899513245	movie	1		167.0	78.0	2.5	/experiments/knapen_aot/videos/R_S_comp_H012_C009_PS_v01_SDR_PS_20180925_SDR_2K_AVC.mp4	0.0	294.4452500343323	2.508443832397461
80	239.0686228275299	fix_post	2		12.0	78.0	2.5	/experiments/knapen_aot/videos/R_S_comp_H012_C009_PS_v01_SDR_PS_20180925_SDR_2K_AVC.mp4	0.0	296.95369386672974	0.09996199607849121
81	239.1685848236084	fix_pre	0		47.0	79.0	2.5	/experiments/knapen_aot/videos/S_video.mp4	0.0	297.0536558628082	0.39177417755126953
81	239.55204391479492	response	0	2		79.0	2.5	/experiments/knapen_aot/videos/S_video.mp4	0.0	297.43711495399475	
81	239.56035900115967	movie	1		168.0	79.0	2.5	/experiments/knapen_aot/videos/S_video.mp4	0.0	297.4454300403595	2.508232831954956
81	242.06859183311462	fix_post	2		12.0	79.0	2.5	/experiments/knapen_aot/videos/S_video.mp4	0.0	299.95366287231445	0.0999300479888916
82	242.16852188110352	fix_pre	0		154.0	80.0	2.5	/experiments/knapen_aot/videos/R_S_yt-mmvWYAttrIw_2.mp4	0.0	300.05359292030334	1.2833330631256104
82	243.4437267780304	response	0	2		80.0	2.5	/experiments/knapen_aot/videos/R_S_yt-mmvWYAttrIw_2.mp4	0.0	301.3287978172302	
82	243.45185494422913	movie	1		301.0	80.0	2.5	/experiments/knapen_aot/videos/R_S_yt-mmvWYAttrIw_2.mp4	0.0	301.33692598342896	2.5083649158477783
82	245.9602198600769	fix_post	2		12.0	80.0	2.5	/experiments/knapen_aot/videos/R_S_yt-mmvWYAttrIw_2.mp4	0.0	303.84529089927673	0.10023808479309082
83	246.06045794487	fix_pre	0		113.0	81.0	2.5	/experiments/knapen_aot/videos/R_S_yt-PRqnM7xDsus_24.mp4	0.0	303.9455289840698	0.9413769245147705
83	246.99367785453796	response	0	2		81.0	2.5	/experiments/knapen_aot/videos/R_S_yt-PRqnM7xDsus_24.mp4	0.0	304.8787488937378	
83	247.00183486938477	movie	1		301.0	81.0	2.5	/experiments/knapen_aot/videos/R_S_yt-PRqnM7xDsus_24.mp4	0.0	304.8869059085846	2.5084309577941895
83	249.51026582717896	fix_post	2		12.0	81.0	2.5	/experiments/knapen_aot/videos/R_S_yt-PRqnM7xDsus_24.mp4	0.0	307.3953368663788	0.10002613067626953
84	249.61029195785522	fix_pre	0		46.0	82.0	2.5	/experiments/knapen_aot/videos/R_S_yt-3ohvpS42xug_184.mp4	0.0	307.49536299705505	0.38326501846313477
84	249.98536491394043	response	0	2		82.0	2.5	/experiments/knapen_aot/videos/R_S_yt-3ohvpS42xug_184.mp4	0.0	307.87043595314026	
84	249.99355697631836	movie	1		301.0	82.0	2.5	/experiments/knapen_aot/videos/R_S_yt-3ohvpS42xug_184.mp4	0.0	307.8786280155182	2.508349895477295
84	252.50190687179565	fix_post	2		12.0	82.0	2.5	/experiments/knapen_aot/videos/R_S_yt-3ohvpS42xug_184.mp4	0.0	310.3869779109955	0.10017895698547363
85	252.60208582878113	fix_pre	0		56.0	83.0	2.5	blank	1.0	310.48715686798096	0.4664299488067627
85	253.06032299995422	response	0	2		83.0	2.5	blank	1.0	310.94539403915405	
85	253.0685157775879	movie	1		301.0	83.0	2.5	blank	1.0	310.9535868167877	2.5083680152893066
85	255.5768837928772	fix_post	2		12.0	83.0	2.5	blank	1.0	313.461954832077	0.10094904899597168
87	255.67783284187317	stim	0		189.0					313.562903881073	1.5739850997924805
87	257.24387097358704	response	0	space						315.12894201278687	
