trial_nr	onset	event_type	phase	response	nr_frames	movie_index	movie_duration	movie_file	blank	onset_abs	duration
0	0.1601099967956543	stim	0		26.0					90.90839195251465	0.2148878574371338
0	0.36676883697509766	response	0	space						91.11505079269409	
1	0.3749978542327881	stim	0		121.0					91.12327980995178	1.008000135421753
1	1.2080819606781006	response	0	space						91.9563639163971	
1	1.382997989654541	stim	1		120.0					92.13127994537354	0.9999978542327881
1	1.7497718334197998	response	1	space						92.4980537891388	
1	2.2330479621887207	response	1	space						92.98132991790771	
2	2.382995843887329	fix_pre	0		37.0	0.0	2.5	/experiments/knapen_aot/videos/S_yt-7K5X1G7Cpls_965.mp4	0.0	93.13127779960632	0.3083350658416748
2	2.6830928325653076	response	0	space		0.0	2.5	/experiments/knapen_aot/videos/S_yt-7K5X1G7Cpls_965.mp4	0.0	93.4313747882843	
2	2.691330909729004	movie	1		301.0	0.0	2.5	/experiments/knapen_aot/videos/S_yt-7K5X1G7Cpls_965.mp4	0.0	93.439612865448	2.5083401203155518
2	5.199671030044556	fix_post	2		12.0	0.0	2.5	/experiments/knapen_aot/videos/S_yt-7K5X1G7Cpls_965.mp4	0.0	95.94795298576355	0.10011887550354004
3	5.299789905548096	fix_pre	0		72.0	1.0	2.5	/experiments/knapen_aot/videos/S_ILSVRC2015_train_00067003.mp4	0.0	96.04807186126709	0.6055331230163574
3	5.896509885787964	response	0	2		1.0	2.5	/experiments/knapen_aot/videos/S_ILSVRC2015_train_00067003.mp4	0.0	96.64479184150696	
3	5.905323028564453	movie	1		300.0	1.0	2.5	/experiments/knapen_aot/videos/S_ILSVRC2015_train_00067003.mp4	0.0	96.65360498428345	2.5026559829711914
3	8.407979011535645	fix_post	2		12.0	1.0	2.5	/experiments/knapen_aot/videos/S_ILSVRC2015_train_00067003.mp4	0.0	99.15626096725464	0.09997200965881348
4	8.507951021194458	fix_pre	0		53.0	2.0	2.5	/experiments/knapen_aot/videos/S_yt-wjBwgccZM5k_150.mp4	0.0	99.25623297691345	0.44167280197143555
4	8.941439867019653	response	0	2		2.0	2.5	/experiments/knapen_aot/videos/S_yt-wjBwgccZM5k_150.mp4	0.0	99.68972182273865	
4	8.949623823165894	movie	1		299.0	2.0	2.5	/experiments/knapen_aot/videos/S_yt-wjBwgccZM5k_150.mp4	0.0	99.69790577888489	2.5082449913024902
4	11.457868814468384	fix_post	2		12.0	2.0	2.5	/experiments/knapen_aot/videos/S_yt-wjBwgccZM5k_150.mp4	0.0	102.20615077018738	0.10016202926635742
5	11.558030843734741	fix_pre	0		73.0	3.0	2.5	/experiments/knapen_aot/videos/S_yt-w5lh_rKyKtE_21.mp4	0.0	102.30631279945374	0.6082291603088379
5	12.158038854598999	response	0	2		3.0	2.5	/experiments/knapen_aot/videos/S_yt-w5lh_rKyKtE_21.mp4	0.0	102.906320810318	
5	12.166260004043579	movie	1		301.0	3.0	2.5	/experiments/knapen_aot/videos/S_yt-w5lh_rKyKtE_21.mp4	0.0	102.91454195976257	2.5082948207855225
5	14.674554824829102	fix_post	2		12.0	3.0	2.5	/experiments/knapen_aot/videos/S_yt-w5lh_rKyKtE_21.mp4	0.0	105.4228367805481	0.09993910789489746
6	14.774493932723999	fix_pre	0		59.0	4.0	2.5	/experiments/knapen_aot/videos/R_S_yt-2ftSsLqRQnA_84.mp4	0.0	105.522775888443	0.4917609691619873
6	15.25804591178894	response	0	2		4.0	2.5	/experiments/knapen_aot/videos/R_S_yt-2ftSsLqRQnA_84.mp4	0.0	106.00632786750793	
6	15.266254901885986	movie	1		298.0	4.0	2.5	/experiments/knapen_aot/videos/R_S_yt-2ftSsLqRQnA_84.mp4	0.0	106.01453685760498	2.5083189010620117
6	17.774573802947998	fix_post	2		12.0	4.0	2.5	/experiments/knapen_aot/videos/R_S_yt-2ftSsLqRQnA_84.mp4	0.0	108.52285575866699	0.09998703002929688
7	17.874560832977295	fix_pre	0		50.0	5.0	2.5	/experiments/knapen_aot/videos/R_S_G008_C015_UHD_SDR_2K_AVC.mp4	0.0	108.62284278869629	0.41662001609802246
7	18.283037900924683	response	0	2		5.0	2.5	/experiments/knapen_aot/videos/R_S_G008_C015_UHD_SDR_2K_AVC.mp4	0.0	109.03131985664368	
7	18.291180849075317	movie	1		176.0	5.0	2.5	/experiments/knapen_aot/videos/R_S_G008_C015_UHD_SDR_2K_AVC.mp4	0.0	109.03946280479431	2.5083961486816406
7	20.799576997756958	fix_post	2		12.0	5.0	2.5	/experiments/knapen_aot/videos/R_S_G008_C015_UHD_SDR_2K_AVC.mp4	0.0	111.54785895347595	0.09995698928833008
8	20.899533987045288	fix_pre	0		55.0	6.0	2.5	/experiments/knapen_aot/videos/R_S_ILSVRC2015_train_00524006.mp4	0.0	111.64781594276428	0.4583468437194824
8	21.342163801193237	response	0	2		6.0	2.5	/experiments/knapen_aot/videos/R_S_ILSVRC2015_train_00524006.mp4	0.0	112.09044575691223	
8	21.35788083076477	movie	1		301.0	6.0	2.5	/experiments/knapen_aot/videos/R_S_ILSVRC2015_train_00524006.mp4	0.0	112.10616278648376	2.5082640647888184
8	23.86614489555359	fix_post	2		12.0	6.0	2.5	/experiments/knapen_aot/videos/R_S_ILSVRC2015_train_00524006.mp4	0.0	114.61442685127258	0.10018396377563477
9	23.966328859329224	fix_pre	0		53.0	7.0	2.5	blank	1.0	114.71461081504822	0.4415559768676758
9	24.399617910385132	response	0	2		7.0	2.5	blank	1.0	115.14789986610413	
9	24.4078848361969	movie	1		301.0	7.0	2.5	blank	1.0	115.1561667919159	2.508329153060913
9	26.916213989257812	fix_post	2		12.0	7.0	2.5	blank	1.0	117.6644959449768	0.10003089904785156
10	27.016244888305664	fix_pre	0		136.0	8.0	2.5	/experiments/knapen_aot/videos/S_gHYomsO1dSU_5.mp4	0.0	117.76452684402466	1.1332659721374512
10	28.14127492904663	response	0	2		8.0	2.5	/experiments/knapen_aot/videos/S_gHYomsO1dSU_5.mp4	0.0	118.88955688476562	
10	28.149510860443115	movie	1		301.0	8.0	2.5	/experiments/knapen_aot/videos/S_gHYomsO1dSU_5.mp4	0.0	118.89779281616211	2.5083000659942627
10	30.657810926437378	fix_post	2		12.0	8.0	2.5	/experiments/knapen_aot/videos/S_gHYomsO1dSU_5.mp4	0.0	121.40609288215637	0.10004401206970215
11	30.75785493850708	fix_pre	0		44.0	9.0	2.5	/experiments/knapen_aot/videos/R_S_yt-2IN85w8ptmM_51.mp4	0.0	121.50613689422607	0.3666529655456543
11	31.116185903549194	response	0	2		9.0	2.5	/experiments/knapen_aot/videos/R_S_yt-2IN85w8ptmM_51.mp4	0.0	121.86446785926819	
11	31.124507904052734	movie	1		301.0	9.0	2.5	/experiments/knapen_aot/videos/R_S_yt-2IN85w8ptmM_51.mp4	0.0	121.87278985977173	2.508333921432495
11	33.63284182548523	fix_post	2		12.0	9.0	2.5	/experiments/knapen_aot/videos/R_S_yt-2IN85w8ptmM_51.mp4	0.0	124.38112378120422	0.09997105598449707
12	33.73281288146973	fix_pre	0		42.0	10.0	2.5	/experiments/knapen_aot/videos/R_S_ILSVRC2015_train_00485001.mp4	0.0	124.48109483718872	0.3499879837036133
12	34.07462191581726	response	0	2		10.0	2.5	/experiments/knapen_aot/videos/R_S_ILSVRC2015_train_00485001.mp4	0.0	124.82290387153625	
12	34.08280086517334	movie	1		301.0	10.0	2.5	/experiments/knapen_aot/videos/R_S_ILSVRC2015_train_00485001.mp4	0.0	124.83108282089233	2.5083539485931396
12	36.59115481376648	fix_post	2		12.0	10.0	2.5	/experiments/knapen_aot/videos/R_S_ILSVRC2015_train_00485001.mp4	0.0	127.33943676948547	0.09998321533203125
13	36.69113802909851	fix_pre	0		43.0	11.0	2.5	/experiments/knapen_aot/videos/S_yt-bwSRV1Vr21s_435.mp4	0.0	127.4394199848175	0.3597099781036377
13	37.04130697250366	response	0	2		11.0	2.5	/experiments/knapen_aot/videos/S_yt-bwSRV1Vr21s_435.mp4	0.0	127.78958892822266	
13	37.05084800720215	movie	1		301.0	11.0	2.5	/experiments/knapen_aot/videos/S_yt-bwSRV1Vr21s_435.mp4	0.0	127.79912996292114	2.506934881210327
13	39.557782888412476	fix_post	2		12.0	11.0	2.5	/experiments/knapen_aot/videos/S_yt-bwSRV1Vr21s_435.mp4	0.0	130.30606484413147	0.09998703002929688
14	39.65776991844177	fix_pre	0		35.0	12.0	2.5	/experiments/knapen_aot/videos/S_yt-oPq1uvbw-lQ_62.mp4	0.0	130.40605187416077	0.2916750907897949
14	39.93371081352234	response	0	2		12.0	2.5	/experiments/knapen_aot/videos/S_yt-oPq1uvbw-lQ_62.mp4	0.0	130.68199276924133	
14	39.94944500923157	movie	1		300.0	12.0	2.5	/experiments/knapen_aot/videos/S_yt-oPq1uvbw-lQ_62.mp4	0.0	130.69772696495056	2.50839900970459
14	42.45784401893616	fix_post	2		12.0	12.0	2.5	/experiments/knapen_aot/videos/S_yt-oPq1uvbw-lQ_62.mp4	0.0	133.20612597465515	0.0999908447265625
15	42.55783486366272	fix_pre	0		61.0	13.0	2.5	blank	1.0	133.3061168193817	0.5083141326904297
15	43.05798292160034	response	0	2		13.0	2.5	blank	1.0	133.80626487731934	
15	43.06614899635315	movie	1		301.0	13.0	2.5	blank	1.0	133.81443095207214	2.5083258152008057
15	45.574474811553955	fix_post	2		12.0	13.0	2.5	blank	1.0	136.32275676727295	0.0999760627746582
16	45.67445087432861	fix_pre	0		77.0	14.0	2.5	/experiments/knapen_aot/videos/S_production_ID_4997166.mp4	0.0	136.4227328300476	0.6416430473327637
16	46.30790591239929	response	0	2		14.0	2.5	/experiments/knapen_aot/videos/S_production_ID_4997166.mp4	0.0	137.0561878681183	
16	46.31609392166138	movie	1		164.0	14.0	2.5	/experiments/knapen_aot/videos/S_production_ID_4997166.mp4	0.0	137.06437587738037	2.508349895477295
16	48.82444381713867	fix_post	2		12.0	14.0	2.5	/experiments/knapen_aot/videos/S_production_ID_4997166.mp4	0.0	139.57272577285767	0.09993505477905273
17	48.924378871917725	fix_pre	0		44.0	15.0	2.5	/experiments/knapen_aot/videos/R_S_pexels-cottonbro-5780808.mp4	0.0	139.67266082763672	0.36666202545166016
17	49.28287482261658	response	0	2		15.0	2.5	/experiments/knapen_aot/videos/R_S_pexels-cottonbro-5780808.mp4	0.0	140.03115677833557	
17	49.291040897369385	movie	1		165.0	15.0	2.5	/experiments/knapen_aot/videos/R_S_pexels-cottonbro-5780808.mp4	0.0	140.03932285308838	2.5084409713745117
17	51.7994818687439	fix_post	2		12.0	15.0	2.5	/experiments/knapen_aot/videos/R_S_pexels-cottonbro-5780808.mp4	0.0	142.5477638244629	0.09995293617248535
18	51.89943480491638	fix_pre	0		53.0	16.0	2.5	/experiments/knapen_aot/videos/S_wc-ZGCMbPfXQ71L_31.mp4	0.0	142.64771676063538	0.4416811466217041
18	52.33288097381592	response	0	2		16.0	2.5	/experiments/knapen_aot/videos/S_wc-ZGCMbPfXQ71L_31.mp4	0.0	143.0811629295349	
18	52.341115951538086	movie	1		160.0	16.0	2.5	/experiments/knapen_aot/videos/S_wc-ZGCMbPfXQ71L_31.mp4	0.0	143.08939790725708	2.5083298683166504
18	54.849445819854736	fix_post	2		12.0	16.0	2.5	/experiments/knapen_aot/videos/S_wc-ZGCMbPfXQ71L_31.mp4	0.0	145.59772777557373	0.09993314743041992
19	54.949378967285156	fix_pre	0		61.0	17.0	2.5	/experiments/knapen_aot/videos/R_S_yt-O_4DgW-XKvA_35.mp4	0.0	145.69766092300415	0.5083420276641846
19	55.44955492019653	response	0	2		17.0	2.5	/experiments/knapen_aot/videos/R_S_yt-O_4DgW-XKvA_35.mp4	0.0	146.19783687591553	
19	55.45772099494934	movie	1		301.0	17.0	2.5	/experiments/knapen_aot/videos/R_S_yt-O_4DgW-XKvA_35.mp4	0.0	146.20600295066833	2.5083019733428955
19	57.966022968292236	fix_post	2		12.0	17.0	2.5	/experiments/knapen_aot/videos/R_S_yt-O_4DgW-XKvA_35.mp4	0.0	148.71430492401123	0.1000368595123291
20	58.066059827804565	fix_pre	0		61.0	18.0	2.5	/experiments/knapen_aot/videos/S_yt-Kwfwhd07dVo_2.mp4	0.0	148.81434178352356	0.5083000659942627
20	58.56610894203186	response	0	2		18.0	2.5	/experiments/knapen_aot/videos/S_yt-Kwfwhd07dVo_2.mp4	0.0	149.31439089775085	
20	58.57435989379883	movie	1		301.0	18.0	2.5	/experiments/knapen_aot/videos/S_yt-Kwfwhd07dVo_2.mp4	0.0	149.32264184951782	2.508358955383301
20	61.08271884918213	fix_post	2		12.0	18.0	2.5	/experiments/knapen_aot/videos/S_yt-Kwfwhd07dVo_2.mp4	0.0	151.83100080490112	0.10004401206970215
21	61.18276286125183	fix_pre	0		29.0	19.0	2.5	/experiments/knapen_aot/videos/R_S_yt-RlHmMGUjT9E_130.mp4	0.0	151.93104481697083	0.24277806282043457
21	61.416170835494995	response	0	2		19.0	2.5	/experiments/knapen_aot/videos/R_S_yt-RlHmMGUjT9E_130.mp4	0.0	152.164452791214	
21	61.425540924072266	movie	1		301.0	19.0	2.5	/experiments/knapen_aot/videos/R_S_yt-RlHmMGUjT9E_130.mp4	0.0	152.17382287979126	2.5071089267730713
21	63.93264985084534	fix_post	2		12.0	19.0	2.5	/experiments/knapen_aot/videos/R_S_yt-RlHmMGUjT9E_130.mp4	0.0	154.68093180656433	0.10005617141723633
22	64.03270602226257	fix_pre	0		74.0	20.0	2.5	/experiments/knapen_aot/videos/S_yt-c5KPuyzO-50_4.mp4	0.0	154.78098797798157	0.6166279315948486
22	64.64118885993958	response	0	2		20.0	2.5	/experiments/knapen_aot/videos/S_yt-c5KPuyzO-50_4.mp4	0.0	155.38947081565857	
22	64.64933395385742	movie	1		301.0	20.0	2.5	/experiments/knapen_aot/videos/S_yt-c5KPuyzO-50_4.mp4	0.0	155.39761590957642	2.508265972137451
22	67.15759992599487	fix_post	2		12.0	20.0	2.5	/experiments/knapen_aot/videos/S_yt-c5KPuyzO-50_4.mp4	0.0	157.90588188171387	0.10002994537353516
23	67.25762987136841	fix_pre	0		45.0	21.0	2.5	blank	1.0	158.0059118270874	0.37498903274536133
23	67.62449979782104	response	0	2		21.0	2.5	blank	1.0	158.37278175354004	
23	67.63261890411377	movie	1		301.0	21.0	2.5	blank	1.0	158.38090085983276	2.5084140300750732
23	70.14103293418884	fix_post	2		12.0	21.0	2.5	blank	1.0	160.88931488990784	0.09995603561401367
24	70.24098896980286	fix_pre	0		118.0	22.0	2.5	/experiments/knapen_aot/videos/R_S_yt-wVMhACNFF-M_154.mp4	0.0	160.98927092552185	0.9832620620727539
24	71.21630191802979	response	0	2		22.0	2.5	/experiments/knapen_aot/videos/R_S_yt-wVMhACNFF-M_154.mp4	0.0	161.96458387374878	
24	71.22425103187561	movie	1		300.0	22.0	2.5	/experiments/knapen_aot/videos/R_S_yt-wVMhACNFF-M_154.mp4	0.0	161.9725329875946	2.508396863937378
24	73.73264789581299	fix_post	2		12.0	22.0	2.5	/experiments/knapen_aot/videos/R_S_yt-wVMhACNFF-M_154.mp4	0.0	164.48092985153198	0.09999704360961914
25	73.83264493942261	fix_pre	0		51.0	23.0	2.5	/experiments/knapen_aot/videos/S_yt-I9uf7kAccFA_229.mp4	0.0	164.5809268951416	0.42495298385620117
25	74.24196290969849	response	0	2		23.0	2.5	/experiments/knapen_aot/videos/S_yt-I9uf7kAccFA_229.mp4	0.0	164.99024486541748	
25	74.25759792327881	movie	1		301.0	23.0	2.5	/experiments/knapen_aot/videos/S_yt-I9uf7kAccFA_229.mp4	0.0	165.0058798789978	2.5083611011505127
25	76.76595902442932	fix_post	2		10.0	23.0	2.5	/experiments/knapen_aot/videos/S_yt-I9uf7kAccFA_229.mp4	0.0	167.51424098014832	0.09993791580200195
26	76.86589694023132	fix_pre	0		59.0	24.0	2.5	/experiments/knapen_aot/videos/R_S_yt-7VVzNnp36DM_62.mp4	0.0	167.61417889595032	0.49170804023742676
26	77.34942603111267	response	0	2		24.0	2.5	/experiments/knapen_aot/videos/R_S_yt-7VVzNnp36DM_62.mp4	0.0	168.09770798683167	
26	77.35760498046875	movie	1		301.0	24.0	2.5	/experiments/knapen_aot/videos/R_S_yt-7VVzNnp36DM_62.mp4	0.0	168.10588693618774	2.508443832397461
26	79.86604881286621	fix_post	2		12.0	24.0	2.5	/experiments/knapen_aot/videos/R_S_yt-7VVzNnp36DM_62.mp4	0.0	170.6143307685852	0.09989213943481445
27	79.96594095230103	fix_pre	0		61.0	25.0	2.5	/experiments/knapen_aot/videos/S_yt-MsSEF0krKE4_149.mp4	0.0	170.71422290802002	0.5082528591156006
27	80.46605587005615	response	0	2		25.0	2.5	/experiments/knapen_aot/videos/S_yt-MsSEF0krKE4_149.mp4	0.0	171.21433782577515	
27	80.47419381141663	movie	1		301.0	25.0	2.5	/experiments/knapen_aot/videos/S_yt-MsSEF0krKE4_149.mp4	0.0	171.22247576713562	2.5083491802215576
27	82.98254299163818	fix_post	2		12.0	25.0	2.5	/experiments/knapen_aot/videos/S_yt-MsSEF0krKE4_149.mp4	0.0	173.73082494735718	0.10008883476257324
28	83.08263182640076	fix_pre	0		102.0	26.0	2.5	/experiments/knapen_aot/videos/S_yt-BiBS8EO5GPc_4.mp4	0.0	173.83091378211975	0.8500030040740967
28	83.92444491386414	response	0	2		26.0	2.5	/experiments/knapen_aot/videos/S_yt-BiBS8EO5GPc_4.mp4	0.0	174.67272686958313	
28	83.93263483047485	movie	1		301.0	26.0	2.5	/experiments/knapen_aot/videos/S_yt-BiBS8EO5GPc_4.mp4	0.0	174.68091678619385	2.5084121227264404
28	86.4410469532013	fix_post	2		12.0	26.0	2.5	/experiments/knapen_aot/videos/S_yt-BiBS8EO5GPc_4.mp4	0.0	177.1893289089203	0.09984588623046875
29	86.54089283943176	fix_pre	0		64.0	27.0	2.5	blank	1.0	177.28917479515076	0.5333361625671387
29	87.0659568309784	response	0	2		27.0	2.5	blank	1.0	177.8142387866974	
29	87.0742290019989	movie	1		301.0	27.0	2.5	blank	1.0	177.8225109577179	2.5083258152008057
29	89.5825548171997	fix_post	2		12.0	27.0	2.5	blank	1.0	180.3308367729187	0.10000920295715332
30	89.68256402015686	fix_pre	0		34.0	28.0	2.5	/experiments/knapen_aot/videos/R_S_yt-bwSRV1Vr21s_435.mp4	0.0	180.43084597587585	0.2844688892364502
30	89.95767402648926	response	0	2		28.0	2.5	/experiments/knapen_aot/videos/R_S_yt-bwSRV1Vr21s_435.mp4	0.0	180.70595598220825	
30	89.96703290939331	movie	1		301.0	28.0	2.5	/experiments/knapen_aot/videos/R_S_yt-bwSRV1Vr21s_435.mp4	0.0	180.7153148651123	2.5071969032287598
30	92.47422981262207	fix_post	2		12.0	28.0	2.5	/experiments/knapen_aot/videos/R_S_yt-bwSRV1Vr21s_435.mp4	0.0	183.22251176834106	0.10003900527954102
31	92.57426881790161	fix_pre	0		51.0	29.0	2.5	/experiments/knapen_aot/videos/S_yt-O6W6CZPXvlA_15.mp4	0.0	183.3225507736206	0.4248621463775635
31	92.99102783203125	response	0	2		29.0	2.5	/experiments/knapen_aot/videos/S_yt-O6W6CZPXvlA_15.mp4	0.0	183.73930978775024	
31	92.99913096427917	movie	1		301.0	29.0	2.5	/experiments/knapen_aot/videos/S_yt-O6W6CZPXvlA_15.mp4	0.0	183.74741291999817	2.5083580017089844
31	95.50748896598816	fix_post	2		12.0	29.0	2.5	/experiments/knapen_aot/videos/S_yt-O6W6CZPXvlA_15.mp4	0.0	186.25577092170715	0.10009288787841797
32	95.60758185386658	fix_pre	0		71.0	30.0	2.5	/experiments/knapen_aot/videos/S_yt-ujTY1igjc3E_2.mp4	0.0	186.35586380958557	0.5916430950164795
32	96.19097995758057	response	0	2		30.0	2.5	/experiments/knapen_aot/videos/S_yt-ujTY1igjc3E_2.mp4	0.0	186.93926191329956	
32	96.19922494888306	movie	1		299.0	30.0	2.5	/experiments/knapen_aot/videos/S_yt-ujTY1igjc3E_2.mp4	0.0	186.94750690460205	2.5083160400390625
32	98.70754098892212	fix_post	2		12.0	30.0	2.5	/experiments/knapen_aot/videos/S_yt-ujTY1igjc3E_2.mp4	0.0	189.4558229446411	0.09992790222167969
33	98.8074688911438	fix_pre	0		39.0	31.0	2.5	/experiments/knapen_aot/videos/S_pexels-anthony-shkraba-7569650.mp4	0.0	189.5557508468628	0.3261229991912842
33	99.12431192398071	response	0	2		31.0	2.5	/experiments/knapen_aot/videos/S_pexels-anthony-shkraba-7569650.mp4	0.0	189.8725938796997	
33	99.13359189033508	movie	1		185.0	31.0	2.5	/experiments/knapen_aot/videos/S_pexels-anthony-shkraba-7569650.mp4	0.0	189.88187384605408	2.5072810649871826
33	101.64087295532227	fix_post	2		12.0	31.0	2.5	/experiments/knapen_aot/videos/S_pexels-anthony-shkraba-7569650.mp4	0.0	192.38915491104126	0.09994006156921387
34	101.74081301689148	fix_pre	0		36.0	32.0	2.5	/experiments/knapen_aot/videos/R_S_yt-kiEFK7bDssE_14.mp4	0.0	192.48909497261047	0.3000519275665283
34	102.03267884254456	response	0	2		32.0	2.5	/experiments/knapen_aot/videos/R_S_yt-kiEFK7bDssE_14.mp4	0.0	192.78096079826355	
34	102.04086494445801	movie	1		300.0	32.0	2.5	/experiments/knapen_aot/videos/R_S_yt-kiEFK7bDssE_14.mp4	0.0	192.789146900177	2.5083608627319336
34	104.54922580718994	fix_post	2		12.0	32.0	2.5	/experiments/knapen_aot/videos/R_S_yt-kiEFK7bDssE_14.mp4	0.0	195.29750776290894	0.10000419616699219
35	104.64923000335693	fix_pre	0		33.0	33.0	2.5	blank	1.0	195.39751195907593	0.2760128974914551
35	104.91604495048523	response	0	2		33.0	2.5	blank	1.0	195.66432690620422	
35	104.92524290084839	movie	1		301.0	33.0	2.5	blank	1.0	195.67352485656738	2.507328987121582
35	107.43257188796997	fix_post	2		12.0	33.0	2.5	blank	1.0	198.18085384368896	0.0999300479888916
36	107.53250193595886	fix_pre	0		46.0	34.0	2.5	/experiments/knapen_aot/videos/S_yt--v_iMUMMX6g_39.mp4	0.0	198.28078389167786	0.38331007957458496
36	107.90766787528992	response	0	2		34.0	2.5	/experiments/knapen_aot/videos/S_yt--v_iMUMMX6g_39.mp4	0.0	198.6559498310089	
36	107.91581201553345	movie	1		301.0	34.0	2.5	/experiments/knapen_aot/videos/S_yt--v_iMUMMX6g_39.mp4	0.0	198.66409397125244	2.5083439350128174
36	110.42415595054626	fix_post	2		12.0	34.0	2.5	/experiments/knapen_aot/videos/S_yt--v_iMUMMX6g_39.mp4	0.0	201.17243790626526	0.10004305839538574
37	110.52419900894165	fix_pre	0		53.0	35.0	2.5	/experiments/knapen_aot/videos/S_yt-kP7VNn9QIo4_53.mp4	0.0	201.27248096466064	0.4426608085632324
37	110.9576768875122	response	0	2		35.0	2.5	/experiments/knapen_aot/videos/S_yt-kP7VNn9QIo4_53.mp4	0.0	201.7059588432312	
37	110.96685981750488	movie	1		301.0	35.0	2.5	/experiments/knapen_aot/videos/S_yt-kP7VNn9QIo4_53.mp4	0.0	201.71514177322388	2.5072991847991943
37	113.47415900230408	fix_post	2		12.0	35.0	2.5	/experiments/knapen_aot/videos/S_yt-kP7VNn9QIo4_53.mp4	0.0	204.22244095802307	0.09992480278015137
38	113.57408380508423	fix_pre	0		58.0	36.0	2.5	/experiments/knapen_aot/videos/R_S_production_ID_4707837.mp4	0.0	204.32236576080322	0.48338818550109863
38	114.0491988658905	response	0	2		36.0	2.5	/experiments/knapen_aot/videos/R_S_production_ID_4707837.mp4	0.0	204.7974808216095	
38	114.05747199058533	movie	1		166.0	36.0	2.5	/experiments/knapen_aot/videos/R_S_production_ID_4707837.mp4	0.0	204.80575394630432	2.5083189010620117
38	116.56579089164734	fix_post	2		12.0	36.0	2.5	/experiments/knapen_aot/videos/R_S_production_ID_4707837.mp4	0.0	207.31407284736633	0.10001301765441895
39	116.66580390930176	fix_pre	0		37.0	37.0	2.5	/experiments/knapen_aot/videos/S_ILSVRC2015_train_00584001.mp4	0.0	207.41408586502075	0.3083178997039795
39	116.96588087081909	response	0	2		37.0	2.5	/experiments/knapen_aot/videos/S_ILSVRC2015_train_00584001.mp4	0.0	207.7141628265381	
39	116.97412180900574	movie	1		301.0	37.0	2.5	/experiments/knapen_aot/videos/S_ILSVRC2015_train_00584001.mp4	0.0	207.72240376472473	2.508324146270752
39	119.48244595527649	fix_post	2		12.0	37.0	2.5	/experiments/knapen_aot/videos/S_ILSVRC2015_train_00584001.mp4	0.0	210.23072791099548	0.10002493858337402
40	119.58247089385986	fix_pre	0		71.0	38.0	2.5	/experiments/knapen_aot/videos/R_S_yt-R0gFQo85cAE_5.mp4	0.0	210.33075284957886	0.5925791263580322
40	120.16588687896729	response	0	2		38.0	2.5	/experiments/knapen_aot/videos/R_S_yt-R0gFQo85cAE_5.mp4	0.0	210.91416883468628	
40	120.1750500202179	movie	1		301.0	38.0	2.5	/experiments/knapen_aot/videos/R_S_yt-R0gFQo85cAE_5.mp4	0.0	210.9233319759369	2.5074288845062256
40	122.68247890472412	fix_post	2		12.0	38.0	2.5	/experiments/knapen_aot/videos/R_S_yt-R0gFQo85cAE_5.mp4	0.0	213.43076086044312	0.10001206398010254
41	122.78249096870422	fix_pre	0		61.0	39.0	2.5	/experiments/knapen_aot/videos/R_S_yt-b7bIulV49DQ_81.mp4	0.0	213.53077292442322	0.5082988739013672
41	123.28258180618286	response	0	2		39.0	2.5	/experiments/knapen_aot/videos/R_S_yt-b7bIulV49DQ_81.mp4	0.0	214.03086376190186	
41	123.29078984260559	movie	1		301.0	39.0	2.5	/experiments/knapen_aot/videos/R_S_yt-b7bIulV49DQ_81.mp4	0.0	214.03907179832458	2.5083069801330566
41	125.79909682273865	fix_post	2		12.0	39.0	2.5	/experiments/knapen_aot/videos/R_S_yt-b7bIulV49DQ_81.mp4	0.0	216.54737877845764	0.10001897811889648
42	125.89911580085754	fix_pre	0		39.0	40.0	2.5	/experiments/knapen_aot/videos/S_yt-LdHRVIb4nIE_6.mp4	0.0	216.64739775657654	0.324984073638916
42	126.21590399742126	response	0	2		40.0	2.5	/experiments/knapen_aot/videos/S_yt-LdHRVIb4nIE_6.mp4	0.0	216.96418595314026	
42	126.22409987449646	movie	1		301.0	40.0	2.5	/experiments/knapen_aot/videos/S_yt-LdHRVIb4nIE_6.mp4	0.0	216.97238183021545	2.508341073989868
42	128.73244094848633	fix_post	2		12.0	40.0	2.5	/experiments/knapen_aot/videos/S_yt-LdHRVIb4nIE_6.mp4	0.0	219.48072290420532	0.10000300407409668
43	128.83244395256042	fix_pre	0		60.0	41.0	2.5	blank	1.0	219.58072590827942	0.4999520778656006
43	129.32421803474426	response	0	2		41.0	2.5	blank	1.0	220.07249999046326	
43	129.33239603042603	movie	1		301.0	41.0	2.5	blank	1.0	220.08067798614502	2.508340835571289
43	131.84073686599731	fix_post	2		12.0	41.0	2.5	blank	1.0	222.5890188217163	0.09997010231018066
44	131.9407069683075	fix_pre	0		66.0	42.0	2.5	/experiments/knapen_aot/videos/S_yt-ZtS7ZrJ_rtk_525.mp4	0.0	222.6889889240265	0.5502150058746338
44	132.4825038909912	response	0	2		42.0	2.5	/experiments/knapen_aot/videos/S_yt-ZtS7ZrJ_rtk_525.mp4	0.0	223.2307858467102	
44	132.49092197418213	movie	1		301.0	42.0	2.5	/experiments/knapen_aot/videos/S_yt-ZtS7ZrJ_rtk_525.mp4	0.0	223.23920392990112	2.5081698894500732
44	134.9990918636322	fix_post	2		12.0	42.0	2.5	/experiments/knapen_aot/videos/S_yt-ZtS7ZrJ_rtk_525.mp4	0.0	225.7473738193512	0.09988594055175781
45	135.09897780418396	fix_pre	0		251.0	43.0	2.5	/experiments/knapen_aot/videos/R_S_ILSVRC2015_train_00682000.mp4	0.0	225.84725975990295	2.0916600227355957
45	137.18256783485413	response	0	2		43.0	2.5	/experiments/knapen_aot/videos/R_S_ILSVRC2015_train_00682000.mp4	0.0	227.93084979057312	
45	137.19063782691956	movie	1		300.0	43.0	2.5	/experiments/knapen_aot/videos/R_S_ILSVRC2015_train_00682000.mp4	0.0	227.93891978263855	2.508342981338501
45	139.69898080825806	fix_post	2		12.0	43.0	2.5	/experiments/knapen_aot/videos/R_S_ILSVRC2015_train_00682000.mp4	0.0	230.44726276397705	0.10007405281066895
46	139.79905486106873	fix_pre	0		70.0	44.0	2.5	/experiments/knapen_aot/videos/S_Xq0a2BWE3zA_53.mp4	0.0	230.54733681678772	0.5841560363769531
46	140.3741729259491	response	0	2		44.0	2.5	/experiments/knapen_aot/videos/S_Xq0a2BWE3zA_53.mp4	0.0	231.1224548816681	
46	140.38321089744568	movie	1		301.0	44.0	2.5	/experiments/knapen_aot/videos/S_Xq0a2BWE3zA_53.mp4	0.0	231.13149285316467	2.507538080215454
46	142.89074897766113	fix_post	2		11.0	44.0	2.5	/experiments/knapen_aot/videos/S_Xq0a2BWE3zA_53.mp4	0.0	233.63903093338013	0.09998297691345215
47	142.99073195457458	fix_pre	0		62.0	45.0	2.5	/experiments/knapen_aot/videos/R_S_yt-Rqwi-Fk9IJQ_114.mp4	0.0	233.73901391029358	0.5174288749694824
47	143.49921298027039	response	0	2		45.0	2.5	/experiments/knapen_aot/videos/R_S_yt-Rqwi-Fk9IJQ_114.mp4	0.0	234.24749493598938	
47	143.50816082954407	movie	1		301.0	45.0	2.5	/experiments/knapen_aot/videos/R_S_yt-Rqwi-Fk9IJQ_114.mp4	0.0	234.25644278526306	2.5074920654296875
47	146.01565289497375	fix_post	2		12.0	45.0	2.5	/experiments/knapen_aot/videos/R_S_yt-Rqwi-Fk9IJQ_114.mp4	0.0	236.76393485069275	0.10000300407409668
48	146.11565589904785	fix_pre	0		81.0	46.0	2.5	/experiments/knapen_aot/videos/S_video_inspire_california_big-sur_2020_00001.1080-h264.mp4	0.0	236.86393785476685	0.6750280857086182
48	146.78253889083862	response	0	2		46.0	2.5	/experiments/knapen_aot/videos/S_video_inspire_california_big-sur_2020_00001.1080-h264.mp4	0.0	237.53082084655762	
48	146.79068398475647	movie	1		168.0	46.0	2.5	/experiments/knapen_aot/videos/S_video_inspire_california_big-sur_2020_00001.1080-h264.mp4	0.0	237.53896594047546	2.5082969665527344
48	149.2989809513092	fix_post	2		12.0	46.0	2.5	/experiments/knapen_aot/videos/S_video_inspire_california_big-sur_2020_00001.1080-h264.mp4	0.0	240.0472629070282	0.10004401206970215
49	149.3990249633789	fix_pre	0		121.0	47.0	2.5	/experiments/knapen_aot/videos/S_P006_C002_UHD_SDR_2K_AVC.mp4	0.0	240.1473069190979	1.0083329677581787
49	150.39912700653076	response	0	2		47.0	2.5	/experiments/knapen_aot/videos/S_P006_C002_UHD_SDR_2K_AVC.mp4	0.0	241.14740896224976	
49	150.40735793113708	movie	1		167.0	47.0	2.5	/experiments/knapen_aot/videos/S_P006_C002_UHD_SDR_2K_AVC.mp4	0.0	241.15563988685608	2.5083279609680176
49	152.9156858921051	fix_post	2		12.0	47.0	2.5	/experiments/knapen_aot/videos/S_P006_C002_UHD_SDR_2K_AVC.mp4	0.0	243.6639678478241	0.10016512870788574
50	153.015851020813	fix_pre	0		44.0	48.0	2.5	/experiments/knapen_aot/videos/S_yt-c5KPuyzO-50_4.mp4	0.0	243.76413297653198	0.36717796325683594
50	153.37408995628357	response	0	2		48.0	2.5	/experiments/knapen_aot/videos/S_yt-c5KPuyzO-50_4.mp4	0.0	244.12237191200256	
50	153.38302898406982	movie	1		301.0	48.0	2.5	/experiments/knapen_aot/videos/S_yt-c5KPuyzO-50_4.mp4	0.0	244.13131093978882	2.507585048675537
50	155.89061403274536	fix_post	2		12.0	48.0	2.5	/experiments/knapen_aot/videos/S_yt-c5KPuyzO-50_4.mp4	0.0	246.63889598846436	0.09993100166320801
51	155.99054503440857	fix_pre	0		100.0	49.0	2.5	blank	1.0	246.73882699012756	0.833378791809082
51	156.81571793556213	response	0	2		49.0	2.5	blank	1.0	247.56399989128113	
51	156.82392382621765	movie	1		301.0	49.0	2.5	blank	1.0	247.57220578193665	2.5083820819854736
51	159.33230590820312	fix_post	2		12.0	49.0	2.5	blank	1.0	250.08058786392212	0.09999990463256836
52	159.4323058128357	fix_pre	0		49.0	50.0	2.5	/experiments/knapen_aot/videos/S_yt--JnTDuElzXQ_121.mp4	0.0	250.1805877685547	0.40903615951538086
52	159.832417011261	response	0	2		50.0	2.5	/experiments/knapen_aot/videos/S_yt--JnTDuElzXQ_121.mp4	0.0	250.58069896697998	
52	159.84134197235107	movie	1		301.0	50.0	2.5	/experiments/knapen_aot/videos/S_yt--JnTDuElzXQ_121.mp4	0.0	250.58962392807007	2.507577896118164
52	162.34891986846924	fix_post	2		12.0	50.0	2.5	/experiments/knapen_aot/videos/S_yt--JnTDuElzXQ_121.mp4	0.0	253.09720182418823	0.10004115104675293
53	162.448961019516	fix_pre	0		61.0	51.0	2.5	/experiments/knapen_aot/videos/S_yt-H5LQq4MPIao_660.mp4	0.0	253.19724297523499	0.5082929134368896
53	162.94911789894104	response	0	2		51.0	2.5	/experiments/knapen_aot/videos/S_yt-H5LQq4MPIao_660.mp4	0.0	253.69739985466003	
53	162.95725393295288	movie	1		301.0	51.0	2.5	/experiments/knapen_aot/videos/S_yt-H5LQq4MPIao_660.mp4	0.0	253.70553588867188	2.508358955383301
53	165.46561288833618	fix_post	2		12.0	51.0	2.5	/experiments/knapen_aot/videos/S_yt-H5LQq4MPIao_660.mp4	0.0	256.2138948440552	0.09996891021728516
54	165.56558179855347	fix_pre	0		58.0	52.0	2.5	/experiments/knapen_aot/videos/R_S_yt-2cwARrUMj40_67.mp4	0.0	256.31386375427246	0.48406100273132324
54	166.04074692726135	response	0	2		52.0	2.5	/experiments/knapen_aot/videos/R_S_yt-2cwARrUMj40_67.mp4	0.0	256.78902888298035	
54	166.0496428012848	movie	1		301.0	52.0	2.5	/experiments/knapen_aot/videos/R_S_yt-2cwARrUMj40_67.mp4	0.0	256.7979247570038	2.5076191425323486
54	168.55726194381714	fix_post	2		12.0	52.0	2.5	/experiments/knapen_aot/videos/R_S_yt-2cwARrUMj40_67.mp4	0.0	259.30554389953613	0.09995198249816895
55	168.6572139263153	fix_pre	0		48.0	53.0	2.5	/experiments/knapen_aot/videos/S_yt-bD1U6bo-6bE_465.mp4	0.0	259.4054958820343	0.4000229835510254
55	169.04914093017578	response	0	2		53.0	2.5	/experiments/knapen_aot/videos/S_yt-bD1U6bo-6bE_465.mp4	0.0	259.7974228858948	
55	169.05723690986633	movie	1		301.0	53.0	2.5	/experiments/knapen_aot/videos/S_yt-bD1U6bo-6bE_465.mp4	0.0	259.8055188655853	2.508312940597534
55	171.56554985046387	fix_post	2		12.0	53.0	2.5	/experiments/knapen_aot/videos/S_yt-bD1U6bo-6bE_465.mp4	0.0	262.31383180618286	0.10000395774841309
56	171.66555380821228	fix_pre	0		50.0	54.0	2.5	blank	1.0	262.4138357639313	0.4166591167449951
56	172.07387590408325	response	0	2		54.0	2.5	blank	1.0	262.82215785980225	
56	172.08221292495728	movie	1		301.0	54.0	2.5	blank	1.0	262.83049488067627	2.508327007293701
56	174.59053993225098	fix_post	2		12.0	54.0	2.5	blank	1.0	265.33882188796997	0.10013794898986816
57	174.69067788124084	fix_pre	0		23.0	55.0	2.5	/experiments/knapen_aot/videos/S_pexels-vlada-karpovich-8044792.mp4	0.0	265.43895983695984	0.1921689510345459
57	174.87405395507812	response	0	2		55.0	2.5	/experiments/knapen_aot/videos/S_pexels-vlada-karpovich-8044792.mp4	0.0	265.6223359107971	
57	174.8828468322754	movie	1		164.0	55.0	2.5	/experiments/knapen_aot/videos/S_pexels-vlada-karpovich-8044792.mp4	0.0	265.6311287879944	2.5076980590820312
57	177.39054489135742	fix_post	2		12.0	55.0	2.5	/experiments/knapen_aot/videos/S_pexels-vlada-karpovich-8044792.mp4	0.0	268.1388268470764	0.10004711151123047
58	177.49059200286865	fix_pre	0		26.0	56.0	2.5	/experiments/knapen_aot/videos/S_comp_GMT060_117NC_363D_1034_AUSTRALIA_v35_SDR_PS_FINAL_20180731_SDR_2K_AVC.mp4	0.0	268.23887395858765	0.2166748046875
58	177.69908094406128	response	0	2		56.0	2.5	/experiments/knapen_aot/videos/S_comp_GMT060_117NC_363D_1034_AUSTRALIA_v35_SDR_PS_FINAL_20180731_SDR_2K_AVC.mp4	0.0	268.4473628997803	
58	177.70726680755615	movie	1		164.0	56.0	2.5	/experiments/knapen_aot/videos/S_comp_GMT060_117NC_363D_1034_AUSTRALIA_v35_SDR_PS_FINAL_20180731_SDR_2K_AVC.mp4	0.0	268.45554876327515	2.5082740783691406
58	180.2155408859253	fix_post	2		12.0	56.0	2.5	/experiments/knapen_aot/videos/S_comp_GMT060_117NC_363D_1034_AUSTRALIA_v35_SDR_PS_FINAL_20180731_SDR_2K_AVC.mp4	0.0	270.9638228416443	0.1000509262084961
59	180.3155918121338	fix_pre	0		61.0	57.0	2.5	/experiments/knapen_aot/videos/R_S_yt-eVAlSjH8E8k_127.mp4	0.0	271.0638737678528	0.5082931518554688
59	180.8157229423523	response	0	2		57.0	2.5	/experiments/knapen_aot/videos/R_S_yt-eVAlSjH8E8k_127.mp4	0.0	271.5640048980713	
59	180.82388496398926	movie	1		301.0	57.0	2.5	/experiments/knapen_aot/videos/R_S_yt-eVAlSjH8E8k_127.mp4	0.0	271.57216691970825	2.5082778930664062
59	183.33216285705566	fix_post	2		12.0	57.0	2.5	/experiments/knapen_aot/videos/R_S_yt-eVAlSjH8E8k_127.mp4	0.0	274.08044481277466	0.10004401206970215
60	183.43220686912537	fix_pre	0		34.0	58.0	2.5	/experiments/knapen_aot/videos/S_yt-4Qz0m5IYh10_167.mp4	0.0	274.18048882484436	0.2838921546936035
60	183.7073678970337	response	0	2		58.0	2.5	/experiments/knapen_aot/videos/S_yt-4Qz0m5IYh10_167.mp4	0.0	274.4556498527527	
60	183.71609902381897	movie	1		301.0	58.0	2.5	/experiments/knapen_aot/videos/S_yt-4Qz0m5IYh10_167.mp4	0.0	274.46438097953796	2.50764799118042
60	186.2237470149994	fix_post	2		12.0	58.0	2.5	/experiments/knapen_aot/videos/S_yt-4Qz0m5IYh10_167.mp4	0.0	276.9720289707184	0.10009980201721191
61	186.3238468170166	fix_pre	0		23.0	59.0	2.5	/experiments/knapen_aot/videos/R_S_yt-BiBS8EO5GPc_4.mp4	0.0	277.0721287727356	0.1915740966796875
61	186.5072808265686	response	0	2		59.0	2.5	/experiments/knapen_aot/videos/R_S_yt-BiBS8EO5GPc_4.mp4	0.0	277.2555627822876	
61	186.5154209136963	movie	1		301.0	59.0	2.5	/experiments/knapen_aot/videos/R_S_yt-BiBS8EO5GPc_4.mp4	0.0	277.2637028694153	2.5083370208740234
61	189.0237579345703	fix_post	2		12.0	59.0	2.5	/experiments/knapen_aot/videos/R_S_yt-BiBS8EO5GPc_4.mp4	0.0	279.7720398902893	0.10012388229370117
62	189.123881816864	fix_pre	0		29.0	60.0	2.5	/experiments/knapen_aot/videos/R_S_ILSVRC2015_train_00761000.mp4	0.0	279.872163772583	0.24164104461669922
62	189.35729598999023	response	0	2		60.0	2.5	/experiments/knapen_aot/videos/R_S_ILSVRC2015_train_00761000.mp4	0.0	280.10557794570923	
62	189.3655228614807	movie	1		301.0	60.0	2.5	/experiments/knapen_aot/videos/R_S_ILSVRC2015_train_00761000.mp4	0.0	280.1138048171997	2.508275032043457
62	191.87379789352417	fix_post	2		12.0	60.0	2.5	/experiments/knapen_aot/videos/R_S_ILSVRC2015_train_00761000.mp4	0.0	282.62207984924316	0.10001492500305176
63	191.97381281852722	fix_pre	0		37.0	61.0	2.5	blank	1.0	282.7220947742462	0.3082389831542969
63	192.27392101287842	response	0	2		61.0	2.5	blank	1.0	283.0222029685974	
63	192.28205180168152	movie	1		301.0	61.0	2.5	blank	1.0	283.0303337574005	2.5084471702575684
63	194.7904989719391	fix_post	2		12.0	61.0	2.5	blank	1.0	285.5387809276581	0.10000801086425781
64	194.89050698280334	fix_pre	0		28.0	62.0	2.5	/experiments/knapen_aot/videos/R_S_yt-LdHRVIb4nIE_6.mp4	0.0	285.63878893852234	0.2332899570465088
64	195.10812187194824	response	0	2		62.0	2.5	/experiments/knapen_aot/videos/R_S_yt-LdHRVIb4nIE_6.mp4	0.0	285.85640382766724	
64	195.12379693984985	movie	1		301.0	62.0	2.5	/experiments/knapen_aot/videos/R_S_yt-LdHRVIb4nIE_6.mp4	0.0	285.87207889556885	2.5082359313964844
64	197.63203287124634	fix_post	2		12.0	62.0	2.5	/experiments/knapen_aot/videos/R_S_yt-LdHRVIb4nIE_6.mp4	0.0	288.38031482696533	0.10021710395812988
65	197.73224997520447	fix_pre	0		38.0	63.0	2.5	/experiments/knapen_aot/videos/S_pexels-mikhail-nilov-8410063.mp4	0.0	288.48053193092346	0.31712794303894043
65	198.03308486938477	response	0	2		63.0	2.5	/experiments/knapen_aot/videos/S_pexels-mikhail-nilov-8410063.mp4	0.0	288.78136682510376	
65	198.0493779182434	movie	1		163.0	63.0	2.5	/experiments/knapen_aot/videos/S_pexels-mikhail-nilov-8410063.mp4	0.0	288.7976598739624	2.507775068283081
65	200.5571529865265	fix_post	2		12.0	63.0	2.5	/experiments/knapen_aot/videos/S_pexels-mikhail-nilov-8410063.mp4	0.0	291.3054349422455	0.09997200965881348
66	200.6571249961853	fix_pre	0		56.0	64.0	2.5	/experiments/knapen_aot/videos/R_S_yt-FMIevUic_XY_50.mp4	0.0	291.4054069519043	0.46668195724487305
66	201.10809087753296	response	0	2		64.0	2.5	/experiments/knapen_aot/videos/R_S_yt-FMIevUic_XY_50.mp4	0.0	291.85637283325195	
66	201.12380695343018	movie	1		301.0	64.0	2.5	/experiments/knapen_aot/videos/R_S_yt-FMIevUic_XY_50.mp4	0.0	291.87208890914917	2.5083720684051514
66	203.63217902183533	fix_post	2		12.0	64.0	2.5	/experiments/knapen_aot/videos/R_S_yt-FMIevUic_XY_50.mp4	0.0	294.3804609775543	0.09991979598999023
67	203.73209881782532	fix_pre	0		49.0	65.0	2.5	/experiments/knapen_aot/videos/R_S_yt-fGN7sGPy8BA_13.mp4	0.0	294.4803807735443	0.4083402156829834
67	204.13225603103638	response	0	2		65.0	2.5	/experiments/knapen_aot/videos/R_S_yt-fGN7sGPy8BA_13.mp4	0.0	294.88053798675537	
67	204.1404390335083	movie	1		301.0	65.0	2.5	/experiments/knapen_aot/videos/R_S_yt-fGN7sGPy8BA_13.mp4	0.0	294.8887209892273	2.5083558559417725
67	206.64879488945007	fix_post	2		12.0	65.0	2.5	/experiments/knapen_aot/videos/R_S_yt-fGN7sGPy8BA_13.mp4	0.0	297.39707684516907	0.10002398490905762
68	206.74881887435913	fix_pre	0		23.0	66.0	2.5	/experiments/knapen_aot/videos/R_S_pexels-mikhail-nilov-8410063.mp4	0.0	297.4971008300781	0.1916501522064209
68	206.93225979804993	response	0	2		66.0	2.5	/experiments/knapen_aot/videos/R_S_pexels-mikhail-nilov-8410063.mp4	0.0	297.6805417537689	
68	206.94046902656555	movie	1		166.0	66.0	2.5	/experiments/knapen_aot/videos/R_S_pexels-mikhail-nilov-8410063.mp4	0.0	297.68875098228455	2.5082218647003174
68	209.44869089126587	fix_post	2		12.0	66.0	2.5	/experiments/knapen_aot/videos/R_S_pexels-mikhail-nilov-8410063.mp4	0.0	300.19697284698486	0.10007810592651367
69	209.54876899719238	fix_pre	0		56.0	67.0	2.5	/experiments/knapen_aot/videos/S_yt-kKRGgUhVRzc_74.mp4	0.0	300.2970509529114	0.46659183502197266
69	210.00710892677307	response	0	2		67.0	2.5	/experiments/knapen_aot/videos/S_yt-kKRGgUhVRzc_74.mp4	0.0	300.75539088249207	
69	210.01536083221436	movie	1		301.0	67.0	2.5	/experiments/knapen_aot/videos/S_yt-kKRGgUhVRzc_74.mp4	0.0	300.76364278793335	2.5084049701690674
69	212.52376580238342	fix_post	2		12.0	67.0	2.5	/experiments/knapen_aot/videos/S_yt-kKRGgUhVRzc_74.mp4	0.0	303.2720477581024	0.10000920295715332
70	212.62377500534058	fix_pre	0		98.0	68.0	2.5	/experiments/knapen_aot/videos/R_S_yt-kKRGgUhVRzc_74.mp4	0.0	303.37205696105957	0.8165550231933594
70	213.43219995498657	response	0	2		68.0	2.5	/experiments/knapen_aot/videos/R_S_yt-kKRGgUhVRzc_74.mp4	0.0	304.18048191070557	
70	213.44033002853394	movie	1		301.0	68.0	2.5	/experiments/knapen_aot/videos/R_S_yt-kKRGgUhVRzc_74.mp4	0.0	304.18861198425293	2.5083768367767334
70	215.94870686531067	fix_post	2		12.0	68.0	2.5	/experiments/knapen_aot/videos/R_S_yt-kKRGgUhVRzc_74.mp4	0.0	306.69698882102966	0.10000205039978027
71	216.04870891571045	fix_pre	0		72.0	69.0	2.5	/experiments/knapen_aot/videos/R_S_yt-n1snPiGfg0A_45.mp4	0.0	306.79699087142944	0.5999729633331299
71	216.64052486419678	response	0	2		69.0	2.5	/experiments/knapen_aot/videos/R_S_yt-n1snPiGfg0A_45.mp4	0.0	307.38880681991577	
71	216.64868187904358	movie	1		301.0	69.0	2.5	/experiments/knapen_aot/videos/R_S_yt-n1snPiGfg0A_45.mp4	0.0	307.3969638347626	2.5083560943603516
71	219.15703797340393	fix_post	2		12.0	69.0	2.5	/experiments/knapen_aot/videos/R_S_yt-n1snPiGfg0A_45.mp4	0.0	309.9053199291229	0.10061788558959961
72	219.25765585899353	fix_pre	0		54.0	70.0	2.5	blank	1.0	310.0059378147125	0.44938015937805176
72	219.6988229751587	response	0	2		70.0	2.5	blank	1.0	310.4471049308777	
72	219.70703601837158	movie	1		301.0	70.0	2.5	blank	1.0	310.4553179740906	2.508319854736328
72	222.2153558731079	fix_post	2		12.0	70.0	2.5	blank	1.0	312.9636378288269	0.10001802444458008
73	222.3153738975525	fix_pre	0		78.0	71.0	2.5	/experiments/knapen_aot/videos/S_comp_CH_C007_C011_PSNK_v02_SDR_PS_FINAL_20180709_SDR_2K_AVC.mp4	0.0	313.0636558532715	0.6503689289093018
73	222.95709681510925	response	0	2		71.0	2.5	/experiments/knapen_aot/videos/S_comp_CH_C007_C011_PSNK_v02_SDR_PS_FINAL_20180709_SDR_2K_AVC.mp4	0.0	313.70537877082825	
73	222.9657428264618	movie	1		169.0	71.0	2.5	/experiments/knapen_aot/videos/S_comp_CH_C007_C011_PSNK_v02_SDR_PS_FINAL_20180709_SDR_2K_AVC.mp4	0.0	313.7140247821808	2.507948160171509
73	225.4736909866333	fix_post	2		12.0	71.0	2.5	/experiments/knapen_aot/videos/S_comp_CH_C007_C011_PSNK_v02_SDR_PS_FINAL_20180709_SDR_2K_AVC.mp4	0.0	316.2219729423523	0.10004091262817383
74	225.57373189926147	fix_pre	0		36.0	72.0	2.5	/experiments/knapen_aot/videos/R_S_yt-oPq1uvbw-lQ_62.mp4	0.0	316.32201385498047	0.2999711036682129
74	225.86553382873535	response	0	2		72.0	2.5	/experiments/knapen_aot/videos/R_S_yt-oPq1uvbw-lQ_62.mp4	0.0	316.61381578445435	
74	225.8737030029297	movie	1		301.0	72.0	2.5	/experiments/knapen_aot/videos/R_S_yt-oPq1uvbw-lQ_62.mp4	0.0	316.6219849586487	2.508283853530884
74	228.38198685646057	fix_post	2		12.0	72.0	2.5	/experiments/knapen_aot/videos/R_S_yt-oPq1uvbw-lQ_62.mp4	0.0	319.13026881217957	0.09998917579650879
75	228.48197603225708	fix_pre	0		57.0	73.0	2.5	/experiments/knapen_aot/videos/R_S_yt-fGN7sGPy8BA_13.mp4	0.0	319.2302579879761	0.4749898910522461
75	228.94878792762756	response	0	2		73.0	2.5	/experiments/knapen_aot/videos/R_S_yt-fGN7sGPy8BA_13.mp4	0.0	319.69706988334656	
75	228.95696592330933	movie	1		301.0	73.0	2.5	/experiments/knapen_aot/videos/R_S_yt-fGN7sGPy8BA_13.mp4	0.0	319.7052478790283	2.5082530975341797
75	231.4652190208435	fix_post	2		12.0	73.0	2.5	/experiments/knapen_aot/videos/R_S_yt-fGN7sGPy8BA_13.mp4	0.0	322.2135009765625	0.10006880760192871
76	231.56528782844543	fix_pre	0		83.0	74.0	2.5	/experiments/knapen_aot/videos/R_S_production_ID_3944248.mp4	0.0	322.31356978416443	0.6920630931854248
76	232.2488658428192	response	0	2		74.0	2.5	/experiments/knapen_aot/videos/R_S_production_ID_3944248.mp4	0.0	322.9971477985382	
76	232.25735092163086	movie	1		204.0	74.0	2.5	/experiments/knapen_aot/videos/R_S_production_ID_3944248.mp4	0.0	323.00563287734985	2.507936954498291
76	234.76528787612915	fix_post	2		12.0	74.0	2.5	/experiments/knapen_aot/videos/R_S_production_ID_3944248.mp4	0.0	325.51356983184814	0.10005497932434082
77	234.8653428554535	fix_pre	0		49.0	75.0	2.5	blank	1.0	325.6136248111725	0.40824198722839355
77	235.26547694206238	response	0	2		75.0	2.5	blank	1.0	326.0137588977814	
77	235.27358484268188	movie	1		301.0	75.0	2.5	blank	1.0	326.0218667984009	2.5084240436553955
77	237.78200888633728	fix_post	2		12.0	75.0	2.5	blank	1.0	328.5302908420563	0.10033798217773438
78	237.88234686851501	fix_pre	0		55.0	76.0	2.5	/experiments/knapen_aot/videos/S_yt-35i8UeYXjGw_47.mp4	0.0	328.630628824234	0.4583301544189453
78	238.33216094970703	response	0	2		76.0	2.5	/experiments/knapen_aot/videos/S_yt-35i8UeYXjGw_47.mp4	0.0	329.080442905426	
78	238.34067702293396	movie	1		301.0	76.0	2.5	/experiments/knapen_aot/videos/S_yt-35i8UeYXjGw_47.mp4	0.0	329.08895897865295	2.5078787803649902
78	240.84855580329895	fix_post	2		12.0	76.0	2.5	/experiments/knapen_aot/videos/S_yt-35i8UeYXjGw_47.mp4	0.0	331.59683775901794	0.1000680923461914
79	240.94862389564514	fix_pre	0		64.0	77.0	2.5	/experiments/knapen_aot/videos/S_pexels-yaroslav-shuraev-8091356.mp4	0.0	331.69690585136414	0.5333449840545654
79	241.4737629890442	response	0	2		77.0	2.5	/experiments/knapen_aot/videos/S_pexels-yaroslav-shuraev-8091356.mp4	0.0	332.2220449447632	
79	241.4819688796997	movie	1		200.0	77.0	2.5	/experiments/knapen_aot/videos/S_pexels-yaroslav-shuraev-8091356.mp4	0.0	332.2302508354187	2.508358955383301
79	243.990327835083	fix_post	2		12.0	77.0	2.5	/experiments/knapen_aot/videos/S_pexels-yaroslav-shuraev-8091356.mp4	0.0	334.738609790802	0.10019612312316895
80	244.09052395820618	fix_pre	0		39.0	78.0	2.5	/experiments/knapen_aot/videos/R_S_comp_A009_C001_010181A_v09_SDR_PS_FINAL_20180725_SDR_2K_AVC.mp4	0.0	334.83880591392517	0.32471394538879395
80	244.40706491470337	response	0	2		78.0	2.5	/experiments/knapen_aot/videos/R_S_comp_A009_C001_010181A_v09_SDR_PS_FINAL_20180725_SDR_2K_AVC.mp4	0.0	335.15534687042236	
80	244.41523790359497	movie	1		169.0	78.0	2.5	/experiments/knapen_aot/videos/R_S_comp_A009_C001_010181A_v09_SDR_PS_FINAL_20180725_SDR_2K_AVC.mp4	0.0	335.16351985931396	2.50833797454834
80	246.9235758781433	fix_post	2		12.0	78.0	2.5	/experiments/knapen_aot/videos/R_S_comp_A009_C001_010181A_v09_SDR_PS_FINAL_20180725_SDR_2K_AVC.mp4	0.0	337.6718578338623	0.09993696212768555
81	247.023512840271	fix_pre	0		61.0	79.0	2.5	/experiments/knapen_aot/videos/S_yt-KK6fVRAMm-c_476.mp4	0.0	337.77179479599	0.508411169052124
81	247.52372884750366	response	0	2		79.0	2.5	/experiments/knapen_aot/videos/S_yt-KK6fVRAMm-c_476.mp4	0.0	338.27201080322266	
81	247.53192400932312	movie	1		301.0	79.0	2.5	/experiments/knapen_aot/videos/S_yt-KK6fVRAMm-c_476.mp4	0.0	338.2802059650421	2.5083298683166504
81	250.04025387763977	fix_post	2		12.0	79.0	2.5	/experiments/knapen_aot/videos/S_yt-KK6fVRAMm-c_476.mp4	0.0	340.78853583335876	0.09993910789489746
82	250.14019298553467	fix_pre	0		63.0	80.0	2.5	/experiments/knapen_aot/videos/R_S_yt--vHa85DHvLU_31.mp4	0.0	340.88847494125366	0.5249948501586914
82	250.65699100494385	response	0	2		80.0	2.5	/experiments/knapen_aot/videos/R_S_yt--vHa85DHvLU_31.mp4	0.0	341.40527296066284	
82	250.66518783569336	movie	1		300.0	80.0	2.5	/experiments/knapen_aot/videos/R_S_yt--vHa85DHvLU_31.mp4	0.0	341.41346979141235	2.5084049701690674
82	253.17359280586243	fix_post	2		12.0	80.0	2.5	/experiments/knapen_aot/videos/R_S_yt--vHa85DHvLU_31.mp4	0.0	343.9218747615814	0.09995913505554199
83	253.27355194091797	fix_pre	0		47.0	81.0	2.5	/experiments/knapen_aot/videos/R_S_ILSVRC2015_train_00568000.mp4	0.0	344.02183389663696	0.3916339874267578
83	253.6570110321045	response	0	2		81.0	2.5	/experiments/knapen_aot/videos/R_S_ILSVRC2015_train_00568000.mp4	0.0	344.4052929878235	
83	253.66518592834473	movie	1		301.0	81.0	2.5	/experiments/knapen_aot/videos/R_S_ILSVRC2015_train_00568000.mp4	0.0	344.4134678840637	2.5083229541778564
83	256.1735088825226	fix_post	2		12.0	81.0	2.5	/experiments/knapen_aot/videos/R_S_ILSVRC2015_train_00568000.mp4	0.0	346.9217908382416	0.09995603561401367
84	256.2734649181366	fix_pre	0		37.0	82.0	2.5	blank	1.0	347.0217468738556	0.3084540367126465
84	256.57369780540466	response	0	2		82.0	2.5	blank	1.0	347.32197976112366	
84	256.58191895484924	movie	1		301.0	82.0	2.5	blank	1.0	347.33020091056824	2.5083160400390625
84	259.0902349948883	fix_post	2		12.0	82.0	2.5	blank	1.0	349.8385169506073	0.09993481636047363
85	259.1901698112488	fix_pre	0		44.0	83.0	2.5	/experiments/knapen_aot/videos/R_S_S005_C015_SDR_2K_AVC.mp4	0.0	349.9384517669678	0.36665916442871094
85	259.54867482185364	response	0	2		83.0	2.5	/experiments/knapen_aot/videos/R_S_S005_C015_SDR_2K_AVC.mp4	0.0	350.29695677757263	
85	259.5568289756775	movie	1		174.0	83.0	2.5	/experiments/knapen_aot/videos/R_S_S005_C015_SDR_2K_AVC.mp4	0.0	350.3051109313965	2.5083940029144287
85	262.0652229785919	fix_post	2		12.0	83.0	2.5	/experiments/knapen_aot/videos/R_S_S005_C015_SDR_2K_AVC.mp4	0.0	352.8135049343109	0.09998297691345215
87	262.16520595550537	stim	0		167.0					352.91348791122437	1.3916699886322021
87	262.6914258003235	response	0	2						353.4397077560425	
87	263.5525619983673	response	0	space						354.3008439540863	
