trial_nr	onset	event_type	phase	response	nr_frames	movie_index	movie_duration	movie_file	blank	onset_abs	duration
0	0.13303399085998535	stim	0		69.0					105.93846487998962	0.5752389430999756
0	0.6928920745849609	response	0	space						106.4983229637146	
1	0.7082729339599609	stim	0		121.0					106.5137038230896	1.008146047592163
1	1.4166810512542725	response	0	space						107.22211194038391	
1	1.716418981552124	stim	1		120.0					107.52184987068176	1.0000150203704834
1	1.7246840000152588	response	1	space						107.5301148891449	
1	2.091407060623169	response	1	space						107.89683794975281	
1	2.4080710411071777	response	1	space						108.21350193023682	
2	2.7164340019226074	fix_pre	0		3.0	0.0	2.5	/experiments/knapen_aot/videos/R_S_yt-HoRtvVuuvOs_5.mp4	0.0	108.52186489105225	0.025913000106811523
2	2.7330739498138428	response	0	space		0.0	2.5	/experiments/knapen_aot/videos/R_S_yt-HoRtvVuuvOs_5.mp4	0.0	108.53850483894348	
2	2.742347002029419	movie	1		301.0	0.0	2.5	/experiments/knapen_aot/videos/R_S_yt-HoRtvVuuvOs_5.mp4	0.0	108.54777789115906	2.5073161125183105
2	5.2496631145477295	fix_post	2		12.0	0.0	2.5	/experiments/knapen_aot/videos/R_S_yt-HoRtvVuuvOs_5.mp4	0.0	111.05509400367737	0.09995198249816895
3	5.349615097045898	fix_pre	0		54.0	1.0	2.5	/experiments/knapen_aot/videos/S_bing-www_dailymotion_com_video_x64c56w_164.mp4	0.0	111.15504598617554	0.45513391494750977
3	5.796138048171997	response	0	2		1.0	2.5	/experiments/knapen_aot/videos/S_bing-www_dailymotion_com_video_x64c56w_164.mp4	0.0	111.60156893730164	
3	5.804749011993408	movie	1		179.0	1.0	2.5	/experiments/knapen_aot/videos/S_bing-www_dailymotion_com_video_x64c56w_164.mp4	0.0	111.61017990112305	2.503209114074707
3	8.307958126068115	fix_post	2		12.0	1.0	2.5	/experiments/knapen_aot/videos/S_bing-www_dailymotion_com_video_x64c56w_164.mp4	0.0	114.11338901519775	0.10004901885986328
4	8.408007144927979	fix_pre	0		23.0	2.0	2.5	/experiments/knapen_aot/videos/R_S_ILSVRC2015_train_00601000.mp4	0.0	114.21343803405762	0.19158577919006348
4	8.591377973556519	response	0	2		2.0	2.5	/experiments/knapen_aot/videos/R_S_ILSVRC2015_train_00601000.mp4	0.0	114.39680886268616	
4	8.599592924118042	movie	1		301.0	2.0	2.5	/experiments/knapen_aot/videos/R_S_ILSVRC2015_train_00601000.mp4	0.0	114.40502381324768	2.5083911418914795
4	11.107984066009521	fix_post	2		12.0	2.0	2.5	/experiments/knapen_aot/videos/R_S_ILSVRC2015_train_00601000.mp4	0.0	116.91341495513916	0.0999598503112793
5	11.2079439163208	fix_pre	0		52.0	3.0	2.5	/experiments/knapen_aot/videos/R_S_pexels-sora-shimazaki-5925295.mp4	0.0	117.01337480545044	0.43331122398376465
5	11.633055925369263	response	0	2		3.0	2.5	/experiments/knapen_aot/videos/R_S_pexels-sora-shimazaki-5925295.mp4	0.0	117.4384868144989	
5	11.641255140304565	movie	1		163.0	3.0	2.5	/experiments/knapen_aot/videos/R_S_pexels-sora-shimazaki-5925295.mp4	0.0	117.4466860294342	2.508387804031372
5	13.65817904472351	response	1	2		3.0	2.5	/experiments/knapen_aot/videos/R_S_pexels-sora-shimazaki-5925295.mp4	0.0	119.46360993385315	
5	14.149642944335938	fix_post	2		12.0	3.0	2.5	/experiments/knapen_aot/videos/R_S_pexels-sora-shimazaki-5925295.mp4	0.0	119.95507383346558	0.09993505477905273
6	14.24957799911499	fix_pre	0		300.0	4.0	2.5	/experiments/knapen_aot/videos/R_S_video_inspire_sanfrancisco_castro_005.1080-h264.mp4	0.0	120.05500888824463	2.4999990463256836
6	16.741441011428833	response	0	2		4.0	2.5	/experiments/knapen_aot/videos/R_S_video_inspire_sanfrancisco_castro_005.1080-h264.mp4	0.0	122.54687190055847	
6	16.749577045440674	movie	1		168.0	4.0	2.5	/experiments/knapen_aot/videos/R_S_video_inspire_sanfrancisco_castro_005.1080-h264.mp4	0.0	122.55500793457031	2.5083019733428955
6	19.25787901878357	fix_post	2		12.0	4.0	2.5	/experiments/knapen_aot/videos/R_S_video_inspire_sanfrancisco_castro_005.1080-h264.mp4	0.0	125.06330990791321	0.09995293617248535
7	19.357831954956055	fix_pre	0		84.0	5.0	2.5	/experiments/knapen_aot/videos/R_S_yt-ikhlUegH24c_552.mp4	0.0	125.1632628440857	0.7000479698181152
7	20.04968810081482	response	0	2		5.0	2.5	/experiments/knapen_aot/videos/R_S_yt-ikhlUegH24c_552.mp4	0.0	125.85511898994446	
7	20.05787992477417	movie	1		301.0	5.0	2.5	/experiments/knapen_aot/videos/R_S_yt-ikhlUegH24c_552.mp4	0.0	125.86331081390381	2.50832200050354
7	22.56620192527771	fix_post	2		12.0	5.0	2.5	/experiments/knapen_aot/videos/R_S_yt-ikhlUegH24c_552.mp4	0.0	128.37163281440735	0.10006403923034668
8	22.666265964508057	fix_pre	0		330.0	6.0	2.5	blank	1.0	128.4716968536377	2.7499191761016846
8	25.400427103042603	response	0	2		6.0	2.5	blank	1.0	131.20585799217224	
8	25.41618514060974	movie	1		301.0	6.0	2.5	blank	1.0	131.22161602973938	2.5083439350128174
8	27.799626111984253	response	1	2		6.0	2.5	blank	1.0	133.6050570011139	
8	27.92452907562256	fix_post	2		12.0	6.0	2.5	blank	1.0	133.7299599647522	0.09998202323913574
9	28.024511098861694	fix_pre	0		44.0	7.0	2.5	/experiments/knapen_aot/videos/R_S_yt-RVoC19C420Y_27.mp4	0.0	133.82994198799133	0.3666198253631592
9	28.383005142211914	response	0	2		7.0	2.5	/experiments/knapen_aot/videos/R_S_yt-RVoC19C420Y_27.mp4	0.0	134.18843603134155	
9	28.391130924224854	movie	1		301.0	7.0	2.5	/experiments/knapen_aot/videos/R_S_yt-RVoC19C420Y_27.mp4	0.0	134.1965618133545	2.508366107940674
9	30.899497032165527	fix_post	2		12.0	7.0	2.5	/experiments/knapen_aot/videos/R_S_yt-RVoC19C420Y_27.mp4	0.0	136.70492792129517	0.10000491142272949
10	30.999501943588257	fix_pre	0		38.0	8.0	2.5	/experiments/knapen_aot/videos/R_S_yt-LZS1RrEtTeQ_136.mp4	0.0	136.8049328327179	0.3166379928588867
10	31.308009147644043	response	0	2		8.0	2.5	/experiments/knapen_aot/videos/R_S_yt-LZS1RrEtTeQ_136.mp4	0.0	137.11344003677368	
10	31.316139936447144	movie	1		301.0	8.0	2.5	/experiments/knapen_aot/videos/R_S_yt-LZS1RrEtTeQ_136.mp4	0.0	137.12157082557678	2.508472204208374
10	33.82461214065552	fix_post	2		12.0	8.0	2.5	/experiments/knapen_aot/videos/R_S_yt-LZS1RrEtTeQ_136.mp4	0.0	139.63004302978516	0.09992599487304688
11	33.924538135528564	fix_pre	0		56.0	9.0	2.5	/experiments/knapen_aot/videos/S_comp_CH_C002_C005_PSNK_v05_SDR_PS_FINAL_20180709_SDR_2K_AVC.mp4	0.0	139.7299690246582	0.46668481826782227
11	34.382954120635986	response	0	2		9.0	2.5	/experiments/knapen_aot/videos/S_comp_CH_C002_C005_PSNK_v05_SDR_PS_FINAL_20180709_SDR_2K_AVC.mp4	0.0	140.18838500976562	
11	34.39122295379639	movie	1		169.0	9.0	2.5	/experiments/knapen_aot/videos/S_comp_CH_C002_C005_PSNK_v05_SDR_PS_FINAL_20180709_SDR_2K_AVC.mp4	0.0	140.19665384292603	2.5083329677581787
11	36.899555921554565	fix_post	2		12.0	9.0	2.5	/experiments/knapen_aot/videos/S_comp_CH_C002_C005_PSNK_v05_SDR_PS_FINAL_20180709_SDR_2K_AVC.mp4	0.0	142.7049868106842	0.09992003440856934
12	36.999475955963135	fix_pre	0		5.0	10.0	2.5	/experiments/knapen_aot/videos/S_yt-SGTgMItFkxY_172.mp4	0.0	142.80490684509277	0.04175114631652832
12	37.03298902511597	response	0	2		10.0	2.5	/experiments/knapen_aot/videos/S_yt-SGTgMItFkxY_172.mp4	0.0	142.8384199142456	
12	37.04122710227966	movie	1		301.0	10.0	2.5	/experiments/knapen_aot/videos/S_yt-SGTgMItFkxY_172.mp4	0.0	142.8466579914093	2.5082919597625732
12	39.549519062042236	fix_post	2		12.0	10.0	2.5	/experiments/knapen_aot/videos/S_yt-SGTgMItFkxY_172.mp4	0.0	145.35494995117188	0.09997105598449707
13	39.64949011802673	fix_pre	0		169.0	11.0	2.5	/experiments/knapen_aot/videos/S_yt-roThCERxVCs_133.mp4	0.0	145.45492100715637	1.4082419872283936
13	41.04957413673401	response	0	2		11.0	2.5	/experiments/knapen_aot/videos/S_yt-roThCERxVCs_133.mp4	0.0	146.85500502586365	
13	41.05773210525513	movie	1		301.0	11.0	2.5	/experiments/knapen_aot/videos/S_yt-roThCERxVCs_133.mp4	0.0	146.86316299438477	2.5084588527679443
13	43.56619095802307	fix_post	2		12.0	11.0	2.5	/experiments/knapen_aot/videos/S_yt-roThCERxVCs_133.mp4	0.0	149.3716218471527	0.09995818138122559
14	43.6661491394043	fix_pre	0		48.0	12.0	2.5	/experiments/knapen_aot/videos/S_yt-T9Vwt7wFvPk_100.mp4	0.0	149.47158002853394	0.3999648094177246
14	44.057979106903076	response	0	2		12.0	2.5	/experiments/knapen_aot/videos/S_yt-T9Vwt7wFvPk_100.mp4	0.0	149.86340999603271	
14	44.06611394882202	movie	1		301.0	12.0	2.5	/experiments/knapen_aot/videos/S_yt-T9Vwt7wFvPk_100.mp4	0.0	149.87154483795166	2.5083541870117188
14	46.57446813583374	fix_post	2		12.0	12.0	2.5	/experiments/knapen_aot/videos/S_yt-T9Vwt7wFvPk_100.mp4	0.0	152.37989902496338	0.10003995895385742
15	46.6745080947876	fix_pre	0		31.0	13.0	2.5	/experiments/knapen_aot/videos/R_S_yt-9pYW_TqVpU4_43.mp4	0.0	152.47993898391724	0.25828003883361816
15	46.92457914352417	response	0	2		13.0	2.5	/experiments/knapen_aot/videos/R_S_yt-9pYW_TqVpU4_43.mp4	0.0	152.7300100326538	
15	46.932788133621216	movie	1		301.0	13.0	2.5	/experiments/knapen_aot/videos/R_S_yt-9pYW_TqVpU4_43.mp4	0.0	152.73821902275085	2.508572816848755
15	49.44136095046997	fix_post	2		12.0	13.0	2.5	/experiments/knapen_aot/videos/R_S_yt-9pYW_TqVpU4_43.mp4	0.0	155.2467918395996	0.09974217414855957
16	49.54110312461853	fix_pre	0		22.0	14.0	2.5	blank	1.0	155.34653401374817	0.18333983421325684
16	49.71628999710083	response	0	2		14.0	2.5	blank	1.0	155.52172088623047	
16	49.72444295883179	movie	1		301.0	14.0	2.5	blank	1.0	155.52987384796143	2.5082759857177734
16	52.23271894454956	fix_post	2		12.0	14.0	2.5	blank	1.0	158.0381498336792	0.10004210472106934
17	52.33276104927063	fix_pre	0		54.0	15.0	2.5	/experiments/knapen_aot/videos/S_yt-YFl_NAWBFAw_166.mp4	0.0	158.13819193840027	0.45075392723083496
17	52.774516105651855	response	0	2		15.0	2.5	/experiments/knapen_aot/videos/S_yt-YFl_NAWBFAw_166.mp4	0.0	158.5799469947815	
17	52.783514976501465	movie	1		301.0	15.0	2.5	/experiments/knapen_aot/videos/S_yt-YFl_NAWBFAw_166.mp4	0.0	158.5889458656311	2.5075371265411377
17	55.2910521030426	fix_post	2		12.0	15.0	2.5	/experiments/knapen_aot/videos/S_yt-YFl_NAWBFAw_166.mp4	0.0	161.09648299217224	0.10003900527954102
18	55.391091108322144	fix_pre	0		164.0	16.0	2.5	/experiments/knapen_aot/videos/S_yt-BG-G7m5wLZ4_94.mp4	0.0	161.19652199745178	1.366560935974121
18	56.749557971954346	response	0	2		16.0	2.5	/experiments/knapen_aot/videos/S_yt-BG-G7m5wLZ4_94.mp4	0.0	162.55498886108398	
18	56.757652044296265	movie	1		301.0	16.0	2.5	/experiments/knapen_aot/videos/S_yt-BG-G7m5wLZ4_94.mp4	0.0	162.5630829334259	2.5084269046783447
18	59.26607894897461	fix_post	2		12.0	16.0	2.5	/experiments/knapen_aot/videos/S_yt-BG-G7m5wLZ4_94.mp4	0.0	165.07150983810425	0.10000920295715332
19	59.36608815193176	fix_pre	0		141.0	17.0	2.5	/experiments/knapen_aot/videos/R_S_yt-EApB0DJ3ECg_66.mp4	0.0	165.1715190410614	1.174914836883545
19	60.53285813331604	response	0	2		17.0	2.5	/experiments/knapen_aot/videos/R_S_yt-EApB0DJ3ECg_66.mp4	0.0	166.33828902244568	
19	60.54100298881531	movie	1		301.0	17.0	2.5	/experiments/knapen_aot/videos/R_S_yt-EApB0DJ3ECg_66.mp4	0.0	166.34643387794495	2.5083680152893066
19	63.049371004104614	fix_post	2		12.0	17.0	2.5	/experiments/knapen_aot/videos/R_S_yt-EApB0DJ3ECg_66.mp4	0.0	168.85480189323425	0.09994292259216309
20	63.14931392669678	fix_pre	0		1092.0	18.0	2.5	/experiments/knapen_aot/videos/S_yt-LZS1RrEtTeQ_136.mp4	0.0	168.95474481582642	9.09999704360962
20	72.24112200737	response	0	2		18.0	2.5	/experiments/knapen_aot/videos/S_yt-LZS1RrEtTeQ_136.mp4	0.0	178.04655289649963	
20	72.2493109703064	movie	1		301.0	18.0	2.5	/experiments/knapen_aot/videos/S_yt-LZS1RrEtTeQ_136.mp4	0.0	178.05474185943604	2.5083510875701904
20	74.75766205787659	fix_post	2		12.0	18.0	2.5	/experiments/knapen_aot/videos/S_yt-LZS1RrEtTeQ_136.mp4	0.0	180.56309294700623	0.09993696212768555
21	74.85759902000427	fix_pre	0		186.0	19.0	2.5	/experiments/knapen_aot/videos/R_S_video-8.mp4	0.0	180.6630299091339	1.550616979598999
21	76.39948391914368	response	0	2		19.0	2.5	/experiments/knapen_aot/videos/R_S_video-8.mp4	0.0	182.20491480827332	
21	76.40821599960327	movie	1		203.0	19.0	2.5	/experiments/knapen_aot/videos/R_S_video-8.mp4	0.0	182.2136468887329	2.507802963256836
21	78.91601896286011	fix_post	2		12.0	19.0	2.5	/experiments/knapen_aot/videos/R_S_video-8.mp4	0.0	184.72144985198975	0.10001707077026367
22	79.01603603363037	fix_pre	0		108.0	20.0	2.5	blank	1.0	184.82146692276	0.899878978729248
22	79.90770411491394	response	0	2		20.0	2.5	blank	1.0	185.71313500404358	
22	79.91591501235962	movie	1		301.0	20.0	2.5	blank	1.0	185.72134590148926	2.508366107940674
22	82.4242811203003	fix_post	2		12.0	20.0	2.5	blank	1.0	188.22971200942993	0.09996795654296875
23	82.52424907684326	fix_pre	0		136.0	21.0	2.5	/experiments/knapen_aot/videos/R_S_yt-IPiZqn4dG9k_9.mp4	0.0	188.3296799659729	1.1338660717010498
23	83.64941596984863	response	0	2		21.0	2.5	/experiments/knapen_aot/videos/R_S_yt-IPiZqn4dG9k_9.mp4	0.0	189.45484685897827	
23	83.65811514854431	movie	1		301.0	21.0	2.5	/experiments/knapen_aot/videos/R_S_yt-IPiZqn4dG9k_9.mp4	0.0	189.46354603767395	2.5080068111419678
23	86.16612195968628	fix_post	2		12.0	21.0	2.5	/experiments/knapen_aot/videos/R_S_yt-IPiZqn4dG9k_9.mp4	0.0	191.97155284881592	0.09981608390808105
24	86.26593804359436	fix_pre	0		329.0	22.0	2.5	/experiments/knapen_aot/videos/S_yt-Iu2ZPHLqXuY_32.mp4	0.0	192.071368932724	2.741586923599243
24	88.99937796592712	response	0	2		22.0	2.5	/experiments/knapen_aot/videos/S_yt-Iu2ZPHLqXuY_32.mp4	0.0	194.80480885505676	
24	89.0075249671936	movie	1		301.0	22.0	2.5	/experiments/knapen_aot/videos/S_yt-Iu2ZPHLqXuY_32.mp4	0.0	194.81295585632324	2.5085911750793457
24	91.51611614227295	fix_post	2		12.0	22.0	2.5	/experiments/knapen_aot/videos/S_yt-Iu2ZPHLqXuY_32.mp4	0.0	197.3215470314026	0.09983301162719727
25	91.61594915390015	fix_pre	0		64.0	23.0	2.5	/experiments/knapen_aot/videos/R_S_video-2.mp4	0.0	197.42138004302979	0.5332589149475098
25	92.14105010032654	response	0	2		23.0	2.5	/experiments/knapen_aot/videos/R_S_video-2.mp4	0.0	197.94648098945618	
25	92.14920806884766	movie	1		162.0	23.0	2.5	/experiments/knapen_aot/videos/R_S_video-2.mp4	0.0	197.9546389579773	2.508420944213867
25	94.39942002296448	response	1	4		23.0	2.5	/experiments/knapen_aot/videos/R_S_video-2.mp4	0.0	200.20485091209412	
25	94.65762901306152	fix_post	2		12.0	23.0	2.5	/experiments/knapen_aot/videos/R_S_video-2.mp4	0.0	200.46305990219116	0.10016107559204102
26	94.75779008865356	fix_pre	0		96.0	24.0	2.5	/experiments/knapen_aot/videos/R_S_yt-q9-_bG9ry3E_5.mp4	0.0	200.5632209777832	0.7996890544891357
26	95.54941010475159	response	0	2		24.0	2.5	/experiments/knapen_aot/videos/R_S_yt-q9-_bG9ry3E_5.mp4	0.0	201.35484099388123	
26	95.5574791431427	movie	1		301.0	24.0	2.5	/experiments/knapen_aot/videos/R_S_yt-q9-_bG9ry3E_5.mp4	0.0	201.36291003227234	2.508513927459717
26	98.06599307060242	fix_post	2		12.0	24.0	2.5	/experiments/knapen_aot/videos/R_S_yt-q9-_bG9ry3E_5.mp4	0.0	203.87142395973206	0.09995102882385254
27	98.16594409942627	fix_pre	0		24.0	25.0	2.5	/experiments/knapen_aot/videos/S_Pexels_Videos_2786546.mp4	0.0	203.9713749885559	0.2004249095916748
27	98.357754945755	response	0	2		25.0	2.5	/experiments/knapen_aot/videos/S_Pexels_Videos_2786546.mp4	0.0	204.16318583488464	
27	98.36636900901794	movie	1		165.0	25.0	2.5	/experiments/knapen_aot/videos/S_Pexels_Videos_2786546.mp4	0.0	204.17179989814758	2.5080270767211914
27	100.87439608573914	fix_post	2		12.0	25.0	2.5	/experiments/knapen_aot/videos/S_Pexels_Videos_2786546.mp4	0.0	206.67982697486877	0.09986400604248047
27	100.93267512321472	response	2	2		25.0	2.5	/experiments/knapen_aot/videos/S_Pexels_Videos_2786546.mp4	0.0	206.73810601234436	
28	100.97426009178162	fix_pre	0		85.0	26.0	2.5	/experiments/knapen_aot/videos/S_ILSVRC2015_train_00371013.mp4	0.0	206.77969098091125	0.7083039283752441
28	101.67438101768494	response	0	2		26.0	2.5	/experiments/knapen_aot/videos/S_ILSVRC2015_train_00371013.mp4	0.0	207.47981190681458	
28	101.68256402015686	movie	1		301.0	26.0	2.5	/experiments/knapen_aot/videos/S_ILSVRC2015_train_00371013.mp4	0.0	207.4879949092865	2.5084240436553955
28	104.19098806381226	fix_post	2		12.0	26.0	2.5	/experiments/knapen_aot/videos/S_ILSVRC2015_train_00371013.mp4	0.0	209.9964189529419	0.09991097450256348
29	104.29089903831482	fix_pre	0		346.0	27.0	2.5	blank	1.0	210.09632992744446	2.8832919597625732
29	107.16613912582397	response	0	2		27.0	2.5	blank	1.0	212.9715700149536	
29	107.17419099807739	movie	1		301.0	27.0	2.5	blank	1.0	212.97962188720703	2.5084409713745117
29	109.6826319694519	fix_post	2		12.0	27.0	2.5	blank	1.0	215.48806285858154	0.09997105598449707
30	109.7826030254364	fix_pre	0		31.0	28.0	2.5	/experiments/knapen_aot/videos/R_S_video_inspire_sanfrancisco_castro_005.1080-h264.mp4	0.0	215.58803391456604	0.25826191902160645
30	110.0326669216156	response	0	2		28.0	2.5	/experiments/knapen_aot/videos/R_S_video_inspire_sanfrancisco_castro_005.1080-h264.mp4	0.0	215.83809781074524	
30	110.04086494445801	movie	1		168.0	28.0	2.5	/experiments/knapen_aot/videos/R_S_video_inspire_sanfrancisco_castro_005.1080-h264.mp4	0.0	215.84629583358765	2.5082809925079346
30	112.54914593696594	fix_post	2		12.0	28.0	2.5	/experiments/knapen_aot/videos/R_S_video_inspire_sanfrancisco_castro_005.1080-h264.mp4	0.0	218.35457682609558	0.10005497932434082
31	112.64920091629028	fix_pre	0		56.0	29.0	2.5	/experiments/knapen_aot/videos/S_yt-c5IgOXX8YZ0_24.mp4	0.0	218.45463180541992	0.4671452045440674
31	113.10778999328613	response	0	2		29.0	2.5	/experiments/knapen_aot/videos/S_yt-c5IgOXX8YZ0_24.mp4	0.0	218.91322088241577	
31	113.11634612083435	movie	1		301.0	29.0	2.5	/experiments/knapen_aot/videos/S_yt-c5IgOXX8YZ0_24.mp4	0.0	218.921777009964	2.5078299045562744
31	115.62417602539062	fix_post	2		12.0	29.0	2.5	/experiments/knapen_aot/videos/S_yt-c5IgOXX8YZ0_24.mp4	0.0	221.42960691452026	0.09997391700744629
32	115.72414994239807	fix_pre	0		78.0	30.0	2.5	/experiments/knapen_aot/videos/R_S_yt-2y6A9DJPsDU_65.mp4	0.0	221.5295808315277	0.6499860286712646
32	116.36598992347717	response	0	2		30.0	2.5	/experiments/knapen_aot/videos/R_S_yt-2y6A9DJPsDU_65.mp4	0.0	222.1714208126068	
32	116.37413597106934	movie	1		301.0	30.0	2.5	/experiments/knapen_aot/videos/R_S_yt-2y6A9DJPsDU_65.mp4	0.0	222.17956686019897	2.5084891319274902
32	118.88262510299683	fix_post	2		12.0	30.0	2.5	/experiments/knapen_aot/videos/R_S_yt-2y6A9DJPsDU_65.mp4	0.0	224.68805599212646	0.0998389720916748
33	118.9824640750885	fix_pre	0		35.0	31.0	2.5	/experiments/knapen_aot/videos/R_S_yt-BG-G7m5wLZ4_94.mp4	0.0	224.78789496421814	0.291658878326416
33	119.26588201522827	response	0	2		31.0	2.5	/experiments/knapen_aot/videos/R_S_yt-BG-G7m5wLZ4_94.mp4	0.0	225.0713129043579	
33	119.27412295341492	movie	1		301.0	31.0	2.5	/experiments/knapen_aot/videos/R_S_yt-BG-G7m5wLZ4_94.mp4	0.0	225.07955384254456	2.5083281993865967
33	121.78245115280151	fix_post	2		12.0	31.0	2.5	/experiments/knapen_aot/videos/R_S_yt-BG-G7m5wLZ4_94.mp4	0.0	227.58788204193115	0.1000058650970459
34	121.88245701789856	fix_pre	0		59.0	32.0	2.5	/experiments/knapen_aot/videos/S_yt-9pYW_TqVpU4_43.mp4	0.0	227.6878879070282	0.4916551113128662
34	122.35845303535461	response	0	2		32.0	2.5	/experiments/knapen_aot/videos/S_yt-9pYW_TqVpU4_43.mp4	0.0	228.16388392448425	
34	122.37411212921143	movie	1		301.0	32.0	2.5	/experiments/knapen_aot/videos/S_yt-9pYW_TqVpU4_43.mp4	0.0	228.17954301834106	2.508323907852173
34	124.54083013534546	response	1	2		32.0	2.5	/experiments/knapen_aot/videos/S_yt-9pYW_TqVpU4_43.mp4	0.0	230.3462610244751	
34	124.8824360370636	fix_post	2		12.0	32.0	2.5	/experiments/knapen_aot/videos/S_yt-9pYW_TqVpU4_43.mp4	0.0	230.68786692619324	0.10001611709594727
35	124.98245215415955	fix_pre	0		41.0	33.0	2.5	/experiments/knapen_aot/videos/S_yt-MNo__ov96eI_22.mp4	0.0	230.78788304328918	0.3419687747955322
35	125.31588101387024	response	0	2		33.0	2.5	/experiments/knapen_aot/videos/S_yt-MNo__ov96eI_22.mp4	0.0	231.12131190299988	
35	125.32442092895508	movie	1		300.0	33.0	2.5	/experiments/knapen_aot/videos/S_yt-MNo__ov96eI_22.mp4	0.0	231.12985181808472	2.507995128631592
35	127.83241605758667	fix_post	2		12.0	33.0	2.5	/experiments/knapen_aot/videos/S_yt-MNo__ov96eI_22.mp4	0.0	233.6378469467163	0.10000395774841309
36	127.93242001533508	fix_pre	0		31.0	34.0	2.5	/experiments/knapen_aot/videos/S_yt-tNCrkObhB6c_17.mp4	0.0	233.73785090446472	0.2583169937133789
36	128.1825931072235	response	0	2		34.0	2.5	/experiments/knapen_aot/videos/S_yt-tNCrkObhB6c_17.mp4	0.0	233.98802399635315	
36	128.19073700904846	movie	1		301.0	34.0	2.5	/experiments/knapen_aot/videos/S_yt-tNCrkObhB6c_17.mp4	0.0	233.9961678981781	2.5083870887756348
36	130.6991240978241	fix_post	2		12.0	34.0	2.5	/experiments/knapen_aot/videos/S_yt-tNCrkObhB6c_17.mp4	0.0	236.50455498695374	0.09998202323913574
37	130.79910612106323	fix_pre	0		48.0	35.0	2.5	blank	1.0	236.60453701019287	0.4004359245300293
37	131.1833701133728	response	0	2		35.0	2.5	blank	1.0	236.98880100250244	
37	131.19954204559326	movie	1		301.0	35.0	2.5	blank	1.0	237.0049729347229	2.507859945297241
37	132.44084692001343	response	1	2		35.0	2.5	blank	1.0	238.24627780914307	
37	133.7074019908905	fix_post	2		12.0	35.0	2.5	blank	1.0	239.51283288002014	0.09995412826538086
38	133.80735611915588	fix_pre	0		42.0	36.0	2.5	/experiments/knapen_aot/videos/R_S_bing-www_dailymotion_com_video_x64c56w_164.mp4	0.0	239.61278700828552	0.3502528667449951
38	134.14914298057556	response	0	2		36.0	2.5	/experiments/knapen_aot/videos/R_S_bing-www_dailymotion_com_video_x64c56w_164.mp4	0.0	239.9545738697052	
38	134.15760898590088	movie	1		165.0	36.0	2.5	/experiments/knapen_aot/videos/R_S_bing-www_dailymotion_com_video_x64c56w_164.mp4	0.0	239.96303987503052	2.5081570148468018
38	136.66576600074768	fix_post	2		12.0	36.0	2.5	/experiments/knapen_aot/videos/R_S_bing-www_dailymotion_com_video_x64c56w_164.mp4	0.0	242.47119688987732	0.09995198249816895
39	136.76571798324585	fix_pre	0		69.0	37.0	2.5	/experiments/knapen_aot/videos/S_yt-3V8US8ZD3NU_229.mp4	0.0	242.5711488723755	0.575016975402832
39	137.33378195762634	response	0	2		37.0	2.5	/experiments/knapen_aot/videos/S_yt-3V8US8ZD3NU_229.mp4	0.0	243.13921284675598	
39	137.34073495864868	movie	1		301.0	37.0	2.5	/experiments/knapen_aot/videos/S_yt-3V8US8ZD3NU_229.mp4	0.0	243.14616584777832	2.5083541870117188
39	139.8490891456604	fix_post	2		12.0	37.0	2.5	/experiments/knapen_aot/videos/S_yt-3V8US8ZD3NU_229.mp4	0.0	245.65452003479004	0.10048985481262207
40	139.94957900047302	fix_pre	0		40.0	38.0	2.5	/experiments/knapen_aot/videos/S_yt-q9kT_c9QjbQ_34.mp4	0.0	245.75500988960266	0.3330061435699463
40	140.2741539478302	response	0	2		38.0	2.5	/experiments/knapen_aot/videos/S_yt-q9kT_c9QjbQ_34.mp4	0.0	246.07958483695984	
40	140.28258514404297	movie	1		301.0	38.0	2.5	/experiments/knapen_aot/videos/S_yt-q9kT_c9QjbQ_34.mp4	0.0	246.0880160331726	2.5081088542938232
40	142.7906939983368	fix_post	2		12.0	38.0	2.5	/experiments/knapen_aot/videos/S_yt-q9kT_c9QjbQ_34.mp4	0.0	248.59612488746643	0.10001611709594727
41	142.89071011543274	fix_pre	0		39.0	39.0	2.5	/experiments/knapen_aot/videos/S_yt-gikcYT6ZLzA_7.mp4	0.0	248.69614100456238	0.3249659538269043
41	143.20752096176147	response	0	2		39.0	2.5	/experiments/knapen_aot/videos/S_yt-gikcYT6ZLzA_7.mp4	0.0	249.0129518508911	
41	143.21567606925964	movie	1		301.0	39.0	2.5	/experiments/knapen_aot/videos/S_yt-gikcYT6ZLzA_7.mp4	0.0	249.02110695838928	2.5083179473876953
41	143.9526331424713	response	1	2		39.0	2.5	/experiments/knapen_aot/videos/S_yt-gikcYT6ZLzA_7.mp4	0.0	249.75806403160095	
41	145.72399401664734	fix_post	2		12.0	39.0	2.5	/experiments/knapen_aot/videos/S_yt-gikcYT6ZLzA_7.mp4	0.0	251.52942490577698	0.10032105445861816
42	145.82431507110596	fix_pre	0		43.0	40.0	2.5	blank	1.0	251.6297459602356	0.35794687271118164
42	146.17427706718445	response	0	2		40.0	2.5	blank	1.0	251.9797079563141	
42	146.18226194381714	movie	1		301.0	40.0	2.5	blank	1.0	251.98769283294678	2.5083630084991455
42	148.54901504516602	response	1	2		40.0	2.5	blank	1.0	254.35444593429565	
42	148.69062495231628	fix_post	2		12.0	40.0	2.5	blank	1.0	254.49605584144592	0.10021209716796875
43	148.79083704948425	fix_pre	0		36.0	41.0	2.5	/experiments/knapen_aot/videos/R_S_g201_AK_A003_C014_SDR_20191113_SDR_2K_AVC.mp4	0.0	254.5962679386139	0.29974794387817383
43	149.08245611190796	response	0	2		41.0	2.5	/experiments/knapen_aot/videos/R_S_g201_AK_A003_C014_SDR_20191113_SDR_2K_AVC.mp4	0.0	254.8878870010376	
43	149.09058499336243	movie	1		174.0	41.0	2.5	/experiments/knapen_aot/videos/R_S_g201_AK_A003_C014_SDR_20191113_SDR_2K_AVC.mp4	0.0	254.89601588249207	2.5084240436553955
43	151.59900903701782	fix_post	2		12.0	41.0	2.5	/experiments/knapen_aot/videos/R_S_g201_AK_A003_C014_SDR_20191113_SDR_2K_AVC.mp4	0.0	257.40443992614746	0.10020089149475098
44	151.69920992851257	fix_pre	0		50.0	42.0	2.5	/experiments/knapen_aot/videos/R_S_yt-mHLTJkMrkZI_143.mp4	0.0	257.5046408176422	0.4165639877319336
44	152.10741996765137	response	0	2		42.0	2.5	/experiments/knapen_aot/videos/R_S_yt-mHLTJkMrkZI_143.mp4	0.0	257.912850856781	
44	152.1157739162445	movie	1		301.0	42.0	2.5	/experiments/knapen_aot/videos/R_S_yt-mHLTJkMrkZI_143.mp4	0.0	257.92120480537415	2.5082900524139404
44	154.62406396865845	fix_post	2		12.0	42.0	2.5	/experiments/knapen_aot/videos/R_S_yt-mHLTJkMrkZI_143.mp4	0.0	260.4294948577881	0.09981203079223633
45	154.72387599945068	fix_pre	0		49.0	43.0	2.5	/experiments/knapen_aot/videos/S_yt-o_CT2MjZ9fA_216.mp4	0.0	260.5293068885803	0.4083530902862549
45	155.12400794029236	response	0	2		43.0	2.5	/experiments/knapen_aot/videos/S_yt-o_CT2MjZ9fA_216.mp4	0.0	260.929438829422	
45	155.13222908973694	movie	1		301.0	43.0	2.5	/experiments/knapen_aot/videos/S_yt-o_CT2MjZ9fA_216.mp4	0.0	260.9376599788666	2.508436918258667
45	157.6406660079956	fix_post	2		12.0	43.0	2.5	/experiments/knapen_aot/videos/S_yt-o_CT2MjZ9fA_216.mp4	0.0	263.44609689712524	0.10020995140075684
46	157.74087595939636	fix_pre	0		20.0	44.0	2.5	/experiments/knapen_aot/videos/S_wc-zkO_omg3nTvg_5.mp4	0.0	263.546306848526	0.16654396057128906
46	157.89158296585083	response	0	2		44.0	2.5	/experiments/knapen_aot/videos/S_wc-zkO_omg3nTvg_5.mp4	0.0	263.69701385498047	
46	157.90741991996765	movie	1		165.0	44.0	2.5	/experiments/knapen_aot/videos/S_wc-zkO_omg3nTvg_5.mp4	0.0	263.7128508090973	2.508258104324341
46	160.415678024292	fix_post	2		12.0	44.0	2.5	/experiments/knapen_aot/videos/S_wc-zkO_omg3nTvg_5.mp4	0.0	266.22110891342163	0.09985589981079102
47	160.51553392410278	fix_pre	0		91.0	45.0	2.5	/experiments/knapen_aot/videos/R_S_yt-foGMTdxewBI_43.mp4	0.0	266.3209648132324	0.7583131790161133
47	161.26592206954956	response	0	2		45.0	2.5	/experiments/knapen_aot/videos/R_S_yt-foGMTdxewBI_43.mp4	0.0	267.0713529586792	
47	161.2738471031189	movie	1		301.0	45.0	2.5	/experiments/knapen_aot/videos/R_S_yt-foGMTdxewBI_43.mp4	0.0	267.07927799224854	2.5085549354553223
47	163.78240203857422	fix_post	2		12.0	45.0	2.5	/experiments/knapen_aot/videos/R_S_yt-foGMTdxewBI_43.mp4	0.0	269.58783292770386	0.09981989860534668
48	163.88222193717957	fix_pre	0		26.0	46.0	2.5	/experiments/knapen_aot/videos/S_yt-3eQHOLBzOqA_100.mp4	0.0	269.6876528263092	0.21664118766784668
48	164.09058499336243	response	0	2		46.0	2.5	/experiments/knapen_aot/videos/S_yt-3eQHOLBzOqA_100.mp4	0.0	269.89601588249207	
48	164.0988631248474	movie	1		301.0	46.0	2.5	/experiments/knapen_aot/videos/S_yt-3eQHOLBzOqA_100.mp4	0.0	269.90429401397705	2.508373975753784
48	166.6072371006012	fix_post	2		12.0	46.0	2.5	/experiments/knapen_aot/videos/S_yt-3eQHOLBzOqA_100.mp4	0.0	272.41266798973083	0.09995603561401367
49	166.7071931362152	fix_pre	0		40.0	47.0	2.5	blank	1.0	272.51262402534485	0.3332839012145996
49	167.0323600769043	response	0	2		47.0	2.5	blank	1.0	272.83779096603394	
49	167.0404770374298	movie	1		301.0	47.0	2.5	blank	1.0	272.84590792655945	2.508366107940674
49	169.54884314537048	fix_post	2		12.0	47.0	2.5	blank	1.0	275.3542740345001	0.10000777244567871
50	169.64885091781616	fix_pre	0		39.0	48.0	2.5	/experiments/knapen_aot/videos/S_yt-J1dw4AznwmQ_7.mp4	0.0	275.4542818069458	0.32497620582580566
50	169.965754032135	response	0	2		48.0	2.5	/experiments/knapen_aot/videos/S_yt-J1dw4AznwmQ_7.mp4	0.0	275.77118492126465	
50	169.97382712364197	movie	1		301.0	48.0	2.5	/experiments/knapen_aot/videos/S_yt-J1dw4AznwmQ_7.mp4	0.0	275.7792580127716	2.5082948207855225
50	171.68524813652039	response	1	2		48.0	2.5	/experiments/knapen_aot/videos/S_yt-J1dw4AznwmQ_7.mp4	0.0	277.49067902565	
50	172.4821219444275	fix_post	2		12.0	48.0	2.5	/experiments/knapen_aot/videos/S_yt-J1dw4AznwmQ_7.mp4	0.0	278.28755283355713	0.10004615783691406
51	172.5821681022644	fix_pre	0		39.0	49.0	2.5	/experiments/knapen_aot/videos/R_S_yt-vQ-rd-1gwH4_238.mp4	0.0	278.38759899139404	0.325023889541626
51	172.89895701408386	response	0	2		49.0	2.5	/experiments/knapen_aot/videos/R_S_yt-vQ-rd-1gwH4_238.mp4	0.0	278.7043879032135	
51	172.90719199180603	movie	1		301.0	49.0	2.5	/experiments/knapen_aot/videos/R_S_yt-vQ-rd-1gwH4_238.mp4	0.0	278.71262288093567	2.5083401203155518
51	175.41553211212158	fix_post	2		12.0	49.0	2.5	/experiments/knapen_aot/videos/R_S_yt-vQ-rd-1gwH4_238.mp4	0.0	281.2209630012512	0.10004591941833496
51	175.4407069683075	response	2	2		49.0	2.5	/experiments/knapen_aot/videos/R_S_yt-vQ-rd-1gwH4_238.mp4	0.0	281.24613785743713	
52	175.51557803153992	fix_pre	0		47.0	50.0	2.5	/experiments/knapen_aot/videos/S_video-2.mp4	0.0	281.32100892066956	0.3916349411010742
52	175.89892292022705	response	0	2		50.0	2.5	/experiments/knapen_aot/videos/S_video-2.mp4	0.0	281.7043538093567	
52	175.907212972641	movie	1		169.0	50.0	2.5	/experiments/knapen_aot/videos/S_video-2.mp4	0.0	281.71264386177063	2.5082991123199463
52	176.4558551311493	response	1	2		50.0	2.5	/experiments/knapen_aot/videos/S_video-2.mp4	0.0	282.26128602027893	
52	177.4476981163025	response	1	2		50.0	2.5	/experiments/knapen_aot/videos/S_video-2.mp4	0.0	283.25312900543213	
52	178.41551208496094	fix_post	2		12.0	50.0	2.5	/experiments/knapen_aot/videos/S_video-2.mp4	0.0	284.2209429740906	0.09993600845336914
53	178.5154480934143	fix_pre	0		20.0	51.0	2.5	/experiments/knapen_aot/videos/R_S_production_ID_4802712.mp4	0.0	284.32087898254395	0.16666793823242188
53	178.6739559173584	response	0	2		51.0	2.5	/experiments/knapen_aot/videos/R_S_production_ID_4802712.mp4	0.0	284.47938680648804	
53	178.68211603164673	movie	1		167.0	51.0	2.5	/experiments/knapen_aot/videos/R_S_production_ID_4802712.mp4	0.0	284.48754692077637	2.508315086364746
53	181.19043111801147	fix_post	2		12.0	51.0	2.5	/experiments/knapen_aot/videos/R_S_production_ID_4802712.mp4	0.0	286.9958620071411	0.09999585151672363
54	181.2904269695282	fix_pre	0		18.0	52.0	2.5	/experiments/knapen_aot/videos/R_S_yt-nn-8LZcafGs_35.mp4	0.0	287.09585785865784	0.15008807182312012
54	181.4322259426117	response	0	2		52.0	2.5	/experiments/knapen_aot/videos/R_S_yt-nn-8LZcafGs_35.mp4	0.0	287.23765683174133	
54	181.44051504135132	movie	1		301.0	52.0	2.5	/experiments/knapen_aot/videos/R_S_yt-nn-8LZcafGs_35.mp4	0.0	287.24594593048096	2.5083250999450684
54	183.67388892173767	response	1	2		52.0	2.5	/experiments/knapen_aot/videos/R_S_yt-nn-8LZcafGs_35.mp4	0.0	289.4793198108673	
54	183.9488401412964	fix_post	2		12.0	52.0	2.5	/experiments/knapen_aot/videos/R_S_yt-nn-8LZcafGs_35.mp4	0.0	289.754271030426	0.0998539924621582
55	184.04869413375854	fix_pre	0		34.0	53.0	2.5	/experiments/knapen_aot/videos/S_yt-PCSXJ5YB_AE_3.mp4	0.0	289.8541250228882	0.2833418846130371
55	184.3238229751587	response	0	2		53.0	2.5	/experiments/knapen_aot/videos/S_yt-PCSXJ5YB_AE_3.mp4	0.0	290.12925386428833	
55	184.33203601837158	movie	1		301.0	53.0	2.5	/experiments/knapen_aot/videos/S_yt-PCSXJ5YB_AE_3.mp4	0.0	290.1374669075012	2.508359909057617
55	186.8403959274292	fix_post	2		12.0	53.0	2.5	/experiments/knapen_aot/videos/S_yt-PCSXJ5YB_AE_3.mp4	0.0	292.64582681655884	0.10004305839538574
56	186.94043898582458	fix_pre	0		94.0	54.0	2.5	/experiments/knapen_aot/videos/S_yt-XpM1Jtwlvvk_42.mp4	0.0	292.7458698749542	0.7832551002502441
56	187.71557307243347	response	0	2		54.0	2.5	/experiments/knapen_aot/videos/S_yt-XpM1Jtwlvvk_42.mp4	0.0	293.5210039615631	
56	187.72369408607483	movie	1		301.0	54.0	2.5	/experiments/knapen_aot/videos/S_yt-XpM1Jtwlvvk_42.mp4	0.0	293.52912497520447	2.508404016494751
56	190.23209810256958	fix_post	2		12.0	54.0	2.5	/experiments/knapen_aot/videos/S_yt-XpM1Jtwlvvk_42.mp4	0.0	296.0375289916992	0.10016489028930664
57	190.3322629928589	fix_pre	0		52.0	55.0	2.5	/experiments/knapen_aot/videos/R_S_ILSVRC2015_train_00371013.mp4	0.0	296.1376938819885	0.43314409255981445
57	190.75724411010742	response	0	2		55.0	2.5	/experiments/knapen_aot/videos/R_S_ILSVRC2015_train_00371013.mp4	0.0	296.56267499923706	
57	190.7654070854187	movie	1		301.0	55.0	2.5	/experiments/knapen_aot/videos/R_S_ILSVRC2015_train_00371013.mp4	0.0	296.57083797454834	2.508309841156006
57	193.2737169265747	fix_post	2		12.0	55.0	2.5	/experiments/knapen_aot/videos/R_S_ILSVRC2015_train_00371013.mp4	0.0	299.07914781570435	0.09999513626098633
58	193.3737120628357	fix_pre	0		340.0	56.0	2.5	blank	1.0	299.17914295196533	2.8332419395446777
58	196.1988799571991	response	0	2		56.0	2.5	blank	1.0	302.00431084632874	
58	196.20695400238037	movie	1		301.0	56.0	2.5	blank	1.0	302.01238489151	2.5083930492401123
58	198.71534705162048	fix_post	2		12.0	56.0	2.5	blank	1.0	304.5207779407501	0.10001707077026367
59	198.81536412239075	fix_pre	0		53.0	57.0	2.5	/experiments/knapen_aot/videos/S_yt-jYSri2JVUqo_1036.mp4	0.0	304.6207950115204	0.4415709972381592
59	199.24875593185425	response	0	2		57.0	2.5	/experiments/knapen_aot/videos/S_yt-jYSri2JVUqo_1036.mp4	0.0	305.0541868209839	
59	199.2569351196289	movie	1		301.0	57.0	2.5	/experiments/knapen_aot/videos/S_yt-jYSri2JVUqo_1036.mp4	0.0	305.06236600875854	2.5083608627319336
59	201.76529598236084	fix_post	2		12.0	57.0	2.5	/experiments/knapen_aot/videos/S_yt-jYSri2JVUqo_1036.mp4	0.0	307.5707268714905	0.10002899169921875
60	201.86532497406006	fix_pre	0		43.0	58.0	2.5	/experiments/knapen_aot/videos/S_yt-Dwgpjoikt84_122.mp4	0.0	307.6707558631897	0.35827112197875977
60	202.21546602249146	response	0	2		58.0	2.5	/experiments/knapen_aot/videos/S_yt-Dwgpjoikt84_122.mp4	0.0	308.0208969116211	
60	202.22359609603882	movie	1		301.0	58.0	2.5	/experiments/knapen_aot/videos/S_yt-Dwgpjoikt84_122.mp4	0.0	308.02902698516846	2.5086138248443604
60	203.0321409702301	response	1	2		58.0	2.5	/experiments/knapen_aot/videos/S_yt-Dwgpjoikt84_122.mp4	0.0	308.83757185935974	
60	204.57369709014893	response	1	2		58.0	2.5	/experiments/knapen_aot/videos/S_yt-Dwgpjoikt84_122.mp4	0.0	310.37912797927856	
60	204.73220992088318	fix_post	2		12.0	58.0	2.5	/experiments/knapen_aot/videos/S_yt-Dwgpjoikt84_122.mp4	0.0	310.5376408100128	0.09975719451904297
61	204.83196711540222	fix_pre	0		158.0	59.0	2.5	/experiments/knapen_aot/videos/S_yt-z16pdVTZK1o_3.mp4	0.0	310.63739800453186	1.3179419040679932
61	206.14055109024048	response	0	2		59.0	2.5	/experiments/knapen_aot/videos/S_yt-z16pdVTZK1o_3.mp4	0.0	311.9459819793701	
61	206.14990901947021	movie	1		301.0	59.0	2.5	/experiments/knapen_aot/videos/S_yt-z16pdVTZK1o_3.mp4	0.0	311.95533990859985	2.507091999053955
61	208.65700101852417	fix_post	2		12.0	59.0	2.5	/experiments/knapen_aot/videos/S_yt-z16pdVTZK1o_3.mp4	0.0	314.4624319076538	0.099945068359375
62	208.75694608688354	fix_pre	0		35.0	60.0	2.5	/experiments/knapen_aot/videos/R_S_yt-T9Vwt7wFvPk_100.mp4	0.0	314.5623769760132	0.2916069030761719
62	209.0404191017151	response	0	2		60.0	2.5	/experiments/knapen_aot/videos/R_S_yt-T9Vwt7wFvPk_100.mp4	0.0	314.8458499908447	
62	209.04855298995972	movie	1		301.0	60.0	2.5	/experiments/knapen_aot/videos/R_S_yt-T9Vwt7wFvPk_100.mp4	0.0	314.85398387908936	2.5084829330444336
62	211.55703592300415	fix_post	2		12.0	60.0	2.5	/experiments/knapen_aot/videos/R_S_yt-T9Vwt7wFvPk_100.mp4	0.0	317.3624668121338	0.09993100166320801
63	211.65696692466736	fix_pre	0		20.0	61.0	2.5	blank	1.0	317.462397813797	0.1666240692138672
63	211.81539011001587	response	0	2		61.0	2.5	blank	1.0	317.6208209991455	
63	211.82359099388123	movie	1		301.0	61.0	2.5	blank	1.0	317.62902188301086	2.508342981338501
63	214.33193397521973	fix_post	2		12.0	61.0	2.5	blank	1.0	320.13736486434937	0.09997010231018066
64	214.4319040775299	fix_pre	0		82.0	62.0	2.5	/experiments/knapen_aot/videos/S_pexels-mart-production-7279749.mp4	0.0	320.23733496665955	0.6833019256591797
64	215.1070201396942	response	0	2		62.0	2.5	/experiments/knapen_aot/videos/S_pexels-mart-production-7279749.mp4	0.0	320.91245102882385	
64	215.1152060031891	movie	1		166.0	62.0	2.5	/experiments/knapen_aot/videos/S_pexels-mart-production-7279749.mp4	0.0	320.9206368923187	2.508405923843384
64	217.62361192703247	fix_post	2		12.0	62.0	2.5	/experiments/knapen_aot/videos/S_pexels-mart-production-7279749.mp4	0.0	323.4290428161621	0.09997200965881348
65	217.72358393669128	fix_pre	0		63.0	63.0	2.5	/experiments/knapen_aot/videos/S_yt-QJ2k6vA8aco_12.mp4	0.0	323.5290148258209	0.5249149799346924
65	218.23278498649597	response	0	2		63.0	2.5	/experiments/knapen_aot/videos/S_yt-QJ2k6vA8aco_12.mp4	0.0	324.0382158756256	
65	218.24849891662598	movie	1		301.0	63.0	2.5	/experiments/knapen_aot/videos/S_yt-QJ2k6vA8aco_12.mp4	0.0	324.0539298057556	2.508312225341797
65	220.75681114196777	fix_post	2		12.0	63.0	2.5	/experiments/knapen_aot/videos/S_yt-QJ2k6vA8aco_12.mp4	0.0	326.5622420310974	0.10012292861938477
66	220.85693407058716	fix_pre	0		24.0	64.0	2.5	/experiments/knapen_aot/videos/S_yt-JH6qCYAnX-I_70.mp4	0.0	326.6623649597168	0.19991707801818848
66	221.04853200912476	response	0	2		64.0	2.5	/experiments/knapen_aot/videos/S_yt-JH6qCYAnX-I_70.mp4	0.0	326.8539628982544	
66	221.05685114860535	movie	1		301.0	64.0	2.5	/experiments/knapen_aot/videos/S_yt-JH6qCYAnX-I_70.mp4	0.0	326.862282037735	2.508382797241211
66	223.56523394584656	fix_post	2		12.0	64.0	2.5	/experiments/knapen_aot/videos/S_yt-JH6qCYAnX-I_70.mp4	0.0	329.3706648349762	0.09989619255065918
67	223.66513013839722	fix_pre	0		18.0	65.0	2.5	/experiments/knapen_aot/videos/S_yt-PaxmJhMoP3w_87.mp4	0.0	329.47056102752686	0.1512899398803711
67	223.80698013305664	response	0	2		65.0	2.5	/experiments/knapen_aot/videos/S_yt-PaxmJhMoP3w_87.mp4	0.0	329.6124110221863	
67	223.8164200782776	movie	1		301.0	65.0	2.5	/experiments/knapen_aot/videos/S_yt-PaxmJhMoP3w_87.mp4	0.0	329.6218509674072	2.5070810317993164
67	225.18194198608398	response	1	2		65.0	2.5	/experiments/knapen_aot/videos/S_yt-PaxmJhMoP3w_87.mp4	0.0	330.9873728752136	
67	226.3235011100769	fix_post	2		12.0	65.0	2.5	/experiments/knapen_aot/videos/S_yt-PaxmJhMoP3w_87.mp4	0.0	332.12893199920654	0.10023903846740723
68	226.4237401485443	fix_pre	0		221.0	66.0	2.5	/experiments/knapen_aot/videos/R_S_yt-npaE4fe6A6Y_26.mp4	0.0	332.22917103767395	1.8414249420166016
68	228.25701093673706	response	0	2		66.0	2.5	/experiments/knapen_aot/videos/R_S_yt-npaE4fe6A6Y_26.mp4	0.0	334.0624418258667	
68	228.2651650905609	movie	1		301.0	66.0	2.5	/experiments/knapen_aot/videos/R_S_yt-npaE4fe6A6Y_26.mp4	0.0	334.07059597969055	2.5083420276641846
68	230.7735071182251	fix_post	2		12.0	66.0	2.5	/experiments/knapen_aot/videos/R_S_yt-npaE4fe6A6Y_26.mp4	0.0	336.57893800735474	0.0999298095703125
69	230.8734369277954	fix_pre	0		118.0	67.0	2.5	/experiments/knapen_aot/videos/R_S_yt-wjBwgccZM5k_150.mp4	0.0	336.67886781692505	0.9845211505889893
69	231.84859895706177	response	0	2		67.0	2.5	/experiments/knapen_aot/videos/R_S_yt-wjBwgccZM5k_150.mp4	0.0	337.6540298461914	
69	231.8579580783844	movie	1		301.0	67.0	2.5	/experiments/knapen_aot/videos/R_S_yt-wjBwgccZM5k_150.mp4	0.0	337.66338896751404	2.5072009563446045
69	234.365159034729	fix_post	2		12.0	67.0	2.5	/experiments/knapen_aot/videos/R_S_yt-wjBwgccZM5k_150.mp4	0.0	340.17058992385864	0.10001301765441895
70	234.46517205238342	fix_pre	0		818.0	68.0	2.5	blank	1.0	340.27060294151306	6.816534042358398
70	241.27352094650269	response	0	2		68.0	2.5	blank	1.0	347.0789518356323	
70	241.28170609474182	movie	1		301.0	68.0	2.5	blank	1.0	347.08713698387146	2.5083630084991455
70	243.79006910324097	fix_post	2		12.0	68.0	2.5	blank	1.0	349.5954999923706	0.10007691383361816
71	243.89014601707458	fix_pre	0		64.0	69.0	2.5	/experiments/knapen_aot/videos/R_S_yt--C2DDZ7LOQA_95.mp4	0.0	349.6955769062042	0.533250093460083
71	244.4151909351349	response	0	2		69.0	2.5	/experiments/knapen_aot/videos/R_S_yt--C2DDZ7LOQA_95.mp4	0.0	350.2206218242645	
71	244.42339611053467	movie	1		301.0	69.0	2.5	/experiments/knapen_aot/videos/R_S_yt--C2DDZ7LOQA_95.mp4	0.0	350.2288269996643	2.50838303565979
71	246.93177914619446	fix_post	2		12.0	69.0	2.5	/experiments/knapen_aot/videos/R_S_yt--C2DDZ7LOQA_95.mp4	0.0	352.7372100353241	0.09997797012329102
72	247.03175711631775	fix_pre	0		663.0	70.0	2.5	/experiments/knapen_aot/videos/R_S_yt-RHPOCG1mII0_138.mp4	0.0	352.8371880054474	5.524863958358765
72	252.5410430431366	response	0	2		70.0	2.5	/experiments/knapen_aot/videos/R_S_yt-RHPOCG1mII0_138.mp4	0.0	358.34647393226624	
72	252.5566210746765	movie	1		301.0	70.0	2.5	/experiments/knapen_aot/videos/R_S_yt-RHPOCG1mII0_138.mp4	0.0	358.36205196380615	2.508370876312256
72	255.06499195098877	fix_post	2		12.0	70.0	2.5	/experiments/knapen_aot/videos/R_S_yt-RHPOCG1mII0_138.mp4	0.0	360.8704228401184	0.09998416900634766
73	255.16497611999512	fix_pre	0		42.0	71.0	2.5	/experiments/knapen_aot/videos/S_production_ID_4122384.mp4	0.0	360.97040700912476	0.34999680519104004
73	255.50681495666504	response	0	2		71.0	2.5	/experiments/knapen_aot/videos/S_production_ID_4122384.mp4	0.0	361.3122458457947	
73	255.51497292518616	movie	1		167.0	71.0	2.5	/experiments/knapen_aot/videos/S_production_ID_4122384.mp4	0.0	361.3204038143158	2.508563995361328
73	258.0235369205475	fix_post	2		12.0	71.0	2.5	/experiments/knapen_aot/videos/S_production_ID_4122384.mp4	0.0	363.8289678096771	0.09977102279663086
74	258.1233079433441	fix_pre	0		813.0	72.0	2.5	/experiments/knapen_aot/videos/S_ILSVRC2015_train_00415005.mp4	0.0	363.92873883247375	6.775936126708984
74	264.89005994796753	response	0	2		72.0	2.5	/experiments/knapen_aot/videos/S_ILSVRC2015_train_00415005.mp4	0.0	370.69549083709717	
74	264.8992440700531	movie	1		301.0	72.0	2.5	/experiments/knapen_aot/videos/S_ILSVRC2015_train_00415005.mp4	0.0	370.70467495918274	2.5073959827423096
74	267.4066400527954	fix_post	2		12.0	72.0	2.5	/experiments/knapen_aot/videos/S_ILSVRC2015_train_00415005.mp4	0.0	373.21207094192505	0.09999299049377441
75	267.5066330432892	fix_pre	0		50.0	73.0	2.5	/experiments/knapen_aot/videos/R_S_yt-PCSXJ5YB_AE_3.mp4	0.0	373.3120639324188	0.41663599014282227
75	267.9151301383972	response	0	2		73.0	2.5	/experiments/knapen_aot/videos/R_S_yt-PCSXJ5YB_AE_3.mp4	0.0	373.72056102752686	
75	267.923269033432	movie	1		301.0	73.0	2.5	/experiments/knapen_aot/videos/R_S_yt-PCSXJ5YB_AE_3.mp4	0.0	373.72869992256165	2.508302927017212
75	270.4315719604492	fix_post	2		12.0	73.0	2.5	/experiments/knapen_aot/videos/R_S_yt-PCSXJ5YB_AE_3.mp4	0.0	376.23700284957886	0.10006213188171387
76	270.53163409233093	fix_pre	0		31.0	74.0	2.5	/experiments/knapen_aot/videos/S_yt-WRBmpC-RxIc_678.mp4	0.0	376.33706498146057	0.2583129405975342
76	270.78168511390686	response	0	2		74.0	2.5	/experiments/knapen_aot/videos/S_yt-WRBmpC-RxIc_678.mp4	0.0	376.5871160030365	
76	270.78994703292847	movie	1		301.0	74.0	2.5	/experiments/knapen_aot/videos/S_yt-WRBmpC-RxIc_678.mp4	0.0	376.5953779220581	2.508315086364746
76	273.2982621192932	fix_post	2		12.0	74.0	2.5	/experiments/knapen_aot/videos/S_yt-WRBmpC-RxIc_678.mp4	0.0	379.10369300842285	0.10004091262817383
77	273.3983030319214	fix_pre	0		44.0	75.0	2.5	blank	1.0	379.203733921051	0.3665800094604492
77	273.75671911239624	response	0	2		75.0	2.5	blank	1.0	379.5621500015259	
77	273.76488304138184	movie	1		301.0	75.0	2.5	blank	1.0	379.5703139305115	2.5083389282226562
77	275.9233911037445	response	1	2		75.0	2.5	blank	1.0	381.72882199287415	
77	276.2732219696045	fix_post	2		12.0	75.0	2.5	blank	1.0	382.07865285873413	0.10013103485107422
78	276.37335300445557	fix_pre	0		28.0	76.0	2.5	/experiments/knapen_aot/videos/R_S_yt-z16pdVTZK1o_3.mp4	0.0	382.1787838935852	0.2341909408569336
78	276.59079098701477	response	0	2		76.0	2.5	/experiments/knapen_aot/videos/R_S_yt-z16pdVTZK1o_3.mp4	0.0	382.3962218761444	
78	276.6075439453125	movie	1		301.0	76.0	2.5	/experiments/knapen_aot/videos/R_S_yt-z16pdVTZK1o_3.mp4	0.0	382.41297483444214	2.507312059402466
78	279.11485600471497	fix_post	2		12.0	76.0	2.5	/experiments/knapen_aot/videos/R_S_yt-z16pdVTZK1o_3.mp4	0.0	384.9202868938446	0.09999704360961914
79	279.2148530483246	fix_pre	0		44.0	77.0	2.5	/experiments/knapen_aot/videos/R_S_yt-q9kT_c9QjbQ_34.mp4	0.0	385.0202839374542	0.36659693717956543
79	279.5657629966736	response	0	2		77.0	2.5	/experiments/knapen_aot/videos/R_S_yt-q9kT_c9QjbQ_34.mp4	0.0	385.3711938858032	
79	279.58144998550415	movie	1		301.0	77.0	2.5	/experiments/knapen_aot/videos/R_S_yt-q9kT_c9QjbQ_34.mp4	0.0	385.3868808746338	2.508481025695801
79	282.08993101119995	fix_post	2		12.0	77.0	2.5	/experiments/knapen_aot/videos/R_S_yt-q9kT_c9QjbQ_34.mp4	0.0	387.8953619003296	0.09995698928833008
80	282.1898880004883	fix_pre	0		248.0	78.0	2.5	/experiments/knapen_aot/videos/R_S_yt-K0CzoUy_uIA_22.mp4	0.0	387.9953188896179	2.0665810108184814
80	284.2482850551605	response	0	2		78.0	2.5	/experiments/knapen_aot/videos/R_S_yt-K0CzoUy_uIA_22.mp4	0.0	390.05371594429016	
80	284.25646901130676	movie	1		301.0	78.0	2.5	/experiments/knapen_aot/videos/R_S_yt-K0CzoUy_uIA_22.mp4	0.0	390.0618999004364	2.5083730220794678
80	286.76484203338623	fix_post	2		12.0	78.0	2.5	/experiments/knapen_aot/videos/R_S_yt-K0CzoUy_uIA_22.mp4	0.0	392.57027292251587	0.09996509552001953
81	286.86480712890625	fix_pre	0		282.0	79.0	2.5	/experiments/knapen_aot/videos/S_Person_Going_Through_A_Bible.mp4	0.0	392.6702380180359	2.3499507904052734
81	289.20663809776306	response	0	2		79.0	2.5	/experiments/knapen_aot/videos/S_Person_Going_Through_A_Bible.mp4	0.0	395.0120689868927	
81	289.2147579193115	movie	1		163.0	79.0	2.5	/experiments/knapen_aot/videos/S_Person_Going_Through_A_Bible.mp4	0.0	395.02018880844116	2.5085461139678955
81	291.35547399520874	response	1	2		79.0	2.5	/experiments/knapen_aot/videos/S_Person_Going_Through_A_Bible.mp4	0.0	397.1609048843384	
81	291.7233040332794	fix_post	2		12.0	79.0	2.5	/experiments/knapen_aot/videos/S_Person_Going_Through_A_Bible.mp4	0.0	397.52873492240906	0.09980988502502441
82	291.82311391830444	fix_pre	0		297.0	80.0	2.5	/experiments/knapen_aot/videos/R_S_yt-J1dw4AznwmQ_7.mp4	0.0	397.6285448074341	2.4749350547790527
82	294.289834022522	response	0	2		80.0	2.5	/experiments/knapen_aot/videos/R_S_yt-J1dw4AznwmQ_7.mp4	0.0	400.0952649116516	
82	294.2980489730835	movie	1		301.0	80.0	2.5	/experiments/knapen_aot/videos/R_S_yt-J1dw4AznwmQ_7.mp4	0.0	400.10347986221313	2.5083611011505127
82	296.806410074234	fix_post	2		12.0	80.0	2.5	/experiments/knapen_aot/videos/R_S_yt-J1dw4AznwmQ_7.mp4	0.0	402.61184096336365	0.09995007514953613
83	296.90636014938354	fix_pre	0		166.0	81.0	2.5	/experiments/knapen_aot/videos/R_S_pexels-koolshooters-7327412_1.mp4	0.0	402.7117910385132	1.383354902267456
83	298.28153896331787	response	0	2		81.0	2.5	/experiments/knapen_aot/videos/R_S_pexels-koolshooters-7327412_1.mp4	0.0	404.0869698524475	
83	298.289715051651	movie	1		163.0	81.0	2.5	/experiments/knapen_aot/videos/R_S_pexels-koolshooters-7327412_1.mp4	0.0	404.09514594078064	2.5083670616149902
83	300.4635570049286	response	1	2		81.0	2.5	/experiments/knapen_aot/videos/R_S_pexels-koolshooters-7327412_1.mp4	0.0	406.2689878940582	
83	300.798082113266	fix_post	2		12.0	81.0	2.5	/experiments/knapen_aot/videos/R_S_pexels-koolshooters-7327412_1.mp4	0.0	406.60351300239563	0.10007095336914062
84	300.89815306663513	fix_pre	0		39.0	82.0	2.5	blank	1.0	406.70358395576477	0.3248770236968994
84	301.21483302116394	response	0	2		82.0	2.5	blank	1.0	407.0202639102936	
84	301.22303009033203	movie	1		301.0	82.0	2.5	blank	1.0	407.02846097946167	2.5083658695220947
84	303.7313959598541	fix_post	2		12.0	82.0	2.5	blank	1.0	409.53682684898376	0.09997701644897461
85	303.8313729763031	fix_pre	0		12.0	83.0	2.5	/experiments/knapen_aot/videos/R_S_yt-SGTgMItFkxY_172.mp4	0.0	409.63680386543274	0.10004210472106934
85	303.92314314842224	response	0	2		83.0	2.5	/experiments/knapen_aot/videos/R_S_yt-SGTgMItFkxY_172.mp4	0.0	409.7285740375519	
85	303.93141508102417	movie	1		301.0	83.0	2.5	/experiments/knapen_aot/videos/R_S_yt-SGTgMItFkxY_172.mp4	0.0	409.7368459701538	2.508309841156006
85	306.4397249221802	fix_post	2		12.0	83.0	2.5	/experiments/knapen_aot/videos/R_S_yt-SGTgMItFkxY_172.mp4	0.0	412.2451558113098	0.10000109672546387
87	306.53972601890564	stim	0		139.0					412.3451569080353	1.1583380699157715
87	307.13146114349365	response	0	2						412.9368920326233	
87	307.6936049461365	response	0	space						413.4990358352661	
