trial_nr	onset	event_type	phase	response	nr_frames	movie_index	movie_duration	movie_file	blank	onset_abs	duration
0	0.1315140724182129	stim	0		53.0					94.9702661037445	0.44162583351135254
0	0.5648880004882812	response	0	space						95.40364003181458	
1	0.5731399059295654	stim	0		121.0					95.41189193725586	1.008256196975708
1	1.3742430210113525	response	0	space						96.21299505233765	
1	1.5813961029052734	stim	1		120.0					96.42014813423157	0.9997220039367676
1	1.6645660400390625	response	1	space						96.50331807136536	
1	2.2645769119262695	response	1	space						97.10332894325256	
2	2.581118106842041	fix_pre	0		26.0	0.0	2.5	/experiments/knapen_aot/videos/S_yt-y6JsUW0eSW8_32.mp4	0.0	97.41987013816833	0.21698594093322754
2	2.781999111175537	response	0	space		0.0	2.5	/experiments/knapen_aot/videos/S_yt-y6JsUW0eSW8_32.mp4	0.0	97.62075114250183	
2	2.7981040477752686	movie	1		301.0	0.0	2.5	/experiments/knapen_aot/videos/S_yt-y6JsUW0eSW8_32.mp4	0.0	97.63685607910156	2.508065938949585
2	5.3061699867248535	fix_post	2		12.0	0.0	2.5	/experiments/knapen_aot/videos/S_yt-y6JsUW0eSW8_32.mp4	0.0	100.14492201805115	0.09997010231018066
3	5.406140089035034	fix_pre	0		75.0	1.0	2.5	/experiments/knapen_aot/videos/R_S_yt-ZdXwVfF6T-s_25.mp4	0.0	100.24489212036133	0.6280889511108398
3	6.027831077575684	response	0	2		1.0	2.5	/experiments/knapen_aot/videos/R_S_yt-ZdXwVfF6T-s_25.mp4	0.0	100.86658310890198	
3	6.034229040145874	movie	1		293.0	1.0	2.5	/experiments/knapen_aot/videos/R_S_yt-ZdXwVfF6T-s_25.mp4	0.0	100.87298107147217	2.505173921585083
3	8.539402961730957	fix_post	2		12.0	1.0	2.5	/experiments/knapen_aot/videos/R_S_yt-ZdXwVfF6T-s_25.mp4	0.0	103.37815499305725	0.10004115104675293
4	8.63944411277771	fix_pre	0		80.0	2.0	2.5	/experiments/knapen_aot/videos/S_yt-xQPKYWDRy2A_491.mp4	0.0	103.478196144104	0.6666247844696045
4	9.290364027023315	response	0	2		2.0	2.5	/experiments/knapen_aot/videos/S_yt-xQPKYWDRy2A_491.mp4	0.0	104.12911605834961	
4	9.306068897247314	movie	1		301.0	2.0	2.5	/experiments/knapen_aot/videos/S_yt-xQPKYWDRy2A_491.mp4	0.0	104.14482092857361	2.5083720684051514
4	11.814440965652466	fix_post	2		12.0	2.0	2.5	/experiments/knapen_aot/videos/S_yt-xQPKYWDRy2A_491.mp4	0.0	106.65319299697876	0.10000205039978027
5	11.914443016052246	fix_pre	0		68.0	3.0	2.5	/experiments/knapen_aot/videos/S_yt-BLmwmX-mni8_56.mp4	0.0	106.75319504737854	0.5666360855102539
5	12.465357065200806	response	0	2		3.0	2.5	/experiments/knapen_aot/videos/S_yt-BLmwmX-mni8_56.mp4	0.0	107.3041090965271	
5	12.4810791015625	movie	1		301.0	3.0	2.5	/experiments/knapen_aot/videos/S_yt-BLmwmX-mni8_56.mp4	0.0	107.3198311328888	2.508382797241211
5	14.989461898803711	fix_post	2		12.0	3.0	2.5	/experiments/knapen_aot/videos/S_yt-BLmwmX-mni8_56.mp4	0.0	109.82821393013	0.10027909278869629
6	15.089740991592407	fix_pre	0		182.0	4.0	2.5	/experiments/knapen_aot/videos/S_yt-zydTlQGCUjQ_277.mp4	0.0	109.9284930229187	1.5163109302520752
6	16.597856998443604	response	0	2		4.0	2.5	/experiments/knapen_aot/videos/S_yt-zydTlQGCUjQ_277.mp4	0.0	111.4366090297699	
6	16.606051921844482	movie	1		301.0	4.0	2.5	/experiments/knapen_aot/videos/S_yt-zydTlQGCUjQ_277.mp4	0.0	111.44480395317078	2.508378028869629
6	19.11442995071411	fix_post	2		12.0	4.0	2.5	/experiments/knapen_aot/videos/S_yt-zydTlQGCUjQ_277.mp4	0.0	113.9531819820404	0.10030102729797363
7	19.214730978012085	fix_pre	0		36.0	5.0	2.5	blank	1.0	114.05348300933838	0.299670934677124
7	19.506221055984497	response	0	2		5.0	2.5	blank	1.0	114.34497308731079	
7	19.51440191268921	movie	1		301.0	5.0	2.5	blank	1.0	114.3531539440155	2.5083250999450684
7	22.022727012634277	fix_post	2		12.0	5.0	2.5	blank	1.0	116.86147904396057	0.10002398490905762
8	22.122750997543335	fix_pre	0		42.0	6.0	2.5	/experiments/knapen_aot/videos/S_comp_LA_A006_C008_PSNK_ALL_LOGOS_v10_SDR_PS_FINAL_20180801_SDR_2K_AVC.mp4	0.0	116.96150302886963	0.349945068359375
8	22.464515924453735	response	0	2		6.0	2.5	/experiments/knapen_aot/videos/S_comp_LA_A006_C008_PSNK_ALL_LOGOS_v10_SDR_PS_FINAL_20180801_SDR_2K_AVC.mp4	0.0	117.30326795578003	
8	22.47269606590271	movie	1		169.0	6.0	2.5	/experiments/knapen_aot/videos/S_comp_LA_A006_C008_PSNK_ALL_LOGOS_v10_SDR_PS_FINAL_20180801_SDR_2K_AVC.mp4	0.0	117.311448097229	2.508373975753784
8	24.981070041656494	fix_post	2		12.0	6.0	2.5	/experiments/knapen_aot/videos/S_comp_LA_A006_C008_PSNK_ALL_LOGOS_v10_SDR_PS_FINAL_20180801_SDR_2K_AVC.mp4	0.0	119.81982207298279	0.09998297691345215
9	25.081053018569946	fix_pre	0		39.0	7.0	2.5	/experiments/knapen_aot/videos/R_S_yt-H2ce6U0SbVA_542.mp4	0.0	119.91980504989624	0.3250100612640381
9	25.397860050201416	response	0	2		7.0	2.5	/experiments/knapen_aot/videos/R_S_yt-H2ce6U0SbVA_542.mp4	0.0	120.23661208152771	
9	25.406063079833984	movie	1		301.0	7.0	2.5	/experiments/knapen_aot/videos/R_S_yt-H2ce6U0SbVA_542.mp4	0.0	120.24481511116028	2.508297920227051
9	27.914361000061035	fix_post	2		11.0	7.0	2.5	/experiments/knapen_aot/videos/R_S_yt-H2ce6U0SbVA_542.mp4	0.0	122.75311303138733	0.0999150276184082
10	28.014276027679443	fix_pre	0		40.0	8.0	2.5	/experiments/knapen_aot/videos/R_S_video-6.mp4	0.0	122.85302805900574	0.33336901664733887
10	28.331998109817505	response	0	2		8.0	2.5	/experiments/knapen_aot/videos/R_S_video-6.mp4	0.0	123.1707501411438	
10	28.347645044326782	movie	1		165.0	8.0	2.5	/experiments/knapen_aot/videos/R_S_video-6.mp4	0.0	123.18639707565308	2.5082550048828125
10	30.855900049209595	fix_post	2		12.0	8.0	2.5	/experiments/knapen_aot/videos/R_S_video-6.mp4	0.0	125.69465208053589	0.1000518798828125
11	30.955951929092407	fix_pre	0		36.0	9.0	2.5	/experiments/knapen_aot/videos/R_S_ILSVRC2015_train_00322000.mp4	0.0	125.7947039604187	0.3003420829772949
11	31.2478449344635	response	0	2		9.0	2.5	/experiments/knapen_aot/videos/R_S_ILSVRC2015_train_00322000.mp4	0.0	126.0865969657898	
11	31.256294012069702	movie	1		301.0	9.0	2.5	/experiments/knapen_aot/videos/R_S_ILSVRC2015_train_00322000.mp4	0.0	126.095046043396	2.5080010890960693
11	33.76429510116577	fix_post	2		12.0	9.0	2.5	/experiments/knapen_aot/videos/R_S_ILSVRC2015_train_00322000.mp4	0.0	128.60304713249207	0.10002779960632324
12	33.864322900772095	fix_pre	0		30.0	10.0	2.5	/experiments/knapen_aot/videos/R_S_yt-thmqgEV-sYY_91.mp4	0.0	128.7030749320984	0.24996709823608398
12	34.106138944625854	response	0	2		10.0	2.5	/experiments/knapen_aot/videos/R_S_yt-thmqgEV-sYY_91.mp4	0.0	128.94489097595215	
12	34.11428999900818	movie	1		301.0	10.0	2.5	/experiments/knapen_aot/videos/R_S_yt-thmqgEV-sYY_91.mp4	0.0	128.95304203033447	2.508527994155884
12	36.62281799316406	fix_post	2		12.0	10.0	2.5	/experiments/knapen_aot/videos/R_S_yt-thmqgEV-sYY_91.mp4	0.0	131.46157002449036	0.09981012344360352
13	36.722628116607666	fix_pre	0		43.0	11.0	2.5	/experiments/knapen_aot/videos/R_S_yt-v66td-1WO7w_44.mp4	0.0	131.56138014793396	0.35827183723449707
13	37.072739124298096	response	0	2		11.0	2.5	/experiments/knapen_aot/videos/R_S_yt-v66td-1WO7w_44.mp4	0.0	131.9114911556244	
13	37.08089995384216	movie	1		301.0	11.0	2.5	/experiments/knapen_aot/videos/R_S_yt-v66td-1WO7w_44.mp4	0.0	131.91965198516846	2.5084011554718018
13	39.589301109313965	fix_post	2		12.0	11.0	2.5	/experiments/knapen_aot/videos/R_S_yt-v66td-1WO7w_44.mp4	0.0	134.42805314064026	0.09992599487304688
14	39.68922710418701	fix_pre	0		50.0	12.0	2.5	/experiments/knapen_aot/videos/R_S_pexels-tima-miroshnichenko-6077718.mp4	0.0	134.5279791355133	0.41670680046081543
14	40.09779691696167	response	0	2		12.0	2.5	/experiments/knapen_aot/videos/R_S_pexels-tima-miroshnichenko-6077718.mp4	0.0	134.93654894828796	
14	40.10593390464783	movie	1		166.0	12.0	2.5	/experiments/knapen_aot/videos/R_S_pexels-tima-miroshnichenko-6077718.mp4	0.0	134.94468593597412	2.5083529949188232
14	42.61428689956665	fix_post	2		12.0	12.0	2.5	/experiments/knapen_aot/videos/R_S_pexels-tima-miroshnichenko-6077718.mp4	0.0	137.45303893089294	0.10018205642700195
15	42.71446895599365	fix_pre	0		78.0	13.0	2.5	/experiments/knapen_aot/videos/S_yt-yPl8LcgSMjo_32.mp4	0.0	137.55322098731995	0.6498031616210938
15	43.35606098175049	response	0	2		13.0	2.5	/experiments/knapen_aot/videos/S_yt-yPl8LcgSMjo_32.mp4	0.0	138.19481301307678	
15	43.364272117614746	movie	1		301.0	13.0	2.5	/experiments/knapen_aot/videos/S_yt-yPl8LcgSMjo_32.mp4	0.0	138.20302414894104	2.508368968963623
15	45.87264108657837	fix_post	2		12.0	13.0	2.5	/experiments/knapen_aot/videos/S_yt-yPl8LcgSMjo_32.mp4	0.0	140.71139311790466	0.0999908447265625
16	45.97263193130493	fix_pre	0		31.0	14.0	2.5	blank	1.0	140.81138396263123	0.25824904441833496
16	46.2227349281311	response	0	2		14.0	2.5	blank	1.0	141.0614869594574	
16	46.23088097572327	movie	1		301.0	14.0	2.5	blank	1.0	141.06963300704956	2.508373975753784
16	48.73925495147705	fix_post	2		12.0	14.0	2.5	blank	1.0	143.57800698280334	0.10012197494506836
17	48.83937692642212	fix_pre	0		40.0	15.0	2.5	/experiments/knapen_aot/videos/R_S_Xq0a2BWE3zA_53.mp4	0.0	143.6781289577484	0.33328914642333984
17	49.164299964904785	response	0	2		15.0	2.5	/experiments/knapen_aot/videos/R_S_Xq0a2BWE3zA_53.mp4	0.0	144.00305199623108	
17	49.17266607284546	movie	1		301.0	15.0	2.5	/experiments/knapen_aot/videos/R_S_Xq0a2BWE3zA_53.mp4	0.0	144.01141810417175	2.5082309246063232
17	51.68089699745178	fix_post	2		12.0	15.0	2.5	/experiments/knapen_aot/videos/R_S_Xq0a2BWE3zA_53.mp4	0.0	146.51964902877808	0.09998703002929688
18	51.78088402748108	fix_pre	0		70.0	16.0	2.5	/experiments/knapen_aot/videos/S_yt-MUfa26F8dfE_97.mp4	0.0	146.61963605880737	0.5833539962768555
18	52.355966091156006	response	0	2		16.0	2.5	/experiments/knapen_aot/videos/S_yt-MUfa26F8dfE_97.mp4	0.0	147.1947181224823	
18	52.364238023757935	movie	1		301.0	16.0	2.5	/experiments/knapen_aot/videos/S_yt-MUfa26F8dfE_97.mp4	0.0	147.20299005508423	2.5083398818969727
18	54.87257790565491	fix_post	2		12.0	16.0	2.5	/experiments/knapen_aot/videos/S_yt-MUfa26F8dfE_97.mp4	0.0	149.7113299369812	0.09997820854187012
19	54.97255611419678	fix_pre	0		106.0	17.0	2.5	/experiments/knapen_aot/videos/S_yt-XHYYkaHcEtM_72.mp4	0.0	149.81130814552307	0.883234977722168
19	55.84765410423279	response	0	2		17.0	2.5	/experiments/knapen_aot/videos/S_yt-XHYYkaHcEtM_72.mp4	0.0	150.68640613555908	
19	55.855791091918945	movie	1		299.0	17.0	2.5	/experiments/knapen_aot/videos/S_yt-XHYYkaHcEtM_72.mp4	0.0	150.69454312324524	2.5084238052368164
19	58.36421489715576	fix_post	2		12.0	17.0	2.5	/experiments/knapen_aot/videos/S_yt-XHYYkaHcEtM_72.mp4	0.0	153.20296692848206	0.10005402565002441
20	58.464268922805786	fix_pre	0		136.0	18.0	2.5	/experiments/knapen_aot/videos/S_yt-RO4mhuXBVrY_67.mp4	0.0	153.30302095413208	1.1332530975341797
20	59.58190393447876	response	0	2		18.0	2.5	/experiments/knapen_aot/videos/S_yt-RO4mhuXBVrY_67.mp4	0.0	154.42065596580505	
20	59.597522020339966	movie	1		301.0	18.0	2.5	/experiments/knapen_aot/videos/S_yt-RO4mhuXBVrY_67.mp4	0.0	154.43627405166626	2.508296012878418
20	62.105818033218384	fix_post	2		12.0	18.0	2.5	/experiments/knapen_aot/videos/S_yt-RO4mhuXBVrY_67.mp4	0.0	156.94457006454468	0.10007786750793457
21	62.20589590072632	fix_pre	0		77.0	19.0	2.5	/experiments/knapen_aot/videos/R_S_yt-Ol4xuEA8xQc_776.mp4	0.0	157.0446479320526	0.6415741443634033
21	62.83926606178284	response	0	2		19.0	2.5	/experiments/knapen_aot/videos/R_S_yt-Ol4xuEA8xQc_776.mp4	0.0	157.67801809310913	
21	62.84747004508972	movie	1		300.0	19.0	2.5	/experiments/knapen_aot/videos/R_S_yt-Ol4xuEA8xQc_776.mp4	0.0	157.68622207641602	2.508391857147217
21	65.35586190223694	fix_post	2		12.0	19.0	2.5	/experiments/knapen_aot/videos/R_S_yt-Ol4xuEA8xQc_776.mp4	0.0	160.19461393356323	0.09993910789489746
22	65.45580101013184	fix_pre	0		61.0	20.0	2.5	blank	1.0	160.29455304145813	0.5084478855133057
22	65.95599794387817	response	0	2		20.0	2.5	blank	1.0	160.79474997520447	
22	65.96424889564514	movie	1		301.0	20.0	2.5	blank	1.0	160.80300092697144	2.508233070373535
22	68.47248196601868	fix_post	2		12.0	20.0	2.5	blank	1.0	163.31123399734497	0.09995913505554199
23	68.57244110107422	fix_pre	0		78.0	21.0	2.5	/experiments/knapen_aot/videos/S_yt-UBqUhu-GEVg_6.mp4	0.0	163.4111931324005	0.6500020027160645
23	69.21426105499268	response	0	2		21.0	2.5	/experiments/knapen_aot/videos/S_yt-UBqUhu-GEVg_6.mp4	0.0	164.05301308631897	
23	69.22244310379028	movie	1		301.0	21.0	2.5	/experiments/knapen_aot/videos/S_yt-UBqUhu-GEVg_6.mp4	0.0	164.06119513511658	2.5083158016204834
23	71.73075890541077	fix_post	2		12.0	21.0	2.5	/experiments/knapen_aot/videos/S_yt-UBqUhu-GEVg_6.mp4	0.0	166.56951093673706	0.10001802444458008
24	71.83077692985535	fix_pre	0		63.0	22.0	2.5	/experiments/knapen_aot/videos/S_yt-DWsFRl5bXs8_23.mp4	0.0	166.66952896118164	0.524986982345581
24	72.34759092330933	response	0	2		22.0	2.5	/experiments/knapen_aot/videos/S_yt-DWsFRl5bXs8_23.mp4	0.0	167.18634295463562	
24	72.35576391220093	movie	1		300.0	22.0	2.5	/experiments/knapen_aot/videos/S_yt-DWsFRl5bXs8_23.mp4	0.0	167.19451594352722	2.5084431171417236
24	74.86420702934265	fix_post	2		12.0	22.0	2.5	/experiments/knapen_aot/videos/S_yt-DWsFRl5bXs8_23.mp4	0.0	169.70295906066895	0.09998297691345215
25	74.9641900062561	fix_pre	0		113.0	23.0	2.5	/experiments/knapen_aot/videos/S_ILSVRC2015_train_00165011.mp4	0.0	169.8029420375824	0.9416100978851318
25	75.89765310287476	response	0	2		23.0	2.5	/experiments/knapen_aot/videos/S_ILSVRC2015_train_00165011.mp4	0.0	170.73640513420105	
25	75.90580010414124	movie	1		301.0	23.0	2.5	/experiments/knapen_aot/videos/S_ILSVRC2015_train_00165011.mp4	0.0	170.74455213546753	2.508349895477295
25	78.41414999961853	fix_post	2		12.0	23.0	2.5	/experiments/knapen_aot/videos/S_ILSVRC2015_train_00165011.mp4	0.0	173.25290203094482	0.09999608993530273
26	78.51414608955383	fix_pre	0		43.0	24.0	2.5	/experiments/knapen_aot/videos/R_S_yt-OrTpetjDNKs_31.mp4	0.0	173.35289812088013	0.3583250045776367
26	78.8642749786377	response	0	2		24.0	2.5	/experiments/knapen_aot/videos/R_S_yt-OrTpetjDNKs_31.mp4	0.0	173.703027009964	
26	78.87247109413147	movie	1		301.0	24.0	2.5	/experiments/knapen_aot/videos/R_S_yt-OrTpetjDNKs_31.mp4	0.0	173.71122312545776	2.5083398818969727
26	81.38081097602844	fix_post	2		12.0	24.0	2.5	/experiments/knapen_aot/videos/R_S_yt-OrTpetjDNKs_31.mp4	0.0	176.21956300735474	0.0999901294708252
27	81.48080110549927	fix_pre	0		41.0	25.0	2.5	/experiments/knapen_aot/videos/S_ILSVRC2015_train_00303005.mp4	0.0	176.31955313682556	0.3416709899902344
27	81.81422400474548	response	0	2		25.0	2.5	/experiments/knapen_aot/videos/S_ILSVRC2015_train_00303005.mp4	0.0	176.65297603607178	
27	81.8224720954895	movie	1		301.0	25.0	2.5	/experiments/knapen_aot/videos/S_ILSVRC2015_train_00303005.mp4	0.0	176.6612241268158	2.508330821990967
27	84.33080291748047	fix_post	2		12.0	25.0	2.5	/experiments/knapen_aot/videos/S_ILSVRC2015_train_00303005.mp4	0.0	179.16955494880676	0.09998798370361328
28	84.43079090118408	fix_pre	0		34.0	26.0	2.5	/experiments/knapen_aot/videos/S_wc-TAGpcap1KdAS_212.mp4	0.0	179.26954293251038	0.28331804275512695
28	84.70591807365417	response	0	2		26.0	2.5	/experiments/knapen_aot/videos/S_wc-TAGpcap1KdAS_212.mp4	0.0	179.54467010498047	
28	84.71410894393921	movie	1		301.0	26.0	2.5	/experiments/knapen_aot/videos/S_wc-TAGpcap1KdAS_212.mp4	0.0	179.5528609752655	2.5083069801330566
28	87.22241592407227	fix_post	2		12.0	26.0	2.5	/experiments/knapen_aot/videos/S_wc-TAGpcap1KdAS_212.mp4	0.0	182.06116795539856	0.10005807876586914
29	87.32247400283813	fix_pre	0		31.0	27.0	2.5	blank	1.0	182.16122603416443	0.2583339214324951
29	87.57262396812439	response	0	2		27.0	2.5	blank	1.0	182.41137599945068	
29	87.58080792427063	movie	1		301.0	27.0	2.5	blank	1.0	182.41955995559692	2.5083019733428955
29	90.08910989761353	fix_post	2		12.0	27.0	2.5	blank	1.0	184.92786192893982	0.0999751091003418
30	90.18908500671387	fix_pre	0		50.0	28.0	2.5	/experiments/knapen_aot/videos/S_yt-fqbi4rGc9dk_65.mp4	0.0	185.02783703804016	0.416701078414917
30	90.59758496284485	response	0	2		28.0	2.5	/experiments/knapen_aot/videos/S_yt-fqbi4rGc9dk_65.mp4	0.0	185.43633699417114	
30	90.60578608512878	movie	1		301.0	28.0	2.5	/experiments/knapen_aot/videos/S_yt-fqbi4rGc9dk_65.mp4	0.0	185.44453811645508	2.508314847946167
30	93.11410093307495	fix_post	2		12.0	28.0	2.5	/experiments/knapen_aot/videos/S_yt-fqbi4rGc9dk_65.mp4	0.0	187.95285296440125	0.09996795654296875
31	93.21406888961792	fix_pre	0		34.0	29.0	2.5	/experiments/knapen_aot/videos/S_yt-5MyvZYFlc9g_125.mp4	0.0	188.0528209209442	0.284649133682251
31	93.48924398422241	response	0	2		29.0	2.5	/experiments/knapen_aot/videos/S_yt-5MyvZYFlc9g_125.mp4	0.0	188.3279960155487	
31	93.49871802330017	movie	1		301.0	29.0	2.5	/experiments/knapen_aot/videos/S_yt-5MyvZYFlc9g_125.mp4	0.0	188.33747005462646	2.50715708732605
31	96.00587511062622	fix_post	2		12.0	29.0	2.5	/experiments/knapen_aot/videos/S_yt-5MyvZYFlc9g_125.mp4	0.0	190.84462714195251	0.09995579719543457
32	96.10583090782166	fix_pre	0		35.0	30.0	2.5	/experiments/knapen_aot/videos/S_yt-xqjVM0Vj4mI_161.mp4	0.0	190.94458293914795	0.2915501594543457
32	96.38174295425415	response	0	2		30.0	2.5	/experiments/knapen_aot/videos/S_yt-xqjVM0Vj4mI_161.mp4	0.0	191.22049498558044	
32	96.397381067276	movie	1		301.0	30.0	2.5	/experiments/knapen_aot/videos/S_yt-xqjVM0Vj4mI_161.mp4	0.0	191.2361330986023	2.508420944213867
32	98.90580201148987	fix_post	2		12.0	30.0	2.5	/experiments/knapen_aot/videos/S_yt-xqjVM0Vj4mI_161.mp4	0.0	193.74455404281616	0.09995388984680176
33	99.00575590133667	fix_pre	0		22.0	31.0	2.5	/experiments/knapen_aot/videos/R_S_ILSVRC2015_train_00708000.mp4	0.0	193.84450793266296	0.18328118324279785
33	99.1809470653534	response	0	2		31.0	2.5	/experiments/knapen_aot/videos/R_S_ILSVRC2015_train_00708000.mp4	0.0	194.0196990966797	
33	99.18903708457947	movie	1		301.0	31.0	2.5	/experiments/knapen_aot/videos/R_S_ILSVRC2015_train_00708000.mp4	0.0	194.02778911590576	2.5083398818969727
33	101.69737696647644	fix_post	2		12.0	31.0	2.5	/experiments/knapen_aot/videos/R_S_ILSVRC2015_train_00708000.mp4	0.0	196.53612899780273	0.10003304481506348
34	101.7974100112915	fix_pre	0		71.0	32.0	2.5	/experiments/knapen_aot/videos/S_yt-cG2qDR5ka5w_119.mp4	0.0	196.6361620426178	0.5916380882263184
34	102.38091492652893	response	0	2		32.0	2.5	/experiments/knapen_aot/videos/S_yt-cG2qDR5ka5w_119.mp4	0.0	197.21966695785522	
34	102.38904809951782	movie	1		301.0	32.0	2.5	/experiments/knapen_aot/videos/S_yt-cG2qDR5ka5w_119.mp4	0.0	197.22780013084412	2.508394956588745
34	104.89744305610657	fix_post	2		12.0	32.0	2.5	/experiments/knapen_aot/videos/S_yt-cG2qDR5ka5w_119.mp4	0.0	199.73619508743286	0.09995698928833008
35	104.9974000453949	fix_pre	0		31.0	33.0	2.5	/experiments/knapen_aot/videos/R_S_yt-oPq1uvbw-lQ_62.mp4	0.0	199.8361520767212	0.2582838535308838
35	105.24751496315002	response	0	2		33.0	2.5	/experiments/knapen_aot/videos/R_S_yt-oPq1uvbw-lQ_62.mp4	0.0	200.08626699447632	
35	105.25568389892578	movie	1		301.0	33.0	2.5	/experiments/knapen_aot/videos/R_S_yt-oPq1uvbw-lQ_62.mp4	0.0	200.09443593025208	2.5083839893341064
35	107.76406788825989	fix_post	2		12.0	33.0	2.5	/experiments/knapen_aot/videos/R_S_yt-oPq1uvbw-lQ_62.mp4	0.0	202.60281991958618	0.10000109672546387
36	107.86406898498535	fix_pre	0		43.0	34.0	2.5	blank	1.0	202.70282101631165	0.35828304290771484
36	108.21432399749756	response	0	2		34.0	2.5	blank	1.0	203.05307602882385	
36	108.22235202789307	movie	1		301.0	34.0	2.5	blank	1.0	203.06110405921936	2.508301019668579
36	110.73065304756165	fix_post	2		12.0	34.0	2.5	blank	1.0	205.56940507888794	0.10000085830688477
37	110.83065390586853	fix_pre	0		35.0	35.0	2.5	/experiments/knapen_aot/videos/R_S_yt-zpoIiHGRm5k_296.mp4	0.0	205.66940593719482	0.2928621768951416
37	111.11415195465088	response	0	2		35.0	2.5	/experiments/knapen_aot/videos/R_S_yt-zpoIiHGRm5k_296.mp4	0.0	205.95290398597717	
37	111.12351608276367	movie	1		301.0	35.0	2.5	/experiments/knapen_aot/videos/R_S_yt-zpoIiHGRm5k_296.mp4	0.0	205.96226811408997	2.507097005844116
37	113.63061308860779	fix_post	2		12.0	35.0	2.5	/experiments/knapen_aot/videos/R_S_yt-zpoIiHGRm5k_296.mp4	0.0	208.46936511993408	0.09993481636047363
38	113.73054790496826	fix_pre	0		41.0	36.0	2.5	/experiments/knapen_aot/videos/S_yt-v66td-1WO7w_44.mp4	0.0	208.56929993629456	0.3417332172393799
38	114.06405997276306	response	0	2		36.0	2.5	/experiments/knapen_aot/videos/S_yt-v66td-1WO7w_44.mp4	0.0	208.90281200408936	
38	114.07228112220764	movie	1		301.0	36.0	2.5	/experiments/knapen_aot/videos/S_yt-v66td-1WO7w_44.mp4	0.0	208.91103315353394	2.508312940597534
38	116.58059406280518	fix_post	2		12.0	36.0	2.5	/experiments/knapen_aot/videos/S_yt-v66td-1WO7w_44.mp4	0.0	211.41934609413147	0.10001897811889648
39	116.68061304092407	fix_pre	0		81.0	37.0	2.5	/experiments/knapen_aot/videos/S_yt-Snha8C5YOiY_26.mp4	0.0	211.51936507225037	0.6750118732452393
39	117.3475239276886	response	0	2		37.0	2.5	/experiments/knapen_aot/videos/S_yt-Snha8C5YOiY_26.mp4	0.0	212.1862759590149	
39	117.35562491416931	movie	1		300.0	37.0	2.5	/experiments/knapen_aot/videos/S_yt-Snha8C5YOiY_26.mp4	0.0	212.1943769454956	2.5083720684051514
39	119.86399698257446	fix_post	2		12.0	37.0	2.5	/experiments/knapen_aot/videos/S_yt-Snha8C5YOiY_26.mp4	0.0	214.70274901390076	0.09999394416809082
40	119.96399092674255	fix_pre	0		91.0	38.0	2.5	/experiments/knapen_aot/videos/R_S_yt-rIQoRErqnlI_17.mp4	0.0	214.80274295806885	0.7583150863647461
40	120.71412897109985	response	0	2		38.0	2.5	/experiments/knapen_aot/videos/R_S_yt-rIQoRErqnlI_17.mp4	0.0	215.55288100242615	
40	120.7223060131073	movie	1		301.0	38.0	2.5	/experiments/knapen_aot/videos/R_S_yt-rIQoRErqnlI_17.mp4	0.0	215.5610580444336	2.508307933807373
40	123.23061394691467	fix_post	2		12.0	38.0	2.5	/experiments/knapen_aot/videos/R_S_yt-rIQoRErqnlI_17.mp4	0.0	218.06936597824097	0.09992003440856934
41	123.33053398132324	fix_pre	0		48.0	39.0	2.5	/experiments/knapen_aot/videos/R_S_yt-xnqqB-leeaQ_128.mp4	0.0	218.16928601264954	0.40000295639038086
41	123.71483993530273	response	0	2		39.0	2.5	/experiments/knapen_aot/videos/R_S_yt-xnqqB-leeaQ_128.mp4	0.0	218.55359196662903	
41	123.73053693771362	movie	1		301.0	39.0	2.5	/experiments/knapen_aot/videos/R_S_yt-xnqqB-leeaQ_128.mp4	0.0	218.56928896903992	2.508362054824829
41	126.23889899253845	fix_post	2		12.0	39.0	2.5	/experiments/knapen_aot/videos/R_S_yt-xnqqB-leeaQ_128.mp4	0.0	221.07765102386475	0.10002708435058594
42	126.33892607688904	fix_pre	0		20.0	40.0	2.5	/experiments/knapen_aot/videos/R_S_yt-rIQoRErqnlI_17.mp4	0.0	221.17767810821533	0.1666269302368164
42	126.49725389480591	response	0	2		40.0	2.5	/experiments/knapen_aot/videos/R_S_yt-rIQoRErqnlI_17.mp4	0.0	221.3360059261322	
42	126.50555300712585	movie	1		301.0	40.0	2.5	/experiments/knapen_aot/videos/R_S_yt-rIQoRErqnlI_17.mp4	0.0	221.34430503845215	2.508315086364746
42	129.0138680934906	fix_post	2		12.0	40.0	2.5	/experiments/knapen_aot/videos/R_S_yt-rIQoRErqnlI_17.mp4	0.0	223.8526201248169	0.10004281997680664
43	129.1139109134674	fix_pre	0		77.0	41.0	2.5	blank	1.0	223.9526629447937	0.6416361331939697
43	129.74738597869873	response	0	2		41.0	2.5	blank	1.0	224.58613801002502	
43	129.75554704666138	movie	1		301.0	41.0	2.5	blank	1.0	224.59429907798767	2.508344888687134
43	132.2638919353485	fix_post	2		12.0	41.0	2.5	blank	1.0	227.1026439666748	0.09998703002929688
44	132.3638789653778	fix_pre	0		52.0	42.0	2.5	/experiments/knapen_aot/videos/R_S_wc-Mf8SQpviaD6D_17.mp4	0.0	227.2026309967041	0.43325114250183105
44	132.78899598121643	response	0	2		42.0	2.5	/experiments/knapen_aot/videos/R_S_wc-Mf8SQpviaD6D_17.mp4	0.0	227.62774801254272	
44	132.79713010787964	movie	1		169.0	42.0	2.5	/experiments/knapen_aot/videos/R_S_wc-Mf8SQpviaD6D_17.mp4	0.0	227.63588213920593	2.508448839187622
44	135.30557894706726	fix_post	2		12.0	42.0	2.5	/experiments/knapen_aot/videos/R_S_wc-Mf8SQpviaD6D_17.mp4	0.0	230.14433097839355	0.1000220775604248
45	135.40560102462769	fix_pre	0		42.0	43.0	2.5	/experiments/knapen_aot/videos/S_yt-GVaF4tmJBZE_253.mp4	0.0	230.24435305595398	0.34999704360961914
45	135.74744510650635	response	0	2		43.0	2.5	/experiments/knapen_aot/videos/S_yt-GVaF4tmJBZE_253.mp4	0.0	230.58619713783264	
45	135.7555980682373	movie	1		301.0	43.0	2.5	/experiments/knapen_aot/videos/S_yt-GVaF4tmJBZE_253.mp4	0.0	230.5943500995636	2.5082578659057617
45	138.26385593414307	fix_post	2		12.0	43.0	2.5	/experiments/knapen_aot/videos/S_yt-GVaF4tmJBZE_253.mp4	0.0	233.10260796546936	0.10001206398010254
46	138.36386799812317	fix_pre	0		25.0	44.0	2.5	/experiments/knapen_aot/videos/S_yt-BlWfK4MkjWA_469.mp4	0.0	233.20262002944946	0.20825695991516113
46	138.56396508216858	response	0	2		44.0	2.5	/experiments/knapen_aot/videos/S_yt-BlWfK4MkjWA_469.mp4	0.0	233.40271711349487	
46	138.57212495803833	movie	1		301.0	44.0	2.5	/experiments/knapen_aot/videos/S_yt-BlWfK4MkjWA_469.mp4	0.0	233.41087698936462	2.5083580017089844
46	141.08048295974731	fix_post	2		12.0	44.0	2.5	/experiments/knapen_aot/videos/S_yt-BlWfK4MkjWA_469.mp4	0.0	235.9192349910736	0.1000521183013916
47	141.1805350780487	fix_pre	0		40.0	45.0	2.5	/experiments/knapen_aot/videos/R_S_yt-j-ifVbxZePQ_70.mp4	0.0	236.019287109375	0.3333289623260498
47	141.498291015625	response	0	2		45.0	2.5	/experiments/knapen_aot/videos/R_S_yt-j-ifVbxZePQ_70.mp4	0.0	236.3370430469513	
47	141.51386404037476	movie	1		301.0	45.0	2.5	/experiments/knapen_aot/videos/R_S_yt-j-ifVbxZePQ_70.mp4	0.0	236.35261607170105	2.5083019733428955
47	144.02216601371765	fix_post	2		12.0	45.0	2.5	/experiments/knapen_aot/videos/R_S_yt-j-ifVbxZePQ_70.mp4	0.0	238.86091804504395	0.09992504119873047
48	144.12209105491638	fix_pre	0		60.0	46.0	2.5	/experiments/knapen_aot/videos/S_yt-thmqgEV-sYY_91.mp4	0.0	238.96084308624268	0.5010600090026855
48	144.6140410900116	response	0	2		46.0	2.5	/experiments/knapen_aot/videos/S_yt-thmqgEV-sYY_91.mp4	0.0	239.4527931213379	
48	144.62315106391907	movie	1		301.0	46.0	2.5	/experiments/knapen_aot/videos/S_yt-thmqgEV-sYY_91.mp4	0.0	239.46190309524536	2.5073089599609375
48	147.13046002388	fix_post	2		12.0	46.0	2.5	/experiments/knapen_aot/videos/S_yt-thmqgEV-sYY_91.mp4	0.0	241.9692120552063	0.10015296936035156
49	147.23061299324036	fix_pre	0		39.0	47.0	2.5	/experiments/knapen_aot/videos/R_S_yt-O6FS0xnF0CU_106.mp4	0.0	242.06936502456665	0.324862003326416
49	147.5472710132599	response	0	2		47.0	2.5	/experiments/knapen_aot/videos/R_S_yt-O6FS0xnF0CU_106.mp4	0.0	242.38602304458618	
49	147.55547499656677	movie	1		301.0	47.0	2.5	/experiments/knapen_aot/videos/R_S_yt-O6FS0xnF0CU_106.mp4	0.0	242.39422702789307	2.508331060409546
49	150.06380605697632	fix_post	2		12.0	47.0	2.5	/experiments/knapen_aot/videos/R_S_yt-O6FS0xnF0CU_106.mp4	0.0	244.9025580883026	0.10000896453857422
50	150.1638150215149	fix_pre	0		69.0	48.0	2.5	/experiments/knapen_aot/videos/R_S_yt-SGTgMItFkxY_172.mp4	0.0	245.0025670528412	0.5750041007995605
50	150.73064398765564	response	0	2		48.0	2.5	/experiments/knapen_aot/videos/R_S_yt-SGTgMItFkxY_172.mp4	0.0	245.56939601898193	
50	150.73881912231445	movie	1		301.0	48.0	2.5	/experiments/knapen_aot/videos/R_S_yt-SGTgMItFkxY_172.mp4	0.0	245.57757115364075	2.508236885070801
50	153.24705600738525	fix_post	2		12.0	48.0	2.5	/experiments/knapen_aot/videos/R_S_yt-SGTgMItFkxY_172.mp4	0.0	248.08580803871155	0.10009407997131348
51	153.34715008735657	fix_pre	0		50.0	49.0	2.5	blank	1.0	248.18590211868286	0.416611909866333
51	153.75558996200562	response	0	2		49.0	2.5	blank	1.0	248.5943419933319	
51	153.7637619972229	movie	1		301.0	49.0	2.5	blank	1.0	248.6025140285492	2.508389949798584
51	156.27215194702148	fix_post	2		12.0	49.0	2.5	blank	1.0	251.11090397834778	0.09996509552001953
52	156.3721170425415	fix_pre	0		43.0	50.0	2.5	/experiments/knapen_aot/videos/R_S_yt-Q5wYs9vSzlA_30.mp4	0.0	251.2108690738678	0.3583199977874756
52	156.72226691246033	response	0	2		50.0	2.5	/experiments/knapen_aot/videos/R_S_yt-Q5wYs9vSzlA_30.mp4	0.0	251.56101894378662	
52	156.73043704032898	movie	1		301.0	50.0	2.5	/experiments/knapen_aot/videos/R_S_yt-Q5wYs9vSzlA_30.mp4	0.0	251.56918907165527	2.5083260536193848
52	159.23876309394836	fix_post	2		12.0	50.0	2.5	/experiments/knapen_aot/videos/R_S_yt-Q5wYs9vSzlA_30.mp4	0.0	254.07751512527466	0.10005402565002441
53	159.3388171195984	fix_pre	0		49.0	51.0	2.5	/experiments/knapen_aot/videos/S_yt-E8EDQCPbBeI_196.mp4	0.0	254.17756915092468	0.40923190116882324
53	159.73893404006958	response	0	2		51.0	2.5	/experiments/knapen_aot/videos/S_yt-E8EDQCPbBeI_196.mp4	0.0	254.57768607139587	
53	159.7480490207672	movie	1		301.0	51.0	2.5	/experiments/knapen_aot/videos/S_yt-E8EDQCPbBeI_196.mp4	0.0	254.5868010520935	2.507309913635254
53	162.25535893440247	fix_post	2		12.0	51.0	2.5	/experiments/knapen_aot/videos/S_yt-E8EDQCPbBeI_196.mp4	0.0	257.09411096572876	0.10003304481506348
54	162.35539197921753	fix_pre	0		41.0	52.0	2.5	/experiments/knapen_aot/videos/S_yt-7NjoFHBdP7c_102.mp4	0.0	257.1941440105438	0.3416619300842285
54	162.68891191482544	response	0	2		52.0	2.5	/experiments/knapen_aot/videos/S_yt-7NjoFHBdP7c_102.mp4	0.0	257.52766394615173	
54	162.69705390930176	movie	1		301.0	52.0	2.5	/experiments/knapen_aot/videos/S_yt-7NjoFHBdP7c_102.mp4	0.0	257.53580594062805	2.5083441734313965
54	165.20539808273315	fix_post	2		12.0	52.0	2.5	/experiments/knapen_aot/videos/S_yt-7NjoFHBdP7c_102.mp4	0.0	260.04415011405945	0.10003399848937988
55	165.30543208122253	fix_pre	0		50.0	53.0	2.5	/experiments/knapen_aot/videos/R_S_comp_GMT026_363A_103NC_E1027_KOREA_JAPAN_NIGHT_v18_SDR_PS_20180907_SDR_2K_AVC.mp4	0.0	260.1441841125488	0.41660404205322266
55	165.71386790275574	response	0	2		53.0	2.5	/experiments/knapen_aot/videos/R_S_comp_GMT026_363A_103NC_E1027_KOREA_JAPAN_NIGHT_v18_SDR_PS_20180907_SDR_2K_AVC.mp4	0.0	260.55261993408203	
55	165.72203612327576	movie	1		190.0	53.0	2.5	/experiments/knapen_aot/videos/R_S_comp_GMT026_363A_103NC_E1027_KOREA_JAPAN_NIGHT_v18_SDR_PS_20180907_SDR_2K_AVC.mp4	0.0	260.56078815460205	2.5083627700805664
55	168.23039889335632	fix_post	2		12.0	53.0	2.5	/experiments/knapen_aot/videos/R_S_comp_GMT026_363A_103NC_E1027_KOREA_JAPAN_NIGHT_v18_SDR_PS_20180907_SDR_2K_AVC.mp4	0.0	263.0691509246826	0.10002017021179199
56	168.33041906356812	fix_pre	0		47.0	54.0	2.5	/experiments/knapen_aot/videos/R_S_yt-p0buJEEKeuI_61.mp4	0.0	263.1691710948944	0.391556978225708
56	168.7138979434967	response	0	2		54.0	2.5	/experiments/knapen_aot/videos/R_S_yt-p0buJEEKeuI_61.mp4	0.0	263.552649974823	
56	168.72197604179382	movie	1		301.0	54.0	2.5	/experiments/knapen_aot/videos/R_S_yt-p0buJEEKeuI_61.mp4	0.0	263.5607280731201	2.5083789825439453
56	171.23035502433777	fix_post	2		12.0	54.0	2.5	/experiments/knapen_aot/videos/R_S_yt-p0buJEEKeuI_61.mp4	0.0	266.06910705566406	0.09999990463256836
57	171.33035492897034	fix_pre	0		43.0	55.0	2.5	/experiments/knapen_aot/videos/R_S_comp_H004_C009_PS_v01_SDR_PS_20180925_SDR_2K_AVC.mp4	0.0	266.16910696029663	0.3583860397338867
57	171.6729440689087	response	0	2		55.0	2.5	/experiments/knapen_aot/videos/R_S_comp_H004_C009_PS_v01_SDR_PS_20180925_SDR_2K_AVC.mp4	0.0	266.511696100235	
57	171.68874096870422	movie	1		165.0	55.0	2.5	/experiments/knapen_aot/videos/R_S_comp_H004_C009_PS_v01_SDR_PS_20180925_SDR_2K_AVC.mp4	0.0	266.5274930000305	2.508357048034668
57	174.1970980167389	fix_post	2		12.0	55.0	2.5	/experiments/knapen_aot/videos/R_S_comp_H004_C009_PS_v01_SDR_PS_20180925_SDR_2K_AVC.mp4	0.0	269.0358500480652	0.09998106956481934
58	174.2970790863037	fix_pre	0		62.0	56.0	2.5	blank	1.0	269.13583111763	0.516624927520752
58	174.8055260181427	response	0	2		56.0	2.5	blank	1.0	269.644278049469	
58	174.81370401382446	movie	1		301.0	56.0	2.5	blank	1.0	269.65245604515076	2.508305072784424
58	177.3220090866089	fix_post	2		12.0	56.0	2.5	blank	1.0	272.1607611179352	0.10012292861938477
59	177.42213201522827	fix_pre	0		89.0	57.0	2.5	/experiments/knapen_aot/videos/R_S_yt-qYuLW5vSotM_160.mp4	0.0	272.26088404655457	0.7424650192260742
59	178.15561604499817	response	0	2		57.0	2.5	/experiments/knapen_aot/videos/R_S_yt-qYuLW5vSotM_160.mp4	0.0	272.99436807632446	
59	178.16459703445435	movie	1		298.0	57.0	2.5	/experiments/knapen_aot/videos/R_S_yt-qYuLW5vSotM_160.mp4	0.0	273.00334906578064	2.507314920425415
59	180.67191195487976	fix_post	2		12.0	57.0	2.5	/experiments/knapen_aot/videos/R_S_yt-qYuLW5vSotM_160.mp4	0.0	275.51066398620605	0.10008597373962402
60	180.77199792861938	fix_pre	0		86.0	58.0	2.5	/experiments/knapen_aot/videos/S_I005_C008_CROP_SDR_2K_AVC.mp4	0.0	275.6107499599457	0.7166550159454346
60	181.4730339050293	response	0	2		58.0	2.5	/experiments/knapen_aot/videos/S_I005_C008_CROP_SDR_2K_AVC.mp4	0.0	276.3117859363556	
60	181.48865294456482	movie	1		167.0	58.0	2.5	/experiments/knapen_aot/videos/S_I005_C008_CROP_SDR_2K_AVC.mp4	0.0	276.3274049758911	2.5083391666412354
60	183.99699211120605	fix_post	2		12.0	58.0	2.5	/experiments/knapen_aot/videos/S_I005_C008_CROP_SDR_2K_AVC.mp4	0.0	278.83574414253235	0.09996795654296875
61	184.09696006774902	fix_pre	0		101.0	59.0	2.5	/experiments/knapen_aot/videos/S_yt-hdZEAsVBEEM_19.mp4	0.0	278.9357120990753	0.8417239189147949
61	184.9229679107666	response	0	2		59.0	2.5	/experiments/knapen_aot/videos/S_yt-hdZEAsVBEEM_19.mp4	0.0	279.7617199420929	
61	184.93868398666382	movie	1		301.0	59.0	2.5	/experiments/knapen_aot/videos/S_yt-hdZEAsVBEEM_19.mp4	0.0	279.7774360179901	2.508316993713379
61	187.4470009803772	fix_post	2		12.0	59.0	2.5	/experiments/knapen_aot/videos/S_yt-hdZEAsVBEEM_19.mp4	0.0	282.2857530117035	0.10000300407409668
62	187.5470039844513	fix_pre	0		72.0	60.0	2.5	/experiments/knapen_aot/videos/S_yt-d5jBQ-LOW2I_17.mp4	0.0	282.3857560157776	0.5999979972839355
62	188.13879299163818	response	0	2		60.0	2.5	/experiments/knapen_aot/videos/S_yt-d5jBQ-LOW2I_17.mp4	0.0	282.9775450229645	
62	188.14700198173523	movie	1		301.0	60.0	2.5	/experiments/knapen_aot/videos/S_yt-d5jBQ-LOW2I_17.mp4	0.0	282.9857540130615	2.50832200050354
62	190.65532398223877	fix_post	2		12.0	60.0	2.5	/experiments/knapen_aot/videos/S_yt-d5jBQ-LOW2I_17.mp4	0.0	285.49407601356506	0.10001802444458008
63	190.75534200668335	fix_pre	0		171.0	61.0	2.5	/experiments/knapen_aot/videos/S_yt-SgiTZNjCPCo_19.mp4	0.0	285.59409403800964	1.4249069690704346
63	192.17210412025452	response	0	2		61.0	2.5	/experiments/knapen_aot/videos/S_yt-SgiTZNjCPCo_19.mp4	0.0	287.0108561515808	
63	192.18024897575378	movie	1		301.0	61.0	2.5	/experiments/knapen_aot/videos/S_yt-SgiTZNjCPCo_19.mp4	0.0	287.0190010070801	2.508392095565796
63	194.68864107131958	fix_post	2		12.0	61.0	2.5	/experiments/knapen_aot/videos/S_yt-SgiTZNjCPCo_19.mp4	0.0	289.5273931026459	0.0999610424041748
64	194.78860211372375	fix_pre	0		72.0	62.0	2.5	/experiments/knapen_aot/videos/S_comp_LA_A005_C009_PSNK_ALT_v09_SDR_PS_201809134_SDR_2K_AVC.mp4	0.0	289.62735414505005	0.6000149250030518
64	195.3804121017456	response	0	2		62.0	2.5	/experiments/knapen_aot/videos/S_comp_LA_A005_C009_PSNK_ALT_v09_SDR_PS_201809134_SDR_2K_AVC.mp4	0.0	290.2191641330719	
64	195.3886170387268	movie	1		168.0	62.0	2.5	/experiments/knapen_aot/videos/S_comp_LA_A005_C009_PSNK_ALT_v09_SDR_PS_201809134_SDR_2K_AVC.mp4	0.0	290.2273690700531	2.5083060264587402
64	197.89692306518555	fix_post	2		12.0	62.0	2.5	/experiments/knapen_aot/videos/S_comp_LA_A005_C009_PSNK_ALT_v09_SDR_PS_201809134_SDR_2K_AVC.mp4	0.0	292.73567509651184	0.09997892379760742
65	197.99690198898315	fix_pre	0		59.0	63.0	2.5	blank	1.0	292.83565402030945	0.49166297912597656
65	198.48043704032898	response	0	2		63.0	2.5	blank	1.0	293.3191890716553	
65	198.48856496810913	movie	1		301.0	63.0	2.5	blank	1.0	293.3273169994354	2.5083651542663574
65	200.9969301223755	fix_post	2		12.0	63.0	2.5	blank	1.0	295.8356821537018	0.09998798370361328
66	201.0969181060791	fix_pre	0		53.0	64.0	2.5	/experiments/knapen_aot/videos/R_S_yt-jYSri2JVUqo_1036.mp4	0.0	295.9356701374054	0.4423959255218506
66	201.53038597106934	response	0	2		64.0	2.5	/experiments/knapen_aot/videos/R_S_yt-jYSri2JVUqo_1036.mp4	0.0	296.36913800239563	
66	201.53931403160095	movie	1		301.0	64.0	2.5	/experiments/knapen_aot/videos/R_S_yt-jYSri2JVUqo_1036.mp4	0.0	296.37806606292725	2.5076088905334473
66	204.0469229221344	fix_post	2		12.0	64.0	2.5	/experiments/knapen_aot/videos/R_S_yt-jYSri2JVUqo_1036.mp4	0.0	298.8856749534607	0.09998202323913574
67	204.14690494537354	fix_pre	0		69.0	65.0	2.5	/experiments/knapen_aot/videos/R_S_59eT4XDXNno_25.mp4	0.0	298.98565697669983	0.5749630928039551
67	204.7137041091919	response	0	2		65.0	2.5	/experiments/knapen_aot/videos/R_S_59eT4XDXNno_25.mp4	0.0	299.5524561405182	
67	204.7218680381775	movie	1		301.0	65.0	2.5	/experiments/knapen_aot/videos/R_S_59eT4XDXNno_25.mp4	0.0	299.5606200695038	2.508302927017212
67	207.2301709651947	fix_post	2		12.0	65.0	2.5	/experiments/knapen_aot/videos/R_S_59eT4XDXNno_25.mp4	0.0	302.068922996521	0.1000370979309082
68	207.3302080631256	fix_pre	0		56.0	66.0	2.5	/experiments/knapen_aot/videos/S_ILSVRC2015_train_00408000.mp4	0.0	302.1689600944519	0.46671390533447266
68	207.78870105743408	response	0	2		66.0	2.5	/experiments/knapen_aot/videos/S_ILSVRC2015_train_00408000.mp4	0.0	302.6274530887604	
68	207.79692196846008	movie	1		298.0	66.0	2.5	/experiments/knapen_aot/videos/S_ILSVRC2015_train_00408000.mp4	0.0	302.6356739997864	2.5083670616149902
68	210.30528903007507	fix_post	2		12.0	66.0	2.5	/experiments/knapen_aot/videos/S_ILSVRC2015_train_00408000.mp4	0.0	305.14404106140137	0.09999394416809082
69	210.40528297424316	fix_pre	0		64.0	67.0	2.5	/experiments/knapen_aot/videos/R_S_flickr-51283549@N02-23064904264_16.mp4	0.0	305.24403500556946	0.5332269668579102
69	210.93032693862915	response	0	2		67.0	2.5	/experiments/knapen_aot/videos/R_S_flickr-51283549@N02-23064904264_16.mp4	0.0	305.76907896995544	
69	210.93850994110107	movie	1		168.0	67.0	2.5	/experiments/knapen_aot/videos/R_S_flickr-51283549@N02-23064904264_16.mp4	0.0	305.77726197242737	2.508406162261963
69	213.44691610336304	fix_post	2		12.0	67.0	2.5	/experiments/knapen_aot/videos/R_S_flickr-51283549@N02-23064904264_16.mp4	0.0	308.28566813468933	0.0999908447265625
70	213.5469069480896	fix_pre	0		54.0	68.0	2.5	/experiments/knapen_aot/videos/S_yt-JVhfcpV7OaY_71.mp4	0.0	308.3856589794159	0.45061516761779785
70	213.98122811317444	response	0	2		68.0	2.5	/experiments/knapen_aot/videos/S_yt-JVhfcpV7OaY_71.mp4	0.0	308.81998014450073	
70	213.9975221157074	movie	1		301.0	68.0	2.5	/experiments/knapen_aot/videos/S_yt-JVhfcpV7OaY_71.mp4	0.0	308.8362741470337	2.5076279640197754
70	216.50515007972717	fix_post	2		12.0	68.0	2.5	/experiments/knapen_aot/videos/S_yt-JVhfcpV7OaY_71.mp4	0.0	311.34390211105347	0.10001492500305176
71	216.60516500473022	fix_pre	0		48.0	69.0	2.5	blank	1.0	311.4439170360565	0.40001392364501953
71	216.9970760345459	response	0	2		69.0	2.5	blank	1.0	311.8358280658722	
71	217.00517892837524	movie	1		301.0	69.0	2.5	blank	1.0	311.84393095970154	2.508350133895874
71	219.51352906227112	fix_post	2		12.0	69.0	2.5	blank	1.0	314.3522810935974	0.0999460220336914
72	219.6134750843048	fix_pre	0		214.0	70.0	2.5	/experiments/knapen_aot/videos/S_production_ID_5139371.mp4	0.0	314.4522271156311	1.7832748889923096
72	221.38868689537048	response	0	2		70.0	2.5	/experiments/knapen_aot/videos/S_production_ID_5139371.mp4	0.0	316.2274389266968	
72	221.39674997329712	movie	1		160.0	70.0	2.5	/experiments/knapen_aot/videos/S_production_ID_5139371.mp4	0.0	316.2355020046234	2.508409023284912
72	223.90515899658203	fix_post	2		12.0	70.0	2.5	/experiments/knapen_aot/videos/S_production_ID_5139371.mp4	0.0	318.7439110279083	0.09993600845336914
73	224.0050950050354	fix_pre	0		35.0	71.0	2.5	/experiments/knapen_aot/videos/R_S_production_ID_4720614.mp4	0.0	318.8438470363617	0.2917358875274658
73	224.28863310813904	response	0	2		71.0	2.5	/experiments/knapen_aot/videos/R_S_production_ID_4720614.mp4	0.0	319.12738513946533	
73	224.29683089256287	movie	1		182.0	71.0	2.5	/experiments/knapen_aot/videos/R_S_production_ID_4720614.mp4	0.0	319.13558292388916	2.5083250999450684
73	226.80515599250793	fix_post	2		12.0	71.0	2.5	/experiments/knapen_aot/videos/R_S_production_ID_4720614.mp4	0.0	321.64390802383423	0.09998106956481934
74	226.90513706207275	fix_pre	0		57.0	72.0	2.5	/experiments/knapen_aot/videos/R_S_comp_LA_A005_C009_PSNK_ALT_v09_SDR_PS_201809134_SDR_2K_AVC.mp4	0.0	321.74388909339905	0.47498297691345215
74	227.36438989639282	response	0	2		72.0	2.5	/experiments/knapen_aot/videos/R_S_comp_LA_A005_C009_PSNK_ALT_v09_SDR_PS_201809134_SDR_2K_AVC.mp4	0.0	322.2031419277191	
74	227.3801200389862	movie	1		173.0	72.0	2.5	/experiments/knapen_aot/videos/R_S_comp_LA_A005_C009_PSNK_ALT_v09_SDR_PS_201809134_SDR_2K_AVC.mp4	0.0	322.2188720703125	2.50838303565979
74	229.888503074646	fix_post	2		12.0	72.0	2.5	/experiments/knapen_aot/videos/R_S_comp_LA_A005_C009_PSNK_ALT_v09_SDR_PS_201809134_SDR_2K_AVC.mp4	0.0	324.7272551059723	0.09996891021728516
75	229.98847198486328	fix_pre	0		43.0	73.0	2.5	/experiments/knapen_aot/videos/S_yt-GVaF4tmJBZE_253.mp4	0.0	324.8272240161896	0.358273983001709
75	230.33857202529907	response	0	2		73.0	2.5	/experiments/knapen_aot/videos/S_yt-GVaF4tmJBZE_253.mp4	0.0	325.17732405662537	
75	230.346745967865	movie	1		301.0	73.0	2.5	/experiments/knapen_aot/videos/S_yt-GVaF4tmJBZE_253.mp4	0.0	325.1854979991913	2.508392095565796
75	232.8551380634308	fix_post	2		12.0	73.0	2.5	/experiments/knapen_aot/videos/S_yt-GVaF4tmJBZE_253.mp4	0.0	327.6938900947571	0.0999898910522461
76	232.95512795448303	fix_pre	0		59.0	74.0	2.5	/experiments/knapen_aot/videos/R_S_b4-3.mp4	0.0	327.7938799858093	0.49167609214782715
76	233.43865489959717	response	0	2		74.0	2.5	/experiments/knapen_aot/videos/R_S_b4-3.mp4	0.0	328.27740693092346	
76	233.44680404663086	movie	1		165.0	74.0	2.5	/experiments/knapen_aot/videos/R_S_b4-3.mp4	0.0	328.28555607795715	2.508293867111206
76	235.95509791374207	fix_post	2		12.0	74.0	2.5	/experiments/knapen_aot/videos/R_S_b4-3.mp4	0.0	330.79384994506836	0.10005497932434082
77	236.0551528930664	fix_pre	0		28.0	75.0	2.5	/experiments/knapen_aot/videos/S_yt-SGTgMItFkxY_172.mp4	0.0	330.8939049243927	0.23384618759155273
77	236.2802619934082	response	0	2		75.0	2.5	/experiments/knapen_aot/videos/S_yt-SGTgMItFkxY_172.mp4	0.0	331.1190140247345	
77	236.28899908065796	movie	1		301.0	75.0	2.5	/experiments/knapen_aot/videos/S_yt-SGTgMItFkxY_172.mp4	0.0	331.12775111198425	2.507689952850342
77	238.7966890335083	fix_post	2		12.0	75.0	2.5	/experiments/knapen_aot/videos/S_yt-SGTgMItFkxY_172.mp4	0.0	333.6354410648346	0.10009288787841797
78	238.89678192138672	fix_pre	0		44.0	76.0	2.5	blank	1.0	333.735533952713	0.3666200637817383
78	239.25530195236206	response	0	2		76.0	2.5	blank	1.0	334.09405398368835	
78	239.26340198516846	movie	1		301.0	76.0	2.5	blank	1.0	334.10215401649475	2.508363962173462
78	241.77176594734192	fix_post	2		12.0	76.0	2.5	blank	1.0	336.6105179786682	0.09998607635498047
79	241.8717520236969	fix_pre	0		49.0	77.0	2.5	/experiments/knapen_aot/videos/R_S_yt--koo4FOfZE0_86.mp4	0.0	336.7105040550232	0.4083089828491211
79	242.2718288898468	response	0	2		77.0	2.5	/experiments/knapen_aot/videos/R_S_yt--koo4FOfZE0_86.mp4	0.0	337.1105809211731	
79	242.28006100654602	movie	1		301.0	77.0	2.5	/experiments/knapen_aot/videos/R_S_yt--koo4FOfZE0_86.mp4	0.0	337.1188130378723	2.5083959102630615
79	244.78845691680908	fix_post	2		12.0	77.0	2.5	/experiments/knapen_aot/videos/R_S_yt--koo4FOfZE0_86.mp4	0.0	339.6272089481354	0.09997415542602539
80	244.8884310722351	fix_pre	0		37.0	78.0	2.5	/experiments/knapen_aot/videos/R_S_bing-www_nbcnews_com_storyline_isis-terror_fall-isis-stronghold-raqqa-will-change-war-extremists-not-end-n808621_86.mp4	0.0	339.7271831035614	0.3083369731903076
80	245.188560962677	response	0	2		78.0	2.5	/experiments/knapen_aot/videos/R_S_bing-www_nbcnews_com_storyline_isis-terror_fall-isis-stronghold-raqqa-will-change-war-extremists-not-end-n808621_86.mp4	0.0	340.0273129940033	
80	245.19676804542542	movie	1		163.0	78.0	2.5	/experiments/knapen_aot/videos/R_S_bing-www_nbcnews_com_storyline_isis-terror_fall-isis-stronghold-raqqa-will-change-war-extremists-not-end-n808621_86.mp4	0.0	340.0355200767517	2.5083508491516113
80	247.70511889457703	fix_post	2		12.0	78.0	2.5	/experiments/knapen_aot/videos/R_S_bing-www_nbcnews_com_storyline_isis-terror_fall-isis-stronghold-raqqa-will-change-war-extremists-not-end-n808621_86.mp4	0.0	342.5438709259033	0.09999799728393555
81	247.80511689186096	fix_pre	0		37.0	79.0	2.5	/experiments/knapen_aot/videos/S_bing-www_dailymotion_com_video_x4kcklg_53.mp4	0.0	342.64386892318726	0.3083031177520752
81	248.10526704788208	response	0	2		79.0	2.5	/experiments/knapen_aot/videos/S_bing-www_dailymotion_com_video_x4kcklg_53.mp4	0.0	342.9440190792084	
81	248.11342000961304	movie	1		165.0	79.0	2.5	/experiments/knapen_aot/videos/S_bing-www_dailymotion_com_video_x4kcklg_53.mp4	0.0	342.95217204093933	2.50833797454834
81	250.62175798416138	fix_post	2		12.0	79.0	2.5	/experiments/knapen_aot/videos/S_bing-www_dailymotion_com_video_x4kcklg_53.mp4	0.0	345.46051001548767	0.10004091262817383
82	250.72179889678955	fix_pre	0		49.0	80.0	2.5	/experiments/knapen_aot/videos/R_S_video-7.mp4	0.0	345.56055092811584	0.4083280563354492
82	251.1219310760498	response	0	2		80.0	2.5	/experiments/knapen_aot/videos/R_S_video-7.mp4	0.0	345.9606831073761	
82	251.130126953125	movie	1		168.0	80.0	2.5	/experiments/knapen_aot/videos/R_S_video-7.mp4	0.0	345.9688789844513	2.5082850456237793
82	253.63841199874878	fix_post	2		11.0	80.0	2.5	/experiments/knapen_aot/videos/R_S_video-7.mp4	0.0	348.4771640300751	0.10000109672546387
83	253.73841309547424	fix_pre	0		54.0	81.0	2.5	/experiments/knapen_aot/videos/R_S_yt-oVS_k_9upmo_205.mp4	0.0	348.57716512680054	0.4499959945678711
83	254.18023490905762	response	0	2		81.0	2.5	/experiments/knapen_aot/videos/R_S_yt-oVS_k_9upmo_205.mp4	0.0	349.0189869403839	
83	254.18840909004211	movie	1		301.0	81.0	2.5	/experiments/knapen_aot/videos/R_S_yt-oVS_k_9upmo_205.mp4	0.0	349.0271611213684	2.508333921432495
83	256.6967430114746	fix_post	2		12.0	81.0	2.5	/experiments/knapen_aot/videos/R_S_yt-oVS_k_9upmo_205.mp4	0.0	351.5354950428009	0.09995698928833008
84	256.79670000076294	fix_pre	0		25.0	82.0	2.5	/experiments/knapen_aot/videos/R_S_yt-hmtcRLNoYZc_17.mp4	0.0	351.63545203208923	0.21674704551696777
84	257.0051279067993	response	0	2		82.0	2.5	/experiments/knapen_aot/videos/R_S_yt-hmtcRLNoYZc_17.mp4	0.0	351.8438799381256	
84	257.0134470462799	movie	1		301.0	82.0	2.5	/experiments/knapen_aot/videos/R_S_yt-hmtcRLNoYZc_17.mp4	0.0	351.8521990776062	2.5083160400390625
84	259.52176308631897	fix_post	2		12.0	82.0	2.5	/experiments/knapen_aot/videos/R_S_yt-hmtcRLNoYZc_17.mp4	0.0	354.36051511764526	0.09991288185119629
85	259.62167596817017	fix_pre	0		49.0	83.0	2.5	blank	1.0	354.46042799949646	0.4083731174468994
85	260.0218150615692	response	0	2		83.0	2.5	blank	1.0	354.8605670928955	
85	260.03004908561707	movie	1		301.0	83.0	2.5	blank	1.0	354.86880111694336	2.5083370208740234
85	262.5383861064911	fix_post	2		12.0	83.0	2.5	blank	1.0	357.3771381378174	0.09999799728393555
87	262.638384103775	stim	0		46.0					357.4771361351013	0.38338780403137207
87	263.01482009887695	response	0	space						357.85357213020325	
