trial_nr	onset	event_type	phase	response	nr_frames	movie_index	movie_duration	movie_file	blank	onset_abs	duration
0	0.1338670253753662	stim	0		135.0					76.62133598327637	1.125096082687378
0	1.2501659393310547	response	0	space						77.73763489723206	
1	1.2589631080627441	stim	0		121.0					77.74643206596375	1.007328987121582
1	2.266292095184326	stim	1		120.0					78.75376105308533	0.9999868869781494
1	2.5247960090637207	response	1	space						79.01226496696472	
1	3.07478404045105	response	1	space						79.56225299835205	
2	3.2662789821624756	fix_pre	0		113.0	0.0	2.5	/experiments/knapen_aot/videos/S_wc-b4Oquu3WQPRz_45.mp4	0.0	79.75374794006348	0.9417271614074707
2	4.192291975021362	response	0	space		0.0	2.5	/experiments/knapen_aot/videos/S_wc-b4Oquu3WQPRz_45.mp4	0.0	80.67976093292236	
2	4.208006143569946	movie	1		167.0	0.0	2.5	/experiments/knapen_aot/videos/S_wc-b4Oquu3WQPRz_45.mp4	0.0	80.69547510147095	2.50832200050354
2	6.716328144073486	fix_post	2		12.0	0.0	2.5	/experiments/knapen_aot/videos/S_wc-b4Oquu3WQPRz_45.mp4	0.0	83.20379710197449	0.10004687309265137
3	6.816375017166138	fix_pre	0		82.0	1.0	2.5	/experiments/knapen_aot/videos/S_pexels-polina-tankilevitch-8203088.mp4	0.0	83.30384397506714	0.685204029083252
3	7.496364116668701	response	0	2		1.0	2.5	/experiments/knapen_aot/videos/S_pexels-polina-tankilevitch-8203088.mp4	0.0	83.9838330745697	
3	7.50157904624939	movie	1		164.0	1.0	2.5	/experiments/knapen_aot/videos/S_pexels-polina-tankilevitch-8203088.mp4	0.0	83.98904800415039	2.5064449310302734
3	10.008023977279663	fix_post	2		12.0	1.0	2.5	/experiments/knapen_aot/videos/S_pexels-polina-tankilevitch-8203088.mp4	0.0	86.49549293518066	0.09995603561401367
4	10.107980012893677	fix_pre	0		41.0	2.0	2.5	/experiments/knapen_aot/videos/S_yt-QTGIhecBZjc_19.mp4	0.0	86.59544897079468	0.34171104431152344
4	10.434011936187744	response	0	2		2.0	2.5	/experiments/knapen_aot/videos/S_yt-QTGIhecBZjc_19.mp4	0.0	86.92148089408875	
4	10.4496910572052	movie	1		300.0	2.0	2.5	/experiments/knapen_aot/videos/S_yt-QTGIhecBZjc_19.mp4	0.0	86.9371600151062	2.508298873901367
4	12.957989931106567	fix_post	2		12.0	2.0	2.5	/experiments/knapen_aot/videos/S_yt-QTGIhecBZjc_19.mp4	0.0	89.44545888900757	0.09994816780090332
5	13.05793809890747	fix_pre	0		43.0	3.0	2.5	/experiments/knapen_aot/videos/S_pexels-marcus-aurelius-6785014.mp4	0.0	89.54540705680847	0.3583219051361084
5	13.408066987991333	response	0	2		3.0	2.5	/experiments/knapen_aot/videos/S_pexels-marcus-aurelius-6785014.mp4	0.0	89.89553594589233	
5	13.416260004043579	movie	1		168.0	3.0	2.5	/experiments/knapen_aot/videos/S_pexels-marcus-aurelius-6785014.mp4	0.0	89.90372896194458	2.5083279609680176
5	15.924587965011597	fix_post	2		12.0	3.0	2.5	/experiments/knapen_aot/videos/S_pexels-marcus-aurelius-6785014.mp4	0.0	92.4120569229126	0.10006117820739746
6	16.024649143218994	fix_pre	0		47.0	4.0	2.5	/experiments/knapen_aot/videos/R_S_ILSVRC2015_train_00394000.mp4	0.0	92.51211810112	0.3916139602661133
6	16.40814208984375	response	0	2		4.0	2.5	/experiments/knapen_aot/videos/R_S_ILSVRC2015_train_00394000.mp4	0.0	92.89561104774475	
6	16.416263103485107	movie	1		301.0	4.0	2.5	/experiments/knapen_aot/videos/R_S_ILSVRC2015_train_00394000.mp4	0.0	92.90373206138611	2.5083048343658447
6	18.924567937850952	fix_post	2		12.0	4.0	2.5	/experiments/knapen_aot/videos/R_S_ILSVRC2015_train_00394000.mp4	0.0	95.41203689575195	0.10002303123474121
7	19.024590969085693	fix_pre	0		64.0	5.0	2.5	blank	1.0	95.5120599269867	0.533379077911377
7	19.54973316192627	response	0	2		5.0	2.5	blank	1.0	96.03720211982727	
7	19.55797004699707	movie	1		301.0	5.0	2.5	blank	1.0	96.04543900489807	2.508234977722168
7	22.06620502471924	fix_post	2		12.0	5.0	2.5	blank	1.0	98.55367398262024	0.10005998611450195
8	22.16626501083374	fix_pre	0		185.0	6.0	2.5	/experiments/knapen_aot/videos/R_S_ILSVRC2015_train_00768000.mp4	0.0	98.65373396873474	1.5416171550750732
8	23.69967007637024	response	0	2		6.0	2.5	/experiments/knapen_aot/videos/R_S_ILSVRC2015_train_00768000.mp4	0.0	100.18713903427124	
8	23.707882165908813	movie	1		301.0	6.0	2.5	/experiments/knapen_aot/videos/R_S_ILSVRC2015_train_00768000.mp4	0.0	100.19535112380981	2.508349895477295
8	26.21623206138611	fix_post	2		12.0	6.0	2.5	/experiments/knapen_aot/videos/R_S_ILSVRC2015_train_00768000.mp4	0.0	102.70370101928711	0.0999748706817627
9	26.31620693206787	fix_pre	0		117.0	7.0	2.5	/experiments/knapen_aot/videos/R_S_ILSVRC2015_train_00524006.mp4	0.0	102.80367588996887	0.9749782085418701
9	27.283061981201172	response	0	2		7.0	2.5	/experiments/knapen_aot/videos/R_S_ILSVRC2015_train_00524006.mp4	0.0	103.77053093910217	
9	27.29118514060974	movie	1		301.0	7.0	2.5	/experiments/knapen_aot/videos/R_S_ILSVRC2015_train_00524006.mp4	0.0	103.77865409851074	2.508333921432495
9	29.799519062042236	fix_post	2		12.0	7.0	2.5	/experiments/knapen_aot/videos/R_S_ILSVRC2015_train_00524006.mp4	0.0	106.28698801994324	0.1000828742980957
10	29.899601936340332	fix_pre	0		179.0	8.0	2.5	/experiments/knapen_aot/videos/R_S_ILSVRC2015_train_00251004.mp4	0.0	106.38707089424133	1.4915611743927002
10	31.38302993774414	response	0	2		8.0	2.5	/experiments/knapen_aot/videos/R_S_ILSVRC2015_train_00251004.mp4	0.0	107.87049889564514	
10	31.391163110733032	movie	1		300.0	8.0	2.5	/experiments/knapen_aot/videos/R_S_ILSVRC2015_train_00251004.mp4	0.0	107.87863206863403	2.508441925048828
10	33.89960503578186	fix_post	2		12.0	8.0	2.5	/experiments/knapen_aot/videos/R_S_ILSVRC2015_train_00251004.mp4	0.0	110.38707399368286	0.09997797012329102
11	33.99958300590515	fix_pre	0		110.0	9.0	2.5	/experiments/knapen_aot/videos/S_yt-2cwARrUMj40_67.mp4	0.0	110.48705196380615	0.9166369438171387
11	34.90803909301758	response	0	2		9.0	2.5	/experiments/knapen_aot/videos/S_yt-2cwARrUMj40_67.mp4	0.0	111.39550805091858	
11	34.91621994972229	movie	1		301.0	9.0	2.5	/experiments/knapen_aot/videos/S_yt-2cwARrUMj40_67.mp4	0.0	111.40368890762329	2.508334159851074
11	37.424554109573364	fix_post	2		12.0	9.0	2.5	/experiments/knapen_aot/videos/S_yt-2cwARrUMj40_67.mp4	0.0	113.91202306747437	0.1000368595123291
12	37.52459096908569	fix_pre	0		109.0	10.0	2.5	/experiments/knapen_aot/videos/R_S_ILSVRC2015_train_00524006.mp4	0.0	114.0120599269867	0.908257007598877
12	38.42467999458313	response	0	2		10.0	2.5	/experiments/knapen_aot/videos/R_S_ILSVRC2015_train_00524006.mp4	0.0	114.91214895248413	
12	38.43284797668457	movie	1		301.0	10.0	2.5	/experiments/knapen_aot/videos/R_S_ILSVRC2015_train_00524006.mp4	0.0	114.92031693458557	2.5083670616149902
12	40.94121503829956	fix_post	2		12.0	10.0	2.5	/experiments/knapen_aot/videos/R_S_ILSVRC2015_train_00524006.mp4	0.0	117.42868399620056	0.09988212585449219
13	41.04109716415405	fix_pre	0		181.0	11.0	2.5	/experiments/knapen_aot/videos/R_S_ILSVRC2015_train_00404004.mp4	0.0	117.52856612205505	1.5087318420410156
13	42.541316986083984	response	0	2		11.0	2.5	/experiments/knapen_aot/videos/R_S_ILSVRC2015_train_00404004.mp4	0.0	119.02878594398499	
13	42.54982900619507	movie	1		301.0	11.0	2.5	/experiments/knapen_aot/videos/R_S_ILSVRC2015_train_00404004.mp4	0.0	119.03729796409607	2.5080060958862305
13	45.0578351020813	fix_post	2		12.0	11.0	2.5	/experiments/knapen_aot/videos/R_S_ILSVRC2015_train_00404004.mp4	0.0	121.5453040599823	0.09997797012329102
14	45.15781307220459	fix_pre	0		36.0	12.0	2.5	/experiments/knapen_aot/videos/R_S_yt-gMqeZkpA_1Q_61.mp4	0.0	121.64528203010559	0.2999610900878906
14	45.44965314865112	response	0	2		12.0	2.5	/experiments/knapen_aot/videos/R_S_yt-gMqeZkpA_1Q_61.mp4	0.0	121.93712210655212	
14	45.45777416229248	movie	1		301.0	12.0	2.5	/experiments/knapen_aot/videos/R_S_yt-gMqeZkpA_1Q_61.mp4	0.0	121.94524312019348	2.508396863937378
14	47.96617102622986	fix_post	2		12.0	12.0	2.5	/experiments/knapen_aot/videos/R_S_yt-gMqeZkpA_1Q_61.mp4	0.0	124.45363998413086	0.10002994537353516
15	48.066200971603394	fix_pre	0		33.0	13.0	2.5	blank	1.0	124.5536699295044	0.27535510063171387
15	48.33289194107056	response	0	2		13.0	2.5	blank	1.0	124.82036089897156	
15	48.34155607223511	movie	1		301.0	13.0	2.5	blank	1.0	124.82902503013611	2.507891893386841
15	50.84944796562195	fix_post	2		12.0	13.0	2.5	blank	1.0	127.33691692352295	0.10002398490905762
16	50.949471950531006	fix_pre	0		26.0	14.0	2.5	/experiments/knapen_aot/videos/S_yt-v9WGfC67DPk_50.mp4	0.0	127.436940908432	0.21669220924377441
16	51.15040993690491	response	0	2		14.0	2.5	/experiments/knapen_aot/videos/S_yt-v9WGfC67DPk_50.mp4	0.0	127.63787889480591	
16	51.16616415977478	movie	1		301.0	14.0	2.5	/experiments/knapen_aot/videos/S_yt-v9WGfC67DPk_50.mp4	0.0	127.65363311767578	2.5082879066467285
16	53.67445206642151	fix_post	2		12.0	14.0	2.5	/experiments/knapen_aot/videos/S_yt-v9WGfC67DPk_50.mp4	0.0	130.1619210243225	0.09997987747192383
17	53.77443194389343	fix_pre	0		120.0	15.0	2.5	/experiments/knapen_aot/videos/S_yt-Pc1ZlCvsPpc_5.mp4	0.0	130.26190090179443	1.0000131130218506
17	54.76617407798767	response	0	2		15.0	2.5	/experiments/knapen_aot/videos/S_yt-Pc1ZlCvsPpc_5.mp4	0.0	131.25364303588867	
17	54.77444505691528	movie	1		301.0	15.0	2.5	/experiments/knapen_aot/videos/S_yt-Pc1ZlCvsPpc_5.mp4	0.0	131.26191401481628	2.5083439350128174
17	57.2827889919281	fix_post	2		12.0	15.0	2.5	/experiments/knapen_aot/videos/S_yt-Pc1ZlCvsPpc_5.mp4	0.0	133.7702579498291	0.10008502006530762
18	57.38287401199341	fix_pre	0		56.0	16.0	2.5	/experiments/knapen_aot/videos/S_ILSVRC2015_train_00394000.mp4	0.0	133.8703429698944	0.46654796600341797
18	57.841238021850586	response	0	2		16.0	2.5	/experiments/knapen_aot/videos/S_ILSVRC2015_train_00394000.mp4	0.0	134.3287069797516	
18	57.849421977996826	movie	1		300.0	16.0	2.5	/experiments/knapen_aot/videos/S_ILSVRC2015_train_00394000.mp4	0.0	134.33689093589783	2.508358955383301
18	60.35778093338013	fix_post	2		12.0	16.0	2.5	/experiments/knapen_aot/videos/S_ILSVRC2015_train_00394000.mp4	0.0	136.84524989128113	0.10002422332763672
19	60.457805156707764	fix_pre	0		62.0	17.0	2.5	/experiments/knapen_aot/videos/S_ILSVRC2015_train_00756000.mp4	0.0	136.94527411460876	0.5166318416595459
19	60.966230154037476	response	0	2		17.0	2.5	/experiments/knapen_aot/videos/S_ILSVRC2015_train_00756000.mp4	0.0	137.45369911193848	
19	60.97443699836731	movie	1		301.0	17.0	2.5	/experiments/knapen_aot/videos/S_ILSVRC2015_train_00756000.mp4	0.0	137.4619059562683	2.50829815864563
19	63.48273515701294	fix_post	2		12.0	17.0	2.5	/experiments/knapen_aot/videos/S_ILSVRC2015_train_00756000.mp4	0.0	139.97020411491394	0.10005593299865723
20	63.5827910900116	fix_pre	0		65.0	18.0	2.5	/experiments/knapen_aot/videos/R_S_yt-i-1Gou9SA5U_3.mp4	0.0	140.0702600479126	0.5416538715362549
20	64.11623096466064	response	0	2		18.0	2.5	/experiments/knapen_aot/videos/R_S_yt-i-1Gou9SA5U_3.mp4	0.0	140.60369992256165	
20	64.12444496154785	movie	1		301.0	18.0	2.5	/experiments/knapen_aot/videos/R_S_yt-i-1Gou9SA5U_3.mp4	0.0	140.61191391944885	2.508545160293579
20	66.63299012184143	fix_post	2		12.0	18.0	2.5	/experiments/knapen_aot/videos/R_S_yt-i-1Gou9SA5U_3.mp4	0.0	143.12045907974243	0.09973883628845215
21	66.73272895812988	fix_pre	0		61.0	19.0	2.5	/experiments/knapen_aot/videos/R_S_yt-KNdCiW8m1uY_168.mp4	0.0	143.22019791603088	0.5082690715789795
21	67.23287200927734	response	0	2		19.0	2.5	/experiments/knapen_aot/videos/R_S_yt-KNdCiW8m1uY_168.mp4	0.0	143.72034096717834	
21	67.24099802970886	movie	1		301.0	19.0	2.5	/experiments/knapen_aot/videos/R_S_yt-KNdCiW8m1uY_168.mp4	0.0	143.72846698760986	2.5083670616149902
21	69.74936509132385	fix_post	2		12.0	19.0	2.5	/experiments/knapen_aot/videos/R_S_yt-KNdCiW8m1uY_168.mp4	0.0	146.23683404922485	0.10005688667297363
22	69.84942197799683	fix_pre	0		67.0	20.0	2.5	blank	1.0	146.33689093589783	0.5582320690155029
22	70.39960098266602	response	0	2		20.0	2.5	blank	1.0	146.88706994056702	
22	70.40765404701233	movie	1		301.0	20.0	2.5	blank	1.0	146.89512300491333	2.5084168910980225
22	72.15789008140564	response	1	2		20.0	2.5	blank	1.0	148.64535903930664	
22	72.91607093811035	fix_post	2		12.0	20.0	2.5	blank	1.0	149.40353989601135	0.09999299049377441
23	73.01606392860413	fix_pre	0		66.0	21.0	2.5	/experiments/knapen_aot/videos/S_comp_GMT110_112NC_364D_1054_AURORA_ANTARTICA__COMP_FINAL_v34_PS_SDR_20181107_SDR_2K_AVC.mp4	0.0	149.50353288650513	0.5499742031097412
23	73.55780005455017	response	0	2		21.0	2.5	/experiments/knapen_aot/videos/S_comp_GMT110_112NC_364D_1054_AURORA_ANTARTICA__COMP_FINAL_v34_PS_SDR_20181107_SDR_2K_AVC.mp4	0.0	150.04526901245117	
23	73.56603813171387	movie	1		163.0	21.0	2.5	/experiments/knapen_aot/videos/S_comp_GMT110_112NC_364D_1054_AURORA_ANTARTICA__COMP_FINAL_v34_PS_SDR_20181107_SDR_2K_AVC.mp4	0.0	150.05350708961487	2.508281946182251
23	76.07432007789612	fix_post	2		12.0	21.0	2.5	/experiments/knapen_aot/videos/S_comp_GMT110_112NC_364D_1054_AURORA_ANTARTICA__COMP_FINAL_v34_PS_SDR_20181107_SDR_2K_AVC.mp4	0.0	152.56178903579712	0.10020208358764648
24	76.17452216148376	fix_pre	0		76.0	22.0	2.5	/experiments/knapen_aot/videos/S_comp_H004_C007_PS_v02_SDR_PS_20180925_SDR_2K_AVC.mp4	0.0	152.66199111938477	0.6330859661102295
24	76.79949808120728	response	0	2		22.0	2.5	/experiments/knapen_aot/videos/S_comp_H004_C007_PS_v02_SDR_PS_20180925_SDR_2K_AVC.mp4	0.0	153.28696703910828	
24	76.807608127594	movie	1		162.0	22.0	2.5	/experiments/knapen_aot/videos/S_comp_H004_C007_PS_v02_SDR_PS_20180925_SDR_2K_AVC.mp4	0.0	153.295077085495	2.5084028244018555
24	79.31601095199585	fix_post	2		12.0	22.0	2.5	/experiments/knapen_aot/videos/S_comp_H004_C007_PS_v02_SDR_PS_20180925_SDR_2K_AVC.mp4	0.0	155.80347990989685	0.1000051498413086
25	79.41601610183716	fix_pre	0		59.0	23.0	2.5	/experiments/knapen_aot/videos/R_S_yt-gMqeZkpA_1Q_61.mp4	0.0	155.90348505973816	0.49160289764404297
25	79.89949703216553	response	0	2		23.0	2.5	/experiments/knapen_aot/videos/R_S_yt-gMqeZkpA_1Q_61.mp4	0.0	156.38696599006653	
25	79.9076189994812	movie	1		301.0	23.0	2.5	/experiments/knapen_aot/videos/R_S_yt-gMqeZkpA_1Q_61.mp4	0.0	156.3950879573822	2.508392095565796
25	82.416011095047	fix_post	2		12.0	23.0	2.5	/experiments/knapen_aot/videos/R_S_yt-gMqeZkpA_1Q_61.mp4	0.0	158.903480052948	0.10003805160522461
26	82.51604914665222	fix_pre	0		126.0	24.0	2.5	/experiments/knapen_aot/videos/S_yt-OTNdgakSIJE_97.mp4	0.0	159.00351810455322	1.0500409603118896
26	83.55786204338074	response	0	2		24.0	2.5	/experiments/knapen_aot/videos/S_yt-OTNdgakSIJE_97.mp4	0.0	160.04533100128174	
26	83.56609010696411	movie	1		301.0	24.0	2.5	/experiments/knapen_aot/videos/S_yt-OTNdgakSIJE_97.mp4	0.0	160.0535590648651	2.508280038833618
26	86.07437014579773	fix_post	2		12.0	24.0	2.5	/experiments/knapen_aot/videos/S_yt-OTNdgakSIJE_97.mp4	0.0	162.56183910369873	0.10004997253417969
27	86.17442011833191	fix_pre	0		43.0	25.0	2.5	/experiments/knapen_aot/videos/R_S_yt-YeT4acsbqok_210.mp4	0.0	162.6618890762329	0.3582279682159424
27	86.52439093589783	response	0	2		25.0	2.5	/experiments/knapen_aot/videos/R_S_yt-YeT4acsbqok_210.mp4	0.0	163.01185989379883	
27	86.53264808654785	movie	1		301.0	25.0	2.5	/experiments/knapen_aot/videos/R_S_yt-YeT4acsbqok_210.mp4	0.0	163.02011704444885	2.5083069801330566
27	89.04095506668091	fix_post	2		12.0	25.0	2.5	/experiments/knapen_aot/videos/R_S_yt-YeT4acsbqok_210.mp4	0.0	165.5284240245819	0.09996390342712402
28	89.14091897010803	fix_pre	0		52.0	26.0	2.5	/experiments/knapen_aot/videos/S_flickr-southeasternstar-3464778323_10.mp4	0.0	165.62838792800903	0.43343210220336914
28	89.56611204147339	response	0	2		26.0	2.5	/experiments/knapen_aot/videos/S_flickr-southeasternstar-3464778323_10.mp4	0.0	166.0535809993744	
28	89.5743510723114	movie	1		301.0	26.0	2.5	/experiments/knapen_aot/videos/S_flickr-southeasternstar-3464778323_10.mp4	0.0	166.0618200302124	2.5082578659057617
28	92.08260893821716	fix_post	2		12.0	26.0	2.5	/experiments/knapen_aot/videos/S_flickr-southeasternstar-3464778323_10.mp4	0.0	168.57007789611816	0.09996509552001953
29	92.18257403373718	fix_pre	0		56.0	27.0	2.5	blank	1.0	168.67004299163818	0.4667370319366455
29	92.64105606079102	response	0	2		27.0	2.5	blank	1.0	169.12852501869202	
29	92.64931106567383	movie	1		301.0	27.0	2.5	blank	1.0	169.13678002357483	2.508280038833618
29	94.41612195968628	response	1	2		27.0	2.5	blank	1.0	170.90359091758728	
29	95.15759110450745	fix_post	2		12.0	27.0	2.5	blank	1.0	171.64506006240845	0.10013604164123535
30	95.25772714614868	fix_pre	0		49.0	28.0	2.5	/experiments/knapen_aot/videos/S_yt-z16pdVTZK1o_3.mp4	0.0	171.74519610404968	0.4082038402557373
30	95.6576600074768	response	0	2		28.0	2.5	/experiments/knapen_aot/videos/S_yt-z16pdVTZK1o_3.mp4	0.0	172.1451289653778	
30	95.66593098640442	movie	1		301.0	28.0	2.5	/experiments/knapen_aot/videos/S_yt-z16pdVTZK1o_3.mp4	0.0	172.15339994430542	2.5083670616149902
30	98.17429804801941	fix_post	2		12.0	28.0	2.5	/experiments/knapen_aot/videos/S_yt-z16pdVTZK1o_3.mp4	0.0	174.6617670059204	0.09994888305664062
31	98.27424693107605	fix_pre	0		28.0	29.0	2.5	/experiments/knapen_aot/videos/S_yt-w_e3sxIzepA_27.mp4	0.0	174.76171588897705	0.23338818550109863
31	98.49946212768555	response	0	2		29.0	2.5	/experiments/knapen_aot/videos/S_yt-w_e3sxIzepA_27.mp4	0.0	174.98693108558655	
31	98.50763511657715	movie	1		301.0	29.0	2.5	/experiments/knapen_aot/videos/S_yt-w_e3sxIzepA_27.mp4	0.0	174.99510407447815	2.5082569122314453
31	101.0158920288086	fix_post	2		12.0	29.0	2.5	/experiments/knapen_aot/videos/S_yt-w_e3sxIzepA_27.mp4	0.0	177.5033609867096	0.10004305839538574
32	101.11593508720398	fix_pre	0		52.0	30.0	2.5	/experiments/knapen_aot/videos/S_yt--koo4FOfZE0_86.mp4	0.0	177.60340404510498	0.4333000183105469
32	101.5410840511322	response	0	2		30.0	2.5	/experiments/knapen_aot/videos/S_yt--koo4FOfZE0_86.mp4	0.0	178.0285530090332	
32	101.54923510551453	movie	1		301.0	30.0	2.5	/experiments/knapen_aot/videos/S_yt--koo4FOfZE0_86.mp4	0.0	178.03670406341553	2.508362054824829
32	104.05759716033936	fix_post	2		12.0	30.0	2.5	/experiments/knapen_aot/videos/S_yt--koo4FOfZE0_86.mp4	0.0	180.54506611824036	0.0999457836151123
33	104.15754294395447	fix_pre	0		31.0	31.0	2.5	/experiments/knapen_aot/videos/R_S_yt-ayx4rU9bJrU_179.mp4	0.0	180.64501190185547	0.25835299491882324
33	104.40761709213257	response	0	2		31.0	2.5	/experiments/knapen_aot/videos/R_S_yt-ayx4rU9bJrU_179.mp4	0.0	180.89508605003357	
33	104.41589593887329	movie	1		301.0	31.0	2.5	/experiments/knapen_aot/videos/R_S_yt-ayx4rU9bJrU_179.mp4	0.0	180.9033648967743	2.5083391666412354
33	106.92423510551453	fix_post	2		12.0	31.0	2.5	/experiments/knapen_aot/videos/R_S_yt-ayx4rU9bJrU_179.mp4	0.0	183.41170406341553	0.10008692741394043
34	107.02432203292847	fix_pre	0		34.0	32.0	2.5	/experiments/knapen_aot/videos/R_S_wc-b4Oquu3WQPRz_45.mp4	0.0	183.51179099082947	0.2832329273223877
34	107.29947996139526	response	0	2		32.0	2.5	/experiments/knapen_aot/videos/R_S_wc-b4Oquu3WQPRz_45.mp4	0.0	183.78694891929626	
34	107.30755496025085	movie	1		168.0	32.0	2.5	/experiments/knapen_aot/videos/R_S_wc-b4Oquu3WQPRz_45.mp4	0.0	183.79502391815186	2.5083351135253906
34	109.81589007377625	fix_post	2		12.0	32.0	2.5	/experiments/knapen_aot/videos/R_S_wc-b4Oquu3WQPRz_45.mp4	0.0	186.30335903167725	0.09999799728393555
35	109.91588807106018	fix_pre	0		49.0	33.0	2.5	/experiments/knapen_aot/videos/R_S_yt-SyePE8wOlxs_321.mp4	0.0	186.40335702896118	0.4083220958709717
35	110.31601095199585	response	0	2		33.0	2.5	/experiments/knapen_aot/videos/R_S_yt-SyePE8wOlxs_321.mp4	0.0	186.80347990989685	
35	110.32421016693115	movie	1		301.0	33.0	2.5	/experiments/knapen_aot/videos/R_S_yt-SyePE8wOlxs_321.mp4	0.0	186.81167912483215	2.508347988128662
35	112.83255815505981	fix_post	2		12.0	33.0	2.5	/experiments/knapen_aot/videos/R_S_yt-SyePE8wOlxs_321.mp4	0.0	189.32002711296082	0.10000395774841309
36	112.93256211280823	fix_pre	0		28.0	34.0	2.5	blank	1.0	189.42003107070923	0.2333369255065918
36	113.15017199516296	response	0	2		34.0	2.5	blank	1.0	189.63764095306396	
36	113.16589903831482	movie	1		301.0	34.0	2.5	blank	1.0	189.65336799621582	2.508310079574585
36	115.6742091178894	fix_post	2		12.0	34.0	2.5	blank	1.0	192.1616780757904	0.09998393058776855
37	115.77419304847717	fix_pre	0		39.0	35.0	2.5	/experiments/knapen_aot/videos/R_S_flickr-southeasternstar-3464778323_10.mp4	0.0	192.26166200637817	0.3250560760498047
37	116.09100413322449	response	0	2		35.0	2.5	/experiments/knapen_aot/videos/R_S_flickr-southeasternstar-3464778323_10.mp4	0.0	192.5784730911255	
37	116.09924912452698	movie	1		298.0	35.0	2.5	/experiments/knapen_aot/videos/R_S_flickr-southeasternstar-3464778323_10.mp4	0.0	192.58671808242798	2.5082919597625732
37	118.60754108428955	fix_post	2		12.0	35.0	2.5	/experiments/knapen_aot/videos/R_S_flickr-southeasternstar-3464778323_10.mp4	0.0	195.09501004219055	0.09990787506103516
38	118.70744895935059	fix_pre	0		35.0	36.0	2.5	/experiments/knapen_aot/videos/S_comp_GMT312_162NC_139M_1041_AFRICA_NIGHT_v14_SDR_FINAL_20180706_SDR_2K_AVC.mp4	0.0	195.1949179172516	0.2916691303253174
38	118.99101400375366	response	0	2		36.0	2.5	/experiments/knapen_aot/videos/S_comp_GMT312_162NC_139M_1041_AFRICA_NIGHT_v14_SDR_FINAL_20180706_SDR_2K_AVC.mp4	0.0	195.47848296165466	
38	118.9991180896759	movie	1		164.0	36.0	2.5	/experiments/knapen_aot/videos/S_comp_GMT312_162NC_139M_1041_AFRICA_NIGHT_v14_SDR_FINAL_20180706_SDR_2K_AVC.mp4	0.0	195.4865870475769	2.5084309577941895
38	120.67434597015381	response	1	2		36.0	2.5	/experiments/knapen_aot/videos/S_comp_GMT312_162NC_139M_1041_AFRICA_NIGHT_v14_SDR_FINAL_20180706_SDR_2K_AVC.mp4	0.0	197.1618149280548	
38	121.50754904747009	fix_post	2		12.0	36.0	2.5	/experiments/knapen_aot/videos/S_comp_GMT312_162NC_139M_1041_AFRICA_NIGHT_v14_SDR_FINAL_20180706_SDR_2K_AVC.mp4	0.0	197.9950180053711	0.09997797012329102
39	121.60752701759338	fix_pre	0		129.0	37.0	2.5	/experiments/knapen_aot/videos/S_Y009_C015_SDR_2K_AVC.mp4	0.0	198.09499597549438	1.0749459266662598
39	122.67431116104126	response	0	2		37.0	2.5	/experiments/knapen_aot/videos/S_Y009_C015_SDR_2K_AVC.mp4	0.0	199.16178011894226	
39	122.68247294425964	movie	1		171.0	37.0	2.5	/experiments/knapen_aot/videos/S_Y009_C015_SDR_2K_AVC.mp4	0.0	199.16994190216064	2.5083751678466797
39	125.19084811210632	fix_post	2		12.0	37.0	2.5	/experiments/knapen_aot/videos/S_Y009_C015_SDR_2K_AVC.mp4	0.0	201.67831707000732	0.09994792938232422
40	125.29079604148865	fix_pre	0		144.0	38.0	2.5	/experiments/knapen_aot/videos/S_production_ID_4101244.mp4	0.0	201.77826499938965	1.1999950408935547
40	126.4826021194458	response	0	2		38.0	2.5	/experiments/knapen_aot/videos/S_production_ID_4101244.mp4	0.0	202.9700710773468	
40	126.4907910823822	movie	1		205.0	38.0	2.5	/experiments/knapen_aot/videos/S_production_ID_4101244.mp4	0.0	202.9782600402832	2.508344888687134
40	128.99913597106934	fix_post	2		12.0	38.0	2.5	/experiments/knapen_aot/videos/S_production_ID_4101244.mp4	0.0	205.48660492897034	0.1000680923461914
41	129.09920406341553	fix_pre	0		53.0	39.0	2.5	/experiments/knapen_aot/videos/S_yt-VinOD6g7xEc_135.mp4	0.0	205.58667302131653	0.4415879249572754
41	129.53263807296753	response	0	2		39.0	2.5	/experiments/knapen_aot/videos/S_yt-VinOD6g7xEc_135.mp4	0.0	206.02010703086853	
41	129.5407919883728	movie	1		301.0	39.0	2.5	/experiments/knapen_aot/videos/S_yt-VinOD6g7xEc_135.mp4	0.0	206.0282609462738	2.508419990539551
41	132.04921197891235	fix_post	2		12.0	39.0	2.5	/experiments/knapen_aot/videos/S_yt-VinOD6g7xEc_135.mp4	0.0	208.53668093681335	0.09996199607849121
42	132.14917397499084	fix_pre	0		88.0	40.0	2.5	/experiments/knapen_aot/videos/R_S_yt-i-1Gou9SA5U_3.mp4	0.0	208.63664293289185	0.7333130836486816
42	132.87426209449768	response	0	2		40.0	2.5	/experiments/knapen_aot/videos/R_S_yt-i-1Gou9SA5U_3.mp4	0.0	209.36173105239868	
42	132.88248705863953	movie	1		301.0	40.0	2.5	/experiments/knapen_aot/videos/R_S_yt-i-1Gou9SA5U_3.mp4	0.0	209.36995601654053	2.5083320140838623
42	135.3908190727234	fix_post	2		12.0	40.0	2.5	/experiments/knapen_aot/videos/R_S_yt-i-1Gou9SA5U_3.mp4	0.0	211.8782880306244	0.1000518798828125
43	135.4908709526062	fix_pre	0		54.0	41.0	2.5	blank	1.0	211.9783399105072	0.449937105178833
43	135.93252611160278	response	0	2		41.0	2.5	blank	1.0	212.41999506950378	
43	135.94080805778503	movie	1		301.0	41.0	2.5	blank	1.0	212.42827701568604	2.5082778930664062
43	138.44908595085144	fix_post	2		12.0	41.0	2.5	blank	1.0	214.93655490875244	0.10002017021179199
44	138.54910612106323	fix_pre	0		68.0	42.0	2.5	/experiments/knapen_aot/videos/R_S_yt-YLcmfyfIokU_64.mp4	0.0	215.03657507896423	0.5666730403900146
44	139.10754013061523	response	0	2		42.0	2.5	/experiments/knapen_aot/videos/R_S_yt-YLcmfyfIokU_64.mp4	0.0	215.59500908851624	
44	139.11577916145325	movie	1		301.0	42.0	2.5	/experiments/knapen_aot/videos/R_S_yt-YLcmfyfIokU_64.mp4	0.0	215.60324811935425	2.5082907676696777
44	141.62406992912292	fix_post	2		12.0	42.0	2.5	/experiments/knapen_aot/videos/R_S_yt-YLcmfyfIokU_64.mp4	0.0	218.11153888702393	0.10004019737243652
45	141.72411012649536	fix_pre	0		45.0	43.0	2.5	/experiments/knapen_aot/videos/S_yt-7W50lcw5FCo_37.mp4	0.0	218.21157908439636	0.3749690055847168
45	142.0908980369568	response	0	2		43.0	2.5	/experiments/knapen_aot/videos/S_yt-7W50lcw5FCo_37.mp4	0.0	218.5783669948578	
45	142.09907913208008	movie	1		301.0	43.0	2.5	/experiments/knapen_aot/videos/S_yt-7W50lcw5FCo_37.mp4	0.0	218.58654808998108	2.508319854736328
45	144.6073989868164	fix_post	2		12.0	43.0	2.5	/experiments/knapen_aot/videos/S_yt-7W50lcw5FCo_37.mp4	0.0	221.0948679447174	0.10006499290466309
46	144.70746397972107	fix_pre	0		132.0	44.0	2.5	/experiments/knapen_aot/videos/S_yt-UojTppgtyCE_121.mp4	0.0	221.19493293762207	1.0999131202697754
46	145.79924297332764	response	0	2		44.0	2.5	/experiments/knapen_aot/videos/S_yt-UojTppgtyCE_121.mp4	0.0	222.28671193122864	
46	145.80737709999084	movie	1		301.0	44.0	2.5	/experiments/knapen_aot/videos/S_yt-UojTppgtyCE_121.mp4	0.0	222.29484605789185	2.5083048343658447
46	148.3156819343567	fix_post	2		12.0	44.0	2.5	/experiments/knapen_aot/videos/S_yt-UojTppgtyCE_121.mp4	0.0	224.8031508922577	0.10007905960083008
47	148.41576099395752	fix_pre	0		95.0	45.0	2.5	/experiments/knapen_aot/videos/R_S_yt-CR86bVrRwfo_13.mp4	0.0	224.90322995185852	0.7928111553192139
47	149.19921112060547	response	0	2		45.0	2.5	/experiments/knapen_aot/videos/R_S_yt-CR86bVrRwfo_13.mp4	0.0	225.68668007850647	
47	149.20857214927673	movie	1		301.0	45.0	2.5	/experiments/knapen_aot/videos/R_S_yt-CR86bVrRwfo_13.mp4	0.0	225.69604110717773	2.5071258544921875
47	151.71569800376892	fix_post	2		12.0	45.0	2.5	/experiments/knapen_aot/videos/R_S_yt-CR86bVrRwfo_13.mp4	0.0	228.20316696166992	0.09999299049377441
48	151.8156909942627	fix_pre	0		56.0	46.0	2.5	/experiments/knapen_aot/videos/S_ILSVRC2015_train_00411001.mp4	0.0	228.3031599521637	0.46666693687438965
48	152.27419710159302	response	0	2		46.0	2.5	/experiments/knapen_aot/videos/S_ILSVRC2015_train_00411001.mp4	0.0	228.76166605949402	
48	152.28235793113708	movie	1		301.0	46.0	2.5	/experiments/knapen_aot/videos/S_ILSVRC2015_train_00411001.mp4	0.0	228.7698268890381	2.508277177810669
48	154.79063510894775	fix_post	2		12.0	46.0	2.5	/experiments/knapen_aot/videos/S_ILSVRC2015_train_00411001.mp4	0.0	231.27810406684875	0.10009598731994629
49	154.8907310962677	fix_pre	0		54.0	47.0	2.5	blank	1.0	231.3782000541687	0.44994187355041504
49	155.33248496055603	response	0	2		47.0	2.5	blank	1.0	231.81995391845703	
49	155.34067296981812	movie	1		301.0	47.0	2.5	blank	1.0	231.82814192771912	2.5083119869232178
49	157.84898495674133	fix_post	2		12.0	47.0	2.5	blank	1.0	234.33645391464233	0.1000661849975586
50	157.9490511417389	fix_pre	0		39.0	48.0	2.5	/experiments/knapen_aot/videos/S_yt-ayx4rU9bJrU_179.mp4	0.0	234.4365200996399	0.32495784759521484
50	158.2582459449768	response	0	2		48.0	2.5	/experiments/knapen_aot/videos/S_yt-ayx4rU9bJrU_179.mp4	0.0	234.7457149028778	
50	158.2740089893341	movie	1		297.0	48.0	2.5	/experiments/knapen_aot/videos/S_yt-ayx4rU9bJrU_179.mp4	0.0	234.7614779472351	2.5083041191101074
50	160.7823131084442	fix_post	2		12.0	48.0	2.5	/experiments/knapen_aot/videos/S_yt-ayx4rU9bJrU_179.mp4	0.0	237.26978206634521	0.1000509262084961
51	160.8823640346527	fix_pre	0		55.0	49.0	2.5	/experiments/knapen_aot/videos/S_ILSVRC2015_train_00524006.mp4	0.0	237.3698329925537	0.45833301544189453
51	161.33256101608276	response	0	2		49.0	2.5	/experiments/knapen_aot/videos/S_ILSVRC2015_train_00524006.mp4	0.0	237.82002997398376	
51	161.3406970500946	movie	1		301.0	49.0	2.5	/experiments/knapen_aot/videos/S_ILSVRC2015_train_00524006.mp4	0.0	237.8281660079956	2.50839900970459
51	163.8490960597992	fix_post	2		12.0	49.0	2.5	/experiments/knapen_aot/videos/S_ILSVRC2015_train_00524006.mp4	0.0	240.3365650177002	0.0998680591583252
52	163.94896411895752	fix_pre	0		61.0	50.0	2.5	/experiments/knapen_aot/videos/R_S_yt-BqJHT4K7Qf8_127.mp4	0.0	240.43643307685852	0.5094330310821533
52	164.44929599761963	response	0	2		50.0	2.5	/experiments/knapen_aot/videos/R_S_yt-BqJHT4K7Qf8_127.mp4	0.0	240.93676495552063	
52	164.45839715003967	movie	1		301.0	50.0	2.5	/experiments/knapen_aot/videos/R_S_yt-BqJHT4K7Qf8_127.mp4	0.0	240.94586610794067	2.507222890853882
52	166.96562004089355	fix_post	2		12.0	50.0	2.5	/experiments/knapen_aot/videos/R_S_yt-BqJHT4K7Qf8_127.mp4	0.0	243.45308899879456	0.10002899169921875
53	167.06564903259277	fix_pre	0		49.0	51.0	2.5	/experiments/knapen_aot/videos/R_S_yt-7W50lcw5FCo_37.mp4	0.0	243.55311799049377	0.408344030380249
53	167.46573400497437	response	0	2		51.0	2.5	/experiments/knapen_aot/videos/R_S_yt-7W50lcw5FCo_37.mp4	0.0	243.95320296287537	
53	167.47399306297302	movie	1		299.0	51.0	2.5	/experiments/knapen_aot/videos/R_S_yt-7W50lcw5FCo_37.mp4	0.0	243.96146202087402	2.5083348751068115
53	169.98232793807983	fix_post	2		12.0	51.0	2.5	/experiments/knapen_aot/videos/R_S_yt-7W50lcw5FCo_37.mp4	0.0	246.46979689598083	0.09994316101074219
54	170.08227109909058	fix_pre	0		41.0	52.0	2.5	/experiments/knapen_aot/videos/R_S_ILSVRC2015_train_00473001.mp4	0.0	246.56974005699158	0.3417229652404785
54	170.4157841205597	response	0	2		52.0	2.5	/experiments/knapen_aot/videos/R_S_ILSVRC2015_train_00473001.mp4	0.0	246.9032530784607	
54	170.42399406433105	movie	1		301.0	52.0	2.5	/experiments/knapen_aot/videos/R_S_ILSVRC2015_train_00473001.mp4	0.0	246.91146302223206	2.5083799362182617
54	172.93237400054932	fix_post	2		12.0	52.0	2.5	/experiments/knapen_aot/videos/R_S_ILSVRC2015_train_00473001.mp4	0.0	249.41984295845032	0.09986209869384766
55	173.03223609924316	fix_pre	0		180.0	53.0	2.5	/experiments/knapen_aot/videos/S_yt--cAfxH1WnPo_3.mp4	0.0	249.51970505714417	1.5000410079956055
55	174.5240831375122	response	0	2		53.0	2.5	/experiments/knapen_aot/videos/S_yt--cAfxH1WnPo_3.mp4	0.0	251.0115520954132	
55	174.53227710723877	movie	1		301.0	53.0	2.5	/experiments/knapen_aot/videos/S_yt--cAfxH1WnPo_3.mp4	0.0	251.01974606513977	2.5083389282226562
55	177.04061603546143	fix_post	2		12.0	53.0	2.5	/experiments/knapen_aot/videos/S_yt--cAfxH1WnPo_3.mp4	0.0	253.52808499336243	0.1000359058380127
56	177.14065194129944	fix_pre	0		217.0	54.0	2.5	/experiments/knapen_aot/videos/R_S_yt-qjg6kRxNXK8_217.mp4	0.0	253.62812089920044	1.808239221572876
56	178.9407160282135	response	0	2		54.0	2.5	/experiments/knapen_aot/videos/R_S_yt-qjg6kRxNXK8_217.mp4	0.0	255.4281849861145	
56	178.94889116287231	movie	1		298.0	54.0	2.5	/experiments/knapen_aot/videos/R_S_yt-qjg6kRxNXK8_217.mp4	0.0	255.43636012077332	2.50834584236145
56	181.45723700523376	fix_post	2		12.0	54.0	2.5	/experiments/knapen_aot/videos/R_S_yt-qjg6kRxNXK8_217.mp4	0.0	257.94470596313477	0.10003495216369629
57	181.55727195739746	fix_pre	0		83.0	55.0	2.5	blank	1.0	258.04474091529846	0.6916091442108154
57	182.2406771183014	response	0	2		55.0	2.5	blank	1.0	258.7281460762024	
57	182.24888110160828	movie	1		301.0	55.0	2.5	blank	1.0	258.7363500595093	2.508375883102417
57	184.7572569847107	fix_post	2		12.0	55.0	2.5	blank	1.0	261.2447259426117	0.10006499290466309
58	184.85732197761536	fix_pre	0		61.0	56.0	2.5	/experiments/knapen_aot/videos/R_S_yt-osz-TXlRdXs_2.mp4	0.0	261.34479093551636	0.508234977722168
58	185.3572919368744	response	0	2		56.0	2.5	/experiments/knapen_aot/videos/R_S_yt-osz-TXlRdXs_2.mp4	0.0	261.8447608947754	
58	185.36555695533752	movie	1		301.0	56.0	2.5	/experiments/knapen_aot/videos/R_S_yt-osz-TXlRdXs_2.mp4	0.0	261.8530259132385	2.508329153060913
58	187.87388610839844	fix_post	2		12.0	56.0	2.5	/experiments/knapen_aot/videos/R_S_yt-osz-TXlRdXs_2.mp4	0.0	264.36135506629944	0.09994196891784668
59	187.97382807731628	fix_pre	0		33.0	57.0	2.5	/experiments/knapen_aot/videos/R_S_ILSVRC2015_train_00373000.mp4	0.0	264.4612970352173	0.27596497535705566
59	188.24071502685547	response	0	2		57.0	2.5	/experiments/knapen_aot/videos/R_S_ILSVRC2015_train_00373000.mp4	0.0	264.72818398475647	
59	188.24979305267334	movie	1		301.0	57.0	2.5	/experiments/knapen_aot/videos/R_S_ILSVRC2015_train_00373000.mp4	0.0	264.73726201057434	2.507354974746704
59	190.75714802742004	fix_post	2		12.0	57.0	2.5	/experiments/knapen_aot/videos/R_S_ILSVRC2015_train_00373000.mp4	0.0	267.24461698532104	0.1000831127166748
60	190.85723114013672	fix_pre	0		68.0	58.0	2.5	/experiments/knapen_aot/videos/R_S_yt-r7PeFd-hIp0_378.mp4	0.0	267.3447000980377	0.5666539669036865
60	191.41560697555542	response	0	2		58.0	2.5	/experiments/knapen_aot/videos/R_S_yt-r7PeFd-hIp0_378.mp4	0.0	267.9030759334564	
60	191.4238851070404	movie	1		301.0	58.0	2.5	/experiments/knapen_aot/videos/R_S_yt-r7PeFd-hIp0_378.mp4	0.0	267.9113540649414	2.50833797454834
60	193.93222308158875	fix_post	2		12.0	58.0	2.5	/experiments/knapen_aot/videos/R_S_yt-r7PeFd-hIp0_378.mp4	0.0	270.41969203948975	0.10001993179321289
61	194.03224301338196	fix_pre	0		54.0	59.0	2.5	/experiments/knapen_aot/videos/S_yt-4-u4Fw_J_q8_45.mp4	0.0	270.51971197128296	0.4499170780181885
61	194.4664580821991	response	0	2		59.0	2.5	/experiments/knapen_aot/videos/S_yt-4-u4Fw_J_q8_45.mp4	0.0	270.9539270401001	
61	194.48216009140015	movie	1		301.0	59.0	2.5	/experiments/knapen_aot/videos/S_yt-4-u4Fw_J_q8_45.mp4	0.0	270.96962904930115	2.5083649158477783
61	196.99052500724792	fix_post	2		12.0	59.0	2.5	/experiments/knapen_aot/videos/S_yt-4-u4Fw_J_q8_45.mp4	0.0	273.4779939651489	0.10001707077026367
62	197.0905420780182	fix_pre	0		99.0	60.0	2.5	/experiments/knapen_aot/videos/S_production_ID_4101244.mp4	0.0	273.5780110359192	0.8258979320526123
62	197.90732312202454	response	0	2		60.0	2.5	/experiments/knapen_aot/videos/S_production_ID_4101244.mp4	0.0	274.39479207992554	
62	197.9164400100708	movie	1		180.0	60.0	2.5	/experiments/knapen_aot/videos/S_production_ID_4101244.mp4	0.0	274.4039089679718	2.507465124130249
62	200.42390513420105	fix_post	2		12.0	60.0	2.5	/experiments/knapen_aot/videos/S_production_ID_4101244.mp4	0.0	276.91137409210205	0.09993481636047363
63	200.52383995056152	fix_pre	0		36.0	61.0	2.5	blank	1.0	277.0113089084625	0.2999610900878906
63	200.81569695472717	response	0	2		61.0	2.5	blank	1.0	277.3031659126282	
63	200.8238010406494	movie	1		301.0	61.0	2.5	blank	1.0	277.3112699985504	2.508359909057617
63	203.33216094970703	fix_post	2		12.0	61.0	2.5	blank	1.0	279.81962990760803	0.10004520416259766
64	203.43220615386963	fix_pre	0		59.0	62.0	2.5	/experiments/knapen_aot/videos/R_S_yt-pO5SVq-9EhU_114.mp4	0.0	279.91967511177063	0.49163198471069336
64	203.9156050682068	response	0	2		62.0	2.5	/experiments/knapen_aot/videos/R_S_yt-pO5SVq-9EhU_114.mp4	0.0	280.4030740261078	
64	203.92383813858032	movie	1		301.0	62.0	2.5	/experiments/knapen_aot/videos/R_S_yt-pO5SVq-9EhU_114.mp4	0.0	280.4113070964813	2.508296012878418
64	206.43213415145874	fix_post	2		12.0	62.0	2.5	/experiments/knapen_aot/videos/R_S_yt-pO5SVq-9EhU_114.mp4	0.0	282.91960310935974	0.0999457836151123
65	206.53207993507385	fix_pre	0		92.0	63.0	2.5	/experiments/knapen_aot/videos/R_S_yt--I4Ggi6-QOE_23.mp4	0.0	283.01954889297485	0.7667250633239746
65	207.29066395759583	response	0	2		63.0	2.5	/experiments/knapen_aot/videos/R_S_yt--I4Ggi6-QOE_23.mp4	0.0	283.7781329154968	
65	207.29880499839783	movie	1		298.0	63.0	2.5	/experiments/knapen_aot/videos/R_S_yt--I4Ggi6-QOE_23.mp4	0.0	283.7862739562988	2.508397102355957
65	209.80720210075378	fix_post	2		12.0	63.0	2.5	/experiments/knapen_aot/videos/R_S_yt--I4Ggi6-QOE_23.mp4	0.0	286.2946710586548	0.09994196891784668
66	209.90714406967163	fix_pre	0		51.0	64.0	2.5	/experiments/knapen_aot/videos/R_S_yt-aqrdb6BiFx4_12.mp4	0.0	286.39461302757263	0.4258239269256592
66	210.32389497756958	response	0	2		64.0	2.5	/experiments/knapen_aot/videos/R_S_yt-aqrdb6BiFx4_12.mp4	0.0	286.8113639354706	
66	210.3329679965973	movie	1		301.0	64.0	2.5	/experiments/knapen_aot/videos/R_S_yt-aqrdb6BiFx4_12.mp4	0.0	286.8204369544983	2.50748610496521
66	212.8404541015625	fix_post	2		12.0	64.0	2.5	/experiments/knapen_aot/videos/R_S_yt-aqrdb6BiFx4_12.mp4	0.0	289.3279230594635	0.10006284713745117
67	212.94051694869995	fix_pre	0		65.0	65.0	2.5	/experiments/knapen_aot/videos/R_S_ILSVRC2015_train_00756000.mp4	0.0	289.42798590660095	0.541607141494751
67	213.46650004386902	response	0	2		65.0	2.5	/experiments/knapen_aot/videos/R_S_ILSVRC2015_train_00756000.mp4	0.0	289.95396900177	
67	213.4821240901947	movie	1		301.0	65.0	2.5	/experiments/knapen_aot/videos/R_S_ILSVRC2015_train_00756000.mp4	0.0	289.9695930480957	2.5083210468292236
67	215.99044513702393	fix_post	2		12.0	65.0	2.5	/experiments/knapen_aot/videos/R_S_ILSVRC2015_train_00756000.mp4	0.0	292.4779140949249	0.09996199607849121
68	216.09040713310242	fix_pre	0		52.0	66.0	2.5	/experiments/knapen_aot/videos/R_S_yt-fnE8kgUHUMI_64.mp4	0.0	292.5778760910034	0.4333360195159912
68	216.51543998718262	response	0	2		66.0	2.5	/experiments/knapen_aot/videos/R_S_yt-fnE8kgUHUMI_64.mp4	0.0	293.0029089450836	
68	216.5237431526184	movie	1		300.0	66.0	2.5	/experiments/knapen_aot/videos/R_S_yt-fnE8kgUHUMI_64.mp4	0.0	293.0112121105194	2.50832200050354
68	219.03206515312195	fix_post	2		12.0	66.0	2.5	/experiments/knapen_aot/videos/R_S_yt-fnE8kgUHUMI_64.mp4	0.0	295.51953411102295	0.10004091262817383
69	219.13210606575012	fix_pre	0		78.0	67.0	2.5	/experiments/knapen_aot/videos/R_S_ILSVRC2015_train_00404004.mp4	0.0	295.6195750236511	0.6499519348144531
69	219.77388405799866	response	0	2		67.0	2.5	/experiments/knapen_aot/videos/R_S_ILSVRC2015_train_00404004.mp4	0.0	296.26135301589966	
69	219.78205800056458	movie	1		301.0	67.0	2.5	/experiments/knapen_aot/videos/R_S_ILSVRC2015_train_00404004.mp4	0.0	296.2695269584656	2.5083560943603516
69	222.29041409492493	fix_post	2		12.0	67.0	2.5	/experiments/knapen_aot/videos/R_S_ILSVRC2015_train_00404004.mp4	0.0	298.7778830528259	0.10003089904785156
70	222.39044499397278	fix_pre	0		246.0	68.0	2.5	/experiments/knapen_aot/videos/S_yt-7K5X1G7Cpls_965.mp4	0.0	298.8779139518738	2.049942970275879
70	224.4321711063385	response	0	2		68.0	2.5	/experiments/knapen_aot/videos/S_yt-7K5X1G7Cpls_965.mp4	0.0	300.9196400642395	
70	224.44038796424866	movie	1		297.0	68.0	2.5	/experiments/knapen_aot/videos/S_yt-7K5X1G7Cpls_965.mp4	0.0	300.92785692214966	2.5083119869232178
70	226.94869995117188	fix_post	2		12.0	68.0	2.5	/experiments/knapen_aot/videos/S_yt-7K5X1G7Cpls_965.mp4	0.0	303.4361689090729	0.10004401206970215
71	227.04874396324158	fix_pre	0		44.0	69.0	2.5	/experiments/knapen_aot/videos/R_S_video_inspire_california_big-sur_2020_00001.1080-h264.mp4	0.0	303.5362129211426	0.3674001693725586
71	227.40717816352844	response	0	2		69.0	2.5	/experiments/knapen_aot/videos/R_S_video_inspire_california_big-sur_2020_00001.1080-h264.mp4	0.0	303.89464712142944	
71	227.41614413261414	movie	1		175.0	69.0	2.5	/experiments/knapen_aot/videos/R_S_video_inspire_california_big-sur_2020_00001.1080-h264.mp4	0.0	303.90361309051514	2.507589817047119
71	229.92373394966125	fix_post	2		12.0	69.0	2.5	/experiments/knapen_aot/videos/R_S_video_inspire_california_big-sur_2020_00001.1080-h264.mp4	0.0	306.41120290756226	0.09988999366760254
72	230.02362394332886	fix_pre	0		131.0	70.0	2.5	blank	1.0	306.51109290122986	1.0917870998382568
72	231.1071970462799	response	0	2		70.0	2.5	blank	1.0	307.5946660041809	
72	231.11541104316711	movie	1		301.0	70.0	2.5	blank	1.0	307.6028800010681	2.5082828998565674
72	233.62369394302368	fix_post	2		12.0	70.0	2.5	blank	1.0	310.1111629009247	0.1000831127166748
73	233.72377705574036	fix_pre	0		309.0	71.0	2.5	/experiments/knapen_aot/videos/R_S_ILSVRC2015_train_00087003.mp4	0.0	310.21124601364136	2.574887990951538
73	236.29038310050964	response	0	2		71.0	2.5	/experiments/knapen_aot/videos/R_S_ILSVRC2015_train_00087003.mp4	0.0	312.77785205841064	
73	236.2986650466919	movie	1		301.0	71.0	2.5	/experiments/knapen_aot/videos/R_S_ILSVRC2015_train_00087003.mp4	0.0	312.7861340045929	2.5083529949188232
73	238.80701804161072	fix_post	2		12.0	71.0	2.5	/experiments/knapen_aot/videos/R_S_ILSVRC2015_train_00087003.mp4	0.0	315.2944869995117	0.09999489784240723
74	238.90701293945312	fix_pre	0		45.0	72.0	2.5	/experiments/knapen_aot/videos/R_S_comp_CH_C007_C011_PSNK_v02_SDR_PS_FINAL_20180709_SDR_2K_AVC.mp4	0.0	315.3944818973541	0.37499308586120605
74	239.27382493019104	response	0	2		72.0	2.5	/experiments/knapen_aot/videos/R_S_comp_CH_C007_C011_PSNK_v02_SDR_PS_FINAL_20180709_SDR_2K_AVC.mp4	0.0	315.76129388809204	
74	239.28200602531433	movie	1		175.0	72.0	2.5	/experiments/knapen_aot/videos/R_S_comp_CH_C007_C011_PSNK_v02_SDR_PS_FINAL_20180709_SDR_2K_AVC.mp4	0.0	315.76947498321533	2.5082709789276123
74	241.79027700424194	fix_post	2		12.0	72.0	2.5	/experiments/knapen_aot/videos/R_S_comp_CH_C007_C011_PSNK_v02_SDR_PS_FINAL_20180709_SDR_2K_AVC.mp4	0.0	318.27774596214294	0.10006904602050781
75	241.89034605026245	fix_pre	0		59.0	73.0	2.5	/experiments/knapen_aot/videos/R_S_yt-Id-f63kUHsE_20.mp4	0.0	318.37781500816345	0.4916560649871826
75	242.37382411956787	response	0	2		73.0	2.5	/experiments/knapen_aot/videos/R_S_yt-Id-f63kUHsE_20.mp4	0.0	318.8612930774689	
75	242.38200211524963	movie	1		301.0	73.0	2.5	/experiments/knapen_aot/videos/R_S_yt-Id-f63kUHsE_20.mp4	0.0	318.86947107315063	2.5083398818969727
75	244.8903419971466	fix_post	2		12.0	73.0	2.5	/experiments/knapen_aot/videos/R_S_yt-Id-f63kUHsE_20.mp4	0.0	321.3778109550476	0.09999895095825195
76	244.99034094810486	fix_pre	0		88.0	74.0	2.5	/experiments/knapen_aot/videos/S_yt-fnE8kgUHUMI_64.mp4	0.0	321.47780990600586	0.7334010601043701
76	245.70798707008362	response	0	2		74.0	2.5	/experiments/knapen_aot/videos/S_yt-fnE8kgUHUMI_64.mp4	0.0	322.1954560279846	
76	245.72374200820923	movie	1		301.0	74.0	2.5	/experiments/knapen_aot/videos/S_yt-fnE8kgUHUMI_64.mp4	0.0	322.21121096611023	2.508263111114502
76	248.23200511932373	fix_post	2		12.0	74.0	2.5	/experiments/knapen_aot/videos/S_yt-fnE8kgUHUMI_64.mp4	0.0	324.71947407722473	0.09994292259216309
77	248.3319480419159	fix_pre	0		84.0	75.0	2.5	blank	1.0	324.8194169998169	0.7000589370727539
77	249.02378010749817	response	0	2		75.0	2.5	blank	1.0	325.51124906539917	
77	249.03200697898865	movie	1		301.0	75.0	2.5	blank	1.0	325.51947593688965	2.5082170963287354
77	251.54022407531738	fix_post	2		12.0	75.0	2.5	blank	1.0	328.0276930332184	0.10008001327514648
78	251.64030408859253	fix_pre	0		38.0	76.0	2.5	/experiments/knapen_aot/videos/R_S_yt-7K5X1G7Cpls_965.mp4	0.0	328.12777304649353	0.31725096702575684
78	251.94870495796204	response	0	2		76.0	2.5	/experiments/knapen_aot/videos/R_S_yt-7K5X1G7Cpls_965.mp4	0.0	328.43617391586304	
78	251.9575550556183	movie	1		298.0	76.0	2.5	/experiments/knapen_aot/videos/R_S_yt-7K5X1G7Cpls_965.mp4	0.0	328.4450240135193	2.507736921310425
78	254.4652919769287	fix_post	2		12.0	76.0	2.5	/experiments/knapen_aot/videos/R_S_yt-7K5X1G7Cpls_965.mp4	0.0	330.9527609348297	0.10002708435058594
79	254.5653190612793	fix_pre	0		110.0	77.0	2.5	/experiments/knapen_aot/videos/S_ILSVRC2015_train_00405001.mp4	0.0	331.0527880191803	0.9166679382324219
79	255.47393608093262	response	0	2		77.0	2.5	/experiments/knapen_aot/videos/S_ILSVRC2015_train_00405001.mp4	0.0	331.9614050388336	
79	255.48198699951172	movie	1		301.0	77.0	2.5	/experiments/knapen_aot/videos/S_ILSVRC2015_train_00405001.mp4	0.0	331.9694559574127	2.508352041244507
79	257.9903390407562	fix_post	2		12.0	77.0	2.5	/experiments/knapen_aot/videos/S_ILSVRC2015_train_00405001.mp4	0.0	334.4778079986572	0.09998106956481934
80	258.09032011032104	fix_pre	0		159.0	78.0	2.5	/experiments/knapen_aot/videos/S_yt-gDZnJCR2uXI_18.mp4	0.0	334.57778906822205	1.32548189163208
80	259.39946007728577	response	0	2		78.0	2.5	/experiments/knapen_aot/videos/S_yt-gDZnJCR2uXI_18.mp4	0.0	335.88692903518677	
80	259.4158020019531	movie	1		301.0	78.0	2.5	/experiments/knapen_aot/videos/S_yt-gDZnJCR2uXI_18.mp4	0.0	335.9032709598541	2.5079541206359863
80	261.9237561225891	fix_post	2		12.0	78.0	2.5	/experiments/knapen_aot/videos/S_yt-gDZnJCR2uXI_18.mp4	0.0	338.4112250804901	0.09985899925231934
81	262.02361512184143	fix_pre	0		87.0	79.0	2.5	/experiments/knapen_aot/videos/R_S_yt-2cwARrUMj40_67.mp4	0.0	338.51108407974243	0.7254908084869385
81	262.74042797088623	response	0	2		79.0	2.5	/experiments/knapen_aot/videos/R_S_yt-2cwARrUMj40_67.mp4	0.0	339.22789692878723	
81	262.74910593032837	movie	1		298.0	79.0	2.5	/experiments/knapen_aot/videos/R_S_yt-2cwARrUMj40_67.mp4	0.0	339.23657488822937	2.5077621936798096
81	265.2568681240082	fix_post	2		12.0	79.0	2.5	/experiments/knapen_aot/videos/R_S_yt-2cwARrUMj40_67.mp4	0.0	341.7443370819092	0.10001397132873535
82	265.3568820953369	fix_pre	0		32.0	80.0	2.5	/experiments/knapen_aot/videos/S_yt-26obL-Z5obg_131.mp4	0.0	341.8443510532379	0.2671849727630615
82	265.61532616615295	response	0	2		80.0	2.5	/experiments/knapen_aot/videos/S_yt-26obL-Z5obg_131.mp4	0.0	342.10279512405396	
82	265.6240670681	movie	1		301.0	80.0	2.5	/experiments/knapen_aot/videos/S_yt-26obL-Z5obg_131.mp4	0.0	342.111536026001	2.5078670978546143
82	268.1319341659546	fix_post	2		12.0	80.0	2.5	/experiments/knapen_aot/videos/S_yt-26obL-Z5obg_131.mp4	0.0	344.6194031238556	0.09999585151672363
83	268.2319300174713	fix_pre	0		168.0	81.0	2.5	/experiments/knapen_aot/videos/S_yt-fk-z6WCvjjA_3.mp4	0.0	344.7193989753723	1.3999459743499756
83	269.62375116348267	response	0	2		81.0	2.5	/experiments/knapen_aot/videos/S_yt-fk-z6WCvjjA_3.mp4	0.0	346.11122012138367	
83	269.6318759918213	movie	1		300.0	81.0	2.5	/experiments/knapen_aot/videos/S_yt-fk-z6WCvjjA_3.mp4	0.0	346.1193449497223	2.5084750652313232
83	272.1403510570526	fix_post	2		12.0	81.0	2.5	/experiments/knapen_aot/videos/S_yt-fk-z6WCvjjA_3.mp4	0.0	348.6278200149536	0.09990191459655762
84	272.24025297164917	fix_pre	0		47.0	82.0	2.5	blank	1.0	348.72772192955017	0.3916940689086914
84	272.62371611595154	response	0	2		82.0	2.5	blank	1.0	349.11118507385254	
84	272.63194704055786	movie	1		301.0	82.0	2.5	blank	1.0	349.11941599845886	2.508310079574585
84	275.14025712013245	fix_post	2		12.0	82.0	2.5	blank	1.0	351.62772607803345	0.09999203681945801
85	275.2402491569519	fix_pre	0		33.0	83.0	2.5	/experiments/knapen_aot/videos/R_S_ILSVRC2015_train_00087003.mp4	0.0	351.7277181148529	0.2749819755554199
85	275.507061958313	response	0	2		83.0	2.5	/experiments/knapen_aot/videos/R_S_ILSVRC2015_train_00087003.mp4	0.0	351.994530916214	
85	275.5152311325073	movie	1		299.0	83.0	2.5	/experiments/knapen_aot/videos/R_S_ILSVRC2015_train_00087003.mp4	0.0	352.0027000904083	2.508279800415039
85	278.02351093292236	fix_post	2		12.0	83.0	2.5	/experiments/knapen_aot/videos/R_S_ILSVRC2015_train_00087003.mp4	0.0	354.51097989082336	0.10051321983337402
87	278.12402415275574	stim	0		179.0					354.61149311065674	1.4930508136749268
87	279.6088559627533	response	0	space						356.0963249206543	
