trial_nr	onset	event_type	phase	response	nr_frames	movie_index	movie_duration	movie_file	blank	onset_abs	duration
0	0.12695097923278809	stim	0		48.0					51.22884702682495	0.3980138301849365
0	0.516772985458374	response	0	space						51.61866903305054	
1	0.5249648094177246	stim	0		121.0					51.62686085700989	1.00797700881958
1	1.5329418182373047	stim	1		120.0					52.63483786582947	0.999981164932251
1	2.0005228519439697	response	1	space						53.10241889953613	
2	2.5329229831695557	fix_pre	0		51.0	0.0	2.5	/experiments/knapen_aot/videos/S_yt-kuzdrmHa-W0_39.mp4	0.0	53.63481903076172	0.4249739646911621
2	2.9497649669647217	response	0	space		0.0	2.5	/experiments/knapen_aot/videos/S_yt-kuzdrmHa-W0_39.mp4	0.0	54.051661014556885	
2	2.9578969478607178	movie	1		301.0	0.0	2.5	/experiments/knapen_aot/videos/S_yt-kuzdrmHa-W0_39.mp4	0.0	54.05979299545288	2.5084848403930664
2	5.466381788253784	fix_post	2		12.0	0.0	2.5	/experiments/knapen_aot/videos/S_yt-kuzdrmHa-W0_39.mp4	0.0	56.56827783584595	0.09988713264465332
3	5.5662689208984375	fix_pre	0		244.0	1.0	2.5	/experiments/knapen_aot/videos/S_yt-uXDyvrm0Tw0_17.mp4	0.0	56.6681649684906	2.033302068710327
3	7.594247817993164	response	0	2		1.0	2.5	/experiments/knapen_aot/videos/S_yt-uXDyvrm0Tw0_17.mp4	0.0	58.69614386558533	
3	7.599570989608765	movie	1		299.0	1.0	2.5	/experiments/knapen_aot/videos/S_yt-uXDyvrm0Tw0_17.mp4	0.0	58.70146703720093	2.5083019733428955
3	10.10787296295166	fix_post	2		12.0	1.0	2.5	/experiments/knapen_aot/videos/S_yt-uXDyvrm0Tw0_17.mp4	0.0	61.20976901054382	0.10002493858337402
4	10.207897901535034	fix_pre	0		85.0	2.0	2.5	/experiments/knapen_aot/videos/S_yt--jzScB82vKI_212.mp4	0.0	61.3097939491272	0.7082550525665283
4	10.908033847808838	response	0	2		2.0	2.5	/experiments/knapen_aot/videos/S_yt--jzScB82vKI_212.mp4	0.0	62.009929895401	
4	10.916152954101562	movie	1		298.0	2.0	2.5	/experiments/knapen_aot/videos/S_yt--jzScB82vKI_212.mp4	0.0	62.018049001693726	2.508342981338501
4	13.424495935440063	fix_post	2		12.0	2.0	2.5	/experiments/knapen_aot/videos/S_yt--jzScB82vKI_212.mp4	0.0	64.52639198303223	0.1000819206237793
5	13.524577856063843	fix_pre	0		68.0	3.0	2.5	/experiments/knapen_aot/videos/R_S_yt-8gCfc-o3pyk_85.mp4	0.0	64.626473903656	0.5672430992126465
5	14.082962989807129	response	0	2		3.0	2.5	/experiments/knapen_aot/videos/R_S_yt-8gCfc-o3pyk_85.mp4	0.0	65.18485903739929	
5	14.09182095527649	movie	1		301.0	3.0	2.5	/experiments/knapen_aot/videos/R_S_yt-8gCfc-o3pyk_85.mp4	0.0	65.19371700286865	2.507765054702759
5	16.599586009979248	fix_post	2		12.0	3.0	2.5	/experiments/knapen_aot/videos/R_S_yt-8gCfc-o3pyk_85.mp4	0.0	67.70148205757141	0.09994697570800781
6	16.699532985687256	fix_pre	0		41.0	4.0	2.5	/experiments/knapen_aot/videos/R_S_flickr-seattlemcneals-996953_3.mp4	0.0	67.80142903327942	0.34166693687438965
6	17.03290891647339	response	0	2		4.0	2.5	/experiments/knapen_aot/videos/R_S_flickr-seattlemcneals-996953_3.mp4	0.0	68.13480496406555	
6	17.041199922561646	movie	1		301.0	4.0	2.5	/experiments/knapen_aot/videos/R_S_flickr-seattlemcneals-996953_3.mp4	0.0	68.14309597015381	2.508284091949463
6	19.54948401451111	fix_post	2		12.0	4.0	2.5	/experiments/knapen_aot/videos/R_S_flickr-seattlemcneals-996953_3.mp4	0.0	70.65138006210327	0.10009288787841797
7	19.649576902389526	fix_pre	0		34.0	5.0	2.5	blank	1.0	70.75147294998169	0.2832529544830322
7	19.92469596862793	response	0	2		5.0	2.5	blank	1.0	71.02659201622009	
7	19.93282985687256	movie	1		301.0	5.0	2.5	blank	1.0	71.03472590446472	2.508341073989868
7	22.441170930862427	fix_post	2		12.0	5.0	2.5	blank	1.0	73.54306697845459	0.09999608993530273
8	22.54116702079773	fix_pre	0		55.0	6.0	2.5	/experiments/knapen_aot/videos/R_S_yt-tQ-hgwTcMqU_43.mp4	0.0	73.64306306838989	0.4582939147949219
8	22.991318941116333	response	0	2		6.0	2.5	/experiments/knapen_aot/videos/R_S_yt-tQ-hgwTcMqU_43.mp4	0.0	74.0932149887085	
8	22.99946093559265	movie	1		301.0	6.0	2.5	/experiments/knapen_aot/videos/R_S_yt-tQ-hgwTcMqU_43.mp4	0.0	74.10135698318481	2.5084168910980225
8	25.507877826690674	fix_post	2		12.0	6.0	2.5	/experiments/knapen_aot/videos/R_S_yt-tQ-hgwTcMqU_43.mp4	0.0	76.60977387428284	0.09995913505554199
9	25.607836961746216	fix_pre	0		56.0	7.0	2.5	/experiments/knapen_aot/videos/S_yt-JDHApyT5ngs_128.mp4	0.0	76.70973300933838	0.466627836227417
9	26.06625199317932	response	0	2		7.0	2.5	/experiments/knapen_aot/videos/S_yt-JDHApyT5ngs_128.mp4	0.0	77.16814804077148	
9	26.074464797973633	movie	1		301.0	7.0	2.5	/experiments/knapen_aot/videos/S_yt-JDHApyT5ngs_128.mp4	0.0	77.1763608455658	2.508540153503418
9	28.58300495147705	fix_post	2		12.0	7.0	2.5	/experiments/knapen_aot/videos/S_yt-JDHApyT5ngs_128.mp4	0.0	79.68490099906921	0.09986305236816406
10	28.682868003845215	fix_pre	0		52.0	8.0	2.5	/experiments/knapen_aot/videos/R_S_yt-LYnwnfi1JJ4_120.mp4	0.0	79.78476405143738	0.4332418441772461
10	29.1078999042511	response	0	2		8.0	2.5	/experiments/knapen_aot/videos/R_S_yt-LYnwnfi1JJ4_120.mp4	0.0	80.20979595184326	
10	29.11610984802246	movie	1		301.0	8.0	2.5	/experiments/knapen_aot/videos/R_S_yt-LYnwnfi1JJ4_120.mp4	0.0	80.21800589561462	2.5083630084991455
10	31.624472856521606	fix_post	2		12.0	8.0	2.5	/experiments/knapen_aot/videos/R_S_yt-LYnwnfi1JJ4_120.mp4	0.0	82.72636890411377	0.10007905960083008
11	31.724551916122437	fix_pre	0		41.0	9.0	2.5	/experiments/knapen_aot/videos/S_yt-yPl8LcgSMjo_32.mp4	0.0	82.8264479637146	0.34157705307006836
11	32.057915925979614	response	0	2		9.0	2.5	/experiments/knapen_aot/videos/S_yt-yPl8LcgSMjo_32.mp4	0.0	83.15981197357178	
11	32.066128969192505	movie	1		301.0	9.0	2.5	/experiments/knapen_aot/videos/S_yt-yPl8LcgSMjo_32.mp4	0.0	83.16802501678467	2.508314847946167
11	34.57444381713867	fix_post	2		12.0	9.0	2.5	/experiments/knapen_aot/videos/S_yt-yPl8LcgSMjo_32.mp4	0.0	85.67633986473083	0.10000109672546387
12	34.674444913864136	fix_pre	0		35.0	10.0	2.5	/experiments/knapen_aot/videos/R_S_yt-3EZOeAbiMQE_10.mp4	0.0	85.7763409614563	0.29218101501464844
12	34.95793795585632	response	0	2		10.0	2.5	/experiments/knapen_aot/videos/R_S_yt-3EZOeAbiMQE_10.mp4	0.0	86.05983400344849	
12	34.966625928878784	movie	1		301.0	10.0	2.5	/experiments/knapen_aot/videos/R_S_yt-3EZOeAbiMQE_10.mp4	0.0	86.06852197647095	2.5079219341278076
12	37.47454786300659	fix_post	2		12.0	10.0	2.5	/experiments/knapen_aot/videos/R_S_yt-3EZOeAbiMQE_10.mp4	0.0	88.57644391059875	0.0999300479888916
13	37.57447791099548	fix_pre	0		58.0	11.0	2.5	/experiments/knapen_aot/videos/S_wc-eJe3wXMgTLRV_20.mp4	0.0	88.67637395858765	0.48332905769348145
13	38.04956579208374	response	0	2		11.0	2.5	/experiments/knapen_aot/videos/S_wc-eJe3wXMgTLRV_20.mp4	0.0	89.1514618396759	
13	38.057806968688965	movie	1		160.0	11.0	2.5	/experiments/knapen_aot/videos/S_wc-eJe3wXMgTLRV_20.mp4	0.0	89.15970301628113	2.5083320140838623
13	40.56613898277283	fix_post	2		12.0	11.0	2.5	/experiments/knapen_aot/videos/S_wc-eJe3wXMgTLRV_20.mp4	0.0	91.66803503036499	0.09999895095825195
14	40.66613793373108	fix_pre	0		42.0	12.0	2.5	/experiments/knapen_aot/videos/S_ILSVRC2015_train_00569002.mp4	0.0	91.76803398132324	0.34999704360961914
14	41.007911920547485	response	0	2		12.0	2.5	/experiments/knapen_aot/videos/S_ILSVRC2015_train_00569002.mp4	0.0	92.10980796813965	
14	41.0161349773407	movie	1		301.0	12.0	2.5	/experiments/knapen_aot/videos/S_ILSVRC2015_train_00569002.mp4	0.0	92.11803102493286	2.5082929134368896
14	43.52442789077759	fix_post	2		12.0	12.0	2.5	/experiments/knapen_aot/videos/S_ILSVRC2015_train_00569002.mp4	0.0	94.62632393836975	0.09998607635498047
15	43.62441396713257	fix_pre	0		38.0	13.0	2.5	/experiments/knapen_aot/videos/S_yt-fqbi4rGc9dk_65.mp4	0.0	94.72631001472473	0.3166940212249756
15	43.93290901184082	response	0	2		13.0	2.5	/experiments/knapen_aot/videos/S_yt-fqbi4rGc9dk_65.mp4	0.0	95.03480505943298	
15	43.941107988357544	movie	1		301.0	13.0	2.5	/experiments/knapen_aot/videos/S_yt-fqbi4rGc9dk_65.mp4	0.0	95.0430040359497	2.508275032043457
15	46.449383020401	fix_post	2		12.0	13.0	2.5	/experiments/knapen_aot/videos/S_yt-fqbi4rGc9dk_65.mp4	0.0	97.55127906799316	0.09999585151672363
16	46.549378871917725	fix_pre	0		41.0	14.0	2.5	blank	1.0	97.65127491950989	0.34171295166015625
16	46.882877826690674	response	0	2		14.0	2.5	blank	1.0	97.98477387428284	
16	46.89109182357788	movie	1		301.0	14.0	2.5	blank	1.0	97.99298787117004	2.5083701610565186
16	49.3994619846344	fix_post	2		12.0	14.0	2.5	blank	1.0	100.50135803222656	0.0999748706817627
17	49.49943685531616	fix_pre	0		92.0	15.0	2.5	/experiments/knapen_aot/videos/R_S_flickr-51283549@N02-23064904264_16.mp4	0.0	100.60133290290833	0.766632080078125
17	50.25795102119446	response	0	2		15.0	2.5	/experiments/knapen_aot/videos/R_S_flickr-51283549@N02-23064904264_16.mp4	0.0	101.35984706878662	
17	50.26606893539429	movie	1		163.0	15.0	2.5	/experiments/knapen_aot/videos/R_S_flickr-51283549@N02-23064904264_16.mp4	0.0	101.36796498298645	2.508423089981079
17	52.774492025375366	fix_post	2		12.0	15.0	2.5	/experiments/knapen_aot/videos/R_S_flickr-51283549@N02-23064904264_16.mp4	0.0	103.87638807296753	0.09996199607849121
18	52.87445402145386	fix_pre	0		155.0	16.0	2.5	/experiments/knapen_aot/videos/R_S_yt-SGTgMItFkxY_172.mp4	0.0	103.97635006904602	1.2916359901428223
18	54.15035796165466	response	0	2		16.0	2.5	/experiments/knapen_aot/videos/R_S_yt-SGTgMItFkxY_172.mp4	0.0	105.25225400924683	
18	54.16609001159668	movie	1		301.0	16.0	2.5	/experiments/knapen_aot/videos/R_S_yt-SGTgMItFkxY_172.mp4	0.0	105.26798605918884	2.508342981338501
18	56.67443299293518	fix_post	2		12.0	16.0	2.5	/experiments/knapen_aot/videos/R_S_yt-SGTgMItFkxY_172.mp4	0.0	107.77632904052734	0.09992384910583496
19	56.774356842041016	fix_pre	0		61.0	17.0	2.5	/experiments/knapen_aot/videos/R_S_yt-kuzdrmHa-W0_39.mp4	0.0	107.87625288963318	0.5083880424499512
19	57.27458381652832	response	0	2		17.0	2.5	/experiments/knapen_aot/videos/R_S_yt-kuzdrmHa-W0_39.mp4	0.0	108.37647986412048	
19	57.28274488449097	movie	1		301.0	17.0	2.5	/experiments/knapen_aot/videos/R_S_yt-kuzdrmHa-W0_39.mp4	0.0	108.38464093208313	2.508342981338501
19	59.79108786582947	fix_post	2		12.0	17.0	2.5	/experiments/knapen_aot/videos/R_S_yt-kuzdrmHa-W0_39.mp4	0.0	110.89298391342163	0.09995794296264648
20	59.891045808792114	fix_pre	0		55.0	18.0	2.5	/experiments/knapen_aot/videos/S_pexels-tima-miroshnichenko-6077718.mp4	0.0	110.99294185638428	0.45836400985717773
20	60.34125280380249	response	0	2		18.0	2.5	/experiments/knapen_aot/videos/S_pexels-tima-miroshnichenko-6077718.mp4	0.0	111.44314885139465	
20	60.34940981864929	movie	1		170.0	18.0	2.5	/experiments/knapen_aot/videos/S_pexels-tima-miroshnichenko-6077718.mp4	0.0	111.45130586624146	2.5083611011505127
20	62.857770919799805	fix_post	2		12.0	18.0	2.5	/experiments/knapen_aot/videos/S_pexels-tima-miroshnichenko-6077718.mp4	0.0	113.95966696739197	0.09993100166320801
21	62.95770192146301	fix_pre	0		81.0	19.0	2.5	blank	1.0	114.05959796905518	0.6753430366516113
21	63.62448596954346	response	0	2		19.0	2.5	blank	1.0	114.72638201713562	
21	63.633044958114624	movie	1		301.0	19.0	2.5	blank	1.0	114.73494100570679	2.5079329013824463
21	66.14097785949707	fix_post	2		12.0	19.0	2.5	blank	1.0	117.24287390708923	0.10007810592651367
22	66.24105596542358	fix_pre	0		50.0	20.0	2.5	/experiments/knapen_aot/videos/S_g201_TH_803_A001_8_SDR_20191031_SDR_2K_AVC.mp4	0.0	117.34295201301575	0.41652894020080566
22	66.6494607925415	response	0	2		20.0	2.5	/experiments/knapen_aot/videos/S_g201_TH_803_A001_8_SDR_20191031_SDR_2K_AVC.mp4	0.0	117.75135684013367	
22	66.65758490562439	movie	1		170.0	20.0	2.5	/experiments/knapen_aot/videos/S_g201_TH_803_A001_8_SDR_20191031_SDR_2K_AVC.mp4	0.0	117.75948095321655	2.508441925048828
22	69.16602683067322	fix_post	2		12.0	20.0	2.5	/experiments/knapen_aot/videos/S_g201_TH_803_A001_8_SDR_20191031_SDR_2K_AVC.mp4	0.0	120.26792287826538	0.09997010231018066
23	69.2659969329834	fix_pre	0		64.0	21.0	2.5	/experiments/knapen_aot/videos/S_yt-SGTgMItFkxY_172.mp4	0.0	120.36789298057556	0.5336670875549316
23	69.79114198684692	response	0	2		21.0	2.5	/experiments/knapen_aot/videos/S_yt-SGTgMItFkxY_172.mp4	0.0	120.89303803443909	
23	69.79966402053833	movie	1		301.0	21.0	2.5	/experiments/knapen_aot/videos/S_yt-SGTgMItFkxY_172.mp4	0.0	120.9015600681305	2.5079879760742188
23	72.30765199661255	fix_post	2		12.0	21.0	2.5	/experiments/knapen_aot/videos/S_yt-SGTgMItFkxY_172.mp4	0.0	123.40954804420471	0.09999799728393555
24	72.40764999389648	fix_pre	0		35.0	22.0	2.5	/experiments/knapen_aot/videos/S_wc-TAGpcap1KdAS_212.mp4	0.0	123.50954604148865	0.2916738986968994
24	72.68359184265137	response	0	2		22.0	2.5	/experiments/knapen_aot/videos/S_wc-TAGpcap1KdAS_212.mp4	0.0	123.78548789024353	
24	72.69932389259338	movie	1		300.0	22.0	2.5	/experiments/knapen_aot/videos/S_wc-TAGpcap1KdAS_212.mp4	0.0	123.80121994018555	2.5083539485931396
24	75.20767784118652	fix_post	2		12.0	22.0	2.5	/experiments/knapen_aot/videos/S_wc-TAGpcap1KdAS_212.mp4	0.0	126.30957388877869	0.10001111030578613
25	75.30768895149231	fix_pre	0		40.0	23.0	2.5	/experiments/knapen_aot/videos/S_yt-p0buJEEKeuI_61.mp4	0.0	126.40958499908447	0.33325791358947754
25	75.62525200843811	response	0	2		23.0	2.5	/experiments/knapen_aot/videos/S_yt-p0buJEEKeuI_61.mp4	0.0	126.72714805603027	
25	75.64094686508179	movie	1		301.0	23.0	2.5	/experiments/knapen_aot/videos/S_yt-p0buJEEKeuI_61.mp4	0.0	126.74284291267395	2.5083329677581787
25	78.14927983283997	fix_post	2		12.0	23.0	2.5	/experiments/knapen_aot/videos/S_yt-p0buJEEKeuI_61.mp4	0.0	129.25117588043213	0.10004305839538574
26	78.24932289123535	fix_pre	0		67.0	24.0	2.5	/experiments/knapen_aot/videos/S_yt-l6WPyKg_3is_154.mp4	0.0	129.35121893882751	0.5582189559936523
26	78.79175996780396	response	0	2		24.0	2.5	/experiments/knapen_aot/videos/S_yt-l6WPyKg_3is_154.mp4	0.0	129.89365601539612	
26	78.807541847229	movie	1		300.0	24.0	2.5	/experiments/knapen_aot/videos/S_yt-l6WPyKg_3is_154.mp4	0.0	129.90943789482117	2.5084569454193115
26	81.31599879264832	fix_post	2		12.0	24.0	2.5	/experiments/knapen_aot/videos/S_yt-l6WPyKg_3is_154.mp4	0.0	132.41789484024048	0.10001802444458008
27	81.4160168170929	fix_pre	0		42.0	25.0	2.5	/experiments/knapen_aot/videos/R_S_yt-mdxs8FCKLFc_232.mp4	0.0	132.51791286468506	0.349898099899292
27	81.75019979476929	response	0	2		25.0	2.5	/experiments/knapen_aot/videos/R_S_yt-mdxs8FCKLFc_232.mp4	0.0	132.85209584236145	
27	81.76591491699219	movie	1		301.0	25.0	2.5	/experiments/knapen_aot/videos/R_S_yt-mdxs8FCKLFc_232.mp4	0.0	132.86781096458435	2.508363962173462
27	84.27427887916565	fix_post	2		12.0	25.0	2.5	/experiments/knapen_aot/videos/R_S_yt-mdxs8FCKLFc_232.mp4	0.0	135.3761749267578	0.09997200965881348
28	84.37425088882446	fix_pre	0		62.0	26.0	2.5	blank	1.0	135.47614693641663	0.5166010856628418
28	84.8827338218689	response	0	2		26.0	2.5	blank	1.0	135.98462986946106	
28	84.8908519744873	movie	1		301.0	26.0	2.5	blank	1.0	135.99274802207947	2.508430004119873
28	87.39928197860718	fix_post	2		12.0	26.0	2.5	blank	1.0	138.50117802619934	0.10001492500305176
29	87.49929690361023	fix_pre	0		75.0	27.0	2.5	/experiments/knapen_aot/videos/S_production_ID_4325591.mp4	0.0	138.6011929512024	0.6249959468841553
29	88.10860800743103	response	0	2		27.0	2.5	/experiments/knapen_aot/videos/S_production_ID_4325591.mp4	0.0	139.2105040550232	
29	88.12429285049438	movie	1		197.0	27.0	2.5	/experiments/knapen_aot/videos/S_production_ID_4325591.mp4	0.0	139.22618889808655	2.508202075958252
29	90.63249492645264	fix_post	2		12.0	27.0	2.5	/experiments/knapen_aot/videos/S_production_ID_4325591.mp4	0.0	141.7343909740448	0.10013604164123535
30	90.73263096809387	fix_pre	0		48.0	28.0	2.5	/experiments/knapen_aot/videos/R_S_yt-82O1uT8dmv8_12.mp4	0.0	141.83452701568604	0.4002399444580078
30	91.12434101104736	response	0	2		28.0	2.5	/experiments/knapen_aot/videos/R_S_yt-82O1uT8dmv8_12.mp4	0.0	142.22623705863953	
30	91.13287091255188	movie	1		301.0	28.0	2.5	/experiments/knapen_aot/videos/R_S_yt-82O1uT8dmv8_12.mp4	0.0	142.23476696014404	2.5080530643463135
30	93.6409239768982	fix_post	2		12.0	28.0	2.5	/experiments/knapen_aot/videos/R_S_yt-82O1uT8dmv8_12.mp4	0.0	144.74282002449036	0.10001587867736816
31	93.74093985557556	fix_pre	0		30.0	29.0	2.5	/experiments/knapen_aot/videos/S_yt-P001x88adE4_427.mp4	0.0	144.84283590316772	0.24993896484375
31	93.98269391059875	response	0	2		29.0	2.5	/experiments/knapen_aot/videos/S_yt-P001x88adE4_427.mp4	0.0	145.08458995819092	
31	93.99087882041931	movie	1		301.0	29.0	2.5	/experiments/knapen_aot/videos/S_yt-P001x88adE4_427.mp4	0.0	145.09277486801147	2.5083611011505127
31	96.49923992156982	fix_post	2		12.0	29.0	2.5	/experiments/knapen_aot/videos/S_yt-P001x88adE4_427.mp4	0.0	147.601135969162	0.09999895095825195
32	96.59923887252808	fix_pre	0		38.0	30.0	2.5	/experiments/knapen_aot/videos/S_yt-PyO8-WsbaLU_43.mp4	0.0	147.70113492012024	0.316586971282959
32	96.9077467918396	response	0	2		30.0	2.5	/experiments/knapen_aot/videos/S_yt-PyO8-WsbaLU_43.mp4	0.0	148.00964283943176	
32	96.91582584381104	movie	1		301.0	30.0	2.5	/experiments/knapen_aot/videos/S_yt-PyO8-WsbaLU_43.mp4	0.0	148.0177218914032	2.5085690021514893
32	99.42439484596252	fix_post	2		12.0	30.0	2.5	/experiments/knapen_aot/videos/S_yt-PyO8-WsbaLU_43.mp4	0.0	150.5262908935547	0.09986305236816406
33	99.52425789833069	fix_pre	0		74.0	31.0	2.5	/experiments/knapen_aot/videos/R_S_pexels-rodnae-productions-7467585.mp4	0.0	150.62615394592285	0.6166000366210938
33	100.13283896446228	response	0	2		31.0	2.5	/experiments/knapen_aot/videos/R_S_pexels-rodnae-productions-7467585.mp4	0.0	151.23473501205444	
33	100.14085793495178	movie	1		164.0	31.0	2.5	/experiments/knapen_aot/videos/R_S_pexels-rodnae-productions-7467585.mp4	0.0	151.24275398254395	2.508388042449951
33	102.64924597740173	fix_post	2		12.0	31.0	2.5	/experiments/knapen_aot/videos/R_S_pexels-rodnae-productions-7467585.mp4	0.0	153.7511420249939	0.10002803802490234
34	102.74927401542664	fix_pre	0		44.0	32.0	2.5	/experiments/knapen_aot/videos/S_b4-3.mp4	0.0	153.8511700630188	0.3666229248046875
34	103.10771799087524	response	0	2		32.0	2.5	/experiments/knapen_aot/videos/S_b4-3.mp4	0.0	154.2096140384674	
34	103.11589694023132	movie	1		167.0	32.0	2.5	/experiments/knapen_aot/videos/S_b4-3.mp4	0.0	154.2177929878235	2.508280038833618
34	105.62417697906494	fix_post	2		12.0	32.0	2.5	/experiments/knapen_aot/videos/S_b4-3.mp4	0.0	156.7260730266571	0.10004091262817383
35	105.72421789169312	fix_pre	0		39.0	33.0	2.5	blank	1.0	156.82611393928528	0.32514095306396484
35	106.0410327911377	response	0	2		33.0	2.5	blank	1.0	157.14292883872986	
35	106.04935884475708	movie	1		301.0	33.0	2.5	blank	1.0	157.15125489234924	2.5081911087036133
35	108.5575499534607	fix_post	2		12.0	33.0	2.5	blank	1.0	159.65944600105286	0.1000368595123291
36	108.65758681297302	fix_pre	0		61.0	34.0	2.5	/experiments/knapen_aot/videos/R_S_yt-DWsFRl5bXs8_23.mp4	0.0	159.75948286056519	0.5083141326904297
36	109.15766382217407	response	0	2		34.0	2.5	/experiments/knapen_aot/videos/R_S_yt-DWsFRl5bXs8_23.mp4	0.0	160.25955986976624	
36	109.16590094566345	movie	1		301.0	34.0	2.5	/experiments/knapen_aot/videos/R_S_yt-DWsFRl5bXs8_23.mp4	0.0	160.26779699325562	2.508450984954834
36	111.67435193061829	fix_post	2		12.0	34.0	2.5	/experiments/knapen_aot/videos/R_S_yt-DWsFRl5bXs8_23.mp4	0.0	162.77624797821045	0.09989404678344727
37	111.77424597740173	fix_pre	0		35.0	35.0	2.5	/experiments/knapen_aot/videos/R_S_yt-l6WPyKg_3is_154.mp4	0.0	162.8761420249939	0.29158592224121094
37	112.05759382247925	response	0	2		35.0	2.5	/experiments/knapen_aot/videos/R_S_yt-l6WPyKg_3is_154.mp4	0.0	163.1594898700714	
37	112.06583189964294	movie	1		300.0	35.0	2.5	/experiments/knapen_aot/videos/R_S_yt-l6WPyKg_3is_154.mp4	0.0	163.1677279472351	2.5084481239318848
37	114.57428002357483	fix_post	2		12.0	35.0	2.5	/experiments/knapen_aot/videos/R_S_yt-l6WPyKg_3is_154.mp4	0.0	165.676176071167	0.10011076927185059
38	114.67439079284668	fix_pre	0		46.0	36.0	2.5	/experiments/knapen_aot/videos/R_S_yt-ejSzwn8tY8g_49.mp4	0.0	165.77628684043884	0.3831441402435303
38	115.04937982559204	response	0	2		36.0	2.5	/experiments/knapen_aot/videos/R_S_yt-ejSzwn8tY8g_49.mp4	0.0	166.1512758731842	
38	115.05753493309021	movie	1		301.0	36.0	2.5	/experiments/knapen_aot/videos/R_S_yt-ejSzwn8tY8g_49.mp4	0.0	166.15943098068237	2.508370876312256
38	117.56590580940247	fix_post	2		12.0	36.0	2.5	/experiments/knapen_aot/videos/R_S_yt-ejSzwn8tY8g_49.mp4	0.0	168.66780185699463	0.09998607635498047
39	117.66589188575745	fix_pre	0		36.0	37.0	2.5	/experiments/knapen_aot/videos/S_yt-zpoIiHGRm5k_296.mp4	0.0	168.7677879333496	0.30001211166381836
39	117.95767188072205	response	0	2		37.0	2.5	/experiments/knapen_aot/videos/S_yt-zpoIiHGRm5k_296.mp4	0.0	169.0595679283142	
39	117.96590399742126	movie	1		300.0	37.0	2.5	/experiments/knapen_aot/videos/S_yt-zpoIiHGRm5k_296.mp4	0.0	169.06780004501343	2.508301019668579
39	120.47420501708984	fix_post	2		12.0	37.0	2.5	/experiments/knapen_aot/videos/S_yt-zpoIiHGRm5k_296.mp4	0.0	171.576101064682	0.09995079040527344
40	120.57415580749512	fix_pre	0		99.0	38.0	2.5	/experiments/knapen_aot/videos/R_S_ILSVRC2015_train_00165011.mp4	0.0	171.67605185508728	0.82501220703125
40	121.3910779953003	response	0	2		38.0	2.5	/experiments/knapen_aot/videos/R_S_ILSVRC2015_train_00165011.mp4	0.0	172.49297404289246	
40	121.39916801452637	movie	1		301.0	38.0	2.5	/experiments/knapen_aot/videos/R_S_ILSVRC2015_train_00165011.mp4	0.0	172.50106406211853	2.508488893508911
40	123.90765690803528	fix_post	2		12.0	38.0	2.5	/experiments/knapen_aot/videos/R_S_ILSVRC2015_train_00165011.mp4	0.0	175.00955295562744	0.0999150276184082
41	124.00757193565369	fix_pre	0		182.0	39.0	2.5	/experiments/knapen_aot/videos/S_yt-H3EadcgKySM_58.mp4	0.0	175.10946798324585	1.5165889263153076
41	125.51598501205444	response	0	2		39.0	2.5	/experiments/knapen_aot/videos/S_yt-H3EadcgKySM_58.mp4	0.0	176.6178810596466	
41	125.524160861969	movie	1		301.0	39.0	2.5	/experiments/knapen_aot/videos/S_yt-H3EadcgKySM_58.mp4	0.0	176.62605690956116	2.5083351135253906
41	128.03249597549438	fix_post	2		12.0	39.0	2.5	/experiments/knapen_aot/videos/S_yt-H3EadcgKySM_58.mp4	0.0	179.13439202308655	0.10005784034729004
42	128.13255381584167	fix_pre	0		109.0	40.0	2.5	/experiments/knapen_aot/videos/R_S_ILSVRC2015_train_00067003.mp4	0.0	179.23444986343384	0.9082591533660889
42	129.03262090682983	response	0	2		40.0	2.5	/experiments/knapen_aot/videos/R_S_ILSVRC2015_train_00067003.mp4	0.0	180.134516954422	
42	129.04081296920776	movie	1		298.0	40.0	2.5	/experiments/knapen_aot/videos/R_S_ILSVRC2015_train_00067003.mp4	0.0	180.14270901679993	2.5083160400390625
42	131.54912900924683	fix_post	2		12.0	40.0	2.5	/experiments/knapen_aot/videos/R_S_ILSVRC2015_train_00067003.mp4	0.0	182.651025056839	0.10003781318664551
43	131.64916682243347	fix_pre	0		71.0	41.0	2.5	blank	1.0	182.75106287002563	0.5916781425476074
43	132.23266983032227	response	0	2		41.0	2.5	blank	1.0	183.33456587791443	
43	132.24084496498108	movie	1		301.0	41.0	2.5	blank	1.0	183.34274101257324	2.5083260536193848
43	134.74917101860046	fix_post	2		12.0	41.0	2.5	blank	1.0	185.85106706619263	0.10001683235168457
44	134.84918785095215	fix_pre	0		71.0	42.0	2.5	/experiments/knapen_aot/videos/R_S_yt-dj0XQUJos38_14.mp4	0.0	185.9510838985443	0.5916650295257568
44	135.43255400657654	response	0	2		42.0	2.5	/experiments/knapen_aot/videos/R_S_yt-dj0XQUJos38_14.mp4	0.0	186.5344500541687	
44	135.4408528804779	movie	1		301.0	42.0	2.5	/experiments/knapen_aot/videos/R_S_yt-dj0XQUJos38_14.mp4	0.0	186.54274892807007	2.508316993713379
44	137.94916987419128	fix_post	2		12.0	42.0	2.5	/experiments/knapen_aot/videos/R_S_yt-dj0XQUJos38_14.mp4	0.0	189.05106592178345	0.0999760627746582
45	138.04914593696594	fix_pre	0		71.0	43.0	2.5	/experiments/knapen_aot/videos/S_yt-GaJaxp546lc_22.mp4	0.0	189.1510419845581	0.5916519165039062
45	138.6326777935028	response	0	2		43.0	2.5	/experiments/knapen_aot/videos/S_yt-GaJaxp546lc_22.mp4	0.0	189.73457384109497	
45	138.64079785346985	movie	1		301.0	43.0	2.5	/experiments/knapen_aot/videos/S_yt-GaJaxp546lc_22.mp4	0.0	189.742693901062	2.508363962173462
45	141.1491618156433	fix_post	2		12.0	43.0	2.5	/experiments/knapen_aot/videos/S_yt-GaJaxp546lc_22.mp4	0.0	192.25105786323547	0.100006103515625
46	141.24916791915894	fix_pre	0		80.0	44.0	2.5	/experiments/knapen_aot/videos/S_yt-fP2JRJAFGZ4_25.mp4	0.0	192.3510639667511	0.6665608882904053
46	141.90764498710632	response	0	2		44.0	2.5	/experiments/knapen_aot/videos/S_yt-fP2JRJAFGZ4_25.mp4	0.0	193.0095410346985	
46	141.91572880744934	movie	1		301.0	44.0	2.5	/experiments/knapen_aot/videos/S_yt-fP2JRJAFGZ4_25.mp4	0.0	193.0176248550415	2.50846004486084
46	144.42418885231018	fix_post	2		12.0	44.0	2.5	/experiments/knapen_aot/videos/S_yt-fP2JRJAFGZ4_25.mp4	0.0	195.52608489990234	0.09996414184570312
47	144.52415299415588	fix_pre	0		70.0	45.0	2.5	/experiments/knapen_aot/videos/R_S_wc-TAGpcap1KdAS_212.mp4	0.0	195.62604904174805	0.5833098888397217
47	145.0992729663849	response	0	2		45.0	2.5	/experiments/knapen_aot/videos/R_S_wc-TAGpcap1KdAS_212.mp4	0.0	196.20116901397705	
47	145.1074628829956	movie	1		301.0	45.0	2.5	/experiments/knapen_aot/videos/R_S_wc-TAGpcap1KdAS_212.mp4	0.0	196.20935893058777	2.5082850456237793
47	147.61574792861938	fix_post	2		12.0	45.0	2.5	/experiments/knapen_aot/videos/R_S_wc-TAGpcap1KdAS_212.mp4	0.0	198.71764397621155	0.10007905960083008
48	147.71582698822021	fix_pre	0		42.0	46.0	2.5	/experiments/knapen_aot/videos/S_Y011_C008_SDR_2K_AVC.mp4	0.0	198.81772303581238	0.34992098808288574
48	148.05759692192078	response	0	2		46.0	2.5	/experiments/knapen_aot/videos/S_Y011_C008_SDR_2K_AVC.mp4	0.0	199.15949296951294	
48	148.0657479763031	movie	1		169.0	46.0	2.5	/experiments/knapen_aot/videos/S_Y011_C008_SDR_2K_AVC.mp4	0.0	199.16764402389526	2.5083909034729004
48	150.574138879776	fix_post	2		12.0	46.0	2.5	/experiments/knapen_aot/videos/S_Y011_C008_SDR_2K_AVC.mp4	0.0	201.67603492736816	0.09999895095825195
49	150.67413783073425	fix_pre	0		57.0	47.0	2.5	/experiments/knapen_aot/videos/R_S_yt-BlWfK4MkjWA_469.mp4	0.0	201.77603387832642	0.47499799728393555
49	151.14095401763916	response	0	2		47.0	2.5	/experiments/knapen_aot/videos/R_S_yt-BlWfK4MkjWA_469.mp4	0.0	202.24285006523132	
49	151.1491358280182	movie	1		301.0	47.0	2.5	/experiments/knapen_aot/videos/R_S_yt-BlWfK4MkjWA_469.mp4	0.0	202.25103187561035	2.5083720684051514
49	153.65750789642334	fix_post	2		12.0	47.0	2.5	/experiments/knapen_aot/videos/R_S_yt-BlWfK4MkjWA_469.mp4	0.0	204.7594039440155	0.09994292259216309
50	153.7574508190155	fix_pre	0		63.0	48.0	2.5	blank	1.0	204.85934686660767	0.52494215965271
50	154.27427697181702	response	0	2		48.0	2.5	blank	1.0	205.37617301940918	
50	154.2823929786682	movie	1		301.0	48.0	2.5	blank	1.0	205.38428902626038	2.5084068775177
50	156.7907998561859	fix_post	2		12.0	48.0	2.5	blank	1.0	207.89269590377808	0.09992814064025879
51	156.89072799682617	fix_pre	0		61.0	49.0	2.5	/experiments/knapen_aot/videos/R_S_yt-ObT9gF8E_tU_250.mp4	0.0	207.99262404441833	0.5083308219909668
51	157.3908908367157	response	0	2		49.0	2.5	/experiments/knapen_aot/videos/R_S_yt-ObT9gF8E_tU_250.mp4	0.0	208.49278688430786	
51	157.39905881881714	movie	1		301.0	49.0	2.5	/experiments/knapen_aot/videos/R_S_yt-ObT9gF8E_tU_250.mp4	0.0	208.5009548664093	2.508366107940674
51	159.9074249267578	fix_post	2		12.0	49.0	2.5	/experiments/knapen_aot/videos/R_S_yt-ObT9gF8E_tU_250.mp4	0.0	211.00932097434998	0.10001707077026367
52	160.00744199752808	fix_pre	0		46.0	50.0	2.5	/experiments/knapen_aot/videos/S_yt-2cwARrUMj40_67.mp4	0.0	211.10933804512024	0.3833010196685791
52	160.38260293006897	response	0	2		50.0	2.5	/experiments/knapen_aot/videos/S_yt-2cwARrUMj40_67.mp4	0.0	211.48449897766113	
52	160.39074301719666	movie	1		301.0	50.0	2.5	/experiments/knapen_aot/videos/S_yt-2cwARrUMj40_67.mp4	0.0	211.49263906478882	2.5083558559417725
52	162.89909887313843	fix_post	2		12.0	50.0	2.5	/experiments/knapen_aot/videos/S_yt-2cwARrUMj40_67.mp4	0.0	214.0009949207306	0.09996199607849121
53	162.99906086921692	fix_pre	0		45.0	51.0	2.5	/experiments/knapen_aot/videos/R_S_yt-gzjV6YoK6X0_3.mp4	0.0	214.10095691680908	0.3762550354003906
53	163.36588191986084	response	0	2		51.0	2.5	/experiments/knapen_aot/videos/R_S_yt-gzjV6YoK6X0_3.mp4	0.0	214.467777967453	
53	163.3753159046173	movie	1		301.0	51.0	2.5	/experiments/knapen_aot/videos/R_S_yt-gzjV6YoK6X0_3.mp4	0.0	214.47721195220947	2.5071489810943604
53	165.88246488571167	fix_post	2		12.0	51.0	2.5	/experiments/knapen_aot/videos/R_S_yt-gzjV6YoK6X0_3.mp4	0.0	216.98436093330383	0.0999751091003418
54	165.982439994812	fix_pre	0		67.0	52.0	2.5	/experiments/knapen_aot/videos/R_S_yt-MUfa26F8dfE_97.mp4	0.0	217.08433604240417	0.5595359802246094
54	166.53251600265503	response	0	2		52.0	2.5	/experiments/knapen_aot/videos/R_S_yt-MUfa26F8dfE_97.mp4	0.0	217.6344120502472	
54	166.54197597503662	movie	1		301.0	52.0	2.5	/experiments/knapen_aot/videos/R_S_yt-MUfa26F8dfE_97.mp4	0.0	217.64387202262878	2.5071589946746826
54	169.0491349697113	fix_post	2		12.0	52.0	2.5	/experiments/knapen_aot/videos/R_S_yt-MUfa26F8dfE_97.mp4	0.0	220.15103101730347	0.09988093376159668
55	169.1490159034729	fix_pre	0		95.0	53.0	2.5	/experiments/knapen_aot/videos/R_S_yt-uT4MXm0UBJM_64.mp4	0.0	220.25091195106506	0.791740894317627
55	169.93258595466614	response	0	2		53.0	2.5	/experiments/knapen_aot/videos/R_S_yt-uT4MXm0UBJM_64.mp4	0.0	221.0344820022583	
55	169.94075679779053	movie	1		301.0	53.0	2.5	/experiments/knapen_aot/videos/R_S_yt-uT4MXm0UBJM_64.mp4	0.0	221.0426528453827	2.508316993713379
55	172.4490737915039	fix_post	2		12.0	53.0	2.5	/experiments/knapen_aot/videos/R_S_yt-uT4MXm0UBJM_64.mp4	0.0	223.55096983909607	0.09998822212219238
56	172.5490620136261	fix_pre	0		37.0	54.0	2.5	/experiments/knapen_aot/videos/S_ILSVRC2015_train_00418004.mp4	0.0	223.65095806121826	0.3083009719848633
56	172.84912300109863	response	0	2		54.0	2.5	/experiments/knapen_aot/videos/S_ILSVRC2015_train_00418004.mp4	0.0	223.9510190486908	
56	172.85736298561096	movie	1		301.0	54.0	2.5	/experiments/knapen_aot/videos/S_ILSVRC2015_train_00418004.mp4	0.0	223.95925903320312	2.5083320140838623
56	175.36569499969482	fix_post	2		12.0	54.0	2.5	/experiments/knapen_aot/videos/S_ILSVRC2015_train_00418004.mp4	0.0	226.467591047287	0.10006380081176758
57	175.4657588005066	fix_pre	0		38.0	55.0	2.5	blank	1.0	226.56765484809875	0.3165881633758545
57	175.77421188354492	response	0	2		55.0	2.5	blank	1.0	226.87610793113708	
57	175.78234696388245	movie	1		301.0	55.0	2.5	blank	1.0	226.8842430114746	2.5082900524139404
57	178.2906370162964	fix_post	2		12.0	55.0	2.5	blank	1.0	229.39253306388855	0.10006284713745117
58	178.39069986343384	fix_pre	0		89.0	56.0	2.5	/experiments/knapen_aot/videos/S_yt-thmqgEV-sYY_91.mp4	0.0	229.492595911026	0.7416069507598877
58	179.12422490119934	response	0	2		56.0	2.5	/experiments/knapen_aot/videos/S_yt-thmqgEV-sYY_91.mp4	0.0	230.2261209487915	
58	179.13230681419373	movie	1		301.0	56.0	2.5	/experiments/knapen_aot/videos/S_yt-thmqgEV-sYY_91.mp4	0.0	230.2342028617859	2.508378028869629
58	181.64068484306335	fix_post	2		12.0	56.0	2.5	/experiments/knapen_aot/videos/S_yt-thmqgEV-sYY_91.mp4	0.0	232.74258089065552	0.10003995895385742
59	181.7407248020172	fix_pre	0		40.0	57.0	2.5	/experiments/knapen_aot/videos/S_yt-zydTlQGCUjQ_277.mp4	0.0	232.84262084960938	0.33331799507141113
59	182.06591081619263	response	0	2		57.0	2.5	/experiments/knapen_aot/videos/S_yt-zydTlQGCUjQ_277.mp4	0.0	233.1678068637848	
59	182.07404279708862	movie	1		299.0	57.0	2.5	/experiments/knapen_aot/videos/S_yt-zydTlQGCUjQ_277.mp4	0.0	233.1759388446808	2.508334159851074
59	184.5823769569397	fix_post	2		12.0	57.0	2.5	/experiments/knapen_aot/videos/S_yt-zydTlQGCUjQ_277.mp4	0.0	235.68427300453186	0.10003495216369629
60	184.6824119091034	fix_pre	0		44.0	58.0	2.5	/experiments/knapen_aot/videos/S_yt-uT4MXm0UBJM_64.mp4	0.0	235.78430795669556	0.3665790557861328
60	185.04089188575745	response	0	2		58.0	2.5	/experiments/knapen_aot/videos/S_yt-uT4MXm0UBJM_64.mp4	0.0	236.1427879333496	
60	185.04899096488953	movie	1		301.0	58.0	2.5	/experiments/knapen_aot/videos/S_yt-uT4MXm0UBJM_64.mp4	0.0	236.1508870124817	2.5083558559417725
60	187.5573468208313	fix_post	2		12.0	58.0	2.5	/experiments/knapen_aot/videos/S_yt-uT4MXm0UBJM_64.mp4	0.0	238.65924286842346	0.10001516342163086
61	187.65736198425293	fix_pre	0		33.0	59.0	2.5	/experiments/knapen_aot/videos/R_S_yt-j-ifVbxZePQ_70.mp4	0.0	238.7592580318451	0.27500295639038086
61	187.92409801483154	response	0	2		59.0	2.5	/experiments/knapen_aot/videos/R_S_yt-j-ifVbxZePQ_70.mp4	0.0	239.0259940624237	
61	187.9323649406433	movie	1		301.0	59.0	2.5	/experiments/knapen_aot/videos/R_S_yt-j-ifVbxZePQ_70.mp4	0.0	239.03426098823547	2.508328914642334
61	190.44069385528564	fix_post	2		12.0	59.0	2.5	/experiments/knapen_aot/videos/R_S_yt-j-ifVbxZePQ_70.mp4	0.0	241.5425899028778	0.09999203681945801
62	190.5406858921051	fix_pre	0		42.0	60.0	2.5	/experiments/knapen_aot/videos/S_yt-K0CzoUy_uIA_22.mp4	0.0	241.64258193969727	0.3499600887298584
62	190.87492299079895	response	0	2		60.0	2.5	/experiments/knapen_aot/videos/S_yt-K0CzoUy_uIA_22.mp4	0.0	241.9768190383911	
62	190.89064598083496	movie	1		301.0	60.0	2.5	/experiments/knapen_aot/videos/S_yt-K0CzoUy_uIA_22.mp4	0.0	241.99254202842712	2.5083649158477783
62	193.39901089668274	fix_post	2		12.0	60.0	2.5	/experiments/knapen_aot/videos/S_yt-K0CzoUy_uIA_22.mp4	0.0	244.5009069442749	0.09999394416809082
63	193.49900484085083	fix_pre	0		44.0	61.0	2.5	/experiments/knapen_aot/videos/R_S_yt-JVhfcpV7OaY_71.mp4	0.0	244.600900888443	0.3666419982910156
63	193.85757184028625	response	0	2		61.0	2.5	/experiments/knapen_aot/videos/R_S_yt-JVhfcpV7OaY_71.mp4	0.0	244.95946788787842	
63	193.86564683914185	movie	1		301.0	61.0	2.5	/experiments/knapen_aot/videos/R_S_yt-JVhfcpV7OaY_71.mp4	0.0	244.967542886734	2.5084049701690674
63	196.3740518093109	fix_post	2		12.0	61.0	2.5	/experiments/knapen_aot/videos/R_S_yt-JVhfcpV7OaY_71.mp4	0.0	247.47594785690308	0.10007214546203613
64	196.47412395477295	fix_pre	0		38.0	62.0	2.5	blank	1.0	247.5760200023651	0.31765103340148926
64	196.78253984451294	response	0	2		62.0	2.5	blank	1.0	247.8844358921051	
64	196.79177498817444	movie	1		301.0	62.0	2.5	blank	1.0	247.8936710357666	2.5072598457336426
64	199.29903483390808	fix_post	2		12.0	62.0	2.5	blank	1.0	250.40093088150024	0.10006308555603027
65	199.3990979194641	fix_pre	0		48.0	63.0	2.5	/experiments/knapen_aot/videos/S_yt-jy7rAnpu0u8_128.mp4	0.0	250.50099396705627	0.39992690086364746
65	199.7908329963684	response	0	2		63.0	2.5	/experiments/knapen_aot/videos/S_yt-jy7rAnpu0u8_128.mp4	0.0	250.89272904396057	
65	199.79902482032776	movie	1		301.0	63.0	2.5	/experiments/knapen_aot/videos/S_yt-jy7rAnpu0u8_128.mp4	0.0	250.90092086791992	2.508362054824829
65	202.3073868751526	fix_post	2		12.0	63.0	2.5	/experiments/knapen_aot/videos/S_yt-jy7rAnpu0u8_128.mp4	0.0	253.40928292274475	0.09998893737792969
66	202.40737581253052	fix_pre	0		106.0	64.0	2.5	/experiments/knapen_aot/videos/R_S_yt-JmmyeMOFpII_29.mp4	0.0	253.50927186012268	0.8843660354614258
66	203.28251791000366	response	0	2		64.0	2.5	/experiments/knapen_aot/videos/R_S_yt-JmmyeMOFpII_29.mp4	0.0	254.38441395759583	
66	203.29174184799194	movie	1		301.0	64.0	2.5	/experiments/knapen_aot/videos/R_S_yt-JmmyeMOFpII_29.mp4	0.0	254.3936378955841	2.507272958755493
66	205.79901480674744	fix_post	2		12.0	64.0	2.5	/experiments/knapen_aot/videos/R_S_yt-JmmyeMOFpII_29.mp4	0.0	256.9009108543396	0.10003900527954102
67	205.89905381202698	fix_pre	0		53.0	65.0	2.5	/experiments/knapen_aot/videos/S_yt-BW6jWEVbxxk_4.mp4	0.0	257.00094985961914	0.44162416458129883
67	206.33245992660522	response	0	2		65.0	2.5	/experiments/knapen_aot/videos/S_yt-BW6jWEVbxxk_4.mp4	0.0	257.4343559741974	
67	206.34067797660828	movie	1		301.0	65.0	2.5	/experiments/knapen_aot/videos/S_yt-BW6jWEVbxxk_4.mp4	0.0	257.44257402420044	2.508296012878418
67	208.8489739894867	fix_post	2		12.0	65.0	2.5	/experiments/knapen_aot/videos/S_yt-BW6jWEVbxxk_4.mp4	0.0	259.95087003707886	0.09998583793640137
68	208.9489598274231	fix_pre	0		50.0	66.0	2.5	/experiments/knapen_aot/videos/S_yt-zh2yLr-o_8A_953.mp4	0.0	260.05085587501526	0.41670918464660645
68	209.3573648929596	response	0	2		66.0	2.5	/experiments/knapen_aot/videos/S_yt-zh2yLr-o_8A_953.mp4	0.0	260.45926094055176	
68	209.3656690120697	movie	1		300.0	66.0	2.5	/experiments/knapen_aot/videos/S_yt-zh2yLr-o_8A_953.mp4	0.0	260.46756505966187	2.5083107948303223
68	211.87397980690002	fix_post	2		12.0	66.0	2.5	/experiments/knapen_aot/videos/S_yt-zh2yLr-o_8A_953.mp4	0.0	262.9758758544922	0.09993815422058105
69	211.9739179611206	fix_pre	0		31.0	67.0	2.5	/experiments/knapen_aot/videos/R_S_yt-Ja7d2a6e5xE_279.mp4	0.0	263.07581400871277	0.25835704803466797
69	212.22411179542542	response	0	2		67.0	2.5	/experiments/knapen_aot/videos/R_S_yt-Ja7d2a6e5xE_279.mp4	0.0	263.3260078430176	
69	212.23227500915527	movie	1		301.0	67.0	2.5	/experiments/knapen_aot/videos/R_S_yt-Ja7d2a6e5xE_279.mp4	0.0	263.33417105674744	2.508333921432495
69	214.74060893058777	fix_post	2		12.0	67.0	2.5	/experiments/knapen_aot/videos/R_S_yt-Ja7d2a6e5xE_279.mp4	0.0	265.84250497817993	0.10003304481506348
70	214.84064197540283	fix_pre	0		38.0	68.0	2.5	blank	1.0	265.942538022995	0.31664586067199707
70	215.14152884483337	response	0	2		68.0	2.5	blank	1.0	266.24342489242554	
70	215.15728783607483	movie	1		301.0	68.0	2.5	blank	1.0	266.259183883667	2.508427143096924
70	217.66571497917175	fix_post	2		12.0	68.0	2.5	blank	1.0	268.7676110267639	0.09993386268615723
71	217.7656488418579	fix_pre	0		64.0	69.0	2.5	/experiments/knapen_aot/videos/R_S_yt-fGN7sGPy8BA_13.mp4	0.0	268.8675448894501	0.5332791805267334
71	218.2907919883728	response	0	2		69.0	2.5	/experiments/knapen_aot/videos/R_S_yt-fGN7sGPy8BA_13.mp4	0.0	269.39268803596497	
71	218.29892802238464	movie	1		301.0	69.0	2.5	/experiments/knapen_aot/videos/R_S_yt-fGN7sGPy8BA_13.mp4	0.0	269.4008240699768	2.5082759857177734
71	220.80720400810242	fix_post	2		12.0	69.0	2.5	/experiments/knapen_aot/videos/R_S_yt-fGN7sGPy8BA_13.mp4	0.0	271.9091000556946	0.10007286071777344
72	220.9072768688202	fix_pre	0		35.0	70.0	2.5	/experiments/knapen_aot/videos/S_yt-d5jBQ-LOW2I_17.mp4	0.0	272.00917291641235	0.2916550636291504
72	221.1833779811859	response	0	2		70.0	2.5	/experiments/knapen_aot/videos/S_yt-d5jBQ-LOW2I_17.mp4	0.0	272.2852740287781	
72	221.19893193244934	movie	1		301.0	70.0	2.5	/experiments/knapen_aot/videos/S_yt-d5jBQ-LOW2I_17.mp4	0.0	272.3008279800415	2.5083229541778564
72	223.7072548866272	fix_post	2		12.0	70.0	2.5	/experiments/knapen_aot/videos/S_yt-d5jBQ-LOW2I_17.mp4	0.0	274.80915093421936	0.09999513626098633
73	223.80725002288818	fix_pre	0		33.0	71.0	2.5	/experiments/knapen_aot/videos/S_yt-PyO8-WsbaLU_43.mp4	0.0	274.90914607048035	0.2759277820587158
73	224.0740568637848	response	0	2		71.0	2.5	/experiments/knapen_aot/videos/S_yt-PyO8-WsbaLU_43.mp4	0.0	275.17595291137695	
73	224.0831778049469	movie	1		301.0	71.0	2.5	/experiments/knapen_aot/videos/S_yt-PyO8-WsbaLU_43.mp4	0.0	275.18507385253906	2.5073461532592773
73	226.59052395820618	fix_post	2		12.0	71.0	2.5	/experiments/knapen_aot/videos/S_yt-PyO8-WsbaLU_43.mp4	0.0	277.69242000579834	0.10007691383361816
74	226.6906008720398	fix_pre	0		38.0	72.0	2.5	/experiments/knapen_aot/videos/S_yt-NQSCGMpo-p8_118.mp4	0.0	277.79249691963196	0.3166210651397705
74	226.9915587902069	response	0	2		72.0	2.5	/experiments/knapen_aot/videos/S_yt-NQSCGMpo-p8_118.mp4	0.0	278.0934548377991	
74	227.00722193717957	movie	1		301.0	72.0	2.5	/experiments/knapen_aot/videos/S_yt-NQSCGMpo-p8_118.mp4	0.0	278.10911798477173	2.5083389282226562
74	229.51556086540222	fix_post	2		12.0	72.0	2.5	/experiments/knapen_aot/videos/S_yt-NQSCGMpo-p8_118.mp4	0.0	280.6174569129944	0.10002613067626953
75	229.6155869960785	fix_pre	0		40.0	73.0	2.5	/experiments/knapen_aot/videos/R_S_b4-3.mp4	0.0	280.71748304367065	0.33332180976867676
75	229.94075798988342	response	0	2		73.0	2.5	/experiments/knapen_aot/videos/R_S_b4-3.mp4	0.0	281.0426540374756	
75	229.94890880584717	movie	1		169.0	73.0	2.5	/experiments/knapen_aot/videos/R_S_b4-3.mp4	0.0	281.05080485343933	2.5082809925079346
75	232.4571897983551	fix_post	2		12.0	73.0	2.5	/experiments/knapen_aot/videos/R_S_b4-3.mp4	0.0	283.55908584594727	0.10002803802490234
76	232.55721783638	fix_pre	0		34.0	74.0	2.5	/experiments/knapen_aot/videos/S_yt-Ol4xuEA8xQc_776.mp4	0.0	283.65911388397217	0.2832460403442383
76	232.83251190185547	response	0	2		74.0	2.5	/experiments/knapen_aot/videos/S_yt-Ol4xuEA8xQc_776.mp4	0.0	283.93440794944763	
76	232.84046387672424	movie	1		301.0	74.0	2.5	/experiments/knapen_aot/videos/S_yt-Ol4xuEA8xQc_776.mp4	0.0	283.9423599243164	2.5084609985351562
76	235.3489248752594	fix_post	2		12.0	74.0	2.5	/experiments/knapen_aot/videos/S_yt-Ol4xuEA8xQc_776.mp4	0.0	286.45082092285156	0.09997200965881348
77	235.4488968849182	fix_pre	0		48.0	75.0	2.5	/experiments/knapen_aot/videos/S_yt--cAfxH1WnPo_3.mp4	0.0	286.5507929325104	0.40000104904174805
77	235.84072494506836	response	0	2		75.0	2.5	/experiments/knapen_aot/videos/S_yt--cAfxH1WnPo_3.mp4	0.0	286.9426209926605	
77	235.84889793395996	movie	1		301.0	75.0	2.5	/experiments/knapen_aot/videos/S_yt--cAfxH1WnPo_3.mp4	0.0	286.9507939815521	2.508255958557129
77	238.3571538925171	fix_post	2		12.0	75.0	2.5	/experiments/knapen_aot/videos/S_yt--cAfxH1WnPo_3.mp4	0.0	289.45904994010925	0.10005903244018555
78	238.45721292495728	fix_pre	0		36.0	76.0	2.5	blank	1.0	289.55910897254944	0.29995107650756836
78	238.7490029335022	response	0	2		76.0	2.5	blank	1.0	289.85089898109436	
78	238.75716400146484	movie	1		301.0	76.0	2.5	blank	1.0	289.859060049057	2.508476972579956
78	241.2656409740448	fix_post	2		12.0	76.0	2.5	blank	1.0	292.36753702163696	0.09985995292663574
79	241.36550092697144	fix_pre	0		43.0	77.0	2.5	/experiments/knapen_aot/videos/R_S_yt-83nimFMNhrM_131.mp4	0.0	292.4673969745636	0.3583710193634033
79	241.7157130241394	response	0	2		77.0	2.5	/experiments/knapen_aot/videos/R_S_yt-83nimFMNhrM_131.mp4	0.0	292.81760907173157	
79	241.72387194633484	movie	1		301.0	77.0	2.5	/experiments/knapen_aot/videos/R_S_yt-83nimFMNhrM_131.mp4	0.0	292.825767993927	2.5084409713745117
79	244.23231291770935	fix_post	2		12.0	77.0	2.5	/experiments/knapen_aot/videos/R_S_yt-83nimFMNhrM_131.mp4	0.0	295.3342089653015	0.09988093376159668
80	244.33219385147095	fix_pre	0		47.0	78.0	2.5	/experiments/knapen_aot/videos/S_yt--koo4FOfZE0_86.mp4	0.0	295.4340898990631	0.391646146774292
80	244.7155728340149	response	0	2		78.0	2.5	/experiments/knapen_aot/videos/S_yt--koo4FOfZE0_86.mp4	0.0	295.81746888160706	
80	244.72383999824524	movie	1		301.0	78.0	2.5	/experiments/knapen_aot/videos/S_yt--koo4FOfZE0_86.mp4	0.0	295.8257360458374	2.508327007293701
80	247.23216700553894	fix_post	2		12.0	78.0	2.5	/experiments/knapen_aot/videos/S_yt--koo4FOfZE0_86.mp4	0.0	298.3340630531311	0.09997081756591797
81	247.33213782310486	fix_pre	0		37.0	79.0	2.5	/experiments/knapen_aot/videos/S_yt-rIQoRErqnlI_17.mp4	0.0	298.434033870697	0.30831313133239746
81	247.63227581977844	response	0	2		79.0	2.5	/experiments/knapen_aot/videos/S_yt-rIQoRErqnlI_17.mp4	0.0	298.7341718673706	
81	247.64045095443726	movie	1		300.0	79.0	2.5	/experiments/knapen_aot/videos/S_yt-rIQoRErqnlI_17.mp4	0.0	298.7423470020294	2.5083699226379395
81	250.1488208770752	fix_post	2		12.0	79.0	2.5	/experiments/knapen_aot/videos/S_yt-rIQoRErqnlI_17.mp4	0.0	301.25071692466736	0.10000205039978027
82	250.24882292747498	fix_pre	0		43.0	80.0	2.5	/experiments/knapen_aot/videos/S_yt-ZdXwVfF6T-s_25.mp4	0.0	301.35071897506714	0.3583710193634033
82	250.59894680976868	response	0	2		80.0	2.5	/experiments/knapen_aot/videos/S_yt-ZdXwVfF6T-s_25.mp4	0.0	301.70084285736084	
82	250.60719394683838	movie	1		301.0	80.0	2.5	/experiments/knapen_aot/videos/S_yt-ZdXwVfF6T-s_25.mp4	0.0	301.70908999443054	2.5082268714904785
82	253.11542081832886	fix_post	2		12.0	80.0	2.5	/experiments/knapen_aot/videos/S_yt-ZdXwVfF6T-s_25.mp4	0.0	304.217316865921	0.10000801086425781
83	253.21542882919312	fix_pre	0		35.0	81.0	2.5	/experiments/knapen_aot/videos/S_yt-eoASPwIAiHY_244.mp4	0.0	304.3173248767853	0.2916560173034668
83	253.49897599220276	response	0	2		81.0	2.5	/experiments/knapen_aot/videos/S_yt-eoASPwIAiHY_244.mp4	0.0	304.6008720397949	
83	253.50708484649658	movie	1		299.0	81.0	2.5	/experiments/knapen_aot/videos/S_yt-eoASPwIAiHY_244.mp4	0.0	304.60898089408875	2.508329153060913
83	256.0154139995575	fix_post	2		12.0	81.0	2.5	/experiments/knapen_aot/videos/S_yt-eoASPwIAiHY_244.mp4	0.0	307.11731004714966	0.10004401206970215
84	256.1154580116272	fix_pre	0		36.0	82.0	2.5	/experiments/knapen_aot/videos/S_comp_GMT026_363A_103NC_E1027_KOREA_JAPAN_NIGHT_v18_SDR_PS_20180907_SDR_2K_AVC.mp4	0.0	307.21735405921936	0.30075979232788086
84	256.4072449207306	response	0	2		82.0	2.5	/experiments/knapen_aot/videos/S_comp_GMT026_363A_103NC_E1027_KOREA_JAPAN_NIGHT_v18_SDR_PS_20180907_SDR_2K_AVC.mp4	0.0	307.50914096832275	
84	256.4162178039551	movie	1		168.0	82.0	2.5	/experiments/knapen_aot/videos/S_comp_GMT026_363A_103NC_E1027_KOREA_JAPAN_NIGHT_v18_SDR_PS_20180907_SDR_2K_AVC.mp4	0.0	307.51811385154724	2.5075581073760986
84	258.9237759113312	fix_post	2		12.0	82.0	2.5	/experiments/knapen_aot/videos/S_comp_GMT026_363A_103NC_E1027_KOREA_JAPAN_NIGHT_v18_SDR_PS_20180907_SDR_2K_AVC.mp4	0.0	310.02567195892334	0.09993290901184082
85	259.023708820343	fix_pre	0		31.0	83.0	2.5	blank	1.0	310.1256048679352	0.25838518142700195
85	259.2740478515625	response	0	2		83.0	2.5	blank	1.0	310.37594389915466	
85	259.28209400177	movie	1		301.0	83.0	2.5	blank	1.0	310.3839900493622	2.508307933807373
85	261.7904019355774	fix_post	2		12.0	83.0	2.5	blank	1.0	312.89229798316956	0.10004305839538574
87	261.8904449939728	stim	0		108.0					312.99234104156494	0.900723934173584
87	262.78491592407227	response	0	space						313.88681197166443	
