trial_nr	onset	event_type	phase	response	nr_frames	movie_index	movie_duration	movie_file	blank	onset_abs	duration
0	0.13338589668273926	stim	0		67.0					76.45258903503418	0.5583240985870361
0	0.6763439178466797	response	0	space						76.99554705619812	
1	0.6917099952697754	stim	0		121.0					77.01091313362122	1.0080158710479736
1	1.699725866317749	stim	1		120.0					78.01892900466919	0.999967098236084
2	2.699692964553833	fix_pre	0		23.0	0.0	2.5	/experiments/knapen_aot/videos/S_ILSVRC2015_train_00613000.mp4	0.0	79.01889610290527	0.19294309616088867
2	2.8831629753112793	response	0	space		0.0	2.5	/experiments/knapen_aot/videos/S_ILSVRC2015_train_00613000.mp4	0.0	79.20236611366272	
2	2.8926360607147217	movie	1		300.0	0.0	2.5	/experiments/knapen_aot/videos/S_ILSVRC2015_train_00613000.mp4	0.0	79.21183919906616	2.5071239471435547
2	5.399760007858276	fix_post	2		12.0	0.0	2.5	/experiments/knapen_aot/videos/S_ILSVRC2015_train_00613000.mp4	0.0	81.71896314620972	0.09987783432006836
3	5.499637842178345	fix_pre	0		202.0	1.0	2.5	/experiments/knapen_aot/videos/S_ILSVRC2015_train_00405001.mp4	0.0	81.81884098052979	1.6845860481262207
3	7.175729990005493	response	0	2		1.0	2.5	/experiments/knapen_aot/videos/S_ILSVRC2015_train_00405001.mp4	0.0	83.49493312835693	
3	7.184223890304565	movie	1		299.0	1.0	2.5	/experiments/knapen_aot/videos/S_ILSVRC2015_train_00405001.mp4	0.0	83.503427028656	2.507089138031006
3	9.691313028335571	fix_post	2		12.0	1.0	2.5	/experiments/knapen_aot/videos/S_ILSVRC2015_train_00405001.mp4	0.0	86.01051616668701	0.09999299049377441
4	9.791306018829346	fix_pre	0		23.0	2.0	2.5	/experiments/knapen_aot/videos/R_S_yt-bhiGMKSAz2g_370.mp4	0.0	86.11050915718079	0.19162392616271973
4	9.97479796409607	response	0	2		2.0	2.5	/experiments/knapen_aot/videos/R_S_yt-bhiGMKSAz2g_370.mp4	0.0	86.29400110244751	
4	9.982929944992065	movie	1		301.0	2.0	2.5	/experiments/knapen_aot/videos/R_S_yt-bhiGMKSAz2g_370.mp4	0.0	86.3021330833435	2.50833797454834
4	12.491267919540405	fix_post	2		12.0	2.0	2.5	/experiments/knapen_aot/videos/R_S_yt-bhiGMKSAz2g_370.mp4	0.0	88.81047105789185	0.100006103515625
5	12.59127402305603	fix_pre	0		6.0	3.0	2.5	/experiments/knapen_aot/videos/R_S_yt-35i8UeYXjGw_47.mp4	0.0	88.91047716140747	0.05126690864562988
5	12.633164882659912	response	0	4		3.0	2.5	/experiments/knapen_aot/videos/R_S_yt-35i8UeYXjGw_47.mp4	0.0	88.95236802101135	
5	12.64254093170166	movie	1		301.0	3.0	2.5	/experiments/knapen_aot/videos/R_S_yt-35i8UeYXjGw_47.mp4	0.0	88.9617440700531	2.5070900917053223
5	15.149631023406982	fix_post	2		12.0	3.0	2.5	/experiments/knapen_aot/videos/R_S_yt-35i8UeYXjGw_47.mp4	0.0	91.46883416175842	0.0999898910522461
5	15.208102941513062	response	2	2		3.0	2.5	/experiments/knapen_aot/videos/R_S_yt-35i8UeYXjGw_47.mp4	0.0	91.5273060798645	
6	15.249620914459229	fix_pre	0		41.0	4.0	2.5	/experiments/knapen_aot/videos/S_yt-uY5xsUKn8zU_17.mp4	0.0	91.56882405281067	0.3416569232940674
6	15.583073854446411	response	0	2		4.0	2.5	/experiments/knapen_aot/videos/S_yt-uY5xsUKn8zU_17.mp4	0.0	91.90227699279785	
6	15.591277837753296	movie	1		301.0	4.0	2.5	/experiments/knapen_aot/videos/S_yt-uY5xsUKn8zU_17.mp4	0.0	91.91048097610474	2.5082662105560303
6	18.099544048309326	fix_post	2		12.0	4.0	2.5	/experiments/knapen_aot/videos/S_yt-uY5xsUKn8zU_17.mp4	0.0	94.41874718666077	0.10009193420410156
7	18.199635982513428	fix_pre	0		13.0	5.0	2.5	/experiments/knapen_aot/videos/R_S_yt-NLfzvAJgyJ4_120.mp4	0.0	94.51883912086487	0.10945796966552734
7	18.29968500137329	response	0	2		5.0	2.5	/experiments/knapen_aot/videos/R_S_yt-NLfzvAJgyJ4_120.mp4	0.0	94.61888813972473	
7	18.309093952178955	movie	1		301.0	5.0	2.5	/experiments/knapen_aot/videos/R_S_yt-NLfzvAJgyJ4_120.mp4	0.0	94.6282970905304	2.5072081089019775
7	20.816302061080933	fix_post	2		12.0	5.0	2.5	/experiments/knapen_aot/videos/R_S_yt-NLfzvAJgyJ4_120.mp4	0.0	97.13550519943237	0.09996795654296875
8	20.9162700176239	fix_pre	0		28.0	6.0	2.5	/experiments/knapen_aot/videos/S_PA_A002_C009_SDR_20190730_ALT01_SDR_2K_AVC.mp4	0.0	97.23547315597534	0.23332786560058594
8	21.14136791229248	response	0	2		6.0	2.5	/experiments/knapen_aot/videos/S_PA_A002_C009_SDR_20190730_ALT01_SDR_2K_AVC.mp4	0.0	97.46057105064392	
8	21.149597883224487	movie	1		167.0	6.0	2.5	/experiments/knapen_aot/videos/S_PA_A002_C009_SDR_20190730_ALT01_SDR_2K_AVC.mp4	0.0	97.46880102157593	2.5083320140838623
8	23.65792989730835	fix_post	2		12.0	6.0	2.5	/experiments/knapen_aot/videos/S_PA_A002_C009_SDR_20190730_ALT01_SDR_2K_AVC.mp4	0.0	99.97713303565979	0.10001397132873535
9	23.757943868637085	fix_pre	0		5.0	7.0	2.5	blank	1.0	100.07714700698853	0.04163098335266113
9	23.791483879089355	response	0	2		7.0	2.5	blank	1.0	100.1106870174408	
9	23.799574851989746	movie	1		301.0	7.0	2.5	blank	1.0	100.11877799034119	2.5083441734313965
9	26.307919025421143	fix_post	2		12.0	7.0	2.5	blank	1.0	102.62712216377258	0.0999898910522461
10	26.40790891647339	fix_pre	0		29.0	8.0	2.5	/experiments/knapen_aot/videos/S_yt-PyO8-WsbaLU_43.mp4	0.0	102.72711205482483	0.2416980266571045
10	26.641401052474976	response	0	2		8.0	2.5	/experiments/knapen_aot/videos/S_yt-PyO8-WsbaLU_43.mp4	0.0	102.96060419082642	
10	26.649606943130493	movie	1		301.0	8.0	2.5	/experiments/knapen_aot/videos/S_yt-PyO8-WsbaLU_43.mp4	0.0	102.96881008148193	2.5083260536193848
10	29.157932996749878	fix_post	2		12.0	8.0	2.5	/experiments/knapen_aot/videos/S_yt-PyO8-WsbaLU_43.mp4	0.0	105.47713613510132	0.1000070571899414
11	29.25794005393982	fix_pre	0		12.0	9.0	2.5	/experiments/knapen_aot/videos/R_S_yt-SyePE8wOlxs_321.mp4	0.0	105.57714319229126	0.09998393058776855
11	29.34973406791687	response	0	2		9.0	2.5	/experiments/knapen_aot/videos/R_S_yt-SyePE8wOlxs_321.mp4	0.0	105.66893720626831	
11	29.357923984527588	movie	1		299.0	9.0	2.5	/experiments/knapen_aot/videos/R_S_yt-SyePE8wOlxs_321.mp4	0.0	105.67712712287903	2.5083789825439453
11	31.866302967071533	fix_post	2		12.0	9.0	2.5	/experiments/knapen_aot/videos/R_S_yt-SyePE8wOlxs_321.mp4	0.0	108.18550610542297	0.09994196891784668
12	31.96624493598938	fix_pre	0		25.0	10.0	2.5	/experiments/knapen_aot/videos/S_yt-lazG9z4VQAw_99.mp4	0.0	108.28544807434082	0.2083449363708496
12	32.15885806083679	response	0	2		10.0	2.5	/experiments/knapen_aot/videos/S_yt-lazG9z4VQAw_99.mp4	0.0	108.47806119918823	
12	32.17458987236023	movie	1		301.0	10.0	2.5	/experiments/knapen_aot/videos/S_yt-lazG9z4VQAw_99.mp4	0.0	108.49379301071167	2.508308172225952
12	34.68289804458618	fix_post	2		12.0	10.0	2.5	/experiments/knapen_aot/videos/S_yt-lazG9z4VQAw_99.mp4	0.0	111.00210118293762	0.10000991821289062
13	34.78290796279907	fix_pre	0		6.0	11.0	2.5	/experiments/knapen_aot/videos/R_S_yt-4r-oovk9JWg_85.mp4	0.0	111.10211110115051	0.04996991157531738
13	34.817288875579834	response	0	2		11.0	2.5	/experiments/knapen_aot/videos/R_S_yt-4r-oovk9JWg_85.mp4	0.0	111.13649201393127	
13	34.83287787437439	movie	1		301.0	11.0	2.5	/experiments/knapen_aot/videos/R_S_yt-4r-oovk9JWg_85.mp4	0.0	111.15208101272583	2.5083060264587402
13	37.34118390083313	fix_post	2		12.0	11.0	2.5	/experiments/knapen_aot/videos/R_S_yt-4r-oovk9JWg_85.mp4	0.0	113.66038703918457	0.10000896453857422
14	37.441192865371704	fix_pre	0		63.0	12.0	2.5	/experiments/knapen_aot/videos/S_yt-GyMWMiWvuiA_237.mp4	0.0	113.76039600372314	0.5249521732330322
14	37.95803093910217	response	0	2		12.0	2.5	/experiments/knapen_aot/videos/S_yt-GyMWMiWvuiA_237.mp4	0.0	114.27723407745361	
14	37.966145038604736	movie	1		300.0	12.0	2.5	/experiments/knapen_aot/videos/S_yt-GyMWMiWvuiA_237.mp4	0.0	114.28534817695618	2.508404016494751
14	40.47454905509949	fix_post	2		12.0	12.0	2.5	/experiments/knapen_aot/videos/S_yt-GyMWMiWvuiA_237.mp4	0.0	116.79375219345093	0.0999457836151123
15	40.5744948387146	fix_pre	0		21.0	13.0	2.5	blank	1.0	116.89369797706604	0.1750349998474121
15	40.74129390716553	response	0	2		13.0	2.5	blank	1.0	117.06049704551697	
15	40.74952983856201	movie	1		301.0	13.0	2.5	blank	1.0	117.06873297691345	2.508341073989868
15	43.25787091255188	fix_post	2		12.0	13.0	2.5	blank	1.0	119.57707405090332	0.09994292259216309
15	43.259541034698486	response	2	2		13.0	2.5	blank	1.0	119.57874417304993	
16	43.35781383514404	fix_pre	0		26.0	14.0	2.5	/experiments/knapen_aot/videos/S_yt-9qXwehMoX7o_50.mp4	0.0	119.67701697349548	0.2166881561279297
16	43.566258907318115	response	0	2		14.0	2.5	/experiments/knapen_aot/videos/S_yt-9qXwehMoX7o_50.mp4	0.0	119.88546204566956	
16	43.57450199127197	movie	1		301.0	14.0	2.5	/experiments/knapen_aot/videos/S_yt-9qXwehMoX7o_50.mp4	0.0	119.89370512962341	2.508314847946167
16	46.08281683921814	fix_post	2		12.0	14.0	2.5	/experiments/knapen_aot/videos/S_yt-9qXwehMoX7o_50.mp4	0.0	122.40201997756958	0.10002613067626953
17	46.18284296989441	fix_pre	0		16.0	15.0	2.5	/experiments/knapen_aot/videos/R_S_ILSVRC2015_train_00632002.mp4	0.0	122.50204610824585	0.13326787948608398
17	46.30792498588562	response	0	2		15.0	2.5	/experiments/knapen_aot/videos/R_S_ILSVRC2015_train_00632002.mp4	0.0	122.62712812423706	
17	46.31611084938049	movie	1		301.0	15.0	2.5	/experiments/knapen_aot/videos/R_S_ILSVRC2015_train_00632002.mp4	0.0	122.63531398773193	2.5083611011505127
17	48.824471950531006	fix_post	2		12.0	15.0	2.5	/experiments/knapen_aot/videos/R_S_ILSVRC2015_train_00632002.mp4	0.0	125.14367508888245	0.1000208854675293
18	48.924492835998535	fix_pre	0		18.0	16.0	2.5	/experiments/knapen_aot/videos/R_S_g201_TH_804_A001_8_SDR_20191031_SDR_2K_AVC.mp4	0.0	125.24369597434998	0.1499171257019043
18	49.06626605987549	response	0	2		16.0	2.5	/experiments/knapen_aot/videos/R_S_g201_TH_804_A001_8_SDR_20191031_SDR_2K_AVC.mp4	0.0	125.38546919822693	
18	49.07440996170044	movie	1		166.0	16.0	2.5	/experiments/knapen_aot/videos/R_S_g201_TH_804_A001_8_SDR_20191031_SDR_2K_AVC.mp4	0.0	125.39361310005188	2.508431911468506
18	51.582841873168945	fix_post	2		12.0	16.0	2.5	/experiments/knapen_aot/videos/R_S_g201_TH_804_A001_8_SDR_20191031_SDR_2K_AVC.mp4	0.0	127.90204501152039	0.09997200965881348
19	51.68281388282776	fix_pre	0		25.0	17.0	2.5	/experiments/knapen_aot/videos/R_S_yt-xCh0LI9VKeI_28.mp4	0.0	128.0020170211792	0.20929312705993652
19	51.882976055145264	response	0	2		17.0	2.5	/experiments/knapen_aot/videos/R_S_yt-xCh0LI9VKeI_28.mp4	0.0	128.2021791934967	
19	51.892107009887695	movie	1		301.0	17.0	2.5	/experiments/knapen_aot/videos/R_S_yt-xCh0LI9VKeI_28.mp4	0.0	128.21131014823914	2.507369041442871
19	54.399476051330566	fix_post	2		12.0	17.0	2.5	/experiments/knapen_aot/videos/R_S_yt-xCh0LI9VKeI_28.mp4	0.0	130.718679189682	0.09989380836486816
20	54.499369859695435	fix_pre	0		21.0	18.0	2.5	/experiments/knapen_aot/videos/S_P006_C002_UHD_SDR_2K_AVC.mp4	0.0	130.81857299804688	0.1750621795654297
20	54.66618990898132	response	0	2		18.0	2.5	/experiments/knapen_aot/videos/S_P006_C002_UHD_SDR_2K_AVC.mp4	0.0	130.98539304733276	
20	54.674432039260864	movie	1		166.0	18.0	2.5	/experiments/knapen_aot/videos/S_P006_C002_UHD_SDR_2K_AVC.mp4	0.0	130.9936351776123	2.5083558559417725
20	57.18278789520264	fix_post	2		12.0	18.0	2.5	/experiments/knapen_aot/videos/S_P006_C002_UHD_SDR_2K_AVC.mp4	0.0	133.50199103355408	0.09998106956481934
21	57.282768964767456	fix_pre	0		14.0	19.0	2.5	blank	1.0	133.6019721031189	0.11661005020141602
21	57.39121603965759	response	0	2		19.0	2.5	blank	1.0	133.71041917800903	
21	57.39937901496887	movie	1		301.0	19.0	2.5	blank	1.0	133.7185821533203	2.5083558559417725
21	59.907734870910645	fix_post	2		12.0	19.0	2.5	blank	1.0	136.22693800926208	0.10003805160522461
22	60.00777292251587	fix_pre	0		16.0	20.0	2.5	/experiments/knapen_aot/videos/S_pexels-ron-lach-8259631.mp4	0.0	136.3269760608673	0.13434410095214844
22	60.13292694091797	response	0	4		20.0	2.5	/experiments/knapen_aot/videos/S_pexels-ron-lach-8259631.mp4	0.0	136.4521300792694	
22	60.14211702346802	movie	1		192.0	20.0	2.5	/experiments/knapen_aot/videos/S_pexels-ron-lach-8259631.mp4	0.0	136.46132016181946	2.5073399543762207
22	62.64945697784424	fix_post	2		12.0	20.0	2.5	/experiments/knapen_aot/videos/S_pexels-ron-lach-8259631.mp4	0.0	138.96866011619568	0.1000669002532959
23	62.749523878097534	fix_pre	0		9.0	21.0	2.5	/experiments/knapen_aot/videos/R_S_ILSVRC2015_train_00451000.mp4	0.0	139.06872701644897	0.07490801811218262
23	62.81620383262634	response	0	2		21.0	2.5	/experiments/knapen_aot/videos/R_S_ILSVRC2015_train_00451000.mp4	0.0	139.13540697097778	
23	62.82443189620972	movie	1		301.0	21.0	2.5	/experiments/knapen_aot/videos/R_S_ILSVRC2015_train_00451000.mp4	0.0	139.14363503456116	2.5083370208740234
23	65.33276891708374	fix_post	2		12.0	21.0	2.5	/experiments/knapen_aot/videos/R_S_ILSVRC2015_train_00451000.mp4	0.0	141.65197205543518	0.09997200965881348
24	65.43274092674255	fix_pre	0		3.0	22.0	2.5	/experiments/knapen_aot/videos/R_S_yt-xKteiAi5h7Q_36.mp4	0.0	141.751944065094	0.02501201629638672
24	65.44959092140198	response	0	4		22.0	2.5	/experiments/knapen_aot/videos/R_S_yt-xKteiAi5h7Q_36.mp4	0.0	141.76879405975342	
24	65.45775294303894	movie	1		300.0	22.0	2.5	/experiments/knapen_aot/videos/R_S_yt-xKteiAi5h7Q_36.mp4	0.0	141.77695608139038	2.5082390308380127
24	67.96599197387695	fix_post	2		12.0	22.0	2.5	/experiments/knapen_aot/videos/R_S_yt-xKteiAi5h7Q_36.mp4	0.0	144.2851951122284	0.10007286071777344
25	68.06606483459473	fix_pre	0		170.0	23.0	2.5	/experiments/knapen_aot/videos/R_S_yt-Ul81y6R9YbE_12.mp4	0.0	144.38526797294617	1.416640043258667
25	69.46707105636597	response	0	2		23.0	2.5	/experiments/knapen_aot/videos/R_S_yt-Ul81y6R9YbE_12.mp4	0.0	145.7862741947174	
25	69.4827048778534	movie	1		301.0	23.0	2.5	/experiments/knapen_aot/videos/R_S_yt-Ul81y6R9YbE_12.mp4	0.0	145.80190801620483	2.508350133895874
25	71.99105501174927	fix_post	2		12.0	23.0	2.5	/experiments/knapen_aot/videos/R_S_yt-Ul81y6R9YbE_12.mp4	0.0	148.3102581501007	0.10001087188720703
26	72.09106588363647	fix_pre	0		27.0	24.0	2.5	/experiments/knapen_aot/videos/R_S_video_inspire_california_vineyard_sierra-mar_sunrise_110.1080-h264.mp4	0.0	148.41026902198792	0.2249760627746582
26	72.30027985572815	response	0	2		24.0	2.5	/experiments/knapen_aot/videos/R_S_video_inspire_california_vineyard_sierra-mar_sunrise_110.1080-h264.mp4	0.0	148.6194829940796	
26	72.31604194641113	movie	1		172.0	24.0	2.5	/experiments/knapen_aot/videos/R_S_video_inspire_california_vineyard_sierra-mar_sunrise_110.1080-h264.mp4	0.0	148.63524508476257	2.5083420276641846
26	74.82438397407532	fix_post	2		12.0	24.0	2.5	/experiments/knapen_aot/videos/R_S_video_inspire_california_vineyard_sierra-mar_sunrise_110.1080-h264.mp4	0.0	151.14358711242676	0.09998202323913574
27	74.92436599731445	fix_pre	0		7.0	25.0	2.5	/experiments/knapen_aot/videos/R_S_wc-q23aBNJMZbnZ_27.mp4	0.0	151.2435691356659	0.05836606025695801
27	74.97454786300659	response	0	2		25.0	2.5	/experiments/knapen_aot/videos/R_S_wc-q23aBNJMZbnZ_27.mp4	0.0	151.29375100135803	
27	74.98273205757141	movie	1		163.0	25.0	2.5	/experiments/knapen_aot/videos/R_S_wc-q23aBNJMZbnZ_27.mp4	0.0	151.30193519592285	2.5082898139953613
27	77.49102187156677	fix_post	2		12.0	25.0	2.5	/experiments/knapen_aot/videos/R_S_wc-q23aBNJMZbnZ_27.mp4	0.0	153.8102250099182	0.09998917579650879
28	77.59101104736328	fix_pre	0		11.0	26.0	2.5	/experiments/knapen_aot/videos/S_production_ID_4101242.mp4	0.0	153.91021418571472	0.09255099296569824
28	77.67451000213623	response	0	2		26.0	2.5	/experiments/knapen_aot/videos/S_production_ID_4101242.mp4	0.0	153.99371314048767	
28	77.68356204032898	movie	1		198.0	26.0	2.5	/experiments/knapen_aot/videos/S_production_ID_4101242.mp4	0.0	154.00276517868042	2.5073728561401367
28	80.19093489646912	fix_post	2		12.0	26.0	2.5	/experiments/knapen_aot/videos/S_production_ID_4101242.mp4	0.0	156.51013803482056	0.1000361442565918
29	80.29097104072571	fix_pre	0		44.0	27.0	2.5	/experiments/knapen_aot/videos/S_comp_GMT110_112NC_364D_1054_AURORA_ANTARTICA__COMP_FINAL_v34_PS_SDR_20181107_SDR_2K_AVC.mp4	0.0	156.61017417907715	0.36670589447021484
29	80.64943099021912	response	0	2		27.0	2.5	/experiments/knapen_aot/videos/S_comp_GMT110_112NC_364D_1054_AURORA_ANTARTICA__COMP_FINAL_v34_PS_SDR_20181107_SDR_2K_AVC.mp4	0.0	156.96863412857056	
29	80.65767693519592	movie	1		164.0	27.0	2.5	/experiments/knapen_aot/videos/S_comp_GMT110_112NC_364D_1054_AURORA_ANTARTICA__COMP_FINAL_v34_PS_SDR_20181107_SDR_2K_AVC.mp4	0.0	156.97688007354736	2.5083229541778564
29	83.16599988937378	fix_post	2		12.0	27.0	2.5	/experiments/knapen_aot/videos/S_comp_GMT110_112NC_364D_1054_AURORA_ANTARTICA__COMP_FINAL_v34_PS_SDR_20181107_SDR_2K_AVC.mp4	0.0	159.48520302772522	0.10001897811889648
30	83.26601886749268	fix_pre	0		23.0	28.0	2.5	blank	1.0	159.58522200584412	0.1916201114654541
30	83.44974398612976	response	0	2		28.0	2.5	blank	1.0	159.7689471244812	
30	83.45763897895813	movie	1		301.0	28.0	2.5	blank	1.0	159.77684211730957	2.508328914642334
30	85.96596789360046	fix_post	2		12.0	28.0	2.5	blank	1.0	162.2851710319519	0.10006499290466309
31	86.06603288650513	fix_pre	0		22.0	29.0	2.5	/experiments/knapen_aot/videos/R_S_pexels-koolshooters-7327401_1.mp4	0.0	162.38523602485657	0.18331408500671387
31	86.24100184440613	response	0	2		29.0	2.5	/experiments/knapen_aot/videos/R_S_pexels-koolshooters-7327401_1.mp4	0.0	162.56020498275757	
31	86.24934697151184	movie	1		164.0	29.0	2.5	/experiments/knapen_aot/videos/R_S_pexels-koolshooters-7327401_1.mp4	0.0	162.56855010986328	2.50832200050354
31	88.75766897201538	fix_post	2		12.0	29.0	2.5	/experiments/knapen_aot/videos/R_S_pexels-koolshooters-7327401_1.mp4	0.0	165.07687211036682	0.0999910831451416
32	88.85766005516052	fix_pre	0		10.0	30.0	2.5	/experiments/knapen_aot/videos/R_S_wc-DgBY_btLlgBC_19.mp4	0.0	165.17686319351196	0.08327984809875488
32	88.93268895149231	response	0	2		30.0	2.5	/experiments/knapen_aot/videos/R_S_wc-DgBY_btLlgBC_19.mp4	0.0	165.25189208984375	
32	88.94093990325928	movie	1		163.0	30.0	2.5	/experiments/knapen_aot/videos/R_S_wc-DgBY_btLlgBC_19.mp4	0.0	165.26014304161072	2.508384943008423
32	91.4493248462677	fix_post	2		12.0	30.0	2.5	/experiments/knapen_aot/videos/R_S_wc-DgBY_btLlgBC_19.mp4	0.0	167.76852798461914	0.09998011589050293
33	91.5493049621582	fix_pre	0		18.0	31.0	2.5	/experiments/knapen_aot/videos/S_Y009_C015_SDR_2K_AVC.mp4	0.0	167.86850810050964	0.14997601509094238
33	91.69112706184387	response	0	2		31.0	2.5	/experiments/knapen_aot/videos/S_Y009_C015_SDR_2K_AVC.mp4	0.0	168.0103302001953	
33	91.69928097724915	movie	1		191.0	31.0	2.5	/experiments/knapen_aot/videos/S_Y009_C015_SDR_2K_AVC.mp4	0.0	168.0184841156006	2.5083320140838623
33	94.20761299133301	fix_post	2		12.0	31.0	2.5	/experiments/knapen_aot/videos/S_Y009_C015_SDR_2K_AVC.mp4	0.0	170.52681612968445	0.09993696212768555
34	94.3075499534607	fix_pre	0		4.0	32.0	2.5	/experiments/knapen_aot/videos/R_S_comp_L012_c002_PS_v01_SDR_PS_20180925_SDR_2K_AVC.mp4	0.0	170.62675309181213	0.03343701362609863
34	94.33273196220398	response	0	2		32.0	2.5	/experiments/knapen_aot/videos/R_S_comp_L012_c002_PS_v01_SDR_PS_20180925_SDR_2K_AVC.mp4	0.0	170.65193510055542	
34	94.34098696708679	movie	1		164.0	32.0	2.5	/experiments/knapen_aot/videos/R_S_comp_L012_c002_PS_v01_SDR_PS_20180925_SDR_2K_AVC.mp4	0.0	170.66019010543823	2.508352041244507
34	96.8493390083313	fix_post	2		12.0	32.0	2.5	/experiments/knapen_aot/videos/R_S_comp_L012_c002_PS_v01_SDR_PS_20180925_SDR_2K_AVC.mp4	0.0	173.16854214668274	0.0998690128326416
35	96.94920802116394	fix_pre	0		26.0	33.0	2.5	/experiments/knapen_aot/videos/S_yt-0xzYSBvVfYM_197.mp4	0.0	173.26841115951538	0.21666502952575684
35	97.15775990486145	response	0	2		33.0	2.5	/experiments/knapen_aot/videos/S_yt-0xzYSBvVfYM_197.mp4	0.0	173.4769630432129	
35	97.1658730506897	movie	1		301.0	33.0	2.5	/experiments/knapen_aot/videos/S_yt-0xzYSBvVfYM_197.mp4	0.0	173.48507618904114	2.508404016494751
35	99.67427706718445	fix_post	2		12.0	33.0	2.5	/experiments/knapen_aot/videos/S_yt-0xzYSBvVfYM_197.mp4	0.0	175.9934802055359	0.09998178482055664
36	99.774258852005	fix_pre	0		29.0	34.0	2.5	blank	1.0	176.09346199035645	0.242462158203125
36	100.00766897201538	response	0	2		34.0	2.5	blank	1.0	176.32687211036682	
36	100.01672101020813	movie	1		301.0	34.0	2.5	blank	1.0	176.33592414855957	2.5074880123138428
36	101.97438883781433	response	1	2		34.0	2.5	blank	1.0	178.29359197616577	
36	102.52420902252197	fix_post	2		12.0	34.0	2.5	blank	1.0	178.8434121608734	0.10001897811889648
36	102.5834710597992	response	2	2		34.0	2.5	blank	1.0	178.90267419815063	
37	102.62422800064087	fix_pre	0		40.0	35.0	2.5	/experiments/knapen_aot/videos/S_yt-qurTr1BJMec_244.mp4	0.0	178.9434311389923	0.3333399295806885
37	102.94940686225891	response	0	2		35.0	2.5	/experiments/knapen_aot/videos/S_yt-qurTr1BJMec_244.mp4	0.0	179.26861000061035	
37	102.95756793022156	movie	1		301.0	35.0	2.5	/experiments/knapen_aot/videos/S_yt-qurTr1BJMec_244.mp4	0.0	179.276771068573	2.508359909057617
37	105.46592783927917	fix_post	2		12.0	35.0	2.5	/experiments/knapen_aot/videos/S_yt-qurTr1BJMec_244.mp4	0.0	181.78513097763062	0.09999918937683105
38	105.565927028656	fix_pre	0		22.0	36.0	2.5	/experiments/knapen_aot/videos/R_S_yt-a5TGHnldsKg_102.mp4	0.0	181.88513016700745	0.18335890769958496
38	105.74107098579407	response	0	2		36.0	2.5	/experiments/knapen_aot/videos/R_S_yt-a5TGHnldsKg_102.mp4	0.0	182.0602741241455	
38	105.74928593635559	movie	1		301.0	36.0	2.5	/experiments/knapen_aot/videos/R_S_yt-a5TGHnldsKg_102.mp4	0.0	182.06848907470703	2.508315086364746
38	108.25760102272034	fix_post	2		12.0	36.0	2.5	/experiments/knapen_aot/videos/R_S_yt-a5TGHnldsKg_102.mp4	0.0	184.57680416107178	0.09999799728393555
39	108.35759902000427	fix_pre	0		8.0	37.0	2.5	/experiments/knapen_aot/videos/R_S_yt-3JApfnMu5cU_378.mp4	0.0	184.6768021583557	0.06662297248840332
39	108.41609001159668	response	0	4		37.0	2.5	/experiments/knapen_aot/videos/R_S_yt-3JApfnMu5cU_378.mp4	0.0	184.73529314994812	
39	108.42422199249268	movie	1		301.0	37.0	2.5	/experiments/knapen_aot/videos/R_S_yt-3JApfnMu5cU_378.mp4	0.0	184.74342513084412	2.5083229541778564
39	110.93254494667053	fix_post	2		12.0	37.0	2.5	/experiments/knapen_aot/videos/R_S_yt-3JApfnMu5cU_378.mp4	0.0	187.25174808502197	0.10004305839538574
40	111.03258800506592	fix_pre	0		17.0	38.0	2.5	/experiments/knapen_aot/videos/S_yt-Fci3dBzt2T4_223.mp4	0.0	187.35179114341736	0.14163899421691895
40	111.16610097885132	response	0	2		38.0	2.5	/experiments/knapen_aot/videos/S_yt-Fci3dBzt2T4_223.mp4	0.0	187.48530411720276	
40	111.17422699928284	movie	1		301.0	38.0	2.5	/experiments/knapen_aot/videos/S_yt-Fci3dBzt2T4_223.mp4	0.0	187.49343013763428	2.5082218647003174
40	113.68244886398315	fix_post	2		12.0	38.0	2.5	/experiments/knapen_aot/videos/S_yt-Fci3dBzt2T4_223.mp4	0.0	190.0016520023346	0.10004711151123047
41	113.78249597549438	fix_pre	0		34.0	39.0	2.5	/experiments/knapen_aot/videos/S_ILSVRC2015_train_00704000.mp4	0.0	190.10169911384583	0.28331494331359863
41	114.05765986442566	response	0	2		39.0	2.5	/experiments/knapen_aot/videos/S_ILSVRC2015_train_00704000.mp4	0.0	190.3768630027771	
41	114.06581091880798	movie	1		301.0	39.0	2.5	/experiments/knapen_aot/videos/S_ILSVRC2015_train_00704000.mp4	0.0	190.38501405715942	2.5082929134368896
41	116.57410383224487	fix_post	2		12.0	39.0	2.5	/experiments/knapen_aot/videos/S_ILSVRC2015_train_00704000.mp4	0.0	192.8933069705963	0.10009002685546875
42	116.67419385910034	fix_pre	0		21.0	40.0	2.5	blank	1.0	192.99339699745178	0.1756601333618164
42	116.84101700782776	response	0	2		40.0	2.5	blank	1.0	193.1602201461792	
42	116.84985399246216	movie	1		301.0	40.0	2.5	blank	1.0	193.1690571308136	2.507725954055786
42	119.35757994651794	fix_post	2		12.0	40.0	2.5	blank	1.0	195.67678308486938	0.0999610424041748
43	119.45754098892212	fix_pre	0		28.0	41.0	2.5	/experiments/knapen_aot/videos/R_S_yt-qurTr1BJMec_244.mp4	0.0	195.77674412727356	0.2333528995513916
43	119.6825590133667	response	0	2		41.0	2.5	/experiments/knapen_aot/videos/R_S_yt-qurTr1BJMec_244.mp4	0.0	196.00176215171814	
43	119.69089388847351	movie	1		301.0	41.0	2.5	/experiments/knapen_aot/videos/R_S_yt-qurTr1BJMec_244.mp4	0.0	196.01009702682495	2.508315086364746
43	122.19920897483826	fix_post	2		12.0	41.0	2.5	/experiments/knapen_aot/videos/R_S_yt-qurTr1BJMec_244.mp4	0.0	198.5184121131897	0.09993886947631836
44	122.29914784431458	fix_pre	0		23.0	42.0	2.5	/experiments/knapen_aot/videos/R_S_yt-MSdNCUWOp4o_4.mp4	0.0	198.61835098266602	0.19165611267089844
44	122.48265790939331	response	0	2		42.0	2.5	/experiments/knapen_aot/videos/R_S_yt-MSdNCUWOp4o_4.mp4	0.0	198.80186104774475	
44	122.49080395698547	movie	1		297.0	42.0	2.5	/experiments/knapen_aot/videos/R_S_yt-MSdNCUWOp4o_4.mp4	0.0	198.8100070953369	2.508344888687134
44	124.99914884567261	fix_post	2		12.0	42.0	2.5	/experiments/knapen_aot/videos/R_S_yt-MSdNCUWOp4o_4.mp4	0.0	201.31835198402405	0.09999799728393555
45	125.09914684295654	fix_pre	0		5.0	43.0	2.5	/experiments/knapen_aot/videos/S_yt_R-SwXr0ScjD9o_20.mp4	0.0	201.41834998130798	0.042684078216552734
45	125.13263392448425	response	0	2		43.0	2.5	/experiments/knapen_aot/videos/S_yt_R-SwXr0ScjD9o_20.mp4	0.0	201.4518370628357	
45	125.1418309211731	movie	1		301.0	43.0	2.5	/experiments/knapen_aot/videos/S_yt_R-SwXr0ScjD9o_20.mp4	0.0	201.46103405952454	2.5072901248931885
45	127.64912104606628	fix_post	2		12.0	43.0	2.5	/experiments/knapen_aot/videos/S_yt_R-SwXr0ScjD9o_20.mp4	0.0	203.96832418441772	0.1000068187713623
46	127.74912786483765	fix_pre	0		28.0	44.0	2.5	/experiments/knapen_aot/videos/R_S_yt-TZ107yBhXoA_1.mp4	0.0	204.0683310031891	0.23336005210876465
46	127.96677088737488	response	0	2		44.0	2.5	/experiments/knapen_aot/videos/R_S_yt-TZ107yBhXoA_1.mp4	0.0	204.28597402572632	
46	127.98248791694641	movie	1		301.0	44.0	2.5	/experiments/knapen_aot/videos/R_S_yt-TZ107yBhXoA_1.mp4	0.0	204.30169105529785	2.5082719326019287
46	130.49075984954834	fix_post	2		12.0	44.0	2.5	/experiments/knapen_aot/videos/R_S_yt-TZ107yBhXoA_1.mp4	0.0	206.80996298789978	0.10005903244018555
47	130.59081888198853	fix_pre	0		30.0	45.0	2.5	/experiments/knapen_aot/videos/S_pexels-ron-lach-8259631.mp4	0.0	206.91002202033997	0.25
47	130.8326380252838	response	0	2		45.0	2.5	/experiments/knapen_aot/videos/S_pexels-ron-lach-8259631.mp4	0.0	207.15184116363525	
47	130.84081888198853	movie	1		183.0	45.0	2.5	/experiments/knapen_aot/videos/S_pexels-ron-lach-8259631.mp4	0.0	207.16002202033997	2.5082650184631348
47	132.7476999759674	response	1	2		45.0	2.5	/experiments/knapen_aot/videos/S_pexels-ron-lach-8259631.mp4	0.0	209.06690311431885	
47	133.34908390045166	fix_post	2		12.0	45.0	2.5	/experiments/knapen_aot/videos/S_pexels-ron-lach-8259631.mp4	0.0	209.6682870388031	0.10001993179321289
48	133.44910383224487	fix_pre	0		8.0	46.0	2.5	/experiments/knapen_aot/videos/S_video_inspire_oregon_lone-ranch-beach_00021.1080-h264.mp4	0.0	209.7683069705963	0.06721615791320801
48	133.5000810623169	response	0	2		46.0	2.5	/experiments/knapen_aot/videos/S_video_inspire_oregon_lone-ranch-beach_00021.1080-h264.mp4	0.0	209.81928420066833	
48	133.51631999015808	movie	1		167.0	46.0	2.5	/experiments/knapen_aot/videos/S_video_inspire_oregon_lone-ranch-beach_00021.1080-h264.mp4	0.0	209.83552312850952	2.507755994796753
48	136.02407598495483	fix_post	2		12.0	46.0	2.5	/experiments/knapen_aot/videos/S_video_inspire_oregon_lone-ranch-beach_00021.1080-h264.mp4	0.0	212.34327912330627	0.10001993179321289
49	136.12409591674805	fix_pre	0		7.0	47.0	2.5	blank	1.0	212.4432990550995	0.05896902084350586
49	136.17422604560852	response	0	2		47.0	2.5	blank	1.0	212.49342918395996	
49	136.18306493759155	movie	1		301.0	47.0	2.5	blank	1.0	212.502268075943	2.5077319145202637
49	138.69079685211182	fix_post	2		12.0	47.0	2.5	blank	1.0	215.00999999046326	0.09991312026977539
50	138.7907099723816	fix_pre	0		21.0	48.0	2.5	/experiments/knapen_aot/videos/R_S_yt-dQRqGgpS9mE_288.mp4	0.0	215.10991311073303	0.17508292198181152
50	138.95747184753418	response	0	2		48.0	2.5	/experiments/knapen_aot/videos/R_S_yt-dQRqGgpS9mE_288.mp4	0.0	215.27667498588562	
50	138.9657928943634	movie	1		301.0	48.0	2.5	/experiments/knapen_aot/videos/R_S_yt-dQRqGgpS9mE_288.mp4	0.0	215.28499603271484	2.5082759857177734
50	141.47406888008118	fix_post	2		12.0	48.0	2.5	/experiments/knapen_aot/videos/R_S_yt-dQRqGgpS9mE_288.mp4	0.0	217.79327201843262	0.09992718696594238
51	141.57399606704712	fix_pre	0		27.0	49.0	2.5	/experiments/knapen_aot/videos/S_ILSVRC2015_train_00001009.mp4	0.0	217.89319920539856	0.2250838279724121
51	141.79095888137817	response	0	2		49.0	2.5	/experiments/knapen_aot/videos/S_ILSVRC2015_train_00001009.mp4	0.0	218.11016201972961	
51	141.79907989501953	movie	1		301.0	49.0	2.5	/experiments/knapen_aot/videos/S_ILSVRC2015_train_00001009.mp4	0.0	218.11828303337097	2.5083370208740234
51	144.30741691589355	fix_post	2		12.0	49.0	2.5	/experiments/knapen_aot/videos/S_ILSVRC2015_train_00001009.mp4	0.0	220.626620054245	0.10000896453857422
52	144.40742588043213	fix_pre	0		26.0	50.0	2.5	/experiments/knapen_aot/videos/S_production_ID_4510883.mp4	0.0	220.72662901878357	0.21662616729736328
52	144.61585783958435	response	0	2		50.0	2.5	/experiments/knapen_aot/videos/S_production_ID_4510883.mp4	0.0	220.9350609779358	
52	144.6240520477295	movie	1		162.0	50.0	2.5	/experiments/knapen_aot/videos/S_production_ID_4510883.mp4	0.0	220.94325518608093	2.508405923843384
52	146.56454586982727	response	1	2		50.0	2.5	/experiments/knapen_aot/videos/S_production_ID_4510883.mp4	0.0	222.8837490081787	
52	146.8742859363556	response	1	2		50.0	2.5	/experiments/knapen_aot/videos/S_production_ID_4510883.mp4	0.0	223.19348907470703	
52	147.13245797157288	fix_post	2		12.0	50.0	2.5	/experiments/knapen_aot/videos/S_production_ID_4510883.mp4	0.0	223.45166110992432	0.10001897811889648
52	147.21669387817383	response	2	2		50.0	2.5	/experiments/knapen_aot/videos/S_production_ID_4510883.mp4	0.0	223.53589701652527	
53	147.23247694969177	fix_pre	0		38.0	51.0	2.5	/experiments/knapen_aot/videos/S_yt-mWlx1SIXl5M_850.mp4	0.0	223.5516800880432	0.3166170120239258
53	147.5408878326416	response	0	2		51.0	2.5	/experiments/knapen_aot/videos/S_yt-mWlx1SIXl5M_850.mp4	0.0	223.86009097099304	
53	147.5490939617157	movie	1		301.0	51.0	2.5	/experiments/knapen_aot/videos/S_yt-mWlx1SIXl5M_850.mp4	0.0	223.86829710006714	2.5082950592041016
53	150.0573890209198	fix_post	2		12.0	51.0	2.5	/experiments/knapen_aot/videos/S_yt-mWlx1SIXl5M_850.mp4	0.0	226.37659215927124	0.10005593299865723
54	150.15744495391846	fix_pre	0		9.0	52.0	2.5	/experiments/knapen_aot/videos/R_S_ILSVRC2015_train_00613000.mp4	0.0	226.4766480922699	0.07498788833618164
54	150.22421097755432	response	0	2		52.0	2.5	/experiments/knapen_aot/videos/R_S_ILSVRC2015_train_00613000.mp4	0.0	226.54341411590576	
54	150.23243284225464	movie	1		301.0	52.0	2.5	/experiments/knapen_aot/videos/R_S_ILSVRC2015_train_00613000.mp4	0.0	226.55163598060608	2.508336067199707
54	152.74076890945435	fix_post	2		12.0	52.0	2.5	/experiments/knapen_aot/videos/R_S_ILSVRC2015_train_00613000.mp4	0.0	229.0599720478058	0.09999203681945801
55	152.8407609462738	fix_pre	0		3.0	53.0	2.5	/experiments/knapen_aot/videos/R_S_ILSVRC2015_train_00704000.mp4	0.0	229.15996408462524	0.025079011917114258
55	152.85780906677246	response	0	2		53.0	2.5	/experiments/knapen_aot/videos/R_S_ILSVRC2015_train_00704000.mp4	0.0	229.1770122051239	
55	152.86583995819092	movie	1		301.0	53.0	2.5	/experiments/knapen_aot/videos/R_S_ILSVRC2015_train_00704000.mp4	0.0	229.18504309654236	2.5082929134368896
55	155.3741328716278	fix_post	2		12.0	53.0	2.5	/experiments/knapen_aot/videos/R_S_ILSVRC2015_train_00704000.mp4	0.0	231.69333600997925	0.10043716430664062
56	155.47457003593445	fix_pre	0		2.0	54.0	2.5	/experiments/knapen_aot/videos/R_S_pexels-roman-odintsov-8231493.mp4	0.0	231.7937731742859	0.016211986541748047
56	155.48275184631348	response	0	2		54.0	2.5	/experiments/knapen_aot/videos/R_S_pexels-roman-odintsov-8231493.mp4	0.0	231.80195498466492	
56	155.4907820224762	movie	1		194.0	54.0	2.5	/experiments/knapen_aot/videos/R_S_pexels-roman-odintsov-8231493.mp4	0.0	231.80998516082764	2.5083119869232178
56	157.9990940093994	fix_post	2		12.0	54.0	2.5	/experiments/knapen_aot/videos/R_S_pexels-roman-odintsov-8231493.mp4	0.0	234.31829714775085	0.1004338264465332
57	158.09952783584595	fix_pre	0		22.0	55.0	2.5	blank	1.0	234.4187309741974	0.18277502059936523
57	158.2741458415985	response	0	2		55.0	2.5	blank	1.0	234.59334897994995	
57	158.2823028564453	movie	1		301.0	55.0	2.5	blank	1.0	234.60150599479675	2.5083730220794678
57	160.79067587852478	fix_post	2		12.0	55.0	2.5	blank	1.0	237.10987901687622	0.1000831127166748
58	160.89075899124146	fix_pre	0		29.0	56.0	2.5	/experiments/knapen_aot/videos/R_S_yt-9qXwehMoX7o_50.mp4	0.0	237.2099621295929	0.2416670322418213
58	161.1241419315338	response	0	2		56.0	2.5	/experiments/knapen_aot/videos/R_S_yt-9qXwehMoX7o_50.mp4	0.0	237.44334506988525	
58	161.13242602348328	movie	1		301.0	56.0	2.5	/experiments/knapen_aot/videos/R_S_yt-9qXwehMoX7o_50.mp4	0.0	237.45162916183472	2.5082809925079346
58	163.6407070159912	fix_post	2		12.0	56.0	2.5	/experiments/knapen_aot/videos/R_S_yt-9qXwehMoX7o_50.mp4	0.0	239.95991015434265	0.09996604919433594
59	163.74067306518555	fix_pre	0		7.0	57.0	2.5	/experiments/knapen_aot/videos/S_Y011_C001_SDR_2K_AVC.mp4	0.0	240.059876203537	0.05836987495422363
59	163.79089999198914	response	0	2		57.0	2.5	/experiments/knapen_aot/videos/S_Y011_C001_SDR_2K_AVC.mp4	0.0	240.11010313034058	
59	163.79904294013977	movie	1		169.0	57.0	2.5	/experiments/knapen_aot/videos/S_Y011_C001_SDR_2K_AVC.mp4	0.0	240.1182460784912	2.5082929134368896
59	166.30733585357666	fix_post	2		12.0	57.0	2.5	/experiments/knapen_aot/videos/S_Y011_C001_SDR_2K_AVC.mp4	0.0	242.6265389919281	0.10004901885986328
60	166.40738487243652	fix_pre	0		9.0	58.0	2.5	/experiments/knapen_aot/videos/S_ILSVRC2015_train_00405001.mp4	0.0	242.72658801078796	0.07500600814819336
60	166.47495484352112	response	0	2		58.0	2.5	/experiments/knapen_aot/videos/S_ILSVRC2015_train_00405001.mp4	0.0	242.79415798187256	
60	166.48239088058472	movie	1		301.0	58.0	2.5	/experiments/knapen_aot/videos/S_ILSVRC2015_train_00405001.mp4	0.0	242.80159401893616	2.5083131790161133
60	168.99070405960083	fix_post	2		12.0	58.0	2.5	/experiments/knapen_aot/videos/S_ILSVRC2015_train_00405001.mp4	0.0	245.30990719795227	0.09999895095825195
61	169.09070301055908	fix_pre	0		19.0	59.0	2.5	/experiments/knapen_aot/videos/R_S_yt-MSdNCUWOp4o_4.mp4	0.0	245.40990614891052	0.15832185745239258
61	169.24085998535156	response	0	2		59.0	2.5	/experiments/knapen_aot/videos/R_S_yt-MSdNCUWOp4o_4.mp4	0.0	245.560063123703	
61	169.24902486801147	movie	1		301.0	59.0	2.5	/experiments/knapen_aot/videos/R_S_yt-MSdNCUWOp4o_4.mp4	0.0	245.56822800636292	2.508319139480591
61	171.75734400749207	fix_post	2		12.0	59.0	2.5	/experiments/knapen_aot/videos/R_S_yt-MSdNCUWOp4o_4.mp4	0.0	248.0765471458435	0.10001301765441895
62	171.85735702514648	fix_pre	0		8.0	60.0	2.5	/experiments/knapen_aot/videos/S_yt-Rqwi-Fk9IJQ_114.mp4	0.0	248.17656016349792	0.06667780876159668
62	171.90835905075073	response	0	2		60.0	2.5	/experiments/knapen_aot/videos/S_yt-Rqwi-Fk9IJQ_114.mp4	0.0	248.22756218910217	
62	171.92403483390808	movie	1		300.0	60.0	2.5	/experiments/knapen_aot/videos/S_yt-Rqwi-Fk9IJQ_114.mp4	0.0	248.24323797225952	2.508366107940674
62	174.43240094184875	fix_post	2		12.0	60.0	2.5	/experiments/knapen_aot/videos/S_yt-Rqwi-Fk9IJQ_114.mp4	0.0	250.7516040802002	0.09993195533752441
63	174.53233289718628	fix_pre	0		20.0	61.0	2.5	blank	1.0	250.85153603553772	0.1666851043701172
63	174.68330788612366	response	0	2		61.0	2.5	blank	1.0	251.0025110244751	
63	174.6990180015564	movie	1		301.0	61.0	2.5	blank	1.0	251.01822113990784	2.508307933807373
63	177.03243899345398	response	1	2		61.0	2.5	blank	1.0	253.35164213180542	
63	177.20732593536377	fix_post	2		12.0	61.0	2.5	blank	1.0	253.5265290737152	0.10038208961486816
64	177.30770802497864	fix_pre	0		7.0	62.0	2.5	/experiments/knapen_aot/videos/R_S_IrGYVLkWeQs_9.mp4	0.0	253.62691116333008	0.05797290802001953
64	177.35762691497803	response	0	2		62.0	2.5	/experiments/knapen_aot/videos/R_S_IrGYVLkWeQs_9.mp4	0.0	253.67683005332947	
64	177.36568093299866	movie	1		300.0	62.0	2.5	/experiments/knapen_aot/videos/R_S_IrGYVLkWeQs_9.mp4	0.0	253.6848840713501	2.508280038833618
64	179.87396097183228	fix_post	2		12.0	62.0	2.5	/experiments/knapen_aot/videos/R_S_IrGYVLkWeQs_9.mp4	0.0	256.1931641101837	0.10036802291870117
65	179.97432899475098	fix_pre	0		10.0	63.0	2.5	/experiments/knapen_aot/videos/R_S_ILSVRC2015_train_00756000.mp4	0.0	256.2935321331024	0.08329200744628906
65	180.0491578578949	response	0	2		63.0	2.5	/experiments/knapen_aot/videos/R_S_ILSVRC2015_train_00756000.mp4	0.0	256.36836099624634	
65	180.05762100219727	movie	1		301.0	63.0	2.5	/experiments/knapen_aot/videos/R_S_ILSVRC2015_train_00756000.mp4	0.0	256.3768241405487	2.5079140663146973
65	182.56553506851196	fix_post	2		12.0	63.0	2.5	/experiments/knapen_aot/videos/R_S_ILSVRC2015_train_00756000.mp4	0.0	258.8847382068634	0.10007596015930176
66	182.66561102867126	fix_pre	0		4.0	64.0	2.5	/experiments/knapen_aot/videos/S_yt-xCh0LI9VKeI_28.mp4	0.0	258.9848141670227	0.03335690498352051
66	182.69089102745056	response	0	2		64.0	2.5	/experiments/knapen_aot/videos/S_yt-xCh0LI9VKeI_28.mp4	0.0	259.010094165802	
66	182.69896793365479	movie	1		301.0	64.0	2.5	/experiments/knapen_aot/videos/S_yt-xCh0LI9VKeI_28.mp4	0.0	259.0181710720062	2.5083580017089844
66	185.20732593536377	fix_post	2		12.0	64.0	2.5	/experiments/knapen_aot/videos/S_yt-xCh0LI9VKeI_28.mp4	0.0	261.5265290737152	0.09994292259216309
67	185.30726885795593	fix_pre	0		16.0	65.0	2.5	/experiments/knapen_aot/videos/R_S_yt-AOP7QYQntPI_28.mp4	0.0	261.6264719963074	0.13323211669921875
67	185.43234705924988	response	0	2		65.0	2.5	/experiments/knapen_aot/videos/R_S_yt-AOP7QYQntPI_28.mp4	0.0	261.7515501976013	
67	185.44050097465515	movie	1		301.0	65.0	2.5	/experiments/knapen_aot/videos/R_S_yt-AOP7QYQntPI_28.mp4	0.0	261.7597041130066	2.5083370208740234
67	187.94883799552917	fix_post	2		12.0	65.0	2.5	/experiments/knapen_aot/videos/R_S_yt-AOP7QYQntPI_28.mp4	0.0	264.2680411338806	0.10007095336914062
68	188.04890894889832	fix_pre	0		35.0	66.0	2.5	/experiments/knapen_aot/videos/S_production_ID_4101309.mp4	0.0	264.36811208724976	0.29166603088378906
68	188.33233904838562	response	0	2		66.0	2.5	/experiments/knapen_aot/videos/S_production_ID_4101309.mp4	0.0	264.65154218673706	
68	188.3405749797821	movie	1		182.0	66.0	2.5	/experiments/knapen_aot/videos/S_production_ID_4101309.mp4	0.0	264.65977811813354	2.508405923843384
68	190.8489809036255	fix_post	2		12.0	66.0	2.5	/experiments/knapen_aot/videos/S_production_ID_4101309.mp4	0.0	267.16818404197693	0.0999441146850586
69	190.94892501831055	fix_pre	0		34.0	67.0	2.5	/experiments/knapen_aot/videos/R_S_yt-GLK6LniTOK0_69.mp4	0.0	267.268128156662	0.28328490257263184
69	191.22393989562988	response	0	2		67.0	2.5	/experiments/knapen_aot/videos/R_S_yt-GLK6LniTOK0_69.mp4	0.0	267.5431430339813	
69	191.23220992088318	movie	1		301.0	67.0	2.5	/experiments/knapen_aot/videos/R_S_yt-GLK6LniTOK0_69.mp4	0.0	267.5514130592346	2.5084080696105957
69	193.74061799049377	fix_post	2		12.0	67.0	2.5	/experiments/knapen_aot/videos/R_S_yt-GLK6LniTOK0_69.mp4	0.0	270.0598211288452	0.09996986389160156
70	193.84058785438538	fix_pre	0		33.0	68.0	2.5	/experiments/knapen_aot/videos/S_yt-RO4mhuXBVrY_67.mp4	0.0	270.1597909927368	0.2749960422515869
70	194.1074140071869	response	0	2		68.0	2.5	/experiments/knapen_aot/videos/S_yt-RO4mhuXBVrY_67.mp4	0.0	270.42661714553833	
70	194.11558389663696	movie	1		301.0	68.0	2.5	/experiments/knapen_aot/videos/S_yt-RO4mhuXBVrY_67.mp4	0.0	270.4347870349884	2.5083260536193848
70	196.62390995025635	fix_post	2		12.0	68.0	2.5	/experiments/knapen_aot/videos/S_yt-RO4mhuXBVrY_67.mp4	0.0	272.9431130886078	0.10026407241821289
71	196.72417402267456	fix_pre	0		10.0	69.0	2.5	blank	1.0	273.043377161026	0.0833289623260498
71	196.79901099205017	response	0	2		69.0	2.5	blank	1.0	273.1182141304016	
71	196.8075029850006	movie	1		301.0	69.0	2.5	blank	1.0	273.12670612335205	2.5080649852752686
71	199.31556797027588	fix_post	2		12.0	69.0	2.5	blank	1.0	275.6347711086273	0.10001587867736816
72	199.41558384895325	fix_pre	0		25.0	70.0	2.5	/experiments/knapen_aot/videos/R_S_yt-Pinnv3-3GFU_452.mp4	0.0	275.7347869873047	0.20830512046813965
72	199.6157259941101	response	0	2		70.0	2.5	/experiments/knapen_aot/videos/R_S_yt-Pinnv3-3GFU_452.mp4	0.0	275.93492913246155	
72	199.6238889694214	movie	1		301.0	70.0	2.5	/experiments/knapen_aot/videos/R_S_yt-Pinnv3-3GFU_452.mp4	0.0	275.9430921077728	2.5082240104675293
72	202.13211297988892	fix_post	2		12.0	70.0	2.5	/experiments/knapen_aot/videos/R_S_yt-Pinnv3-3GFU_452.mp4	0.0	278.45131611824036	0.10011792182922363
73	202.23223090171814	fix_pre	0		19.0	71.0	2.5	/experiments/knapen_aot/videos/S_yt-4sSV4iIs8gQ_55.mp4	0.0	278.5514340400696	0.15846705436706543
73	202.38231897354126	response	0	2		71.0	2.5	/experiments/knapen_aot/videos/S_yt-4sSV4iIs8gQ_55.mp4	0.0	278.7015221118927	
73	202.3906979560852	movie	1		301.0	71.0	2.5	/experiments/knapen_aot/videos/S_yt-4sSV4iIs8gQ_55.mp4	0.0	278.70990109443665	2.5081570148468018
73	204.898854970932	fix_post	2		12.0	71.0	2.5	/experiments/knapen_aot/videos/S_yt-4sSV4iIs8gQ_55.mp4	0.0	281.21805810928345	0.09997200965881348
74	204.99882698059082	fix_pre	0		43.0	72.0	2.5	/experiments/knapen_aot/videos/S_pexels-cottonbro-6844209.mp4	0.0	281.31803011894226	0.3583049774169922
74	205.3489270210266	response	0	2		72.0	2.5	/experiments/knapen_aot/videos/S_pexels-cottonbro-6844209.mp4	0.0	281.66813015937805	
74	205.3571319580078	movie	1		190.0	72.0	2.5	/experiments/knapen_aot/videos/S_pexels-cottonbro-6844209.mp4	0.0	281.67633509635925	2.508394956588745
74	207.86552691459656	fix_post	2		12.0	72.0	2.5	/experiments/knapen_aot/videos/S_pexels-cottonbro-6844209.mp4	0.0	284.184730052948	0.10000109672546387
75	207.96552801132202	fix_pre	0		3.0	73.0	2.5	/experiments/knapen_aot/videos/R_S_comp_N008_C009_PS_v01_SDR_PS_20180925_SDR_2K_AVC.mp4	0.0	284.28473114967346	0.025014877319335938
75	207.97510600090027	response	0	2		73.0	2.5	/experiments/knapen_aot/videos/R_S_comp_N008_C009_PS_v01_SDR_PS_20180925_SDR_2K_AVC.mp4	0.0	284.2943091392517	
75	207.99054288864136	movie	1		171.0	73.0	2.5	/experiments/knapen_aot/videos/R_S_comp_N008_C009_PS_v01_SDR_PS_20180925_SDR_2K_AVC.mp4	0.0	284.3097460269928	2.508492946624756
75	210.4990358352661	fix_post	2		12.0	73.0	2.5	/experiments/knapen_aot/videos/R_S_comp_N008_C009_PS_v01_SDR_PS_20180925_SDR_2K_AVC.mp4	0.0	286.81823897361755	0.10005402565002441
76	210.59908986091614	fix_pre	0		3.0	74.0	2.5	/experiments/knapen_aot/videos/R_S_production_ID_4101242.mp4	0.0	286.9182929992676	0.024796009063720703
76	210.61564683914185	response	0	2		74.0	2.5	/experiments/knapen_aot/videos/R_S_production_ID_4101242.mp4	0.0	286.9348499774933	
76	210.62388586997986	movie	1		210.0	74.0	2.5	/experiments/knapen_aot/videos/R_S_production_ID_4101242.mp4	0.0	286.9430890083313	2.508229970932007
76	213.13211584091187	fix_post	2		12.0	74.0	2.5	/experiments/knapen_aot/videos/R_S_production_ID_4101242.mp4	0.0	289.4513189792633	0.10002517700195312
77	213.23214101791382	fix_pre	0		46.0	75.0	2.5	/experiments/knapen_aot/videos/R_S_8amznWxLS04_212.mp4	0.0	289.55134415626526	0.3833138942718506
77	213.60724806785583	response	0	2		75.0	2.5	/experiments/knapen_aot/videos/R_S_8amznWxLS04_212.mp4	0.0	289.9264512062073	
77	213.61545491218567	movie	1		300.0	75.0	2.5	/experiments/knapen_aot/videos/R_S_8amznWxLS04_212.mp4	0.0	289.9346580505371	2.508297920227051
77	216.12375283241272	fix_post	2		12.0	75.0	2.5	/experiments/knapen_aot/videos/R_S_8amznWxLS04_212.mp4	0.0	292.44295597076416	0.10022521018981934
78	216.22397804260254	fix_pre	0		14.0	76.0	2.5	/experiments/knapen_aot/videos/R_S_production_ID_4101244.mp4	0.0	292.543181180954	0.11650586128234863
78	216.33229184150696	response	0	2		76.0	2.5	/experiments/knapen_aot/videos/R_S_production_ID_4101244.mp4	0.0	292.6514949798584	
78	216.3404839038849	movie	1		203.0	76.0	2.5	/experiments/knapen_aot/videos/R_S_production_ID_4101244.mp4	0.0	292.6596870422363	2.5084080696105957
78	218.84889197349548	fix_post	2		12.0	76.0	2.5	/experiments/knapen_aot/videos/R_S_production_ID_4101244.mp4	0.0	295.1680951118469	0.099884033203125
79	218.9487760066986	fix_pre	0		15.0	77.0	2.5	blank	1.0	295.26797914505005	0.1250009536743164
79	219.05806183815002	response	0	2		77.0	2.5	blank	1.0	295.37726497650146	
79	219.07377696037292	movie	1		301.0	77.0	2.5	blank	1.0	295.39298009872437	2.508267879486084
79	221.582044839859	fix_post	2		12.0	77.0	2.5	blank	1.0	297.90124797821045	0.10018706321716309
80	221.68223190307617	fix_pre	0		23.0	78.0	2.5	/experiments/knapen_aot/videos/R_S_yt-35i8UeYXjGw_47.mp4	0.0	298.0014350414276	0.19153094291687012
80	221.86553502082825	response	0	2		78.0	2.5	/experiments/knapen_aot/videos/R_S_yt-35i8UeYXjGw_47.mp4	0.0	298.1847381591797	
80	221.87376284599304	movie	1		301.0	78.0	2.5	/experiments/knapen_aot/videos/R_S_yt-35i8UeYXjGw_47.mp4	0.0	298.1929659843445	2.508251190185547
80	224.3820140361786	fix_post	2		12.0	78.0	2.5	/experiments/knapen_aot/videos/R_S_yt-35i8UeYXjGw_47.mp4	0.0	300.70121717453003	0.10001897811889648
81	224.48203301429749	fix_pre	0		11.0	79.0	2.5	/experiments/knapen_aot/videos/S_yt-4r-oovk9JWg_85.mp4	0.0	300.8012361526489	0.09169197082519531
81	224.5580358505249	response	0	2		79.0	2.5	/experiments/knapen_aot/videos/S_yt-4r-oovk9JWg_85.mp4	0.0	300.87723898887634	
81	224.57372498512268	movie	1		301.0	79.0	2.5	/experiments/knapen_aot/videos/S_yt-4r-oovk9JWg_85.mp4	0.0	300.8929281234741	2.5083229541778564
81	227.08204793930054	fix_post	2		12.0	79.0	2.5	/experiments/knapen_aot/videos/S_yt-4r-oovk9JWg_85.mp4	0.0	303.401251077652	0.10010004043579102
82	227.18214797973633	fix_pre	0		1.0	80.0	2.5	/experiments/knapen_aot/videos/S_yt-8RmEimCI80g_35.mp4	0.0	303.50135111808777	0.008275985717773438
82	227.18376803398132	response	0	2		80.0	2.5	/experiments/knapen_aot/videos/S_yt-8RmEimCI80g_35.mp4	0.0	303.50297117233276	
82	227.1904239654541	movie	1		301.0	80.0	2.5	/experiments/knapen_aot/videos/S_yt-8RmEimCI80g_35.mp4	0.0	303.50962710380554	2.5083789825439453
82	229.69880294799805	fix_post	2		12.0	80.0	2.5	/experiments/knapen_aot/videos/S_yt-8RmEimCI80g_35.mp4	0.0	306.0180060863495	0.09992694854736328
83	229.7987298965454	fix_pre	0		38.0	81.0	2.5	/experiments/knapen_aot/videos/R_S_pexels-c-technical-5771610.mp4	0.0	306.11793303489685	0.3167150020599365
83	230.10723185539246	response	0	2		81.0	2.5	/experiments/knapen_aot/videos/R_S_pexels-c-technical-5771610.mp4	0.0	306.4264349937439	
83	230.11544489860535	movie	1		198.0	81.0	2.5	/experiments/knapen_aot/videos/R_S_pexels-c-technical-5771610.mp4	0.0	306.4346480369568	2.5082809925079346
83	232.62372589111328	fix_post	2		12.0	81.0	2.5	/experiments/knapen_aot/videos/R_S_pexels-c-technical-5771610.mp4	0.0	308.9429290294647	0.10010695457458496
84	232.72383284568787	fix_pre	0		10.0	82.0	2.5	blank	1.0	309.0430359840393	0.08331108093261719
84	232.79890990257263	response	0	2		82.0	2.5	blank	1.0	309.1181130409241	
84	232.80714392662048	movie	1		301.0	82.0	2.5	blank	1.0	309.1263470649719	2.5082449913024902
84	234.26553893089294	response	1	2		82.0	2.5	blank	1.0	310.5847420692444	
84	235.13209795951843	response	1	2		82.0	2.5	blank	1.0	311.4513010978699	
84	235.31538891792297	fix_post	2		12.0	82.0	2.5	blank	1.0	311.6345920562744	0.10006213188171387
85	235.4154510498047	fix_pre	0		6.0	83.0	2.5	/experiments/knapen_aot/videos/S_yt-w_e3sxIzepA_27.mp4	0.0	311.7346541881561	0.05141282081604004
85	235.4499340057373	response	0	2		83.0	2.5	/experiments/knapen_aot/videos/S_yt-w_e3sxIzepA_27.mp4	0.0	311.76913714408875	
85	235.46686387062073	movie	1		301.0	83.0	2.5	/experiments/knapen_aot/videos/S_yt-w_e3sxIzepA_27.mp4	0.0	311.78606700897217	2.5069401264190674
85	237.37671184539795	response	1	2		83.0	2.5	/experiments/knapen_aot/videos/S_yt-w_e3sxIzepA_27.mp4	0.0	313.6959149837494	
85	237.9738039970398	fix_post	2		12.0	83.0	2.5	/experiments/knapen_aot/videos/S_yt-w_e3sxIzepA_27.mp4	0.0	314.29300713539124	0.09995102882385254
87	238.07375502586365	stim	0		398.0					314.3929581642151	3.3166818618774414
87	238.23217606544495	response	0	2						314.5513792037964	
87	239.7325918674469	response	0	return						316.05179500579834	
87	241.08212685585022	response	0	return						317.40132999420166	
87	241.38208389282227	response	0	space						317.7012870311737	
