trial_nr	onset	event_type	phase	response	nr_frames	movie_index	movie_duration	movie_file	blank	onset_abs	duration
0	0.15395689010620117	stim	0		101.0					621.454815864563	0.8375780582427979
0	0.9835569858551025	response	0	space						622.2844159603119	
1	0.991534948348999	stim	0		121.0					622.2923939228058	1.0082039833068848
1	1.9997389316558838	stim	1		120.0					623.3005979061127	0.9998741149902344
2	2.999613046646118	fix_pre	0		65.0	0.0	2.5	/experiments/knapen_aot/oldvideos/R_S_yt--vHa85DHvLU_31.mp4	0.0	624.3004720211029	0.5431358814239502
2	3.533094882965088	response	0	space		0.0	2.5	/experiments/knapen_aot/oldvideos/R_S_yt--vHa85DHvLU_31.mp4	0.0	624.8339538574219	
2	3.5427489280700684	movie	1		301.0	0.0	2.5	/experiments/knapen_aot/oldvideos/R_S_yt--vHa85DHvLU_31.mp4	0.0	624.8436079025269	2.50691294670105
2	6.049661874771118	fix_post	2		12.0	0.0	2.5	/experiments/knapen_aot/oldvideos/R_S_yt--vHa85DHvLU_31.mp4	0.0	627.3505208492279	0.0999901294708252
3	6.149652004241943	fix_pre	0		30.0	1.0	2.5	/experiments/knapen_aot/oldvideos/R_S_production_ID_4802710.mp4	0.0	627.4505109786987	0.249924898147583
3	6.388514995574951	response	0	2		1.0	2.5	/experiments/knapen_aot/oldvideos/R_S_production_ID_4802710.mp4	0.0	627.6893739700317	
3	6.399576902389526	movie	1		164.0	1.0	2.5	/experiments/knapen_aot/oldvideos/R_S_production_ID_4802710.mp4	0.0	627.7004358768463	2.5083680152893066
3	8.907944917678833	fix_post	2		12.0	1.0	2.5	/experiments/knapen_aot/oldvideos/R_S_production_ID_4802710.mp4	0.0	630.2088038921356	0.09998798370361328
4	9.007932901382446	fix_pre	0		178.0	2.0	2.5	/experiments/knapen_aot/oldvideos/R_S_yt-ni4JaYu7PhU_6.mp4	0.0	630.3087918758392	1.483267068862915
4	10.483062982559204	response	0	2		2.0	2.5	/experiments/knapen_aot/oldvideos/R_S_yt-ni4JaYu7PhU_6.mp4	0.0	631.783921957016	
4	10.491199970245361	movie	1		301.0	2.0	2.5	/experiments/knapen_aot/oldvideos/R_S_yt-ni4JaYu7PhU_6.mp4	0.0	631.7920589447021	2.5085160732269287
4	12.99971604347229	fix_post	2		12.0	2.0	2.5	/experiments/knapen_aot/oldvideos/R_S_yt-ni4JaYu7PhU_6.mp4	0.0	634.3005750179291	0.10009193420410156
5	13.099807977676392	fix_pre	0		20.0	3.0	2.5	/experiments/knapen_aot/oldvideos/R_S_yt-QFGyhhr1KSQ_9.mp4	0.0	634.4006669521332	0.16644597053527832
5	13.258065938949585	response	0	2		3.0	2.5	/experiments/knapen_aot/oldvideos/R_S_yt-QFGyhhr1KSQ_9.mp4	0.0	634.5589249134064	
5	13.26625394821167	movie	1		301.0	3.0	2.5	/experiments/knapen_aot/oldvideos/R_S_yt-QFGyhhr1KSQ_9.mp4	0.0	634.5671129226685	2.508341073989868
5	15.774595022201538	fix_post	2		12.0	3.0	2.5	/experiments/knapen_aot/oldvideos/R_S_yt-QFGyhhr1KSQ_9.mp4	0.0	637.0754539966583	0.09999895095825195
6	15.87459397315979	fix_pre	0		209.0	4.0	2.5	/experiments/knapen_aot/oldvideos/S_yt-AbJBxqEYoMg_27.mp4	0.0	637.1754529476166	1.7416059970855713
6	17.60796308517456	response	0	2		4.0	2.5	/experiments/knapen_aot/oldvideos/S_yt-AbJBxqEYoMg_27.mp4	0.0	638.9088220596313	
6	17.61619997024536	movie	1		301.0	4.0	2.5	/experiments/knapen_aot/oldvideos/S_yt-AbJBxqEYoMg_27.mp4	0.0	638.9170589447021	2.5084519386291504
6	20.12465190887451	fix_post	2		12.0	4.0	2.5	/experiments/knapen_aot/oldvideos/S_yt-AbJBxqEYoMg_27.mp4	0.0	641.4255108833313	0.09985804557800293
7	20.224509954452515	fix_pre	0		442.0	5.0	2.5	/experiments/knapen_aot/oldvideos/S_ILSVRC2015_train_00743001.mp4	0.0	641.5253689289093	3.683293104171753
7	23.899658918380737	response	0	2		5.0	2.5	/experiments/knapen_aot/oldvideos/S_ILSVRC2015_train_00743001.mp4	0.0	645.2005178928375	
7	23.907803058624268	movie	1		301.0	5.0	2.5	/experiments/knapen_aot/oldvideos/S_ILSVRC2015_train_00743001.mp4	0.0	645.208662033081	2.508413791656494
7	26.41621685028076	fix_post	2		12.0	5.0	2.5	/experiments/knapen_aot/oldvideos/S_ILSVRC2015_train_00743001.mp4	0.0	647.7170758247375	0.09998512268066406
8	26.516201972961426	fix_pre	0		22.0	6.0	2.5	blank	1.0	647.8170609474182	0.18328404426574707
8	26.691272974014282	response	0	2		6.0	2.5	blank	1.0	647.9921319484711	
8	26.699486017227173	movie	1		301.0	6.0	2.5	blank	1.0	648.000344991684	2.5084118843078613
8	29.207897901535034	fix_post	2		12.0	6.0	2.5	blank	1.0	650.5087568759918	0.10013604164123535
9	29.30803394317627	fix_pre	0		22.0	7.0	2.5	/experiments/knapen_aot/oldvideos/R_S_yt-wUqpCtBOFBA_89.mp4	0.0	650.608892917633	0.18315696716308594
9	29.48296308517456	response	0	2		7.0	2.5	/experiments/knapen_aot/oldvideos/R_S_yt-wUqpCtBOFBA_89.mp4	0.0	650.7838220596313	
9	29.491190910339355	movie	1		301.0	7.0	2.5	/experiments/knapen_aot/oldvideos/R_S_yt-wUqpCtBOFBA_89.mp4	0.0	650.7920498847961	2.5083210468292236
9	31.99951195716858	fix_post	2		12.0	7.0	2.5	/experiments/knapen_aot/oldvideos/R_S_yt-wUqpCtBOFBA_89.mp4	0.0	653.3003709316254	0.0999910831451416
10	32.09950304031372	fix_pre	0		76.0	8.0	2.5	/experiments/knapen_aot/oldvideos/R_S_WO9z7lBUvOs_151.mp4	0.0	653.4003620147705	0.633296012878418
10	32.72464108467102	response	0	2		8.0	2.5	/experiments/knapen_aot/oldvideos/R_S_WO9z7lBUvOs_151.mp4	0.0	654.0255000591278	
10	32.73279905319214	movie	1		301.0	8.0	2.5	/experiments/knapen_aot/oldvideos/R_S_WO9z7lBUvOs_151.mp4	0.0	654.0336580276489	2.5083909034729004
10	35.24118995666504	fix_post	2		12.0	8.0	2.5	/experiments/knapen_aot/oldvideos/R_S_WO9z7lBUvOs_151.mp4	0.0	656.5420489311218	0.09997105598449707
11	35.341161012649536	fix_pre	0		181.0	9.0	2.5	/experiments/knapen_aot/oldvideos/S_yt-EAMpitsjbbA_153.mp4	0.0	656.6420199871063	1.5082838535308838
11	36.84125590324402	response	0	2		9.0	2.5	/experiments/knapen_aot/oldvideos/S_yt-EAMpitsjbbA_153.mp4	0.0	658.1421148777008	
11	36.84944486618042	movie	1		301.0	9.0	2.5	/experiments/knapen_aot/oldvideos/S_yt-EAMpitsjbbA_153.mp4	0.0	658.1503038406372	2.508467197418213
11	39.35791206359863	fix_post	2		12.0	9.0	2.5	/experiments/knapen_aot/oldvideos/S_yt-EAMpitsjbbA_153.mp4	0.0	660.6587710380554	0.0998528003692627
12	39.457764863967896	fix_pre	0		85.0	10.0	2.5	/experiments/knapen_aot/oldvideos/R_S_ILSVRC2015_train_00745000.mp4	0.0	660.7586238384247	0.7083561420440674
12	40.15037202835083	response	0	2		10.0	2.5	/experiments/knapen_aot/oldvideos/R_S_ILSVRC2015_train_00745000.mp4	0.0	661.4512310028076	
12	40.16612100601196	movie	1		301.0	10.0	2.5	/experiments/knapen_aot/oldvideos/R_S_ILSVRC2015_train_00745000.mp4	0.0	661.4669799804688	2.5083298683166504
12	42.67445087432861	fix_post	2		12.0	10.0	2.5	/experiments/knapen_aot/oldvideos/R_S_ILSVRC2015_train_00745000.mp4	0.0	663.9753098487854	0.1000361442565918
13	42.774487018585205	fix_pre	0		360.0	11.0	2.5	/experiments/knapen_aot/oldvideos/R_S_yt-ZwnliF0525U_95.mp4	0.0	664.075345993042	2.999945878982544
13	45.76626396179199	response	0	2		11.0	2.5	/experiments/knapen_aot/oldvideos/R_S_yt-ZwnliF0525U_95.mp4	0.0	667.0671229362488	
13	45.77443289756775	movie	1		301.0	11.0	2.5	/experiments/knapen_aot/oldvideos/R_S_yt-ZwnliF0525U_95.mp4	0.0	667.0752918720245	2.5084950923919678
13	48.28292798995972	fix_post	2		12.0	11.0	2.5	/experiments/knapen_aot/oldvideos/R_S_yt-ZwnliF0525U_95.mp4	0.0	669.5837869644165	0.09984397888183594
14	48.38277196884155	fix_pre	0		133.0	12.0	2.5	blank	1.0	669.6836309432983	1.108227014541626
14	49.4752938747406	response	0	2		12.0	2.5	blank	1.0	670.7761528491974	
14	49.49099898338318	movie	1		301.0	12.0	2.5	blank	1.0	670.79185795784	2.5084710121154785
14	51.99946999549866	fix_post	2		12.0	12.0	2.5	blank	1.0	673.3003289699554	0.09994792938232422
15	52.09941792488098	fix_pre	0		27.0	13.0	2.5	/experiments/knapen_aot/oldvideos/R_S_yt-7W50lcw5FCo_37.mp4	0.0	673.4002768993378	0.22493314743041992
15	52.31619095802307	response	0	2		13.0	2.5	/experiments/knapen_aot/oldvideos/R_S_yt-7W50lcw5FCo_37.mp4	0.0	673.6170499324799	
15	52.3243510723114	movie	1		301.0	13.0	2.5	/experiments/knapen_aot/oldvideos/R_S_yt-7W50lcw5FCo_37.mp4	0.0	673.6252100467682	2.5084309577941895
15	54.83278203010559	fix_post	2		12.0	13.0	2.5	/experiments/knapen_aot/oldvideos/R_S_yt-7W50lcw5FCo_37.mp4	0.0	676.1336410045624	0.09998488426208496
16	54.932766914367676	fix_pre	0		415.0	14.0	2.5	/experiments/knapen_aot/oldvideos/S_yt--_ZMybcaUOw_254.mp4	0.0	676.2336258888245	3.4582440853118896
16	58.38288187980652	response	0	2		14.0	2.5	/experiments/knapen_aot/oldvideos/S_yt--_ZMybcaUOw_254.mp4	0.0	679.6837408542633	
16	58.391010999679565	movie	1		301.0	14.0	2.5	/experiments/knapen_aot/oldvideos/S_yt--_ZMybcaUOw_254.mp4	0.0	679.6918699741364	2.5083529949188232
16	60.89936399459839	fix_post	2		12.0	14.0	2.5	/experiments/knapen_aot/oldvideos/S_yt--_ZMybcaUOw_254.mp4	0.0	682.2002229690552	0.10109591484069824
17	61.00045990943909	fix_pre	0		26.0	15.0	2.5	/experiments/knapen_aot/oldvideos/R_S_ux8Mvi8P16k_168.mp4	0.0	682.3013188838959	0.2155451774597168
17	61.20785093307495	response	0	2		15.0	2.5	/experiments/knapen_aot/oldvideos/R_S_ux8Mvi8P16k_168.mp4	0.0	682.5087099075317	
17	61.216005086898804	movie	1		301.0	15.0	2.5	/experiments/knapen_aot/oldvideos/R_S_ux8Mvi8P16k_168.mp4	0.0	682.5168640613556	2.5084068775177
17	63.724411964416504	fix_post	2		12.0	15.0	2.5	/experiments/knapen_aot/oldvideos/R_S_ux8Mvi8P16k_168.mp4	0.0	685.0252709388733	0.0999610424041748
18	63.82437300682068	fix_pre	0		18.0	16.0	2.5	/experiments/knapen_aot/oldvideos/S_yt-4i1b6NQ9NKs_5.mp4	0.0	685.1252319812775	0.1583268642425537
18	63.96612596511841	response	0	2		16.0	2.5	/experiments/knapen_aot/oldvideos/S_yt-4i1b6NQ9NKs_5.mp4	0.0	685.2669849395752	
18	63.98269987106323	movie	1		300.0	16.0	2.5	/experiments/knapen_aot/oldvideos/S_yt-4i1b6NQ9NKs_5.mp4	0.0	685.28355884552	2.499994993209839
18	66.48269486427307	fix_post	2		12.0	16.0	2.5	/experiments/knapen_aot/oldvideos/S_yt-4i1b6NQ9NKs_5.mp4	0.0	687.7835538387299	0.1000831127166748
19	66.58277797698975	fix_pre	0		179.0	17.0	2.5	/experiments/knapen_aot/oldvideos/S_ILSVRC2015_train_00415007.mp4	0.0	687.8836369514465	1.4915499687194824
19	68.06616497039795	response	0	2		17.0	2.5	/experiments/knapen_aot/oldvideos/S_ILSVRC2015_train_00415007.mp4	0.0	689.3670239448547	
19	68.07432794570923	movie	1		301.0	17.0	2.5	/experiments/knapen_aot/oldvideos/S_ILSVRC2015_train_00415007.mp4	0.0	689.375186920166	2.5084469318389893
19	70.58277487754822	fix_post	2		12.0	17.0	2.5	/experiments/knapen_aot/oldvideos/S_ILSVRC2015_train_00415007.mp4	0.0	691.883633852005	0.09991216659545898
20	70.68268704414368	fix_pre	0		27.0	18.0	2.5	/experiments/knapen_aot/oldvideos/S_yt-06XMUn9DTKc_35.mp4	0.0	691.9835460186005	0.2249889373779297
20	70.89942693710327	response	0	2		18.0	2.5	/experiments/knapen_aot/oldvideos/S_yt-06XMUn9DTKc_35.mp4	0.0	692.2002859115601	
20	70.9076759815216	movie	1		301.0	18.0	2.5	/experiments/knapen_aot/oldvideos/S_yt-06XMUn9DTKc_35.mp4	0.0	692.2085349559784	2.5083250999450684
20	73.41600108146667	fix_post	2		12.0	18.0	2.5	/experiments/knapen_aot/oldvideos/S_yt-06XMUn9DTKc_35.mp4	0.0	694.7168600559235	0.09999799728393555
21	73.51599907875061	fix_pre	0		197.0	19.0	2.5	/experiments/knapen_aot/oldvideos/R_S_ILSVRC2015_train_00066005.mp4	0.0	694.8168580532074	1.6415817737579346
21	75.14944887161255	response	0	2		19.0	2.5	/experiments/knapen_aot/oldvideos/R_S_ILSVRC2015_train_00066005.mp4	0.0	696.4503078460693	
21	75.15758085250854	movie	1		301.0	19.0	2.5	/experiments/knapen_aot/oldvideos/R_S_ILSVRC2015_train_00066005.mp4	0.0	696.4584398269653	2.5084781646728516
21	77.6660590171814	fix_post	2		12.0	19.0	2.5	/experiments/knapen_aot/oldvideos/R_S_ILSVRC2015_train_00066005.mp4	0.0	698.9669179916382	0.09998703002929688
22	77.7660460472107	fix_pre	0		23.0	20.0	2.5	blank	1.0	699.0669050216675	0.19159603118896484
22	77.94931507110596	response	0	2		20.0	2.5	blank	1.0	699.2501740455627	
22	77.95764207839966	movie	1		301.0	20.0	2.5	blank	1.0	699.2585010528564	2.5083208084106445
22	80.4659628868103	fix_post	2		12.0	20.0	2.5	blank	1.0	701.7668218612671	0.10000801086425781
23	80.56597089767456	fix_pre	0		23.0	21.0	2.5	/experiments/knapen_aot/oldvideos/R_S_gHYomsO1dSU_5.mp4	0.0	701.8668298721313	0.19162201881408691
23	80.74936008453369	response	0	2		21.0	2.5	/experiments/knapen_aot/oldvideos/R_S_gHYomsO1dSU_5.mp4	0.0	702.0502190589905	
23	80.75759291648865	movie	1		301.0	21.0	2.5	/experiments/knapen_aot/oldvideos/R_S_gHYomsO1dSU_5.mp4	0.0	702.0584518909454	2.508384943008423
23	83.26597785949707	fix_post	2		12.0	21.0	2.5	/experiments/knapen_aot/oldvideos/R_S_gHYomsO1dSU_5.mp4	0.0	704.5668368339539	0.10001802444458008
24	83.36599588394165	fix_pre	0		11.0	22.0	2.5	/experiments/knapen_aot/oldvideos/S_yt-mdxs8FCKLFc_232.mp4	0.0	704.6668548583984	0.09266519546508789
24	83.44936203956604	response	0	4		22.0	2.5	/experiments/knapen_aot/oldvideos/S_yt-mdxs8FCKLFc_232.mp4	0.0	704.7502210140228	
24	83.45866107940674	movie	1		301.0	22.0	2.5	/experiments/knapen_aot/oldvideos/S_yt-mdxs8FCKLFc_232.mp4	0.0	704.7595200538635	2.5072808265686035
24	85.96594190597534	fix_post	2		12.0	22.0	2.5	/experiments/knapen_aot/oldvideos/S_yt-mdxs8FCKLFc_232.mp4	0.0	707.2668008804321	0.09995698928833008
25	86.06589889526367	fix_pre	0		15.0	23.0	2.5	/experiments/knapen_aot/oldvideos/R_S_wc-_W9iefBXz8bi_23.mp4	0.0	707.3667578697205	0.12499499320983887
25	86.18261003494263	response	0	2		23.0	2.5	/experiments/knapen_aot/oldvideos/R_S_wc-_W9iefBXz8bi_23.mp4	0.0	707.4834690093994	
25	86.19089388847351	movie	1		164.0	23.0	2.5	/experiments/knapen_aot/oldvideos/R_S_wc-_W9iefBXz8bi_23.mp4	0.0	707.4917528629303	2.508371114730835
25	88.69926500320435	fix_post	2		12.0	23.0	2.5	/experiments/knapen_aot/oldvideos/R_S_wc-_W9iefBXz8bi_23.mp4	0.0	710.0001239776611	0.10002589225769043
26	88.79929089546204	fix_pre	0		19.0	24.0	2.5	/experiments/knapen_aot/oldvideos/R_S_yt-tMP5WhHMtWE_55.mp4	0.0	710.1001498699188	0.15924310684204102
26	88.94933485984802	response	0	4		24.0	2.5	/experiments/knapen_aot/oldvideos/R_S_yt-tMP5WhHMtWE_55.mp4	0.0	710.2501938343048	
26	88.95853400230408	movie	1		301.0	24.0	2.5	/experiments/knapen_aot/oldvideos/R_S_yt-tMP5WhHMtWE_55.mp4	0.0	710.2593929767609	2.5074050426483154
26	91.46593904495239	fix_post	2		12.0	24.0	2.5	/experiments/knapen_aot/oldvideos/R_S_yt-tMP5WhHMtWE_55.mp4	0.0	712.7667980194092	0.09998798370361328
27	91.565927028656	fix_pre	0		160.0	25.0	2.5	/experiments/knapen_aot/oldvideos/R_S_yt-mI9voWol7cE_104.mp4	0.0	712.8667860031128	1.3332688808441162
27	92.89101791381836	response	0	2		25.0	2.5	/experiments/knapen_aot/oldvideos/R_S_yt-mI9voWol7cE_104.mp4	0.0	714.1918768882751	
27	92.89919590950012	movie	1		301.0	25.0	2.5	/experiments/knapen_aot/oldvideos/R_S_yt-mI9voWol7cE_104.mp4	0.0	714.2000548839569	2.5087461471557617
27	95.40794205665588	fix_post	2		12.0	25.0	2.5	/experiments/knapen_aot/oldvideos/R_S_yt-mI9voWol7cE_104.mp4	0.0	716.7088010311127	0.09961986541748047
28	95.50756192207336	fix_pre	0		32.0	26.0	2.5	/experiments/knapen_aot/oldvideos/S_yt-wz2opOBqClo_14.mp4	0.0	716.8084208965302	0.2665679454803467
28	95.75839185714722	response	0	2		26.0	2.5	/experiments/knapen_aot/oldvideos/S_yt-wz2opOBqClo_14.mp4	0.0	717.059250831604	
28	95.77412986755371	movie	1		301.0	26.0	2.5	/experiments/knapen_aot/oldvideos/S_yt-wz2opOBqClo_14.mp4	0.0	717.0749888420105	2.5084850788116455
28	98.28261494636536	fix_post	2		12.0	26.0	2.5	/experiments/knapen_aot/oldvideos/S_yt-wz2opOBqClo_14.mp4	0.0	719.5834739208221	0.0999000072479248
29	98.38251495361328	fix_pre	0		153.0	27.0	2.5	blank	1.0	719.6833739280701	1.2749879360198975
29	99.6492669582367	response	0	4		27.0	2.5	blank	1.0	720.9501259326935	
29	99.65750288963318	movie	1		301.0	27.0	2.5	blank	1.0	720.95836186409	2.508458137512207
29	102.16596102714539	fix_post	2		12.0	27.0	2.5	blank	1.0	723.4668200016022	0.09992003440856934
30	102.26588106155396	fix_pre	0		30.0	28.0	2.5	/experiments/knapen_aot/oldvideos/S_yt-vjed5qyKqZw_1.mp4	0.0	723.5667400360107	0.24991488456726074
30	102.50763702392578	response	0	4		28.0	2.5	/experiments/knapen_aot/oldvideos/S_yt-vjed5qyKqZw_1.mp4	0.0	723.8084959983826	
30	102.51579594612122	movie	1		301.0	28.0	2.5	/experiments/knapen_aot/oldvideos/S_yt-vjed5qyKqZw_1.mp4	0.0	723.816654920578	2.5084989070892334
30	105.02429485321045	fix_post	2		12.0	28.0	2.5	/experiments/knapen_aot/oldvideos/S_yt-vjed5qyKqZw_1.mp4	0.0	726.3251538276672	0.09999322891235352
31	105.1242880821228	fix_pre	0		7.0	29.0	2.5	/experiments/knapen_aot/oldvideos/R_S_yt-0aHV3uU8xFY_75.mp4	0.0	726.4251470565796	0.05820798873901367
31	105.16674208641052	response	0	2		29.0	2.5	/experiments/knapen_aot/oldvideos/R_S_yt-0aHV3uU8xFY_75.mp4	0.0	726.4676010608673	
31	105.18249607086182	movie	1		301.0	29.0	2.5	/experiments/knapen_aot/oldvideos/R_S_yt-0aHV3uU8xFY_75.mp4	0.0	726.4833550453186	2.5083580017089844
31	107.6908540725708	fix_post	2		12.0	29.0	2.5	/experiments/knapen_aot/oldvideos/R_S_yt-0aHV3uU8xFY_75.mp4	0.0	728.9917130470276	0.10000801086425781
32	107.79086208343506	fix_pre	0		12.0	30.0	2.5	/experiments/knapen_aot/oldvideos/S_yt-Q5wYs9vSzlA_30.mp4	0.0	729.0917210578918	0.09997677803039551
32	107.88261699676514	response	0	4		30.0	2.5	/experiments/knapen_aot/oldvideos/S_yt-Q5wYs9vSzlA_30.mp4	0.0	729.1834759712219	
32	107.89083886146545	movie	1		301.0	30.0	2.5	/experiments/knapen_aot/oldvideos/S_yt-Q5wYs9vSzlA_30.mp4	0.0	729.1916978359222	2.5082530975341797
32	110.39909195899963	fix_post	2		12.0	30.0	2.5	/experiments/knapen_aot/oldvideos/S_yt-Q5wYs9vSzlA_30.mp4	0.0	731.6999509334564	0.10014796257019043
33	110.49923992156982	fix_pre	0		25.0	31.0	2.5	/experiments/knapen_aot/oldvideos/S_nPwtvvPgdNc_39.mp4	0.0	731.8000988960266	0.20902299880981445
33	110.69929003715515	response	0	2		31.0	2.5	/experiments/knapen_aot/oldvideos/S_nPwtvvPgdNc_39.mp4	0.0	732.0001490116119	
33	110.70826292037964	movie	1		301.0	31.0	2.5	/experiments/knapen_aot/oldvideos/S_nPwtvvPgdNc_39.mp4	0.0	732.0091218948364	2.507615089416504
33	113.21587800979614	fix_post	2		12.0	31.0	2.5	/experiments/knapen_aot/oldvideos/S_nPwtvvPgdNc_39.mp4	0.0	734.5167369842529	0.10004091262817383
34	113.31591892242432	fix_pre	0		212.0	32.0	2.5	/experiments/knapen_aot/oldvideos/R_S_yt-G_eNNzNB-hU_1.mp4	0.0	734.6167778968811	1.7673780918121338
34	115.07428407669067	response	0	4		32.0	2.5	/experiments/knapen_aot/oldvideos/R_S_yt-G_eNNzNB-hU_1.mp4	0.0	736.3751430511475	
34	115.08329701423645	movie	1		301.0	32.0	2.5	/experiments/knapen_aot/oldvideos/R_S_yt-G_eNNzNB-hU_1.mp4	0.0	736.3841559886932	2.5078940391540527
34	117.5911910533905	fix_post	2		12.0	32.0	2.5	/experiments/knapen_aot/oldvideos/R_S_yt-G_eNNzNB-hU_1.mp4	0.0	738.8920500278473	0.0996558666229248
35	117.69084692001343	fix_pre	0		5.0	33.0	2.5	/experiments/knapen_aot/oldvideos/R_S_yt-TSSPDwAQLXs_158.mp4	0.0	738.9917058944702	0.0415959358215332
35	117.72427701950073	response	0	4		33.0	2.5	/experiments/knapen_aot/oldvideos/R_S_yt-TSSPDwAQLXs_158.mp4	0.0	739.0251359939575	
35	117.73244285583496	movie	1		301.0	33.0	2.5	/experiments/knapen_aot/oldvideos/R_S_yt-TSSPDwAQLXs_158.mp4	0.0	739.0333018302917	2.5083630084991455
35	120.2408058643341	fix_post	2		12.0	33.0	2.5	/experiments/knapen_aot/oldvideos/R_S_yt-TSSPDwAQLXs_158.mp4	0.0	741.5416648387909	0.09999799728393555
36	120.34080386161804	fix_pre	0		153.0	34.0	2.5	blank	1.0	741.6416628360748	1.2749171257019043
36	121.60757899284363	response	0	2		34.0	2.5	blank	1.0	742.9084379673004	
36	121.61572098731995	movie	1		301.0	34.0	2.5	blank	1.0	742.9165799617767	2.50844407081604
36	124.12416505813599	fix_post	2		12.0	34.0	2.5	blank	1.0	745.4250240325928	0.09999585151672363
37	124.22416090965271	fix_pre	0		68.0	35.0	2.5	/experiments/knapen_aot/oldvideos/R_S_ILSVRC2015_train_00415007.mp4	0.0	745.5250198841095	0.5674500465393066
37	124.7825448513031	response	0	2		35.0	2.5	/experiments/knapen_aot/oldvideos/R_S_ILSVRC2015_train_00415007.mp4	0.0	746.0834038257599	
37	124.79161095619202	movie	1		301.0	35.0	2.5	/experiments/knapen_aot/oldvideos/R_S_ILSVRC2015_train_00415007.mp4	0.0	746.0924699306488	2.5074880123138428
37	127.29909896850586	fix_post	2		12.0	35.0	2.5	/experiments/knapen_aot/oldvideos/R_S_ILSVRC2015_train_00415007.mp4	0.0	748.5999579429626	0.10001111030578613
38	127.39911007881165	fix_pre	0		25.0	36.0	2.5	/experiments/knapen_aot/oldvideos/S_flickr-reginahart-31964450591_23.mp4	0.0	748.6999690532684	0.2082369327545166
38	127.5991599559784	response	0	2		36.0	2.5	/experiments/knapen_aot/oldvideos/S_flickr-reginahart-31964450591_23.mp4	0.0	748.9000189304352	
38	127.60734701156616	movie	1		176.0	36.0	2.5	/experiments/knapen_aot/oldvideos/S_flickr-reginahart-31964450591_23.mp4	0.0	748.908205986023	2.5084359645843506
38	130.1157829761505	fix_post	2		12.0	36.0	2.5	/experiments/knapen_aot/oldvideos/S_flickr-reginahart-31964450591_23.mp4	0.0	751.4166419506073	0.09997296333312988
39	130.21575593948364	fix_pre	0		240.0	37.0	2.5	/experiments/knapen_aot/oldvideos/R_S_yt-4x2eUikn9rw_212.mp4	0.0	751.5166149139404	1.9999480247497559
39	132.207515001297	response	0	2		37.0	2.5	/experiments/knapen_aot/oldvideos/R_S_yt-4x2eUikn9rw_212.mp4	0.0	753.5083739757538	
39	132.2157039642334	movie	1		301.0	37.0	2.5	/experiments/knapen_aot/oldvideos/R_S_yt-4x2eUikn9rw_212.mp4	0.0	753.5165629386902	2.5083909034729004
39	134.7240948677063	fix_post	2		12.0	37.0	2.5	/experiments/knapen_aot/oldvideos/R_S_yt-4x2eUikn9rw_212.mp4	0.0	756.0249538421631	0.0999441146850586
40	134.82403898239136	fix_pre	0		36.0	38.0	2.5	/experiments/knapen_aot/oldvideos/R_S_video_inspire_italy_como_cerano-dintelvi_006.1080-h264.mp4	0.0	756.1248979568481	0.3006479740142822
40	135.11585092544556	response	0	4		38.0	2.5	/experiments/knapen_aot/oldvideos/R_S_video_inspire_italy_como_cerano-dintelvi_006.1080-h264.mp4	0.0	756.4167098999023	
40	135.12468695640564	movie	1		166.0	38.0	2.5	/experiments/knapen_aot/oldvideos/R_S_video_inspire_italy_como_cerano-dintelvi_006.1080-h264.mp4	0.0	756.4255459308624	2.5076889991760254
40	137.63237595558167	fix_post	2		12.0	38.0	2.5	/experiments/knapen_aot/oldvideos/R_S_video_inspire_italy_como_cerano-dintelvi_006.1080-h264.mp4	0.0	758.9332349300385	0.1000211238861084
41	137.73239707946777	fix_pre	0		81.0	39.0	2.5	/experiments/knapen_aot/oldvideos/R_S_yt-YyKEeu2gLrI_158.mp4	0.0	759.0332560539246	0.6749439239501953
41	138.39914894104004	response	0	4		39.0	2.5	/experiments/knapen_aot/oldvideos/R_S_yt-YyKEeu2gLrI_158.mp4	0.0	759.7000079154968	
41	138.40734100341797	movie	1		301.0	39.0	2.5	/experiments/knapen_aot/oldvideos/R_S_yt-YyKEeu2gLrI_158.mp4	0.0	759.7081999778748	2.508563995361328
41	140.9159049987793	fix_post	2		12.0	39.0	2.5	/experiments/knapen_aot/oldvideos/R_S_yt-YyKEeu2gLrI_158.mp4	0.0	762.2167639732361	0.09982991218566895
42	141.01573491096497	fix_pre	0		26.0	40.0	2.5	/experiments/knapen_aot/oldvideos/R_S_yt-2y6A9DJPsDU_65.mp4	0.0	762.3165938854218	0.21656298637390137
42	141.22413206100464	response	0	4		40.0	2.5	/experiments/knapen_aot/oldvideos/R_S_yt-2y6A9DJPsDU_65.mp4	0.0	762.5249910354614	
42	141.23229789733887	movie	1		301.0	40.0	2.5	/experiments/knapen_aot/oldvideos/R_S_yt-2y6A9DJPsDU_65.mp4	0.0	762.5331568717957	2.5084409713745117
42	143.74073886871338	fix_post	2		12.0	40.0	2.5	/experiments/knapen_aot/oldvideos/R_S_yt-2y6A9DJPsDU_65.mp4	0.0	765.0415978431702	0.10001611709594727
43	143.84075498580933	fix_pre	0		23.0	41.0	2.5	/experiments/knapen_aot/oldvideos/R_S_yt-06XMUn9DTKc_35.mp4	0.0	765.1416139602661	0.19154906272888184
43	144.02410888671875	response	0	2		41.0	2.5	/experiments/knapen_aot/oldvideos/R_S_yt-06XMUn9DTKc_35.mp4	0.0	765.3249678611755	
43	144.0323040485382	movie	1		301.0	41.0	2.5	/experiments/knapen_aot/oldvideos/R_S_yt-06XMUn9DTKc_35.mp4	0.0	765.333163022995	2.5084500312805176
43	146.54075407981873	fix_post	2		12.0	41.0	2.5	/experiments/knapen_aot/oldvideos/R_S_yt-06XMUn9DTKc_35.mp4	0.0	767.8416130542755	0.0999147891998291
44	146.64066886901855	fix_pre	0		10.0	42.0	2.5	blank	1.0	767.9415278434753	0.0832831859588623
44	146.7157609462738	response	0	2		42.0	2.5	blank	1.0	768.0166199207306	
44	146.72395205497742	movie	1		301.0	42.0	2.5	blank	1.0	768.0248110294342	2.508417844772339
44	149.23236989974976	fix_post	2		12.0	42.0	2.5	blank	1.0	770.5332288742065	0.09991598129272461
45	149.33228588104248	fix_pre	0		279.0	43.0	2.5	/experiments/knapen_aot/oldvideos/R_S_yt-PK-Eip9wFr0_24.mp4	0.0	770.6331448554993	2.3249330520629883
45	151.64908695220947	response	0	2		43.0	2.5	/experiments/knapen_aot/oldvideos/R_S_yt-PK-Eip9wFr0_24.mp4	0.0	772.9499459266663	
45	151.65721893310547	movie	1		301.0	43.0	2.5	/experiments/knapen_aot/oldvideos/R_S_yt-PK-Eip9wFr0_24.mp4	0.0	772.9580779075623	2.5084221363067627
45	154.16564106941223	fix_post	2		12.0	43.0	2.5	/experiments/knapen_aot/oldvideos/R_S_yt-PK-Eip9wFr0_24.mp4	0.0	775.466500043869	0.09998393058776855
46	154.265625	fix_pre	0		20.0	44.0	2.5	/experiments/knapen_aot/oldvideos/R_S_OdxWh1oU8e8_1.mp4	0.0	775.5664839744568	0.16664600372314453
46	154.42413187026978	response	0	2		44.0	2.5	/experiments/knapen_aot/oldvideos/R_S_OdxWh1oU8e8_1.mp4	0.0	775.7249908447266	
46	154.43227100372314	movie	1		301.0	44.0	2.5	/experiments/knapen_aot/oldvideos/R_S_OdxWh1oU8e8_1.mp4	0.0	775.7331299781799	2.508352041244507
46	156.94062304496765	fix_post	2		12.0	44.0	2.5	/experiments/knapen_aot/oldvideos/R_S_OdxWh1oU8e8_1.mp4	0.0	778.2414820194244	0.10000395774841309
47	157.04062700271606	fix_pre	0		39.0	45.0	2.5	/experiments/knapen_aot/oldvideos/S_yt--C2DDZ7LOQA_95.mp4	0.0	778.3414859771729	0.32491207122802734
47	157.35729694366455	response	0	4		45.0	2.5	/experiments/knapen_aot/oldvideos/S_yt--C2DDZ7LOQA_95.mp4	0.0	778.6581559181213	
47	157.3655390739441	movie	1		301.0	45.0	2.5	/experiments/knapen_aot/oldvideos/S_yt--C2DDZ7LOQA_95.mp4	0.0	778.6663980484009	2.5084028244018555
47	159.87394189834595	fix_post	2		12.0	45.0	2.5	/experiments/knapen_aot/oldvideos/S_yt--C2DDZ7LOQA_95.mp4	0.0	781.1748008728027	0.1000051498413086
48	159.97394704818726	fix_pre	0		31.0	46.0	2.5	/experiments/knapen_aot/oldvideos/S_yt-Ev39pXXfr1Y_152.mp4	0.0	781.274806022644	0.2583498954772949
48	160.22405290603638	response	0	4		46.0	2.5	/experiments/knapen_aot/oldvideos/S_yt-Ev39pXXfr1Y_152.mp4	0.0	781.5249118804932	
48	160.23229694366455	movie	1		301.0	46.0	2.5	/experiments/knapen_aot/oldvideos/S_yt-Ev39pXXfr1Y_152.mp4	0.0	781.5331559181213	2.508341073989868
48	162.74063801765442	fix_post	2		12.0	46.0	2.5	/experiments/knapen_aot/oldvideos/S_yt-Ev39pXXfr1Y_152.mp4	0.0	784.0414969921112	0.0999610424041748
49	162.8405990600586	fix_pre	0		158.0	47.0	2.5	/experiments/knapen_aot/oldvideos/R_S_yt-RVoC19C420Y_27.mp4	0.0	784.1414580345154	1.3166038990020752
49	164.14912104606628	response	0	4		47.0	2.5	/experiments/knapen_aot/oldvideos/R_S_yt-RVoC19C420Y_27.mp4	0.0	785.4499800205231	
49	164.15720295906067	movie	1		301.0	47.0	2.5	/experiments/knapen_aot/oldvideos/R_S_yt-RVoC19C420Y_27.mp4	0.0	785.4580619335175	2.508673906326294
49	166.66587686538696	fix_post	2		12.0	47.0	2.5	/experiments/knapen_aot/oldvideos/R_S_yt-RVoC19C420Y_27.mp4	0.0	787.9667358398438	0.09974503517150879
50	166.76562190055847	fix_pre	0		28.0	48.0	2.5	/experiments/knapen_aot/oldvideos/S_yt-YyKEeu2gLrI_158.mp4	0.0	788.0664808750153	0.23401904106140137
50	166.99067187309265	response	0	4		48.0	2.5	/experiments/knapen_aot/oldvideos/S_yt-YyKEeu2gLrI_158.mp4	0.0	788.2915308475494	
50	166.99964094161987	movie	1		301.0	48.0	2.5	/experiments/knapen_aot/oldvideos/S_yt-YyKEeu2gLrI_158.mp4	0.0	788.3004999160767	2.5075910091400146
50	169.5072319507599	fix_post	2		12.0	48.0	2.5	/experiments/knapen_aot/oldvideos/S_yt-YyKEeu2gLrI_158.mp4	0.0	790.8080909252167	0.10019993782043457
51	169.60743188858032	fix_pre	0		201.0	49.0	2.5	blank	1.0	790.9082908630371	1.6746830940246582
51	171.27404403686523	response	0	4		49.0	2.5	blank	1.0	792.574903011322	
51	171.28211498260498	movie	1		301.0	49.0	2.5	blank	1.0	792.5829739570618	2.5084428787231445
51	173.79055786132812	fix_post	2		12.0	49.0	2.5	blank	1.0	795.0914168357849	0.10021209716796875
52	173.8907699584961	fix_pre	0		20.0	50.0	2.5	/experiments/knapen_aot/oldvideos/R_S_yt--C2DDZ7LOQA_95.mp4	0.0	795.1916289329529	0.16646909713745117
52	174.04886388778687	response	0	4		50.0	2.5	/experiments/knapen_aot/oldvideos/R_S_yt--C2DDZ7LOQA_95.mp4	0.0	795.3497228622437	
52	174.05723905563354	movie	1		301.0	50.0	2.5	/experiments/knapen_aot/oldvideos/R_S_yt--C2DDZ7LOQA_95.mp4	0.0	795.3580980300903	2.5083038806915283
52	176.56554293632507	fix_post	2		12.0	50.0	2.5	/experiments/knapen_aot/oldvideos/R_S_yt--C2DDZ7LOQA_95.mp4	0.0	797.8664019107819	0.09995412826538086
53	176.66549706459045	fix_pre	0		13.0	51.0	2.5	/experiments/knapen_aot/oldvideos/R_S_yt-xSGPe0KemD4_384.mp4	0.0	797.9663560390472	0.1082918643951416
53	176.76560306549072	response	0	4		51.0	2.5	/experiments/knapen_aot/oldvideos/R_S_yt-xSGPe0KemD4_384.mp4	0.0	798.0664620399475	
53	176.7737889289856	movie	1		301.0	51.0	2.5	/experiments/knapen_aot/oldvideos/R_S_yt-xSGPe0KemD4_384.mp4	0.0	798.0746479034424	2.508512020111084
53	179.28230094909668	fix_post	2		12.0	51.0	2.5	/experiments/knapen_aot/oldvideos/R_S_yt-xSGPe0KemD4_384.mp4	0.0	800.5831599235535	0.09993791580200195
54	179.38223886489868	fix_pre	0		18.0	52.0	2.5	/experiments/knapen_aot/oldvideos/R_S_yt-EAMpitsjbbA_153.mp4	0.0	800.6830978393555	0.14987802505493164
54	179.52396488189697	response	0	4		52.0	2.5	/experiments/knapen_aot/oldvideos/R_S_yt-EAMpitsjbbA_153.mp4	0.0	800.8248238563538	
54	179.5321168899536	movie	1		301.0	52.0	2.5	/experiments/knapen_aot/oldvideos/R_S_yt-EAMpitsjbbA_153.mp4	0.0	800.8329758644104	2.5084850788116455
54	182.04060196876526	fix_post	2		12.0	52.0	2.5	/experiments/knapen_aot/oldvideos/R_S_yt-EAMpitsjbbA_153.mp4	0.0	803.341460943222	0.09992194175720215
55	182.14052391052246	fix_pre	0		27.0	53.0	2.5	/experiments/knapen_aot/oldvideos/S_yt-kiEFK7bDssE_14.mp4	0.0	803.4413828849792	0.22490715980529785
55	182.35725593566895	response	0	2		53.0	2.5	/experiments/knapen_aot/oldvideos/S_yt-kiEFK7bDssE_14.mp4	0.0	803.6581149101257	
55	182.36543107032776	movie	1		301.0	53.0	2.5	/experiments/knapen_aot/oldvideos/S_yt-kiEFK7bDssE_14.mp4	0.0	803.6662900447845	2.5084049701690674
55	184.87383604049683	fix_post	2		12.0	53.0	2.5	/experiments/knapen_aot/oldvideos/S_yt-kiEFK7bDssE_14.mp4	0.0	806.1746950149536	0.10002493858337402
56	184.9738609790802	fix_pre	0		48.0	54.0	2.5	/experiments/knapen_aot/oldvideos/S_ILSVRC2015_train_00371006.mp4	0.0	806.274719953537	0.4003469944000244
56	185.3656358718872	response	0	2		54.0	2.5	/experiments/knapen_aot/oldvideos/S_ILSVRC2015_train_00371006.mp4	0.0	806.666494846344	
56	185.37420797348022	movie	1		301.0	54.0	2.5	/experiments/knapen_aot/oldvideos/S_ILSVRC2015_train_00371006.mp4	0.0	806.675066947937	2.5082991123199463
56	187.88250708580017	fix_post	2		12.0	54.0	2.5	/experiments/knapen_aot/oldvideos/S_ILSVRC2015_train_00371006.mp4	0.0	809.183366060257	0.09989690780639648
57	187.98240399360657	fix_pre	0		28.0	55.0	2.5	/experiments/knapen_aot/oldvideos/R_S_gHYomsO1dSU_5.mp4	0.0	809.2832629680634	0.23305892944335938
57	188.2072150707245	response	0	2		55.0	2.5	/experiments/knapen_aot/oldvideos/R_S_gHYomsO1dSU_5.mp4	0.0	809.5080740451813	
57	188.21546292304993	movie	1		301.0	55.0	2.5	/experiments/knapen_aot/oldvideos/R_S_gHYomsO1dSU_5.mp4	0.0	809.5163218975067	2.508368968963623
57	190.72383189201355	fix_post	2		12.0	55.0	2.5	/experiments/knapen_aot/oldvideos/R_S_gHYomsO1dSU_5.mp4	0.0	812.0246908664703	0.10022115707397461
58	190.82405304908752	fix_pre	0		11.0	56.0	2.5	blank	1.0	812.1249120235443	0.09184098243713379
58	190.90723085403442	response	0	2		56.0	2.5	blank	1.0	812.2080898284912	
58	190.91589403152466	movie	1		301.0	56.0	2.5	blank	1.0	812.2167530059814	2.507845878601074
58	193.42373991012573	fix_post	2		12.0	56.0	2.5	blank	1.0	814.7245988845825	0.10006904602050781
59	193.52380895614624	fix_pre	0		164.0	57.0	2.5	/experiments/knapen_aot/oldvideos/R_S_yt-5rIpe3xc5rQ_18.mp4	0.0	814.824667930603	1.3666040897369385
59	194.8822009563446	response	0	2		57.0	2.5	/experiments/knapen_aot/oldvideos/R_S_yt-5rIpe3xc5rQ_18.mp4	0.0	816.1830599308014	
59	194.89041304588318	movie	1		301.0	57.0	2.5	/experiments/knapen_aot/oldvideos/R_S_yt-5rIpe3xc5rQ_18.mp4	0.0	816.19127202034	2.5083818435668945
59	197.39879488945007	fix_post	2		12.0	57.0	2.5	/experiments/knapen_aot/oldvideos/R_S_yt-5rIpe3xc5rQ_18.mp4	0.0	818.6996538639069	0.10005903244018555
60	197.49885392189026	fix_pre	0		27.0	58.0	2.5	/experiments/knapen_aot/oldvideos/R_S_nPwtvvPgdNc_39.mp4	0.0	818.799712896347	0.22495198249816895
60	197.7155339717865	response	0	2		58.0	2.5	/experiments/knapen_aot/oldvideos/R_S_nPwtvvPgdNc_39.mp4	0.0	819.0163929462433	
60	197.72380590438843	movie	1		301.0	58.0	2.5	/experiments/knapen_aot/oldvideos/R_S_nPwtvvPgdNc_39.mp4	0.0	819.0246648788452	2.508350133895874
60	200.2321560382843	fix_post	2		12.0	58.0	2.5	/experiments/knapen_aot/oldvideos/R_S_nPwtvvPgdNc_39.mp4	0.0	821.5330150127411	0.10034298896789551
61	200.3324990272522	fix_pre	0		126.0	59.0	2.5	/experiments/knapen_aot/oldvideos/R_S_yt-XpM1Jtwlvvk_42.mp4	0.0	821.633358001709	1.0495500564575195
61	201.37386989593506	response	0	2		59.0	2.5	/experiments/knapen_aot/oldvideos/R_S_yt-XpM1Jtwlvvk_42.mp4	0.0	822.6747288703918	
61	201.38204908370972	movie	1		300.0	59.0	2.5	/experiments/knapen_aot/oldvideos/R_S_yt-XpM1Jtwlvvk_42.mp4	0.0	822.6829080581665	2.508424997329712
61	203.89047408103943	fix_post	2		12.0	59.0	2.5	/experiments/knapen_aot/oldvideos/R_S_yt-XpM1Jtwlvvk_42.mp4	0.0	825.1913330554962	0.10008382797241211
62	203.99055790901184	fix_pre	0		29.0	60.0	2.5	/experiments/knapen_aot/oldvideos/R_S_yt--wYgjXsc1XQ_106.mp4	0.0	825.2914168834686	0.24152112007141113
62	204.22391390800476	response	0	4		60.0	2.5	/experiments/knapen_aot/oldvideos/R_S_yt--wYgjXsc1XQ_106.mp4	0.0	825.5247728824615	
62	204.23207902908325	movie	1		301.0	60.0	2.5	/experiments/knapen_aot/oldvideos/R_S_yt--wYgjXsc1XQ_106.mp4	0.0	825.53293800354	2.5101048946380615
62	206.7421839237213	fix_post	2		12.0	60.0	2.5	/experiments/knapen_aot/oldvideos/R_S_yt--wYgjXsc1XQ_106.mp4	0.0	828.0430428981781	0.09822797775268555
63	206.840411901474	fix_pre	0		20.0	61.0	2.5	blank	1.0	828.1412708759308	0.16657614707946777
63	206.99874305725098	response	0	4		61.0	2.5	blank	1.0	828.2996020317078	
63	207.00698804855347	movie	1		301.0	61.0	2.5	blank	1.0	828.3078470230103	2.5084338188171387
63	209.5154218673706	fix_post	2		12.0	61.0	2.5	blank	1.0	830.8162808418274	0.09996414184570312
64	209.6153860092163	fix_pre	0		23.0	62.0	2.5	/experiments/knapen_aot/oldvideos/R_S_yt-4x2eUikn9rw_212.mp4	0.0	830.9162449836731	0.19164800643920898
64	209.79880094528198	response	0	2		62.0	2.5	/experiments/knapen_aot/oldvideos/R_S_yt-4x2eUikn9rw_212.mp4	0.0	831.0996599197388	
64	209.80703401565552	movie	1		301.0	62.0	2.5	/experiments/knapen_aot/oldvideos/R_S_yt-4x2eUikn9rw_212.mp4	0.0	831.1078929901123	2.508401870727539
64	212.31543588638306	fix_post	2		12.0	62.0	2.5	/experiments/knapen_aot/oldvideos/R_S_yt-4x2eUikn9rw_212.mp4	0.0	833.6162948608398	0.10031318664550781
65	212.41574907302856	fix_pre	0		28.0	63.0	2.5	/experiments/knapen_aot/oldvideos/R_S_Pexels_Videos_2376809.mp4	0.0	833.7166080474854	0.24134492874145508
65	212.64043593406677	response	0	2		63.0	2.5	/experiments/knapen_aot/oldvideos/R_S_Pexels_Videos_2376809.mp4	0.0	833.9412949085236	
65	212.65709400177002	movie	1		167.0	63.0	2.5	/experiments/knapen_aot/oldvideos/R_S_Pexels_Videos_2376809.mp4	0.0	833.9579529762268	2.4999020099639893
65	215.156996011734	fix_post	2		12.0	63.0	2.5	/experiments/knapen_aot/oldvideos/R_S_Pexels_Videos_2376809.mp4	0.0	836.4578549861908	0.10005903244018555
66	215.2570550441742	fix_pre	0		33.0	64.0	2.5	/experiments/knapen_aot/oldvideos/S_yt-mdxs8FCKLFc_232.mp4	0.0	836.557914018631	0.2766728401184082
66	215.5237100124359	response	0	2		64.0	2.5	/experiments/knapen_aot/oldvideos/S_yt-mdxs8FCKLFc_232.mp4	0.0	836.8245689868927	
66	215.5337278842926	movie	1		301.0	64.0	2.5	/experiments/knapen_aot/oldvideos/S_yt-mdxs8FCKLFc_232.mp4	0.0	836.8345868587494	2.5066680908203125
66	218.04039597511292	fix_post	2		12.0	64.0	2.5	/experiments/knapen_aot/oldvideos/S_yt-mdxs8FCKLFc_232.mp4	0.0	839.3412549495697	0.09995508193969727
67	218.1403510570526	fix_pre	0		7.0	65.0	2.5	/experiments/knapen_aot/oldvideos/S_2RTDFkjD6vI_93.mp4	0.0	839.4412100315094	0.06002187728881836
67	218.19045305252075	response	0	4		65.0	2.5	/experiments/knapen_aot/oldvideos/S_2RTDFkjD6vI_93.mp4	0.0	839.4913120269775	
67	218.20037293434143	movie	1		301.0	65.0	2.5	/experiments/knapen_aot/oldvideos/S_2RTDFkjD6vI_93.mp4	0.0	839.5012319087982	2.5067100524902344
67	220.70708298683167	fix_post	2		12.0	65.0	2.5	/experiments/knapen_aot/oldvideos/S_2RTDFkjD6vI_93.mp4	0.0	842.0079419612885	0.10014009475708008
68	220.80722308158875	fix_pre	0		230.0	66.0	2.5	/experiments/knapen_aot/oldvideos/R_S_yt-v66td-1WO7w_44.mp4	0.0	842.1080820560455	1.9163739681243896
68	222.7078628540039	response	0	4		66.0	2.5	/experiments/knapen_aot/oldvideos/R_S_yt-v66td-1WO7w_44.mp4	0.0	844.0087218284607	
68	222.72359704971313	movie	1		301.0	66.0	2.5	/experiments/knapen_aot/oldvideos/R_S_yt-v66td-1WO7w_44.mp4	0.0	844.0244560241699	2.5084519386291504
68	225.23204898834229	fix_post	2		12.0	66.0	2.5	/experiments/knapen_aot/oldvideos/R_S_yt-v66td-1WO7w_44.mp4	0.0	846.5329079627991	0.09996390342712402
69	225.3320128917694	fix_pre	0		14.0	67.0	2.5	/experiments/knapen_aot/oldvideos/R_S_yt-4GDusA21cEA_170.mp4	0.0	846.6328718662262	0.11826801300048828
69	225.44037699699402	response	0	4		67.0	2.5	/experiments/knapen_aot/oldvideos/R_S_yt-4GDusA21cEA_170.mp4	0.0	846.7412359714508	
69	225.4502809047699	movie	1		301.0	67.0	2.5	/experiments/knapen_aot/oldvideos/R_S_yt-4GDusA21cEA_170.mp4	0.0	846.7511398792267	2.506765127182007
69	227.9570460319519	fix_post	2		12.0	67.0	2.5	/experiments/knapen_aot/oldvideos/R_S_yt-4GDusA21cEA_170.mp4	0.0	849.2579050064087	0.09996700286865234
70	228.05701303482056	fix_pre	0		33.0	68.0	2.5	blank	1.0	849.3578720092773	0.2752199172973633
70	228.3237509727478	response	0	4		68.0	2.5	blank	1.0	849.6246099472046	
70	228.33223295211792	movie	1		301.0	68.0	2.5	blank	1.0	849.6330919265747	2.5080840587615967
70	230.84031701087952	fix_post	2		12.0	68.0	2.5	blank	1.0	852.1411759853363	0.0999898910522461
71	230.94030690193176	fix_pre	0		191.0	69.0	2.5	/experiments/knapen_aot/oldvideos/S_comp_LA_A009_C009_PSNK_v02_SDR_PS_FINAL_20180709_SDR_2K_AVC.mp4	0.0	852.2411658763885	1.5933520793914795
71	232.52371501922607	response	0	4		69.0	2.5	/experiments/knapen_aot/oldvideos/S_comp_LA_A009_C009_PSNK_v02_SDR_PS_FINAL_20180709_SDR_2K_AVC.mp4	0.0	853.8245739936829	
71	232.53365898132324	movie	1		162.0	69.0	2.5	/experiments/knapen_aot/oldvideos/S_comp_LA_A009_C009_PSNK_v02_SDR_PS_FINAL_20180709_SDR_2K_AVC.mp4	0.0	853.83451795578	2.50662899017334
71	235.04028797149658	fix_post	2		12.0	69.0	2.5	/experiments/knapen_aot/oldvideos/S_comp_LA_A009_C009_PSNK_v02_SDR_PS_FINAL_20180709_SDR_2K_AVC.mp4	0.0	856.3411469459534	0.1000359058380127
72	235.1403238773346	fix_pre	0		102.0	70.0	2.5	/experiments/knapen_aot/oldvideos/S_yt-2ZsK7zSCJ2w_67.mp4	0.0	856.4411828517914	0.8515541553497314
72	235.98207092285156	response	0	4		70.0	2.5	/experiments/knapen_aot/oldvideos/S_yt-2ZsK7zSCJ2w_67.mp4	0.0	857.2829298973083	
72	235.99187803268433	movie	1		301.0	70.0	2.5	/experiments/knapen_aot/oldvideos/S_yt-2ZsK7zSCJ2w_67.mp4	0.0	857.2927370071411	2.506760835647583
72	238.4986388683319	fix_post	2		12.0	70.0	2.5	/experiments/knapen_aot/oldvideos/S_yt-2ZsK7zSCJ2w_67.mp4	0.0	859.7994978427887	0.09998512268066406
73	238.59862399101257	fix_pre	0		24.0	71.0	2.5	/experiments/knapen_aot/oldvideos/R_S_yt-9aKqMX9IHPg_242.mp4	0.0	859.8994829654694	0.19994187355041504
73	238.79042601585388	response	0	4		71.0	2.5	/experiments/knapen_aot/oldvideos/R_S_yt-9aKqMX9IHPg_242.mp4	0.0	860.0912849903107	
73	238.798565864563	movie	1		301.0	71.0	2.5	/experiments/knapen_aot/oldvideos/R_S_yt-9aKqMX9IHPg_242.mp4	0.0	860.0994248390198	2.50835919380188
73	241.30692505836487	fix_post	2		12.0	71.0	2.5	/experiments/knapen_aot/oldvideos/R_S_yt-9aKqMX9IHPg_242.mp4	0.0	862.6077840328217	0.10002899169921875
74	241.4069540500641	fix_pre	0		65.0	72.0	2.5	/experiments/knapen_aot/oldvideos/S_yt-QFGyhhr1KSQ_9.mp4	0.0	862.7078130245209	0.5432109832763672
74	241.94046187400818	response	0	4		72.0	2.5	/experiments/knapen_aot/oldvideos/S_yt-QFGyhhr1KSQ_9.mp4	0.0	863.241320848465	
74	241.95016503334045	movie	1		301.0	72.0	2.5	/experiments/knapen_aot/oldvideos/S_yt-QFGyhhr1KSQ_9.mp4	0.0	863.2510240077972	2.5072948932647705
74	244.45745992660522	fix_post	2		12.0	72.0	2.5	/experiments/knapen_aot/oldvideos/S_yt-QFGyhhr1KSQ_9.mp4	0.0	865.758318901062	0.0995020866394043
75	244.55696201324463	fix_pre	0		188.0	73.0	2.5	/experiments/knapen_aot/oldvideos/S_ILSVRC2015_train_00517000.mp4	0.0	865.8578209877014	1.5667500495910645
75	246.11537790298462	response	0	4		73.0	2.5	/experiments/knapen_aot/oldvideos/S_ILSVRC2015_train_00517000.mp4	0.0	867.4162368774414	
75	246.1237120628357	movie	1		301.0	73.0	2.5	/experiments/knapen_aot/oldvideos/S_ILSVRC2015_train_00517000.mp4	0.0	867.4245710372925	2.5082459449768066
75	248.6319580078125	fix_post	2		12.0	73.0	2.5	/experiments/knapen_aot/oldvideos/S_ILSVRC2015_train_00517000.mp4	0.0	869.9328169822693	0.09998798370361328
76	248.7319459915161	fix_pre	0		45.0	74.0	2.5	/experiments/knapen_aot/oldvideos/S_yt-1sn8u-rQRas_7.mp4	0.0	870.0328049659729	0.377856969833374
76	249.09884190559387	response	0	4		74.0	2.5	/experiments/knapen_aot/oldvideos/S_yt-1sn8u-rQRas_7.mp4	0.0	870.3997008800507	
76	249.1098029613495	movie	1		301.0	74.0	2.5	/experiments/knapen_aot/oldvideos/S_yt-1sn8u-rQRas_7.mp4	0.0	870.4106619358063	2.5054519176483154
76	251.6152548789978	fix_post	2		12.0	74.0	2.5	/experiments/knapen_aot/oldvideos/S_yt-1sn8u-rQRas_7.mp4	0.0	872.9161138534546	0.10001301765441895
77	251.71526789665222	fix_pre	0		22.0	75.0	2.5	/experiments/knapen_aot/oldvideos/R_S_yt-JPsTqfqfPIY_319.mp4	0.0	873.016126871109	0.1832129955291748
77	251.89032697677612	response	0	4		75.0	2.5	/experiments/knapen_aot/oldvideos/R_S_yt-JPsTqfqfPIY_319.mp4	0.0	873.1911859512329	
77	251.8984808921814	movie	1		301.0	75.0	2.5	/experiments/knapen_aot/oldvideos/R_S_yt-JPsTqfqfPIY_319.mp4	0.0	873.1993398666382	2.5083940029144287
77	254.40687489509583	fix_post	2		12.0	75.0	2.5	/experiments/knapen_aot/oldvideos/R_S_yt-JPsTqfqfPIY_319.mp4	0.0	875.7077338695526	0.10009503364562988
78	254.50696992874146	fix_pre	0		178.0	76.0	2.5	blank	1.0	875.8078289031982	1.4832119941711426
78	255.9819369316101	response	0	4		76.0	2.5	blank	1.0	877.2827959060669	
78	255.9901819229126	movie	1		301.0	76.0	2.5	blank	1.0	877.2910408973694	2.5084891319274902
78	258.4986710548401	fix_post	2		12.0	76.0	2.5	blank	1.0	879.7995300292969	0.10009288787841797
79	258.5987639427185	fix_pre	0		16.0	77.0	2.5	/experiments/knapen_aot/oldvideos/S_WO9z7lBUvOs_151.mp4	0.0	879.8996229171753	0.1330859661102295
79	258.72366285324097	response	0	4		77.0	2.5	/experiments/knapen_aot/oldvideos/S_WO9z7lBUvOs_151.mp4	0.0	880.0245218276978	
79	258.73184990882874	movie	1		301.0	77.0	2.5	/experiments/knapen_aot/oldvideos/S_WO9z7lBUvOs_151.mp4	0.0	880.0327088832855	2.5083250999450684
79	261.2401750087738	fix_post	2		12.0	77.0	2.5	/experiments/knapen_aot/oldvideos/S_WO9z7lBUvOs_151.mp4	0.0	882.5410339832306	0.10007095336914062
80	261.34024596214294	fix_pre	0		14.0	78.0	2.5	/experiments/knapen_aot/oldvideos/R_S_Person_Going_Through_A_Bible.mp4	0.0	882.6411049365997	0.12493610382080078
80	261.44863200187683	response	0	4		78.0	2.5	/experiments/knapen_aot/oldvideos/R_S_Person_Going_Through_A_Bible.mp4	0.0	882.7494909763336	
80	261.46518206596375	movie	1		167.0	78.0	2.5	/experiments/knapen_aot/oldvideos/R_S_Person_Going_Through_A_Bible.mp4	0.0	882.7660410404205	2.5000789165496826
80	263.9652609825134	fix_post	2		12.0	78.0	2.5	/experiments/knapen_aot/oldvideos/R_S_Person_Going_Through_A_Bible.mp4	0.0	885.2661199569702	0.09984087944030762
81	264.06510186195374	fix_pre	0		25.0	79.0	2.5	/experiments/knapen_aot/oldvideos/R_S_video_inspire_california_vineyard_sierra-mar_sunrise_110.1080-h264.mp4	0.0	885.3659608364105	0.2112431526184082
81	264.26529693603516	response	0	4		79.0	2.5	/experiments/knapen_aot/oldvideos/R_S_video_inspire_california_vineyard_sierra-mar_sunrise_110.1080-h264.mp4	0.0	885.566155910492	
81	264.27634501457214	movie	1		172.0	79.0	2.5	/experiments/knapen_aot/oldvideos/R_S_video_inspire_california_vineyard_sierra-mar_sunrise_110.1080-h264.mp4	0.0	885.5772039890289	2.505527973175049
81	266.7818729877472	fix_post	2		12.0	79.0	2.5	/experiments/knapen_aot/oldvideos/R_S_video_inspire_california_vineyard_sierra-mar_sunrise_110.1080-h264.mp4	0.0	888.082731962204	0.10001707077026367
81	266.8152549266815	response	2	4		79.0	2.5	/experiments/knapen_aot/oldvideos/R_S_video_inspire_california_vineyard_sierra-mar_sunrise_110.1080-h264.mp4	0.0	888.1161139011383	
82	266.88189005851746	fix_pre	0		286.0	80.0	2.5	/experiments/knapen_aot/oldvideos/R_S_yt-M8wvzt_BMXM_173.mp4	0.0	888.1827490329742	2.3832499980926514
82	269.2569818496704	response	0	4		80.0	2.5	/experiments/knapen_aot/oldvideos/R_S_yt-M8wvzt_BMXM_173.mp4	0.0	890.5578408241272	
82	269.2651400566101	movie	1		301.0	80.0	2.5	/experiments/knapen_aot/oldvideos/R_S_yt-M8wvzt_BMXM_173.mp4	0.0	890.5659990310669	2.5084469318389893
82	271.7735869884491	fix_post	2		12.0	80.0	2.5	/experiments/knapen_aot/oldvideos/R_S_yt-M8wvzt_BMXM_173.mp4	0.0	893.0744459629059	0.09986495971679688
83	271.8734519481659	fix_pre	0		26.0	81.0	2.5	/experiments/knapen_aot/oldvideos/R_S_yt-x7NWmdlvVIQ_183.mp4	0.0	893.1743109226227	0.21660995483398438
83	272.0819070339203	response	0	2		81.0	2.5	/experiments/knapen_aot/oldvideos/R_S_yt-x7NWmdlvVIQ_183.mp4	0.0	893.3827660083771	
83	272.0900619029999	movie	1		301.0	81.0	2.5	/experiments/knapen_aot/oldvideos/R_S_yt-x7NWmdlvVIQ_183.mp4	0.0	893.3909208774567	2.5084140300750732
83	274.59847593307495	fix_post	2		12.0	81.0	2.5	/experiments/knapen_aot/oldvideos/R_S_yt-x7NWmdlvVIQ_183.mp4	0.0	895.8993349075317	0.10000801086425781
84	274.6984839439392	fix_pre	0		25.0	82.0	2.5	/experiments/knapen_aot/oldvideos/R_S_yt-26009GpQuUg_3.mp4	0.0	895.999342918396	0.20968294143676758
84	274.8985960483551	response	0	2		82.0	2.5	/experiments/knapen_aot/oldvideos/R_S_yt-26009GpQuUg_3.mp4	0.0	896.1994550228119	
84	274.908166885376	movie	1		301.0	82.0	2.5	/experiments/knapen_aot/oldvideos/R_S_yt-26009GpQuUg_3.mp4	0.0	896.2090258598328	2.506960153579712
84	277.4151270389557	fix_post	2		12.0	82.0	2.5	/experiments/knapen_aot/oldvideos/R_S_yt-26009GpQuUg_3.mp4	0.0	898.7159860134125	0.09993386268615723
85	277.51506090164185	fix_pre	0		14.0	83.0	2.5	blank	1.0	898.8159198760986	0.11679506301879883
85	277.623566865921	response	0	2		83.0	2.5	blank	1.0	898.9244258403778	
85	277.63185596466064	movie	1		301.0	83.0	2.5	blank	1.0	898.9327149391174	2.5082859992980957
85	280.14014196395874	fix_post	2		12.0	83.0	2.5	blank	1.0	901.4410009384155	0.10003805160522461
87	280.24018001556396	stim	0		368.0					901.5410389900208	3.0665318965911865
87	283.29564905166626	response	0	space						904.596508026123	
