trial_nr	onset	event_type	phase	response	nr_frames	movie_index	movie_duration	movie_file	blank	onset_abs	duration
0	0.15285205841064453	stim	0		41.0					115.86994218826294	0.347074031829834
0	0.4902501106262207	response	0	space						116.20734024047852	
1	0.4999260902404785	stim	0		121.0					116.21701622009277	1.006269931793213
1	1.073296070098877	response	0	space						116.79038619995117	
1	1.4815521240234375	response	0	space						117.19864225387573	
1	1.5061960220336914	stim	1		120.0					117.22328615188599	1.0004451274871826
1	1.8479301929473877	response	1	space						117.56502032279968	
1	2.189568042755127	response	1	space						117.90665817260742	
1	2.497899055480957	response	1	space						118.21498918533325	
2	2.506641149520874	fix_pre	0		41.0	0.0	2.5	/experiments/knapen_aot/oldvideos/R_S_ILSVRC2015_train_00572000.mp4	0.0	118.22373127937317	0.341217041015625
2	2.8320021629333496	response	0	space		0.0	2.5	/experiments/knapen_aot/oldvideos/R_S_ILSVRC2015_train_00572000.mp4	0.0	118.54909229278564	
2	2.847858190536499	movie	1		300.0	0.0	2.5	/experiments/knapen_aot/oldvideos/R_S_ILSVRC2015_train_00572000.mp4	0.0	118.5649483203888	2.508410930633545
2	4.402092218399048	response	1	2		0.0	2.5	/experiments/knapen_aot/oldvideos/R_S_ILSVRC2015_train_00572000.mp4	0.0	120.11918234825134	
2	5.356269121170044	fix_post	2		12.0	0.0	2.5	/experiments/knapen_aot/oldvideos/R_S_ILSVRC2015_train_00572000.mp4	0.0	121.07335925102234	0.09990501403808594
3	5.45617413520813	fix_pre	0		6.0	1.0	2.5	/experiments/knapen_aot/oldvideos/S_yt-CEQnXB0LxQU_278.mp4	0.0	121.17326426506042	0.050627946853637695
3	5.497953176498413	response	0	2		1.0	2.5	/experiments/knapen_aot/oldvideos/S_yt-CEQnXB0LxQU_278.mp4	0.0	121.21504330635071	
3	5.506802082061768	movie	1		301.0	1.0	2.5	/experiments/knapen_aot/oldvideos/S_yt-CEQnXB0LxQU_278.mp4	0.0	121.22389221191406	2.5077290534973145
3	8.014531135559082	fix_post	2		12.0	1.0	2.5	/experiments/knapen_aot/oldvideos/S_yt-CEQnXB0LxQU_278.mp4	0.0	123.73162126541138	0.09996700286865234
4	8.114498138427734	fix_pre	0		10.0	2.0	2.5	/experiments/knapen_aot/oldvideos/S_yt-OrTpetjDNKs_31.mp4	0.0	123.83158826828003	0.08332395553588867
4	8.189658164978027	response	0	2		2.0	2.5	/experiments/knapen_aot/oldvideos/S_yt-OrTpetjDNKs_31.mp4	0.0	123.90674829483032	
4	8.197822093963623	movie	1		301.0	2.0	2.5	/experiments/knapen_aot/oldvideos/S_yt-OrTpetjDNKs_31.mp4	0.0	123.91491222381592	2.5083799362182617
4	10.50671911239624	response	1	2		2.0	2.5	/experiments/knapen_aot/oldvideos/S_yt-OrTpetjDNKs_31.mp4	0.0	126.22380924224854	
4	10.706202030181885	fix_post	2		12.0	2.0	2.5	/experiments/knapen_aot/oldvideos/S_yt-OrTpetjDNKs_31.mp4	0.0	126.42329216003418	0.09990501403808594
4	10.764615058898926	response	2	2		2.0	2.5	/experiments/knapen_aot/oldvideos/S_yt-OrTpetjDNKs_31.mp4	0.0	126.48170518875122	
5	10.80610704421997	fix_pre	0		36.0	3.0	2.5	/experiments/knapen_aot/oldvideos/R_S_yt-82O1uT8dmv8_12.mp4	0.0	126.52319717407227	0.3000180721282959
5	11.097820043563843	response	0	2		3.0	2.5	/experiments/knapen_aot/oldvideos/R_S_yt-82O1uT8dmv8_12.mp4	0.0	126.81491017341614	
5	11.106125116348267	movie	1		301.0	3.0	2.5	/experiments/knapen_aot/oldvideos/R_S_yt-82O1uT8dmv8_12.mp4	0.0	126.82321524620056	2.5083820819854736
5	13.61450719833374	fix_post	2		12.0	3.0	2.5	/experiments/knapen_aot/oldvideos/R_S_yt-82O1uT8dmv8_12.mp4	0.0	129.33159732818604	0.09996581077575684
5	13.673685073852539	response	2	2		3.0	2.5	/experiments/knapen_aot/oldvideos/R_S_yt-82O1uT8dmv8_12.mp4	0.0	129.39077520370483	
6	13.714473009109497	fix_pre	0		49.0	4.0	2.5	/experiments/knapen_aot/oldvideos/S_3dzza09VbXY_235.mp4	0.0	129.4315631389618	0.40829014778137207
6	14.114597082138062	response	0	2		4.0	2.5	/experiments/knapen_aot/oldvideos/S_3dzza09VbXY_235.mp4	0.0	129.83168721199036	
6	14.12276315689087	movie	1		301.0	4.0	2.5	/experiments/knapen_aot/oldvideos/S_3dzza09VbXY_235.mp4	0.0	129.83985328674316	2.5083279609680176
6	16.631091117858887	fix_post	2		12.0	4.0	2.5	/experiments/knapen_aot/oldvideos/S_3dzza09VbXY_235.mp4	0.0	132.34818124771118	0.10003995895385742
7	16.731131076812744	fix_pre	0		5.0	5.0	2.5	/experiments/knapen_aot/oldvideos/S_ILSVRC2015_train_00469000.mp4	0.0	132.44822120666504	0.041639089584350586
7	16.76461410522461	response	0	2		5.0	2.5	/experiments/knapen_aot/oldvideos/S_ILSVRC2015_train_00469000.mp4	0.0	132.4817042350769	
7	16.772770166397095	movie	1		301.0	5.0	2.5	/experiments/knapen_aot/oldvideos/S_ILSVRC2015_train_00469000.mp4	0.0	132.4898602962494	2.5085580348968506
7	19.281328201293945	fix_post	2		12.0	5.0	2.5	/experiments/knapen_aot/oldvideos/S_ILSVRC2015_train_00469000.mp4	0.0	134.99841833114624	0.0997629165649414
7	19.36459708213806	response	2	2		5.0	2.5	/experiments/knapen_aot/oldvideos/S_ILSVRC2015_train_00469000.mp4	0.0	135.08168721199036	
8	19.381091117858887	fix_pre	0		50.0	6.0	2.5	blank	1.0	135.09818124771118	0.4170510768890381
8	19.78955912590027	response	0	2		6.0	2.5	blank	1.0	135.50664925575256	
8	19.798142194747925	movie	1		301.0	6.0	2.5	blank	1.0	135.51523232460022	2.507966995239258
8	22.064666032791138	response	1	2		6.0	2.5	blank	1.0	137.78175616264343	
8	22.306109189987183	fix_post	2		12.0	6.0	2.5	blank	1.0	138.02319931983948	0.10000181198120117
9	22.406111001968384	fix_pre	0		19.0	7.0	2.5	/experiments/knapen_aot/oldvideos/R_S_comp_N008_C003_PS_v01_SDR_PS_20180925_SDR_2K_AVC.mp4	0.0	138.12320113182068	0.15830016136169434
9	22.55621314048767	response	0	2		7.0	2.5	/experiments/knapen_aot/oldvideos/R_S_comp_N008_C003_PS_v01_SDR_PS_20180925_SDR_2K_AVC.mp4	0.0	138.27330327033997	
9	22.564411163330078	movie	1		166.0	7.0	2.5	/experiments/knapen_aot/oldvideos/R_S_comp_N008_C003_PS_v01_SDR_PS_20180925_SDR_2K_AVC.mp4	0.0	138.28150129318237	2.5085010528564453
9	25.072912216186523	fix_post	2		12.0	7.0	2.5	/experiments/knapen_aot/oldvideos/R_S_comp_N008_C003_PS_v01_SDR_PS_20180925_SDR_2K_AVC.mp4	0.0	140.79000234603882	0.10027599334716797
9	25.07472801208496	response	2	2		7.0	2.5	/experiments/knapen_aot/oldvideos/R_S_comp_N008_C003_PS_v01_SDR_PS_20180925_SDR_2K_AVC.mp4	0.0	140.79181814193726	
10	25.17318820953369	fix_pre	0		33.0	8.0	2.5	/experiments/knapen_aot/oldvideos/R_S_yt-fk-z6WCvjjA_3.mp4	0.0	140.890278339386	0.2745668888092041
10	25.43952703475952	response	0	2		8.0	2.5	/experiments/knapen_aot/oldvideos/R_S_yt-fk-z6WCvjjA_3.mp4	0.0	141.15661716461182	
10	25.447755098342896	movie	1		301.0	8.0	2.5	/experiments/knapen_aot/oldvideos/R_S_yt-fk-z6WCvjjA_3.mp4	0.0	141.1648452281952	2.5083439350128174
10	27.956099033355713	fix_post	2		12.0	8.0	2.5	/experiments/knapen_aot/oldvideos/R_S_yt-fk-z6WCvjjA_3.mp4	0.0	143.673189163208	0.09997200965881348
11	28.056071043014526	fix_pre	0		9.0	9.0	2.5	/experiments/knapen_aot/oldvideos/S_yt-11VGDAOVEag_8.mp4	0.0	143.77316117286682	0.07532215118408203
11	28.12286114692688	response	0	2		9.0	2.5	/experiments/knapen_aot/oldvideos/S_yt-11VGDAOVEag_8.mp4	0.0	143.83995127677917	
11	28.13139319419861	movie	1		301.0	9.0	2.5	/experiments/knapen_aot/oldvideos/S_yt-11VGDAOVEag_8.mp4	0.0	143.8484833240509	2.5080368518829346
11	30.639430046081543	fix_post	2		12.0	9.0	2.5	/experiments/knapen_aot/oldvideos/S_yt-11VGDAOVEag_8.mp4	0.0	146.35652017593384	0.09998607635498047
12	30.739416122436523	fix_pre	0		9.0	10.0	2.5	/experiments/knapen_aot/oldvideos/S_G010_C026_UHD_SDR_v02_2K_AVC.mp4	0.0	146.45650625228882	0.07494401931762695
12	30.806191205978394	response	0	2		10.0	2.5	/experiments/knapen_aot/oldvideos/S_G010_C026_UHD_SDR_v02_2K_AVC.mp4	0.0	146.5232813358307	
12	30.81436014175415	movie	1		169.0	10.0	2.5	/experiments/knapen_aot/oldvideos/S_G010_C026_UHD_SDR_v02_2K_AVC.mp4	0.0	146.53145027160645	2.5083189010620117
12	33.32267904281616	fix_post	2		12.0	10.0	2.5	/experiments/knapen_aot/oldvideos/S_G010_C026_UHD_SDR_v02_2K_AVC.mp4	0.0	149.03976917266846	0.10042309761047363
12	33.381208181381226	response	2	2		10.0	2.5	/experiments/knapen_aot/oldvideos/S_G010_C026_UHD_SDR_v02_2K_AVC.mp4	0.0	149.09829831123352	
13	33.423102140426636	fix_pre	0		68.0	11.0	2.5	/experiments/knapen_aot/oldvideos/S_yt-QXsedpZh800_275.mp4	0.0	149.14019227027893	0.5662529468536377
13	33.98107099533081	response	0	2		11.0	2.5	/experiments/knapen_aot/oldvideos/S_yt-QXsedpZh800_275.mp4	0.0	149.6981611251831	
13	33.98935508728027	movie	1		301.0	11.0	2.5	/experiments/knapen_aot/oldvideos/S_yt-QXsedpZh800_275.mp4	0.0	149.70644521713257	2.508453130722046
13	36.49780821800232	fix_post	2		12.0	11.0	2.5	/experiments/knapen_aot/oldvideos/S_yt-QXsedpZh800_275.mp4	0.0	152.21489834785461	0.09989786148071289
14	36.59770607948303	fix_pre	0		29.0	12.0	2.5	blank	1.0	152.31479620933533	0.24202513694763184
14	36.83115816116333	response	0	2		12.0	2.5	blank	1.0	152.54824829101562	
14	36.839731216430664	movie	1		301.0	12.0	2.5	blank	1.0	152.55682134628296	2.507924795150757
14	39.34765601158142	fix_post	2		12.0	12.0	2.5	blank	1.0	155.06474614143372	0.0999910831451416
15	39.44764709472656	fix_pre	0		38.0	13.0	2.5	/experiments/knapen_aot/oldvideos/S_pexels-kampus-production-5991896.mp4	0.0	155.16473722457886	0.316709041595459
15	39.748594999313354	response	0	2		13.0	2.5	/experiments/knapen_aot/oldvideos/S_pexels-kampus-production-5991896.mp4	0.0	155.46568512916565	
15	39.76435613632202	movie	1		164.0	13.0	2.5	/experiments/knapen_aot/oldvideos/S_pexels-kampus-production-5991896.mp4	0.0	155.48144626617432	2.508333921432495
15	42.27269005775452	fix_post	2		12.0	13.0	2.5	/experiments/knapen_aot/oldvideos/S_pexels-kampus-production-5991896.mp4	0.0	157.9897801876068	0.09998297691345215
16	42.37267303466797	fix_pre	0		20.0	14.0	2.5	/experiments/knapen_aot/oldvideos/R_S_yt-MTo50ReVNmU_2.mp4	0.0	158.08976316452026	0.16664814949035645
16	42.531089067459106	response	0	2		14.0	2.5	/experiments/knapen_aot/oldvideos/R_S_yt-MTo50ReVNmU_2.mp4	0.0	158.2481791973114	
16	42.539321184158325	movie	1		301.0	14.0	2.5	/experiments/knapen_aot/oldvideos/R_S_yt-MTo50ReVNmU_2.mp4	0.0	158.25641131401062	2.5083489418029785
16	45.047670125961304	fix_post	2		12.0	14.0	2.5	/experiments/knapen_aot/oldvideos/R_S_yt-MTo50ReVNmU_2.mp4	0.0	160.7647602558136	0.10001492500305176
17	45.147685050964355	fix_pre	0		9.0	15.0	2.5	/experiments/knapen_aot/oldvideos/R_S_yt-ebzrQh5ErI4_3.mp4	0.0	160.86477518081665	0.0749211311340332
17	45.214426040649414	response	0	2		15.0	2.5	/experiments/knapen_aot/oldvideos/R_S_yt-ebzrQh5ErI4_3.mp4	0.0	160.9315161705017	
17	45.22260618209839	movie	1		301.0	15.0	2.5	/experiments/knapen_aot/oldvideos/R_S_yt-ebzrQh5ErI4_3.mp4	0.0	160.93969631195068	2.5084609985351562
17	47.731067180633545	fix_post	2		12.0	15.0	2.5	/experiments/knapen_aot/oldvideos/R_S_yt-ebzrQh5ErI4_3.mp4	0.0	163.44815731048584	0.09992694854736328
18	47.83099412918091	fix_pre	0		7.0	16.0	2.5	/experiments/knapen_aot/oldvideos/R_S_ILSVRC2015_train_00405001.mp4	0.0	163.5480842590332	0.05831503868103027
18	47.87385702133179	response	0	2		16.0	2.5	/experiments/knapen_aot/oldvideos/R_S_ILSVRC2015_train_00405001.mp4	0.0	163.59094715118408	
18	47.88930916786194	movie	1		301.0	16.0	2.5	/experiments/knapen_aot/oldvideos/R_S_ILSVRC2015_train_00405001.mp4	0.0	163.60639929771423	2.508307933807373
18	50.39761710166931	fix_post	2		12.0	16.0	2.5	/experiments/knapen_aot/oldvideos/R_S_ILSVRC2015_train_00405001.mp4	0.0	166.1147072315216	0.09991908073425293
19	50.497536182403564	fix_pre	0		26.0	17.0	2.5	/experiments/knapen_aot/oldvideos/R_S_ILSVRC2015_train_00594000.mp4	0.0	166.21462631225586	0.21695184707641602
19	50.70612907409668	response	0	2		17.0	2.5	/experiments/knapen_aot/oldvideos/R_S_ILSVRC2015_train_00594000.mp4	0.0	166.42321920394897	
19	50.71448802947998	movie	1		301.0	17.0	2.5	/experiments/knapen_aot/oldvideos/R_S_ILSVRC2015_train_00594000.mp4	0.0	166.43157815933228	2.508078098297119
19	53.2225661277771	fix_post	2		12.0	17.0	2.5	/experiments/knapen_aot/oldvideos/R_S_ILSVRC2015_train_00594000.mp4	0.0	168.9396562576294	0.09994697570800781
20	53.32251310348511	fix_pre	0		15.0	18.0	2.5	/experiments/knapen_aot/oldvideos/S_yt-GBt59U0KUR0_6.mp4	0.0	169.0396032333374	0.1250159740447998
20	53.43936800956726	response	0	2		18.0	2.5	/experiments/knapen_aot/oldvideos/S_yt-GBt59U0KUR0_6.mp4	0.0	169.15645813941956	
20	53.44752907752991	movie	1		301.0	18.0	2.5	/experiments/knapen_aot/oldvideos/S_yt-GBt59U0KUR0_6.mp4	0.0	169.1646192073822	2.5084729194641113
20	55.95600199699402	fix_post	2		12.0	18.0	2.5	/experiments/knapen_aot/oldvideos/S_yt-GBt59U0KUR0_6.mp4	0.0	171.6730921268463	0.09992003440856934
21	56.05592203140259	fix_pre	0		24.0	19.0	2.5	/experiments/knapen_aot/oldvideos/R_S_yt-GLK6LniTOK0_69.mp4	0.0	171.77301216125488	0.20019006729125977
21	56.24766707420349	response	0	2		19.0	2.5	/experiments/knapen_aot/oldvideos/R_S_yt-GLK6LniTOK0_69.mp4	0.0	171.9647572040558	
21	56.25611209869385	movie	1		301.0	19.0	2.5	/experiments/knapen_aot/oldvideos/R_S_yt-GLK6LniTOK0_69.mp4	0.0	171.97320222854614	2.508094072341919
21	58.76420617103577	fix_post	2		12.0	19.0	2.5	/experiments/knapen_aot/oldvideos/R_S_yt-GLK6LniTOK0_69.mp4	0.0	174.48129630088806	0.10005998611450195
22	58.86426615715027	fix_pre	0		25.0	20.0	2.5	/experiments/knapen_aot/oldvideos/R_S_ILSVRC2015_train_00743005.mp4	0.0	174.58135628700256	0.2082819938659668
22	59.06434202194214	response	0	2		20.0	2.5	/experiments/knapen_aot/oldvideos/R_S_ILSVRC2015_train_00743005.mp4	0.0	174.78143215179443	
22	59.072548151016235	movie	1		301.0	20.0	2.5	/experiments/knapen_aot/oldvideos/R_S_ILSVRC2015_train_00743005.mp4	0.0	174.78963828086853	2.5083260536193848
22	61.36732316017151	response	1	2		20.0	2.5	/experiments/knapen_aot/oldvideos/R_S_ILSVRC2015_train_00743005.mp4	0.0	177.0844132900238	
22	61.58087420463562	fix_post	2		12.0	20.0	2.5	/experiments/knapen_aot/oldvideos/R_S_ILSVRC2015_train_00743005.mp4	0.0	177.29796433448792	0.09992194175720215
23	61.68079614639282	fix_pre	0		5.0	21.0	2.5	blank	1.0	177.39788627624512	0.04174995422363281
23	61.71434307098389	response	0	2		21.0	2.5	blank	1.0	177.43143320083618	
23	61.722546100616455	movie	1		301.0	21.0	2.5	blank	1.0	177.43963623046875	2.508352041244507
23	63.96427512168884	response	1	2		21.0	2.5	blank	1.0	179.68136525154114	
23	64.23089814186096	fix_post	2		12.0	21.0	2.5	blank	1.0	179.94798827171326	0.10001206398010254
24	64.33091020584106	fix_pre	0		44.0	22.0	2.5	/experiments/knapen_aot/oldvideos/R_S_yt-OdTWn1U1mO4_68.mp4	0.0	180.04800033569336	0.36664581298828125
24	64.68935298919678	response	0	2		22.0	2.5	/experiments/knapen_aot/oldvideos/R_S_yt-OdTWn1U1mO4_68.mp4	0.0	180.40644311904907	
24	64.69755601882935	movie	1		301.0	22.0	2.5	/experiments/knapen_aot/oldvideos/R_S_yt-OdTWn1U1mO4_68.mp4	0.0	180.41464614868164	2.5083250999450684
24	67.20588111877441	fix_post	2		12.0	22.0	2.5	/experiments/knapen_aot/oldvideos/R_S_yt-OdTWn1U1mO4_68.mp4	0.0	182.9229712486267	0.09996986389160156
25	67.30585098266602	fix_pre	0		30.0	23.0	2.5	/experiments/knapen_aot/oldvideos/R_S_pexels-koolshooters-7327401_1.mp4	0.0	183.0229411125183	0.24998807907104492
25	67.5476291179657	response	0	2		23.0	2.5	/experiments/knapen_aot/oldvideos/R_S_pexels-koolshooters-7327401_1.mp4	0.0	183.264719247818	
25	67.55583906173706	movie	1		164.0	23.0	2.5	/experiments/knapen_aot/oldvideos/R_S_pexels-koolshooters-7327401_1.mp4	0.0	183.27292919158936	2.5083999633789062
25	70.06423902511597	fix_post	2		12.0	23.0	2.5	/experiments/knapen_aot/oldvideos/R_S_pexels-koolshooters-7327401_1.mp4	0.0	185.78132915496826	0.09999513626098633
26	70.16423416137695	fix_pre	0		6.0	24.0	2.5	/experiments/knapen_aot/oldvideos/R_S_video_inspire_sanfrancisco_castro_005.1080-h264.mp4	0.0	185.88132429122925	0.05013895034790039
26	70.19870615005493	response	0	2		24.0	2.5	/experiments/knapen_aot/oldvideos/R_S_video_inspire_sanfrancisco_castro_005.1080-h264.mp4	0.0	185.91579627990723	
26	70.21437311172485	movie	1		168.0	24.0	2.5	/experiments/knapen_aot/oldvideos/R_S_video_inspire_sanfrancisco_castro_005.1080-h264.mp4	0.0	185.93146324157715	2.50813889503479
26	72.72251200675964	fix_post	2		12.0	24.0	2.5	/experiments/knapen_aot/oldvideos/R_S_video_inspire_sanfrancisco_castro_005.1080-h264.mp4	0.0	188.43960213661194	0.10004711151123047
26	72.78097605705261	response	2	2		24.0	2.5	/experiments/knapen_aot/oldvideos/R_S_video_inspire_sanfrancisco_castro_005.1080-h264.mp4	0.0	188.4980661869049	
27	72.82255911827087	fix_pre	0		59.0	25.0	2.5	/experiments/knapen_aot/oldvideos/R_S_yt-aiwDdJm1ek8_90.mp4	0.0	188.53964924812317	0.49163103103637695
27	73.30597114562988	response	0	2		25.0	2.5	/experiments/knapen_aot/oldvideos/R_S_yt-aiwDdJm1ek8_90.mp4	0.0	189.02306127548218	
27	73.31419014930725	movie	1		300.0	25.0	2.5	/experiments/knapen_aot/oldvideos/R_S_yt-aiwDdJm1ek8_90.mp4	0.0	189.03128027915955	2.508354902267456
27	75.8225450515747	fix_post	2		12.0	25.0	2.5	/experiments/knapen_aot/oldvideos/R_S_yt-aiwDdJm1ek8_90.mp4	0.0	191.539635181427	0.10039210319519043
28	75.9229371547699	fix_pre	0		26.0	26.0	2.5	/experiments/knapen_aot/oldvideos/S_ILSVRC2015_train_00415003.mp4	0.0	191.6400272846222	0.21626591682434082
28	76.13096308708191	response	0	2		26.0	2.5	/experiments/knapen_aot/oldvideos/S_ILSVRC2015_train_00415003.mp4	0.0	191.8480532169342	
28	76.13920307159424	movie	1		301.0	26.0	2.5	/experiments/knapen_aot/oldvideos/S_ILSVRC2015_train_00415003.mp4	0.0	191.85629320144653	2.5082690715789795
28	78.64747214317322	fix_post	2		12.0	26.0	2.5	/experiments/knapen_aot/oldvideos/S_ILSVRC2015_train_00415003.mp4	0.0	194.3645622730255	0.10004496574401855
29	78.74751710891724	fix_pre	0		12.0	27.0	2.5	blank	1.0	194.46460723876953	0.0999910831451416
29	78.83160305023193	response	0	2		27.0	2.5	blank	1.0	194.54869318008423	
29	78.84750819206238	movie	1		301.0	27.0	2.5	blank	1.0	194.56459832191467	2.508296012878418
29	81.3558042049408	fix_post	2		12.0	27.0	2.5	blank	1.0	197.0728943347931	0.0999908447265625
30	81.45579504966736	fix_pre	0		24.0	28.0	2.5	/experiments/knapen_aot/oldvideos/S_yt-UBqUhu-GEVg_6.mp4	0.0	197.17288517951965	0.19999003410339355
30	81.64756107330322	response	0	2		28.0	2.5	/experiments/knapen_aot/oldvideos/S_yt-UBqUhu-GEVg_6.mp4	0.0	197.36465120315552	
30	81.65578508377075	movie	1		301.0	28.0	2.5	/experiments/knapen_aot/oldvideos/S_yt-UBqUhu-GEVg_6.mp4	0.0	197.37287521362305	2.5083889961242676
30	84.16417407989502	fix_post	2		12.0	28.0	2.5	/experiments/knapen_aot/oldvideos/S_yt-UBqUhu-GEVg_6.mp4	0.0	199.88126420974731	0.0999441146850586
31	84.26411819458008	fix_pre	0		17.0	29.0	2.5	/experiments/knapen_aot/oldvideos/R_S_ILSVRC2015_train_00405000.mp4	0.0	199.98120832443237	0.1418449878692627
31	84.3975760936737	response	0	2		29.0	2.5	/experiments/knapen_aot/oldvideos/R_S_ILSVRC2015_train_00405000.mp4	0.0	200.114666223526	
31	84.40596318244934	movie	1		301.0	29.0	2.5	/experiments/knapen_aot/oldvideos/R_S_ILSVRC2015_train_00405000.mp4	0.0	200.12305331230164	2.508204936981201
31	86.91416811943054	fix_post	2		12.0	29.0	2.5	/experiments/knapen_aot/oldvideos/R_S_ILSVRC2015_train_00405000.mp4	0.0	202.63125824928284	0.09994196891784668
32	87.01411008834839	fix_pre	0		17.0	30.0	2.5	/experiments/knapen_aot/oldvideos/R_S_yt-TNtO8RPd3iE_25.mp4	0.0	202.73120021820068	0.14167499542236328
32	87.1476321220398	response	0	2		30.0	2.5	/experiments/knapen_aot/oldvideos/R_S_yt-TNtO8RPd3iE_25.mp4	0.0	202.8647222518921	
32	87.15578508377075	movie	1		301.0	30.0	2.5	/experiments/knapen_aot/oldvideos/R_S_yt-TNtO8RPd3iE_25.mp4	0.0	202.87287521362305	2.508402109146118
32	89.66418719291687	fix_post	2		12.0	30.0	2.5	/experiments/knapen_aot/oldvideos/R_S_yt-TNtO8RPd3iE_25.mp4	0.0	205.38127732276917	0.09990596771240234
33	89.76409316062927	fix_pre	0		11.0	31.0	2.5	/experiments/knapen_aot/oldvideos/S_yt-fQgLKiz2tuM_14.mp4	0.0	205.48118329048157	0.09164905548095703
33	89.84758806228638	response	0	2		31.0	2.5	/experiments/knapen_aot/oldvideos/S_yt-fQgLKiz2tuM_14.mp4	0.0	205.56467819213867	
33	89.85574221611023	movie	1		301.0	31.0	2.5	/experiments/knapen_aot/oldvideos/S_yt-fQgLKiz2tuM_14.mp4	0.0	205.57283234596252	2.508596897125244
33	92.36433911323547	fix_post	2		12.0	31.0	2.5	/experiments/knapen_aot/oldvideos/S_yt-fQgLKiz2tuM_14.mp4	0.0	208.08142924308777	0.0998690128326416
34	92.46420812606812	fix_pre	0		24.0	32.0	2.5	/experiments/knapen_aot/oldvideos/S_pexels-cottonbro-9063801.mp4	0.0	208.1812982559204	0.19989299774169922
34	92.65592813491821	response	0	2		32.0	2.5	/experiments/knapen_aot/oldvideos/S_pexels-cottonbro-9063801.mp4	0.0	208.3730182647705	
34	92.66410112380981	movie	1		205.0	32.0	2.5	/experiments/knapen_aot/oldvideos/S_pexels-cottonbro-9063801.mp4	0.0	208.3811912536621	2.508471965789795
34	95.17257308959961	fix_post	2		12.0	32.0	2.5	/experiments/knapen_aot/oldvideos/S_pexels-cottonbro-9063801.mp4	0.0	210.8896632194519	0.09989404678344727
35	95.27246713638306	fix_pre	0		22.0	33.0	2.5	/experiments/knapen_aot/oldvideos/R_S_yt-i4kSCZ8rNC0_11.mp4	0.0	210.98955726623535	0.1832900047302246
35	95.44760918617249	response	0	2		33.0	2.5	/experiments/knapen_aot/oldvideos/R_S_yt-i4kSCZ8rNC0_11.mp4	0.0	211.16469931602478	
35	95.45575714111328	movie	1		301.0	33.0	2.5	/experiments/knapen_aot/oldvideos/R_S_yt-i4kSCZ8rNC0_11.mp4	0.0	211.17284727096558	2.5083370208740234
35	97.9640941619873	fix_post	2		12.0	33.0	2.5	/experiments/knapen_aot/oldvideos/R_S_yt-i4kSCZ8rNC0_11.mp4	0.0	213.6811842918396	0.10009098052978516
36	98.06418514251709	fix_pre	0		13.0	34.0	2.5	/experiments/knapen_aot/oldvideos/R_S_yt-Xkx53mjgj2E_30.mp4	0.0	213.78127527236938	0.10824394226074219
36	98.16415810585022	response	0	2		34.0	2.5	/experiments/knapen_aot/oldvideos/R_S_yt-Xkx53mjgj2E_30.mp4	0.0	213.88124823570251	
36	98.17242908477783	movie	1		301.0	34.0	2.5	/experiments/knapen_aot/oldvideos/R_S_yt-Xkx53mjgj2E_30.mp4	0.0	213.88951921463013	2.5083019733428955
36	100.68073105812073	fix_post	2		12.0	34.0	2.5	/experiments/knapen_aot/oldvideos/R_S_yt-Xkx53mjgj2E_30.mp4	0.0	216.39782118797302	0.10004496574401855
37	100.78077602386475	fix_pre	0		13.0	35.0	2.5	blank	1.0	216.49786615371704	0.10830497741699219
37	100.88086414337158	response	0	2		35.0	2.5	blank	1.0	216.59795427322388	
37	100.88908100128174	movie	1		301.0	35.0	2.5	blank	1.0	216.60617113113403	2.5084011554718018
37	103.39748215675354	fix_post	2		12.0	35.0	2.5	blank	1.0	219.11457228660583	0.09994697570800781
38	103.49742913246155	fix_pre	0		26.0	36.0	2.5	/experiments/knapen_aot/oldvideos/S_yt-dqcUJzNOzbM_156.mp4	0.0	219.21451926231384	0.21655797958374023
38	103.70581603050232	response	0	2		36.0	2.5	/experiments/knapen_aot/oldvideos/S_yt-dqcUJzNOzbM_156.mp4	0.0	219.42290616035461	
38	103.71398711204529	movie	1		301.0	36.0	2.5	/experiments/knapen_aot/oldvideos/S_yt-dqcUJzNOzbM_156.mp4	0.0	219.43107724189758	2.5083959102630615
38	106.22238302230835	fix_post	2		12.0	36.0	2.5	/experiments/knapen_aot/oldvideos/S_yt-dqcUJzNOzbM_156.mp4	0.0	221.93947315216064	0.09999418258666992
39	106.32237720489502	fix_pre	0		30.0	37.0	2.5	/experiments/knapen_aot/oldvideos/R_S_ILSVRC2015_train_00584001.mp4	0.0	222.03946733474731	0.24995994567871094
39	106.56417512893677	response	0	2		37.0	2.5	/experiments/knapen_aot/oldvideos/R_S_ILSVRC2015_train_00584001.mp4	0.0	222.28126525878906	
39	106.57233715057373	movie	1		301.0	37.0	2.5	/experiments/knapen_aot/oldvideos/R_S_ILSVRC2015_train_00584001.mp4	0.0	222.28942728042603	2.5083789825439453
39	109.08071613311768	fix_post	2		12.0	37.0	2.5	/experiments/knapen_aot/oldvideos/R_S_ILSVRC2015_train_00584001.mp4	0.0	224.79780626296997	0.09995698928833008
40	109.180673122406	fix_pre	0		13.0	38.0	2.5	/experiments/knapen_aot/oldvideos/S_yt-y3tyx6cZjmA_412.mp4	0.0	224.8977632522583	0.10831904411315918
40	109.28075098991394	response	0	2		38.0	2.5	/experiments/knapen_aot/oldvideos/S_yt-y3tyx6cZjmA_412.mp4	0.0	224.99784111976624	
40	109.28899216651917	movie	1		301.0	38.0	2.5	/experiments/knapen_aot/oldvideos/S_yt-y3tyx6cZjmA_412.mp4	0.0	225.00608229637146	2.5083258152008057
40	111.79731798171997	fix_post	2		12.0	38.0	2.5	/experiments/knapen_aot/oldvideos/S_yt-y3tyx6cZjmA_412.mp4	0.0	227.51440811157227	0.10000419616699219
41	111.89732217788696	fix_pre	0		17.0	39.0	2.5	/experiments/knapen_aot/oldvideos/R_S_pexels-koolshooters-7327412_1.mp4	0.0	227.61441230773926	0.14164400100708008
41	112.03079199790955	response	0	2		39.0	2.5	/experiments/knapen_aot/oldvideos/R_S_pexels-koolshooters-7327412_1.mp4	0.0	227.74788212776184	
41	112.03896617889404	movie	1		164.0	39.0	2.5	/experiments/knapen_aot/oldvideos/R_S_pexels-koolshooters-7327412_1.mp4	0.0	227.75605630874634	2.508392810821533
41	114.54735898971558	fix_post	2		12.0	39.0	2.5	/experiments/knapen_aot/oldvideos/R_S_pexels-koolshooters-7327412_1.mp4	0.0	230.26444911956787	0.09995508193969727
42	114.64731407165527	fix_pre	0		8.0	40.0	2.5	blank	1.0	230.36440420150757	0.06668210029602051
42	114.70578098297119	response	0	2		40.0	2.5	blank	1.0	230.4228711128235	
42	114.7139961719513	movie	1		301.0	40.0	2.5	blank	1.0	230.4310863018036	2.508307933807373
42	117.22230410575867	fix_post	2		12.0	40.0	2.5	blank	1.0	232.93939423561096	0.09996199607849121
43	117.32226610183716	fix_pre	0		21.0	41.0	2.5	/experiments/knapen_aot/oldvideos/S_yt-JQOHHL30Y54_101.mp4	0.0	233.03935623168945	0.17504096031188965
43	117.48905515670776	response	0	2		41.0	2.5	/experiments/knapen_aot/oldvideos/S_yt-JQOHHL30Y54_101.mp4	0.0	233.20614528656006	
43	117.49730706214905	movie	1		301.0	41.0	2.5	/experiments/knapen_aot/oldvideos/S_yt-JQOHHL30Y54_101.mp4	0.0	233.21439719200134	2.508420944213867
43	120.00572800636292	fix_post	2		12.0	41.0	2.5	/experiments/knapen_aot/oldvideos/S_yt-JQOHHL30Y54_101.mp4	0.0	235.7228181362152	0.09984397888183594
44	120.10557198524475	fix_pre	0		15.0	42.0	2.5	/experiments/knapen_aot/oldvideos/S_ILSVRC2015_train_00323000.mp4	0.0	235.82266211509705	0.12506103515625
44	120.22241520881653	response	0	2		42.0	2.5	/experiments/knapen_aot/oldvideos/S_ILSVRC2015_train_00323000.mp4	0.0	235.93950533866882	
44	120.230633020401	movie	1		301.0	42.0	2.5	/experiments/knapen_aot/oldvideos/S_ILSVRC2015_train_00323000.mp4	0.0	235.9477231502533	2.5083351135253906
44	122.73896813392639	fix_post	2		12.0	42.0	2.5	/experiments/knapen_aot/oldvideos/S_ILSVRC2015_train_00323000.mp4	0.0	238.4560582637787	0.09997391700744629
45	122.83894205093384	fix_pre	0		5.0	43.0	2.5	/experiments/knapen_aot/oldvideos/R_S_yt-kiEFK7bDssE_14.mp4	0.0	238.55603218078613	0.041665077209472656
45	122.87237405776978	response	0	2		43.0	2.5	/experiments/knapen_aot/oldvideos/R_S_yt-kiEFK7bDssE_14.mp4	0.0	238.58946418762207	
45	122.88060712814331	movie	1		301.0	43.0	2.5	/experiments/knapen_aot/oldvideos/R_S_yt-kiEFK7bDssE_14.mp4	0.0	238.5976972579956	2.5083630084991455
45	125.38897013664246	fix_post	2		12.0	43.0	2.5	/experiments/knapen_aot/oldvideos/R_S_yt-kiEFK7bDssE_14.mp4	0.0	241.10606026649475	0.10018587112426758
46	125.48915600776672	fix_pre	0		11.0	44.0	2.5	/experiments/knapen_aot/oldvideos/R_S_yt-Ozx_f0a0ZDI_32.mp4	0.0	241.20624613761902	0.09144020080566406
46	125.56491613388062	response	0	2		44.0	2.5	/experiments/knapen_aot/oldvideos/R_S_yt-Ozx_f0a0ZDI_32.mp4	0.0	241.2820062637329	
46	125.58059620857239	movie	1		301.0	44.0	2.5	/experiments/knapen_aot/oldvideos/R_S_yt-Ozx_f0a0ZDI_32.mp4	0.0	241.29768633842468	2.508410930633545
46	128.08900713920593	fix_post	2		12.0	44.0	2.5	/experiments/knapen_aot/oldvideos/R_S_yt-Ozx_f0a0ZDI_32.mp4	0.0	243.80609726905823	0.09992599487304688
47	128.18893313407898	fix_pre	0		23.0	45.0	2.5	/experiments/knapen_aot/oldvideos/S_ILSVRC2015_train_00418001.mp4	0.0	243.90602326393127	0.19162607192993164
47	128.37229299545288	response	0	2		45.0	2.5	/experiments/knapen_aot/oldvideos/S_ILSVRC2015_train_00418001.mp4	0.0	244.08938312530518	
47	128.3805592060089	movie	1		301.0	45.0	2.5	/experiments/knapen_aot/oldvideos/S_ILSVRC2015_train_00418001.mp4	0.0	244.0976493358612	2.508375883102417
47	130.88893508911133	fix_post	2		12.0	45.0	2.5	/experiments/knapen_aot/oldvideos/S_ILSVRC2015_train_00418001.mp4	0.0	246.60602521896362	0.10002589225769043
48	130.98896098136902	fix_pre	0		10.0	46.0	2.5	/experiments/knapen_aot/oldvideos/S_yt-z16pdVTZK1o_3.mp4	0.0	246.7060511112213	0.08331823348999023
48	131.06400299072266	response	0	2		46.0	2.5	/experiments/knapen_aot/oldvideos/S_yt-z16pdVTZK1o_3.mp4	0.0	246.78109312057495	
48	131.072279214859	movie	1		301.0	46.0	2.5	/experiments/knapen_aot/oldvideos/S_yt-z16pdVTZK1o_3.mp4	0.0	246.7893693447113	2.508312940597534
48	133.58059215545654	fix_post	2		12.0	46.0	2.5	/experiments/knapen_aot/oldvideos/S_yt-z16pdVTZK1o_3.mp4	0.0	249.29768228530884	0.09999704360961914
49	133.68058919906616	fix_pre	0		27.0	47.0	2.5	/experiments/knapen_aot/oldvideos/R_S_yt-kA0ybjmoiMc_284.mp4	0.0	249.39767932891846	0.22502684593200684
49	133.8974530696869	response	0	2		47.0	2.5	/experiments/knapen_aot/oldvideos/R_S_yt-kA0ybjmoiMc_284.mp4	0.0	249.61454319953918	
49	133.90561604499817	movie	1		301.0	47.0	2.5	/experiments/knapen_aot/oldvideos/R_S_yt-kA0ybjmoiMc_284.mp4	0.0	249.62270617485046	2.508289098739624
49	136.4139051437378	fix_post	2		12.0	47.0	2.5	/experiments/knapen_aot/oldvideos/R_S_yt-kA0ybjmoiMc_284.mp4	0.0	252.1309952735901	0.10024189949035645
50	136.51414704322815	fix_pre	0		35.0	48.0	2.5	blank	1.0	252.23123717308044	0.29135704040527344
50	136.79732513427734	response	0	2		48.0	2.5	blank	1.0	252.51441526412964	
50	136.80550408363342	movie	1		301.0	48.0	2.5	blank	1.0	252.52259421348572	2.5083980560302734
50	139.3139021396637	fix_post	2		12.0	48.0	2.5	blank	1.0	255.030992269516	0.10128998756408691
51	139.41519212722778	fix_pre	0		21.0	49.0	2.5	/experiments/knapen_aot/oldvideos/S_yt-FE5srhxadno_73.mp4	0.0	255.13228225708008	0.17364096641540527
51	139.5806941986084	response	0	2		49.0	2.5	/experiments/knapen_aot/oldvideos/S_yt-FE5srhxadno_73.mp4	0.0	255.2977843284607	
51	139.5888330936432	movie	1		301.0	49.0	2.5	/experiments/knapen_aot/oldvideos/S_yt-FE5srhxadno_73.mp4	0.0	255.30592322349548	2.5083749294281006
51	142.0972080230713	fix_post	2		12.0	49.0	2.5	/experiments/knapen_aot/oldvideos/S_yt-FE5srhxadno_73.mp4	0.0	257.8142981529236	0.10003018379211426
52	142.1972382068634	fix_pre	0		24.0	50.0	2.5	/experiments/knapen_aot/oldvideos/S_yt-qurTr1BJMec_244.mp4	0.0	257.9143283367157	0.19992995262145996
52	142.38893818855286	response	0	2		50.0	2.5	/experiments/knapen_aot/oldvideos/S_yt-qurTr1BJMec_244.mp4	0.0	258.10602831840515	
52	142.39716815948486	movie	1		301.0	50.0	2.5	/experiments/knapen_aot/oldvideos/S_yt-qurTr1BJMec_244.mp4	0.0	258.11425828933716	2.508396863937378
52	144.90556502342224	fix_post	2		12.0	50.0	2.5	/experiments/knapen_aot/oldvideos/S_yt-qurTr1BJMec_244.mp4	0.0	260.62265515327454	0.09995412826538086
53	145.00551915168762	fix_pre	0		35.0	51.0	2.5	/experiments/knapen_aot/oldvideos/S_yt-XRQ_LSGGr3Y_712.mp4	0.0	260.7226092815399	0.29166603088378906
53	145.2889862060547	response	0	2		51.0	2.5	/experiments/knapen_aot/oldvideos/S_yt-XRQ_LSGGr3Y_712.mp4	0.0	261.006076335907	
53	145.2971851825714	movie	1		301.0	51.0	2.5	/experiments/knapen_aot/oldvideos/S_yt-XRQ_LSGGr3Y_712.mp4	0.0	261.0142753124237	2.5083730220794678
53	147.80555820465088	fix_post	2		12.0	51.0	2.5	/experiments/knapen_aot/oldvideos/S_yt-XRQ_LSGGr3Y_712.mp4	0.0	263.5226483345032	0.09992790222167969
54	147.90548610687256	fix_pre	0		10.0	52.0	2.5	/experiments/knapen_aot/oldvideos/R_S_Y011_C001_SDR_2K_AVC.mp4	0.0	263.62257623672485	0.08340597152709961
54	147.97312211990356	response	0	2		52.0	2.5	/experiments/knapen_aot/oldvideos/R_S_Y011_C001_SDR_2K_AVC.mp4	0.0	263.69021224975586	
54	147.98889207839966	movie	1		172.0	52.0	2.5	/experiments/knapen_aot/oldvideos/R_S_Y011_C001_SDR_2K_AVC.mp4	0.0	263.70598220825195	2.5083539485931396
54	150.4972460269928	fix_post	2		12.0	52.0	2.5	/experiments/knapen_aot/oldvideos/R_S_Y011_C001_SDR_2K_AVC.mp4	0.0	266.2143361568451	0.09993100166320801
54	150.50567817687988	response	2	2		52.0	2.5	/experiments/knapen_aot/oldvideos/R_S_Y011_C001_SDR_2K_AVC.mp4	0.0	266.2227683067322	
55	150.597177028656	fix_pre	0		39.0	53.0	2.5	/experiments/knapen_aot/oldvideos/R_S_g201_AK_A003_C014_SDR_20191113_SDR_2K_AVC.mp4	0.0	266.3142671585083	0.3250620365142822
55	150.91396117210388	response	0	2		53.0	2.5	/experiments/knapen_aot/oldvideos/R_S_g201_AK_A003_C014_SDR_20191113_SDR_2K_AVC.mp4	0.0	266.6310513019562	
55	150.9222390651703	movie	1		166.0	53.0	2.5	/experiments/knapen_aot/oldvideos/R_S_g201_AK_A003_C014_SDR_20191113_SDR_2K_AVC.mp4	0.0	266.6393291950226	2.5082881450653076
55	153.4305272102356	fix_post	2		12.0	53.0	2.5	/experiments/knapen_aot/oldvideos/R_S_g201_AK_A003_C014_SDR_20191113_SDR_2K_AVC.mp4	0.0	269.1476173400879	0.1000208854675293
55	153.4980411529541	response	2	2		53.0	2.5	/experiments/knapen_aot/oldvideos/R_S_g201_AK_A003_C014_SDR_20191113_SDR_2K_AVC.mp4	0.0	269.2151312828064	
56	153.53054809570312	fix_pre	0		44.0	54.0	2.5	/experiments/knapen_aot/oldvideos/S_yt-OdTWn1U1mO4_68.mp4	0.0	269.2476382255554	0.36658501625061035
56	153.8889651298523	response	0	2		54.0	2.5	/experiments/knapen_aot/oldvideos/S_yt-OdTWn1U1mO4_68.mp4	0.0	269.6060552597046	
56	153.89713311195374	movie	1		301.0	54.0	2.5	/experiments/knapen_aot/oldvideos/S_yt-OdTWn1U1mO4_68.mp4	0.0	269.61422324180603	2.508392095565796
56	156.40552520751953	fix_post	2		12.0	54.0	2.5	/experiments/knapen_aot/oldvideos/S_yt-OdTWn1U1mO4_68.mp4	0.0	272.1226153373718	0.10000991821289062
57	156.50553512573242	fix_pre	0		24.0	55.0	2.5	blank	1.0	272.2226252555847	0.19998407363891602
57	156.69731521606445	response	0	2		55.0	2.5	blank	1.0	272.41440534591675	
57	156.70551919937134	movie	1		301.0	55.0	2.5	blank	1.0	272.42260932922363	2.5082759857177734
57	159.2137951850891	fix_post	2		12.0	55.0	2.5	blank	1.0	274.9308853149414	0.10006880760192871
58	159.31386399269104	fix_pre	0		11.0	56.0	2.5	/experiments/knapen_aot/oldvideos/S_yt-kiEFK7bDssE_14.mp4	0.0	275.03095412254333	0.09160804748535156
58	159.3972351551056	response	0	2		56.0	2.5	/experiments/knapen_aot/oldvideos/S_yt-kiEFK7bDssE_14.mp4	0.0	275.1143252849579	
58	159.4054720401764	movie	1		301.0	56.0	2.5	/experiments/knapen_aot/oldvideos/S_yt-kiEFK7bDssE_14.mp4	0.0	275.1225621700287	2.508450984954834
58	161.91392302513123	fix_post	2		12.0	56.0	2.5	/experiments/knapen_aot/oldvideos/S_yt-kiEFK7bDssE_14.mp4	0.0	277.6310131549835	0.09993219375610352
59	162.01385521888733	fix_pre	0		9.0	57.0	2.5	/experiments/knapen_aot/oldvideos/S_comp_GL_G004_C010_PSNK_v04_SDR_PS_FINAL_20180709_SDR_2K_AVC.mp4	0.0	277.7309453487396	0.07491397857666016
59	162.08061408996582	response	0	2		57.0	2.5	/experiments/knapen_aot/oldvideos/S_comp_GL_G004_C010_PSNK_v04_SDR_PS_FINAL_20180709_SDR_2K_AVC.mp4	0.0	277.7977042198181	
59	162.088769197464	movie	1		166.0	57.0	2.5	/experiments/knapen_aot/oldvideos/S_comp_GL_G004_C010_PSNK_v04_SDR_PS_FINAL_20180709_SDR_2K_AVC.mp4	0.0	277.8058593273163	2.5084359645843506
59	164.59720516204834	fix_post	2		12.0	57.0	2.5	/experiments/knapen_aot/oldvideos/S_comp_GL_G004_C010_PSNK_v04_SDR_PS_FINAL_20180709_SDR_2K_AVC.mp4	0.0	280.31429529190063	0.0999448299407959
60	164.69714999198914	fix_pre	0		21.0	58.0	2.5	/experiments/knapen_aot/oldvideos/R_S_pexels-pavel-danilyuk-8057714.mp4	0.0	280.41424012184143	0.1760571002960205
60	164.86389803886414	response	0	2		58.0	2.5	/experiments/knapen_aot/oldvideos/R_S_pexels-pavel-danilyuk-8057714.mp4	0.0	280.58098816871643	
60	164.87320709228516	movie	1		167.0	58.0	2.5	/experiments/knapen_aot/oldvideos/R_S_pexels-pavel-danilyuk-8057714.mp4	0.0	280.59029722213745	2.5072860717773438
60	167.3804931640625	fix_post	2		12.0	58.0	2.5	/experiments/knapen_aot/oldvideos/R_S_pexels-pavel-danilyuk-8057714.mp4	0.0	283.0975832939148	0.09995102882385254
61	167.48044419288635	fix_pre	0		35.0	59.0	2.5	/experiments/knapen_aot/oldvideos/R_S_yt-V4ptcLegCiw_161.mp4	0.0	283.19753432273865	0.29164886474609375
61	167.76394200325012	response	0	2		59.0	2.5	/experiments/knapen_aot/oldvideos/R_S_yt-V4ptcLegCiw_161.mp4	0.0	283.4810321331024	
61	167.77209305763245	movie	1		301.0	59.0	2.5	/experiments/knapen_aot/oldvideos/R_S_yt-V4ptcLegCiw_161.mp4	0.0	283.48918318748474	2.5083799362182617
61	170.2804729938507	fix_post	2		12.0	59.0	2.5	/experiments/knapen_aot/oldvideos/R_S_yt-V4ptcLegCiw_161.mp4	0.0	285.997563123703	0.09999418258666992
62	170.38046717643738	fix_pre	0		14.0	60.0	2.5	/experiments/knapen_aot/oldvideos/R_S_yt-FE5srhxadno_73.mp4	0.0	286.0975573062897	0.11768889427185059
62	170.4889211654663	response	0	2		60.0	2.5	/experiments/knapen_aot/oldvideos/R_S_yt-FE5srhxadno_73.mp4	0.0	286.2060112953186	
62	170.49815607070923	movie	1		301.0	60.0	2.5	/experiments/knapen_aot/oldvideos/R_S_yt-FE5srhxadno_73.mp4	0.0	286.2152462005615	2.5073060989379883
62	173.00546216964722	fix_post	2		12.0	60.0	2.5	/experiments/knapen_aot/oldvideos/R_S_yt-FE5srhxadno_73.mp4	0.0	288.7225522994995	0.10009002685546875
63	173.10555219650269	fix_pre	0		13.0	61.0	2.5	/experiments/knapen_aot/oldvideos/R_S_yt-UBqUhu-GEVg_6.mp4	0.0	288.822642326355	0.10829281806945801
63	173.19796514511108	response	0	2		61.0	2.5	/experiments/knapen_aot/oldvideos/R_S_yt-UBqUhu-GEVg_6.mp4	0.0	288.9150552749634	
63	173.21384501457214	movie	1		301.0	61.0	2.5	/experiments/knapen_aot/oldvideos/R_S_yt-UBqUhu-GEVg_6.mp4	0.0	288.93093514442444	2.5082621574401855
63	175.72210717201233	fix_post	2		12.0	61.0	2.5	/experiments/knapen_aot/oldvideos/R_S_yt-UBqUhu-GEVg_6.mp4	0.0	291.4391973018646	0.09995698928833008
64	175.82206416130066	fix_pre	0		19.0	62.0	2.5	blank	1.0	291.53915429115295	0.1583998203277588
64	175.9722180366516	response	0	2		62.0	2.5	blank	1.0	291.6893081665039	
64	175.98046398162842	movie	1		301.0	62.0	2.5	blank	1.0	291.6975541114807	2.5083491802215576
64	178.48881316184998	fix_post	2		12.0	62.0	2.5	blank	1.0	294.20590329170227	0.09990286827087402
65	178.58871603012085	fix_pre	0		18.0	63.0	2.5	/experiments/knapen_aot/oldvideos/R_S_yt-9mWz93En7Gw_97.mp4	0.0	294.30580615997314	0.15005111694335938
65	178.73049998283386	response	0	2		63.0	2.5	/experiments/knapen_aot/oldvideos/R_S_yt-9mWz93En7Gw_97.mp4	0.0	294.44759011268616	
65	178.7387671470642	movie	1		301.0	63.0	2.5	/experiments/knapen_aot/oldvideos/R_S_yt-9mWz93En7Gw_97.mp4	0.0	294.4558572769165	2.5082600116729736
65	181.24702715873718	fix_post	2		12.0	63.0	2.5	/experiments/knapen_aot/oldvideos/R_S_yt-9mWz93En7Gw_97.mp4	0.0	296.9641172885895	0.10003995895385742
66	181.34706711769104	fix_pre	0		5.0	64.0	2.5	/experiments/knapen_aot/oldvideos/S_pexels-cottonbro-9063801_1.mp4	0.0	297.06415724754333	0.04165291786193848
66	181.3805911540985	response	0	2		64.0	2.5	/experiments/knapen_aot/oldvideos/S_pexels-cottonbro-9063801_1.mp4	0.0	297.0976812839508	
66	181.38872003555298	movie	1		193.0	64.0	2.5	/experiments/knapen_aot/oldvideos/S_pexels-cottonbro-9063801_1.mp4	0.0	297.1058101654053	2.508376121520996
66	183.89709615707397	fix_post	2		12.0	64.0	2.5	/experiments/knapen_aot/oldvideos/S_pexels-cottonbro-9063801_1.mp4	0.0	299.61418628692627	0.10013294219970703
66	183.9638180732727	response	2	2		64.0	2.5	/experiments/knapen_aot/oldvideos/S_pexels-cottonbro-9063801_1.mp4	0.0	299.680908203125	
67	183.99722909927368	fix_pre	0		42.0	65.0	2.5	/experiments/knapen_aot/oldvideos/S_yt-VfASxEzDrvc_145.mp4	0.0	299.714319229126	0.3498079776763916
67	184.3388500213623	response	0	2		65.0	2.5	/experiments/knapen_aot/oldvideos/S_yt-VfASxEzDrvc_145.mp4	0.0	300.0559401512146	
67	184.34703707695007	movie	1		301.0	65.0	2.5	/experiments/knapen_aot/oldvideos/S_yt-VfASxEzDrvc_145.mp4	0.0	300.06412720680237	2.508357048034668
67	186.85539412498474	fix_post	2		12.0	65.0	2.5	/experiments/knapen_aot/oldvideos/S_yt-VfASxEzDrvc_145.mp4	0.0	302.57248425483704	0.10003089904785156
68	186.9554250240326	fix_pre	0		1.0	66.0	2.5	/experiments/knapen_aot/oldvideos/S_yt-LB9LoYfH_EA_15.mp4	0.0	302.6725151538849	0.008270025253295898
68	186.9570460319519	response	0	2		66.0	2.5	/experiments/knapen_aot/oldvideos/S_yt-LB9LoYfH_EA_15.mp4	0.0	302.6741361618042	
68	186.9636950492859	movie	1		301.0	66.0	2.5	/experiments/knapen_aot/oldvideos/S_yt-LB9LoYfH_EA_15.mp4	0.0	302.6807851791382	2.508368968963623
68	189.4720640182495	fix_post	2		12.0	66.0	2.5	/experiments/knapen_aot/oldvideos/S_yt-LB9LoYfH_EA_15.mp4	0.0	305.1891541481018	0.09994101524353027
69	189.57200503349304	fix_pre	0		5.0	67.0	2.5	/experiments/knapen_aot/oldvideos/R_S_yt-yyIimWrvRyI_246.mp4	0.0	305.28909516334534	0.04169201850891113
69	189.60550999641418	response	0	2		67.0	2.5	/experiments/knapen_aot/oldvideos/R_S_yt-yyIimWrvRyI_246.mp4	0.0	305.3226001262665	
69	189.61369705200195	movie	1		301.0	67.0	2.5	/experiments/knapen_aot/oldvideos/R_S_yt-yyIimWrvRyI_246.mp4	0.0	305.33078718185425	2.508331060409546
69	192.1220281124115	fix_post	2		12.0	67.0	2.5	/experiments/knapen_aot/oldvideos/R_S_yt-yyIimWrvRyI_246.mp4	0.0	307.8391182422638	0.10000300407409668
69	192.2137792110443	response	2	2		67.0	2.5	/experiments/knapen_aot/oldvideos/R_S_yt-yyIimWrvRyI_246.mp4	0.0	307.9308693408966	
70	192.2220311164856	fix_pre	0		49.0	68.0	2.5	blank	1.0	307.9391212463379	0.40828704833984375
70	192.62215304374695	response	0	2		68.0	2.5	blank	1.0	308.33924317359924	
70	192.63031816482544	movie	1		301.0	68.0	2.5	blank	1.0	308.34740829467773	2.508347988128662
70	195.1386661529541	fix_post	2		12.0	68.0	2.5	blank	1.0	310.8557562828064	0.09998202323913574
71	195.23864817619324	fix_pre	0		23.0	69.0	2.5	/experiments/knapen_aot/oldvideos/R_S_yt-GBt59U0KUR0_6.mp4	0.0	310.95573830604553	0.19166803359985352
71	195.42210507392883	response	0	2		69.0	2.5	/experiments/knapen_aot/oldvideos/R_S_yt-GBt59U0KUR0_6.mp4	0.0	311.1391952037811	
71	195.4303162097931	movie	1		301.0	69.0	2.5	/experiments/knapen_aot/oldvideos/R_S_yt-GBt59U0KUR0_6.mp4	0.0	311.1474063396454	2.508312940597534
71	197.93862915039062	fix_post	2		12.0	69.0	2.5	/experiments/knapen_aot/oldvideos/R_S_yt-GBt59U0KUR0_6.mp4	0.0	313.6557192802429	0.10007905960083008
72	198.03870820999146	fix_pre	0		9.0	70.0	2.5	/experiments/knapen_aot/oldvideos/S_yt-9pUeQix6EW8_7.mp4	0.0	313.75579833984375	0.0748589038848877
72	198.10536813735962	response	0	2		70.0	2.5	/experiments/knapen_aot/oldvideos/S_yt-9pUeQix6EW8_7.mp4	0.0	313.8224582672119	
72	198.11356711387634	movie	1		301.0	70.0	2.5	/experiments/knapen_aot/oldvideos/S_yt-9pUeQix6EW8_7.mp4	0.0	313.83065724372864	2.5083489418029785
72	200.62191605567932	fix_post	2		12.0	70.0	2.5	/experiments/knapen_aot/oldvideos/S_yt-9pUeQix6EW8_7.mp4	0.0	316.3390061855316	0.10005497932434082
73	200.72197103500366	fix_pre	0		24.0	71.0	2.5	/experiments/knapen_aot/oldvideos/S_yt-bD1U6bo-6bE_465.mp4	0.0	316.43906116485596	0.1999521255493164
73	200.91377210617065	response	0	2		71.0	2.5	/experiments/knapen_aot/oldvideos/S_yt-bD1U6bo-6bE_465.mp4	0.0	316.63086223602295	
73	200.92192316055298	movie	1		301.0	71.0	2.5	/experiments/knapen_aot/oldvideos/S_yt-bD1U6bo-6bE_465.mp4	0.0	316.6390132904053	2.508430004119873
73	203.43035316467285	fix_post	2		12.0	71.0	2.5	/experiments/knapen_aot/oldvideos/S_yt-bD1U6bo-6bE_465.mp4	0.0	319.14744329452515	0.10011601448059082
74	203.53046917915344	fix_pre	0		8.0	72.0	2.5	/experiments/knapen_aot/oldvideos/S_yt-JVhfcpV7OaY_71.mp4	0.0	319.24755930900574	0.06647586822509766
74	203.58874106407166	response	0	2		72.0	2.5	/experiments/knapen_aot/oldvideos/S_yt-JVhfcpV7OaY_71.mp4	0.0	319.30583119392395	
74	203.59694504737854	movie	1		301.0	72.0	2.5	/experiments/knapen_aot/oldvideos/S_yt-JVhfcpV7OaY_71.mp4	0.0	319.31403517723083	2.508324146270752
74	206.1052691936493	fix_post	2		12.0	72.0	2.5	/experiments/knapen_aot/oldvideos/S_yt-JVhfcpV7OaY_71.mp4	0.0	321.8223593235016	0.10007286071777344
75	206.20534205436707	fix_pre	0		20.0	73.0	2.5	/experiments/knapen_aot/oldvideos/R_S_yt-R9Iabv0XgOQ_80.mp4	0.0	321.92243218421936	0.16739797592163086
75	206.36368703842163	response	0	2		73.0	2.5	/experiments/knapen_aot/oldvideos/R_S_yt-R9Iabv0XgOQ_80.mp4	0.0	322.0807771682739	
75	206.3727400302887	movie	1		301.0	73.0	2.5	/experiments/knapen_aot/oldvideos/R_S_yt-R9Iabv0XgOQ_80.mp4	0.0	322.089830160141	2.507575035095215
75	208.8803150653839	fix_post	2		12.0	73.0	2.5	/experiments/knapen_aot/oldvideos/R_S_yt-R9Iabv0XgOQ_80.mp4	0.0	324.5974051952362	0.10002493858337402
76	208.98034000396729	fix_pre	0		14.0	74.0	2.5	/experiments/knapen_aot/oldvideos/R_S_ILSVRC2015_train_00524001.mp4	0.0	324.6974301338196	0.11659598350524902
76	209.08865308761597	response	0	2		74.0	2.5	/experiments/knapen_aot/oldvideos/R_S_ILSVRC2015_train_00524001.mp4	0.0	324.80574321746826	
76	209.09693598747253	movie	1		301.0	74.0	2.5	/experiments/knapen_aot/oldvideos/R_S_ILSVRC2015_train_00524001.mp4	0.0	324.81402611732483	2.5083842277526855
76	211.60532021522522	fix_post	2		12.0	74.0	2.5	/experiments/knapen_aot/oldvideos/R_S_ILSVRC2015_train_00524001.mp4	0.0	327.3224103450775	0.10004091262817383
77	211.7053611278534	fix_pre	0		8.0	75.0	2.5	blank	1.0	327.4224512577057	0.06659793853759766
77	211.75624108314514	response	0	2		75.0	2.5	blank	1.0	327.47333121299744	
77	211.771959066391	movie	1		301.0	75.0	2.5	blank	1.0	327.4890491962433	2.5083060264587402
77	214.28026509284973	fix_post	2		12.0	75.0	2.5	blank	1.0	329.997355222702	0.0999898910522461
78	214.38025498390198	fix_pre	0		21.0	76.0	2.5	/experiments/knapen_aot/oldvideos/R_S_ILSVRC2015_train_00521000.mp4	0.0	330.0973451137543	0.17495203018188477
78	214.54703211784363	response	0	2		76.0	2.5	/experiments/knapen_aot/oldvideos/R_S_ILSVRC2015_train_00521000.mp4	0.0	330.2641222476959	
78	214.55520701408386	movie	1		301.0	76.0	2.5	/experiments/knapen_aot/oldvideos/R_S_ILSVRC2015_train_00521000.mp4	0.0	330.27229714393616	2.5083611011505127
78	217.06356811523438	fix_post	2		12.0	76.0	2.5	/experiments/knapen_aot/oldvideos/R_S_ILSVRC2015_train_00521000.mp4	0.0	332.78065824508667	0.09998607635498047
79	217.16355419158936	fix_pre	0		8.0	77.0	2.5	/experiments/knapen_aot/oldvideos/S_yt-PaxmJhMoP3w_87.mp4	0.0	332.88064432144165	0.06665396690368652
79	217.2218930721283	response	0	2		77.0	2.5	/experiments/knapen_aot/oldvideos/S_yt-PaxmJhMoP3w_87.mp4	0.0	332.9389832019806	
79	217.23020815849304	movie	1		301.0	77.0	2.5	/experiments/knapen_aot/oldvideos/S_yt-PaxmJhMoP3w_87.mp4	0.0	332.94729828834534	2.5083658695220947
79	219.73857402801514	fix_post	2		12.0	77.0	2.5	/experiments/knapen_aot/oldvideos/S_yt-PaxmJhMoP3w_87.mp4	0.0	335.45566415786743	0.1000971794128418
80	219.83867120742798	fix_pre	0		11.0	78.0	2.5	/experiments/knapen_aot/oldvideos/S_yt--vHa85DHvLU_31.mp4	0.0	335.5557613372803	0.09152579307556152
80	219.92202520370483	response	0	2		78.0	2.5	/experiments/knapen_aot/oldvideos/S_yt--vHa85DHvLU_31.mp4	0.0	335.63911533355713	
80	219.93019700050354	movie	1		301.0	78.0	2.5	/experiments/knapen_aot/oldvideos/S_yt--vHa85DHvLU_31.mp4	0.0	335.64728713035583	2.5083961486816406
80	222.43859314918518	fix_post	2		12.0	78.0	2.5	/experiments/knapen_aot/oldvideos/S_yt--vHa85DHvLU_31.mp4	0.0	338.1556832790375	0.09997987747192383
81	222.5385730266571	fix_pre	0		22.0	79.0	2.5	/experiments/knapen_aot/oldvideos/S_wc-zkO_omg3nTvg_5.mp4	0.0	338.2556631565094	0.18327617645263672
81	222.71363711357117	response	0	2		79.0	2.5	/experiments/knapen_aot/oldvideos/S_wc-zkO_omg3nTvg_5.mp4	0.0	338.43072724342346	
81	222.72184920310974	movie	1		164.0	79.0	2.5	/experiments/knapen_aot/oldvideos/S_wc-zkO_omg3nTvg_5.mp4	0.0	338.43893933296204	2.5084187984466553
81	225.2302680015564	fix_post	2		12.0	79.0	2.5	/experiments/knapen_aot/oldvideos/S_wc-zkO_omg3nTvg_5.mp4	0.0	340.9473581314087	0.09994721412658691
82	225.33021521568298	fix_pre	0		16.0	80.0	2.5	/experiments/knapen_aot/oldvideos/R_S_yt-ak01CHYgEOs_1383.mp4	0.0	341.0473053455353	0.13330698013305664
82	225.45525598526	response	0	2		80.0	2.5	/experiments/knapen_aot/oldvideos/R_S_yt-ak01CHYgEOs_1383.mp4	0.0	341.1723461151123	
82	225.46352219581604	movie	1		301.0	80.0	2.5	/experiments/knapen_aot/oldvideos/R_S_yt-ak01CHYgEOs_1383.mp4	0.0	341.18061232566833	2.50834584236145
82	227.9718680381775	fix_post	2		12.0	80.0	2.5	/experiments/knapen_aot/oldvideos/R_S_yt-ak01CHYgEOs_1383.mp4	0.0	343.6889581680298	0.09998607635498047
83	228.07185411453247	fix_pre	0		19.0	81.0	2.5	/experiments/knapen_aot/oldvideos/R_S_yt-11VGDAOVEag_8.mp4	0.0	343.78894424438477	0.15844202041625977
83	228.21450400352478	response	0	2		81.0	2.5	/experiments/knapen_aot/oldvideos/R_S_yt-11VGDAOVEag_8.mp4	0.0	343.9315941333771	
83	228.23029613494873	movie	1		301.0	81.0	2.5	/experiments/knapen_aot/oldvideos/R_S_yt-11VGDAOVEag_8.mp4	0.0	343.947386264801	2.5081899166107178
83	230.73848605155945	fix_post	2		12.0	81.0	2.5	/experiments/knapen_aot/oldvideos/R_S_yt-11VGDAOVEag_8.mp4	0.0	346.45557618141174	0.10010004043579102
84	230.83858609199524	fix_pre	0		10.0	82.0	2.5	/experiments/knapen_aot/oldvideos/S_ILSVRC2015_train_00704000.mp4	0.0	346.55567622184753	0.08320903778076172
84	230.91355299949646	response	0	2		82.0	2.5	/experiments/knapen_aot/oldvideos/S_ILSVRC2015_train_00704000.mp4	0.0	346.63064312934875	
84	230.921795129776	movie	1		301.0	82.0	2.5	/experiments/knapen_aot/oldvideos/S_ILSVRC2015_train_00704000.mp4	0.0	346.6388852596283	2.508396863937378
84	233.43019199371338	fix_post	2		12.0	82.0	2.5	/experiments/knapen_aot/oldvideos/S_ILSVRC2015_train_00704000.mp4	0.0	349.1472821235657	0.10004615783691406
85	233.5302381515503	fix_pre	0		12.0	83.0	2.5	blank	1.0	349.2473282814026	0.0998990535736084
85	233.62196016311646	response	0	2		83.0	2.5	blank	1.0	349.33905029296875	
85	233.6301372051239	movie	1		301.0	83.0	2.5	blank	1.0	349.3472273349762	2.508427858352661
85	236.13856506347656	fix_post	2		12.0	83.0	2.5	blank	1.0	351.85565519332886	0.09997892379760742
87	236.23854398727417	stim	0		166.0					351.95563411712646	1.3838980197906494
87	236.48131704330444	response	0	2						352.19840717315674	
87	237.61602306365967	response	0	space						353.33311319351196	
