trial_nr	onset	event_type	phase	response	nr_frames	movie_index	movie_duration	movie_file	blank	onset_abs	duration
0	0.13330602645874023	stim	0		59.0					57.52949595451355	0.49170398712158203
0	0.6167969703674316	response	0	space						58.01298689842224	
1	0.6250100135803223	stim	0		121.0					58.02119994163513	1.0078909397125244
1	1.2669270038604736	response	0	space						58.66311693191528	
1	1.6329009532928467	stim	1		120.0					59.029090881347656	1.0000910758972168
1	1.6664609909057617	response	1	space						59.06265091896057	
1	2.0005240440368652	response	1	space						59.396713972091675	
1	2.491374969482422	response	1	space						59.88756489753723	
2	2.6329920291900635	fix_pre	0		43.0	0.0	2.5	/experiments/knapen_aot/videos/R_S_yt-8LO59eN9om4_16.mp4	0.0	60.02918195724487	0.35820603370666504
2	2.983081102371216	response	0	space		0.0	2.5	/experiments/knapen_aot/videos/R_S_yt-8LO59eN9om4_16.mp4	0.0	60.379271030426025	
2	2.9911980628967285	movie	1		299.0	0.0	2.5	/experiments/knapen_aot/videos/R_S_yt-8LO59eN9om4_16.mp4	0.0	60.38738799095154	2.508349895477295
2	5.499547958374023	fix_post	2		12.0	0.0	2.5	/experiments/knapen_aot/videos/R_S_yt-8LO59eN9om4_16.mp4	0.0	62.89573788642883	0.10005807876586914
3	5.599606037139893	fix_pre	0		11.0	1.0	2.5	/experiments/knapen_aot/videos/S_yt-Faxdis4m3Fw_9.mp4	0.0	62.9957959651947	0.09184503555297852
3	5.6854729652404785	response	0	2		1.0	2.5	/experiments/knapen_aot/videos/S_yt-Faxdis4m3Fw_9.mp4	0.0	63.08166289329529	
3	5.691451072692871	movie	1		299.0	1.0	2.5	/experiments/knapen_aot/videos/S_yt-Faxdis4m3Fw_9.mp4	0.0	63.08764100074768	2.508164882659912
3	8.199615955352783	fix_post	2		12.0	1.0	2.5	/experiments/knapen_aot/videos/S_yt-Faxdis4m3Fw_9.mp4	0.0	65.59580588340759	0.10002017021179199
4	8.299636125564575	fix_pre	0		19.0	2.0	2.5	/experiments/knapen_aot/videos/S_yt-iKe-0YNR5Eo_164.mp4	0.0	65.69582605361938	0.1582648754119873
4	8.449702024459839	response	0	2		2.0	2.5	/experiments/knapen_aot/videos/S_yt-iKe-0YNR5Eo_164.mp4	0.0	65.84589195251465	
4	8.457901000976562	movie	1		301.0	2.0	2.5	/experiments/knapen_aot/videos/S_yt-iKe-0YNR5Eo_164.mp4	0.0	65.85409092903137	2.5083811283111572
4	10.96628212928772	fix_post	2		12.0	2.0	2.5	/experiments/knapen_aot/videos/S_yt-iKe-0YNR5Eo_164.mp4	0.0	68.36247205734253	0.10015583038330078
5	11.06643795967102	fix_pre	0		44.0	3.0	2.5	/experiments/knapen_aot/videos/S_comp_GMT329_113NC_396B_1105_CHINA_v04_SDR_FINAL_20180706_F900F2700_SDR_2K_AVC.mp4	0.0	68.46262788772583	0.3665120601654053
5	11.42472505569458	response	0	2		3.0	2.5	/experiments/knapen_aot/videos/S_comp_GMT329_113NC_396B_1105_CHINA_v04_SDR_FINAL_20180706_F900F2700_SDR_2K_AVC.mp4	0.0	68.82091498374939	
5	11.432950019836426	movie	1		162.0	3.0	2.5	/experiments/knapen_aot/videos/S_comp_GMT329_113NC_396B_1105_CHINA_v04_SDR_FINAL_20180706_F900F2700_SDR_2K_AVC.mp4	0.0	68.82913994789124	2.5084619522094727
5	13.941411972045898	fix_post	2		12.0	3.0	2.5	/experiments/knapen_aot/videos/S_comp_GMT329_113NC_396B_1105_CHINA_v04_SDR_FINAL_20180706_F900F2700_SDR_2K_AVC.mp4	0.0	71.33760190010071	0.09983611106872559
6	14.041248083114624	fix_pre	0		29.0	4.0	2.5	/experiments/knapen_aot/videos/R_S_yt-JtR6WZXT2kU_8.mp4	0.0	71.43743801116943	0.24162602424621582
6	14.274765968322754	response	0	2		4.0	2.5	/experiments/knapen_aot/videos/R_S_yt-JtR6WZXT2kU_8.mp4	0.0	71.67095589637756	
6	14.28287410736084	movie	1		301.0	4.0	2.5	/experiments/knapen_aot/videos/R_S_yt-JtR6WZXT2kU_8.mp4	0.0	71.67906403541565	2.508286952972412
6	16.791161060333252	fix_post	2		12.0	4.0	2.5	/experiments/knapen_aot/videos/R_S_yt-JtR6WZXT2kU_8.mp4	0.0	74.18735098838806	0.10009002685546875
7	16.89125108718872	fix_pre	0		34.0	5.0	2.5	blank	1.0	74.28744101524353	0.28320908546447754
7	17.166351079940796	response	0	2		5.0	2.5	blank	1.0	74.5625410079956	
7	17.1744601726532	movie	1		301.0	5.0	2.5	blank	1.0	74.57065010070801	2.508373975753784
7	19.682834148406982	fix_post	2		12.0	5.0	2.5	blank	1.0	77.07902407646179	0.10006189346313477
8	19.782896041870117	fix_pre	0		27.0	6.0	2.5	/experiments/knapen_aot/videos/R_S_ILSVRC2015_train_00545000.mp4	0.0	77.17908596992493	0.2249770164489746
8	19.99211597442627	response	0	2		6.0	2.5	/experiments/knapen_aot/videos/R_S_ILSVRC2015_train_00545000.mp4	0.0	77.38830590248108	
8	20.007873058319092	movie	1		300.0	6.0	2.5	/experiments/knapen_aot/videos/R_S_ILSVRC2015_train_00545000.mp4	0.0	77.4040629863739	2.5083439350128174
8	22.51621699333191	fix_post	2		12.0	6.0	2.5	/experiments/knapen_aot/videos/R_S_ILSVRC2015_train_00545000.mp4	0.0	79.91240692138672	0.09994816780090332
9	22.616165161132812	fix_pre	0		33.0	7.0	2.5	/experiments/knapen_aot/videos/S_yt-PREz5XiiXg0_107.mp4	0.0	80.01235508918762	0.2749598026275635
9	22.883032083511353	response	0	2		7.0	2.5	/experiments/knapen_aot/videos/S_yt-PREz5XiiXg0_107.mp4	0.0	80.27922201156616	
9	22.891124963760376	movie	1		301.0	7.0	2.5	/experiments/knapen_aot/videos/S_yt-PREz5XiiXg0_107.mp4	0.0	80.28731489181519	2.5085091590881348
9	25.39963412284851	fix_post	2		12.0	7.0	2.5	/experiments/knapen_aot/videos/S_yt-PREz5XiiXg0_107.mp4	0.0	82.79582405090332	0.09991788864135742
10	25.499552011489868	fix_pre	0		37.0	8.0	2.5	/experiments/knapen_aot/videos/S_I005_C008_CROP_SDR_2K_AVC.mp4	0.0	82.89574193954468	0.3082590103149414
10	25.799740076065063	response	0	2		8.0	2.5	/experiments/knapen_aot/videos/S_I005_C008_CROP_SDR_2K_AVC.mp4	0.0	83.19593000411987	
10	25.80781102180481	movie	1		168.0	8.0	2.5	/experiments/knapen_aot/videos/S_I005_C008_CROP_SDR_2K_AVC.mp4	0.0	83.20400094985962	2.5084900856018066
10	28.316301107406616	fix_post	2		12.0	8.0	2.5	/experiments/knapen_aot/videos/S_I005_C008_CROP_SDR_2K_AVC.mp4	0.0	85.71249103546143	0.0999288558959961
11	28.416229963302612	fix_pre	0		34.0	9.0	2.5	/experiments/knapen_aot/videos/R_S_yt-PaxmJhMoP3w_87.mp4	0.0	85.81241989135742	0.2832942008972168
11	28.69135808944702	response	0	2		9.0	2.5	/experiments/knapen_aot/videos/R_S_yt-PaxmJhMoP3w_87.mp4	0.0	86.08754801750183	
11	28.69952416419983	movie	1		301.0	9.0	2.5	/experiments/knapen_aot/videos/R_S_yt-PaxmJhMoP3w_87.mp4	0.0	86.09571409225464	2.5083508491516113
11	31.20787501335144	fix_post	2		12.0	9.0	2.5	/experiments/knapen_aot/videos/R_S_yt-PaxmJhMoP3w_87.mp4	0.0	88.60406494140625	0.10000205039978027
12	31.30787706375122	fix_pre	0		35.0	10.0	2.5	/experiments/knapen_aot/videos/S_yt-yAtHuDsadu8_102.mp4	0.0	88.70406699180603	0.2931199073791504
12	31.59144401550293	response	0	2		10.0	2.5	/experiments/knapen_aot/videos/S_yt-yAtHuDsadu8_102.mp4	0.0	88.98763394355774	
12	31.60099697113037	movie	1		301.0	10.0	2.5	/experiments/knapen_aot/videos/S_yt-yAtHuDsadu8_102.mp4	0.0	88.99718689918518	2.5069639682769775
12	34.10796093940735	fix_post	2		12.0	10.0	2.5	/experiments/knapen_aot/videos/S_yt-yAtHuDsadu8_102.mp4	0.0	91.50415086746216	0.09993410110473633
13	34.207895040512085	fix_pre	0		49.0	11.0	2.5	/experiments/knapen_aot/videos/S_ILSVRC2015_train_00756000.mp4	0.0	91.6040849685669	0.40825796127319336
13	34.608055114746094	response	0	2		11.0	2.5	/experiments/knapen_aot/videos/S_ILSVRC2015_train_00756000.mp4	0.0	92.0042450428009	
13	34.61615300178528	movie	1		301.0	11.0	2.5	/experiments/knapen_aot/videos/S_ILSVRC2015_train_00756000.mp4	0.0	92.01234292984009	2.5083460807800293
13	37.12449908256531	fix_post	2		12.0	11.0	2.5	/experiments/knapen_aot/videos/S_ILSVRC2015_train_00756000.mp4	0.0	94.52068901062012	0.10002589225769043
14	37.224524974823	fix_pre	0		32.0	12.0	2.5	/experiments/knapen_aot/videos/S_yt-9CUR6mjzaiY_85.mp4	0.0	94.62071490287781	0.26663899421691895
14	37.47547698020935	response	0	2		12.0	2.5	/experiments/knapen_aot/videos/S_yt-9CUR6mjzaiY_85.mp4	0.0	94.87166690826416	
14	37.49116396903992	movie	1		301.0	12.0	2.5	/experiments/knapen_aot/videos/S_yt-9CUR6mjzaiY_85.mp4	0.0	94.88735389709473	2.5084290504455566
14	39.999593019485474	fix_post	2		12.0	12.0	2.5	/experiments/knapen_aot/videos/S_yt-9CUR6mjzaiY_85.mp4	0.0	97.39578294754028	0.09990501403808594
15	40.09949803352356	fix_pre	0		110.0	13.0	2.5	blank	1.0	97.49568796157837	0.9166691303253174
15	41.00793695449829	response	0	2		13.0	2.5	blank	1.0	98.4041268825531	
15	41.01616716384888	movie	1		301.0	13.0	2.5	blank	1.0	98.41235709190369	2.508370876312256
15	43.52453804016113	fix_post	2		12.0	13.0	2.5	blank	1.0	100.92072796821594	0.09988999366760254
16	43.624428033828735	fix_pre	0		84.0	14.0	2.5	/experiments/knapen_aot/videos/S_nPwtvvPgdNc_39.mp4	0.0	101.02061796188354	0.7000510692596436
16	44.31638216972351	response	0	2		14.0	2.5	/experiments/knapen_aot/videos/S_nPwtvvPgdNc_39.mp4	0.0	101.71257209777832	
16	44.32447910308838	movie	1		301.0	14.0	2.5	/experiments/knapen_aot/videos/S_nPwtvvPgdNc_39.mp4	0.0	101.72066903114319	2.5082738399505615
16	46.83275294303894	fix_post	2		12.0	14.0	2.5	/experiments/knapen_aot/videos/S_nPwtvvPgdNc_39.mp4	0.0	104.22894287109375	0.10006117820739746
17	46.93281412124634	fix_pre	0		110.0	15.0	2.5	/experiments/knapen_aot/videos/R_S_yt-1Xbcf0BPT-g_57.mp4	0.0	104.32900404930115	0.9180018901824951
17	47.841310024261475	response	0	2		15.0	2.5	/experiments/knapen_aot/videos/R_S_yt-1Xbcf0BPT-g_57.mp4	0.0	105.23749995231628	
17	47.85081601142883	movie	1		301.0	15.0	2.5	/experiments/knapen_aot/videos/R_S_yt-1Xbcf0BPT-g_57.mp4	0.0	105.24700593948364	2.506974935531616
17	50.35779094696045	fix_post	2		12.0	15.0	2.5	/experiments/knapen_aot/videos/R_S_yt-1Xbcf0BPT-g_57.mp4	0.0	107.75398087501526	0.09998321533203125
18	50.45777416229248	fix_pre	0		50.0	16.0	2.5	/experiments/knapen_aot/videos/S_yt-1H8sfkZGZK8_3.mp4	0.0	107.85396409034729	0.416597843170166
18	50.86624813079834	response	0	2		16.0	2.5	/experiments/knapen_aot/videos/S_yt-1H8sfkZGZK8_3.mp4	0.0	108.26243805885315	
18	50.87437200546265	movie	1		301.0	16.0	2.5	/experiments/knapen_aot/videos/S_yt-1H8sfkZGZK8_3.mp4	0.0	108.27056193351746	2.508357048034668
18	53.382729053497314	fix_post	2		12.0	16.0	2.5	/experiments/knapen_aot/videos/S_yt-1H8sfkZGZK8_3.mp4	0.0	110.77891898155212	0.09999203681945801
19	53.48272109031677	fix_pre	0		56.0	17.0	2.5	/experiments/knapen_aot/videos/S_yt_R-JarqKC4X8nM_4.mp4	0.0	110.87891101837158	0.4666409492492676
19	53.941200971603394	response	0	2		17.0	2.5	/experiments/knapen_aot/videos/S_yt_R-JarqKC4X8nM_4.mp4	0.0	111.3373908996582	
19	53.94936203956604	movie	1		301.0	17.0	2.5	/experiments/knapen_aot/videos/S_yt_R-JarqKC4X8nM_4.mp4	0.0	111.34555196762085	2.5083870887756348
19	56.457749128341675	fix_post	2		12.0	17.0	2.5	/experiments/knapen_aot/videos/S_yt_R-JarqKC4X8nM_4.mp4	0.0	113.85393905639648	0.10002899169921875
20	56.557778120040894	fix_pre	0		57.0	18.0	2.5	/experiments/knapen_aot/videos/R_S_yt-y-boY803u9A_12.mp4	0.0	113.9539680480957	0.4749598503112793
20	57.02456212043762	response	0	2		18.0	2.5	/experiments/knapen_aot/videos/R_S_yt-y-boY803u9A_12.mp4	0.0	114.42075204849243	
20	57.03273797035217	movie	1		301.0	18.0	2.5	/experiments/knapen_aot/videos/R_S_yt-y-boY803u9A_12.mp4	0.0	114.42892789840698	2.508331060409546
20	59.54106903076172	fix_post	2		12.0	18.0	2.5	/experiments/knapen_aot/videos/R_S_yt-y-boY803u9A_12.mp4	0.0	116.93725895881653	0.09999299049377441
21	59.64106202125549	fix_pre	0		58.0	19.0	2.5	blank	1.0	117.0372519493103	0.4833040237426758
21	60.116219997406006	response	0	2		19.0	2.5	blank	1.0	117.51240992546082	
21	60.12436604499817	movie	1		301.0	19.0	2.5	blank	1.0	117.52055597305298	2.5084009170532227
21	62.63276696205139	fix_post	2		12.0	19.0	2.5	blank	1.0	120.0289568901062	0.09996700286865234
22	62.732733964920044	fix_pre	0		46.0	20.0	2.5	/experiments/knapen_aot/videos/R_S_yt-XYULt48onn4_6.mp4	0.0	120.12892389297485	0.38324403762817383
22	63.100646018981934	response	0	2		20.0	2.5	/experiments/knapen_aot/videos/R_S_yt-XYULt48onn4_6.mp4	0.0	120.49683594703674	
22	63.11597800254822	movie	1		301.0	20.0	2.5	/experiments/knapen_aot/videos/R_S_yt-XYULt48onn4_6.mp4	0.0	120.51216793060303	2.5083861351013184
22	65.62436413764954	fix_post	2		12.0	20.0	2.5	/experiments/knapen_aot/videos/R_S_yt-XYULt48onn4_6.mp4	0.0	123.02055406570435	0.10004591941833496
23	65.72441005706787	fix_pre	0		52.0	21.0	2.5	/experiments/knapen_aot/videos/R_S_yt-YlA-FPDylDE_100.mp4	0.0	123.12059998512268	0.43327808380126953
23	66.14956712722778	response	0	2		21.0	2.5	/experiments/knapen_aot/videos/R_S_yt-YlA-FPDylDE_100.mp4	0.0	123.54575705528259	
23	66.15768814086914	movie	1		300.0	21.0	2.5	/experiments/knapen_aot/videos/R_S_yt-YlA-FPDylDE_100.mp4	0.0	123.55387806892395	2.508373975753784
23	68.66606211662292	fix_post	2		12.0	21.0	2.5	/experiments/knapen_aot/videos/R_S_yt-YlA-FPDylDE_100.mp4	0.0	126.06225204467773	0.09998202323913574
24	68.76604413986206	fix_pre	0		157.0	22.0	2.5	/experiments/knapen_aot/videos/S_comp_GL_G004_C010_PSNK_v04_SDR_PS_FINAL_20180709_SDR_2K_AVC.mp4	0.0	126.16223406791687	1.3082950115203857
24	70.06613612174988	response	0	2		22.0	2.5	/experiments/knapen_aot/videos/S_comp_GL_G004_C010_PSNK_v04_SDR_PS_FINAL_20180709_SDR_2K_AVC.mp4	0.0	127.46232604980469	
24	70.07433915138245	movie	1		171.0	22.0	2.5	/experiments/knapen_aot/videos/S_comp_GL_G004_C010_PSNK_v04_SDR_PS_FINAL_20180709_SDR_2K_AVC.mp4	0.0	127.47052907943726	2.50827693939209
24	72.58261609077454	fix_post	2		12.0	22.0	2.5	/experiments/knapen_aot/videos/S_comp_GL_G004_C010_PSNK_v04_SDR_PS_FINAL_20180709_SDR_2K_AVC.mp4	0.0	129.97880601882935	0.09999489784240723
25	72.68261098861694	fix_pre	0		62.0	23.0	2.5	/experiments/knapen_aot/videos/S_ILSVRC2015_train_00457000.mp4	0.0	130.07880091667175	0.5166261196136475
25	73.19114303588867	response	0	2		23.0	2.5	/experiments/knapen_aot/videos/S_ILSVRC2015_train_00457000.mp4	0.0	130.58733296394348	
25	73.19923710823059	movie	1		301.0	23.0	2.5	/experiments/knapen_aot/videos/S_ILSVRC2015_train_00457000.mp4	0.0	130.5954270362854	2.5083119869232178
25	75.70754909515381	fix_post	2		12.0	23.0	2.5	/experiments/knapen_aot/videos/S_ILSVRC2015_train_00457000.mp4	0.0	133.10373902320862	0.10007405281066895
26	75.80762314796448	fix_pre	0		51.0	24.0	2.5	/experiments/knapen_aot/videos/R_S_comp_GMT026_363A_103NC_E1027_KOREA_JAPAN_NIGHT_v18_SDR_PS_20180907_SDR_2K_AVC.mp4	0.0	133.2038130760193	0.42501401901245117
26	76.21704411506653	response	0	2		24.0	2.5	/experiments/knapen_aot/videos/R_S_comp_GMT026_363A_103NC_E1027_KOREA_JAPAN_NIGHT_v18_SDR_PS_20180907_SDR_2K_AVC.mp4	0.0	133.61323404312134	
26	76.23263716697693	movie	1		170.0	24.0	2.5	/experiments/knapen_aot/videos/R_S_comp_GMT026_363A_103NC_E1027_KOREA_JAPAN_NIGHT_v18_SDR_PS_20180907_SDR_2K_AVC.mp4	0.0	133.62882709503174	2.5083179473876953
26	78.74095511436462	fix_post	2		12.0	24.0	2.5	/experiments/knapen_aot/videos/R_S_comp_GMT026_363A_103NC_E1027_KOREA_JAPAN_NIGHT_v18_SDR_PS_20180907_SDR_2K_AVC.mp4	0.0	136.13714504241943	0.1000528335571289
27	78.84100794792175	fix_pre	0		37.0	25.0	2.5	/experiments/knapen_aot/videos/R_S_yt-kxWtOXNIsRA_329.mp4	0.0	136.23719787597656	0.30839014053344727
27	79.14117503166199	response	0	2		25.0	2.5	/experiments/knapen_aot/videos/R_S_yt-kxWtOXNIsRA_329.mp4	0.0	136.5373649597168	
27	79.1493980884552	movie	1		301.0	25.0	2.5	/experiments/knapen_aot/videos/R_S_yt-kxWtOXNIsRA_329.mp4	0.0	136.54558801651	2.508241891860962
27	81.65763998031616	fix_post	2		12.0	25.0	2.5	/experiments/knapen_aot/videos/R_S_yt-kxWtOXNIsRA_329.mp4	0.0	139.05382990837097	0.09995603561401367
28	81.75759601593018	fix_pre	0		27.0	26.0	2.5	/experiments/knapen_aot/videos/R_S_yt-cjndulbUtRc_51.mp4	0.0	139.15378594398499	0.2250199317932129
28	81.97442317008972	response	0	2		26.0	2.5	/experiments/knapen_aot/videos/R_S_yt-cjndulbUtRc_51.mp4	0.0	139.37061309814453	
28	81.98261594772339	movie	1		301.0	26.0	2.5	/experiments/knapen_aot/videos/R_S_yt-cjndulbUtRc_51.mp4	0.0	139.3788058757782	2.5083301067352295
28	84.49094605445862	fix_post	2		12.0	26.0	2.5	/experiments/knapen_aot/videos/R_S_yt-cjndulbUtRc_51.mp4	0.0	141.88713598251343	0.10000991821289062
29	84.59095597267151	fix_pre	0		36.0	27.0	2.5	blank	1.0	141.98714590072632	0.2999720573425293
29	84.88277101516724	response	0	2		27.0	2.5	blank	1.0	142.27896094322205	
29	84.89092803001404	movie	1		301.0	27.0	2.5	blank	1.0	142.28711795806885	2.5083110332489014
29	87.39923906326294	fix_post	2		12.0	27.0	2.5	blank	1.0	144.79542899131775	0.10005998611450195
30	87.49929904937744	fix_pre	0		51.0	28.0	2.5	/experiments/knapen_aot/videos/S_production_ID_5139371.mp4	0.0	144.89548897743225	0.42494893074035645
30	87.91603708267212	response	0	2		28.0	2.5	/experiments/knapen_aot/videos/S_production_ID_5139371.mp4	0.0	145.31222701072693	
30	87.9242479801178	movie	1		163.0	28.0	2.5	/experiments/knapen_aot/videos/S_production_ID_5139371.mp4	0.0	145.3204379081726	2.5083260536193848
30	90.43257403373718	fix_post	2		12.0	28.0	2.5	/experiments/knapen_aot/videos/S_production_ID_5139371.mp4	0.0	147.828763961792	0.10004091262817383
31	90.53261494636536	fix_pre	0		9.0	29.0	2.5	/experiments/knapen_aot/videos/R_S_video-5.mp4	0.0	147.92880487442017	0.07497811317443848
31	90.59935402870178	response	0	2		29.0	2.5	/experiments/knapen_aot/videos/R_S_video-5.mp4	0.0	147.9955439567566	
31	90.6075930595398	movie	1		172.0	29.0	2.5	/experiments/knapen_aot/videos/R_S_video-5.mp4	0.0	148.0037829875946	2.5083138942718506
31	93.11590695381165	fix_post	2		12.0	29.0	2.5	/experiments/knapen_aot/videos/R_S_video-5.mp4	0.0	150.51209688186646	0.09998321533203125
32	93.21589016914368	fix_pre	0		26.0	30.0	2.5	/experiments/knapen_aot/videos/R_S_yt-lADkWM79teI_18.mp4	0.0	150.6120800971985	0.21782779693603516
32	93.42437100410461	response	0	2		30.0	2.5	/experiments/knapen_aot/videos/R_S_yt-lADkWM79teI_18.mp4	0.0	150.82056093215942	
32	93.43371796607971	movie	1		301.0	30.0	2.5	/experiments/knapen_aot/videos/R_S_yt-lADkWM79teI_18.mp4	0.0	150.82990789413452	2.5071752071380615
32	95.94089317321777	fix_post	2		12.0	30.0	2.5	/experiments/knapen_aot/videos/R_S_yt-lADkWM79teI_18.mp4	0.0	153.33708310127258	0.10003089904785156
33	96.04092407226562	fix_pre	0		38.0	31.0	2.5	/experiments/knapen_aot/videos/S_yt-0xzYSBvVfYM_197.mp4	0.0	153.43711400032043	0.3166079521179199
33	96.3494200706482	response	0	2		31.0	2.5	/experiments/knapen_aot/videos/S_yt-0xzYSBvVfYM_197.mp4	0.0	153.745609998703	
33	96.35753202438354	movie	1		301.0	31.0	2.5	/experiments/knapen_aot/videos/S_yt-0xzYSBvVfYM_197.mp4	0.0	153.75372195243835	2.5083670616149902
33	98.86589908599854	fix_post	2		12.0	31.0	2.5	/experiments/knapen_aot/videos/S_yt-0xzYSBvVfYM_197.mp4	0.0	156.26208901405334	0.09992599487304688
34	98.96582508087158	fix_pre	0		31.0	32.0	2.5	/experiments/knapen_aot/videos/S_P005_C002_UHD_SDR_2K_AVC.mp4	0.0	156.3620150089264	0.2594490051269531
34	99.21599411964417	response	0	2		32.0	2.5	/experiments/knapen_aot/videos/S_P005_C002_UHD_SDR_2K_AVC.mp4	0.0	156.61218404769897	
34	99.22527408599854	movie	1		165.0	32.0	2.5	/experiments/knapen_aot/videos/S_P005_C002_UHD_SDR_2K_AVC.mp4	0.0	156.62146401405334	2.5072970390319824
34	101.73257112503052	fix_post	2		12.0	32.0	2.5	/experiments/knapen_aot/videos/S_P005_C002_UHD_SDR_2K_AVC.mp4	0.0	159.12876105308533	0.0999598503112793
35	101.8325309753418	fix_pre	0		42.0	33.0	2.5	blank	1.0	159.2287209033966	0.34995317459106445
35	102.1743061542511	response	0	2		33.0	2.5	blank	1.0	159.5704960823059	
35	102.18248414993286	movie	1		301.0	33.0	2.5	blank	1.0	159.57867407798767	2.5084218978881836
35	104.69090604782104	fix_post	2		12.0	33.0	2.5	blank	1.0	162.08709597587585	0.09994292259216309
36	104.79084897041321	fix_pre	0		56.0	34.0	2.5	/experiments/knapen_aot/videos/R_S_I005_C008_CROP_SDR_2K_AVC.mp4	0.0	162.18703889846802	0.4666311740875244
36	105.24934506416321	response	0	2		34.0	2.5	/experiments/knapen_aot/videos/R_S_I005_C008_CROP_SDR_2K_AVC.mp4	0.0	162.64553499221802	
36	105.25748014450073	movie	1		169.0	34.0	2.5	/experiments/knapen_aot/videos/R_S_I005_C008_CROP_SDR_2K_AVC.mp4	0.0	162.65367007255554	2.508354902267456
36	107.76583504676819	fix_post	2		12.0	34.0	2.5	/experiments/knapen_aot/videos/R_S_I005_C008_CROP_SDR_2K_AVC.mp4	0.0	165.162024974823	0.1000359058380127
37	107.8658709526062	fix_pre	0		41.0	35.0	2.5	/experiments/knapen_aot/videos/S_yt-DmlSN7mzczI_62.mp4	0.0	165.262060880661	0.34159302711486816
37	108.19929814338684	response	0	2		35.0	2.5	/experiments/knapen_aot/videos/S_yt-DmlSN7mzczI_62.mp4	0.0	165.59548807144165	
37	108.20746397972107	movie	1		301.0	35.0	2.5	/experiments/knapen_aot/videos/S_yt-DmlSN7mzczI_62.mp4	0.0	165.60365390777588	2.5083889961242676
37	110.71585297584534	fix_post	2		12.0	35.0	2.5	/experiments/knapen_aot/videos/S_yt-DmlSN7mzczI_62.mp4	0.0	168.11204290390015	0.10000300407409668
38	110.81585597991943	fix_pre	0		36.0	36.0	2.5	/experiments/knapen_aot/videos/S_ILSVRC2015_train_00682009.mp4	0.0	168.21204590797424	0.2999570369720459
38	111.1076500415802	response	0	2		36.0	2.5	/experiments/knapen_aot/videos/S_ILSVRC2015_train_00682009.mp4	0.0	168.503839969635	
38	111.11581301689148	movie	1		299.0	36.0	2.5	/experiments/knapen_aot/videos/S_ILSVRC2015_train_00682009.mp4	0.0	168.5120029449463	2.508378028869629
38	113.62419104576111	fix_post	2		12.0	36.0	2.5	/experiments/knapen_aot/videos/S_ILSVRC2015_train_00682009.mp4	0.0	171.02038097381592	0.10103297233581543
39	113.72522401809692	fix_pre	0		27.0	37.0	2.5	/experiments/knapen_aot/videos/S_video-5.mp4	0.0	171.12141394615173	0.223891019821167
39	113.93354296684265	response	0	2		37.0	2.5	/experiments/knapen_aot/videos/S_video-5.mp4	0.0	171.32973289489746	
39	113.94911503791809	movie	1		168.0	37.0	2.5	/experiments/knapen_aot/videos/S_video-5.mp4	0.0	171.3453049659729	2.5083489418029785
39	116.45746397972107	fix_post	2		12.0	37.0	2.5	/experiments/knapen_aot/videos/S_video-5.mp4	0.0	173.85365390777588	0.10107612609863281
40	116.5585401058197	fix_pre	0		31.0	38.0	2.5	/experiments/knapen_aot/videos/R_S_yt-BAwvfRmE1LU_79.mp4	0.0	173.9547300338745	0.257235050201416
40	116.80757999420166	response	0	2		38.0	2.5	/experiments/knapen_aot/videos/R_S_yt-BAwvfRmE1LU_79.mp4	0.0	174.20376992225647	
40	116.81577515602112	movie	1		301.0	38.0	2.5	/experiments/knapen_aot/videos/R_S_yt-BAwvfRmE1LU_79.mp4	0.0	174.21196508407593	2.508373975753784
40	119.3241491317749	fix_post	2		12.0	38.0	2.5	/experiments/knapen_aot/videos/R_S_yt-BAwvfRmE1LU_79.mp4	0.0	176.7203390598297	0.10003280639648438
41	119.42418193817139	fix_pre	0		63.0	39.0	2.5	/experiments/knapen_aot/videos/R_S_flickr-seattlemcneals-996953_3.mp4	0.0	176.8203718662262	0.5249500274658203
41	119.94098615646362	response	0	2		39.0	2.5	/experiments/knapen_aot/videos/R_S_flickr-seattlemcneals-996953_3.mp4	0.0	177.33717608451843	
41	119.9491319656372	movie	1		301.0	39.0	2.5	/experiments/knapen_aot/videos/R_S_flickr-seattlemcneals-996953_3.mp4	0.0	177.34532189369202	2.508291006088257
41	122.45742297172546	fix_post	2		12.0	39.0	2.5	/experiments/knapen_aot/videos/R_S_flickr-seattlemcneals-996953_3.mp4	0.0	179.85361289978027	0.10002517700195312
42	122.55744814872742	fix_pre	0		66.0	40.0	2.5	/experiments/knapen_aot/videos/R_S_yt-1H8sfkZGZK8_3.mp4	0.0	179.95363807678223	0.5500218868255615
42	123.09936213493347	response	0	2		40.0	2.5	/experiments/knapen_aot/videos/R_S_yt-1H8sfkZGZK8_3.mp4	0.0	180.49555206298828	
42	123.10747003555298	movie	1		301.0	40.0	2.5	/experiments/knapen_aot/videos/R_S_yt-1H8sfkZGZK8_3.mp4	0.0	180.5036599636078	2.508286952972412
42	125.61575698852539	fix_post	2		12.0	40.0	2.5	/experiments/knapen_aot/videos/R_S_yt-1H8sfkZGZK8_3.mp4	0.0	183.0119469165802	0.10003995895385742
43	125.71579694747925	fix_pre	0		38.0	41.0	2.5	blank	1.0	183.11198687553406	0.31667399406433105
43	126.02440595626831	response	0	2		41.0	2.5	blank	1.0	183.42059588432312	
43	126.03247094154358	movie	1		301.0	41.0	2.5	blank	1.0	183.4286608695984	2.508348226547241
43	128.54081916809082	fix_post	2		12.0	41.0	2.5	blank	1.0	185.93700909614563	0.09997391700744629
44	128.64079308509827	fix_pre	0		36.0	42.0	2.5	/experiments/knapen_aot/videos/S_yt-XYULt48onn4_6.mp4	0.0	186.03698301315308	0.3000218868255615
44	128.93248009681702	response	0	2		42.0	2.5	/experiments/knapen_aot/videos/S_yt-XYULt48onn4_6.mp4	0.0	186.32867002487183	
44	128.94081497192383	movie	1		301.0	42.0	2.5	/experiments/knapen_aot/videos/S_yt-XYULt48onn4_6.mp4	0.0	186.33700489997864	2.5082550048828125
44	131.44906997680664	fix_post	2		12.0	42.0	2.5	/experiments/knapen_aot/videos/S_yt-XYULt48onn4_6.mp4	0.0	188.84525990486145	0.09996819496154785
45	131.5490381717682	fix_pre	0		31.0	43.0	2.5	/experiments/knapen_aot/videos/S_yt-jy7rAnpu0u8_128.mp4	0.0	188.945228099823	0.25928688049316406
45	131.799222946167	response	0	2		43.0	2.5	/experiments/knapen_aot/videos/S_yt-jy7rAnpu0u8_128.mp4	0.0	189.1954128742218	
45	131.80832505226135	movie	1		301.0	43.0	2.5	/experiments/knapen_aot/videos/S_yt-jy7rAnpu0u8_128.mp4	0.0	189.20451498031616	2.5073869228363037
45	134.31571197509766	fix_post	2		12.0	43.0	2.5	/experiments/knapen_aot/videos/S_yt-jy7rAnpu0u8_128.mp4	0.0	191.71190190315247	0.10006308555603027
46	134.4157750606537	fix_pre	0		52.0	44.0	2.5	/experiments/knapen_aot/videos/R_S_yt-qYuLW5vSotM_160.mp4	0.0	191.8119649887085	0.43419909477233887
46	134.8408420085907	response	0	2		44.0	2.5	/experiments/knapen_aot/videos/R_S_yt-qYuLW5vSotM_160.mp4	0.0	192.2370319366455	
46	134.84997415542603	movie	1		301.0	44.0	2.5	/experiments/knapen_aot/videos/R_S_yt-qYuLW5vSotM_160.mp4	0.0	192.24616408348083	2.507380962371826
46	137.35735511779785	fix_post	2		12.0	44.0	2.5	/experiments/knapen_aot/videos/R_S_yt-qYuLW5vSotM_160.mp4	0.0	194.75354504585266	0.10001087188720703
47	137.45736598968506	fix_pre	0		52.0	45.0	2.5	/experiments/knapen_aot/videos/R_S_yt-QFGyhhr1KSQ_9.mp4	0.0	194.85355591773987	0.434251070022583
47	137.88256216049194	response	0	2		45.0	2.5	/experiments/knapen_aot/videos/R_S_yt-QFGyhhr1KSQ_9.mp4	0.0	195.27875208854675	
47	137.89161705970764	movie	1		301.0	45.0	2.5	/experiments/knapen_aot/videos/R_S_yt-QFGyhhr1KSQ_9.mp4	0.0	195.28780698776245	2.5073370933532715
47	140.3989541530609	fix_post	2		12.0	45.0	2.5	/experiments/knapen_aot/videos/R_S_yt-QFGyhhr1KSQ_9.mp4	0.0	197.79514408111572	0.10011887550354004
48	140.49907302856445	fix_pre	0		54.0	46.0	2.5	/experiments/knapen_aot/videos/R_S_yt-J1dw4AznwmQ_7.mp4	0.0	197.89526295661926	0.44997692108154297
48	140.9408619403839	response	0	2		46.0	2.5	/experiments/knapen_aot/videos/R_S_yt-J1dw4AznwmQ_7.mp4	0.0	198.33705186843872	
48	140.949049949646	movie	1		301.0	46.0	2.5	/experiments/knapen_aot/videos/R_S_yt-J1dw4AznwmQ_7.mp4	0.0	198.3452398777008	2.5082662105560303
48	143.45731616020203	fix_post	2		12.0	46.0	2.5	/experiments/knapen_aot/videos/R_S_yt-J1dw4AznwmQ_7.mp4	0.0	200.85350608825684	0.10003495216369629
49	143.55735111236572	fix_pre	0		33.0	47.0	2.5	/experiments/knapen_aot/videos/R_S_ILSVRC2015_train_00682009.mp4	0.0	200.95354104042053	0.2749760150909424
49	143.81670594215393	response	0	2		47.0	2.5	/experiments/knapen_aot/videos/R_S_ILSVRC2015_train_00682009.mp4	0.0	201.21289587020874	
49	143.83232712745667	movie	1		301.0	47.0	2.5	/experiments/knapen_aot/videos/R_S_ILSVRC2015_train_00682009.mp4	0.0	201.22851705551147	2.508405923843384
49	146.34073305130005	fix_post	2		12.0	47.0	2.5	/experiments/knapen_aot/videos/R_S_ILSVRC2015_train_00682009.mp4	0.0	203.73692297935486	0.09997200965881348
50	146.44070506095886	fix_pre	0		13.0	48.0	2.5	blank	1.0	203.83689498901367	0.10826992988586426
50	146.5408501625061	response	0	2		48.0	2.5	blank	1.0	203.9370400905609	
50	146.54897499084473	movie	1		301.0	48.0	2.5	blank	1.0	203.94516491889954	2.508392095565796
50	148.60744714736938	response	1	2		48.0	2.5	blank	1.0	206.0036370754242	
50	149.05736708641052	fix_post	2		12.0	48.0	2.5	blank	1.0	206.45355701446533	0.09996700286865234
51	149.15733408927917	fix_pre	0		23.0	49.0	2.5	/experiments/knapen_aot/videos/R_S_yt-cjndulbUtRc_51.mp4	0.0	206.55352401733398	0.19249987602233887
51	149.34080004692078	response	0	2		49.0	2.5	/experiments/knapen_aot/videos/R_S_yt-cjndulbUtRc_51.mp4	0.0	206.7369899749756	
51	149.3498339653015	movie	1		301.0	49.0	2.5	/experiments/knapen_aot/videos/R_S_yt-cjndulbUtRc_51.mp4	0.0	206.74602389335632	2.507517099380493
51	151.857351064682	fix_post	2		12.0	49.0	2.5	/experiments/knapen_aot/videos/R_S_yt-cjndulbUtRc_51.mp4	0.0	209.25354099273682	0.09994292259216309
52	151.95729398727417	fix_pre	0		16.0	50.0	2.5	/experiments/knapen_aot/videos/R_S_P005_C002_UHD_SDR_2K_AVC.mp4	0.0	209.35348391532898	0.13333606719970703
52	152.08246517181396	response	0	2		50.0	2.5	/experiments/knapen_aot/videos/R_S_P005_C002_UHD_SDR_2K_AVC.mp4	0.0	209.47865509986877	
52	152.09063005447388	movie	1		165.0	50.0	2.5	/experiments/knapen_aot/videos/R_S_P005_C002_UHD_SDR_2K_AVC.mp4	0.0	209.4868199825287	2.5083611011505127
52	154.5989911556244	fix_post	2		12.0	50.0	2.5	/experiments/knapen_aot/videos/R_S_P005_C002_UHD_SDR_2K_AVC.mp4	0.0	211.9951810836792	0.10002398490905762
53	154.69901514053345	fix_pre	0		30.0	51.0	2.5	/experiments/knapen_aot/videos/R_S_yt-xlHdGsXVZFU_83.mp4	0.0	212.09520506858826	0.25000596046447754
53	154.94075798988342	response	0	2		51.0	2.5	/experiments/knapen_aot/videos/R_S_yt-xlHdGsXVZFU_83.mp4	0.0	212.33694791793823	
53	154.94902110099792	movie	1		301.0	51.0	2.5	/experiments/knapen_aot/videos/R_S_yt-xlHdGsXVZFU_83.mp4	0.0	212.34521102905273	2.5082640647888184
53	157.45728516578674	fix_post	2		12.0	51.0	2.5	/experiments/knapen_aot/videos/R_S_yt-xlHdGsXVZFU_83.mp4	0.0	214.85347509384155	0.10006999969482422
54	157.55735516548157	fix_pre	0		49.0	52.0	2.5	/experiments/knapen_aot/videos/R_S_yt-1Xbcf0BPT-g_57.mp4	0.0	214.95354509353638	0.4083688259124756
54	157.95747208595276	response	0	2		52.0	2.5	/experiments/knapen_aot/videos/R_S_yt-1Xbcf0BPT-g_57.mp4	0.0	215.35366201400757	
54	157.96572399139404	movie	1		301.0	52.0	2.5	/experiments/knapen_aot/videos/R_S_yt-1Xbcf0BPT-g_57.mp4	0.0	215.36191391944885	2.508280038833618
54	160.47400403022766	fix_post	2		12.0	52.0	2.5	/experiments/knapen_aot/videos/R_S_yt-1Xbcf0BPT-g_57.mp4	0.0	217.87019395828247	0.09990501403808594
55	160.57390904426575	fix_pre	0		102.0	53.0	2.5	/experiments/knapen_aot/videos/R_S_bing-www_break_com_video_like-a-cat-catching-a-fly-3131008_12.mp4	0.0	217.97009897232056	0.8500380516052246
55	161.41579604148865	response	0	2		53.0	2.5	/experiments/knapen_aot/videos/R_S_bing-www_break_com_video_like-a-cat-catching-a-fly-3131008_12.mp4	0.0	218.81198596954346	
55	161.42394709587097	movie	1		301.0	53.0	2.5	/experiments/knapen_aot/videos/R_S_bing-www_break_com_video_like-a-cat-catching-a-fly-3131008_12.mp4	0.0	218.82013702392578	2.5083799362182617
55	163.93232703208923	fix_post	2		12.0	53.0	2.5	/experiments/knapen_aot/videos/R_S_bing-www_break_com_video_like-a-cat-catching-a-fly-3131008_12.mp4	0.0	221.32851696014404	0.10001206398010254
56	164.03233909606934	fix_pre	0		52.0	54.0	2.5	blank	1.0	221.42852902412415	0.4333159923553467
56	164.45738816261292	response	0	2		54.0	2.5	blank	1.0	221.85357809066772	
56	164.46565508842468	movie	1		301.0	54.0	2.5	blank	1.0	221.8618450164795	2.5083389282226562
56	166.97399401664734	fix_post	2		12.0	54.0	2.5	blank	1.0	224.37018394470215	0.09985494613647461
57	167.0738489627838	fix_pre	0		68.0	55.0	2.5	/experiments/knapen_aot/videos/S_yt-8aJDzfAaArQ_75.mp4	0.0	224.47003889083862	0.5674622058868408
57	167.63241910934448	response	0	2		55.0	2.5	/experiments/knapen_aot/videos/S_yt-8aJDzfAaArQ_75.mp4	0.0	225.0286090373993	
57	167.64131116867065	movie	1		301.0	55.0	2.5	/experiments/knapen_aot/videos/S_yt-8aJDzfAaArQ_75.mp4	0.0	225.03750109672546	2.5075860023498535
57	170.1488971710205	fix_post	2		12.0	55.0	2.5	/experiments/knapen_aot/videos/S_yt-8aJDzfAaArQ_75.mp4	0.0	227.54508709907532	0.10003876686096191
58	170.24893593788147	fix_pre	0		13.0	56.0	2.5	/experiments/knapen_aot/videos/R_S_yt-XYULt48onn4_6.mp4	0.0	227.64512586593628	0.1083381175994873
58	170.34905695915222	response	0	2		56.0	2.5	/experiments/knapen_aot/videos/R_S_yt-XYULt48onn4_6.mp4	0.0	227.74524688720703	
58	170.35727405548096	movie	1		301.0	56.0	2.5	/experiments/knapen_aot/videos/R_S_yt-XYULt48onn4_6.mp4	0.0	227.75346398353577	2.5083329677581787
58	172.86560702323914	fix_post	2		12.0	56.0	2.5	/experiments/knapen_aot/videos/R_S_yt-XYULt48onn4_6.mp4	0.0	230.26179695129395	0.10004091262817383
59	172.9656479358673	fix_pre	0		33.0	57.0	2.5	/experiments/knapen_aot/videos/S_yt-rlVzHENWufE_61.mp4	0.0	230.36183786392212	0.2749001979827881
59	173.23233103752136	response	0	2		57.0	2.5	/experiments/knapen_aot/videos/S_yt-rlVzHENWufE_61.mp4	0.0	230.62852096557617	
59	173.2405481338501	movie	1		301.0	57.0	2.5	/experiments/knapen_aot/videos/S_yt-rlVzHENWufE_61.mp4	0.0	230.6367380619049	2.5083508491516113
59	175.7488989830017	fix_post	2		12.0	57.0	2.5	/experiments/knapen_aot/videos/S_yt-rlVzHENWufE_61.mp4	0.0	233.14508891105652	0.09994816780090332
60	175.8488471508026	fix_pre	0		51.0	58.0	2.5	/experiments/knapen_aot/videos/R_S_yt-BrepyEWKrPQ_20.mp4	0.0	233.24503707885742	0.4250528812408447
60	176.26584601402283	response	0	2		58.0	2.5	/experiments/knapen_aot/videos/R_S_yt-BrepyEWKrPQ_20.mp4	0.0	233.66203594207764	
60	176.27390003204346	movie	1		301.0	58.0	2.5	/experiments/knapen_aot/videos/R_S_yt-BrepyEWKrPQ_20.mp4	0.0	233.67008996009827	2.5083370208740234
60	178.78223705291748	fix_post	2		12.0	58.0	2.5	/experiments/knapen_aot/videos/R_S_yt-BrepyEWKrPQ_20.mp4	0.0	236.1784269809723	0.10004496574401855
61	178.8822820186615	fix_pre	0		17.0	59.0	2.5	/experiments/knapen_aot/videos/S_comp_L004_C011_PS_v01_SDR_PS_20180925_SDR_2K_AVC.mp4	0.0	236.2784719467163	0.14165806770324707
61	179.00823998451233	response	0	2		59.0	2.5	/experiments/knapen_aot/videos/S_comp_L004_C011_PS_v01_SDR_PS_20180925_SDR_2K_AVC.mp4	0.0	236.40442991256714	
61	179.02394008636475	movie	1		166.0	59.0	2.5	/experiments/knapen_aot/videos/S_comp_L004_C011_PS_v01_SDR_PS_20180925_SDR_2K_AVC.mp4	0.0	236.42013001441956	2.508228063583374
61	181.53216814994812	fix_post	2		12.0	59.0	2.5	/experiments/knapen_aot/videos/S_comp_L004_C011_PS_v01_SDR_PS_20180925_SDR_2K_AVC.mp4	0.0	238.92835807800293	0.10008096694946289
62	181.63224911689758	fix_pre	0		33.0	60.0	2.5	/experiments/knapen_aot/videos/R_S_yt-ThT8utBaywI_68.mp4	0.0	239.0284390449524	0.27497291564941406
62	181.8990080356598	response	0	2		60.0	2.5	/experiments/knapen_aot/videos/R_S_yt-ThT8utBaywI_68.mp4	0.0	239.2951979637146	
62	181.907222032547	movie	1		301.0	60.0	2.5	/experiments/knapen_aot/videos/R_S_yt-ThT8utBaywI_68.mp4	0.0	239.3034119606018	2.5082879066467285
62	184.41550993919373	fix_post	2		12.0	60.0	2.5	/experiments/knapen_aot/videos/R_S_yt-ThT8utBaywI_68.mp4	0.0	241.81169986724854	0.09995722770690918
63	184.51546716690063	fix_pre	0		42.0	61.0	2.5	/experiments/knapen_aot/videos/R_S_nPwtvvPgdNc_39.mp4	0.0	241.91165709495544	0.3500537872314453
63	184.85733699798584	response	0	2		61.0	2.5	/experiments/knapen_aot/videos/R_S_nPwtvvPgdNc_39.mp4	0.0	242.25352692604065	
63	184.86552095413208	movie	1		301.0	61.0	2.5	/experiments/knapen_aot/videos/R_S_nPwtvvPgdNc_39.mp4	0.0	242.2617108821869	2.5083441734313965
63	187.37386512756348	fix_post	2		12.0	61.0	2.5	/experiments/knapen_aot/videos/R_S_nPwtvvPgdNc_39.mp4	0.0	244.7700550556183	0.10004591941833496
64	187.4739110469818	fix_pre	0		62.0	62.0	2.5	/experiments/knapen_aot/videos/S_yt-jy7rAnpu0u8_128.mp4	0.0	244.87010097503662	0.5166730880737305
64	187.98237109184265	response	0	2		62.0	2.5	/experiments/knapen_aot/videos/S_yt-jy7rAnpu0u8_128.mp4	0.0	245.37856101989746	
64	187.99058413505554	movie	1		301.0	62.0	2.5	/experiments/knapen_aot/videos/S_yt-jy7rAnpu0u8_128.mp4	0.0	245.38677406311035	2.5082809925079346
64	190.49886512756348	fix_post	2		12.0	62.0	2.5	/experiments/knapen_aot/videos/S_yt-jy7rAnpu0u8_128.mp4	0.0	247.8950550556183	0.1000068187713623
65	190.59887194633484	fix_pre	0		31.0	63.0	2.5	blank	1.0	247.99506187438965	0.25835108757019043
65	190.84895205497742	response	0	2		63.0	2.5	blank	1.0	248.24514198303223	
65	190.85722303390503	movie	1		301.0	63.0	2.5	blank	1.0	248.25341296195984	2.5082859992980957
65	193.36550903320312	fix_post	2		12.0	63.0	2.5	blank	1.0	250.76169896125793	0.10002899169921875
66	193.46553802490234	fix_pre	0		74.0	64.0	2.5	/experiments/knapen_aot/videos/R_S_yt-9t5-3Qe_t9A_591.mp4	0.0	250.86172795295715	0.616657018661499
66	194.0738971233368	response	0	2		64.0	2.5	/experiments/knapen_aot/videos/R_S_yt-9t5-3Qe_t9A_591.mp4	0.0	251.4700870513916	
66	194.08219504356384	movie	1		301.0	64.0	2.5	/experiments/knapen_aot/videos/R_S_yt-9t5-3Qe_t9A_591.mp4	0.0	251.47838497161865	2.5083301067352295
66	196.59052515029907	fix_post	2		12.0	64.0	2.5	/experiments/knapen_aot/videos/R_S_yt-9t5-3Qe_t9A_591.mp4	0.0	253.98671507835388	0.09995079040527344
67	196.69047594070435	fix_pre	0		25.0	65.0	2.5	/experiments/knapen_aot/videos/R_S_yt-2pRKCSgdXXU_30.mp4	0.0	254.08666586875916	0.20835113525390625
67	196.89058995246887	response	0	2		65.0	2.5	/experiments/knapen_aot/videos/R_S_yt-2pRKCSgdXXU_30.mp4	0.0	254.28677988052368	
67	196.89882707595825	movie	1		301.0	65.0	2.5	/experiments/knapen_aot/videos/R_S_yt-2pRKCSgdXXU_30.mp4	0.0	254.29501700401306	2.508362054824829
67	199.40718913078308	fix_post	2		12.0	65.0	2.5	/experiments/knapen_aot/videos/R_S_yt-2pRKCSgdXXU_30.mp4	0.0	256.8033790588379	0.0999908447265625
68	199.50717997550964	fix_pre	0		28.0	66.0	2.5	/experiments/knapen_aot/videos/R_S_yt-9t5-3Qe_t9A_591.mp4	0.0	256.90336990356445	0.23327302932739258
68	199.7322859764099	response	0	2		66.0	2.5	/experiments/knapen_aot/videos/R_S_yt-9t5-3Qe_t9A_591.mp4	0.0	257.1284759044647	
68	199.74045300483704	movie	1		299.0	66.0	2.5	/experiments/knapen_aot/videos/R_S_yt-9t5-3Qe_t9A_591.mp4	0.0	257.13664293289185	2.5083940029144287
68	202.24884700775146	fix_post	2		12.0	66.0	2.5	/experiments/knapen_aot/videos/R_S_yt-9t5-3Qe_t9A_591.mp4	0.0	259.6450369358063	0.09996414184570312
69	202.34881114959717	fix_pre	0		30.0	67.0	2.5	/experiments/knapen_aot/videos/R_S_wc-TAGpcap1KdAS_212.mp4	0.0	259.745001077652	0.250593900680542
69	202.59066104888916	response	0	2		67.0	2.5	/experiments/knapen_aot/videos/R_S_wc-TAGpcap1KdAS_212.mp4	0.0	259.98685097694397	
69	202.5994050502777	movie	1		301.0	67.0	2.5	/experiments/knapen_aot/videos/R_S_wc-TAGpcap1KdAS_212.mp4	0.0	259.9955949783325	2.5077860355377197
69	205.10719108581543	fix_post	2		12.0	67.0	2.5	/experiments/knapen_aot/videos/R_S_wc-TAGpcap1KdAS_212.mp4	0.0	262.50338101387024	0.0999460220336914
70	205.20713710784912	fix_pre	0		33.0	68.0	2.5	blank	1.0	262.60332703590393	0.27501583099365234
70	205.47396302223206	response	0	2		68.0	2.5	blank	1.0	262.87015295028687	
70	205.48215293884277	movie	1		301.0	68.0	2.5	blank	1.0	262.8783428668976	2.5082530975341797
70	207.99040603637695	fix_post	2		12.0	68.0	2.5	blank	1.0	265.38659596443176	0.10008597373962402
71	208.09049201011658	fix_pre	0		77.0	69.0	2.5	/experiments/knapen_aot/videos/R_S_I003_C011_SDR_2K_AVC.mp4	0.0	265.4866819381714	0.6415979862213135
71	208.7239420413971	response	0	2		69.0	2.5	/experiments/knapen_aot/videos/R_S_I003_C011_SDR_2K_AVC.mp4	0.0	266.1201319694519	
71	208.7320899963379	movie	1		169.0	69.0	2.5	/experiments/knapen_aot/videos/R_S_I003_C011_SDR_2K_AVC.mp4	0.0	266.1282799243927	2.508294105529785
71	211.24038410186768	fix_post	2		12.0	69.0	2.5	/experiments/knapen_aot/videos/R_S_I003_C011_SDR_2K_AVC.mp4	0.0	268.6365740299225	0.10011100769042969
72	211.3404951095581	fix_pre	0		56.0	70.0	2.5	/experiments/knapen_aot/videos/S_ILSVRC2015_train_00405000.mp4	0.0	268.7366850376129	0.4671359062194824
72	211.79888606071472	response	0	2		70.0	2.5	/experiments/knapen_aot/videos/S_ILSVRC2015_train_00405000.mp4	0.0	269.19507598876953	
72	211.8076310157776	movie	1		301.0	70.0	2.5	/experiments/knapen_aot/videos/S_ILSVRC2015_train_00405000.mp4	0.0	269.2038209438324	2.507791042327881
72	214.31542205810547	fix_post	2		12.0	70.0	2.5	/experiments/knapen_aot/videos/S_ILSVRC2015_train_00405000.mp4	0.0	271.7116119861603	0.0999910831451416
73	214.4154131412506	fix_pre	0		37.0	71.0	2.5	/experiments/knapen_aot/videos/R_S_yt-QFGyhhr1KSQ_9.mp4	0.0	271.8116030693054	0.3088350296020508
73	214.7155420780182	response	0	2		71.0	2.5	/experiments/knapen_aot/videos/R_S_yt-QFGyhhr1KSQ_9.mp4	0.0	272.111732006073	
73	214.72424817085266	movie	1		301.0	71.0	2.5	/experiments/knapen_aot/videos/R_S_yt-QFGyhhr1KSQ_9.mp4	0.0	272.12043809890747	2.5077638626098633
73	217.23201203346252	fix_post	2		12.0	71.0	2.5	/experiments/knapen_aot/videos/R_S_yt-QFGyhhr1KSQ_9.mp4	0.0	274.62820196151733	0.10000109672546387
74	217.332013130188	fix_pre	0		48.0	72.0	2.5	/experiments/knapen_aot/videos/R_S_video_inspire_california_santa-barbara_050.1080-h264.mp4	0.0	274.7282030582428	0.4000668525695801
74	217.72388315200806	response	0	2		72.0	2.5	/experiments/knapen_aot/videos/R_S_video_inspire_california_santa-barbara_050.1080-h264.mp4	0.0	275.12007308006287	
74	217.73207998275757	movie	1		168.0	72.0	2.5	/experiments/knapen_aot/videos/R_S_video_inspire_california_santa-barbara_050.1080-h264.mp4	0.0	275.1282699108124	2.5083069801330566
74	220.24038696289062	fix_post	2		12.0	72.0	2.5	/experiments/knapen_aot/videos/R_S_video_inspire_california_santa-barbara_050.1080-h264.mp4	0.0	277.63657689094543	0.09992599487304688
75	220.34031295776367	fix_pre	0		49.0	73.0	2.5	/experiments/knapen_aot/videos/S_ILSVRC2015_train_00324000.mp4	0.0	277.7365028858185	0.40834498405456543
75	220.74047112464905	response	0	2		73.0	2.5	/experiments/knapen_aot/videos/S_ILSVRC2015_train_00324000.mp4	0.0	278.13666105270386	
75	220.74865794181824	movie	1		301.0	73.0	2.5	/experiments/knapen_aot/videos/S_ILSVRC2015_train_00324000.mp4	0.0	278.14484786987305	2.508350133895874
75	223.2570080757141	fix_post	2		12.0	73.0	2.5	/experiments/knapen_aot/videos/S_ILSVRC2015_train_00324000.mp4	0.0	280.6531980037689	0.10002994537353516
76	223.35703802108765	fix_pre	0		53.0	74.0	2.5	/experiments/knapen_aot/videos/R_S_yt-Dwgpjoikt84_122.mp4	0.0	280.75322794914246	0.44161295890808105
76	223.7905330657959	response	0	2		74.0	2.5	/experiments/knapen_aot/videos/R_S_yt-Dwgpjoikt84_122.mp4	0.0	281.1867229938507	
76	223.79865097999573	movie	1		301.0	74.0	2.5	/experiments/knapen_aot/videos/R_S_yt-Dwgpjoikt84_122.mp4	0.0	281.19484090805054	2.50852108001709
76	226.30717206001282	fix_post	2		12.0	74.0	2.5	/experiments/knapen_aot/videos/R_S_yt-Dwgpjoikt84_122.mp4	0.0	283.7033619880676	0.09985494613647461
77	226.4070270061493	fix_pre	0		41.0	75.0	2.5	/experiments/knapen_aot/videos/S_yt-QqSceHxY3d0_356.mp4	0.0	283.8032169342041	0.34160494804382324
77	226.74056315422058	response	0	2		75.0	2.5	/experiments/knapen_aot/videos/S_yt-QqSceHxY3d0_356.mp4	0.0	284.1367530822754	
77	226.74863195419312	movie	1		301.0	75.0	2.5	/experiments/knapen_aot/videos/S_yt-QqSceHxY3d0_356.mp4	0.0	284.1448218822479	2.508333206176758
77	229.25696516036987	fix_post	2		12.0	75.0	2.5	/experiments/knapen_aot/videos/S_yt-QqSceHxY3d0_356.mp4	0.0	286.6531550884247	0.10001683235168457
78	229.35698199272156	fix_pre	0		51.0	76.0	2.5	blank	1.0	286.75317192077637	0.4249720573425293
78	229.77382802963257	response	0	2		76.0	2.5	blank	1.0	287.1700179576874	
78	229.7819540500641	movie	1		301.0	76.0	2.5	blank	1.0	287.1781439781189	2.5083649158477783
78	232.29031896591187	fix_post	2		12.0	76.0	2.5	blank	1.0	289.6865088939667	0.09992408752441406
79	232.39024305343628	fix_pre	0		70.0	77.0	2.5	/experiments/knapen_aot/videos/S_yt-Dwgpjoikt84_122.mp4	0.0	289.7864329814911	0.5838339328765869
79	232.96542716026306	response	0	2		77.0	2.5	/experiments/knapen_aot/videos/S_yt-Dwgpjoikt84_122.mp4	0.0	290.36161708831787	
79	232.97407698631287	movie	1		301.0	77.0	2.5	/experiments/knapen_aot/videos/S_yt-Dwgpjoikt84_122.mp4	0.0	290.3702669143677	2.507913112640381
79	235.48199009895325	fix_post	2		12.0	77.0	2.5	/experiments/knapen_aot/videos/S_yt-Dwgpjoikt84_122.mp4	0.0	292.87818002700806	0.10001897811889648
80	235.58200907707214	fix_pre	0		37.0	78.0	2.5	/experiments/knapen_aot/videos/S_ILSVRC2015_train_00682009.mp4	0.0	292.97819900512695	0.3086669445037842
80	235.88212394714355	response	0	2		78.0	2.5	/experiments/knapen_aot/videos/S_ILSVRC2015_train_00682009.mp4	0.0	293.27831387519836	
80	235.89067602157593	movie	1		301.0	78.0	2.5	/experiments/knapen_aot/videos/S_ILSVRC2015_train_00682009.mp4	0.0	293.28686594963074	2.5079801082611084
80	238.39865612983704	fix_post	2		12.0	78.0	2.5	/experiments/knapen_aot/videos/S_ILSVRC2015_train_00682009.mp4	0.0	295.79484605789185	0.09998393058776855
81	238.4986400604248	fix_pre	0		27.0	79.0	2.5	/experiments/knapen_aot/videos/R_S_yt-kXarkCFJLeg_46.mp4	0.0	295.8948299884796	0.2254009246826172
81	238.71546411514282	response	0	2		79.0	2.5	/experiments/knapen_aot/videos/R_S_yt-kXarkCFJLeg_46.mp4	0.0	296.11165404319763	
81	238.72404098510742	movie	1		301.0	79.0	2.5	/experiments/knapen_aot/videos/R_S_yt-kXarkCFJLeg_46.mp4	0.0	296.12023091316223	2.507930040359497
81	241.23197102546692	fix_post	2		12.0	79.0	2.5	/experiments/knapen_aot/videos/R_S_yt-kXarkCFJLeg_46.mp4	0.0	298.62816095352173	0.0999751091003418
82	241.33194613456726	fix_pre	0		33.0	80.0	2.5	/experiments/knapen_aot/videos/R_S_yt-Y3pi1bgUwIg_78.mp4	0.0	298.72813606262207	0.274993896484375
82	241.59881114959717	response	0	2		80.0	2.5	/experiments/knapen_aot/videos/R_S_yt-Y3pi1bgUwIg_78.mp4	0.0	298.995001077652	
82	241.60694003105164	movie	1		300.0	80.0	2.5	/experiments/knapen_aot/videos/R_S_yt-Y3pi1bgUwIg_78.mp4	0.0	299.00312995910645	2.5082740783691406
82	244.11521410942078	fix_post	2		12.0	80.0	2.5	/experiments/knapen_aot/videos/R_S_yt-Y3pi1bgUwIg_78.mp4	0.0	301.5114040374756	0.10007786750793457
83	244.2152919769287	fix_pre	0		28.0	81.0	2.5	/experiments/knapen_aot/videos/R_S_yt-7WYXuBHeorw_188.mp4	0.0	301.6114819049835	0.23326396942138672
83	244.44041800498962	response	0	2		81.0	2.5	/experiments/knapen_aot/videos/R_S_yt-7WYXuBHeorw_188.mp4	0.0	301.83660793304443	
83	244.4485559463501	movie	1		301.0	81.0	2.5	/experiments/knapen_aot/videos/R_S_yt-7WYXuBHeorw_188.mp4	0.0	301.8447458744049	2.5083441734313965
83	246.9569001197815	fix_post	2		12.0	81.0	2.5	/experiments/knapen_aot/videos/R_S_yt-7WYXuBHeorw_188.mp4	0.0	304.3530900478363	0.10003495216369629
84	247.0569350719452	fix_pre	0		52.0	82.0	2.5	blank	1.0	304.453125	0.43329286575317383
84	247.48208093643188	response	0	2		82.0	2.5	blank	1.0	304.8782708644867	
84	247.49022793769836	movie	1		301.0	82.0	2.5	blank	1.0	304.8864178657532	2.508334159851074
84	249.99856209754944	fix_post	2		12.0	82.0	2.5	blank	1.0	307.39475202560425	0.10041689872741699
85	250.09897899627686	fix_pre	0		64.0	83.0	2.5	/experiments/knapen_aot/videos/S_yt-N1ZrWT4xyzc_85.mp4	0.0	307.49516892433167	0.5329570770263672
85	250.6237280368805	response	0	2		83.0	2.5	/experiments/knapen_aot/videos/S_yt-N1ZrWT4xyzc_85.mp4	0.0	308.0199179649353	
85	250.63193607330322	movie	1		301.0	83.0	2.5	/experiments/knapen_aot/videos/S_yt-N1ZrWT4xyzc_85.mp4	0.0	308.02812600135803	2.5083160400390625
85	253.14025211334229	fix_post	2		12.0	83.0	2.5	/experiments/knapen_aot/videos/S_yt-N1ZrWT4xyzc_85.mp4	0.0	310.5364420413971	0.10000896453857422
87	253.24026107788086	stim	0		319.0					310.63645100593567	2.658241033554077
87	255.89362001419067	response	0	space						313.2898099422455	
