trial_nr	onset	event_type	phase	response	nr_frames	movie_index	movie_duration	movie_file	blank	onset_abs	duration
0	0.12495183944702148	stim	0		45.0					93.87206292152405	0.37476110458374023
0	0.49035096168518066	response	0	space						94.2374620437622	
1	0.4997129440307617	stim	0		121.0					94.24682402610779	1.0067470073699951
1	1.2580280303955078	response	0	space						95.00513911247253	
1	1.5064599514007568	stim	1		120.0					95.25357103347778	1.0001599788665771
1	1.7565438747406006	response	1	space						95.50365495681763	
2	2.506619930267334	fix_pre	0		55.0	0.0	2.5	/experiments/knapen_aot/videos/R_S_wc-lItGMdwvEd_l_7.mp4	0.0	96.25373101234436	0.4582250118255615
2	2.9565279483795166	response	0	space		0.0	2.5	/experiments/knapen_aot/videos/R_S_wc-lItGMdwvEd_l_7.mp4	0.0	96.70363903045654	
2	2.9648449420928955	movie	1		161.0	0.0	2.5	/experiments/knapen_aot/videos/R_S_wc-lItGMdwvEd_l_7.mp4	0.0	96.71195602416992	2.5084009170532227
2	5.473245859146118	fix_post	2		12.0	0.0	2.5	/experiments/knapen_aot/videos/R_S_wc-lItGMdwvEd_l_7.mp4	0.0	99.22035694122314	0.09982705116271973
3	5.573072910308838	fix_pre	0		23.0	1.0	2.5	/experiments/knapen_aot/videos/R_S_pexels-c-technical-6344801.mp4	0.0	99.32018399238586	0.1916520595550537
3	5.754008054733276	response	0	2		1.0	2.5	/experiments/knapen_aot/videos/R_S_pexels-c-technical-6344801.mp4	0.0	99.5011191368103	
3	5.764724969863892	movie	1		195.0	1.0	2.5	/experiments/knapen_aot/videos/R_S_pexels-c-technical-6344801.mp4	0.0	99.51183605194092	2.5085458755493164
3	8.273270845413208	fix_post	2		12.0	1.0	2.5	/experiments/knapen_aot/videos/R_S_pexels-c-technical-6344801.mp4	0.0	102.02038192749023	0.09981513023376465
4	8.373085975646973	fix_pre	0		22.0	2.0	2.5	/experiments/knapen_aot/videos/S_video.mp4	0.0	102.120197057724	0.1833040714263916
4	8.548163890838623	response	0	2		2.0	2.5	/experiments/knapen_aot/videos/S_video.mp4	0.0	102.29527497291565	
4	8.556390047073364	movie	1		166.0	2.0	2.5	/experiments/knapen_aot/videos/S_video.mp4	0.0	102.30350112915039	2.5083718299865723
4	11.064761877059937	fix_post	2		12.0	2.0	2.5	/experiments/knapen_aot/videos/S_video.mp4	0.0	104.81187295913696	0.09999513626098633
5	11.164757013320923	fix_pre	0		4.0	3.0	2.5	/experiments/knapen_aot/videos/S_yt-xgqx7tH92-c_6.mp4	0.0	104.91186809539795	0.03335094451904297
5	11.189988851547241	response	0	2		3.0	2.5	/experiments/knapen_aot/videos/S_yt-xgqx7tH92-c_6.mp4	0.0	104.93709993362427	
5	11.198107957839966	movie	1		301.0	3.0	2.5	/experiments/knapen_aot/videos/S_yt-xgqx7tH92-c_6.mp4	0.0	104.94521903991699	2.5083119869232178
5	13.706419944763184	fix_post	2		12.0	3.0	2.5	/experiments/knapen_aot/videos/S_yt-xgqx7tH92-c_6.mp4	0.0	107.45353102684021	0.10001897811889648
6	13.80643892288208	fix_pre	0		13.0	4.0	2.5	/experiments/knapen_aot/videos/R_S_yt-GfPep7IhZIU_47.mp4	0.0	107.5535500049591	0.10823202133178711
6	13.906522035598755	response	0	2		4.0	2.5	/experiments/knapen_aot/videos/R_S_yt-GfPep7IhZIU_47.mp4	0.0	107.65363311767578	
6	13.914670944213867	movie	1		301.0	4.0	2.5	/experiments/knapen_aot/videos/R_S_yt-GfPep7IhZIU_47.mp4	0.0	107.6617820262909	2.5084800720214844
6	16.42315101623535	fix_post	2		12.0	4.0	2.5	/experiments/knapen_aot/videos/R_S_yt-GfPep7IhZIU_47.mp4	0.0	110.17026209831238	0.09988999366760254
7	16.523041009902954	fix_pre	0		3.0	5.0	2.5	/experiments/knapen_aot/videos/S_yt_R-JarqKC4X8nM_4.mp4	0.0	110.27015209197998	0.025528907775878906
7	16.539813995361328	response	0	2		5.0	2.5	/experiments/knapen_aot/videos/S_yt_R-JarqKC4X8nM_4.mp4	0.0	110.28692507743835	
7	16.548569917678833	movie	1		301.0	5.0	2.5	/experiments/knapen_aot/videos/S_yt_R-JarqKC4X8nM_4.mp4	0.0	110.29568099975586	2.507789134979248
7	19.05635905265808	fix_post	2		12.0	5.0	2.5	/experiments/knapen_aot/videos/S_yt_R-JarqKC4X8nM_4.mp4	0.0	112.80347013473511	0.09997797012329102
8	19.156337022781372	fix_pre	0		5.0	6.0	2.5	blank	1.0	112.9034481048584	0.04170703887939453
8	19.189884901046753	response	0	2		6.0	2.5	blank	1.0	112.93699598312378	
8	19.198044061660767	movie	1		301.0	6.0	2.5	blank	1.0	112.9451551437378	2.508286952972412
8	21.70633101463318	fix_post	2		12.0	6.0	2.5	blank	1.0	115.4534420967102	0.10003399848937988
9	21.80636501312256	fix_pre	0		19.0	7.0	2.5	/experiments/knapen_aot/videos/R_S_yt-C0INfEJ4Awk_53.mp4	0.0	115.55347609519958	0.15837502479553223
9	21.956377029418945	response	0	2		7.0	2.5	/experiments/knapen_aot/videos/R_S_yt-C0INfEJ4Awk_53.mp4	0.0	115.70348811149597	
9	21.96474003791809	movie	1		301.0	7.0	2.5	/experiments/knapen_aot/videos/R_S_yt-C0INfEJ4Awk_53.mp4	0.0	115.71185111999512	2.508274793624878
9	24.47301483154297	fix_post	2		12.0	7.0	2.5	/experiments/knapen_aot/videos/R_S_yt-C0INfEJ4Awk_53.mp4	0.0	118.22012591362	0.10001420974731445
9	24.53143286705017	response	2	2		7.0	2.5	/experiments/knapen_aot/videos/R_S_yt-C0INfEJ4Awk_53.mp4	0.0	118.2785439491272	
10	24.573029041290283	fix_pre	0		32.0	8.0	2.5	/experiments/knapen_aot/videos/S_yt-SgiTZNjCPCo_19.mp4	0.0	118.32014012336731	0.2666449546813965
10	24.823999881744385	response	0	2		8.0	2.5	/experiments/knapen_aot/videos/S_yt-SgiTZNjCPCo_19.mp4	0.0	118.57111096382141	
10	24.83967399597168	movie	1		301.0	8.0	2.5	/experiments/knapen_aot/videos/S_yt-SgiTZNjCPCo_19.mp4	0.0	118.5867850780487	2.5083000659942627
10	27.347974061965942	fix_post	2		12.0	8.0	2.5	/experiments/knapen_aot/videos/S_yt-SgiTZNjCPCo_19.mp4	0.0	121.09508514404297	0.10001778602600098
11	27.447991847991943	fix_pre	0		15.0	9.0	2.5	/experiments/knapen_aot/videos/S_yt-9EnchawJ3pA_90.mp4	0.0	121.19510293006897	0.1249690055847168
11	27.564702033996582	response	0	2		9.0	2.5	/experiments/knapen_aot/videos/S_yt-9EnchawJ3pA_90.mp4	0.0	121.31181311607361	
11	27.57296085357666	movie	1		301.0	9.0	2.5	/experiments/knapen_aot/videos/S_yt-9EnchawJ3pA_90.mp4	0.0	121.32007193565369	2.508327007293701
11	30.08128786087036	fix_post	2		12.0	9.0	2.5	/experiments/knapen_aot/videos/S_yt-9EnchawJ3pA_90.mp4	0.0	123.82839894294739	0.10000419616699219
12	30.181292057037354	fix_pre	0		13.0	10.0	2.5	/experiments/knapen_aot/videos/S_yt-4BAsE47kJNk_88.mp4	0.0	123.92840313911438	0.10837578773498535
12	30.28136897087097	response	0	2		10.0	2.5	/experiments/knapen_aot/videos/S_yt-4BAsE47kJNk_88.mp4	0.0	124.028480052948	
12	30.28966784477234	movie	1		301.0	10.0	2.5	/experiments/knapen_aot/videos/S_yt-4BAsE47kJNk_88.mp4	0.0	124.03677892684937	2.5084140300750732
12	32.79808187484741	fix_post	2		12.0	10.0	2.5	/experiments/knapen_aot/videos/S_yt-4BAsE47kJNk_88.mp4	0.0	126.54519295692444	0.0998539924621582
13	32.89793586730957	fix_pre	0		18.0	11.0	2.5	/experiments/knapen_aot/videos/S_yt-hyZEDFkh49w_196.mp4	0.0	126.6450469493866	0.14996099472045898
13	33.039695024490356	response	0	2		11.0	2.5	/experiments/knapen_aot/videos/S_yt-hyZEDFkh49w_196.mp4	0.0	126.78680610656738	
13	33.04789686203003	movie	1		301.0	11.0	2.5	/experiments/knapen_aot/videos/S_yt-hyZEDFkh49w_196.mp4	0.0	126.79500794410706	2.508390188217163
13	35.55628705024719	fix_post	2		12.0	11.0	2.5	/experiments/knapen_aot/videos/S_yt-hyZEDFkh49w_196.mp4	0.0	129.30339813232422	0.10003900527954102
14	35.65632605552673	fix_pre	0		15.0	12.0	2.5	/experiments/knapen_aot/videos/S_Y004_C015_SDR_2K_AVC.mp4	0.0	129.40343713760376	0.12507295608520508
14	35.77309703826904	response	0	2		12.0	2.5	/experiments/knapen_aot/videos/S_Y004_C015_SDR_2K_AVC.mp4	0.0	129.52020812034607	
14	35.78139901161194	movie	1		164.0	12.0	2.5	/experiments/knapen_aot/videos/S_Y004_C015_SDR_2K_AVC.mp4	0.0	129.52851009368896	2.508194923400879
14	38.28959393501282	fix_post	2		12.0	12.0	2.5	/experiments/knapen_aot/videos/S_Y004_C015_SDR_2K_AVC.mp4	0.0	132.03670501708984	0.100006103515625
15	38.38960003852844	fix_pre	0		4.0	13.0	2.5	blank	1.0	132.13671112060547	0.03335094451904297
15	38.41469383239746	response	0	2		13.0	2.5	blank	1.0	132.1618049144745	
15	38.422950983047485	movie	1		301.0	13.0	2.5	blank	1.0	132.1700620651245	2.508336067199707
15	40.93128705024719	fix_post	2		12.0	13.0	2.5	blank	1.0	134.67839813232422	0.10005998611450195
16	41.031347036361694	fix_pre	0		22.0	14.0	2.5	/experiments/knapen_aot/videos/R_S_pexels-kampus-production-5991896.mp4	0.0	134.77845811843872	0.18324685096740723
16	41.206382036209106	response	0	2		14.0	2.5	/experiments/knapen_aot/videos/R_S_pexels-kampus-production-5991896.mp4	0.0	134.95349311828613	
16	41.2145938873291	movie	1		163.0	14.0	2.5	/experiments/knapen_aot/videos/R_S_pexels-kampus-production-5991896.mp4	0.0	134.96170496940613	2.5083751678466797
16	43.72296905517578	fix_post	2		12.0	14.0	2.5	/experiments/knapen_aot/videos/R_S_pexels-kampus-production-5991896.mp4	0.0	137.4700801372528	0.09997296333312988
17	43.82294201850891	fix_pre	0		23.0	15.0	2.5	/experiments/knapen_aot/videos/R_S_yt-xNKgc8sFYvU_35.mp4	0.0	137.57005310058594	0.19162392616271973
17	43.99879288673401	response	0	2		15.0	2.5	/experiments/knapen_aot/videos/R_S_yt-xNKgc8sFYvU_35.mp4	0.0	137.74590396881104	
17	44.01456594467163	movie	1		301.0	15.0	2.5	/experiments/knapen_aot/videos/R_S_yt-xNKgc8sFYvU_35.mp4	0.0	137.76167702674866	2.5083329677581787
17	46.52289891242981	fix_post	2		12.0	15.0	2.5	/experiments/knapen_aot/videos/R_S_yt-xNKgc8sFYvU_35.mp4	0.0	140.27000999450684	0.09995102882385254
18	46.62284994125366	fix_pre	0		11.0	16.0	2.5	/experiments/knapen_aot/videos/S_yt-hyZEDFkh49w_196.mp4	0.0	140.3699610233307	0.09162306785583496
18	46.70633387565613	response	0	2		16.0	2.5	/experiments/knapen_aot/videos/S_yt-hyZEDFkh49w_196.mp4	0.0	140.45344495773315	
18	46.7144730091095	movie	1		301.0	16.0	2.5	/experiments/knapen_aot/videos/S_yt-hyZEDFkh49w_196.mp4	0.0	140.46158409118652	2.508486032485962
18	49.22295904159546	fix_post	2		12.0	16.0	2.5	/experiments/knapen_aot/videos/S_yt-hyZEDFkh49w_196.mp4	0.0	142.97007012367249	0.10013985633850098
19	49.32309889793396	fix_pre	0		33.0	17.0	2.5	/experiments/knapen_aot/videos/S_yt-9EnchawJ3pA_90.mp4	0.0	143.070209980011	0.27478599548339844
19	49.58966684341431	response	0	2		17.0	2.5	/experiments/knapen_aot/videos/S_yt-9EnchawJ3pA_90.mp4	0.0	143.33677792549133	
19	49.59788489341736	movie	1		301.0	17.0	2.5	/experiments/knapen_aot/videos/S_yt-9EnchawJ3pA_90.mp4	0.0	143.34499597549438	2.5083701610565186
19	52.10625505447388	fix_post	2		12.0	17.0	2.5	/experiments/knapen_aot/videos/S_yt-9EnchawJ3pA_90.mp4	0.0	145.8533661365509	0.10004377365112305
20	52.206298828125	fix_pre	0		27.0	18.0	2.5	/experiments/knapen_aot/videos/S_production_ID_4510883.mp4	0.0	145.95340991020203	0.22487902641296387
20	52.42300295829773	response	0	2		18.0	2.5	/experiments/knapen_aot/videos/S_production_ID_4510883.mp4	0.0	146.17011404037476	
20	52.431177854537964	movie	1		169.0	18.0	2.5	/experiments/knapen_aot/videos/S_production_ID_4510883.mp4	0.0	146.178288936615	2.5083529949188232
20	54.93953084945679	fix_post	2		12.0	18.0	2.5	/experiments/knapen_aot/videos/S_production_ID_4510883.mp4	0.0	148.6866419315338	0.09997820854187012
21	55.03950905799866	fix_pre	0		12.0	19.0	2.5	/experiments/knapen_aot/videos/R_S_yt-Xs7TCzdnUJQ_79.mp4	0.0	148.78662014007568	0.09998583793640137
21	55.131271839141846	response	0	2		19.0	2.5	/experiments/knapen_aot/videos/R_S_yt-Xs7TCzdnUJQ_79.mp4	0.0	148.87838292121887	
21	55.13949489593506	movie	1		301.0	19.0	2.5	/experiments/knapen_aot/videos/R_S_yt-Xs7TCzdnUJQ_79.mp4	0.0	148.88660597801208	2.5084149837493896
21	57.64790987968445	fix_post	2		12.0	19.0	2.5	/experiments/knapen_aot/videos/R_S_yt-Xs7TCzdnUJQ_79.mp4	0.0	151.39502096176147	0.09995317459106445
22	57.74786305427551	fix_pre	0		24.0	20.0	2.5	/experiments/knapen_aot/videos/S_yt-gmiyqQDGN78_7.mp4	0.0	151.49497413635254	0.19994783401489258
22	57.93962287902832	response	0	2		20.0	2.5	/experiments/knapen_aot/videos/S_yt-gmiyqQDGN78_7.mp4	0.0	151.68673396110535	
22	57.947810888290405	movie	1		301.0	20.0	2.5	/experiments/knapen_aot/videos/S_yt-gmiyqQDGN78_7.mp4	0.0	151.69492197036743	2.5083811283111572
22	60.45619201660156	fix_post	2		12.0	20.0	2.5	/experiments/knapen_aot/videos/S_yt-gmiyqQDGN78_7.mp4	0.0	154.2033030986786	0.09993791580200195
23	60.556129932403564	fix_pre	0		28.0	21.0	2.5	blank	1.0	154.3032410144806	0.2334001064300537
23	60.78132891654968	response	0	2		21.0	2.5	blank	1.0	154.5284399986267	
23	60.78953003883362	movie	1		301.0	21.0	2.5	blank	1.0	154.53664112091064	2.5084259510040283
23	63.29795598983765	fix_post	2		12.0	21.0	2.5	blank	1.0	157.04506707191467	0.09995603561401367
24	63.39791202545166	fix_pre	0		49.0	22.0	2.5	/experiments/knapen_aot/videos/S_yt-lkpfs_4qAGE_50.mp4	0.0	157.1450231075287	0.40822696685791016
24	63.79795503616333	response	0	2		22.0	2.5	/experiments/knapen_aot/videos/S_yt-lkpfs_4qAGE_50.mp4	0.0	157.54506611824036	
24	63.80613899230957	movie	1		301.0	22.0	2.5	/experiments/knapen_aot/videos/S_yt-lkpfs_4qAGE_50.mp4	0.0	157.5532500743866	2.5083930492401123
24	66.31453204154968	fix_post	2		12.0	22.0	2.5	/experiments/knapen_aot/videos/S_yt-lkpfs_4qAGE_50.mp4	0.0	160.0616431236267	0.09995293617248535
25	66.41448497772217	fix_pre	0		14.0	23.0	2.5	/experiments/knapen_aot/videos/S_yt-xCh0LI9VKeI_28.mp4	0.0	160.1615960597992	0.11659097671508789
25	66.52290487289429	response	0	2		23.0	2.5	/experiments/knapen_aot/videos/S_yt-xCh0LI9VKeI_28.mp4	0.0	160.2700159549713	
25	66.53107595443726	movie	1		301.0	23.0	2.5	/experiments/knapen_aot/videos/S_yt-xCh0LI9VKeI_28.mp4	0.0	160.27818703651428	2.508620023727417
25	69.03969597816467	fix_post	2		12.0	23.0	2.5	/experiments/knapen_aot/videos/S_yt-xCh0LI9VKeI_28.mp4	0.0	162.7868070602417	0.09977388381958008
26	69.13946986198425	fix_pre	0		11.0	24.0	2.5	/experiments/knapen_aot/videos/S_yt-FsXOl6JjzSY_15.mp4	0.0	162.88658094406128	0.09998798370361328
26	69.22285103797913	response	0	2		24.0	2.5	/experiments/knapen_aot/videos/S_yt-FsXOl6JjzSY_15.mp4	0.0	162.96996212005615	
26	69.23945784568787	movie	1		300.0	24.0	2.5	/experiments/knapen_aot/videos/S_yt-FsXOl6JjzSY_15.mp4	0.0	162.9865689277649	2.499972105026245
26	71.73942995071411	fix_post	2		12.0	24.0	2.5	/experiments/knapen_aot/videos/S_yt-FsXOl6JjzSY_15.mp4	0.0	165.48654103279114	0.1000359058380127
27	71.83946585655212	fix_pre	0		22.0	25.0	2.5	/experiments/knapen_aot/videos/S_yt-kawmL3oVw8c_2.mp4	0.0	165.58657693862915	0.18331098556518555
27	72.01453495025635	response	0	2		25.0	2.5	/experiments/knapen_aot/videos/S_yt-kawmL3oVw8c_2.mp4	0.0	165.76164603233337	
27	72.02277684211731	movie	1		301.0	25.0	2.5	/experiments/knapen_aot/videos/S_yt-kawmL3oVw8c_2.mp4	0.0	165.76988792419434	2.5083820819854736
27	74.53115892410278	fix_post	2		12.0	25.0	2.5	/experiments/knapen_aot/videos/S_yt-kawmL3oVw8c_2.mp4	0.0	168.2782700061798	0.09997296333312988
28	74.63113188743591	fix_pre	0		40.0	26.0	2.5	blank	1.0	168.37824296951294	0.33341217041015625
28	74.9562509059906	response	0	2		26.0	2.5	blank	1.0	168.70336198806763	
28	74.96454405784607	movie	1		301.0	26.0	2.5	blank	1.0	168.7116551399231	2.5082287788391113
28	77.47277283668518	fix_post	2		12.0	26.0	2.5	blank	1.0	171.2198839187622	0.10001516342163086
29	77.57278800010681	fix_pre	0		35.0	27.0	2.5	/experiments/knapen_aot/videos/R_S_production_ID_4510883.mp4	0.0	171.31989908218384	0.2916228771209717
29	77.85622096061707	response	0	2		27.0	2.5	/experiments/knapen_aot/videos/R_S_production_ID_4510883.mp4	0.0	171.6033320426941	
29	77.86441087722778	movie	1		167.0	27.0	2.5	/experiments/knapen_aot/videos/R_S_production_ID_4510883.mp4	0.0	171.6115219593048	2.5083601474761963
29	80.37277102470398	fix_post	2		12.0	27.0	2.5	/experiments/knapen_aot/videos/R_S_production_ID_4510883.mp4	0.0	174.119882106781	0.10010385513305664
30	80.47287487983704	fix_pre	0		3.0	28.0	2.5	/experiments/knapen_aot/videos/S_yt-YlA-FPDylDE_100.mp4	0.0	174.21998596191406	0.026069164276123047
30	80.48962593078613	response	0	2		28.0	2.5	/experiments/knapen_aot/videos/S_yt-YlA-FPDylDE_100.mp4	0.0	174.23673701286316	
30	80.49894404411316	movie	1		301.0	28.0	2.5	/experiments/knapen_aot/videos/S_yt-YlA-FPDylDE_100.mp4	0.0	174.24605512619019	2.5071349143981934
30	83.00607895851135	fix_post	2		12.0	28.0	2.5	/experiments/knapen_aot/videos/S_yt-YlA-FPDylDE_100.mp4	0.0	176.75319004058838	0.10000395774841309
31	83.10608291625977	fix_pre	0		13.0	29.0	2.5	/experiments/knapen_aot/videos/S_yt-LdHRVIb4nIE_6.mp4	0.0	176.8531939983368	0.10832810401916504
31	83.2061550617218	response	0	2		29.0	2.5	/experiments/knapen_aot/videos/S_yt-LdHRVIb4nIE_6.mp4	0.0	176.95326614379883	
31	83.21441102027893	movie	1		301.0	29.0	2.5	/experiments/knapen_aot/videos/S_yt-LdHRVIb4nIE_6.mp4	0.0	176.96152210235596	2.5083539485931396
31	85.72276496887207	fix_post	2		12.0	29.0	2.5	/experiments/knapen_aot/videos/S_yt-LdHRVIb4nIE_6.mp4	0.0	179.4698760509491	0.0999910831451416
32	85.82275605201721	fix_pre	0		21.0	30.0	2.5	/experiments/knapen_aot/videos/S_yt-2cwARrUMj40_67.mp4	0.0	179.56986713409424	0.17617297172546387
32	85.9895589351654	response	0	2		30.0	2.5	/experiments/knapen_aot/videos/S_yt-2cwARrUMj40_67.mp4	0.0	179.73667001724243	
32	85.99892902374268	movie	1		301.0	30.0	2.5	/experiments/knapen_aot/videos/S_yt-2cwARrUMj40_67.mp4	0.0	179.7460401058197	2.507138967514038
32	88.50606799125671	fix_post	2		12.0	30.0	2.5	/experiments/knapen_aot/videos/S_yt-2cwARrUMj40_67.mp4	0.0	182.25317907333374	0.10003089904785156
33	88.60609889030457	fix_pre	0		11.0	31.0	2.5	/experiments/knapen_aot/videos/R_S_yt-WFiEvQuOqqg_18.mp4	0.0	182.3532099723816	0.09172701835632324
33	88.68949794769287	response	0	2		31.0	2.5	/experiments/knapen_aot/videos/R_S_yt-WFiEvQuOqqg_18.mp4	0.0	182.4366090297699	
33	88.69782590866089	movie	1		301.0	31.0	2.5	/experiments/knapen_aot/videos/R_S_yt-WFiEvQuOqqg_18.mp4	0.0	182.44493699073792	2.5083611011505127
33	91.2061870098114	fix_post	2		12.0	31.0	2.5	/experiments/knapen_aot/videos/R_S_yt-WFiEvQuOqqg_18.mp4	0.0	184.95329809188843	0.09988689422607422
34	91.30607390403748	fix_pre	0		12.0	32.0	2.5	/experiments/knapen_aot/videos/R_S_flickr-csgzs-8144064966_10.mp4	0.0	185.0531849861145	0.09996294975280762
34	91.39782905578613	response	0	2		32.0	2.5	/experiments/knapen_aot/videos/R_S_flickr-csgzs-8144064966_10.mp4	0.0	185.14494013786316	
34	91.40603685379028	movie	1		301.0	32.0	2.5	/experiments/knapen_aot/videos/R_S_flickr-csgzs-8144064966_10.mp4	0.0	185.1531479358673	2.508333206176758
34	93.91437005996704	fix_post	2		12.0	32.0	2.5	/experiments/knapen_aot/videos/R_S_flickr-csgzs-8144064966_10.mp4	0.0	187.66148114204407	0.10002279281616211
35	94.0143928527832	fix_pre	0		16.0	33.0	2.5	/experiments/knapen_aot/videos/S_yt-ibDaDIEazxg_3.mp4	0.0	187.76150393486023	0.13329219818115234
35	94.13950300216675	response	0	2		33.0	2.5	/experiments/knapen_aot/videos/S_yt-ibDaDIEazxg_3.mp4	0.0	187.88661408424377	
35	94.14768505096436	movie	1		301.0	33.0	2.5	/experiments/knapen_aot/videos/S_yt-ibDaDIEazxg_3.mp4	0.0	187.89479613304138	2.508305788040161
35	96.65599083900452	fix_post	2		12.0	33.0	2.5	/experiments/knapen_aot/videos/S_yt-ibDaDIEazxg_3.mp4	0.0	190.40310192108154	0.10005617141723633
36	96.75604701042175	fix_pre	0		21.0	34.0	2.5	blank	1.0	190.50315809249878	0.1748950481414795
36	96.92277884483337	response	0	2		34.0	2.5	blank	1.0	190.6698899269104	
36	96.93094205856323	movie	1		301.0	34.0	2.5	blank	1.0	190.67805314064026	2.5084009170532227
36	99.43934297561646	fix_post	2		12.0	34.0	2.5	blank	1.0	193.18645405769348	0.10006308555603027
37	99.53940606117249	fix_pre	0		22.0	35.0	2.5	/experiments/knapen_aot/videos/S__6qAy77ODUI_175.mp4	0.0	193.2865171432495	0.18330693244934082
37	99.71439290046692	response	0	2		35.0	2.5	/experiments/knapen_aot/videos/S__6qAy77ODUI_175.mp4	0.0	193.46150398254395	
37	99.72271299362183	movie	1		301.0	35.0	2.5	/experiments/knapen_aot/videos/S__6qAy77ODUI_175.mp4	0.0	193.46982407569885	2.5082600116729736
37	102.2309730052948	fix_post	2		12.0	35.0	2.5	/experiments/knapen_aot/videos/S__6qAy77ODUI_175.mp4	0.0	195.97808408737183	0.10003399848937988
38	102.33100700378418	fix_pre	0		21.0	36.0	2.5	/experiments/knapen_aot/videos/R_S_yt-WASlRH1zA8c_175.mp4	0.0	196.0781180858612	0.1749858856201172
38	102.49026298522949	response	0	2		36.0	2.5	/experiments/knapen_aot/videos/R_S_yt-WASlRH1zA8c_175.mp4	0.0	196.23737406730652	
38	102.5059928894043	movie	1		301.0	36.0	2.5	/experiments/knapen_aot/videos/R_S_yt-WASlRH1zA8c_175.mp4	0.0	196.25310397148132	2.5083670616149902
38	105.01435995101929	fix_post	2		12.0	36.0	2.5	/experiments/knapen_aot/videos/R_S_yt-WASlRH1zA8c_175.mp4	0.0	198.7614710330963	0.09999895095825195
39	105.11435890197754	fix_pre	0		30.0	37.0	2.5	/experiments/knapen_aot/videos/S_yt-GaJaxp546lc_22.mp4	0.0	198.86146998405457	0.2499239444732666
39	105.35601091384888	response	0	2		37.0	2.5	/experiments/knapen_aot/videos/S_yt-GaJaxp546lc_22.mp4	0.0	199.1031219959259	
39	105.3642828464508	movie	1		301.0	37.0	2.5	/experiments/knapen_aot/videos/S_yt-GaJaxp546lc_22.mp4	0.0	199.11139392852783	2.5083940029144287
39	107.87267684936523	fix_post	2		12.0	37.0	2.5	/experiments/knapen_aot/videos/S_yt-GaJaxp546lc_22.mp4	0.0	201.61978793144226	0.09996819496154785
40	107.97264504432678	fix_pre	0		20.0	38.0	2.5	/experiments/knapen_aot/videos/S_yt-Iu2ZPHLqXuY_32.mp4	0.0	201.7197561264038	0.16656780242919922
40	108.13110899925232	response	0	2		38.0	2.5	/experiments/knapen_aot/videos/S_yt-Iu2ZPHLqXuY_32.mp4	0.0	201.87822008132935	
40	108.13921284675598	movie	1		301.0	38.0	2.5	/experiments/knapen_aot/videos/S_yt-Iu2ZPHLqXuY_32.mp4	0.0	201.886323928833	2.508430004119873
40	110.64764285087585	fix_post	2		12.0	38.0	2.5	/experiments/knapen_aot/videos/S_yt-Iu2ZPHLqXuY_32.mp4	0.0	204.39475393295288	0.10001206398010254
41	110.74765491485596	fix_pre	0		25.0	39.0	2.5	/experiments/knapen_aot/videos/S_yt-R9Iabv0XgOQ_80.mp4	0.0	204.49476599693298	0.20949912071228027
41	110.94772601127625	response	0	2		39.0	2.5	/experiments/knapen_aot/videos/S_yt-R9Iabv0XgOQ_80.mp4	0.0	204.69483709335327	
41	110.95715403556824	movie	1		301.0	39.0	2.5	/experiments/knapen_aot/videos/S_yt-R9Iabv0XgOQ_80.mp4	0.0	204.70426511764526	2.5071208477020264
41	113.46427488327026	fix_post	2		12.0	39.0	2.5	/experiments/knapen_aot/videos/S_yt-R9Iabv0XgOQ_80.mp4	0.0	207.2113859653473	0.1000521183013916
42	113.56432700157166	fix_pre	0		28.0	40.0	2.5	/experiments/knapen_aot/videos/S_yt-nMWqezngycw_10.mp4	0.0	207.31143808364868	0.2331998348236084
42	113.78945302963257	response	0	2		40.0	2.5	/experiments/knapen_aot/videos/S_yt-nMWqezngycw_10.mp4	0.0	207.5365641117096	
42	113.79752683639526	movie	1		301.0	40.0	2.5	/experiments/knapen_aot/videos/S_yt-nMWqezngycw_10.mp4	0.0	207.5446379184723	2.508549213409424
42	116.30607604980469	fix_post	2		12.0	40.0	2.5	/experiments/knapen_aot/videos/S_yt-nMWqezngycw_10.mp4	0.0	210.0531871318817	0.09992694854736328
43	116.40600299835205	fix_pre	0		24.0	41.0	2.5	/experiments/knapen_aot/videos/S_pexels-kampus-production-5991896.mp4	0.0	210.15311408042908	0.1999528408050537
43	116.59790682792664	response	0	2		41.0	2.5	/experiments/knapen_aot/videos/S_pexels-kampus-production-5991896.mp4	0.0	210.34501791000366	
43	116.6059558391571	movie	1		162.0	41.0	2.5	/experiments/knapen_aot/videos/S_pexels-kampus-production-5991896.mp4	0.0	210.35306692123413	2.508352041244507
43	119.11430788040161	fix_post	2		12.0	41.0	2.5	/experiments/knapen_aot/videos/S_pexels-kampus-production-5991896.mp4	0.0	212.86141896247864	0.09999704360961914
44	119.21430492401123	fix_pre	0		23.0	42.0	2.5	blank	1.0	212.96141600608826	0.19161510467529297
44	119.39774203300476	response	0	2		42.0	2.5	blank	1.0	213.1448531150818	
44	119.40592002868652	movie	1		301.0	42.0	2.5	blank	1.0	213.15303111076355	2.5083189010620117
44	121.91423892974854	fix_post	2		12.0	42.0	2.5	blank	1.0	215.66135001182556	0.10007810592651367
45	122.01431703567505	fix_pre	0		25.0	43.0	2.5	/experiments/knapen_aot/videos/R_S_ILSVRC2015_train_00067005.mp4	0.0	215.76142811775208	0.20831990242004395
45	122.2144238948822	response	0	2		43.0	2.5	/experiments/knapen_aot/videos/R_S_ILSVRC2015_train_00067005.mp4	0.0	215.96153497695923	
45	122.22263693809509	movie	1		301.0	43.0	2.5	/experiments/knapen_aot/videos/R_S_ILSVRC2015_train_00067005.mp4	0.0	215.96974802017212	2.5083260536193848
45	124.73096299171448	fix_post	2		12.0	43.0	2.5	/experiments/knapen_aot/videos/R_S_ILSVRC2015_train_00067005.mp4	0.0	218.4780740737915	0.10004496574401855
46	124.8310079574585	fix_pre	0		20.0	44.0	2.5	/experiments/knapen_aot/videos/S_yt-iKe-0YNR5Eo_164.mp4	0.0	218.57811903953552	0.16753387451171875
46	124.989413022995	response	0	2		44.0	2.5	/experiments/knapen_aot/videos/S_yt-iKe-0YNR5Eo_164.mp4	0.0	218.73652410507202	
46	124.99854183197021	movie	1		301.0	44.0	2.5	/experiments/knapen_aot/videos/S_yt-iKe-0YNR5Eo_164.mp4	0.0	218.74565291404724	2.5073602199554443
46	127.50590205192566	fix_post	2		12.0	44.0	2.5	/experiments/knapen_aot/videos/S_yt-iKe-0YNR5Eo_164.mp4	0.0	221.25301313400269	0.10001683235168457
47	127.60591888427734	fix_pre	0		33.0	45.0	2.5	/experiments/knapen_aot/videos/S_yt--DXkjCUzThU_413.mp4	0.0	221.35302996635437	0.27498912811279297
47	127.87268996238708	response	0	2		45.0	2.5	/experiments/knapen_aot/videos/S_yt--DXkjCUzThU_413.mp4	0.0	221.6198010444641	
47	127.88090801239014	movie	1		301.0	45.0	2.5	/experiments/knapen_aot/videos/S_yt--DXkjCUzThU_413.mp4	0.0	221.62801909446716	2.508297920227051
47	130.3892059326172	fix_post	2		12.0	45.0	2.5	/experiments/knapen_aot/videos/S_yt--DXkjCUzThU_413.mp4	0.0	224.1363170146942	0.09995698928833008
48	130.48916292190552	fix_pre	0		29.0	46.0	2.5	/experiments/knapen_aot/videos/S_yt-BG-G7m5wLZ4_94.mp4	0.0	224.23627400398254	0.24170899391174316
48	130.71520495414734	response	0	2		46.0	2.5	/experiments/knapen_aot/videos/S_yt-BG-G7m5wLZ4_94.mp4	0.0	224.46231603622437	
48	130.73087191581726	movie	1		301.0	46.0	2.5	/experiments/knapen_aot/videos/S_yt-BG-G7m5wLZ4_94.mp4	0.0	224.4779829978943	2.5084869861602783
48	133.23935890197754	fix_post	2		12.0	46.0	2.5	/experiments/knapen_aot/videos/S_yt-BG-G7m5wLZ4_94.mp4	0.0	226.98646998405457	0.09983015060424805
49	133.3391890525818	fix_pre	0		32.0	47.0	2.5	/experiments/knapen_aot/videos/S_pexels-c-technical-6753390.mp4	0.0	227.0863001346588	0.2666609287261963
49	133.5976288318634	response	0	2		47.0	2.5	/experiments/knapen_aot/videos/S_pexels-c-technical-6753390.mp4	0.0	227.34473991394043	
49	133.60584998130798	movie	1		197.0	47.0	2.5	/experiments/knapen_aot/videos/S_pexels-c-technical-6753390.mp4	0.0	227.352961063385	2.508359909057617
49	136.1142098903656	fix_post	2		12.0	47.0	2.5	/experiments/knapen_aot/videos/S_pexels-c-technical-6753390.mp4	0.0	229.86132097244263	0.09996700286865234
50	136.21417689323425	fix_pre	0		6.0	48.0	2.5	/experiments/knapen_aot/videos/R_S__6qAy77ODUI_175.mp4	0.0	229.96128797531128	0.04994606971740723
50	136.25597405433655	response	0	2		48.0	2.5	/experiments/knapen_aot/videos/R_S__6qAy77ODUI_175.mp4	0.0	230.00308513641357	
50	136.26412296295166	movie	1		301.0	48.0	2.5	/experiments/knapen_aot/videos/R_S__6qAy77ODUI_175.mp4	0.0	230.0112340450287	2.508388042449951
50	138.7725110054016	fix_post	2		12.0	48.0	2.5	/experiments/knapen_aot/videos/R_S__6qAy77ODUI_175.mp4	0.0	232.51962208747864	0.10005593299865723
51	138.87256693840027	fix_pre	0		28.0	49.0	2.5	blank	1.0	232.6196780204773	0.23318910598754883
51	139.09760904312134	response	0	2		49.0	2.5	blank	1.0	232.84472012519836	
51	139.10575604438782	movie	1		301.0	49.0	2.5	blank	1.0	232.85286712646484	2.508375883102417
51	141.61413192749023	fix_post	2		12.0	49.0	2.5	blank	1.0	235.36124300956726	0.10007905960083008
52	141.71421098709106	fix_pre	0		28.0	50.0	2.5	/experiments/knapen_aot/videos/R_S_yt-bhiGMKSAz2g_370.mp4	0.0	235.4613220691681	0.23340988159179688
52	141.93926787376404	response	0	2		50.0	2.5	/experiments/knapen_aot/videos/R_S_yt-bhiGMKSAz2g_370.mp4	0.0	235.68637895584106	
52	141.94762086868286	movie	1		301.0	50.0	2.5	/experiments/knapen_aot/videos/R_S_yt-bhiGMKSAz2g_370.mp4	0.0	235.6947319507599	2.5080831050872803
52	144.45570397377014	fix_post	2		12.0	50.0	2.5	/experiments/knapen_aot/videos/R_S_yt-bhiGMKSAz2g_370.mp4	0.0	238.20281505584717	0.10014891624450684
53	144.55585289001465	fix_pre	0		20.0	51.0	2.5	/experiments/knapen_aot/videos/S_yt-uE9XoCLZlFo_1.mp4	0.0	238.30296397209167	0.16658902168273926
53	144.70678091049194	response	0	2		51.0	2.5	/experiments/knapen_aot/videos/S_yt-uE9XoCLZlFo_1.mp4	0.0	238.45389199256897	
53	144.7224419116974	movie	1		301.0	51.0	2.5	/experiments/knapen_aot/videos/S_yt-uE9XoCLZlFo_1.mp4	0.0	238.4695529937744	2.508500099182129
53	147.23094201087952	fix_post	2		12.0	51.0	2.5	/experiments/knapen_aot/videos/S_yt-uE9XoCLZlFo_1.mp4	0.0	240.97805309295654	0.09992599487304688
54	147.33086800575256	fix_pre	0		35.0	52.0	2.5	/experiments/knapen_aot/videos/R_S_yt-bH4nJibL4Jo_164.mp4	0.0	241.0779790878296	0.2924008369445801
54	147.6143229007721	response	0	2		52.0	2.5	/experiments/knapen_aot/videos/R_S_yt-bH4nJibL4Jo_164.mp4	0.0	241.36143398284912	
54	147.62326884269714	movie	1		301.0	52.0	2.5	/experiments/knapen_aot/videos/R_S_yt-bH4nJibL4Jo_164.mp4	0.0	241.37037992477417	2.5074920654296875
54	150.13076090812683	fix_post	2		12.0	52.0	2.5	/experiments/knapen_aot/videos/R_S_yt-bH4nJibL4Jo_164.mp4	0.0	243.87787199020386	0.10005593299865723
55	150.2308168411255	fix_pre	0		18.0	53.0	2.5	/experiments/knapen_aot/videos/R_S_MEX_A006_C008_SDR_20190923_SDR_2K_AVC.mp4	0.0	243.97792792320251	0.15006518363952637
55	150.37248492240906	response	0	2		53.0	2.5	/experiments/knapen_aot/videos/R_S_MEX_A006_C008_SDR_20190923_SDR_2K_AVC.mp4	0.0	244.11959600448608	
55	150.38088202476501	movie	1		168.0	53.0	2.5	/experiments/knapen_aot/videos/R_S_MEX_A006_C008_SDR_20190923_SDR_2K_AVC.mp4	0.0	244.12799310684204	2.5082650184631348
55	152.88914704322815	fix_post	2		12.0	53.0	2.5	/experiments/knapen_aot/videos/R_S_MEX_A006_C008_SDR_20190923_SDR_2K_AVC.mp4	0.0	246.63625812530518	0.10005497932434082
56	152.9892020225525	fix_pre	0		1.0	54.0	2.5	blank	1.0	246.73631310462952	0.009158849716186523
56	152.9907808303833	response	0	2		54.0	2.5	blank	1.0	246.73789191246033	
56	152.99836087226868	movie	1		301.0	54.0	2.5	blank	1.0	246.7454719543457	2.5073790550231934
56	155.50573992729187	fix_post	2		12.0	54.0	2.5	blank	1.0	249.2528510093689	0.10009407997131348
57	155.60583400726318	fix_pre	0		16.0	55.0	2.5	/experiments/knapen_aot/videos/R_S_yt-ZzC953ahaxs_195.mp4	0.0	249.3529450893402	0.13323402404785156
57	155.73080801963806	response	0	2		55.0	2.5	/experiments/knapen_aot/videos/R_S_yt-ZzC953ahaxs_195.mp4	0.0	249.4779191017151	
57	155.73906803131104	movie	1		301.0	55.0	2.5	/experiments/knapen_aot/videos/R_S_yt-ZzC953ahaxs_195.mp4	0.0	249.48617911338806	2.508478879928589
57	158.24754691123962	fix_post	2		12.0	55.0	2.5	/experiments/knapen_aot/videos/R_S_yt-ZzC953ahaxs_195.mp4	0.0	251.99465799331665	0.0998849868774414
58	158.34743189811707	fix_pre	0		11.0	56.0	2.5	/experiments/knapen_aot/videos/R_S_production_ID_3761571.mp4	0.0	252.0945429801941	0.09165406227111816
58	158.43085598945618	response	0	2		56.0	2.5	/experiments/knapen_aot/videos/R_S_production_ID_3761571.mp4	0.0	252.1779670715332	
58	158.43908596038818	movie	1		161.0	56.0	2.5	/experiments/knapen_aot/videos/R_S_production_ID_3761571.mp4	0.0	252.1861970424652	2.508358955383301
58	160.94744491577148	fix_post	2		12.0	56.0	2.5	/experiments/knapen_aot/videos/R_S_production_ID_3761571.mp4	0.0	254.6945559978485	0.099945068359375
59	161.04738998413086	fix_pre	0		14.0	57.0	2.5	/experiments/knapen_aot/videos/R_S_ILSVRC2015_train_00414000.mp4	0.0	254.79450106620789	0.11741900444030762
59	161.15589690208435	response	0	2		57.0	2.5	/experiments/knapen_aot/videos/R_S_ILSVRC2015_train_00414000.mp4	0.0	254.90300798416138	
59	161.16480898857117	movie	1		301.0	57.0	2.5	/experiments/knapen_aot/videos/R_S_ILSVRC2015_train_00414000.mp4	0.0	254.9119200706482	2.5075979232788086
59	163.67240691184998	fix_post	2		12.0	57.0	2.5	/experiments/knapen_aot/videos/R_S_ILSVRC2015_train_00414000.mp4	0.0	257.419517993927	0.09994101524353027
60	163.7723479270935	fix_pre	0		5.0	58.0	2.5	/experiments/knapen_aot/videos/S_pexels-cottonbro-6789228.mp4	0.0	257.51945900917053	0.041728973388671875
60	163.80589699745178	response	0	2		58.0	2.5	/experiments/knapen_aot/videos/S_pexels-cottonbro-6789228.mp4	0.0	257.5530080795288	
60	163.81407690048218	movie	1		211.0	58.0	2.5	/experiments/knapen_aot/videos/S_pexels-cottonbro-6789228.mp4	0.0	257.5611879825592	2.508312940597534
60	166.3223898410797	fix_post	2		12.0	58.0	2.5	/experiments/knapen_aot/videos/S_pexels-cottonbro-6789228.mp4	0.0	260.06950092315674	0.10003304481506348
61	166.42242288589478	fix_pre	0		24.0	59.0	2.5	/experiments/knapen_aot/videos/R_S_yt-x6tYi0lRGqU_114.mp4	0.0	260.1695339679718	0.20076203346252441
61	166.61417698860168	response	0	2		59.0	2.5	/experiments/knapen_aot/videos/R_S_yt-x6tYi0lRGqU_114.mp4	0.0	260.3612880706787	
61	166.6231849193573	movie	1		301.0	59.0	2.5	/experiments/knapen_aot/videos/R_S_yt-x6tYi0lRGqU_114.mp4	0.0	260.3702960014343	2.5075409412384033
61	169.1307258605957	fix_post	2		12.0	59.0	2.5	/experiments/knapen_aot/videos/R_S_yt-x6tYi0lRGqU_114.mp4	0.0	262.87783694267273	0.10001397132873535
62	169.23073983192444	fix_pre	0		13.0	60.0	2.5	/experiments/knapen_aot/videos/R_S_yt--5ls65Ue1RA_52.mp4	0.0	262.97785091400146	0.1082911491394043
62	169.33086395263672	response	0	2		60.0	2.5	/experiments/knapen_aot/videos/R_S_yt--5ls65Ue1RA_52.mp4	0.0	263.07797503471375	
62	169.33903098106384	movie	1		301.0	60.0	2.5	/experiments/knapen_aot/videos/R_S_yt--5ls65Ue1RA_52.mp4	0.0	263.08614206314087	2.5084428787231445
62	171.847473859787	fix_post	2		12.0	60.0	2.5	/experiments/knapen_aot/videos/R_S_yt--5ls65Ue1RA_52.mp4	0.0	265.594584941864	0.09992504119873047
63	171.94739890098572	fix_pre	0		5.0	61.0	2.5	blank	1.0	265.69450998306274	0.041651010513305664
63	171.98077297210693	response	0	2		61.0	2.5	blank	1.0	265.72788405418396	
63	171.98904991149902	movie	1		301.0	61.0	2.5	blank	1.0	265.73616099357605	2.5083200931549072
63	174.49737000465393	fix_post	2		12.0	61.0	2.5	blank	1.0	268.24448108673096	0.09995102882385254
64	174.59732103347778	fix_pre	0		19.0	62.0	2.5	/experiments/knapen_aot/videos/R_S_yt-YlA-FPDylDE_100.mp4	0.0	268.3444321155548	0.15840482711791992
64	174.7474730014801	response	0	2		62.0	2.5	/experiments/knapen_aot/videos/R_S_yt-YlA-FPDylDE_100.mp4	0.0	268.49458408355713	
64	174.7557258605957	movie	1		301.0	62.0	2.5	/experiments/knapen_aot/videos/R_S_yt-YlA-FPDylDE_100.mp4	0.0	268.50283694267273	2.5083611011505127
64	177.26408696174622	fix_post	2		12.0	62.0	2.5	/experiments/knapen_aot/videos/R_S_yt-YlA-FPDylDE_100.mp4	0.0	271.01119804382324	0.09998488426208496
65	177.3640718460083	fix_pre	0		30.0	63.0	2.5	/experiments/knapen_aot/videos/S_pexels-kampus-production-6022792.mp4	0.0	271.1111829280853	0.24991798400878906
65	177.60581493377686	response	0	2		63.0	2.5	/experiments/knapen_aot/videos/S_pexels-kampus-production-6022792.mp4	0.0	271.3529260158539	
65	177.6139898300171	movie	1		165.0	63.0	2.5	/experiments/knapen_aot/videos/S_pexels-kampus-production-6022792.mp4	0.0	271.3611009120941	2.50838303565979
65	180.12237286567688	fix_post	2		12.0	63.0	2.5	/experiments/knapen_aot/videos/S_pexels-kampus-production-6022792.mp4	0.0	273.8694839477539	0.09999799728393555
66	180.22237086296082	fix_pre	0		14.0	64.0	2.5	/experiments/knapen_aot/videos/R_S_yt-hyZEDFkh49w_196.mp4	0.0	273.96948194503784	0.11661410331726074
66	180.33077096939087	response	0	2		64.0	2.5	/experiments/knapen_aot/videos/R_S_yt-hyZEDFkh49w_196.mp4	0.0	274.0778820514679	
66	180.33898496627808	movie	1		301.0	64.0	2.5	/experiments/knapen_aot/videos/R_S_yt-hyZEDFkh49w_196.mp4	0.0	274.0860960483551	2.5083460807800293
66	182.8473310470581	fix_post	2		12.0	64.0	2.5	/experiments/knapen_aot/videos/R_S_yt-hyZEDFkh49w_196.mp4	0.0	276.59444212913513	0.09993696212768555
66	182.93901705741882	response	2	2		64.0	2.5	/experiments/knapen_aot/videos/R_S_yt-hyZEDFkh49w_196.mp4	0.0	276.68612813949585	
67	182.9472680091858	fix_pre	0		68.0	65.0	2.5	/experiments/knapen_aot/videos/S_pexels-c-technical-6344801.mp4	0.0	276.6943790912628	0.5667059421539307
67	183.50566291809082	response	0	2		65.0	2.5	/experiments/knapen_aot/videos/S_pexels-c-technical-6344801.mp4	0.0	277.25277400016785	
67	183.51397395133972	movie	1		203.0	65.0	2.5	/experiments/knapen_aot/videos/S_pexels-c-technical-6344801.mp4	0.0	277.26108503341675	2.5086729526519775
67	186.0226469039917	fix_post	2		12.0	65.0	2.5	/experiments/knapen_aot/videos/S_pexels-c-technical-6344801.mp4	0.0	279.7697579860687	0.099700927734375
68	186.12234783172607	fix_pre	0		11.0	66.0	2.5	/experiments/knapen_aot/videos/R_S_yt-_6j2NXrB-zE_28.mp4	0.0	279.8694589138031	0.09163117408752441
68	186.20577883720398	response	0	2		66.0	2.5	/experiments/knapen_aot/videos/R_S_yt-_6j2NXrB-zE_28.mp4	0.0	279.952889919281	
68	186.2139790058136	movie	1		301.0	66.0	2.5	/experiments/knapen_aot/videos/R_S_yt-_6j2NXrB-zE_28.mp4	0.0	279.9610900878906	2.508327007293701
68	188.7223060131073	fix_post	2		12.0	66.0	2.5	/experiments/knapen_aot/videos/R_S_yt-_6j2NXrB-zE_28.mp4	0.0	282.4694170951843	0.0999598503112793
69	188.82226586341858	fix_pre	0		3.0	67.0	2.5	/experiments/knapen_aot/videos/S_yt-yAtHuDsadu8_102.mp4	0.0	282.5693769454956	0.025056123733520508
69	188.83908891677856	response	0	2		67.0	2.5	/experiments/knapen_aot/videos/S_yt-yAtHuDsadu8_102.mp4	0.0	282.5861999988556	
69	188.8473219871521	movie	1		301.0	67.0	2.5	/experiments/knapen_aot/videos/S_yt-yAtHuDsadu8_102.mp4	0.0	282.5944330692291	2.5083229541778564
69	191.35564494132996	fix_post	2		12.0	67.0	2.5	/experiments/knapen_aot/videos/S_yt-yAtHuDsadu8_102.mp4	0.0	285.102756023407	0.10065102577209473
70	191.45629596710205	fix_pre	0		11.0	68.0	2.5	blank	1.0	285.2034070491791	0.09099507331848145
70	191.53906893730164	response	0	2		68.0	2.5	blank	1.0	285.28618001937866	
70	191.54729104042053	movie	1		301.0	68.0	2.5	blank	1.0	285.29440212249756	2.5083258152008057
70	194.05561685562134	fix_post	2		12.0	68.0	2.5	blank	1.0	287.80272793769836	0.09996700286865234
71	194.15558385849	fix_pre	0		31.0	69.0	2.5	/experiments/knapen_aot/videos/R_S_yt-4i1b6NQ9NKs_5.mp4	0.0	287.902694940567	0.25893712043762207
71	194.40570998191833	response	0	2		69.0	2.5	/experiments/knapen_aot/videos/R_S_yt-4i1b6NQ9NKs_5.mp4	0.0	288.15282106399536	
71	194.4145209789276	movie	1		301.0	69.0	2.5	/experiments/knapen_aot/videos/R_S_yt-4i1b6NQ9NKs_5.mp4	0.0	288.16163206100464	2.507753849029541
71	196.92227482795715	fix_post	2		12.0	69.0	2.5	/experiments/knapen_aot/videos/R_S_yt-4i1b6NQ9NKs_5.mp4	0.0	290.6693859100342	0.10001420974731445
72	197.02228903770447	fix_pre	0		8.0	70.0	2.5	/experiments/knapen_aot/videos/R_S_ILSVRC2015_train_00371010.mp4	0.0	290.7694001197815	0.06663990020751953
72	197.08080005645752	response	0	2		70.0	2.5	/experiments/knapen_aot/videos/R_S_ILSVRC2015_train_00371010.mp4	0.0	290.82791113853455	
72	197.088928937912	movie	1		301.0	70.0	2.5	/experiments/knapen_aot/videos/R_S_ILSVRC2015_train_00371010.mp4	0.0	290.836040019989	2.508310079574585
72	199.5558168888092	response	1	2		70.0	2.5	/experiments/knapen_aot/videos/R_S_ILSVRC2015_train_00371010.mp4	0.0	293.30292797088623	
72	199.59723901748657	fix_post	2		12.0	70.0	2.5	/experiments/knapen_aot/videos/R_S_ILSVRC2015_train_00371010.mp4	0.0	293.3443500995636	0.10002994537353516
73	199.6972689628601	fix_pre	0		25.0	71.0	2.5	/experiments/knapen_aot/videos/R_S_yt-XPRNMelf5Fs_235.mp4	0.0	293.44438004493713	0.2082669734954834
73	199.8973548412323	response	0	2		71.0	2.5	/experiments/knapen_aot/videos/R_S_yt-XPRNMelf5Fs_235.mp4	0.0	293.6444659233093	
73	199.9055359363556	movie	1		301.0	71.0	2.5	/experiments/knapen_aot/videos/R_S_yt-XPRNMelf5Fs_235.mp4	0.0	293.6526470184326	2.508587121963501
73	202.4141230583191	fix_post	2		12.0	71.0	2.5	/experiments/knapen_aot/videos/R_S_yt-XPRNMelf5Fs_235.mp4	0.0	296.1612341403961	0.0997779369354248
74	202.51390099525452	fix_pre	0		17.0	72.0	2.5	/experiments/knapen_aot/videos/R_S_yt-wz2opOBqClo_14.mp4	0.0	296.26101207733154	0.1416308879852295
74	202.64737105369568	response	0	2		72.0	2.5	/experiments/knapen_aot/videos/R_S_yt-wz2opOBqClo_14.mp4	0.0	296.3944821357727	
74	202.65553188323975	movie	1		301.0	72.0	2.5	/experiments/knapen_aot/videos/R_S_yt-wz2opOBqClo_14.mp4	0.0	296.4026429653168	2.5083870887756348
74	205.16391897201538	fix_post	2		12.0	72.0	2.5	/experiments/knapen_aot/videos/R_S_yt-wz2opOBqClo_14.mp4	0.0	298.9110300540924	0.10002899169921875
75	205.2639479637146	fix_pre	0		26.0	73.0	2.5	/experiments/knapen_aot/videos/R_S_yt-8RmEimCI80g_35.mp4	0.0	299.0110590457916	0.21653199195861816
75	205.47247505187988	response	0	2		73.0	2.5	/experiments/knapen_aot/videos/R_S_yt-8RmEimCI80g_35.mp4	0.0	299.2195861339569	
75	205.48047995567322	movie	1		301.0	73.0	2.5	/experiments/knapen_aot/videos/R_S_yt-8RmEimCI80g_35.mp4	0.0	299.22759103775024	2.5083749294281006
75	207.98885488510132	fix_post	2		12.0	73.0	2.5	/experiments/knapen_aot/videos/R_S_yt-8RmEimCI80g_35.mp4	0.0	301.73596596717834	0.10007596015930176
76	208.08893084526062	fix_pre	0		17.0	74.0	2.5	/experiments/knapen_aot/videos/R_S_yt-Dlk44AGz-xM_37.mp4	0.0	301.83604192733765	0.14158916473388672
76	208.22229385375977	response	0	2		74.0	2.5	/experiments/knapen_aot/videos/R_S_yt-Dlk44AGz-xM_37.mp4	0.0	301.9694049358368	
76	208.2305200099945	movie	1		301.0	74.0	2.5	/experiments/knapen_aot/videos/R_S_yt-Dlk44AGz-xM_37.mp4	0.0	301.97763109207153	2.508380889892578
76	210.73890089988708	fix_post	2		12.0	74.0	2.5	/experiments/knapen_aot/videos/R_S_yt-Dlk44AGz-xM_37.mp4	0.0	304.4860119819641	0.09997916221618652
77	210.83888006210327	fix_pre	0		14.0	75.0	2.5	blank	1.0	304.5859911441803	0.11713290214538574
77	210.94732904434204	response	0	2		75.0	2.5	blank	1.0	304.69444012641907	
77	210.95601296424866	movie	1		301.0	75.0	2.5	blank	1.0	304.7031240463257	2.5078558921813965
77	213.46386885643005	fix_post	2		12.0	75.0	2.5	blank	1.0	307.2109799385071	0.10007715225219727
78	213.56394600868225	fix_pre	0		38.0	76.0	2.5	/experiments/knapen_aot/videos/R_S_yt-0lfSyC79n14_7.mp4	0.0	307.3110570907593	0.3165409564971924
78	213.87234687805176	response	0	2		76.0	2.5	/experiments/knapen_aot/videos/R_S_yt-0lfSyC79n14_7.mp4	0.0	307.6194579601288	
78	213.88048696517944	movie	1		301.0	76.0	2.5	/experiments/knapen_aot/videos/R_S_yt-0lfSyC79n14_7.mp4	0.0	307.62759804725647	2.5084099769592285
78	216.38889694213867	fix_post	2		12.0	76.0	2.5	/experiments/knapen_aot/videos/R_S_yt-0lfSyC79n14_7.mp4	0.0	310.1360080242157	0.1001288890838623
79	216.48902583122253	fix_pre	0		30.0	77.0	2.5	/experiments/knapen_aot/videos/R_S_yt-IlW1U39Dga4_5.mp4	0.0	310.23613691329956	0.24980807304382324
79	216.73062992095947	response	0	2		77.0	2.5	/experiments/knapen_aot/videos/R_S_yt-IlW1U39Dga4_5.mp4	0.0	310.4777410030365	
79	216.73883390426636	movie	1		301.0	77.0	2.5	/experiments/knapen_aot/videos/R_S_yt-IlW1U39Dga4_5.mp4	0.0	310.4859449863434	2.5083510875701904
79	219.24718499183655	fix_post	2		12.0	77.0	2.5	/experiments/knapen_aot/videos/R_S_yt-IlW1U39Dga4_5.mp4	0.0	312.9942960739136	0.09999585151672363
80	219.34718084335327	fix_pre	0		20.0	78.0	2.5	/experiments/knapen_aot/videos/S_yt-SjPYdaUBi7A_37.mp4	0.0	313.0942919254303	0.16658616065979004
80	219.505539894104	response	0	2		78.0	2.5	/experiments/knapen_aot/videos/S_yt-SjPYdaUBi7A_37.mp4	0.0	313.25265097618103	
80	219.51376700401306	movie	1		301.0	78.0	2.5	/experiments/knapen_aot/videos/S_yt-SjPYdaUBi7A_37.mp4	0.0	313.2608780860901	2.5083889961242676
80	222.02215600013733	fix_post	2		12.0	78.0	2.5	/experiments/knapen_aot/videos/S_yt-SjPYdaUBi7A_37.mp4	0.0	315.76926708221436	0.10004186630249023
81	222.12219786643982	fix_pre	0		33.0	79.0	2.5	/experiments/knapen_aot/videos/R_S_yt-RHPOCG1mII0_138.mp4	0.0	315.86930894851685	0.27493715286254883
81	222.38887000083923	response	0	2		79.0	2.5	/experiments/knapen_aot/videos/R_S_yt-RHPOCG1mII0_138.mp4	0.0	316.13598108291626	
81	222.39713501930237	movie	1		301.0	79.0	2.5	/experiments/knapen_aot/videos/R_S_yt-RHPOCG1mII0_138.mp4	0.0	316.1442461013794	2.508340835571289
81	224.90547585487366	fix_post	2		12.0	79.0	2.5	/experiments/knapen_aot/videos/R_S_yt-RHPOCG1mII0_138.mp4	0.0	318.6525869369507	0.100006103515625
82	225.00548195838928	fix_pre	0		29.0	80.0	2.5	/experiments/knapen_aot/videos/R_S_ILSVRC2015_train_00044004.mp4	0.0	318.7525930404663	0.2420639991760254
82	225.23891687393188	response	0	2		80.0	2.5	/experiments/knapen_aot/videos/R_S_ILSVRC2015_train_00044004.mp4	0.0	318.9860279560089	
82	225.2475459575653	movie	1		301.0	80.0	2.5	/experiments/knapen_aot/videos/R_S_ILSVRC2015_train_00044004.mp4	0.0	318.99465703964233	2.5078818798065186
82	227.75542783737183	fix_post	2		12.0	80.0	2.5	/experiments/knapen_aot/videos/R_S_ILSVRC2015_train_00044004.mp4	0.0	321.50253891944885	0.10004520416259766
83	227.85547304153442	fix_pre	0		11.0	81.0	2.5	/experiments/knapen_aot/videos/R_S_yt-kAUL5o7i5mo_116.mp4	0.0	321.60258412361145	0.09168481826782227
83	227.93886303901672	response	0	2		81.0	2.5	/experiments/knapen_aot/videos/R_S_yt-kAUL5o7i5mo_116.mp4	0.0	321.68597412109375	
83	227.94715785980225	movie	1		301.0	81.0	2.5	/experiments/knapen_aot/videos/R_S_yt-kAUL5o7i5mo_116.mp4	0.0	321.6942689418793	2.508380174636841
83	230.4555380344391	fix_post	2		12.0	81.0	2.5	/experiments/knapen_aot/videos/R_S_yt-kAUL5o7i5mo_116.mp4	0.0	324.2026491165161	0.0999758243560791
84	230.55551385879517	fix_pre	0		33.0	82.0	2.5	/experiments/knapen_aot/videos/R_S_yt-2SVpSaBAxsw_78.mp4	0.0	324.3026249408722	0.27539610862731934
84	230.82218885421753	response	0	2		82.0	2.5	/experiments/knapen_aot/videos/R_S_yt-2SVpSaBAxsw_78.mp4	0.0	324.56929993629456	
84	230.83090996742249	movie	1		301.0	82.0	2.5	/experiments/knapen_aot/videos/R_S_yt-2SVpSaBAxsw_78.mp4	0.0	324.5780210494995	2.507920980453491
84	233.33883094787598	fix_post	2		12.0	82.0	2.5	/experiments/knapen_aot/videos/R_S_yt-2SVpSaBAxsw_78.mp4	0.0	327.085942029953	0.09996604919433594
85	233.4387969970703	fix_pre	0		29.0	83.0	2.5	blank	1.0	327.18590807914734	0.24169683456420898
85	233.6648018360138	response	0	2		83.0	2.5	blank	1.0	327.4119129180908	
85	233.68049383163452	movie	1		301.0	83.0	2.5	blank	1.0	327.42760491371155	2.508315086364746
85	236.18880891799927	fix_post	2		12.0	83.0	2.5	blank	1.0	329.9359200000763	0.10042500495910645
87	236.28923392295837	stim	0		72.0					330.0363450050354	0.599553108215332
87	236.36389303207397	response	0	2						330.111004114151	
87	236.8817479610443	response	0	space						330.62885904312134	
