trial_nr	onset	event_type	phase	response	nr_frames	movie_index	movie_duration	movie_file	blank	onset_abs	duration
0	0.13014602661132812	stim	0		40.0					102.69768595695496	0.33490800857543945
0	0.45522499084472656	response	0	space						103.02276492118835	
1	0.4650540351867676	stim	0		121.0					103.0325939655304	1.0063068866729736
1	0.9969120025634766	response	0	space						103.5644519329071	
1	1.2964730262756348	response	0	space						103.86401295661926	
1	1.4713609218597412	stim	1		120.0					104.03890085220337	1.0006170272827148
1	1.6005980968475342	response	1	2						104.16813802719116	
1	1.605604887008667	response	1	space						104.1731448173523	
1	2.248728036880493	response	1	space						104.81626796722412	
2	2.471977949142456	fix_pre	0		22.0	0.0	2.5	/experiments/knapen_aot/videos/S_yt-OLDm2slgfA4_3.mp4	0.0	105.03951787948608	0.18269109725952148
2	2.6464850902557373	response	0	space		0.0	2.5	/experiments/knapen_aot/videos/S_yt-OLDm2slgfA4_3.mp4	0.0	105.21402502059937	
2	2.6546690464019775	movie	1		301.0	0.0	2.5	/experiments/knapen_aot/videos/S_yt-OLDm2slgfA4_3.mp4	0.0	105.2222089767456	2.508599042892456
2	5.163268089294434	fix_post	2		12.0	0.0	2.5	/experiments/knapen_aot/videos/S_yt-OLDm2slgfA4_3.mp4	0.0	107.73080801963806	0.09978294372558594
3	5.2630510330200195	fix_pre	0		6.0	1.0	2.5	/experiments/knapen_aot/videos/S_yt-mmvWYAttrIw_2.mp4	0.0	107.83059096336365	0.04996800422668457
3	5.308388948440552	response	0	2		1.0	2.5	/experiments/knapen_aot/videos/S_yt-mmvWYAttrIw_2.mp4	0.0	107.87592887878418	
3	5.313019037246704	movie	1		292.0	1.0	2.5	/experiments/knapen_aot/videos/S_yt-mmvWYAttrIw_2.mp4	0.0	107.88055896759033	2.508542060852051
3	7.321512937545776	response	1	2		1.0	2.5	/experiments/knapen_aot/videos/S_yt-mmvWYAttrIw_2.mp4	0.0	109.8890528678894	
3	7.563119888305664	response	1	2		1.0	2.5	/experiments/knapen_aot/videos/S_yt-mmvWYAttrIw_2.mp4	0.0	110.13065981864929	
3	7.79646110534668	response	1	2		1.0	2.5	/experiments/knapen_aot/videos/S_yt-mmvWYAttrIw_2.mp4	0.0	110.36400103569031	
3	7.821561098098755	fix_post	2		12.0	1.0	2.5	/experiments/knapen_aot/videos/S_yt-mmvWYAttrIw_2.mp4	0.0	110.38910102844238	0.09976387023925781
4	7.921324968338013	fix_pre	0		31.0	2.0	2.5	/experiments/knapen_aot/videos/S_ILSVRC2015_train_00601000.mp4	0.0	110.48886489868164	0.2588009834289551
4	8.171464920043945	response	0	2		2.0	2.5	/experiments/knapen_aot/videos/S_ILSVRC2015_train_00601000.mp4	0.0	110.73900485038757	
4	8.180125951766968	movie	1		301.0	2.0	2.5	/experiments/knapen_aot/videos/S_ILSVRC2015_train_00601000.mp4	0.0	110.7476658821106	2.5078699588775635
4	10.687995910644531	fix_post	2		12.0	2.0	2.5	/experiments/knapen_aot/videos/S_ILSVRC2015_train_00601000.mp4	0.0	113.25553584098816	0.10003805160522461
5	10.788033962249756	fix_pre	0		3.0	3.0	2.5	/experiments/knapen_aot/videos/R_S_yt-oPq1uvbw-lQ_62.mp4	0.0	113.35557389259338	0.024991989135742188
5	10.804768085479736	response	0	2		3.0	2.5	/experiments/knapen_aot/videos/R_S_yt-oPq1uvbw-lQ_62.mp4	0.0	113.37230801582336	
5	10.813025951385498	movie	1		301.0	3.0	2.5	/experiments/knapen_aot/videos/R_S_yt-oPq1uvbw-lQ_62.mp4	0.0	113.38056588172913	2.5083811283111572
5	13.321407079696655	fix_post	2		12.0	3.0	2.5	/experiments/knapen_aot/videos/R_S_yt-oPq1uvbw-lQ_62.mp4	0.0	115.88894701004028	0.09993982315063477
6	13.42134690284729	fix_pre	0		3.0	4.0	2.5	/experiments/knapen_aot/videos/R_S_yt-GWOOQZ19-oU_331.mp4	0.0	115.98888683319092	0.025007009506225586
6	13.438116073608398	response	0	2		4.0	2.5	/experiments/knapen_aot/videos/R_S_yt-GWOOQZ19-oU_331.mp4	0.0	116.00565600395203	
6	13.446353912353516	movie	1		301.0	4.0	2.5	/experiments/knapen_aot/videos/R_S_yt-GWOOQZ19-oU_331.mp4	0.0	116.01389384269714	2.5083870887756348
6	15.95474100112915	fix_post	2		12.0	4.0	2.5	/experiments/knapen_aot/videos/R_S_yt-GWOOQZ19-oU_331.mp4	0.0	118.52228093147278	0.10072803497314453
7	16.055469036102295	fix_pre	0		6.0	5.0	2.5	/experiments/knapen_aot/videos/S_yt-ycQy_fHCK-U_8.mp4	0.0	118.62300896644592	0.04919600486755371
7	16.09656810760498	response	0	2		5.0	2.5	/experiments/knapen_aot/videos/S_yt-ycQy_fHCK-U_8.mp4	0.0	118.66410803794861	
7	16.10466504096985	movie	1		301.0	5.0	2.5	/experiments/knapen_aot/videos/S_yt-ycQy_fHCK-U_8.mp4	0.0	118.67220497131348	2.5083670616149902
7	18.61303210258484	fix_post	2		12.0	5.0	2.5	/experiments/knapen_aot/videos/S_yt-ycQy_fHCK-U_8.mp4	0.0	121.18057203292847	0.09996581077575684
8	18.712997913360596	fix_pre	0		13.0	6.0	2.5	/experiments/knapen_aot/videos/R_S_yt-ja8Pmpik_ao_112.mp4	0.0	121.28053784370422	0.10822916030883789
8	18.8131000995636	response	0	2		6.0	2.5	/experiments/knapen_aot/videos/R_S_yt-ja8Pmpik_ao_112.mp4	0.0	121.38064002990723	
8	18.821227073669434	movie	1		301.0	6.0	2.5	/experiments/knapen_aot/videos/R_S_yt-ja8Pmpik_ao_112.mp4	0.0	121.38876700401306	2.508443832397461
8	21.329670906066895	fix_post	2		12.0	6.0	2.5	/experiments/knapen_aot/videos/R_S_yt-ja8Pmpik_ao_112.mp4	0.0	123.89721083641052	0.10000109672546387
9	21.42967200279236	fix_pre	0		26.0	7.0	2.5	blank	1.0	123.99721193313599	0.21665096282958984
9	21.63065004348755	response	0	2		7.0	2.5	blank	1.0	124.19818997383118	
9	21.64632296562195	movie	1		301.0	7.0	2.5	blank	1.0	124.21386289596558	2.5083091259002686
9	24.154632091522217	fix_post	2		12.0	7.0	2.5	blank	1.0	126.72217202186584	0.10003495216369629
10	24.254667043685913	fix_pre	0		20.0	8.0	2.5	/experiments/knapen_aot/videos/S_yt-9CUR6mjzaiY_85.mp4	0.0	126.82220697402954	0.16663503646850586
10	24.413079023361206	response	0	2		8.0	2.5	/experiments/knapen_aot/videos/S_yt-9CUR6mjzaiY_85.mp4	0.0	126.98061895370483	
10	24.42130208015442	movie	1		301.0	8.0	2.5	/experiments/knapen_aot/videos/S_yt-9CUR6mjzaiY_85.mp4	0.0	126.98884201049805	2.508469820022583
10	26.929771900177002	fix_post	2		12.0	8.0	2.5	/experiments/knapen_aot/videos/S_yt-9CUR6mjzaiY_85.mp4	0.0	129.49731183052063	0.09979605674743652
11	27.02956795692444	fix_pre	0		5.0	9.0	2.5	/experiments/knapen_aot/videos/S_yt-mWlx1SIXl5M_850.mp4	0.0	129.59710788726807	0.0417180061340332
11	27.06306791305542	response	0	2		9.0	2.5	/experiments/knapen_aot/videos/S_yt-mWlx1SIXl5M_850.mp4	0.0	129.63060784339905	
11	27.07128596305847	movie	1		301.0	9.0	2.5	/experiments/knapen_aot/videos/S_yt-mWlx1SIXl5M_850.mp4	0.0	129.6388258934021	2.508324146270752
11	29.579610109329224	fix_post	2		12.0	9.0	2.5	/experiments/knapen_aot/videos/S_yt-mWlx1SIXl5M_850.mp4	0.0	132.14715003967285	0.10053777694702148
12	29.680147886276245	fix_pre	0		17.0	10.0	2.5	/experiments/knapen_aot/videos/R_S_ILSVRC2015_train_00574004.mp4	0.0	132.24768781661987	0.14110612869262695
12	29.80543804168701	response	0	2		10.0	2.5	/experiments/knapen_aot/videos/R_S_ILSVRC2015_train_00574004.mp4	0.0	132.37297797203064	
12	29.821254014968872	movie	1		301.0	10.0	2.5	/experiments/knapen_aot/videos/R_S_ILSVRC2015_train_00574004.mp4	0.0	132.3887939453125	2.5084619522094727
12	32.329715967178345	fix_post	2		12.0	10.0	2.5	/experiments/knapen_aot/videos/R_S_ILSVRC2015_train_00574004.mp4	0.0	134.89725589752197	0.10027813911437988
12	32.404715061187744	response	2	2		10.0	2.5	/experiments/knapen_aot/videos/R_S_ILSVRC2015_train_00574004.mp4	0.0	134.97225499153137	
13	32.429994106292725	fix_pre	0		44.0	11.0	2.5	/experiments/knapen_aot/videos/R_S_yt-NOnR6C2sjpI_97.mp4	0.0	134.99753403663635	0.36627984046936035
13	32.78806400299072	response	0	2		11.0	2.5	/experiments/knapen_aot/videos/R_S_yt-NOnR6C2sjpI_97.mp4	0.0	135.35560393333435	
13	32.796273946762085	movie	1		301.0	11.0	2.5	/experiments/knapen_aot/videos/R_S_yt-NOnR6C2sjpI_97.mp4	0.0	135.3638138771057	2.5083580017089844
13	35.30463194847107	fix_post	2		12.0	11.0	2.5	/experiments/knapen_aot/videos/R_S_yt-NOnR6C2sjpI_97.mp4	0.0	137.8721718788147	0.0999901294708252
14	35.404622077941895	fix_pre	0		2.0	12.0	2.5	/experiments/knapen_aot/videos/R_S_yt-78k6vUHDWAI_206.mp4	0.0	137.97216200828552	0.01664280891418457
14	35.41311693191528	response	0	2		12.0	2.5	/experiments/knapen_aot/videos/R_S_yt-78k6vUHDWAI_206.mp4	0.0	137.9806568622589	
14	35.42126488685608	movie	1		301.0	12.0	2.5	/experiments/knapen_aot/videos/R_S_yt-78k6vUHDWAI_206.mp4	0.0	137.9888048171997	2.508397102355957
14	37.929661989212036	fix_post	2		12.0	12.0	2.5	/experiments/knapen_aot/videos/R_S_yt-78k6vUHDWAI_206.mp4	0.0	140.49720191955566	0.09993600845336914
14	38.00465703010559	response	2	2		12.0	2.5	/experiments/knapen_aot/videos/R_S_yt-78k6vUHDWAI_206.mp4	0.0	140.57219696044922	
15	38.029597997665405	fix_pre	0		51.0	13.0	2.5	/experiments/knapen_aot/videos/R_S_yt-H-2Vvouw9VI_85.mp4	0.0	140.59713792800903	0.42493605613708496
15	38.44637203216553	response	0	2		13.0	2.5	/experiments/knapen_aot/videos/R_S_yt-H-2Vvouw9VI_85.mp4	0.0	141.01391196250916	
15	38.45453405380249	movie	1		301.0	13.0	2.5	/experiments/knapen_aot/videos/R_S_yt-H-2Vvouw9VI_85.mp4	0.0	141.02207398414612	2.5083940029144287
15	40.96292805671692	fix_post	2		12.0	13.0	2.5	/experiments/knapen_aot/videos/R_S_yt-H-2Vvouw9VI_85.mp4	0.0	143.53046798706055	0.09991884231567383
16	41.06284689903259	fix_pre	0		12.0	14.0	2.5	blank	1.0	143.63038682937622	0.10002803802490234
16	41.14720296859741	response	0	2		14.0	2.5	blank	1.0	143.71474289894104	
16	41.162874937057495	movie	1		301.0	14.0	2.5	blank	1.0	143.73041486740112	2.508366107940674
16	43.67124104499817	fix_post	2		12.0	14.0	2.5	blank	1.0	146.2387809753418	0.10001587867736816
17	43.77125692367554	fix_pre	0		18.0	15.0	2.5	/experiments/knapen_aot/videos/S_3WAnGcPubBY_179.mp4	0.0	146.33879685401917	0.1499190330505371
17	43.905344009399414	response	0	2		15.0	2.5	/experiments/knapen_aot/videos/S_3WAnGcPubBY_179.mp4	0.0	146.47288393974304	
17	43.921175956726074	movie	1		301.0	15.0	2.5	/experiments/knapen_aot/videos/S_3WAnGcPubBY_179.mp4	0.0	146.4887158870697	2.5083999633789062
17	46.42957592010498	fix_post	2		12.0	15.0	2.5	/experiments/knapen_aot/videos/S_3WAnGcPubBY_179.mp4	0.0	148.9971158504486	0.09997916221618652
18	46.52955508232117	fix_pre	0		24.0	16.0	2.5	/experiments/knapen_aot/videos/S_yt-foGMTdxewBI_43.mp4	0.0	149.0970950126648	0.19996094703674316
18	46.72138810157776	response	0	2		16.0	2.5	/experiments/knapen_aot/videos/S_yt-foGMTdxewBI_43.mp4	0.0	149.2889280319214	
18	46.72951602935791	movie	1		301.0	16.0	2.5	/experiments/knapen_aot/videos/S_yt-foGMTdxewBI_43.mp4	0.0	149.29705595970154	2.5083420276641846
18	49.237858057022095	fix_post	2		12.0	16.0	2.5	/experiments/knapen_aot/videos/S_yt-foGMTdxewBI_43.mp4	0.0	151.80539798736572	0.10005784034729004
19	49.337915897369385	fix_pre	0		15.0	17.0	2.5	/experiments/knapen_aot/videos/R_S_yt-jUGt_Byqczw_599.mp4	0.0	151.905455827713	0.12496805191040039
19	49.45463705062866	response	0	2		17.0	2.5	/experiments/knapen_aot/videos/R_S_yt-jUGt_Byqczw_599.mp4	0.0	152.0221769809723	
19	49.462883949279785	movie	1		301.0	17.0	2.5	/experiments/knapen_aot/videos/R_S_yt-jUGt_Byqczw_599.mp4	0.0	152.0304238796234	2.5083999633789062
19	51.97128391265869	fix_post	2		12.0	17.0	2.5	/experiments/knapen_aot/videos/R_S_yt-jUGt_Byqczw_599.mp4	0.0	154.53882384300232	0.09994816780090332
20	52.071232080459595	fix_pre	0		18.0	18.0	2.5	/experiments/knapen_aot/videos/R_S_yt-WRBmpC-RxIc_678.mp4	0.0	154.63877201080322	0.15021991729736328
20	52.212929010391235	response	0	2		18.0	2.5	/experiments/knapen_aot/videos/R_S_yt-WRBmpC-RxIc_678.mp4	0.0	154.78046894073486	
20	52.22145199775696	movie	1		301.0	18.0	2.5	/experiments/knapen_aot/videos/R_S_yt-WRBmpC-RxIc_678.mp4	0.0	154.7889919281006	2.5080630779266357
20	54.729515075683594	fix_post	2		12.0	18.0	2.5	/experiments/knapen_aot/videos/R_S_yt-WRBmpC-RxIc_678.mp4	0.0	157.29705500602722	0.10009098052978516
21	54.82960605621338	fix_pre	0		26.0	19.0	2.5	/experiments/knapen_aot/videos/R_S_yt-CJeyOFsd3lg_80.mp4	0.0	157.397145986557	0.21654796600341797
21	55.03793907165527	response	0	2		19.0	2.5	/experiments/knapen_aot/videos/R_S_yt-CJeyOFsd3lg_80.mp4	0.0	157.6054790019989	
21	55.0461540222168	movie	1		301.0	19.0	2.5	/experiments/knapen_aot/videos/R_S_yt-CJeyOFsd3lg_80.mp4	0.0	157.61369395256042	2.508388042449951
21	57.55454206466675	fix_post	2		12.0	19.0	2.5	/experiments/knapen_aot/videos/R_S_yt-CJeyOFsd3lg_80.mp4	0.0	160.12208199501038	0.09999299049377441
22	57.65453505516052	fix_pre	0		20.0	20.0	2.5	/experiments/knapen_aot/videos/R_S_yt-BAwvfRmE1LU_79.mp4	0.0	160.22207498550415	0.16661596298217773
22	57.81295704841614	response	0	2		20.0	2.5	/experiments/knapen_aot/videos/R_S_yt-BAwvfRmE1LU_79.mp4	0.0	160.38049697875977	
22	57.8211510181427	movie	1		300.0	20.0	2.5	/experiments/knapen_aot/videos/R_S_yt-BAwvfRmE1LU_79.mp4	0.0	160.38869094848633	2.5083250999450684
22	60.32947611808777	fix_post	2		12.0	20.0	2.5	/experiments/knapen_aot/videos/R_S_yt-BAwvfRmE1LU_79.mp4	0.0	162.8970160484314	0.10020279884338379
23	60.42967891693115	fix_pre	0		12.0	21.0	2.5	blank	1.0	162.99721884727478	0.09975600242614746
23	60.52125811576843	response	0	2		21.0	2.5	blank	1.0	163.08879804611206	
23	60.5294349193573	movie	1		301.0	21.0	2.5	blank	1.0	163.09697484970093	2.5084590911865234
23	63.03789401054382	fix_post	2		12.0	21.0	2.5	blank	1.0	165.60543394088745	0.10013604164123535
24	63.13803005218506	fix_pre	0		30.0	22.0	2.5	/experiments/knapen_aot/videos/S_yt-a9bnYU0Gnxg_59.mp4	0.0	165.7055699825287	0.24991893768310547
24	63.37953209877014	response	0	2		22.0	2.5	/experiments/knapen_aot/videos/S_yt-a9bnYU0Gnxg_59.mp4	0.0	165.94707202911377	
24	63.387948989868164	movie	1		301.0	22.0	2.5	/experiments/knapen_aot/videos/S_yt-a9bnYU0Gnxg_59.mp4	0.0	165.9554889202118	2.5082011222839355
24	65.8961501121521	fix_post	2		12.0	22.0	2.5	/experiments/knapen_aot/videos/S_yt-a9bnYU0Gnxg_59.mp4	0.0	168.46369004249573	0.09997797012329102
25	65.99612808227539	fix_pre	0		9.0	23.0	2.5	/experiments/knapen_aot/videos/R_S_flickr-51283549@N02-23064904264_16.mp4	0.0	168.56366801261902	0.07491183280944824
25	66.06291699409485	response	0	2		23.0	2.5	/experiments/knapen_aot/videos/R_S_flickr-51283549@N02-23064904264_16.mp4	0.0	168.63045692443848	
25	66.07103991508484	movie	1		163.0	23.0	2.5	/experiments/knapen_aot/videos/R_S_flickr-51283549@N02-23064904264_16.mp4	0.0	168.63857984542847	2.5084149837493896
25	68.57945489883423	fix_post	2		12.0	23.0	2.5	/experiments/knapen_aot/videos/R_S_flickr-51283549@N02-23064904264_16.mp4	0.0	171.14699482917786	0.1001901626586914
26	68.67964506149292	fix_pre	0		10.0	24.0	2.5	/experiments/knapen_aot/videos/R_S_yt-2kPrGwVmRfE_169.mp4	0.0	171.24718499183655	0.08325886726379395
26	68.75456094741821	response	0	2		24.0	2.5	/experiments/knapen_aot/videos/R_S_yt-2kPrGwVmRfE_169.mp4	0.0	171.32210087776184	
26	68.76290392875671	movie	1		301.0	24.0	2.5	/experiments/knapen_aot/videos/R_S_yt-2kPrGwVmRfE_169.mp4	0.0	171.33044385910034	2.508491039276123
26	71.27139496803284	fix_post	2		12.0	24.0	2.5	/experiments/knapen_aot/videos/R_S_yt-2kPrGwVmRfE_169.mp4	0.0	173.83893489837646	0.09965896606445312
27	71.37105393409729	fix_pre	0		8.0	25.0	2.5	/experiments/knapen_aot/videos/S_yt-szXWk_X_67Q_10.mp4	0.0	173.93859386444092	0.06666707992553711
27	71.42957806587219	response	0	2		25.0	2.5	/experiments/knapen_aot/videos/S_yt-szXWk_X_67Q_10.mp4	0.0	173.99711799621582	
27	71.43772101402283	movie	1		301.0	25.0	2.5	/experiments/knapen_aot/videos/S_yt-szXWk_X_67Q_10.mp4	0.0	174.00526094436646	2.508389949798584
27	73.94611096382141	fix_post	2		12.0	25.0	2.5	/experiments/knapen_aot/videos/S_yt-szXWk_X_67Q_10.mp4	0.0	176.51365089416504	0.09999704360961914
28	74.04610800743103	fix_pre	0		7.0	26.0	2.5	/experiments/knapen_aot/videos/S_yt-HwZFMTZ7Xko_35.mp4	0.0	176.61364793777466	0.058342933654785156
28	74.09623003005981	response	0	2		26.0	2.5	/experiments/knapen_aot/videos/S_yt-HwZFMTZ7Xko_35.mp4	0.0	176.66376996040344	
28	74.10445094108582	movie	1		300.0	26.0	2.5	/experiments/knapen_aot/videos/S_yt-HwZFMTZ7Xko_35.mp4	0.0	176.67199087142944	2.508366107940674
28	76.61281704902649	fix_post	2		12.0	26.0	2.5	/experiments/knapen_aot/videos/S_yt-HwZFMTZ7Xko_35.mp4	0.0	179.18035697937012	0.09992384910583496
29	76.71274089813232	fix_pre	0		6.0	27.0	2.5	blank	1.0	179.28028082847595	0.05013108253479004
29	76.75456595420837	response	0	2		27.0	2.5	blank	1.0	179.322105884552	
29	76.76287198066711	movie	1		301.0	27.0	2.5	blank	1.0	179.33041191101074	2.508208990097046
29	79.27108097076416	fix_post	2		12.0	27.0	2.5	blank	1.0	181.8386209011078	0.09999608993530273
30	79.37107706069946	fix_pre	0		26.0	28.0	2.5	/experiments/knapen_aot/videos/R_S_yt-R9Iabv0XgOQ_80.mp4	0.0	181.9386169910431	0.21667790412902832
30	79.57948207855225	response	0	2		28.0	2.5	/experiments/knapen_aot/videos/R_S_yt-R9Iabv0XgOQ_80.mp4	0.0	182.14702200889587	
30	79.58775496482849	movie	1		301.0	28.0	2.5	/experiments/knapen_aot/videos/R_S_yt-R9Iabv0XgOQ_80.mp4	0.0	182.15529489517212	2.5083730220794678
30	82.09612798690796	fix_post	2		12.0	28.0	2.5	/experiments/knapen_aot/videos/R_S_yt-R9Iabv0XgOQ_80.mp4	0.0	184.6636679172516	0.09996795654296875
31	82.19609594345093	fix_pre	0		6.0	29.0	2.5	/experiments/knapen_aot/videos/R_S_yt-K_gHa2x2OQA_319.mp4	0.0	184.76363587379456	0.04993700981140137
31	82.2378659248352	response	0	2		29.0	2.5	/experiments/knapen_aot/videos/R_S_yt-K_gHa2x2OQA_319.mp4	0.0	184.80540585517883	
31	82.24603295326233	movie	1		301.0	29.0	2.5	/experiments/knapen_aot/videos/R_S_yt-K_gHa2x2OQA_319.mp4	0.0	184.81357288360596	2.5083470344543457
31	84.75437998771667	fix_post	2		12.0	29.0	2.5	/experiments/knapen_aot/videos/R_S_yt-K_gHa2x2OQA_319.mp4	0.0	187.3219199180603	0.09998202323913574
32	84.85436201095581	fix_pre	0		19.0	30.0	2.5	/experiments/knapen_aot/videos/R_S_b6-4.mp4	0.0	187.42190194129944	0.15852594375610352
32	84.99699306488037	response	0	2		30.0	2.5	/experiments/knapen_aot/videos/R_S_b6-4.mp4	0.0	187.564532995224	
32	85.01288795471191	movie	1		164.0	30.0	2.5	/experiments/knapen_aot/videos/R_S_b6-4.mp4	0.0	187.58042788505554	2.508190155029297
32	87.52107810974121	fix_post	2		12.0	30.0	2.5	/experiments/knapen_aot/videos/R_S_b6-4.mp4	0.0	190.08861804008484	0.10000395774841309
33	87.62108206748962	fix_pre	0		9.0	31.0	2.5	/experiments/knapen_aot/videos/S_yt-rZA9zXR-A6s_426.mp4	0.0	190.18862199783325	0.07491302490234375
33	87.68786811828613	response	0	2		31.0	2.5	/experiments/knapen_aot/videos/S_yt-rZA9zXR-A6s_426.mp4	0.0	190.25540804862976	
33	87.69599509239197	movie	1		301.0	31.0	2.5	/experiments/knapen_aot/videos/S_yt-rZA9zXR-A6s_426.mp4	0.0	190.2635350227356	2.508327007293701
33	90.20432209968567	fix_post	2		12.0	31.0	2.5	/experiments/knapen_aot/videos/S_yt-rZA9zXR-A6s_426.mp4	0.0	192.7718620300293	0.10012078285217285
34	90.30444288253784	fix_pre	0		7.0	32.0	2.5	/experiments/knapen_aot/videos/S_ILSVRC2015_train_00743005.mp4	0.0	192.87198281288147	0.058225154876708984
34	90.3544819355011	response	0	2		32.0	2.5	/experiments/knapen_aot/videos/S_ILSVRC2015_train_00743005.mp4	0.0	192.92202186584473	
34	90.36266803741455	movie	1		300.0	32.0	2.5	/experiments/knapen_aot/videos/S_ILSVRC2015_train_00743005.mp4	0.0	192.93020796775818	2.5083649158477783
34	92.87103295326233	fix_post	2		12.0	32.0	2.5	/experiments/knapen_aot/videos/S_ILSVRC2015_train_00743005.mp4	0.0	195.43857288360596	0.10008811950683594
35	92.97112107276917	fix_pre	0		6.0	33.0	2.5	/experiments/knapen_aot/videos/S_yt-0xzYSBvVfYM_197.mp4	0.0	195.5386610031128	0.049865007400512695
35	93.01289105415344	response	0	2		33.0	2.5	/experiments/knapen_aot/videos/S_yt-0xzYSBvVfYM_197.mp4	0.0	195.58043098449707	
35	93.02098608016968	movie	1		301.0	33.0	2.5	/experiments/knapen_aot/videos/S_yt-0xzYSBvVfYM_197.mp4	0.0	195.5885260105133	2.508375883102417
35	95.5293619632721	fix_post	2		12.0	33.0	2.5	/experiments/knapen_aot/videos/S_yt-0xzYSBvVfYM_197.mp4	0.0	198.09690189361572	0.09992003440856934
36	95.62928199768066	fix_pre	0		23.0	34.0	2.5	blank	1.0	198.1968219280243	0.19172310829162598
36	95.8126540184021	response	0	2		34.0	2.5	blank	1.0	198.38019394874573	
36	95.82100510597229	movie	1		301.0	34.0	2.5	blank	1.0	198.38854503631592	2.508307933807373
36	98.32931303977966	fix_post	2		12.0	34.0	2.5	blank	1.0	200.8968529701233	0.10006403923034668
37	98.42937707901001	fix_pre	0		22.0	35.0	2.5	/experiments/knapen_aot/videos/R_S_yt-VQtbKGzI9SE_431.mp4	0.0	200.99691700935364	0.18326997756958008
37	98.59680509567261	response	0	2		35.0	2.5	/experiments/knapen_aot/videos/R_S_yt-VQtbKGzI9SE_431.mp4	0.0	201.16434502601624	
37	98.61264705657959	movie	1		301.0	35.0	2.5	/experiments/knapen_aot/videos/R_S_yt-VQtbKGzI9SE_431.mp4	0.0	201.18018698692322	2.5084428787231445
37	101.12108993530273	fix_post	2		12.0	35.0	2.5	/experiments/knapen_aot/videos/R_S_yt-VQtbKGzI9SE_431.mp4	0.0	203.68862986564636	0.0998990535736084
38	101.22098898887634	fix_pre	0		13.0	36.0	2.5	/experiments/knapen_aot/videos/R_S_ILSVRC2015_train_00743005.mp4	0.0	203.78852891921997	0.10834813117980957
38	101.31346106529236	response	0	2		36.0	2.5	/experiments/knapen_aot/videos/R_S_ILSVRC2015_train_00743005.mp4	0.0	203.881000995636	
38	101.32933712005615	movie	1		301.0	36.0	2.5	/experiments/knapen_aot/videos/R_S_ILSVRC2015_train_00743005.mp4	0.0	203.89687705039978	2.5082948207855225
38	103.83763194084167	fix_post	2		12.0	36.0	2.5	/experiments/knapen_aot/videos/R_S_ILSVRC2015_train_00743005.mp4	0.0	206.4051718711853	0.1000051498413086
39	103.93763709068298	fix_pre	0		18.0	37.0	2.5	/experiments/knapen_aot/videos/R_S_wc-16LozRfhUGea_49.mp4	0.0	206.5051770210266	0.14994096755981445
39	104.07945990562439	response	0	2		37.0	2.5	/experiments/knapen_aot/videos/R_S_wc-16LozRfhUGea_49.mp4	0.0	206.64699983596802	
39	104.0875780582428	movie	1		301.0	37.0	2.5	/experiments/knapen_aot/videos/R_S_wc-16LozRfhUGea_49.mp4	0.0	206.65511798858643	2.508612871170044
39	106.59619092941284	fix_post	2		12.0	37.0	2.5	/experiments/knapen_aot/videos/R_S_wc-16LozRfhUGea_49.mp4	0.0	209.16373085975647	0.09984803199768066
40	106.69603896141052	fix_pre	0		8.0	38.0	2.5	/experiments/knapen_aot/videos/R_S_yt-3DM_SqT4RII_10.mp4	0.0	209.26357889175415	0.06652092933654785
40	106.75436592102051	response	0	2		38.0	2.5	/experiments/knapen_aot/videos/R_S_yt-3DM_SqT4RII_10.mp4	0.0	209.32190585136414	
40	106.76255989074707	movie	1		301.0	38.0	2.5	/experiments/knapen_aot/videos/R_S_yt-3DM_SqT4RII_10.mp4	0.0	209.3300998210907	2.50844407081604
40	109.27100396156311	fix_post	2		12.0	38.0	2.5	/experiments/knapen_aot/videos/R_S_yt-3DM_SqT4RII_10.mp4	0.0	211.83854389190674	0.10000395774841309
40	109.3460578918457	response	2	2		38.0	2.5	/experiments/knapen_aot/videos/R_S_yt-3DM_SqT4RII_10.mp4	0.0	211.91359782218933	
41	109.37100791931152	fix_pre	0		43.0	39.0	2.5	/experiments/knapen_aot/videos/R_S_yt-jy96-k8drRE_1.mp4	0.0	211.93854784965515	0.3582451343536377
41	109.721107006073	response	0	2		39.0	2.5	/experiments/knapen_aot/videos/R_S_yt-jy96-k8drRE_1.mp4	0.0	212.28864693641663	
41	109.72925305366516	movie	1		301.0	39.0	2.5	/experiments/knapen_aot/videos/R_S_yt-jy96-k8drRE_1.mp4	0.0	212.2967929840088	2.5084619522094727
41	112.23771500587463	fix_post	2		12.0	39.0	2.5	/experiments/knapen_aot/videos/R_S_yt-jy96-k8drRE_1.mp4	0.0	214.80525493621826	0.099822998046875
42	112.33753800392151	fix_pre	0		8.0	40.0	2.5	/experiments/knapen_aot/videos/R_S_ILSVRC2015_train_00697001.mp4	0.0	214.90507793426514	0.06675291061401367
42	112.39611196517944	response	0	2		40.0	2.5	/experiments/knapen_aot/videos/R_S_ILSVRC2015_train_00697001.mp4	0.0	214.96365189552307	
42	112.40429091453552	movie	1		301.0	40.0	2.5	/experiments/knapen_aot/videos/R_S_ILSVRC2015_train_00697001.mp4	0.0	214.97183084487915	2.5083119869232178
42	114.91260290145874	fix_post	2		12.0	40.0	2.5	/experiments/knapen_aot/videos/R_S_ILSVRC2015_train_00697001.mp4	0.0	217.48014283180237	0.09996819496154785
43	115.01257109642029	fix_pre	0		4.0	41.0	2.5	/experiments/knapen_aot/videos/S_ILSVRC2015_train_00079001.mp4	0.0	217.58011102676392	0.03339695930480957
43	115.03768110275269	response	0	2		41.0	2.5	/experiments/knapen_aot/videos/S_ILSVRC2015_train_00079001.mp4	0.0	217.6052210330963	
43	115.0459680557251	movie	1		301.0	41.0	2.5	/experiments/knapen_aot/videos/S_ILSVRC2015_train_00079001.mp4	0.0	217.61350798606873	2.508272886276245
43	117.55424094200134	fix_post	2		12.0	41.0	2.5	/experiments/knapen_aot/videos/S_ILSVRC2015_train_00079001.mp4	0.0	220.12178087234497	0.10002803802490234
44	117.65426898002625	fix_pre	0		12.0	42.0	2.5	blank	1.0	220.22180891036987	0.10001111030578613
44	117.74598693847656	response	0	2		42.0	2.5	blank	1.0	220.3135268688202	
44	117.75428009033203	movie	1		301.0	42.0	2.5	blank	1.0	220.32182002067566	2.508330821990967
44	120.262610912323	fix_post	2		12.0	42.0	2.5	blank	1.0	222.83015084266663	0.099884033203125
45	120.36249494552612	fix_pre	0		28.0	43.0	2.5	/experiments/knapen_aot/videos/S_ILSVRC2015_train_00743005.mp4	0.0	222.93003487586975	0.23346495628356934
45	120.58758592605591	response	0	2		43.0	2.5	/experiments/knapen_aot/videos/S_ILSVRC2015_train_00743005.mp4	0.0	223.15512585639954	
45	120.59595990180969	movie	1		301.0	43.0	2.5	/experiments/knapen_aot/videos/S_ILSVRC2015_train_00743005.mp4	0.0	223.16349983215332	2.508303165435791
45	123.10426306724548	fix_post	2		12.0	43.0	2.5	/experiments/knapen_aot/videos/S_ILSVRC2015_train_00743005.mp4	0.0	225.6718029975891	0.09993600845336914
46	123.20419907569885	fix_pre	0		13.0	44.0	2.5	/experiments/knapen_aot/videos/R_S_yt-DWsFRl5bXs8_23.mp4	0.0	225.77173900604248	0.10839700698852539
46	123.30437707901001	response	0	2		44.0	2.5	/experiments/knapen_aot/videos/R_S_yt-DWsFRl5bXs8_23.mp4	0.0	225.87191700935364	
46	123.31259608268738	movie	1		301.0	44.0	2.5	/experiments/knapen_aot/videos/R_S_yt-DWsFRl5bXs8_23.mp4	0.0	225.880136013031	2.5084500312805176
46	125.8210461139679	fix_post	2		12.0	44.0	2.5	/experiments/knapen_aot/videos/R_S_yt-DWsFRl5bXs8_23.mp4	0.0	228.38858604431152	0.09989094734191895
47	125.92093706130981	fix_pre	0		25.0	45.0	2.5	/experiments/knapen_aot/videos/R_S_yt-Xq6uX1jfFRk_21.mp4	0.0	228.48847699165344	0.20830702781677246
47	126.12102007865906	response	0	2		45.0	2.5	/experiments/knapen_aot/videos/R_S_yt-Xq6uX1jfFRk_21.mp4	0.0	228.68856000900269	
47	126.12924408912659	movie	1		301.0	45.0	2.5	/experiments/knapen_aot/videos/R_S_yt-Xq6uX1jfFRk_21.mp4	0.0	228.69678401947021	2.5083439350128174
47	128.6375880241394	fix_post	2		12.0	45.0	2.5	/experiments/knapen_aot/videos/R_S_yt-Xq6uX1jfFRk_21.mp4	0.0	231.20512795448303	0.09996390342712402
48	128.73755192756653	fix_pre	0		1.0	46.0	2.5	/experiments/knapen_aot/videos/S_yt-NOnR6C2sjpI_97.mp4	0.0	231.30509185791016	0.010943174362182617
48	128.7392280101776	response	0	2		46.0	2.5	/experiments/knapen_aot/videos/S_yt-NOnR6C2sjpI_97.mp4	0.0	231.30676794052124	
48	128.7484951019287	movie	1		301.0	46.0	2.5	/experiments/knapen_aot/videos/S_yt-NOnR6C2sjpI_97.mp4	0.0	231.31603503227234	2.505725860595703
48	131.2542209625244	fix_post	2		12.0	46.0	2.5	/experiments/knapen_aot/videos/S_yt-NOnR6C2sjpI_97.mp4	0.0	233.82176089286804	0.09998703002929688
49	131.3542079925537	fix_pre	0		27.0	47.0	2.5	blank	1.0	233.92174792289734	0.22485899925231934
49	131.5709969997406	response	0	2		47.0	2.5	blank	1.0	234.13853693008423	
49	131.57906699180603	movie	1		301.0	47.0	2.5	blank	1.0	234.14660692214966	2.5084660053253174
49	134.08753299713135	fix_post	2		12.0	47.0	2.5	blank	1.0	236.65507292747498	0.10016393661499023
50	134.18769693374634	fix_pre	0		23.0	48.0	2.5	/experiments/knapen_aot/videos/R_S_video-12.mp4	0.0	236.75523686408997	0.19146513938903809
50	134.3633840084076	response	0	2		48.0	2.5	/experiments/knapen_aot/videos/R_S_video-12.mp4	0.0	236.93092393875122	
50	134.37916207313538	movie	1		164.0	48.0	2.5	/experiments/knapen_aot/videos/R_S_video-12.mp4	0.0	236.946702003479	2.508349895477295
50	136.88751196861267	fix_post	2		12.0	48.0	2.5	/experiments/knapen_aot/videos/R_S_video-12.mp4	0.0	239.4550518989563	0.09996414184570312
51	136.98747611045837	fix_pre	0		20.0	49.0	2.5	/experiments/knapen_aot/videos/R_S_comp_L012_c002_PS_v01_SDR_PS_20180925_SDR_2K_AVC.mp4	0.0	239.555016040802	0.16657090187072754
51	137.14596891403198	response	0	2		49.0	2.5	/experiments/knapen_aot/videos/R_S_comp_L012_c002_PS_v01_SDR_PS_20180925_SDR_2K_AVC.mp4	0.0	239.7135088443756	
51	137.1540470123291	movie	1		170.0	49.0	2.5	/experiments/knapen_aot/videos/R_S_comp_L012_c002_PS_v01_SDR_PS_20180925_SDR_2K_AVC.mp4	0.0	239.72158694267273	2.5085599422454834
51	139.66260695457458	fix_post	2		12.0	49.0	2.5	/experiments/knapen_aot/videos/R_S_comp_L012_c002_PS_v01_SDR_PS_20180925_SDR_2K_AVC.mp4	0.0	242.2301468849182	0.0998849868774414
52	139.76249194145203	fix_pre	0		5.0	50.0	2.5	/experiments/knapen_aot/videos/S_ILSVRC2015_train_00682000.mp4	0.0	242.33003187179565	0.041663169860839844
52	139.79596996307373	response	0	2		50.0	2.5	/experiments/knapen_aot/videos/S_ILSVRC2015_train_00682000.mp4	0.0	242.36350989341736	
52	139.80415511131287	movie	1		301.0	50.0	2.5	/experiments/knapen_aot/videos/S_ILSVRC2015_train_00682000.mp4	0.0	242.3716950416565	2.508445978164673
52	142.31260108947754	fix_post	2		12.0	50.0	2.5	/experiments/knapen_aot/videos/S_ILSVRC2015_train_00682000.mp4	0.0	244.88014101982117	0.10001897811889648
53	142.41262006759644	fix_pre	0		4.0	51.0	2.5	/experiments/knapen_aot/videos/R_S_yt-BLmwmX-mni8_56.mp4	0.0	244.98015999794006	0.03317999839782715
53	142.43757390975952	response	0	2		51.0	2.5	/experiments/knapen_aot/videos/R_S_yt-BLmwmX-mni8_56.mp4	0.0	245.00511384010315	
53	142.44580006599426	movie	1		301.0	51.0	2.5	/experiments/knapen_aot/videos/R_S_yt-BLmwmX-mni8_56.mp4	0.0	245.0133399963379	2.508316993713379
53	144.95411705970764	fix_post	2		12.0	51.0	2.5	/experiments/knapen_aot/videos/R_S_yt-BLmwmX-mni8_56.mp4	0.0	247.52165699005127	0.09999489784240723
54	145.05411195755005	fix_pre	0		8.0	52.0	2.5	/experiments/knapen_aot/videos/R_S_ILSVRC2015_train_00451000.mp4	0.0	247.62165188789368	0.06665706634521484
54	145.1125090122223	response	0	2		52.0	2.5	/experiments/knapen_aot/videos/R_S_ILSVRC2015_train_00451000.mp4	0.0	247.68004894256592	
54	145.12076902389526	movie	1		301.0	52.0	2.5	/experiments/knapen_aot/videos/R_S_ILSVRC2015_train_00451000.mp4	0.0	247.6883089542389	2.5083608627319336
54	147.6291298866272	fix_post	2		12.0	52.0	2.5	/experiments/knapen_aot/videos/R_S_ILSVRC2015_train_00451000.mp4	0.0	250.19666981697083	0.09998321533203125
55	147.72911310195923	fix_pre	0		6.0	53.0	2.5	/experiments/knapen_aot/videos/S_ILSVRC2015_train_00079001.mp4	0.0	250.29665303230286	0.04998898506164551
55	147.77087903022766	response	0	2		53.0	2.5	/experiments/knapen_aot/videos/S_ILSVRC2015_train_00079001.mp4	0.0	250.3384189605713	
55	147.77910208702087	movie	1		301.0	53.0	2.5	/experiments/knapen_aot/videos/S_ILSVRC2015_train_00079001.mp4	0.0	250.3466420173645	2.5083518028259277
55	150.2874538898468	fix_post	2		12.0	53.0	2.5	/experiments/knapen_aot/videos/S_ILSVRC2015_train_00079001.mp4	0.0	252.85499382019043	0.09996819496154785
56	150.38742208480835	fix_pre	0		3.0	54.0	2.5	/experiments/knapen_aot/videos/R_S_ILSVRC2015_train_00001011.mp4	0.0	252.95496201515198	0.025007009506225586
56	150.4042239189148	response	0	2		54.0	2.5	/experiments/knapen_aot/videos/R_S_ILSVRC2015_train_00001011.mp4	0.0	252.97176384925842	
56	150.41242909431458	movie	1		301.0	54.0	2.5	/experiments/knapen_aot/videos/R_S_ILSVRC2015_train_00001011.mp4	0.0	252.9799690246582	2.5083229541778564
56	152.92075204849243	fix_post	2		12.0	54.0	2.5	/experiments/knapen_aot/videos/R_S_ILSVRC2015_train_00001011.mp4	0.0	255.48829197883606	0.1000678539276123
56	152.98750400543213	response	2	2		54.0	2.5	/experiments/knapen_aot/videos/R_S_ILSVRC2015_train_00001011.mp4	0.0	255.55504393577576	
57	153.02081990242004	fix_pre	0		46.0	55.0	2.5	/experiments/knapen_aot/videos/S_yt-rZA9zXR-A6s_426.mp4	0.0	255.58835983276367	0.38326001167297363
57	153.39580607414246	response	0	2		55.0	2.5	/experiments/knapen_aot/videos/S_yt-rZA9zXR-A6s_426.mp4	0.0	255.96334600448608	
57	153.40407991409302	movie	1		301.0	55.0	2.5	/experiments/knapen_aot/videos/S_yt-rZA9zXR-A6s_426.mp4	0.0	255.97161984443665	2.508347988128662
57	155.91242790222168	fix_post	2		12.0	55.0	2.5	/experiments/knapen_aot/videos/S_yt-rZA9zXR-A6s_426.mp4	0.0	258.4799678325653	0.09993910789489746
58	156.01236701011658	fix_pre	0		2.0	56.0	2.5	blank	1.0	258.5799069404602	0.01668095588684082
58	156.0208969116211	response	0	2		56.0	2.5	blank	1.0	258.5884368419647	
58	156.02904796600342	movie	1		301.0	56.0	2.5	blank	1.0	258.59658789634705	2.508352041244507
58	158.53740000724792	fix_post	2		12.0	56.0	2.5	blank	1.0	261.10493993759155	0.10009288787841797
59	158.63749289512634	fix_pre	0		23.0	57.0	2.5	/experiments/knapen_aot/videos/S_yt-JH6qCYAnX-I_70.mp4	0.0	261.20503282546997	0.19151520729064941
59	158.82078194618225	response	0	2		57.0	2.5	/experiments/knapen_aot/videos/S_yt-JH6qCYAnX-I_70.mp4	0.0	261.3883218765259	
59	158.829008102417	movie	1		301.0	57.0	2.5	/experiments/knapen_aot/videos/S_yt-JH6qCYAnX-I_70.mp4	0.0	261.3965480327606	2.5083858966827393
59	161.33739399909973	fix_post	2		12.0	57.0	2.5	/experiments/knapen_aot/videos/S_yt-JH6qCYAnX-I_70.mp4	0.0	263.90493392944336	0.09997200965881348
59	161.4291639328003	response	2	2		57.0	2.5	/experiments/knapen_aot/videos/S_yt-JH6qCYAnX-I_70.mp4	0.0	263.9967038631439	
60	161.43736600875854	fix_pre	0		40.0	58.0	2.5	/experiments/knapen_aot/videos/S_flickr-51283549@N02-23064904264_16.mp4	0.0	264.0049059391022	0.33330488204956055
60	161.76245403289795	response	0	2		58.0	2.5	/experiments/knapen_aot/videos/S_flickr-51283549@N02-23064904264_16.mp4	0.0	264.3299939632416	
60	161.7706708908081	movie	1		167.0	58.0	2.5	/experiments/knapen_aot/videos/S_flickr-51283549@N02-23064904264_16.mp4	0.0	264.33821082115173	2.508369207382202
60	164.2790400981903	fix_post	2		12.0	58.0	2.5	/experiments/knapen_aot/videos/S_flickr-51283549@N02-23064904264_16.mp4	0.0	266.84658002853394	0.10001301765441895
61	164.37905311584473	fix_pre	0		19.0	59.0	2.5	/experiments/knapen_aot/videos/S_comp_GMT060_117NC_363D_1034_AUSTRALIA_v35_SDR_PS_FINAL_20180731_SDR_2K_AVC.mp4	0.0	266.94659304618835	0.15826892852783203
61	164.52921891212463	response	0	2		59.0	2.5	/experiments/knapen_aot/videos/S_comp_GMT060_117NC_363D_1034_AUSTRALIA_v35_SDR_PS_FINAL_20180731_SDR_2K_AVC.mp4	0.0	267.09675884246826	
61	164.53732204437256	movie	1		168.0	59.0	2.5	/experiments/knapen_aot/videos/S_comp_GMT060_117NC_363D_1034_AUSTRALIA_v35_SDR_PS_FINAL_20180731_SDR_2K_AVC.mp4	0.0	267.1048619747162	2.5083770751953125
61	167.04569911956787	fix_post	2		12.0	59.0	2.5	/experiments/knapen_aot/videos/S_comp_GMT060_117NC_363D_1034_AUSTRALIA_v35_SDR_PS_FINAL_20180731_SDR_2K_AVC.mp4	0.0	269.6132390499115	0.09996294975280762
62	167.14566206932068	fix_pre	0		5.0	60.0	2.5	/experiments/knapen_aot/videos/S_comp_HK_B005_C011_PSNK_v16_SDR_PS_20180914_SDR_2K_AVC.mp4	0.0	269.7132019996643	0.04167795181274414
62	167.17918300628662	response	0	2		60.0	2.5	/experiments/knapen_aot/videos/S_comp_HK_B005_C011_PSNK_v16_SDR_PS_20180914_SDR_2K_AVC.mp4	0.0	269.74672293663025	
62	167.18734002113342	movie	1		171.0	60.0	2.5	/experiments/knapen_aot/videos/S_comp_HK_B005_C011_PSNK_v16_SDR_PS_20180914_SDR_2K_AVC.mp4	0.0	269.75487995147705	2.5084068775177
62	169.69574689865112	fix_post	2		12.0	60.0	2.5	/experiments/knapen_aot/videos/S_comp_HK_B005_C011_PSNK_v16_SDR_PS_20180914_SDR_2K_AVC.mp4	0.0	272.26328682899475	0.0999460220336914
63	169.79569292068481	fix_pre	0		7.0	61.0	2.5	/experiments/knapen_aot/videos/R_S_yt-9CUR6mjzaiY_85.mp4	0.0	272.36323285102844	0.058309078216552734
63	169.84578704833984	response	0	2		61.0	2.5	/experiments/knapen_aot/videos/R_S_yt-9CUR6mjzaiY_85.mp4	0.0	272.4133269786835	
63	169.85400199890137	movie	1		301.0	61.0	2.5	/experiments/knapen_aot/videos/R_S_yt-9CUR6mjzaiY_85.mp4	0.0	272.421541929245	2.5085909366607666
63	172.30417704582214	response	1	2		61.0	2.5	/experiments/knapen_aot/videos/R_S_yt-9CUR6mjzaiY_85.mp4	0.0	274.87171697616577	
63	172.36259293556213	fix_post	2		12.0	61.0	2.5	/experiments/knapen_aot/videos/R_S_yt-9CUR6mjzaiY_85.mp4	0.0	274.93013286590576	0.09981918334960938
64	172.46241211891174	fix_pre	0		22.0	62.0	2.5	/experiments/knapen_aot/videos/R_S_ILSVRC2015_train_00545000.mp4	0.0	275.02995204925537	0.1834409236907959
64	172.63735795021057	response	0	2		62.0	2.5	/experiments/knapen_aot/videos/R_S_ILSVRC2015_train_00545000.mp4	0.0	275.2048978805542	
64	172.64585304260254	movie	1		301.0	62.0	2.5	/experiments/knapen_aot/videos/R_S_ILSVRC2015_train_00545000.mp4	0.0	275.21339297294617	2.508213996887207
64	175.15406703948975	fix_post	2		12.0	62.0	2.5	/experiments/knapen_aot/videos/R_S_ILSVRC2015_train_00545000.mp4	0.0	277.7216069698334	0.09994292259216309
65	175.2540099620819	fix_pre	0		15.0	63.0	2.5	blank	1.0	277.82154989242554	0.1260530948638916
65	175.37082695960999	response	0	2		63.0	2.5	blank	1.0	277.9383668899536	
65	175.3800630569458	movie	1		301.0	63.0	2.5	blank	1.0	277.94760298728943	2.5072989463806152
65	177.88736200332642	fix_post	2		12.0	63.0	2.5	blank	1.0	280.45490193367004	0.09993791580200195
66	177.98729991912842	fix_pre	0		25.0	64.0	2.5	/experiments/knapen_aot/videos/R_S_yt-Rybd-sKJFz0_78.mp4	0.0	280.55483984947205	0.20834803581237793
66	178.17994689941406	response	0	2		64.0	2.5	/experiments/knapen_aot/videos/R_S_yt-Rybd-sKJFz0_78.mp4	0.0	280.7474868297577	
66	178.1956479549408	movie	1		301.0	64.0	2.5	/experiments/knapen_aot/videos/R_S_yt-Rybd-sKJFz0_78.mp4	0.0	280.7631878852844	2.5083250999450684
66	180.70397305488586	fix_post	2		12.0	64.0	2.5	/experiments/knapen_aot/videos/R_S_yt-Rybd-sKJFz0_78.mp4	0.0	283.2715129852295	0.10002994537353516
67	180.8040030002594	fix_pre	0		28.0	65.0	2.5	/experiments/knapen_aot/videos/R_S_comp_L010_C006_PS_v01_SDR_PS_20180925_SDR_2K_AVC.mp4	0.0	283.371542930603	0.2332909107208252
67	181.02909588813782	response	0	2		65.0	2.5	/experiments/knapen_aot/videos/R_S_comp_L010_C006_PS_v01_SDR_PS_20180925_SDR_2K_AVC.mp4	0.0	283.59663581848145	
67	181.03729391098022	movie	1		171.0	65.0	2.5	/experiments/knapen_aot/videos/R_S_comp_L010_C006_PS_v01_SDR_PS_20180925_SDR_2K_AVC.mp4	0.0	283.60483384132385	2.5083491802215576
67	183.54564309120178	fix_post	2		12.0	65.0	2.5	/experiments/knapen_aot/videos/R_S_comp_L010_C006_PS_v01_SDR_PS_20180925_SDR_2K_AVC.mp4	0.0	286.1131830215454	0.10000085830688477
68	183.64564394950867	fix_pre	0		11.0	66.0	2.5	/experiments/knapen_aot/videos/S_yt-jUGt_Byqczw_599.mp4	0.0	286.2131838798523	0.09163999557495117
68	183.7290620803833	response	0	2		66.0	2.5	/experiments/knapen_aot/videos/S_yt-jUGt_Byqczw_599.mp4	0.0	286.29660201072693	
68	183.73728394508362	movie	1		301.0	66.0	2.5	/experiments/knapen_aot/videos/S_yt-jUGt_Byqczw_599.mp4	0.0	286.30482387542725	2.508432149887085
68	186.2457160949707	fix_post	2		12.0	66.0	2.5	/experiments/knapen_aot/videos/S_yt-jUGt_Byqczw_599.mp4	0.0	288.81325602531433	0.09985899925231934
69	186.34557509422302	fix_pre	0		23.0	67.0	2.5	/experiments/knapen_aot/videos/R_S_comp_GMT060_117NC_363D_1034_AUSTRALIA_v35_SDR_PS_FINAL_20180731_SDR_2K_AVC.mp4	0.0	288.91311502456665	0.19170784950256348
69	186.52908492088318	response	0	2		67.0	2.5	/experiments/knapen_aot/videos/R_S_comp_GMT060_117NC_363D_1034_AUSTRALIA_v35_SDR_PS_FINAL_20180731_SDR_2K_AVC.mp4	0.0	289.0966248512268	
69	186.5372829437256	movie	1		167.0	67.0	2.5	/experiments/knapen_aot/videos/R_S_comp_GMT060_117NC_363D_1034_AUSTRALIA_v35_SDR_PS_FINAL_20180731_SDR_2K_AVC.mp4	0.0	289.1048228740692	2.508315086364746
69	189.04559803009033	fix_post	2		12.0	67.0	2.5	/experiments/knapen_aot/videos/R_S_comp_GMT060_117NC_363D_1034_AUSTRALIA_v35_SDR_PS_FINAL_20180731_SDR_2K_AVC.mp4	0.0	291.61313796043396	0.10003089904785156
70	189.14562892913818	fix_pre	0		24.0	68.0	2.5	/experiments/knapen_aot/videos/S_yt-ja8Pmpik_ao_112.mp4	0.0	291.7131688594818	0.19992518424987793
70	189.33743405342102	response	0	2		68.0	2.5	/experiments/knapen_aot/videos/S_yt-ja8Pmpik_ao_112.mp4	0.0	291.90497398376465	
70	189.34555411338806	movie	1		301.0	68.0	2.5	/experiments/knapen_aot/videos/S_yt-ja8Pmpik_ao_112.mp4	0.0	291.9130940437317	2.508366823196411
70	191.85392093658447	fix_post	2		12.0	68.0	2.5	/experiments/knapen_aot/videos/S_yt-ja8Pmpik_ao_112.mp4	0.0	294.4214608669281	0.09995007514953613
71	191.953871011734	fix_pre	0		24.0	69.0	2.5	blank	1.0	294.52141094207764	0.19998693466186523
71	192.13814401626587	response	0	2		69.0	2.5	blank	1.0	294.7056839466095	
71	192.15385794639587	movie	1		301.0	69.0	2.5	blank	1.0	294.7213978767395	2.5083351135253906
71	194.66219305992126	fix_post	2		12.0	69.0	2.5	blank	1.0	297.2297329902649	0.10014486312866211
72	194.76233792304993	fix_pre	0		22.0	70.0	2.5	/experiments/knapen_aot/videos/R_S_video.mp4	0.0	297.32987785339355	0.18321919441223145
72	194.9372329711914	response	0	2		70.0	2.5	/experiments/knapen_aot/videos/R_S_video.mp4	0.0	297.50477290153503	
72	194.94555711746216	movie	1		167.0	70.0	2.5	/experiments/knapen_aot/videos/R_S_video.mp4	0.0	297.5130970478058	2.5083508491516113
72	197.45390796661377	fix_post	2		12.0	70.0	2.5	/experiments/knapen_aot/videos/R_S_video.mp4	0.0	300.0214478969574	0.09997391700744629
72	197.53734302520752	response	2	2		70.0	2.5	/experiments/knapen_aot/videos/R_S_video.mp4	0.0	300.10488295555115	
73	197.55388188362122	fix_pre	0		38.0	71.0	2.5	/experiments/knapen_aot/videos/R_S_yt-EFrazkRaYbs_21.mp4	0.0	300.12142181396484	0.3166382312774658
73	197.86225008964539	response	0	2		71.0	2.5	/experiments/knapen_aot/videos/R_S_yt-EFrazkRaYbs_21.mp4	0.0	300.429790019989	
73	197.87052011489868	movie	1		301.0	71.0	2.5	/experiments/knapen_aot/videos/R_S_yt-EFrazkRaYbs_21.mp4	0.0	300.4380600452423	2.508396863937378
73	200.37891697883606	fix_post	2		12.0	71.0	2.5	/experiments/knapen_aot/videos/R_S_yt-EFrazkRaYbs_21.mp4	0.0	302.9464569091797	0.09997797012329102
74	200.47889494895935	fix_pre	0		9.0	72.0	2.5	/experiments/knapen_aot/videos/R_S_yt-ujTY1igjc3E_2.mp4	0.0	303.046434879303	0.07502293586730957
74	200.5381510257721	response	0	2		72.0	2.5	/experiments/knapen_aot/videos/R_S_yt-ujTY1igjc3E_2.mp4	0.0	303.1056909561157	
74	200.55391788482666	movie	1		301.0	72.0	2.5	/experiments/knapen_aot/videos/R_S_yt-ujTY1igjc3E_2.mp4	0.0	303.1214578151703	2.5083680152893066
74	203.06228590011597	fix_post	2		12.0	72.0	2.5	/experiments/knapen_aot/videos/R_S_yt-ujTY1igjc3E_2.mp4	0.0	305.6298258304596	0.09995603561401367
75	203.16224193572998	fix_pre	0		7.0	73.0	2.5	/experiments/knapen_aot/videos/S_X-D3lUv-atE_376.mp4	0.0	305.7297818660736	0.0584101676940918
75	203.21229696273804	response	0	2		73.0	2.5	/experiments/knapen_aot/videos/S_X-D3lUv-atE_376.mp4	0.0	305.77983689308167	
75	203.22065210342407	movie	1		301.0	73.0	2.5	/experiments/knapen_aot/videos/S_X-D3lUv-atE_376.mp4	0.0	305.7881920337677	2.5082039833068848
75	205.72885608673096	fix_post	2		12.0	73.0	2.5	/experiments/knapen_aot/videos/S_X-D3lUv-atE_376.mp4	0.0	308.2963960170746	0.10000801086425781
76	205.82886409759521	fix_pre	0		8.0	74.0	2.5	/experiments/knapen_aot/videos/S_8J_zE6r82MY_71.mp4	0.0	308.39640402793884	0.0667259693145752
76	205.88733911514282	response	0	2		74.0	2.5	/experiments/knapen_aot/videos/S_8J_zE6r82MY_71.mp4	0.0	308.45487904548645	
76	205.8955900669098	movie	1		301.0	74.0	2.5	/experiments/knapen_aot/videos/S_8J_zE6r82MY_71.mp4	0.0	308.4631299972534	2.5083940029144287
76	207.94562411308289	response	1	2		74.0	2.5	/experiments/knapen_aot/videos/S_8J_zE6r82MY_71.mp4	0.0	310.5131640434265	
76	208.40398406982422	fix_post	2		12.0	74.0	2.5	/experiments/knapen_aot/videos/S_8J_zE6r82MY_71.mp4	0.0	310.97152400016785	0.0999598503112793
76	208.46229600906372	response	2	2		74.0	2.5	/experiments/knapen_aot/videos/S_8J_zE6r82MY_71.mp4	0.0	311.02983593940735	
77	208.5039439201355	fix_pre	0		39.0	75.0	2.5	/experiments/knapen_aot/videos/R_S_comp_HK_B005_C011_PSNK_v16_SDR_PS_20180914_SDR_2K_AVC.mp4	0.0	311.0714838504791	0.3249340057373047
77	208.8206911087036	response	0	2		75.0	2.5	/experiments/knapen_aot/videos/R_S_comp_HK_B005_C011_PSNK_v16_SDR_PS_20180914_SDR_2K_AVC.mp4	0.0	311.38823103904724	
77	208.8288779258728	movie	1		167.0	75.0	2.5	/experiments/knapen_aot/videos/R_S_comp_HK_B005_C011_PSNK_v16_SDR_PS_20180914_SDR_2K_AVC.mp4	0.0	311.39641785621643	2.5084011554718018
77	211.3372790813446	fix_post	2		12.0	75.0	2.5	/experiments/knapen_aot/videos/R_S_comp_HK_B005_C011_PSNK_v16_SDR_PS_20180914_SDR_2K_AVC.mp4	0.0	313.90481901168823	0.0999448299407959
77	211.40395593643188	response	2	2		75.0	2.5	/experiments/knapen_aot/videos/R_S_comp_HK_B005_C011_PSNK_v16_SDR_PS_20180914_SDR_2K_AVC.mp4	0.0	313.9714958667755	
78	211.4372239112854	fix_pre	0		34.0	76.0	2.5	blank	1.0	314.004763841629	0.283372163772583
78	211.71228790283203	response	0	2		76.0	2.5	blank	1.0	314.27982783317566	
78	211.72059607505798	movie	1		301.0	76.0	2.5	blank	1.0	314.2881360054016	2.5082359313964844
78	214.22883200645447	fix_post	2		12.0	76.0	2.5	blank	1.0	316.7963719367981	0.10000205039978027
79	214.32883405685425	fix_pre	0		19.0	77.0	2.5	/experiments/knapen_aot/videos/S_ILSVRC2015_train_00682007.mp4	0.0	316.8963739871979	0.15835905075073242
79	214.4788899421692	response	0	2		77.0	2.5	/experiments/knapen_aot/videos/S_ILSVRC2015_train_00682007.mp4	0.0	317.0464298725128	
79	214.48719310760498	movie	1		301.0	77.0	2.5	/experiments/knapen_aot/videos/S_ILSVRC2015_train_00682007.mp4	0.0	317.0547330379486	2.508286952972412
79	216.9954800605774	fix_post	2		12.0	77.0	2.5	/experiments/knapen_aot/videos/S_ILSVRC2015_train_00682007.mp4	0.0	319.563019990921	0.10002589225769043
80	217.09550595283508	fix_pre	0		10.0	78.0	2.5	/experiments/knapen_aot/videos/R_S_yt-Rqwi-Fk9IJQ_114.mp4	0.0	319.6630458831787	0.0833289623260498
80	217.17058396339417	response	0	2		78.0	2.5	/experiments/knapen_aot/videos/R_S_yt-Rqwi-Fk9IJQ_114.mp4	0.0	319.7381238937378	
80	217.17883491516113	movie	1		301.0	78.0	2.5	/experiments/knapen_aot/videos/R_S_yt-Rqwi-Fk9IJQ_114.mp4	0.0	319.74637484550476	2.5083391666412354
80	219.68717408180237	fix_post	2		12.0	78.0	2.5	/experiments/knapen_aot/videos/R_S_yt-Rqwi-Fk9IJQ_114.mp4	0.0	322.254714012146	0.09990501403808594
81	219.78707909584045	fix_pre	0		10.0	79.0	2.5	/experiments/knapen_aot/videos/R_S_ILSVRC2015_train_00599000.mp4	0.0	322.3546190261841	0.08347082138061523
81	219.86229991912842	response	0	2		79.0	2.5	/experiments/knapen_aot/videos/R_S_ILSVRC2015_train_00599000.mp4	0.0	322.42983984947205	
81	219.87054991722107	movie	1		301.0	79.0	2.5	/experiments/knapen_aot/videos/R_S_ILSVRC2015_train_00599000.mp4	0.0	322.4380898475647	2.5082411766052246
81	222.3787910938263	fix_post	2		12.0	79.0	2.5	/experiments/knapen_aot/videos/R_S_ILSVRC2015_train_00599000.mp4	0.0	324.9463310241699	0.09997391700744629
82	222.47876501083374	fix_pre	0		11.0	80.0	2.5	/experiments/knapen_aot/videos/S_pexels-mikhail-nilov-8410084.mp4	0.0	325.04630494117737	0.09163999557495117
82	222.5622570514679	response	0	2		80.0	2.5	/experiments/knapen_aot/videos/S_pexels-mikhail-nilov-8410084.mp4	0.0	325.1297969818115	
82	222.5704050064087	movie	1		167.0	80.0	2.5	/experiments/knapen_aot/videos/S_pexels-mikhail-nilov-8410084.mp4	0.0	325.1379449367523	2.5083720684051514
82	225.07877707481384	fix_post	2		12.0	80.0	2.5	/experiments/knapen_aot/videos/S_pexels-mikhail-nilov-8410084.mp4	0.0	327.64631700515747	0.10003900527954102
83	225.17881608009338	fix_pre	0		5.0	81.0	2.5	/experiments/knapen_aot/videos/R_S_fHdEaNT0gA0_35.mp4	0.0	327.746356010437	0.04161787033081055
83	225.21220207214355	response	0	2		81.0	2.5	/experiments/knapen_aot/videos/R_S_fHdEaNT0gA0_35.mp4	0.0	327.7797420024872	
83	225.2204339504242	movie	1		301.0	81.0	2.5	/experiments/knapen_aot/videos/R_S_fHdEaNT0gA0_35.mp4	0.0	327.7879738807678	2.5083301067352295
83	227.72876405715942	fix_post	2		12.0	81.0	2.5	/experiments/knapen_aot/videos/R_S_fHdEaNT0gA0_35.mp4	0.0	330.29630398750305	0.09998488426208496
84	227.8287489414215	fix_pre	0		23.0	82.0	2.5	/experiments/knapen_aot/videos/R_S_yt-GytLOB9Qjro_76.mp4	0.0	330.39628887176514	0.19167113304138184
84	228.00471806526184	response	0	2		82.0	2.5	/experiments/knapen_aot/videos/R_S_yt-GytLOB9Qjro_76.mp4	0.0	330.57225799560547	
84	228.0204200744629	movie	1		301.0	82.0	2.5	/experiments/knapen_aot/videos/R_S_yt-GytLOB9Qjro_76.mp4	0.0	330.5879600048065	2.5083398818969727
84	230.52875995635986	fix_post	2		12.0	82.0	2.5	/experiments/knapen_aot/videos/R_S_yt-GytLOB9Qjro_76.mp4	0.0	333.0962998867035	0.10076498985290527
84	230.620512008667	response	2	2		82.0	2.5	/experiments/knapen_aot/videos/R_S_yt-GytLOB9Qjro_76.mp4	0.0	333.1880519390106	
85	230.62952494621277	fix_pre	0		48.0	83.0	2.5	blank	1.0	333.1970648765564	0.3991889953613281
85	231.02054905891418	response	0	2		83.0	2.5	blank	1.0	333.5880889892578	
85	231.0287139415741	movie	1		301.0	83.0	2.5	blank	1.0	333.5962538719177	2.50838303565979
85	233.5370969772339	fix_post	2		12.0	83.0	2.5	blank	1.0	336.1046369075775	0.09999513626098633
87	233.63709211349487	stim	0		92.0					336.2046320438385	0.7701067924499512
87	233.7955141067505	response	0	2						336.3630540370941	
87	234.4003291130066	response	0	space						336.9678690433502	
