trial_nr	onset	event_type	phase	response	nr_frames	movie_index	movie_duration	movie_file	blank	onset_abs	duration
0	0.12743306159973145	stim	0		29.0					98.26912713050842	0.2391970157623291
0	0.3583691120147705	response	0	space						98.50006318092346	
1	0.36663007736206055	stim	0		121.0					98.50832414627075	1.007904052734375
1	1.082996129989624	response	0	space						99.22469019889832	
1	1.3745341300964355	stim	1		120.0					99.51622819900513	0.9999558925628662
1	1.3997890949249268	response	1	space						99.54148316383362	
1	2.166396141052246	response	1	space						100.30809020996094	
1	2.3496460914611816	response	1	space						100.49134016036987	
2	2.3744900226593018	fix_pre	0		76.0	0.0	2.5	/experiments/knapen_aot/videos/S_yt-deiWoIfK6vg_44.mp4	0.0	100.516184091568	0.6345770359039307
2	2.9997000694274902	response	0	space		0.0	2.5	/experiments/knapen_aot/videos/S_yt-deiWoIfK6vg_44.mp4	0.0	101.14139413833618	
2	3.0090670585632324	movie	1		301.0	0.0	2.5	/experiments/knapen_aot/videos/S_yt-deiWoIfK6vg_44.mp4	0.0	101.15076112747192	2.5071840286254883
2	5.516251087188721	fix_post	2		12.0	0.0	2.5	/experiments/knapen_aot/videos/S_yt-deiWoIfK6vg_44.mp4	0.0	103.65794515609741	0.09992790222167969
3	5.6161789894104	fix_pre	0		68.0	1.0	2.5	/experiments/knapen_aot/videos/R_S_yt-a9bnYU0Gnxg_59.mp4	0.0	103.75787305831909	0.5666780471801758
3	6.1791441440582275	response	0	2		1.0	2.5	/experiments/knapen_aot/videos/R_S_yt-a9bnYU0Gnxg_59.mp4	0.0	104.32083821296692	
3	6.182857036590576	movie	1		298.0	1.0	2.5	/experiments/knapen_aot/videos/R_S_yt-a9bnYU0Gnxg_59.mp4	0.0	104.32455110549927	2.5083789825439453
3	8.691236019134521	fix_post	2		12.0	1.0	2.5	/experiments/knapen_aot/videos/R_S_yt-a9bnYU0Gnxg_59.mp4	0.0	106.83293008804321	0.10001707077026367
4	8.791253089904785	fix_pre	0		76.0	2.0	2.5	/experiments/knapen_aot/videos/S_yt-fP2JRJAFGZ4_25.mp4	0.0	106.93294715881348	0.634458065032959
4	9.416383028030396	response	0	2		2.0	2.5	/experiments/knapen_aot/videos/S_yt-fP2JRJAFGZ4_25.mp4	0.0	107.55807709693909	
4	9.425711154937744	movie	1		301.0	2.0	2.5	/experiments/knapen_aot/videos/S_yt-fP2JRJAFGZ4_25.mp4	0.0	107.56740522384644	2.5071399211883545
4	11.932851076126099	fix_post	2		12.0	2.0	2.5	/experiments/knapen_aot/videos/S_yt-fP2JRJAFGZ4_25.mp4	0.0	110.07454514503479	0.10002899169921875
5	12.032880067825317	fix_pre	0		52.0	3.0	2.5	/experiments/knapen_aot/videos/R_S_yt-WrwPgZYBXlA_34.mp4	0.0	110.17457413673401	0.4344968795776367
5	12.458095073699951	response	0	2		3.0	2.5	/experiments/knapen_aot/videos/R_S_yt-WrwPgZYBXlA_34.mp4	0.0	110.59978914260864	
5	12.467376947402954	movie	1		301.0	3.0	2.5	/experiments/knapen_aot/videos/R_S_yt-WrwPgZYBXlA_34.mp4	0.0	110.60907101631165	2.507193088531494
5	14.974570035934448	fix_post	2		12.0	3.0	2.5	/experiments/knapen_aot/videos/R_S_yt-WrwPgZYBXlA_34.mp4	0.0	113.11626410484314	0.09999799728393555
6	15.074568033218384	fix_pre	0		52.0	4.0	2.5	/experiments/knapen_aot/videos/R_S_ILSVRC2015_train_00460000.mp4	0.0	113.21626210212708	0.4344329833984375
6	15.499660968780518	response	0	2		4.0	2.5	/experiments/knapen_aot/videos/R_S_ILSVRC2015_train_00460000.mp4	0.0	113.64135503768921	
6	15.509001016616821	movie	1		301.0	4.0	2.5	/experiments/knapen_aot/videos/R_S_ILSVRC2015_train_00460000.mp4	0.0	113.65069508552551	2.5071821212768555
6	18.016183137893677	fix_post	2		12.0	4.0	2.5	/experiments/knapen_aot/videos/R_S_ILSVRC2015_train_00460000.mp4	0.0	116.15787720680237	0.09995484352111816
7	18.116137981414795	fix_pre	0		59.0	5.0	2.5	/experiments/knapen_aot/videos/R_S_yt-nS2QqSQbjOQ_39.mp4	0.0	116.25783205032349	0.49164795875549316
7	18.599614143371582	response	0	2		5.0	2.5	/experiments/knapen_aot/videos/R_S_yt-nS2QqSQbjOQ_39.mp4	0.0	116.74130821228027	
7	18.607785940170288	movie	1		300.0	5.0	2.5	/experiments/knapen_aot/videos/R_S_yt-nS2QqSQbjOQ_39.mp4	0.0	116.74948000907898	2.5084071159362793
7	21.116193056106567	fix_post	2		12.0	5.0	2.5	/experiments/knapen_aot/videos/R_S_yt-nS2QqSQbjOQ_39.mp4	0.0	119.25788712501526	0.09998893737792969
8	21.216181993484497	fix_pre	0		43.0	6.0	2.5	/experiments/knapen_aot/videos/S_yt-fq7m668hqZo_39.mp4	0.0	119.35787606239319	0.3582639694213867
8	21.566303968429565	response	0	2		6.0	2.5	/experiments/knapen_aot/videos/S_yt-fq7m668hqZo_39.mp4	0.0	119.70799803733826	
8	21.574445962905884	movie	1		301.0	6.0	2.5	/experiments/knapen_aot/videos/S_yt-fq7m668hqZo_39.mp4	0.0	119.71614003181458	2.508413076400757
8	24.08285903930664	fix_post	2		12.0	6.0	2.5	/experiments/knapen_aot/videos/S_yt-fq7m668hqZo_39.mp4	0.0	122.22455310821533	0.09998393058776855
9	24.18284296989441	fix_pre	0		58.0	7.0	2.5	blank	1.0	122.3245370388031	0.48329710960388184
9	24.657974004745483	response	0	2		7.0	2.5	blank	1.0	122.79966807365417	
9	24.66614007949829	movie	1		301.0	7.0	2.5	blank	1.0	122.80783414840698	2.508344888687134
9	27.174484968185425	fix_post	2		12.0	7.0	2.5	blank	1.0	125.31617903709412	0.09995698928833008
10	27.274441957473755	fix_pre	0		50.0	8.0	2.5	/experiments/knapen_aot/videos/S_yt-qE70lj3-A78_228.mp4	0.0	125.41613602638245	0.41667699813842773
10	27.68295907974243	response	0	2		8.0	2.5	/experiments/knapen_aot/videos/S_yt-qE70lj3-A78_228.mp4	0.0	125.82465314865112	
10	27.691118955612183	movie	1		301.0	8.0	2.5	/experiments/knapen_aot/videos/S_yt-qE70lj3-A78_228.mp4	0.0	125.83281302452087	2.5083131790161133
10	30.199432134628296	fix_post	2		12.0	8.0	2.5	/experiments/knapen_aot/videos/S_yt-qE70lj3-A78_228.mp4	0.0	128.341126203537	0.1000528335571289
11	30.299484968185425	fix_pre	0		61.0	9.0	2.5	/experiments/knapen_aot/videos/R_S_yt-fQGoTMausn8_88.mp4	0.0	128.44117903709412	0.5083270072937012
11	30.799682140350342	response	0	2		9.0	2.5	/experiments/knapen_aot/videos/R_S_yt-fQGoTMausn8_88.mp4	0.0	128.94137620925903	
11	30.807811975479126	movie	1		300.0	9.0	2.5	/experiments/knapen_aot/videos/R_S_yt-fQGoTMausn8_88.mp4	0.0	128.94950604438782	2.508363962173462
11	33.31617593765259	fix_post	2		12.0	9.0	2.5	/experiments/knapen_aot/videos/R_S_yt-fQGoTMausn8_88.mp4	0.0	131.45787000656128	0.09998607635498047
12	33.41616201400757	fix_pre	0		42.0	10.0	2.5	/experiments/knapen_aot/videos/R_S_flickr-53807584@N00-5566422012_16.mp4	0.0	131.55785608291626	0.3499479293823242
12	33.75788593292236	response	0	2		10.0	2.5	/experiments/knapen_aot/videos/R_S_flickr-53807584@N00-5566422012_16.mp4	0.0	131.89958000183105	
12	33.76610994338989	movie	1		301.0	10.0	2.5	/experiments/knapen_aot/videos/R_S_flickr-53807584@N00-5566422012_16.mp4	0.0	131.90780401229858	2.508416175842285
12	36.27452611923218	fix_post	2		12.0	10.0	2.5	/experiments/knapen_aot/videos/R_S_flickr-53807584@N00-5566422012_16.mp4	0.0	134.41622018814087	0.09999990463256836
13	36.374526023864746	fix_pre	0		63.0	11.0	2.5	/experiments/knapen_aot/videos/S_yt-LsCCAQ8BRO8_7.mp4	0.0	134.51622009277344	0.5249629020690918
13	36.891332149505615	response	0	2		11.0	2.5	/experiments/knapen_aot/videos/S_yt-LsCCAQ8BRO8_7.mp4	0.0	135.0330262184143	
13	36.89948892593384	movie	1		299.0	11.0	2.5	/experiments/knapen_aot/videos/S_yt-LsCCAQ8BRO8_7.mp4	0.0	135.04118299484253	2.5083022117614746
13	39.40779113769531	fix_post	2		12.0	11.0	2.5	/experiments/knapen_aot/videos/S_yt-LsCCAQ8BRO8_7.mp4	0.0	137.549485206604	0.1000058650970459
14	39.50779700279236	fix_pre	0		51.0	12.0	2.5	blank	1.0	137.64949107170105	0.4249389171600342
14	39.92458415031433	response	0	2		12.0	2.5	blank	1.0	138.06627821922302	
14	39.93273591995239	movie	1		301.0	12.0	2.5	blank	1.0	138.07442998886108	2.5083892345428467
14	42.44112515449524	fix_post	2		12.0	12.0	2.5	blank	1.0	140.58281922340393	0.10000085830688477
15	42.541126012802124	fix_pre	0		65.0	13.0	2.5	/experiments/knapen_aot/videos/S_yt-FR_Y1Mm8BwQ_53.mp4	0.0	140.68282008171082	0.5416591167449951
15	43.07460904121399	response	0	2		13.0	2.5	/experiments/knapen_aot/videos/S_yt-FR_Y1Mm8BwQ_53.mp4	0.0	141.21630311012268	
15	43.08278512954712	movie	1		300.0	13.0	2.5	/experiments/knapen_aot/videos/S_yt-FR_Y1Mm8BwQ_53.mp4	0.0	141.2244791984558	2.5082809925079346
15	45.591066122055054	fix_post	2		12.0	13.0	2.5	/experiments/knapen_aot/videos/S_yt-FR_Y1Mm8BwQ_53.mp4	0.0	143.73276019096375	0.09995698928833008
16	45.691023111343384	fix_pre	0		60.0	14.0	2.5	/experiments/knapen_aot/videos/R_S_pexels-anastasia-shuraeva-601407_2.mp4	0.0	143.83271718025208	0.5000479221343994
16	46.18283009529114	response	0	2		14.0	2.5	/experiments/knapen_aot/videos/R_S_pexels-anastasia-shuraeva-601407_2.mp4	0.0	144.32452416419983	
16	46.19107103347778	movie	1		204.0	14.0	2.5	/experiments/knapen_aot/videos/R_S_pexels-anastasia-shuraeva-601407_2.mp4	0.0	144.33276510238647	2.508246898651123
16	48.699317932128906	fix_post	2		12.0	14.0	2.5	/experiments/knapen_aot/videos/R_S_pexels-anastasia-shuraeva-601407_2.mp4	0.0	146.8410120010376	0.10002517700195312
17	48.79934310913086	fix_pre	0		51.0	15.0	2.5	/experiments/knapen_aot/videos/S_yt-1sn8u-rQRas_7.mp4	0.0	146.94103717803955	0.4250478744506836
17	49.21618700027466	response	0	2		15.0	2.5	/experiments/knapen_aot/videos/S_yt-1sn8u-rQRas_7.mp4	0.0	147.35788106918335	
17	49.22439098358154	movie	1		301.0	15.0	2.5	/experiments/knapen_aot/videos/S_yt-1sn8u-rQRas_7.mp4	0.0	147.36608505249023	2.508273124694824
17	51.73266410827637	fix_post	2		12.0	15.0	2.5	/experiments/knapen_aot/videos/S_yt-1sn8u-rQRas_7.mp4	0.0	149.87435817718506	0.10002303123474121
18	51.83268713951111	fix_pre	0		65.0	16.0	2.5	/experiments/knapen_aot/videos/R_S_yt-n1snPiGfg0A_45.mp4	0.0	149.9743812084198	0.5416789054870605
18	52.36616396903992	response	0	2		16.0	2.5	/experiments/knapen_aot/videos/R_S_yt-n1snPiGfg0A_45.mp4	0.0	150.5078580379486	
18	52.37436604499817	movie	1		301.0	16.0	2.5	/experiments/knapen_aot/videos/R_S_yt-n1snPiGfg0A_45.mp4	0.0	150.51606011390686	2.5083940029144287
18	54.8827600479126	fix_post	2		12.0	16.0	2.5	/experiments/knapen_aot/videos/R_S_yt-n1snPiGfg0A_45.mp4	0.0	153.0244541168213	0.09991788864135742
19	54.982677936553955	fix_pre	0		52.0	17.0	2.5	/experiments/knapen_aot/videos/R_S_yt-xqjVM0Vj4mI_161.mp4	0.0	153.12437200546265	0.43334007263183594
19	55.40785813331604	response	0	2		17.0	2.5	/experiments/knapen_aot/videos/R_S_yt-xqjVM0Vj4mI_161.mp4	0.0	153.54955220222473	
19	55.41601800918579	movie	1		301.0	17.0	2.5	/experiments/knapen_aot/videos/R_S_yt-xqjVM0Vj4mI_161.mp4	0.0	153.55771207809448	2.5083470344543457
19	57.92436504364014	fix_post	2		12.0	17.0	2.5	/experiments/knapen_aot/videos/R_S_yt-xqjVM0Vj4mI_161.mp4	0.0	156.06605911254883	0.09993600845336914
20	58.024301052093506	fix_pre	0		38.0	18.0	2.5	/experiments/knapen_aot/videos/S_yt-gC3my54_ChQ_58.mp4	0.0	156.1659951210022	0.3175930976867676
20	58.332916021347046	response	0	2		18.0	2.5	/experiments/knapen_aot/videos/S_yt-gC3my54_ChQ_58.mp4	0.0	156.47461009025574	
20	58.34189414978027	movie	1		300.0	18.0	2.5	/experiments/knapen_aot/videos/S_yt-gC3my54_ChQ_58.mp4	0.0	156.48358821868896	2.507391929626465
20	60.84928607940674	fix_post	2		12.0	18.0	2.5	/experiments/knapen_aot/videos/S_yt-gC3my54_ChQ_58.mp4	0.0	158.99098014831543	0.10006093978881836
21	60.94934701919556	fix_pre	0		62.0	19.0	2.5	/experiments/knapen_aot/videos/S_yt-FE5srhxadno_73.mp4	0.0	159.09104108810425	0.5175409317016602
21	61.45780801773071	response	0	2		19.0	2.5	/experiments/knapen_aot/videos/S_yt-FE5srhxadno_73.mp4	0.0	159.5995020866394	
21	61.46688795089722	movie	1		301.0	19.0	2.5	/experiments/knapen_aot/videos/S_yt-FE5srhxadno_73.mp4	0.0	159.6085820198059	2.507467031478882
21	63.9743549823761	fix_post	2		12.0	19.0	2.5	/experiments/knapen_aot/videos/S_yt-FE5srhxadno_73.mp4	0.0	162.1160490512848	0.09991812705993652
22	64.07427310943604	fix_pre	0		61.0	20.0	2.5	blank	1.0	162.21596717834473	0.5083839893341064
22	64.5744640827179	response	0	2		20.0	2.5	blank	1.0	162.7161581516266	
22	64.58265709877014	movie	1		301.0	20.0	2.5	blank	1.0	162.72435116767883	2.5083069801330566
22	67.0909640789032	fix_post	2		12.0	20.0	2.5	blank	1.0	165.2326581478119	0.09997797012329102
23	67.19094204902649	fix_pre	0		71.0	21.0	2.5	/experiments/knapen_aot/videos/S_yt-mdLT282PVbE_6.mp4	0.0	165.33263611793518	0.5916569232940674
23	67.77440905570984	response	0	2		21.0	2.5	/experiments/knapen_aot/videos/S_yt-mdLT282PVbE_6.mp4	0.0	165.91610312461853	
23	67.78259897232056	movie	1		301.0	21.0	2.5	/experiments/knapen_aot/videos/S_yt-mdLT282PVbE_6.mp4	0.0	165.92429304122925	2.5083580017089844
23	70.29095697402954	fix_post	2		12.0	21.0	2.5	/experiments/knapen_aot/videos/S_yt-mdLT282PVbE_6.mp4	0.0	168.43265104293823	0.10001111030578613
24	70.39096808433533	fix_pre	0		71.0	22.0	2.5	/experiments/knapen_aot/videos/R_S_yt-xrPrnzvWUkY_7.mp4	0.0	168.53266215324402	0.5915648937225342
24	70.96696400642395	response	0	2		22.0	2.5	/experiments/knapen_aot/videos/R_S_yt-xrPrnzvWUkY_7.mp4	0.0	169.10865807533264	
24	70.98253297805786	movie	1		301.0	22.0	2.5	/experiments/knapen_aot/videos/R_S_yt-xrPrnzvWUkY_7.mp4	0.0	169.12422704696655	2.5083391666412354
24	73.4908721446991	fix_post	2		12.0	22.0	2.5	/experiments/knapen_aot/videos/R_S_yt-xrPrnzvWUkY_7.mp4	0.0	171.6325662136078	0.10006380081176758
25	73.59093594551086	fix_pre	0		69.0	23.0	2.5	/experiments/knapen_aot/videos/S_yt--OkafQ5VFHs_51.mp4	0.0	171.73263001441956	0.5750231742858887
25	74.1577639579773	response	0	2		23.0	2.5	/experiments/knapen_aot/videos/S_yt--OkafQ5VFHs_51.mp4	0.0	172.299458026886	
25	74.16595911979675	movie	1		301.0	23.0	2.5	/experiments/knapen_aot/videos/S_yt--OkafQ5VFHs_51.mp4	0.0	172.30765318870544	2.508288860321045
25	76.6742479801178	fix_post	2		12.0	23.0	2.5	/experiments/knapen_aot/videos/S_yt--OkafQ5VFHs_51.mp4	0.0	174.8159420490265	0.09997415542602539
26	76.77422213554382	fix_pre	0		52.0	24.0	2.5	/experiments/knapen_aot/videos/R_S_yt-wEbfIR14zZ8_7.mp4	0.0	174.91591620445251	0.4333629608154297
26	77.19947695732117	response	0	2		24.0	2.5	/experiments/knapen_aot/videos/R_S_yt-wEbfIR14zZ8_7.mp4	0.0	175.34117102622986	
26	77.20758509635925	movie	1		301.0	24.0	2.5	/experiments/knapen_aot/videos/R_S_yt-wEbfIR14zZ8_7.mp4	0.0	175.34927916526794	2.508312940597534
26	79.71589803695679	fix_post	2		12.0	24.0	2.5	/experiments/knapen_aot/videos/R_S_yt-wEbfIR14zZ8_7.mp4	0.0	177.85759210586548	0.1000370979309082
27	79.8159351348877	fix_pre	0		55.0	25.0	2.5	/experiments/knapen_aot/videos/S_yt-hekMMCluhnU_18.mp4	0.0	177.9576292037964	0.45827484130859375
27	80.2660460472107	response	0	2		25.0	2.5	/experiments/knapen_aot/videos/S_yt-hekMMCluhnU_18.mp4	0.0	178.40774011611938	
27	80.27420997619629	movie	1		301.0	25.0	2.5	/experiments/knapen_aot/videos/S_yt-hekMMCluhnU_18.mp4	0.0	178.41590404510498	2.5083911418914795
27	82.78260111808777	fix_post	2		12.0	25.0	2.5	/experiments/knapen_aot/videos/S_yt-hekMMCluhnU_18.mp4	0.0	180.92429518699646	0.10002589225769043
28	82.88262701034546	fix_pre	0		66.0	26.0	2.5	/experiments/knapen_aot/videos/R_S_yt-bZfmqTZ-d2k_112.mp4	0.0	181.02432107925415	0.5499651432037354
28	83.42443609237671	response	0	2		26.0	2.5	/experiments/knapen_aot/videos/R_S_yt-bZfmqTZ-d2k_112.mp4	0.0	181.5661301612854	
28	83.4325921535492	movie	1		301.0	26.0	2.5	/experiments/knapen_aot/videos/R_S_yt-bZfmqTZ-d2k_112.mp4	0.0	181.57428622245789	2.508373975753784
28	85.94096612930298	fix_post	2		12.0	26.0	2.5	/experiments/knapen_aot/videos/R_S_yt-bZfmqTZ-d2k_112.mp4	0.0	184.08266019821167	0.09999990463256836
29	86.04096603393555	fix_pre	0		56.0	27.0	2.5	/experiments/knapen_aot/videos/R_S_b8-3.mp4	0.0	184.18266010284424	0.4674050807952881
29	86.49944400787354	response	0	2		27.0	2.5	/experiments/knapen_aot/videos/R_S_b8-3.mp4	0.0	184.64113807678223	
29	86.50837111473083	movie	1		169.0	27.0	2.5	/experiments/knapen_aot/videos/R_S_b8-3.mp4	0.0	184.65006518363953	2.507481813430786
29	89.01585292816162	fix_post	2		12.0	27.0	2.5	/experiments/knapen_aot/videos/R_S_b8-3.mp4	0.0	187.1575469970703	0.10002613067626953
30	89.11587905883789	fix_pre	0		44.0	28.0	2.5	blank	1.0	187.25757312774658	0.36665797233581543
30	89.47429895401001	response	0	2		28.0	2.5	blank	1.0	187.6159930229187	
30	89.4825370311737	movie	1		301.0	28.0	2.5	blank	1.0	187.6242311000824	2.508327007293701
30	91.99086403846741	fix_post	2		12.0	28.0	2.5	blank	1.0	190.1325581073761	0.10002708435058594
31	92.090891122818	fix_pre	0		60.0	29.0	2.5	/experiments/knapen_aot/videos/R_S_yt-giRwl4yChlw_9.mp4	0.0	190.23258519172668	0.5006499290466309
31	92.58269810676575	response	0	2		29.0	2.5	/experiments/knapen_aot/videos/R_S_yt-giRwl4yChlw_9.mp4	0.0	190.72439217567444	
31	92.59154105186462	movie	1		301.0	29.0	2.5	/experiments/knapen_aot/videos/R_S_yt-giRwl4yChlw_9.mp4	0.0	190.73323512077332	2.507680892944336
31	95.09922194480896	fix_post	2		12.0	29.0	2.5	/experiments/knapen_aot/videos/R_S_yt-giRwl4yChlw_9.mp4	0.0	193.24091601371765	0.10000205039978027
32	95.19922399520874	fix_pre	0		43.0	30.0	2.5	/experiments/knapen_aot/videos/S_yt-lCb_efvJcdE_5.mp4	0.0	193.34091806411743	0.35826611518859863
32	95.54931211471558	response	0	2		30.0	2.5	/experiments/knapen_aot/videos/S_yt-lCb_efvJcdE_5.mp4	0.0	193.69100618362427	
32	95.55749011039734	movie	1		301.0	30.0	2.5	/experiments/knapen_aot/videos/S_yt-lCb_efvJcdE_5.mp4	0.0	193.69918417930603	2.508389949798584
32	98.06588006019592	fix_post	2		12.0	30.0	2.5	/experiments/knapen_aot/videos/S_yt-lCb_efvJcdE_5.mp4	0.0	196.20757412910461	0.09999990463256836
33	98.16587996482849	fix_pre	0		59.0	31.0	2.5	/experiments/knapen_aot/videos/R_S_yt-QQPv17nfR_E_2.mp4	0.0	196.30757403373718	0.4915781021118164
33	98.64931511878967	response	0	2		31.0	2.5	/experiments/knapen_aot/videos/R_S_yt-QQPv17nfR_E_2.mp4	0.0	196.79100918769836	
33	98.65745806694031	movie	1		301.0	31.0	2.5	/experiments/knapen_aot/videos/R_S_yt-QQPv17nfR_E_2.mp4	0.0	196.799152135849	2.5084190368652344
33	101.16587710380554	fix_post	2		12.0	31.0	2.5	/experiments/knapen_aot/videos/R_S_yt-QQPv17nfR_E_2.mp4	0.0	199.30757117271423	0.10002684593200684
34	101.26590394973755	fix_pre	0		38.0	32.0	2.5	/experiments/knapen_aot/videos/S_yt-BW6jWEVbxxk_4.mp4	0.0	199.40759801864624	0.3166351318359375
34	101.57433414459229	response	0	2		32.0	2.5	/experiments/knapen_aot/videos/S_yt-BW6jWEVbxxk_4.mp4	0.0	199.71602821350098	
34	101.58253908157349	movie	1		301.0	32.0	2.5	/experiments/knapen_aot/videos/S_yt-BW6jWEVbxxk_4.mp4	0.0	199.72423315048218	2.508336067199707
34	104.0908751487732	fix_post	2		12.0	32.0	2.5	/experiments/knapen_aot/videos/S_yt-BW6jWEVbxxk_4.mp4	0.0	202.23256921768188	0.09999990463256836
35	104.19087505340576	fix_pre	0		47.0	33.0	2.5	/experiments/knapen_aot/videos/R_S_yt-Jo6PxivsTOg_247.mp4	0.0	202.33256912231445	0.3915979862213135
35	104.57435393333435	response	0	2		33.0	2.5	/experiments/knapen_aot/videos/R_S_yt-Jo6PxivsTOg_247.mp4	0.0	202.71604800224304	
35	104.58247303962708	movie	1		301.0	33.0	2.5	/experiments/knapen_aot/videos/R_S_yt-Jo6PxivsTOg_247.mp4	0.0	202.72416710853577	2.5083460807800293
35	107.0908191204071	fix_post	2		12.0	33.0	2.5	/experiments/knapen_aot/videos/R_S_yt-Jo6PxivsTOg_247.mp4	0.0	205.2325131893158	0.10005998611450195
36	107.1908791065216	fix_pre	0		63.0	34.0	2.5	blank	1.0	205.3325731754303	0.5256049633026123
36	107.70767903327942	response	0	2		34.0	2.5	blank	1.0	205.8493731021881	
36	107.71648406982422	movie	1		301.0	34.0	2.5	blank	1.0	205.8581781387329	2.5075478553771973
36	110.22403192520142	fix_post	2		12.0	34.0	2.5	blank	1.0	208.3657259941101	0.10013699531555176
37	110.32416892051697	fix_pre	0		89.0	35.0	2.5	/experiments/knapen_aot/videos/R_S_yt-etF_WUW5D68_3.mp4	0.0	208.46586298942566	0.7416071891784668
37	111.0576651096344	response	0	2		35.0	2.5	/experiments/knapen_aot/videos/R_S_yt-etF_WUW5D68_3.mp4	0.0	209.1993591785431	
37	111.06577610969543	movie	1		301.0	35.0	2.5	/experiments/knapen_aot/videos/R_S_yt-etF_WUW5D68_3.mp4	0.0	209.20747017860413	2.5083060264587402
37	113.57408213615417	fix_post	2		12.0	35.0	2.5	/experiments/knapen_aot/videos/R_S_yt-etF_WUW5D68_3.mp4	0.0	211.71577620506287	0.09999299049377441
38	113.67407512664795	fix_pre	0		57.0	36.0	2.5	/experiments/knapen_aot/videos/R_S_pexels-c-technical-6344801.mp4	0.0	211.81576919555664	0.4750399589538574
38	114.14090895652771	response	0	2		36.0	2.5	/experiments/knapen_aot/videos/R_S_pexels-c-technical-6344801.mp4	0.0	212.2826030254364	
38	114.1491150856018	movie	1		204.0	36.0	2.5	/experiments/knapen_aot/videos/R_S_pexels-c-technical-6344801.mp4	0.0	212.2908091545105	2.5083210468292236
38	116.65743613243103	fix_post	2		12.0	36.0	2.5	/experiments/knapen_aot/videos/R_S_pexels-c-technical-6344801.mp4	0.0	214.79913020133972	0.1000068187713623
39	116.75744295120239	fix_pre	0		66.0	37.0	2.5	/experiments/knapen_aot/videos/R_S_yt-OEY9O2MglQM_7.mp4	0.0	214.89913702011108	0.5499939918518066
39	117.29923009872437	response	0	2		37.0	2.5	/experiments/knapen_aot/videos/R_S_yt-OEY9O2MglQM_7.mp4	0.0	215.44092416763306	
39	117.3074369430542	movie	1		301.0	37.0	2.5	/experiments/knapen_aot/videos/R_S_yt-OEY9O2MglQM_7.mp4	0.0	215.4491310119629	2.508305072784424
39	119.81574201583862	fix_post	2		12.0	37.0	2.5	/experiments/knapen_aot/videos/R_S_yt-OEY9O2MglQM_7.mp4	0.0	217.95743608474731	0.0999460220336914
40	119.91568803787231	fix_pre	0		53.0	38.0	2.5	/experiments/knapen_aot/videos/S_yt-BW6jWEVbxxk_4.mp4	0.0	218.057382106781	0.44173192977905273
40	120.34952712059021	response	0	2		38.0	2.5	/experiments/knapen_aot/videos/S_yt-BW6jWEVbxxk_4.mp4	0.0	218.4912211894989	
40	120.35741996765137	movie	1		301.0	38.0	2.5	/experiments/knapen_aot/videos/S_yt-BW6jWEVbxxk_4.mp4	0.0	218.49911403656006	2.5082671642303467
40	122.86568713188171	fix_post	2		12.0	38.0	2.5	/experiments/knapen_aot/videos/S_yt-BW6jWEVbxxk_4.mp4	0.0	221.0073812007904	0.10003280639648438
41	122.9657199382782	fix_pre	0		54.0	39.0	2.5	/experiments/knapen_aot/videos/S_yt-7WYXuBHeorw_188.mp4	0.0	221.1074140071869	0.44994401931762695
41	123.40756797790527	response	0	2		39.0	2.5	/experiments/knapen_aot/videos/S_yt-7WYXuBHeorw_188.mp4	0.0	221.54926204681396	
41	123.41566395759583	movie	1		300.0	39.0	2.5	/experiments/knapen_aot/videos/S_yt-7WYXuBHeorw_188.mp4	0.0	221.55735802650452	2.5084149837493896
41	125.92407894134521	fix_post	2		12.0	39.0	2.5	/experiments/knapen_aot/videos/S_yt-7WYXuBHeorw_188.mp4	0.0	224.0657730102539	0.10004115104675293
42	126.02412009239197	fix_pre	0		85.0	40.0	2.5	/experiments/knapen_aot/videos/R_S_yt-sxZ_ONShI7U_75.mp4	0.0	224.16581416130066	0.7082388401031494
42	126.72427296638489	response	0	2		40.0	2.5	/experiments/knapen_aot/videos/R_S_yt-sxZ_ONShI7U_75.mp4	0.0	224.86596703529358	
42	126.73235893249512	movie	1		301.0	40.0	2.5	/experiments/knapen_aot/videos/R_S_yt-sxZ_ONShI7U_75.mp4	0.0	224.8740530014038	2.5082781314849854
42	129.2406370639801	fix_post	2		12.0	40.0	2.5	/experiments/knapen_aot/videos/R_S_yt-sxZ_ONShI7U_75.mp4	0.0	227.3823311328888	0.10014986991882324
43	129.34078693389893	fix_pre	0		51.0	41.0	2.5	/experiments/knapen_aot/videos/S_b8-3.mp4	0.0	227.48248100280762	0.42491817474365234
43	129.75750613212585	response	0	2		41.0	2.5	/experiments/knapen_aot/videos/S_b8-3.mp4	0.0	227.89920020103455	
43	129.76570510864258	movie	1		170.0	41.0	2.5	/experiments/knapen_aot/videos/S_b8-3.mp4	0.0	227.90739917755127	2.5082898139953613
43	132.27399492263794	fix_post	2		12.0	41.0	2.5	/experiments/knapen_aot/videos/S_b8-3.mp4	0.0	230.41568899154663	0.10004806518554688
44	132.3740429878235	fix_pre	0		51.0	42.0	2.5	blank	1.0	230.51573705673218	0.42551612854003906
44	132.79099893569946	response	0	2		42.0	2.5	blank	1.0	230.93269300460815	
44	132.79955911636353	movie	1		301.0	42.0	2.5	blank	1.0	230.94125318527222	2.507795810699463
44	135.307354927063	fix_post	2		12.0	42.0	2.5	blank	1.0	233.44904899597168	0.10001707077026367
45	135.40737199783325	fix_pre	0		62.0	43.0	2.5	/experiments/knapen_aot/videos/S_3dzza09VbXY_235.mp4	0.0	233.54906606674194	0.5171139240264893
45	135.91583395004272	response	0	2		43.0	2.5	/experiments/knapen_aot/videos/S_3dzza09VbXY_235.mp4	0.0	234.05752801895142	
45	135.92448592185974	movie	1		301.0	43.0	2.5	/experiments/knapen_aot/videos/S_3dzza09VbXY_235.mp4	0.0	234.06617999076843	2.507885217666626
45	138.43237113952637	fix_post	2		12.0	43.0	2.5	/experiments/knapen_aot/videos/S_3dzza09VbXY_235.mp4	0.0	236.57406520843506	0.09997081756591797
46	138.53234195709229	fix_pre	0		72.0	44.0	2.5	/experiments/knapen_aot/videos/S_yt-ejSzwn8tY8g_49.mp4	0.0	236.67403602600098	0.6004760265350342
46	139.12415313720703	response	0	2		44.0	2.5	/experiments/knapen_aot/videos/S_yt-ejSzwn8tY8g_49.mp4	0.0	237.26584720611572	
46	139.13281798362732	movie	1		301.0	44.0	2.5	/experiments/knapen_aot/videos/S_yt-ejSzwn8tY8g_49.mp4	0.0	237.274512052536	2.5078721046447754
46	141.6406900882721	fix_post	2		12.0	44.0	2.5	/experiments/knapen_aot/videos/S_yt-ejSzwn8tY8g_49.mp4	0.0	239.7823841571808	0.09999585151672363
47	141.74068593978882	fix_pre	0		59.0	45.0	2.5	/experiments/knapen_aot/videos/R_S_yt-rbJOb1spY9M_16.mp4	0.0	239.8823800086975	0.49163818359375
47	142.2241461277008	response	0	2		45.0	2.5	/experiments/knapen_aot/videos/R_S_yt-rbJOb1spY9M_16.mp4	0.0	240.3658401966095	
47	142.23232412338257	movie	1		301.0	45.0	2.5	/experiments/knapen_aot/videos/R_S_yt-rbJOb1spY9M_16.mp4	0.0	240.37401819229126	2.5082788467407227
47	144.7406029701233	fix_post	2		12.0	45.0	2.5	/experiments/knapen_aot/videos/R_S_yt-rbJOb1spY9M_16.mp4	0.0	242.88229703903198	0.10000300407409668
48	144.8406059741974	fix_pre	0		39.0	46.0	2.5	/experiments/knapen_aot/videos/S_ILSVRC2015_train_00185002.mp4	0.0	242.98230004310608	0.3250300884246826
48	145.15741205215454	response	0	2		46.0	2.5	/experiments/knapen_aot/videos/S_ILSVRC2015_train_00185002.mp4	0.0	243.29910612106323	
48	145.16563606262207	movie	1		301.0	46.0	2.5	/experiments/knapen_aot/videos/S_ILSVRC2015_train_00185002.mp4	0.0	243.30733013153076	2.508363962173462
48	147.67400002479553	fix_post	2		12.0	46.0	2.5	/experiments/knapen_aot/videos/S_ILSVRC2015_train_00185002.mp4	0.0	245.81569409370422	0.09998607635498047
49	147.7739861011505	fix_pre	0		55.0	47.0	2.5	/experiments/knapen_aot/videos/S_yt-kxWtOXNIsRA_329.mp4	0.0	245.9156801700592	0.4582529067993164
49	148.22411394119263	response	0	2		47.0	2.5	/experiments/knapen_aot/videos/S_yt-kxWtOXNIsRA_329.mp4	0.0	246.36580801010132	
49	148.23223900794983	movie	1		301.0	47.0	2.5	/experiments/knapen_aot/videos/S_yt-kxWtOXNIsRA_329.mp4	0.0	246.37393307685852	2.508431911468506
49	150.74067091941833	fix_post	2		12.0	47.0	2.5	/experiments/knapen_aot/videos/S_yt-kxWtOXNIsRA_329.mp4	0.0	248.88236498832703	0.09995102882385254
50	150.8406219482422	fix_pre	0		53.0	48.0	2.5	blank	1.0	248.98231601715088	0.44164419174194336
50	151.27406907081604	response	0	2		48.0	2.5	blank	1.0	249.41576313972473	
50	151.28226613998413	movie	1		301.0	48.0	2.5	blank	1.0	249.42396020889282	2.5083539485931396
50	153.79062008857727	fix_post	2		12.0	48.0	2.5	blank	1.0	251.93231415748596	0.09995889663696289
51	153.89057898521423	fix_pre	0		29.0	49.0	2.5	/experiments/knapen_aot/videos/R_S_yt-5DD4XtHSA9Q_171.mp4	0.0	252.03227305412292	0.2420821189880371
51	154.1164710521698	response	0	2		49.0	2.5	/experiments/knapen_aot/videos/R_S_yt-5DD4XtHSA9Q_171.mp4	0.0	252.2581651210785	
51	154.13266110420227	movie	1		301.0	49.0	2.5	/experiments/knapen_aot/videos/R_S_yt-5DD4XtHSA9Q_171.mp4	0.0	252.27435517311096	2.5080149173736572
51	156.64067602157593	fix_post	2		12.0	49.0	2.5	/experiments/knapen_aot/videos/R_S_yt-5DD4XtHSA9Q_171.mp4	0.0	254.78237009048462	0.09998011589050293
52	156.74065613746643	fix_pre	0		49.0	50.0	2.5	/experiments/knapen_aot/videos/S_yt-etQaTgGOhR4_69.mp4	0.0	254.88235020637512	0.4083259105682373
52	157.14078497886658	response	0	2		50.0	2.5	/experiments/knapen_aot/videos/S_yt-etQaTgGOhR4_69.mp4	0.0	255.28247904777527	
52	157.14898204803467	movie	1		301.0	50.0	2.5	/experiments/knapen_aot/videos/S_yt-etQaTgGOhR4_69.mp4	0.0	255.29067611694336	2.5083420276641846
52	159.65732407569885	fix_post	2		12.0	50.0	2.5	/experiments/knapen_aot/videos/S_yt-etQaTgGOhR4_69.mp4	0.0	257.79901814460754	0.10036706924438477
53	159.75769114494324	fix_pre	0		88.0	51.0	2.5	/experiments/knapen_aot/videos/R_S_wc-dwTccI0TNwps_15.mp4	0.0	257.89938521385193	0.7329399585723877
53	160.48244214057922	response	0	2		51.0	2.5	/experiments/knapen_aot/videos/R_S_wc-dwTccI0TNwps_15.mp4	0.0	258.6241362094879	
53	160.49063110351562	movie	1		301.0	51.0	2.5	/experiments/knapen_aot/videos/R_S_wc-dwTccI0TNwps_15.mp4	0.0	258.6323251724243	2.508333921432495
53	162.99896502494812	fix_post	2		12.0	51.0	2.5	/experiments/knapen_aot/videos/R_S_wc-dwTccI0TNwps_15.mp4	0.0	261.1406590938568	0.09999489784240723
54	163.09895992279053	fix_pre	0		88.0	52.0	2.5	/experiments/knapen_aot/videos/R_S_wc-8bTJmWfuVyJ4_8.mp4	0.0	261.2406539916992	0.7333090305328369
54	163.82433605194092	response	0	2		52.0	2.5	/experiments/knapen_aot/videos/R_S_wc-8bTJmWfuVyJ4_8.mp4	0.0	261.9660301208496	
54	163.83226895332336	movie	1		162.0	52.0	2.5	/experiments/knapen_aot/videos/R_S_wc-8bTJmWfuVyJ4_8.mp4	0.0	261.97396302223206	2.508723020553589
54	166.34099197387695	fix_post	2		12.0	52.0	2.5	/experiments/knapen_aot/videos/R_S_wc-8bTJmWfuVyJ4_8.mp4	0.0	264.48268604278564	0.09956502914428711
55	166.44055700302124	fix_pre	0		51.0	53.0	2.5	/experiments/knapen_aot/videos/S_yt-LYnwnfi1JJ4_120.mp4	0.0	264.58225107192993	0.42497897148132324
55	166.85736799240112	response	0	2		53.0	2.5	/experiments/knapen_aot/videos/S_yt-LYnwnfi1JJ4_120.mp4	0.0	264.9990620613098	
55	166.86553597450256	movie	1		301.0	53.0	2.5	/experiments/knapen_aot/videos/S_yt-LYnwnfi1JJ4_120.mp4	0.0	265.00723004341125	2.5083961486816406
55	169.3739321231842	fix_post	2		12.0	53.0	2.5	/experiments/knapen_aot/videos/S_yt-LYnwnfi1JJ4_120.mp4	0.0	267.5156261920929	0.10003399848937988
56	169.47396612167358	fix_pre	0		47.0	54.0	2.5	/experiments/knapen_aot/videos/R_S_ILSVRC2015_train_00575000.mp4	0.0	267.6156601905823	0.3916299343109131
56	169.85742497444153	response	0	2		54.0	2.5	/experiments/knapen_aot/videos/R_S_ILSVRC2015_train_00575000.mp4	0.0	267.9991190433502	
56	169.8655960559845	movie	1		301.0	54.0	2.5	/experiments/knapen_aot/videos/R_S_ILSVRC2015_train_00575000.mp4	0.0	268.0072901248932	2.5083279609680176
56	172.37392401695251	fix_post	2		12.0	54.0	2.5	/experiments/knapen_aot/videos/R_S_ILSVRC2015_train_00575000.mp4	0.0	270.5156180858612	0.10000300407409668
57	172.4739270210266	fix_pre	0		79.0	55.0	2.5	/experiments/knapen_aot/videos/R_S_pexels-mart-production-7279749.mp4	0.0	270.6156210899353	0.6585581302642822
57	173.12394213676453	response	0	2		55.0	2.5	/experiments/knapen_aot/videos/R_S_pexels-mart-production-7279749.mp4	0.0	271.2656362056732	
57	173.1324851512909	movie	1		167.0	55.0	2.5	/experiments/knapen_aot/videos/R_S_pexels-mart-production-7279749.mp4	0.0	271.2741792201996	2.508084774017334
57	175.64056992530823	fix_post	2		12.0	55.0	2.5	/experiments/knapen_aot/videos/R_S_pexels-mart-production-7279749.mp4	0.0	273.7822639942169	0.10013008117675781
58	175.74070000648499	fix_pre	0		90.0	56.0	2.5	blank	1.0	273.8823940753937	0.7498610019683838
58	176.48242211341858	response	0	2		56.0	2.5	blank	1.0	274.62411618232727	
58	176.49056100845337	movie	1		301.0	56.0	2.5	blank	1.0	274.63225507736206	2.508355140686035
58	178.9989161491394	fix_post	2		12.0	56.0	2.5	blank	1.0	277.1406102180481	0.10004091262817383
59	179.09895706176758	fix_pre	0		64.0	57.0	2.5	/experiments/knapen_aot/videos/R_S_yt-AbJBxqEYoMg_105.mp4	0.0	277.24065113067627	0.5334620475769043
59	179.62399291992188	response	0	2		57.0	2.5	/experiments/knapen_aot/videos/R_S_yt-AbJBxqEYoMg_105.mp4	0.0	277.76568698883057	
59	179.63241910934448	movie	1		301.0	57.0	2.5	/experiments/knapen_aot/videos/R_S_yt-AbJBxqEYoMg_105.mp4	0.0	277.7741131782532	2.508126974105835
59	182.14054608345032	fix_post	2		12.0	57.0	2.5	/experiments/knapen_aot/videos/R_S_yt-AbJBxqEYoMg_105.mp4	0.0	280.282240152359	0.09999585151672363
60	182.24054193496704	fix_pre	0		71.0	58.0	2.5	/experiments/knapen_aot/videos/R_S_yt-gikcYT6ZLzA_7.mp4	0.0	280.38223600387573	0.5916190147399902
60	182.82398414611816	response	0	2		58.0	2.5	/experiments/knapen_aot/videos/R_S_yt-gikcYT6ZLzA_7.mp4	0.0	280.96567821502686	
60	182.83216094970703	movie	1		301.0	58.0	2.5	/experiments/knapen_aot/videos/R_S_yt-gikcYT6ZLzA_7.mp4	0.0	280.9738550186157	2.508357048034668
60	185.3405179977417	fix_post	2		12.0	58.0	2.5	/experiments/knapen_aot/videos/R_S_yt-gikcYT6ZLzA_7.mp4	0.0	283.4822120666504	0.09999608993530273
61	185.440514087677	fix_pre	0		59.0	59.0	2.5	/experiments/knapen_aot/videos/S_pexels-rodnae-productions-5993237.mp4	0.0	283.5822081565857	0.49170589447021484
61	185.92400693893433	response	0	2		59.0	2.5	/experiments/knapen_aot/videos/S_pexels-rodnae-productions-5993237.mp4	0.0	284.065701007843	
61	185.93221998214722	movie	1		161.0	59.0	2.5	/experiments/knapen_aot/videos/S_pexels-rodnae-productions-5993237.mp4	0.0	284.0739140510559	2.5083119869232178
61	188.44053196907043	fix_post	2		12.0	59.0	2.5	/experiments/knapen_aot/videos/S_pexels-rodnae-productions-5993237.mp4	0.0	286.5822260379791	0.10008597373962402
62	188.54061794281006	fix_pre	0		52.0	60.0	2.5	/experiments/knapen_aot/videos/S_yt-rbJOb1spY9M_16.mp4	0.0	286.68231201171875	0.43321919441223145
62	188.9655680656433	response	0	2		60.0	2.5	/experiments/knapen_aot/videos/S_yt-rbJOb1spY9M_16.mp4	0.0	287.107262134552	
62	188.9738371372223	movie	1		299.0	60.0	2.5	/experiments/knapen_aot/videos/S_yt-rbJOb1spY9M_16.mp4	0.0	287.115531206131	2.508356809616089
62	191.48219394683838	fix_post	2		12.0	60.0	2.5	/experiments/knapen_aot/videos/S_yt-rbJOb1spY9M_16.mp4	0.0	289.62388801574707	0.09997820854187012
63	191.58217215538025	fix_pre	0		60.0	61.0	2.5	blank	1.0	289.72386622428894	0.499924898147583
63	192.07391905784607	response	0	2		61.0	2.5	blank	1.0	290.21561312675476	
63	192.08209705352783	movie	1		301.0	61.0	2.5	blank	1.0	290.2237911224365	2.5083260536193848
63	194.59042310714722	fix_post	2		12.0	61.0	2.5	blank	1.0	292.7321171760559	0.10002803802490234
64	194.69045114517212	fix_pre	0		96.0	62.0	2.5	/experiments/knapen_aot/videos/S_pexels-mikhail-nilov-8410063.mp4	0.0	292.8321452140808	0.7999038696289062
64	195.48228693008423	response	0	2		62.0	2.5	/experiments/knapen_aot/videos/S_pexels-mikhail-nilov-8410063.mp4	0.0	293.6239809989929	
64	195.49035501480103	movie	1		163.0	62.0	2.5	/experiments/knapen_aot/videos/S_pexels-mikhail-nilov-8410063.mp4	0.0	293.6320490837097	2.5084409713745117
64	197.99879598617554	fix_post	2		12.0	62.0	2.5	/experiments/knapen_aot/videos/S_pexels-mikhail-nilov-8410063.mp4	0.0	296.14049005508423	0.09998893737792969
65	198.09878492355347	fix_pre	0		63.0	63.0	2.5	/experiments/knapen_aot/videos/R_S_pexels-mart-production-7279749.mp4	0.0	296.24047899246216	0.5250740051269531
65	198.61559510231018	response	0	2		63.0	2.5	/experiments/knapen_aot/videos/R_S_pexels-mart-production-7279749.mp4	0.0	296.7572891712189	
65	198.62385892868042	movie	1		165.0	63.0	2.5	/experiments/knapen_aot/videos/R_S_pexels-mart-production-7279749.mp4	0.0	296.7655529975891	2.50838303565979
65	201.1322419643402	fix_post	2		12.0	63.0	2.5	/experiments/knapen_aot/videos/R_S_pexels-mart-production-7279749.mp4	0.0	299.2739360332489	0.09975910186767578
66	201.23200106620789	fix_pre	0		150.0	64.0	2.5	/experiments/knapen_aot/videos/S_yt-zpoIiHGRm5k_296.mp4	0.0	299.3736951351166	1.2500529289245605
66	202.46637392044067	response	0	2		64.0	2.5	/experiments/knapen_aot/videos/S_yt-zpoIiHGRm5k_296.mp4	0.0	300.60806798934937	
66	202.48205399513245	movie	1		301.0	64.0	2.5	/experiments/knapen_aot/videos/S_yt-zpoIiHGRm5k_296.mp4	0.0	300.62374806404114	2.5086331367492676
66	204.9906871318817	fix_post	2		12.0	64.0	2.5	/experiments/knapen_aot/videos/S_yt-zpoIiHGRm5k_296.mp4	0.0	303.1323812007904	0.0999138355255127
67	205.09060096740723	fix_pre	0		87.0	65.0	2.5	/experiments/knapen_aot/videos/R_S_comp_L004_C011_PS_v01_SDR_PS_20180925_SDR_2K_AVC.mp4	0.0	303.2322950363159	0.7248110771179199
67	205.7997260093689	response	0	2		65.0	2.5	/experiments/knapen_aot/videos/R_S_comp_L004_C011_PS_v01_SDR_PS_20180925_SDR_2K_AVC.mp4	0.0	303.9414200782776	
67	205.81541204452515	movie	1		167.0	65.0	2.5	/experiments/knapen_aot/videos/R_S_comp_L004_C011_PS_v01_SDR_PS_20180925_SDR_2K_AVC.mp4	0.0	303.95710611343384	2.508358955383301
67	208.32377099990845	fix_post	2		12.0	65.0	2.5	/experiments/knapen_aot/videos/R_S_comp_L004_C011_PS_v01_SDR_PS_20180925_SDR_2K_AVC.mp4	0.0	306.46546506881714	0.10012102127075195
68	208.4238920211792	fix_pre	0		57.0	66.0	2.5	/experiments/knapen_aot/videos/S_yt-F1X_vq0Zioc_154.mp4	0.0	306.5655860900879	0.47486400604248047
68	208.89077305793762	response	0	2		66.0	2.5	/experiments/knapen_aot/videos/S_yt-F1X_vq0Zioc_154.mp4	0.0	307.0324671268463	
68	208.89875602722168	movie	1		301.0	66.0	2.5	/experiments/knapen_aot/videos/S_yt-F1X_vq0Zioc_154.mp4	0.0	307.04045009613037	2.5082859992980957
68	211.40704202651978	fix_post	2		12.0	66.0	2.5	/experiments/knapen_aot/videos/S_yt-F1X_vq0Zioc_154.mp4	0.0	309.54873609542847	0.10017609596252441
69	211.5072181224823	fix_pre	0		65.0	67.0	2.5	/experiments/knapen_aot/videos/S_yt-K-iCphzt_RE_17.mp4	0.0	309.648912191391	0.5415868759155273
69	212.040589094162	response	0	2		67.0	2.5	/experiments/knapen_aot/videos/S_yt-K-iCphzt_RE_17.mp4	0.0	310.1822831630707	
69	212.04880499839783	movie	1		301.0	67.0	2.5	/experiments/knapen_aot/videos/S_yt-K-iCphzt_RE_17.mp4	0.0	310.1904990673065	2.508281946182251
69	214.55708694458008	fix_post	2		12.0	67.0	2.5	/experiments/knapen_aot/videos/S_yt-K-iCphzt_RE_17.mp4	0.0	312.69878101348877	0.09999799728393555
70	214.657084941864	fix_pre	0		82.0	68.0	2.5	/experiments/knapen_aot/videos/R_S_pexels-c-technical-6344801.mp4	0.0	312.7987790107727	0.6834030151367188
70	215.33217406272888	response	0	2		68.0	2.5	/experiments/knapen_aot/videos/R_S_pexels-c-technical-6344801.mp4	0.0	313.4738681316376	
70	215.34048795700073	movie	1		197.0	68.0	2.5	/experiments/knapen_aot/videos/R_S_pexels-c-technical-6344801.mp4	0.0	313.4821820259094	2.5082151889801025
70	217.84870314598083	fix_post	2		12.0	68.0	2.5	/experiments/knapen_aot/videos/R_S_pexels-c-technical-6344801.mp4	0.0	315.9903972148895	0.1000359058380127
71	217.94873905181885	fix_pre	0		56.0	69.0	2.5	blank	1.0	316.09043312072754	0.4666109085083008
71	218.40722107887268	response	0	2		69.0	2.5	blank	1.0	316.5489151477814	
71	218.41534996032715	movie	1		301.0	69.0	2.5	blank	1.0	316.55704402923584	2.508416175842285
71	220.92376613616943	fix_post	2		12.0	69.0	2.5	blank	1.0	319.0654602050781	0.09994983673095703
72	221.0237159729004	fix_pre	0		26.0	70.0	2.5	/experiments/knapen_aot/videos/R_S_yt-D6fhzH21T_E_26.mp4	0.0	319.1654100418091	0.21668100357055664
72	221.23218512535095	response	0	2		70.0	2.5	/experiments/knapen_aot/videos/R_S_yt-D6fhzH21T_E_26.mp4	0.0	319.37387919425964	
72	221.24039697647095	movie	1		301.0	70.0	2.5	/experiments/knapen_aot/videos/R_S_yt-D6fhzH21T_E_26.mp4	0.0	319.38209104537964	2.5083131790161133
72	223.74871015548706	fix_post	2		12.0	70.0	2.5	/experiments/knapen_aot/videos/R_S_yt-D6fhzH21T_E_26.mp4	0.0	321.89040422439575	0.09999489784240723
73	223.84870505332947	fix_pre	0		38.0	71.0	2.5	/experiments/knapen_aot/videos/S_production_ID_5020953.mp4	0.0	321.99039912223816	0.31661009788513184
73	224.1571021080017	response	0	2		71.0	2.5	/experiments/knapen_aot/videos/S_production_ID_5020953.mp4	0.0	322.2987961769104	
73	224.1653151512146	movie	1		203.0	71.0	2.5	/experiments/knapen_aot/videos/S_production_ID_5020953.mp4	0.0	322.3070092201233	2.5084378719329834
73	226.67375302314758	fix_post	2		12.0	71.0	2.5	/experiments/knapen_aot/videos/S_production_ID_5020953.mp4	0.0	324.8154470920563	0.0999610424041748
74	226.77371406555176	fix_pre	0		48.0	72.0	2.5	/experiments/knapen_aot/videos/S_pexels-roman-odintsov-8232443.mp4	0.0	324.91540813446045	0.399975061416626
74	227.16551399230957	response	0	2		72.0	2.5	/experiments/knapen_aot/videos/S_pexels-roman-odintsov-8232443.mp4	0.0	325.30720806121826	
74	227.17368912696838	movie	1		205.0	72.0	2.5	/experiments/knapen_aot/videos/S_pexels-roman-odintsov-8232443.mp4	0.0	325.3153831958771	2.508358955383301
74	229.68204808235168	fix_post	2		12.0	72.0	2.5	/experiments/knapen_aot/videos/S_pexels-roman-odintsov-8232443.mp4	0.0	327.8237421512604	0.09996390342712402
75	229.7820119857788	fix_pre	0		76.0	73.0	2.5	/experiments/knapen_aot/videos/S_yt-158C6xUMi5Y_75.mp4	0.0	327.9237060546875	0.6347200870513916
75	230.40720105171204	response	0	2		73.0	2.5	/experiments/knapen_aot/videos/S_yt-158C6xUMi5Y_75.mp4	0.0	328.5488951206207	
75	230.4167320728302	movie	1		301.0	73.0	2.5	/experiments/knapen_aot/videos/S_yt-158C6xUMi5Y_75.mp4	0.0	328.5584261417389	2.506850004196167
75	232.92358207702637	fix_post	2		12.0	73.0	2.5	/experiments/knapen_aot/videos/S_yt-158C6xUMi5Y_75.mp4	0.0	331.06527614593506	0.10006403923034668
76	233.0236461162567	fix_pre	0		52.0	74.0	2.5	/experiments/knapen_aot/videos/S_ILSVRC2015_train_00450001.mp4	0.0	331.1653401851654	0.43465399742126465
76	233.44877004623413	response	0	2		74.0	2.5	/experiments/knapen_aot/videos/S_ILSVRC2015_train_00450001.mp4	0.0	331.5904641151428	
76	233.45830011367798	movie	1		301.0	74.0	2.5	/experiments/knapen_aot/videos/S_ILSVRC2015_train_00450001.mp4	0.0	331.59999418258667	2.5069448947906494
76	235.96524500846863	fix_post	2		12.0	74.0	2.5	/experiments/knapen_aot/videos/S_ILSVRC2015_train_00450001.mp4	0.0	334.1069390773773	0.10000300407409668
77	236.06524801254272	fix_pre	0		55.0	75.0	2.5	/experiments/knapen_aot/videos/R_S_yt-F1X_vq0Zioc_154.mp4	0.0	334.2069420814514	0.45832014083862305
77	236.50787591934204	response	0	2		75.0	2.5	/experiments/knapen_aot/videos/R_S_yt-F1X_vq0Zioc_154.mp4	0.0	334.64956998825073	
77	236.52356815338135	movie	1		301.0	75.0	2.5	/experiments/knapen_aot/videos/R_S_yt-F1X_vq0Zioc_154.mp4	0.0	334.66526222229004	2.508431911468506
77	239.03200006484985	fix_post	2		12.0	75.0	2.5	/experiments/knapen_aot/videos/R_S_yt-F1X_vq0Zioc_154.mp4	0.0	337.17369413375854	0.09999203681945801
78	239.1319921016693	fix_pre	0		57.0	76.0	2.5	/experiments/knapen_aot/videos/S_yt-fP2JRJAFGZ4_25.mp4	0.0	337.273686170578	0.4750239849090576
78	239.59877610206604	response	0	2		76.0	2.5	/experiments/knapen_aot/videos/S_yt-fP2JRJAFGZ4_25.mp4	0.0	337.74047017097473	
78	239.60701608657837	movie	1		301.0	76.0	2.5	/experiments/knapen_aot/videos/S_yt-fP2JRJAFGZ4_25.mp4	0.0	337.74871015548706	2.5082478523254395
78	242.1152639389038	fix_post	2		12.0	76.0	2.5	/experiments/knapen_aot/videos/S_yt-fP2JRJAFGZ4_25.mp4	0.0	340.2569580078125	0.09998202323913574
79	242.21524596214294	fix_pre	0		48.0	77.0	2.5	blank	1.0	340.35694003105164	0.4000091552734375
79	242.60706305503845	response	0	2		77.0	2.5	blank	1.0	340.74875712394714	
79	242.61525511741638	movie	1		301.0	77.0	2.5	blank	1.0	340.7569491863251	2.508291006088257
79	245.12354612350464	fix_post	2		12.0	77.0	2.5	blank	1.0	343.26524019241333	0.10003781318664551
80	245.22358393669128	fix_pre	0		72.0	78.0	2.5	/experiments/knapen_aot/videos/R_S_ILSVRC2015_train_00379000.mp4	0.0	343.3652780056	0.6000270843505859
80	245.81545495986938	response	0	2		78.0	2.5	/experiments/knapen_aot/videos/R_S_ILSVRC2015_train_00379000.mp4	0.0	343.9571490287781	
80	245.82361102104187	movie	1		301.0	78.0	2.5	/experiments/knapen_aot/videos/R_S_ILSVRC2015_train_00379000.mp4	0.0	343.96530508995056	2.5083110332489014
80	248.33192205429077	fix_post	2		12.0	78.0	2.5	/experiments/knapen_aot/videos/R_S_ILSVRC2015_train_00379000.mp4	0.0	346.47361612319946	0.09997010231018066
81	248.43189215660095	fix_pre	0		73.0	79.0	2.5	/experiments/knapen_aot/videos/R_S_ILSVRC2015_train_00497001.mp4	0.0	346.57358622550964	0.6083297729492188
81	249.03196215629578	response	0	2		79.0	2.5	/experiments/knapen_aot/videos/R_S_ILSVRC2015_train_00497001.mp4	0.0	347.17365622520447	
81	249.04022192955017	movie	1		301.0	79.0	2.5	/experiments/knapen_aot/videos/R_S_ILSVRC2015_train_00497001.mp4	0.0	347.18191599845886	2.5083420276641846
81	251.54856395721436	fix_post	2		12.0	79.0	2.5	/experiments/knapen_aot/videos/R_S_ILSVRC2015_train_00497001.mp4	0.0	349.69025802612305	0.09999704360961914
82	251.64856100082397	fix_pre	0		53.0	80.0	2.5	/experiments/knapen_aot/videos/S_ILSVRC2015_train_00411001.mp4	0.0	349.79025506973267	0.4416811466217041
82	252.082013130188	response	0	2		80.0	2.5	/experiments/knapen_aot/videos/S_ILSVRC2015_train_00411001.mp4	0.0	350.2237071990967	
82	252.09024214744568	movie	1		301.0	80.0	2.5	/experiments/knapen_aot/videos/S_ILSVRC2015_train_00411001.mp4	0.0	350.23193621635437	2.5083467960357666
82	254.59858894348145	fix_post	2		12.0	80.0	2.5	/experiments/knapen_aot/videos/S_ILSVRC2015_train_00411001.mp4	0.0	352.74028301239014	0.0999300479888916
83	254.69851899147034	fix_pre	0		52.0	81.0	2.5	/experiments/knapen_aot/videos/R_S_yt-074ygGXNoQ8_64.mp4	0.0	352.840213060379	0.4333820343017578
83	255.1237211227417	response	0	2		81.0	2.5	/experiments/knapen_aot/videos/R_S_yt-074ygGXNoQ8_64.mp4	0.0	353.2654151916504	
83	255.1319010257721	movie	1		301.0	81.0	2.5	/experiments/knapen_aot/videos/R_S_yt-074ygGXNoQ8_64.mp4	0.0	353.2735950946808	2.5083580017089844
83	257.6402590274811	fix_post	2		12.0	81.0	2.5	/experiments/knapen_aot/videos/R_S_yt-074ygGXNoQ8_64.mp4	0.0	355.78195309638977	0.09999704360961914
84	257.7402560710907	fix_pre	0		62.0	82.0	2.5	/experiments/knapen_aot/videos/S_yt-cjndulbUtRc_51.mp4	0.0	355.8819501399994	0.516636848449707
84	258.2486569881439	response	0	2		82.0	2.5	/experiments/knapen_aot/videos/S_yt-cjndulbUtRc_51.mp4	0.0	356.3903510570526	
84	258.2568929195404	movie	1		301.0	82.0	2.5	/experiments/knapen_aot/videos/S_yt-cjndulbUtRc_51.mp4	0.0	356.3985869884491	2.5083041191101074
84	260.7651970386505	fix_post	2		12.0	82.0	2.5	/experiments/knapen_aot/videos/S_yt-cjndulbUtRc_51.mp4	0.0	358.9068911075592	0.10005688667297363
85	260.8652539253235	fix_pre	0		57.0	83.0	2.5	blank	1.0	359.0069479942322	0.47491908073425293
85	261.33200097084045	response	0	2		83.0	2.5	blank	1.0	359.47369503974915	
85	261.34017300605774	movie	1		301.0	83.0	2.5	blank	1.0	359.48186707496643	2.5083160400390625
85	263.8484890460968	fix_post	2		12.0	83.0	2.5	blank	1.0	361.9901831150055	0.09992599487304688
87	263.94841504096985	stim	0		395.0					362.09010910987854	3.2943921089172363
87	267.23548007011414	response	0	space						365.3771741390228	
