trial_nr	onset	event_type	phase	response	nr_frames	movie_index	movie_duration	movie_file	blank	onset_abs	duration
0	0.1553490161895752	stim	0		64.0					259.123507976532	0.5334010124206543
0	0.6806790828704834	response	0	space						259.6488380432129	
1	0.6887500286102295	stim	0		121.0					259.65690898895264	1.0080461502075195
1	1.588515043258667	response	0	space						260.5566740036011	
1	1.696796178817749	stim	1		120.0					260.66495513916016	0.9999418258666992
1	2.305148124694824	response	1	space						261.27330708503723	
2	2.6967380046844482	fix_pre	0		37.0	0.0	2.5	/experiments/knapen_aot/videos/R_S_yt-gMqeZkpA_1Q_61.mp4	0.0	261.66489696502686	0.3098440170288086
2	2.9969100952148438	response	0	space		0.0	2.5	/experiments/knapen_aot/videos/R_S_yt-gMqeZkpA_1Q_61.mp4	0.0	261.96506905555725	
2	3.006582021713257	movie	1		301.0	0.0	2.5	/experiments/knapen_aot/videos/R_S_yt-gMqeZkpA_1Q_61.mp4	0.0	261.97474098205566	2.506829023361206
2	5.513411045074463	fix_post	2		12.0	0.0	2.5	/experiments/knapen_aot/videos/R_S_yt-gMqeZkpA_1Q_61.mp4	0.0	264.48157000541687	0.099884033203125
3	5.613295078277588	fix_pre	0		34.0	1.0	2.5	/experiments/knapen_aot/videos/S_yt-npaE4fe6A6Y_26.mp4	0.0	264.58145403862	0.2890489101409912
3	5.893939971923828	response	0	4		1.0	2.5	/experiments/knapen_aot/videos/S_yt-npaE4fe6A6Y_26.mp4	0.0	264.86209893226624	
3	5.902343988418579	movie	1		301.0	1.0	2.5	/experiments/knapen_aot/videos/S_yt-npaE4fe6A6Y_26.mp4	0.0	264.870502948761	2.502657175064087
3	8.405001163482666	fix_post	2		12.0	1.0	2.5	/experiments/knapen_aot/videos/S_yt-npaE4fe6A6Y_26.mp4	0.0	267.3731601238251	0.10000085830688477
4	8.50500202178955	fix_pre	0		19.0	2.0	2.5	/experiments/knapen_aot/videos/R_S_pexels-tima-miroshnichenko-5717005.mp4	0.0	267.47316098213196	0.15835309028625488
4	8.655070066452026	response	0	4		2.0	2.5	/experiments/knapen_aot/videos/R_S_pexels-tima-miroshnichenko-5717005.mp4	0.0	267.62322902679443	
4	8.663355112075806	movie	1		169.0	2.0	2.5	/experiments/knapen_aot/videos/R_S_pexels-tima-miroshnichenko-5717005.mp4	0.0	267.6315140724182	2.508352041244507
4	11.171707153320312	fix_post	2		12.0	2.0	2.5	/experiments/knapen_aot/videos/R_S_pexels-tima-miroshnichenko-5717005.mp4	0.0	270.1398661136627	0.09996986389160156
5	11.271677017211914	fix_pre	0		27.0	3.0	2.5	/experiments/knapen_aot/videos/S_yt-M5qZo3CUXYE_27.mp4	0.0	270.2398359775543	0.22486114501953125
5	11.48849606513977	response	0	4		3.0	2.5	/experiments/knapen_aot/videos/S_yt-M5qZo3CUXYE_27.mp4	0.0	270.4566550254822	
5	11.496538162231445	movie	1		301.0	3.0	2.5	/experiments/knapen_aot/videos/S_yt-M5qZo3CUXYE_27.mp4	0.0	270.46469712257385	2.508500814437866
5	14.005038976669312	fix_post	2		12.0	3.0	2.5	/experiments/knapen_aot/videos/S_yt-M5qZo3CUXYE_27.mp4	0.0	272.9731979370117	0.09997916221618652
6	14.105018138885498	fix_pre	0		31.0	4.0	2.5	/experiments/knapen_aot/videos/R_S_yt-06XMUn9DTKc_35.mp4	0.0	273.0731770992279	0.2583038806915283
6	14.355164051055908	response	0	4		4.0	2.5	/experiments/knapen_aot/videos/R_S_yt-06XMUn9DTKc_35.mp4	0.0	273.3233230113983	
6	14.363322019577026	movie	1		300.0	4.0	2.5	/experiments/knapen_aot/videos/R_S_yt-06XMUn9DTKc_35.mp4	0.0	273.33148097991943	2.5083611011505127
6	16.87168312072754	fix_post	2		12.0	4.0	2.5	/experiments/knapen_aot/videos/R_S_yt-06XMUn9DTKc_35.mp4	0.0	275.83984208106995	0.10004901885986328
7	16.971732139587402	fix_pre	0		13.0	5.0	2.5	/experiments/knapen_aot/videos/R_S_yt-PreGL81PEP4_61.mp4	0.0	275.9398910999298	0.1082308292388916
7	17.07178497314453	response	0	4		5.0	2.5	/experiments/knapen_aot/videos/R_S_yt-PreGL81PEP4_61.mp4	0.0	276.03994393348694	
7	17.079962968826294	movie	1		301.0	5.0	2.5	/experiments/knapen_aot/videos/R_S_yt-PreGL81PEP4_61.mp4	0.0	276.0481219291687	2.5082361698150635
7	19.588199138641357	fix_post	2		12.0	5.0	2.5	/experiments/knapen_aot/videos/R_S_yt-PreGL81PEP4_61.mp4	0.0	278.55635809898376	0.10006403923034668
8	19.688263177871704	fix_pre	0		24.0	6.0	2.5	blank	1.0	278.6564221382141	0.20004796981811523
8	19.879975080490112	response	0	4		6.0	2.5	blank	1.0	278.8481340408325	
8	19.88831114768982	movie	1		301.0	6.0	2.5	blank	1.0	278.8564701080322	2.5082828998565674
8	22.396594047546387	fix_post	2		12.0	6.0	2.5	blank	1.0	281.3647530078888	0.10002303123474121
9	22.496617078781128	fix_pre	0		187.0	7.0	2.5	/experiments/knapen_aot/videos/S_yt--DXkjCUzThU_413.mp4	0.0	281.46477603912354	1.5583069324493408
9	24.046723127365112	response	0	4		7.0	2.5	/experiments/knapen_aot/videos/S_yt--DXkjCUzThU_413.mp4	0.0	283.0148820877075	
9	24.05492401123047	movie	1		301.0	7.0	2.5	/experiments/knapen_aot/videos/S_yt--DXkjCUzThU_413.mp4	0.0	283.0230829715729	2.5083279609680176
9	26.563251972198486	fix_post	2		12.0	7.0	2.5	/experiments/knapen_aot/videos/S_yt--DXkjCUzThU_413.mp4	0.0	285.5314109325409	0.09995317459106445
10	26.66320514678955	fix_pre	0		95.0	8.0	2.5	/experiments/knapen_aot/videos/R_S_yt-O6FS0xnF0CU_106.mp4	0.0	285.63136410713196	0.7916648387908936
10	27.446645975112915	response	0	4		8.0	2.5	/experiments/knapen_aot/videos/R_S_yt-O6FS0xnF0CU_106.mp4	0.0	286.4148049354553	
10	27.454869985580444	movie	1		301.0	8.0	2.5	/experiments/knapen_aot/videos/R_S_yt-O6FS0xnF0CU_106.mp4	0.0	286.42302894592285	2.5084011554718018
10	29.963271141052246	fix_post	2		12.0	8.0	2.5	/experiments/knapen_aot/videos/R_S_yt-O6FS0xnF0CU_106.mp4	0.0	288.93143010139465	0.10000801086425781
11	30.063279151916504	fix_pre	0		155.0	9.0	2.5	/experiments/knapen_aot/videos/R_S_pexels-rodnae-productions-5993671.mp4	0.0	289.0314381122589	1.2916359901428223
11	31.34674596786499	response	0	4		9.0	2.5	/experiments/knapen_aot/videos/R_S_pexels-rodnae-productions-5993671.mp4	0.0	290.3149049282074	
11	31.354915142059326	movie	1		163.0	9.0	2.5	/experiments/knapen_aot/videos/R_S_pexels-rodnae-productions-5993671.mp4	0.0	290.32307410240173	2.50834584236145
11	33.863260984420776	fix_post	2		12.0	9.0	2.5	/experiments/knapen_aot/videos/R_S_pexels-rodnae-productions-5993671.mp4	0.0	292.8314199447632	0.10000801086425781
12	33.963268995285034	fix_pre	0		53.0	10.0	2.5	/experiments/knapen_aot/videos/R_S_ILSVRC2015_train_00074011.mp4	0.0	292.93142795562744	0.4416210651397705
12	34.3966600894928	response	0	4		10.0	2.5	/experiments/knapen_aot/videos/R_S_ILSVRC2015_train_00074011.mp4	0.0	293.3648190498352	
12	34.404890060424805	movie	1		301.0	10.0	2.5	/experiments/knapen_aot/videos/R_S_ILSVRC2015_train_00074011.mp4	0.0	293.3730490207672	2.5083649158477783
12	36.91325497627258	fix_post	2		12.0	10.0	2.5	/experiments/knapen_aot/videos/R_S_ILSVRC2015_train_00074011.mp4	0.0	295.881413936615	0.10005497932434082
13	37.013309955596924	fix_pre	0		199.0	11.0	2.5	/experiments/knapen_aot/videos/S_yt-lADkWM79teI_18.mp4	0.0	295.98146891593933	1.6595590114593506
13	38.663392066955566	response	0	4		11.0	2.5	/experiments/knapen_aot/videos/S_yt-lADkWM79teI_18.mp4	0.0	297.631551027298	
13	38.672868967056274	movie	1		301.0	11.0	2.5	/experiments/knapen_aot/videos/S_yt-lADkWM79teI_18.mp4	0.0	297.6410279273987	2.507066011428833
13	41.17993497848511	fix_post	2		12.0	11.0	2.5	/experiments/knapen_aot/videos/S_yt-lADkWM79teI_18.mp4	0.0	300.1480939388275	0.09994316101074219
14	41.27987813949585	fix_pre	0		154.0	12.0	2.5	/experiments/knapen_aot/videos/S_yt-hvuC_2YXsTQ_159.mp4	0.0	300.24803709983826	1.2833378314971924
14	42.55506110191345	response	0	4		12.0	2.5	/experiments/knapen_aot/videos/S_yt-hvuC_2YXsTQ_159.mp4	0.0	301.52322006225586	
14	42.56321597099304	movie	1		301.0	12.0	2.5	/experiments/knapen_aot/videos/S_yt-hvuC_2YXsTQ_159.mp4	0.0	301.53137493133545	2.50833797454834
14	45.07155394554138	fix_post	2		12.0	12.0	2.5	/experiments/knapen_aot/videos/S_yt-hvuC_2YXsTQ_159.mp4	0.0	304.0397129058838	0.09995102882385254
15	45.171504974365234	fix_pre	0		349.0	13.0	2.5	blank	1.0	304.13966393470764	2.9083361625671387
15	48.071624994277954	response	0	4		13.0	2.5	blank	1.0	307.03978395462036	
15	48.07984113693237	movie	1		301.0	13.0	2.5	blank	1.0	307.0480000972748	2.5083489418029785
15	50.58819007873535	fix_post	2		12.0	13.0	2.5	blank	1.0	309.55634903907776	0.09998703002929688
16	50.68817710876465	fix_pre	0		179.0	14.0	2.5	/experiments/knapen_aot/videos/S_pexels-pavel-danilyuk-8057714.mp4	0.0	309.65633606910706	1.4916529655456543
16	52.17164611816406	response	0	4		14.0	2.5	/experiments/knapen_aot/videos/S_pexels-pavel-danilyuk-8057714.mp4	0.0	311.13980507850647	
16	52.1798300743103	movie	1		163.0	14.0	2.5	/experiments/knapen_aot/videos/S_pexels-pavel-danilyuk-8057714.mp4	0.0	311.1479890346527	2.508347988128662
16	54.688178062438965	fix_post	2		12.0	14.0	2.5	/experiments/knapen_aot/videos/S_pexels-pavel-danilyuk-8057714.mp4	0.0	313.6563370227814	0.09999203681945801
17	54.78817009925842	fix_pre	0		151.0	15.0	2.5	/experiments/knapen_aot/videos/R_S_yt-Iu2ZPHLqXuY_32.mp4	0.0	313.75632905960083	1.2582519054412842
17	56.03815412521362	response	0	4		15.0	2.5	/experiments/knapen_aot/videos/R_S_yt-Iu2ZPHLqXuY_32.mp4	0.0	315.00631308555603	
17	56.04642200469971	movie	1		301.0	15.0	2.5	/experiments/knapen_aot/videos/R_S_yt-Iu2ZPHLqXuY_32.mp4	0.0	315.0145809650421	2.5083820819854736
17	58.55480408668518	fix_post	2		12.0	15.0	2.5	/experiments/knapen_aot/videos/R_S_yt-Iu2ZPHLqXuY_32.mp4	0.0	317.5229630470276	0.09999489784240723
18	58.65479898452759	fix_pre	0		22.0	16.0	2.5	/experiments/knapen_aot/videos/R_S_production_ID_5144823.mp4	0.0	317.62295794487	0.18455004692077637
18	58.8298921585083	response	0	4		16.0	2.5	/experiments/knapen_aot/videos/R_S_production_ID_5144823.mp4	0.0	317.7980511188507	
18	58.839349031448364	movie	1		165.0	16.0	2.5	/experiments/knapen_aot/videos/R_S_production_ID_5144823.mp4	0.0	317.80750799179077	2.5070769786834717
18	61.346426010131836	fix_post	2		12.0	16.0	2.5	/experiments/knapen_aot/videos/R_S_production_ID_5144823.mp4	0.0	320.31458497047424	0.100006103515625
19	61.44643211364746	fix_pre	0		21.0	17.0	2.5	/experiments/knapen_aot/videos/R_S_ILSVRC2015_train_00369002.mp4	0.0	320.41459107398987	0.17500090599060059
19	61.61322808265686	response	0	4		17.0	2.5	/experiments/knapen_aot/videos/R_S_ILSVRC2015_train_00369002.mp4	0.0	320.58138704299927	
19	61.62143301963806	movie	1		301.0	17.0	2.5	/experiments/knapen_aot/videos/R_S_ILSVRC2015_train_00369002.mp4	0.0	320.58959197998047	2.5082690715789795
19	64.12970209121704	fix_post	2		12.0	17.0	2.5	/experiments/knapen_aot/videos/R_S_ILSVRC2015_train_00369002.mp4	0.0	323.09786105155945	0.09997701644897461
20	64.22967910766602	fix_pre	0		205.0	18.0	2.5	/experiments/knapen_aot/videos/R_S_ILSVRC2015_train_00369002.mp4	0.0	323.1978380680084	1.7083518505096436
20	65.92987108230591	response	0	4		18.0	2.5	/experiments/knapen_aot/videos/R_S_ILSVRC2015_train_00369002.mp4	0.0	324.8980300426483	
20	65.93803095817566	movie	1		301.0	18.0	2.5	/experiments/knapen_aot/videos/R_S_ILSVRC2015_train_00369002.mp4	0.0	324.90618991851807	2.5083651542663574
20	68.44639611244202	fix_post	2		12.0	18.0	2.5	/experiments/knapen_aot/videos/R_S_ILSVRC2015_train_00369002.mp4	0.0	327.4145550727844	0.09997987747192383
21	68.54637598991394	fix_pre	0		241.0	19.0	2.5	/experiments/knapen_aot/videos/S_yt-sGckFFOLO30_164.mp4	0.0	327.51453495025635	2.0083041191101074
21	70.54662609100342	response	0	4		19.0	2.5	/experiments/knapen_aot/videos/S_yt-sGckFFOLO30_164.mp4	0.0	329.5147850513458	
21	70.55468010902405	movie	1		301.0	19.0	2.5	/experiments/knapen_aot/videos/S_yt-sGckFFOLO30_164.mp4	0.0	329.52283906936646	2.5084228515625
21	73.06310296058655	fix_post	2		12.0	19.0	2.5	/experiments/knapen_aot/videos/S_yt-sGckFFOLO30_164.mp4	0.0	332.03126192092896	0.0999760627746582
22	73.1630790233612	fix_pre	0		42.0	20.0	2.5	blank	1.0	332.1312379837036	0.3499441146850586
22	73.50481605529785	response	0	4		20.0	2.5	blank	1.0	332.47297501564026	
22	73.51302313804626	movie	1		301.0	20.0	2.5	blank	1.0	332.4811820983887	2.5083138942718506
22	76.02133703231812	fix_post	2		12.0	20.0	2.5	blank	1.0	334.9894959926605	0.09996914863586426
23	76.12130618095398	fix_pre	0		42.0	21.0	2.5	/experiments/knapen_aot/videos/R_S_yt-IC62JSYpq9w_71.mp4	0.0	335.0894651412964	0.3500359058380127
23	76.45581912994385	response	0	4		21.0	2.5	/experiments/knapen_aot/videos/R_S_yt-IC62JSYpq9w_71.mp4	0.0	335.42397809028625	
23	76.47134208679199	movie	1		301.0	21.0	2.5	/experiments/knapen_aot/videos/R_S_yt-IC62JSYpq9w_71.mp4	0.0	335.4395010471344	2.5083248615264893
23	78.97966694831848	fix_post	2		12.0	21.0	2.5	/experiments/knapen_aot/videos/R_S_yt-IC62JSYpq9w_71.mp4	0.0	337.9478259086609	0.1002051830291748
24	79.07987213134766	fix_pre	0		35.0	22.0	2.5	/experiments/knapen_aot/videos/R_S_yt-8vm83GUgYxI_1.mp4	0.0	338.04803109169006	0.2914118766784668
24	79.36333894729614	response	0	4		22.0	2.5	/experiments/knapen_aot/videos/R_S_yt-8vm83GUgYxI_1.mp4	0.0	338.33149790763855	
24	79.37128400802612	movie	1		301.0	22.0	2.5	/experiments/knapen_aot/videos/R_S_yt-8vm83GUgYxI_1.mp4	0.0	338.33944296836853	2.5083911418914795
24	81.8796751499176	fix_post	2		12.0	22.0	2.5	/experiments/knapen_aot/videos/R_S_yt-8vm83GUgYxI_1.mp4	0.0	340.84783411026	0.09997081756591797
25	81.97964596748352	fix_pre	0		28.0	23.0	2.5	/experiments/knapen_aot/videos/R_S_ILSVRC2015_train_00485001.mp4	0.0	340.9478049278259	0.2345750331878662
25	82.20478200912476	response	0	4		23.0	2.5	/experiments/knapen_aot/videos/R_S_ILSVRC2015_train_00485001.mp4	0.0	341.17294096946716	
25	82.21422100067139	movie	1		301.0	23.0	2.5	/experiments/knapen_aot/videos/R_S_ILSVRC2015_train_00485001.mp4	0.0	341.1823799610138	2.5071210861206055
25	84.72134208679199	fix_post	2		12.0	23.0	2.5	/experiments/knapen_aot/videos/R_S_ILSVRC2015_train_00485001.mp4	0.0	343.6895010471344	0.09997296333312988
26	84.82131505012512	fix_pre	0		196.0	24.0	2.5	/experiments/knapen_aot/videos/R_S_ILSVRC2015_train_00704000.mp4	0.0	343.78947401046753	1.6332859992980957
26	86.44647407531738	response	0	4		24.0	2.5	/experiments/knapen_aot/videos/R_S_ILSVRC2015_train_00704000.mp4	0.0	345.4146330356598	
26	86.45460104942322	movie	1		301.0	24.0	2.5	/experiments/knapen_aot/videos/R_S_ILSVRC2015_train_00704000.mp4	0.0	345.4227600097656	2.5083789825439453
26	88.96298003196716	fix_post	2		12.0	24.0	2.5	/experiments/knapen_aot/videos/R_S_ILSVRC2015_train_00704000.mp4	0.0	347.93113899230957	0.10000395774841309
27	89.06298398971558	fix_pre	0		37.0	25.0	2.5	/experiments/knapen_aot/videos/R_S_ILSVRC2015_train_00042003.mp4	0.0	348.031142950058	0.30833005905151367
27	89.3630850315094	response	0	4		25.0	2.5	/experiments/knapen_aot/videos/R_S_ILSVRC2015_train_00042003.mp4	0.0	348.3312439918518	
27	89.37131404876709	movie	1		301.0	25.0	2.5	/experiments/knapen_aot/videos/R_S_ILSVRC2015_train_00042003.mp4	0.0	348.3394730091095	2.508312940597534
27	91.87962698936462	fix_post	2		12.0	25.0	2.5	/experiments/knapen_aot/videos/R_S_ILSVRC2015_train_00042003.mp4	0.0	350.84778594970703	0.09999299049377441
28	91.9796199798584	fix_pre	0		122.0	26.0	2.5	/experiments/knapen_aot/videos/S_yt-0buqUbXVTn8_48.mp4	0.0	350.9477789402008	1.0166430473327637
28	92.9880781173706	response	0	4		26.0	2.5	/experiments/knapen_aot/videos/S_yt-0buqUbXVTn8_48.mp4	0.0	351.956237077713	
28	92.99626302719116	movie	1		301.0	26.0	2.5	/experiments/knapen_aot/videos/S_yt-0buqUbXVTn8_48.mp4	0.0	351.96442198753357	2.5083580017089844
28	95.50462102890015	fix_post	2		12.0	26.0	2.5	/experiments/knapen_aot/videos/S_yt-0buqUbXVTn8_48.mp4	0.0	354.47277998924255	0.09999299049377441
29	95.60461401939392	fix_pre	0		53.0	27.0	2.5	blank	1.0	354.5727729797363	0.4416379928588867
29	96.03804898262024	response	0	4		27.0	2.5	blank	1.0	355.00620794296265	
29	96.04625201225281	movie	1		301.0	27.0	2.5	blank	1.0	355.0144109725952	2.5083820819854736
29	98.55463409423828	fix_post	2		12.0	27.0	2.5	blank	1.0	357.5227930545807	0.1000220775604248
30	98.6546561717987	fix_pre	0		41.0	28.0	2.5	/experiments/knapen_aot/videos/S_yt-qiPhBL4lBr0_44.mp4	0.0	357.6228151321411	0.3415977954864502
30	98.98810005187988	response	0	4		28.0	2.5	/experiments/knapen_aot/videos/S_yt-qiPhBL4lBr0_44.mp4	0.0	357.9562590122223	
30	98.99625396728516	movie	1		301.0	28.0	2.5	/experiments/knapen_aot/videos/S_yt-qiPhBL4lBr0_44.mp4	0.0	357.96441292762756	2.5083250999450684
30	101.50457906723022	fix_post	2		12.0	28.0	2.5	/experiments/knapen_aot/videos/S_yt-qiPhBL4lBr0_44.mp4	0.0	360.47273802757263	0.10005903244018555
31	101.60463809967041	fix_pre	0		51.0	29.0	2.5	/experiments/knapen_aot/videos/R_S_ILSVRC2015_train_00515000.mp4	0.0	360.5727970600128	0.42500996589660645
31	102.02143096923828	response	0	4		29.0	2.5	/experiments/knapen_aot/videos/R_S_ILSVRC2015_train_00515000.mp4	0.0	360.9895899295807	
31	102.02964806556702	movie	1		301.0	29.0	2.5	/experiments/knapen_aot/videos/R_S_ILSVRC2015_train_00515000.mp4	0.0	360.9978070259094	2.508305072784424
31	104.53795313835144	fix_post	2		12.0	29.0	2.5	/experiments/knapen_aot/videos/R_S_ILSVRC2015_train_00515000.mp4	0.0	363.50611209869385	0.10000991821289062
32	104.63796305656433	fix_pre	0		57.0	30.0	2.5	/experiments/knapen_aot/videos/R_S_ILSVRC2015_train_00704000.mp4	0.0	363.60612201690674	0.474963903427124
32	105.10476613044739	response	0	4		30.0	2.5	/experiments/knapen_aot/videos/R_S_ILSVRC2015_train_00704000.mp4	0.0	364.0729250907898	
32	105.11292695999146	movie	1		301.0	30.0	2.5	/experiments/knapen_aot/videos/R_S_ILSVRC2015_train_00704000.mp4	0.0	364.08108592033386	2.508362054824829
32	107.62128901481628	fix_post	2		12.0	30.0	2.5	/experiments/knapen_aot/videos/R_S_ILSVRC2015_train_00704000.mp4	0.0	366.5894479751587	0.09994101524353027
33	107.72123003005981	fix_pre	0		255.0	31.0	2.5	/experiments/knapen_aot/videos/S_yt-Dwgpjoikt84_71.mp4	0.0	366.6893889904022	2.124948024749756
33	109.83800411224365	response	0	4		31.0	2.5	/experiments/knapen_aot/videos/S_yt-Dwgpjoikt84_71.mp4	0.0	368.80616307258606	
33	109.84617805480957	movie	1		301.0	31.0	2.5	/experiments/knapen_aot/videos/S_yt-Dwgpjoikt84_71.mp4	0.0	368.814337015152	2.5083489418029785
33	112.35452699661255	fix_post	2		12.0	31.0	2.5	/experiments/knapen_aot/videos/S_yt-Dwgpjoikt84_71.mp4	0.0	371.32268595695496	0.10004305839538574
34	112.45457005500793	fix_pre	0		36.0	32.0	2.5	/experiments/knapen_aot/videos/S_yt-X6ivH9SqGu8_306.mp4	0.0	371.42272901535034	0.3009219169616699
34	112.74637913703918	response	0	4		32.0	2.5	/experiments/knapen_aot/videos/S_yt-X6ivH9SqGu8_306.mp4	0.0	371.7145380973816	
34	112.7554919719696	movie	1		301.0	32.0	2.5	/experiments/knapen_aot/videos/S_yt-X6ivH9SqGu8_306.mp4	0.0	371.723650932312	2.5074851512908936
34	115.2629771232605	fix_post	2		12.0	32.0	2.5	/experiments/knapen_aot/videos/S_yt-X6ivH9SqGu8_306.mp4	0.0	374.2311360836029	0.09991002082824707
35	115.36288714408875	fix_pre	0		235.0	33.0	2.5	/experiments/knapen_aot/videos/S_comp_A006_C003_1219EE_CC_v01_SDR_PS_FINAL_20180709_SDR_2K_AVC.mp4	0.0	374.33104610443115	1.9582819938659668
35	117.31302905082703	response	0	4		33.0	2.5	/experiments/knapen_aot/videos/S_comp_A006_C003_1219EE_CC_v01_SDR_PS_FINAL_20180709_SDR_2K_AVC.mp4	0.0	376.28118801116943	
35	117.32116913795471	movie	1		165.0	33.0	2.5	/experiments/knapen_aot/videos/S_comp_A006_C003_1219EE_CC_v01_SDR_PS_FINAL_20180709_SDR_2K_AVC.mp4	0.0	376.2893280982971	2.5084128379821777
35	119.82958197593689	fix_post	2		12.0	33.0	2.5	/experiments/knapen_aot/videos/S_comp_A006_C003_1219EE_CC_v01_SDR_PS_FINAL_20180709_SDR_2K_AVC.mp4	0.0	378.7977409362793	0.09996509552001953
36	119.92954707145691	fix_pre	0		27.0	34.0	2.5	/experiments/knapen_aot/videos/S_yt-I2n2eo2zoZs_112.mp4	0.0	378.8977060317993	0.22495603561401367
36	120.14632201194763	response	0	4		34.0	2.5	/experiments/knapen_aot/videos/S_yt-I2n2eo2zoZs_112.mp4	0.0	379.11448097229004	
36	120.15450310707092	movie	1		301.0	34.0	2.5	/experiments/knapen_aot/videos/S_yt-I2n2eo2zoZs_112.mp4	0.0	379.12266206741333	2.5083630084991455
36	122.66286611557007	fix_post	2		12.0	34.0	2.5	/experiments/knapen_aot/videos/S_yt-I2n2eo2zoZs_112.mp4	0.0	381.6310250759125	0.09998893737792969
37	122.762855052948	fix_pre	0		54.0	35.0	2.5	blank	1.0	381.7310140132904	0.4509000778198242
37	123.20463800430298	response	0	4		35.0	2.5	blank	1.0	382.1727969646454	
37	123.21375513076782	movie	1		301.0	35.0	2.5	blank	1.0	382.18191409111023	2.507369041442871
37	125.7211241722107	fix_post	2		12.0	35.0	2.5	blank	1.0	384.6892831325531	0.1000669002532959
38	125.82119107246399	fix_pre	0		44.0	36.0	2.5	/experiments/knapen_aot/videos/S_FZ0hLmjCR0s_26.mp4	0.0	384.7893500328064	0.3666191101074219
38	126.17962217330933	response	0	4		36.0	2.5	/experiments/knapen_aot/videos/S_FZ0hLmjCR0s_26.mp4	0.0	385.14778113365173	
38	126.18781018257141	movie	1		300.0	36.0	2.5	/experiments/knapen_aot/videos/S_FZ0hLmjCR0s_26.mp4	0.0	385.1559691429138	2.5083978176116943
38	128.6962080001831	fix_post	2		12.0	36.0	2.5	/experiments/knapen_aot/videos/S_FZ0hLmjCR0s_26.mp4	0.0	387.6643669605255	0.09995508193969727
39	128.7961630821228	fix_pre	0		24.0	37.0	2.5	/experiments/knapen_aot/videos/S_ILSVRC2015_train_00394000.mp4	0.0	387.7643220424652	0.19990897178649902
39	128.98034596443176	response	0	4		37.0	2.5	/experiments/knapen_aot/videos/S_ILSVRC2015_train_00394000.mp4	0.0	387.94850492477417	
39	128.9960720539093	movie	1		301.0	37.0	2.5	/experiments/knapen_aot/videos/S_ILSVRC2015_train_00394000.mp4	0.0	387.9642310142517	2.5083909034729004
39	131.5044629573822	fix_post	2		12.0	37.0	2.5	/experiments/knapen_aot/videos/S_ILSVRC2015_train_00394000.mp4	0.0	390.4726219177246	0.09999608993530273
40	131.6044590473175	fix_pre	0		23.0	38.0	2.5	/experiments/knapen_aot/videos/R_S_yt-14tjqjjjAEI_15.mp4	0.0	390.5726180076599	0.19252991676330566
40	131.78793597221375	response	0	4		38.0	2.5	/experiments/knapen_aot/videos/R_S_yt-14tjqjjjAEI_15.mp4	0.0	390.75609493255615	
40	131.7969889640808	movie	1		301.0	38.0	2.5	/experiments/knapen_aot/videos/R_S_yt-14tjqjjjAEI_15.mp4	0.0	390.7651479244232	2.507420063018799
40	134.3044090270996	fix_post	2		12.0	38.0	2.5	/experiments/knapen_aot/videos/R_S_yt-14tjqjjjAEI_15.mp4	0.0	393.272567987442	0.10002899169921875
41	134.40443801879883	fix_pre	0		12.0	39.0	2.5	/experiments/knapen_aot/videos/S_yt-wIZprsJwxBM_298.mp4	0.0	393.37259697914124	0.10083198547363281
41	134.49630999565125	response	0	4		39.0	2.5	/experiments/knapen_aot/videos/S_yt-wIZprsJwxBM_298.mp4	0.0	393.46446895599365	
41	134.50527000427246	movie	1		301.0	39.0	2.5	/experiments/knapen_aot/videos/S_yt-wIZprsJwxBM_298.mp4	0.0	393.47342896461487	2.5074691772460938
41	137.01273918151855	fix_post	2		12.0	39.0	2.5	/experiments/knapen_aot/videos/S_yt-wIZprsJwxBM_298.mp4	0.0	395.98089814186096	0.09999799728393555
42	137.1127371788025	fix_pre	0		286.0	40.0	2.5	/experiments/knapen_aot/videos/R_S_ILSVRC2015_train_00485001.mp4	0.0	396.0808961391449	2.3832428455352783
42	139.48790907859802	response	0	4		40.0	2.5	/experiments/knapen_aot/videos/R_S_ILSVRC2015_train_00485001.mp4	0.0	398.45606803894043	
42	139.49598002433777	movie	1		301.0	40.0	2.5	/experiments/knapen_aot/videos/R_S_ILSVRC2015_train_00485001.mp4	0.0	398.4641389846802	2.508392095565796
42	142.00437211990356	fix_post	2		12.0	40.0	2.5	/experiments/knapen_aot/videos/R_S_ILSVRC2015_train_00485001.mp4	0.0	400.972531080246	0.1000208854675293
43	142.1043930053711	fix_pre	0		37.0	41.0	2.5	blank	1.0	401.0725519657135	0.30829715728759766
43	142.3970911502838	response	0	4		41.0	2.5	blank	1.0	401.3652501106262	
43	142.4126901626587	movie	1		301.0	41.0	2.5	blank	1.0	401.3808491230011	2.5083439350128174
43	144.9210340976715	fix_post	2		12.0	41.0	2.5	blank	1.0	403.8891930580139	0.09996700286865234
44	145.02100110054016	fix_pre	0		101.0	42.0	2.5	/experiments/knapen_aot/videos/R_S_pexels-cottonbro-10639398.mp4	0.0	403.98916006088257	0.8417079448699951
44	145.8544671535492	response	0	4		42.0	2.5	/experiments/knapen_aot/videos/R_S_pexels-cottonbro-10639398.mp4	0.0	404.8226261138916	
44	145.86270904541016	movie	1		185.0	42.0	2.5	/experiments/knapen_aot/videos/R_S_pexels-cottonbro-10639398.mp4	0.0	404.83086800575256	2.5083060264587402
44	148.3710150718689	fix_post	2		12.0	42.0	2.5	/experiments/knapen_aot/videos/R_S_pexels-cottonbro-10639398.mp4	0.0	407.3391740322113	0.10001301765441895
45	148.47102808952332	fix_pre	0		26.0	43.0	2.5	/experiments/knapen_aot/videos/S_yt-vacON8rxZaI_168.mp4	0.0	407.4391870498657	0.21663403511047363
45	148.67941904067993	response	0	4		43.0	2.5	/experiments/knapen_aot/videos/S_yt-vacON8rxZaI_168.mp4	0.0	407.64757800102234	
45	148.6876621246338	movie	1		301.0	43.0	2.5	/experiments/knapen_aot/videos/S_yt-vacON8rxZaI_168.mp4	0.0	407.6558210849762	2.508323907852173
45	151.19598603248596	fix_post	2		12.0	43.0	2.5	/experiments/knapen_aot/videos/S_yt-vacON8rxZaI_168.mp4	0.0	410.16414499282837	0.10007500648498535
46	151.29606103897095	fix_pre	0		261.0	44.0	2.5	/experiments/knapen_aot/videos/R_S_yt-fCjjH_4i8Fg_115.mp4	0.0	410.26421999931335	2.1748979091644287
46	153.46284914016724	response	0	4		44.0	2.5	/experiments/knapen_aot/videos/R_S_yt-fCjjH_4i8Fg_115.mp4	0.0	412.43100810050964	
46	153.47095894813538	movie	1		301.0	44.0	2.5	/experiments/knapen_aot/videos/R_S_yt-fCjjH_4i8Fg_115.mp4	0.0	412.4391179084778	2.50842022895813
46	155.9793791770935	fix_post	2		12.0	44.0	2.5	/experiments/knapen_aot/videos/R_S_yt-fCjjH_4i8Fg_115.mp4	0.0	414.9475381374359	0.09993290901184082
47	156.07931208610535	fix_pre	0		29.0	45.0	2.5	/experiments/knapen_aot/videos/R_S_yt-lGQ3wMI5-Yg_140.mp4	0.0	415.04747104644775	0.2416679859161377
47	156.31282806396484	response	0	4		45.0	2.5	/experiments/knapen_aot/videos/R_S_yt-lGQ3wMI5-Yg_140.mp4	0.0	415.28098702430725	
47	156.32098007202148	movie	1		301.0	45.0	2.5	/experiments/knapen_aot/videos/R_S_yt-lGQ3wMI5-Yg_140.mp4	0.0	415.2891390323639	2.508347988128662
47	158.82932806015015	fix_post	2		12.0	45.0	2.5	/experiments/knapen_aot/videos/R_S_yt-lGQ3wMI5-Yg_140.mp4	0.0	417.79748702049255	0.09999608993530273
48	158.92932415008545	fix_pre	0		14.0	46.0	2.5	/experiments/knapen_aot/videos/S_production_ID_4835060.mp4	0.0	417.89748311042786	0.11733198165893555
48	159.03029894828796	response	0	4		46.0	2.5	/experiments/knapen_aot/videos/S_production_ID_4835060.mp4	0.0	417.99845790863037	
48	159.04665613174438	movie	1		194.0	46.0	2.5	/experiments/knapen_aot/videos/S_production_ID_4835060.mp4	0.0	418.0148150920868	2.507565975189209
48	161.5542221069336	fix_post	2		12.0	46.0	2.5	/experiments/knapen_aot/videos/S_production_ID_4835060.mp4	0.0	420.522381067276	0.10007691383361816
49	161.6542990207672	fix_pre	0		247.0	47.0	2.5	/experiments/knapen_aot/videos/S_comp_A114_C001_0305OT_v10_SDR_FINAL_22062018_SDR_2K_AVC.mp4	0.0	420.6224579811096	2.059136152267456
49	163.70447611808777	response	0	4		47.0	2.5	/experiments/knapen_aot/videos/S_comp_A114_C001_0305OT_v10_SDR_FINAL_22062018_SDR_2K_AVC.mp4	0.0	422.6726350784302	
49	163.71343517303467	movie	1		165.0	47.0	2.5	/experiments/knapen_aot/videos/S_comp_A114_C001_0305OT_v10_SDR_FINAL_22062018_SDR_2K_AVC.mp4	0.0	422.6815941333771	2.507558822631836
49	166.2209939956665	fix_post	2		12.0	47.0	2.5	/experiments/knapen_aot/videos/S_comp_A114_C001_0305OT_v10_SDR_FINAL_22062018_SDR_2K_AVC.mp4	0.0	425.1891529560089	0.10003900527954102
50	166.32103300094604	fix_pre	0		19.0	48.0	2.5	/experiments/knapen_aot/videos/S_yt-xSGPe0KemD4_384.mp4	0.0	425.28919196128845	0.15828394889831543
50	166.4710910320282	response	0	4		48.0	2.5	/experiments/knapen_aot/videos/S_yt-xSGPe0KemD4_384.mp4	0.0	425.4392499923706	
50	166.47931694984436	movie	1		301.0	48.0	2.5	/experiments/knapen_aot/videos/S_yt-xSGPe0KemD4_384.mp4	0.0	425.44747591018677	2.5083510875701904
50	168.98766803741455	fix_post	2		12.0	48.0	2.5	/experiments/knapen_aot/videos/S_yt-xSGPe0KemD4_384.mp4	0.0	427.95582699775696	0.09997200965881348
51	169.08764004707336	fix_pre	0		37.0	49.0	2.5	blank	1.0	428.05579900741577	0.3083629608154297
51	169.38779211044312	response	0	4		49.0	2.5	blank	1.0	428.3559510707855	
51	169.3960030078888	movie	1		301.0	49.0	2.5	blank	1.0	428.3641619682312	2.5083260536193848
51	171.90432906150818	fix_post	2		12.0	49.0	2.5	blank	1.0	430.8724880218506	0.1005868911743164
52	172.0049159526825	fix_pre	0		28.0	50.0	2.5	/experiments/knapen_aot/videos/S_yt-5ws2gxbcjs4_381.mp4	0.0	430.9730749130249	0.23276114463806152
52	172.229483127594	response	0	4		50.0	2.5	/experiments/knapen_aot/videos/S_yt-5ws2gxbcjs4_381.mp4	0.0	431.1976420879364	
52	172.23767709732056	movie	1		301.0	50.0	2.5	/experiments/knapen_aot/videos/S_yt-5ws2gxbcjs4_381.mp4	0.0	431.20583605766296	2.5083470344543457
52	174.7460241317749	fix_post	2		12.0	50.0	2.5	/experiments/knapen_aot/videos/S_yt-5ws2gxbcjs4_381.mp4	0.0	433.7141830921173	0.09993600845336914
53	174.84596014022827	fix_pre	0		11.0	51.0	2.5	/experiments/knapen_aot/videos/R_S_comp_A006_C003_1219EE_CC_v01_SDR_PS_FINAL_20180709_SDR_2K_AVC.mp4	0.0	433.8141191005707	0.09168195724487305
53	174.9294011592865	response	0	4		51.0	2.5	/experiments/knapen_aot/videos/R_S_comp_A006_C003_1219EE_CC_v01_SDR_PS_FINAL_20180709_SDR_2K_AVC.mp4	0.0	433.8975601196289	
53	174.93764209747314	movie	1		167.0	51.0	2.5	/experiments/knapen_aot/videos/R_S_comp_A006_C003_1219EE_CC_v01_SDR_PS_FINAL_20180709_SDR_2K_AVC.mp4	0.0	433.90580105781555	2.5082778930664062
53	177.44591999053955	fix_post	2		12.0	51.0	2.5	/experiments/knapen_aot/videos/R_S_comp_A006_C003_1219EE_CC_v01_SDR_PS_FINAL_20180709_SDR_2K_AVC.mp4	0.0	436.41407895088196	0.10062313079833984
54	177.5465431213379	fix_pre	0		160.0	52.0	2.5	/experiments/knapen_aot/videos/R_S_yt-YLcmfyfIokU_64.mp4	0.0	436.5147020816803	1.3332839012145996
54	178.87105202674866	response	0	4		52.0	2.5	/experiments/knapen_aot/videos/R_S_yt-YLcmfyfIokU_64.mp4	0.0	437.83921098709106	
54	178.8798270225525	movie	1		300.0	52.0	2.5	/experiments/knapen_aot/videos/R_S_yt-YLcmfyfIokU_64.mp4	0.0	437.8479859828949	2.5076730251312256
54	181.38750004768372	fix_post	2		12.0	52.0	2.5	/experiments/knapen_aot/videos/R_S_yt-YLcmfyfIokU_64.mp4	0.0	440.3556590080261	0.10007500648498535
55	181.4875750541687	fix_pre	0		28.0	53.0	2.5	/experiments/knapen_aot/videos/R_S_-IkGMlLHrOI_108.mp4	0.0	440.4557340145111	0.23327994346618652
55	181.71273803710938	response	0	4		53.0	2.5	/experiments/knapen_aot/videos/R_S_-IkGMlLHrOI_108.mp4	0.0	440.6808969974518	
55	181.7208549976349	movie	1		301.0	53.0	2.5	/experiments/knapen_aot/videos/R_S_-IkGMlLHrOI_108.mp4	0.0	440.6890139579773	2.5083131790161133
55	184.229168176651	fix_post	2		12.0	53.0	2.5	/experiments/knapen_aot/videos/R_S_-IkGMlLHrOI_108.mp4	0.0	443.1973271369934	0.10004782676696777
56	184.32921600341797	fix_pre	0		29.0	54.0	2.5	/experiments/knapen_aot/videos/R_S_yt-9pYW_TqVpU4_43.mp4	0.0	443.2973749637604	0.2416231632232666
56	184.56268501281738	response	0	4		54.0	2.5	/experiments/knapen_aot/videos/R_S_yt-9pYW_TqVpU4_43.mp4	0.0	443.5308439731598	
56	184.57083916664124	movie	1		301.0	54.0	2.5	/experiments/knapen_aot/videos/R_S_yt-9pYW_TqVpU4_43.mp4	0.0	443.53899812698364	2.508314847946167
56	187.0791540145874	fix_post	2		12.0	54.0	2.5	/experiments/knapen_aot/videos/R_S_yt-9pYW_TqVpU4_43.mp4	0.0	446.0473129749298	0.10001301765441895
57	187.17916703224182	fix_pre	0		29.0	55.0	2.5	/experiments/knapen_aot/videos/R_S_ILSVRC2015_train_00394000.mp4	0.0	446.14732599258423	0.24229097366333008
57	187.41272902488708	response	0	4		55.0	2.5	/experiments/knapen_aot/videos/R_S_ILSVRC2015_train_00394000.mp4	0.0	446.3808879852295	
57	187.42145800590515	movie	1		301.0	55.0	2.5	/experiments/knapen_aot/videos/R_S_ILSVRC2015_train_00394000.mp4	0.0	446.38961696624756	2.507747173309326
57	189.92920517921448	fix_post	2		12.0	55.0	2.5	/experiments/knapen_aot/videos/R_S_ILSVRC2015_train_00394000.mp4	0.0	448.8973641395569	0.10000181198120117
58	190.02920699119568	fix_pre	0		120.0	56.0	2.5	blank	1.0	448.9973659515381	0.99996018409729
58	191.02097606658936	response	0	4		56.0	2.5	blank	1.0	449.98913502693176	
58	191.02916717529297	movie	1		301.0	56.0	2.5	blank	1.0	449.9973261356354	2.5082709789276123
58	193.53743815422058	fix_post	2		12.0	56.0	2.5	blank	1.0	452.505597114563	0.1000509262084961
59	193.63748908042908	fix_pre	0		27.0	57.0	2.5	/experiments/knapen_aot/videos/S_yt-mL3MuCfKtdY_79.mp4	0.0	452.6056480407715	0.22501587867736816
59	193.8543050289154	response	0	4		57.0	2.5	/experiments/knapen_aot/videos/S_yt-mL3MuCfKtdY_79.mp4	0.0	452.8224639892578	
59	193.86250495910645	movie	1		301.0	57.0	2.5	/experiments/knapen_aot/videos/S_yt-mL3MuCfKtdY_79.mp4	0.0	452.83066391944885	2.5083041191101074
59	196.37080907821655	fix_post	2		12.0	57.0	2.5	/experiments/knapen_aot/videos/S_yt-mL3MuCfKtdY_79.mp4	0.0	455.33896803855896	0.09997296333312988
60	196.47078204154968	fix_pre	0		27.0	58.0	2.5	/experiments/knapen_aot/videos/S_yt-zgimmOcW5Mc_127.mp4	0.0	455.4389410018921	0.22500395774841309
60	196.6876139640808	response	0	4		58.0	2.5	/experiments/knapen_aot/videos/S_yt-zgimmOcW5Mc_127.mp4	0.0	455.6557729244232	
60	196.6957859992981	movie	1		301.0	58.0	2.5	/experiments/knapen_aot/videos/S_yt-zgimmOcW5Mc_127.mp4	0.0	455.6639449596405	2.508376121520996
60	199.2041621208191	fix_post	2		12.0	58.0	2.5	/experiments/knapen_aot/videos/S_yt-zgimmOcW5Mc_127.mp4	0.0	458.1723210811615	0.09996891021728516
61	199.30413103103638	fix_pre	0		11.0	59.0	2.5	/experiments/knapen_aot/videos/S_pexels-mikael-blomkvist-8689852.mp4	0.0	458.2722899913788	0.09175896644592285
61	199.38758516311646	response	0	4		59.0	2.5	/experiments/knapen_aot/videos/S_pexels-mikael-blomkvist-8689852.mp4	0.0	458.35574412345886	
61	199.3958899974823	movie	1		164.0	59.0	2.5	/experiments/knapen_aot/videos/S_pexels-mikael-blomkvist-8689852.mp4	0.0	458.3640489578247	2.508254051208496
61	201.9041440486908	fix_post	2		12.0	59.0	2.5	/experiments/knapen_aot/videos/S_pexels-mikael-blomkvist-8689852.mp4	0.0	460.8723030090332	0.10051512718200684
62	202.0046591758728	fix_pre	0		228.0	60.0	2.5	/experiments/knapen_aot/videos/S_production_ID_4835060.mp4	0.0	460.9728181362152	1.8994197845458984
62	203.89588713645935	response	0	4		60.0	2.5	/experiments/knapen_aot/videos/S_production_ID_4835060.mp4	0.0	462.86404609680176	
62	203.9040789604187	movie	1		169.0	60.0	2.5	/experiments/knapen_aot/videos/S_production_ID_4835060.mp4	0.0	462.8722379207611	2.50832200050354
62	206.41240096092224	fix_post	2		12.0	60.0	2.5	/experiments/knapen_aot/videos/S_production_ID_4835060.mp4	0.0	465.38055992126465	0.1000521183013916
63	206.51245307922363	fix_pre	0		10.0	61.0	2.5	/experiments/knapen_aot/videos/S_gX_VbZnZO0k_13.mp4	0.0	465.48061203956604	0.08332204818725586
63	206.58766198158264	response	0	4		61.0	2.5	/experiments/knapen_aot/videos/S_gX_VbZnZO0k_13.mp4	0.0	465.55582094192505	
63	206.5957751274109	movie	1		301.0	61.0	2.5	/experiments/knapen_aot/videos/S_gX_VbZnZO0k_13.mp4	0.0	465.5639340877533	2.5082390308380127
63	209.1040141582489	fix_post	2		12.0	61.0	2.5	/experiments/knapen_aot/videos/S_gX_VbZnZO0k_13.mp4	0.0	468.0721731185913	0.10005593299865723
64	209.20407009124756	fix_pre	0		155.0	62.0	2.5	/experiments/knapen_aot/videos/S_ILSVRC2015_train_00538001.mp4	0.0	468.17222905158997	1.2916910648345947
64	210.4875681400299	response	0	4		62.0	2.5	/experiments/knapen_aot/videos/S_ILSVRC2015_train_00538001.mp4	0.0	469.4557271003723	
64	210.49576115608215	movie	1		301.0	62.0	2.5	/experiments/knapen_aot/videos/S_ILSVRC2015_train_00538001.mp4	0.0	469.46392011642456	2.50832200050354
64	213.0040831565857	fix_post	2		12.0	62.0	2.5	/experiments/knapen_aot/videos/S_ILSVRC2015_train_00538001.mp4	0.0	471.9722421169281	0.0999898910522461
65	213.10407304763794	fix_pre	0		16.0	63.0	2.5	blank	1.0	472.07223200798035	0.13333511352539062
65	213.22913098335266	response	0	4		63.0	2.5	blank	1.0	472.19728994369507	
65	213.23740816116333	movie	1		301.0	63.0	2.5	blank	1.0	472.20556712150574	2.5083398818969727
65	215.7457480430603	fix_post	2		12.0	63.0	2.5	blank	1.0	474.7139070034027	0.09993600845336914
66	215.84568405151367	fix_pre	0		34.0	64.0	2.5	/experiments/knapen_aot/videos/S_production_ID_4510622.mp4	0.0	474.8138430118561	0.28384995460510254
66	216.11330199241638	response	0	4		64.0	2.5	/experiments/knapen_aot/videos/S_production_ID_4510622.mp4	0.0	475.0814609527588	
66	216.12953400611877	movie	1		164.0	64.0	2.5	/experiments/knapen_aot/videos/S_production_ID_4510622.mp4	0.0	475.0976929664612	2.5078999996185303
66	218.6374340057373	fix_post	2		12.0	64.0	2.5	/experiments/knapen_aot/videos/S_production_ID_4510622.mp4	0.0	477.6055929660797	0.10004806518554688
67	218.73748207092285	fix_pre	0		25.0	65.0	2.5	/experiments/knapen_aot/videos/R_S_comp_DB_D001_C005_COMP_PSNK_v12_SDR_PS_20180912_SDR_2K_AVC.mp4	0.0	477.70564103126526	0.20825695991516113
67	218.93753504753113	response	0	4		65.0	2.5	/experiments/knapen_aot/videos/R_S_comp_DB_D001_C005_COMP_PSNK_v12_SDR_PS_20180912_SDR_2K_AVC.mp4	0.0	477.90569400787354	
67	218.945739030838	movie	1		169.0	65.0	2.5	/experiments/knapen_aot/videos/R_S_comp_DB_D001_C005_COMP_PSNK_v12_SDR_PS_20180912_SDR_2K_AVC.mp4	0.0	477.9138979911804	2.508363962173462
67	221.45410299301147	fix_post	2		12.0	65.0	2.5	/experiments/knapen_aot/videos/R_S_comp_DB_D001_C005_COMP_PSNK_v12_SDR_PS_20180912_SDR_2K_AVC.mp4	0.0	480.4222619533539	0.09998512268066406
68	221.55408811569214	fix_pre	0		23.0	66.0	2.5	/experiments/knapen_aot/videos/S_ILSVRC2015_train_00219003.mp4	0.0	480.52224707603455	0.19163990020751953
68	221.73757410049438	response	0	4		66.0	2.5	/experiments/knapen_aot/videos/S_ILSVRC2015_train_00219003.mp4	0.0	480.7057330608368	
68	221.74572801589966	movie	1		301.0	66.0	2.5	/experiments/knapen_aot/videos/S_ILSVRC2015_train_00219003.mp4	0.0	480.71388697624207	2.5083489418029785
68	224.25407695770264	fix_post	2		12.0	66.0	2.5	/experiments/knapen_aot/videos/S_ILSVRC2015_train_00219003.mp4	0.0	483.22223591804504	0.09993219375610352
69	224.35400915145874	fix_pre	0		36.0	67.0	2.5	/experiments/knapen_aot/videos/R_S_ILSVRC2015_train_00594000.mp4	0.0	483.32216811180115	0.3000810146331787
69	224.64601516723633	response	0	4		67.0	2.5	/experiments/knapen_aot/videos/R_S_ILSVRC2015_train_00594000.mp4	0.0	483.61417412757874	
69	224.65409016609192	movie	1		301.0	67.0	2.5	/experiments/knapen_aot/videos/R_S_ILSVRC2015_train_00594000.mp4	0.0	483.6222491264343	2.5100879669189453
69	227.16417813301086	fix_post	2		12.0	67.0	2.5	/experiments/knapen_aot/videos/R_S_ILSVRC2015_train_00594000.mp4	0.0	486.13233709335327	0.09824395179748535
70	227.26242208480835	fix_pre	0		209.0	68.0	2.5	blank	1.0	486.23058104515076	1.7420079708099365
70	228.99588108062744	response	0	4		68.0	2.5	blank	1.0	487.96404004096985	
70	229.0044300556183	movie	1		301.0	68.0	2.5	blank	1.0	487.9725890159607	2.5081069469451904
70	231.51253700256348	fix_post	2		12.0	68.0	2.5	blank	1.0	490.4806959629059	0.09987306594848633
71	231.61241006851196	fix_pre	0		70.0	69.0	2.5	/experiments/knapen_aot/videos/S_yt-Dwgpjoikt84_71.mp4	0.0	490.58056902885437	0.5832641124725342
71	232.18756413459778	response	0	4		69.0	2.5	/experiments/knapen_aot/videos/S_yt-Dwgpjoikt84_71.mp4	0.0	491.1557230949402	
71	232.1956741809845	movie	1		301.0	69.0	2.5	/experiments/knapen_aot/videos/S_yt-Dwgpjoikt84_71.mp4	0.0	491.1638331413269	2.5082709789276123
71	234.7039451599121	fix_post	2		12.0	69.0	2.5	/experiments/knapen_aot/videos/S_yt-Dwgpjoikt84_71.mp4	0.0	493.6721041202545	0.10003185272216797
72	234.80397701263428	fix_pre	0		32.0	70.0	2.5	/experiments/knapen_aot/videos/R_S_yt-8vm83GUgYxI_1.mp4	0.0	493.7721359729767	0.26659107208251953
72	235.06247305870056	response	0	4		70.0	2.5	/experiments/knapen_aot/videos/R_S_yt-8vm83GUgYxI_1.mp4	0.0	494.03063201904297	
72	235.0705680847168	movie	1		300.0	70.0	2.5	/experiments/knapen_aot/videos/R_S_yt-8vm83GUgYxI_1.mp4	0.0	494.0387270450592	2.5084118843078613
72	237.57897996902466	fix_post	2		12.0	70.0	2.5	/experiments/knapen_aot/videos/R_S_yt-8vm83GUgYxI_1.mp4	0.0	496.54713892936707	0.09995412826538086
73	237.67893409729004	fix_pre	0		422.0	71.0	2.5	/experiments/knapen_aot/videos/S_Y004_C015_SDR_2K_AVC.mp4	0.0	496.64709305763245	3.516629934310913
73	241.1798450946808	response	0	4		71.0	2.5	/experiments/knapen_aot/videos/S_Y004_C015_SDR_2K_AVC.mp4	0.0	500.1480040550232	
73	241.19556403160095	movie	1		172.0	71.0	2.5	/experiments/knapen_aot/videos/S_Y004_C015_SDR_2K_AVC.mp4	0.0	500.16372299194336	2.5083250999450684
73	243.70388913154602	fix_post	2		12.0	71.0	2.5	/experiments/knapen_aot/videos/S_Y004_C015_SDR_2K_AVC.mp4	0.0	502.6720480918884	0.1000518798828125
74	243.80394101142883	fix_pre	0		32.0	72.0	2.5	/experiments/knapen_aot/videos/R_S_comp_LA_A011_C003_DGRN_LNFIX_STAB_v57_SDR_PS_20181002_SDR_2K_AVC.mp4	0.0	502.77209997177124	0.2667210102081299
74	244.06235694885254	response	0	4		72.0	2.5	/experiments/knapen_aot/videos/R_S_comp_LA_A011_C003_DGRN_LNFIX_STAB_v57_SDR_PS_20181002_SDR_2K_AVC.mp4	0.0	503.03051590919495	
74	244.07066202163696	movie	1		170.0	72.0	2.5	/experiments/knapen_aot/videos/R_S_comp_LA_A011_C003_DGRN_LNFIX_STAB_v57_SDR_PS_20181002_SDR_2K_AVC.mp4	0.0	503.03882098197937	2.5082309246063232
74	246.5788929462433	fix_post	2		12.0	72.0	2.5	/experiments/knapen_aot/videos/R_S_comp_LA_A011_C003_DGRN_LNFIX_STAB_v57_SDR_PS_20181002_SDR_2K_AVC.mp4	0.0	505.5470519065857	0.09994316101074219
75	246.67883610725403	fix_pre	0		38.0	73.0	2.5	/experiments/knapen_aot/videos/S_yt-fCjjH_4i8Fg_115.mp4	0.0	505.64699506759644	0.3167409896850586
75	246.98742508888245	response	0	4		73.0	2.5	/experiments/knapen_aot/videos/S_yt-fCjjH_4i8Fg_115.mp4	0.0	505.95558404922485	
75	246.9955770969391	movie	1		301.0	73.0	2.5	/experiments/knapen_aot/videos/S_yt-fCjjH_4i8Fg_115.mp4	0.0	505.9637360572815	2.5086090564727783
75	249.50418615341187	fix_post	2		12.0	73.0	2.5	/experiments/knapen_aot/videos/S_yt-fCjjH_4i8Fg_115.mp4	0.0	508.4723451137543	0.09974193572998047
76	249.60392808914185	fix_pre	0		201.0	74.0	2.5	/experiments/knapen_aot/videos/S_production_ID_4124475.mp4	0.0	508.57208704948425	1.6749649047851562
76	251.26328015327454	response	0	4		74.0	2.5	/experiments/knapen_aot/videos/S_production_ID_4124475.mp4	0.0	510.23143911361694	
76	251.278892993927	movie	1		167.0	74.0	2.5	/experiments/knapen_aot/videos/S_production_ID_4124475.mp4	0.0	510.2470519542694	2.5083789825439453
76	253.78727197647095	fix_post	2		12.0	74.0	2.5	/experiments/knapen_aot/videos/S_production_ID_4124475.mp4	0.0	512.7554309368134	0.10003519058227539
77	253.88730716705322	fix_pre	0		16.0	75.0	2.5	/experiments/knapen_aot/videos/S_yt-zgimmOcW5Mc_127.mp4	0.0	512.8554661273956	0.1332988739013672
77	254.01233100891113	response	0	4		75.0	2.5	/experiments/knapen_aot/videos/S_yt-zgimmOcW5Mc_127.mp4	0.0	512.9804899692535	
77	254.0206060409546	movie	1		301.0	75.0	2.5	/experiments/knapen_aot/videos/S_yt-zgimmOcW5Mc_127.mp4	0.0	512.988765001297	2.50827693939209
77	256.5288829803467	fix_post	2		12.0	75.0	2.5	/experiments/knapen_aot/videos/S_yt-zgimmOcW5Mc_127.mp4	0.0	515.4970419406891	0.10023999214172363
78	256.6291229724884	fix_pre	0		20.0	76.0	2.5	/experiments/knapen_aot/videos/R_S_yt-b7JAHOeiTqU_44.mp4	0.0	515.5972819328308	0.1665949821472168
78	256.7797770500183	response	0	4		76.0	2.5	/experiments/knapen_aot/videos/R_S_yt-b7JAHOeiTqU_44.mp4	0.0	515.7479360103607	
78	256.7957179546356	movie	1		300.0	76.0	2.5	/experiments/knapen_aot/videos/R_S_yt-b7JAHOeiTqU_44.mp4	0.0	515.763876914978	2.5081770420074463
78	259.30389499664307	fix_post	2		12.0	76.0	2.5	/experiments/knapen_aot/videos/R_S_yt-b7JAHOeiTqU_44.mp4	0.0	518.2720539569855	0.09993410110473633
79	259.4038290977478	fix_pre	0		177.0	77.0	2.5	blank	1.0	518.3719880580902	1.4752109050750732
79	260.87069606781006	response	0	4		77.0	2.5	blank	1.0	519.8388550281525	
79	260.8790400028229	movie	1		301.0	77.0	2.5	blank	1.0	519.8471989631653	2.508150100708008
79	263.3871901035309	fix_post	2		12.0	77.0	2.5	blank	1.0	522.3553490638733	0.09992694854736328
80	263.48711705207825	fix_pre	0		33.0	78.0	2.5	/experiments/knapen_aot/videos/R_S_production_ID_5020960.mp4	0.0	522.4552760124207	0.27506589889526367
80	263.7539551258087	response	0	4		78.0	2.5	/experiments/knapen_aot/videos/R_S_production_ID_5020960.mp4	0.0	522.7221140861511	
80	263.7621829509735	movie	1		198.0	78.0	2.5	/experiments/knapen_aot/videos/R_S_production_ID_5020960.mp4	0.0	522.7303419113159	2.5083281993865967
80	266.2705111503601	fix_post	2		12.0	78.0	2.5	/experiments/knapen_aot/videos/R_S_production_ID_5020960.mp4	0.0	525.2386701107025	0.10003781318664551
81	266.37054896354675	fix_pre	0		27.0	79.0	2.5	/experiments/knapen_aot/videos/S_yt-9pYW_TqVpU4_43.mp4	0.0	525.3387079238892	0.22498703002929688
81	266.58722496032715	response	0	4		79.0	2.5	/experiments/knapen_aot/videos/S_yt-9pYW_TqVpU4_43.mp4	0.0	525.5553839206696	
81	266.59553599357605	movie	1		301.0	79.0	2.5	/experiments/knapen_aot/videos/S_yt-9pYW_TqVpU4_43.mp4	0.0	525.5636949539185	2.508350133895874
81	269.1038861274719	fix_post	2		12.0	79.0	2.5	/experiments/knapen_aot/videos/S_yt-9pYW_TqVpU4_43.mp4	0.0	528.0720450878143	0.0999758243560791
82	269.203861951828	fix_pre	0		297.0	80.0	2.5	/experiments/knapen_aot/videos/R_S_yt-fCjjH_4i8Fg_115.mp4	0.0	528.1720209121704	2.4750301837921143
82	271.66317105293274	response	0	4		80.0	2.5	/experiments/knapen_aot/videos/R_S_yt-fCjjH_4i8Fg_115.mp4	0.0	530.6313300132751	
82	271.6788921356201	movie	1		301.0	80.0	2.5	/experiments/knapen_aot/videos/R_S_yt-fCjjH_4i8Fg_115.mp4	0.0	530.6470510959625	2.5082619190216064
82	274.1871540546417	fix_post	2		12.0	80.0	2.5	/experiments/knapen_aot/videos/R_S_yt-fCjjH_4i8Fg_115.mp4	0.0	533.1553130149841	0.09997105598449707
83	274.2871251106262	fix_pre	0		42.0	81.0	2.5	/experiments/knapen_aot/videos/S_yt-MWX0EtpWIs8_286.mp4	0.0	533.2552840709686	0.3499729633331299
83	274.6289279460907	response	0	4		81.0	2.5	/experiments/knapen_aot/videos/S_yt-MWX0EtpWIs8_286.mp4	0.0	533.5970869064331	
83	274.63709807395935	movie	1		301.0	81.0	2.5	/experiments/knapen_aot/videos/S_yt-MWX0EtpWIs8_286.mp4	0.0	533.6052570343018	2.5083200931549072
83	277.14541816711426	fix_post	2		12.0	81.0	2.5	/experiments/knapen_aot/videos/S_yt-MWX0EtpWIs8_286.mp4	0.0	536.1135771274567	0.10005593299865723
84	277.2454741001129	fix_pre	0		38.0	82.0	2.5	blank	1.0	536.2136330604553	0.31664085388183594
84	277.5538890361786	response	0	4		82.0	2.5	blank	1.0	536.522047996521	
84	277.56211495399475	movie	1		301.0	82.0	2.5	blank	1.0	536.5302739143372	2.5084521770477295
84	280.0705671310425	fix_post	2		12.0	82.0	2.5	blank	1.0	539.0387260913849	0.09999799728393555
85	280.1705651283264	fix_pre	0		27.0	83.0	2.5	/experiments/knapen_aot/videos/R_S_yt-TZ107yBhXoA_1.mp4	0.0	539.1387240886688	0.22489094734191895
85	280.3872411251068	response	0	4		83.0	2.5	/experiments/knapen_aot/videos/R_S_yt-TZ107yBhXoA_1.mp4	0.0	539.3554000854492	
85	280.39545607566833	movie	1		301.0	83.0	2.5	/experiments/knapen_aot/videos/R_S_yt-TZ107yBhXoA_1.mp4	0.0	539.3636150360107	2.5083279609680176
85	282.90378403663635	fix_post	2		12.0	83.0	2.5	/experiments/knapen_aot/videos/R_S_yt-TZ107yBhXoA_1.mp4	0.0	541.8719429969788	0.10011506080627441
87	283.0038990974426	stim	0		123.0					541.972058057785	1.0277528762817383
87	283.20393800735474	response	0	4						542.1720969676971	
87	284.0249571800232	response	0	space						542.9931161403656	
