trial_nr	onset	event_type	phase	response	nr_frames	movie_index	movie_duration	movie_file	blank	onset_abs	duration
0	0.14775395393371582	stim	0		39.0					90.14219188690186	0.324617862701416
0	0.4637298583984375	response	0	space						90.45816779136658	
1	0.47237181663513184	stim	0		121.0					90.46680974960327	1.0075631141662598
1	1.4799349308013916	stim	1		120.0					91.47437286376953	0.9999599456787109
1	1.7550699710845947	response	1	space						91.74950790405273	
2	2.4798948764801025	fix_pre	0		43.0	0.0	2.5	/experiments/knapen_aot/videos/R_S_yt-vQ-rd-1gwH4_238.mp4	0.0	92.47433280944824	0.3583519458770752
2	2.8300130367279053	response	0	space		0.0	2.5	/experiments/knapen_aot/videos/R_S_yt-vQ-rd-1gwH4_238.mp4	0.0	92.82445096969604	
2	2.8382468223571777	movie	1		298.0	0.0	2.5	/experiments/knapen_aot/videos/R_S_yt-vQ-rd-1gwH4_238.mp4	0.0	92.83268475532532	2.508305072784424
2	5.346551895141602	fix_post	2		12.0	0.0	2.5	/experiments/knapen_aot/videos/R_S_yt-vQ-rd-1gwH4_238.mp4	0.0	95.34098982810974	0.10002994537353516
3	5.446581840515137	fix_pre	0		6.0	1.0	2.5	/experiments/knapen_aot/videos/R_S_yt-waWM9vAfsIw_116.mp4	0.0	95.44101977348328	0.053045034408569336
3	5.486313819885254	response	0	2		1.0	2.5	/experiments/knapen_aot/videos/R_S_yt-waWM9vAfsIw_116.mp4	0.0	95.4807517528534	
3	5.499626874923706	movie	1		294.0	1.0	2.5	/experiments/knapen_aot/videos/R_S_yt-waWM9vAfsIw_116.mp4	0.0	95.49406480789185	2.505282163619995
3	8.004909038543701	fix_post	2		12.0	1.0	2.5	/experiments/knapen_aot/videos/R_S_yt-waWM9vAfsIw_116.mp4	0.0	97.99934697151184	0.1000359058380127
4	8.104944944381714	fix_pre	0		4.0	2.0	2.5	/experiments/knapen_aot/videos/R_S_comp_DB_D001_C001_PSNK_v06_SDR_PS_20180824_SDR_2K_AVC.mp4	0.0	98.09938287734985	0.03439497947692871
4	8.13001298904419	response	0	2		2.0	2.5	/experiments/knapen_aot/videos/R_S_comp_DB_D001_C001_PSNK_v06_SDR_PS_20180824_SDR_2K_AVC.mp4	0.0	98.12445092201233	
4	8.139339923858643	movie	1		172.0	2.0	2.5	/experiments/knapen_aot/videos/R_S_comp_DB_D001_C001_PSNK_v06_SDR_PS_20180824_SDR_2K_AVC.mp4	0.0	98.13377785682678	2.507240056991577
4	10.64657998085022	fix_post	2		12.0	2.0	2.5	/experiments/knapen_aot/videos/R_S_comp_DB_D001_C001_PSNK_v06_SDR_PS_20180824_SDR_2K_AVC.mp4	0.0	100.64101791381836	0.09989094734191895
4	10.648207902908325	response	2	2		2.0	2.5	/experiments/knapen_aot/videos/R_S_comp_DB_D001_C001_PSNK_v06_SDR_PS_20180824_SDR_2K_AVC.mp4	0.0	100.64264583587646	
5	10.746470928192139	fix_pre	0		24.0	3.0	2.5	/experiments/knapen_aot/videos/S_yt-1RVw8p6Dw2Q_20.mp4	0.0	100.74090886116028	0.20008397102355957
5	10.938295841217041	response	0	2		3.0	2.5	/experiments/knapen_aot/videos/S_yt-1RVw8p6Dw2Q_20.mp4	0.0	100.93273377418518	
5	10.946554899215698	movie	1		301.0	3.0	2.5	/experiments/knapen_aot/videos/S_yt-1RVw8p6Dw2Q_20.mp4	0.0	100.94099283218384	2.5083060264587402
5	13.454860925674438	fix_post	2		12.0	3.0	2.5	/experiments/knapen_aot/videos/S_yt-1RVw8p6Dw2Q_20.mp4	0.0	103.44929885864258	0.10028791427612305
6	13.555148839950562	fix_pre	0		1.0	4.0	2.5	/experiments/knapen_aot/videos/R_S_yt-Zn0YwrsCFOQ_44.mp4	0.0	103.5495867729187	0.008054018020629883
6	13.557656049728394	response	0	2		4.0	2.5	/experiments/knapen_aot/videos/R_S_yt-Zn0YwrsCFOQ_44.mp4	0.0	103.55209398269653	
6	13.563202857971191	movie	1		301.0	4.0	2.5	/experiments/knapen_aot/videos/R_S_yt-Zn0YwrsCFOQ_44.mp4	0.0	103.55764079093933	2.508342981338501
6	16.071545839309692	fix_post	2		12.0	4.0	2.5	/experiments/knapen_aot/videos/R_S_yt-Zn0YwrsCFOQ_44.mp4	0.0	106.06598377227783	0.0999600887298584
7	16.17150592803955	fix_pre	0		7.0	5.0	2.5	/experiments/knapen_aot/videos/R_S_yt-yXJr3FR2xrM_27.mp4	0.0	106.16594386100769	0.058355093002319336
7	16.221601963043213	response	0	2		5.0	2.5	/experiments/knapen_aot/videos/R_S_yt-yXJr3FR2xrM_27.mp4	0.0	106.21603989601135	
7	16.22986102104187	movie	1		301.0	5.0	2.5	/experiments/knapen_aot/videos/R_S_yt-yXJr3FR2xrM_27.mp4	0.0	106.22429895401001	2.508375883102417
7	18.738236904144287	fix_post	2		12.0	5.0	2.5	/experiments/knapen_aot/videos/R_S_yt-yXJr3FR2xrM_27.mp4	0.0	108.73267483711243	0.10005307197570801
8	18.838289976119995	fix_pre	0		10.0	6.0	2.5	blank	1.0	108.83272790908813	0.08321094512939453
8	18.913283824920654	response	0	2		6.0	2.5	blank	1.0	108.9077217578888	
8	18.92150092124939	movie	1		301.0	6.0	2.5	blank	1.0	108.91593885421753	2.508358955383301
8	21.42985987663269	fix_post	2		12.0	6.0	2.5	blank	1.0	111.42429780960083	0.099945068359375
9	21.529804944992065	fix_pre	0		13.0	7.0	2.5	/experiments/knapen_aot/videos/R_S_yt-0aHV3uU8xFY_75.mp4	0.0	111.5242428779602	0.10854196548461914
9	21.630035877227783	response	0	2		7.0	2.5	/experiments/knapen_aot/videos/R_S_yt-0aHV3uU8xFY_75.mp4	0.0	111.62447381019592	
9	21.638346910476685	movie	1		301.0	7.0	2.5	/experiments/knapen_aot/videos/R_S_yt-0aHV3uU8xFY_75.mp4	0.0	111.63278484344482	2.5081701278686523
9	24.146517038345337	fix_post	2		12.0	7.0	2.5	/experiments/knapen_aot/videos/R_S_yt-0aHV3uU8xFY_75.mp4	0.0	114.14095497131348	0.09999799728393555
10	24.246515035629272	fix_pre	0		6.0	8.0	2.5	/experiments/knapen_aot/videos/R_S_yt-eczLsCTIyn0_553.mp4	0.0	114.24095296859741	0.051666975021362305
10	24.288334846496582	response	0	2		8.0	2.5	/experiments/knapen_aot/videos/R_S_yt-eczLsCTIyn0_553.mp4	0.0	114.28277277946472	
10	24.298182010650635	movie	1		301.0	8.0	2.5	/experiments/knapen_aot/videos/R_S_yt-eczLsCTIyn0_553.mp4	0.0	114.29261994361877	2.506826877593994
10	26.80500888824463	fix_post	2		12.0	8.0	2.5	/experiments/knapen_aot/videos/R_S_yt-eczLsCTIyn0_553.mp4	0.0	116.79944682121277	0.09983301162719727
11	26.904841899871826	fix_pre	0		19.0	9.0	2.5	/experiments/knapen_aot/videos/S_yt-3JApfnMu5cU_378.mp4	0.0	116.89927983283997	0.1583390235900879
11	27.05494999885559	response	0	2		9.0	2.5	/experiments/knapen_aot/videos/S_yt-3JApfnMu5cU_378.mp4	0.0	117.04938793182373	
11	27.063180923461914	movie	1		301.0	9.0	2.5	/experiments/knapen_aot/videos/S_yt-3JApfnMu5cU_378.mp4	0.0	117.05761885643005	2.5082879066467285
11	29.571468830108643	fix_post	2		12.0	9.0	2.5	/experiments/knapen_aot/videos/S_yt-3JApfnMu5cU_378.mp4	0.0	119.56590676307678	0.09996604919433594
12	29.67143487930298	fix_pre	0		8.0	10.0	2.5	/experiments/knapen_aot/videos/R_S_yt-JGKdBO2Ldzo_93.mp4	0.0	119.66587281227112	0.0667121410369873
12	29.72994089126587	response	0	2		10.0	2.5	/experiments/knapen_aot/videos/R_S_yt-JGKdBO2Ldzo_93.mp4	0.0	119.72437882423401	
12	29.738147020339966	movie	1		300.0	10.0	2.5	/experiments/knapen_aot/videos/R_S_yt-JGKdBO2Ldzo_93.mp4	0.0	119.7325849533081	2.5083279609680176
12	32.24647498130798	fix_post	2		12.0	10.0	2.5	/experiments/knapen_aot/videos/R_S_yt-JGKdBO2Ldzo_93.mp4	0.0	122.24091291427612	0.1001119613647461
13	32.34658694267273	fix_pre	0		10.0	11.0	2.5	/experiments/knapen_aot/videos/S_yt-FR_Y1Mm8BwQ_53.mp4	0.0	122.34102487564087	0.08333492279052734
13	32.42163300514221	response	0	2		11.0	2.5	/experiments/knapen_aot/videos/S_yt-FR_Y1Mm8BwQ_53.mp4	0.0	122.41607093811035	
13	32.42992186546326	movie	1		301.0	11.0	2.5	/experiments/knapen_aot/videos/S_yt-FR_Y1Mm8BwQ_53.mp4	0.0	122.4243597984314	2.5082240104675293
13	34.938145875930786	fix_post	2		12.0	11.0	2.5	/experiments/knapen_aot/videos/S_yt-FR_Y1Mm8BwQ_53.mp4	0.0	124.93258380889893	0.09999895095825195
14	35.03814482688904	fix_pre	0		25.0	12.0	2.5	/experiments/knapen_aot/videos/R_S_yt-WCT9dyz0-gQ_36.mp4	0.0	125.03258275985718	0.2083292007446289
14	35.23080587387085	response	0	2		12.0	2.5	/experiments/knapen_aot/videos/R_S_yt-WCT9dyz0-gQ_36.mp4	0.0	125.22524380683899	
14	35.24647402763367	movie	1		301.0	12.0	2.5	/experiments/knapen_aot/videos/R_S_yt-WCT9dyz0-gQ_36.mp4	0.0	125.2409119606018	2.508335828781128
14	37.754809856414795	fix_post	2		12.0	12.0	2.5	/experiments/knapen_aot/videos/R_S_yt-WCT9dyz0-gQ_36.mp4	0.0	127.74924778938293	0.09994697570800781
15	37.8547568321228	fix_pre	0		8.0	13.0	2.5	/experiments/knapen_aot/videos/S_yt-ObT9gF8E_tU_250.mp4	0.0	127.84919476509094	0.06822514533996582
15	37.90656805038452	response	0	2		13.0	2.5	/experiments/knapen_aot/videos/S_yt-ObT9gF8E_tU_250.mp4	0.0	127.90100598335266	
15	37.92298197746277	movie	1		301.0	13.0	2.5	/experiments/knapen_aot/videos/S_yt-ObT9gF8E_tU_250.mp4	0.0	127.91741991043091	2.5069310665130615
15	40.40489602088928	response	1	2		13.0	2.5	/experiments/knapen_aot/videos/S_yt-ObT9gF8E_tU_250.mp4	0.0	130.39933395385742	
15	40.42991304397583	fix_post	2		12.0	13.0	2.5	/experiments/knapen_aot/videos/S_yt-ObT9gF8E_tU_250.mp4	0.0	130.42435097694397	0.09989690780639648
16	40.52980995178223	fix_pre	0		21.0	14.0	2.5	blank	1.0	130.52424788475037	0.17498207092285156
16	40.696544885635376	response	0	2		14.0	2.5	blank	1.0	130.69098281860352	
16	40.70479202270508	movie	1		301.0	14.0	2.5	blank	1.0	130.69922995567322	2.508328914642334
16	43.21312093734741	fix_post	2		12.0	14.0	2.5	blank	1.0	133.20755887031555	0.10003089904785156
17	43.313151836395264	fix_pre	0		23.0	15.0	2.5	/experiments/knapen_aot/videos/S_comp_GMT314_139M_170NC_NORTH_AMERICA_AURORA__COMP_v22_SDR_20181206_v12CC_SDR_2K_AVC.mp4	0.0	133.3075897693634	0.19156312942504883
17	43.49650192260742	response	0	2		15.0	2.5	/experiments/knapen_aot/videos/S_comp_GMT314_139M_170NC_NORTH_AMERICA_AURORA__COMP_v22_SDR_20181206_v12CC_SDR_2K_AVC.mp4	0.0	133.49093985557556	
17	43.50471496582031	movie	1		167.0	15.0	2.5	/experiments/knapen_aot/videos/S_comp_GMT314_139M_170NC_NORTH_AMERICA_AURORA__COMP_v22_SDR_20181206_v12CC_SDR_2K_AVC.mp4	0.0	133.49915289878845	2.508436918258667
17	46.01315188407898	fix_post	2		12.0	15.0	2.5	/experiments/knapen_aot/videos/S_comp_GMT314_139M_170NC_NORTH_AMERICA_AURORA__COMP_v22_SDR_20181206_v12CC_SDR_2K_AVC.mp4	0.0	136.00758981704712	0.09991812705993652
17	46.097357988357544	response	2	2		15.0	2.5	/experiments/knapen_aot/videos/S_comp_GMT314_139M_170NC_NORTH_AMERICA_AURORA__COMP_v22_SDR_20181206_v12CC_SDR_2K_AVC.mp4	0.0	136.09179592132568	
18	46.113070011138916	fix_pre	0		33.0	16.0	2.5	/experiments/knapen_aot/videos/R_S_yt-BG-G7m5wLZ4_94.mp4	0.0	136.10750794410706	0.27502894401550293
18	46.37984585762024	response	0	2		16.0	2.5	/experiments/knapen_aot/videos/R_S_yt-BG-G7m5wLZ4_94.mp4	0.0	136.37428379058838	
18	46.38809895515442	movie	1		300.0	16.0	2.5	/experiments/knapen_aot/videos/R_S_yt-BG-G7m5wLZ4_94.mp4	0.0	136.38253688812256	2.508297920227051
18	48.89639687538147	fix_post	2		12.0	16.0	2.5	/experiments/knapen_aot/videos/R_S_yt-BG-G7m5wLZ4_94.mp4	0.0	138.8908348083496	0.09999203681945801
19	48.99638891220093	fix_pre	0		5.0	17.0	2.5	/experiments/knapen_aot/videos/S_yt-rZA9zXR-A6s_426.mp4	0.0	138.99082684516907	0.04163408279418945
19	49.022438049316406	response	0	2		17.0	2.5	/experiments/knapen_aot/videos/S_yt-rZA9zXR-A6s_426.mp4	0.0	139.01687598228455	
19	49.03802299499512	movie	1		301.0	17.0	2.5	/experiments/knapen_aot/videos/S_yt-rZA9zXR-A6s_426.mp4	0.0	139.03246092796326	2.5082778930664062
19	51.54630088806152	fix_post	2		12.0	17.0	2.5	/experiments/knapen_aot/videos/S_yt-rZA9zXR-A6s_426.mp4	0.0	141.54073882102966	0.1000521183013916
20	51.646353006362915	fix_pre	0		33.0	18.0	2.5	/experiments/knapen_aot/videos/R_S_yt-2l6VKd94eAI_151.mp4	0.0	141.64079093933105	0.27499890327453613
20	51.9131498336792	response	0	2		18.0	2.5	/experiments/knapen_aot/videos/R_S_yt-2l6VKd94eAI_151.mp4	0.0	141.90758776664734	
20	51.92135190963745	movie	1		301.0	18.0	2.5	/experiments/knapen_aot/videos/R_S_yt-2l6VKd94eAI_151.mp4	0.0	141.9157898426056	2.5083611011505127
20	54.429713010787964	fix_post	2		12.0	18.0	2.5	/experiments/knapen_aot/videos/R_S_yt-2l6VKd94eAI_151.mp4	0.0	144.4241509437561	0.10003781318664551
21	54.52975082397461	fix_pre	0		23.0	19.0	2.5	blank	1.0	144.52418875694275	0.1916341781616211
21	54.713194847106934	response	0	2		19.0	2.5	blank	1.0	144.70763278007507	
21	54.72138500213623	movie	1		301.0	19.0	2.5	blank	1.0	144.71582293510437	2.5082449913024902
21	57.22962999343872	fix_post	2		12.0	19.0	2.5	blank	1.0	147.22406792640686	0.10011982917785645
22	57.32974982261658	fix_pre	0		22.0	20.0	2.5	/experiments/knapen_aot/videos/S_yt-zlbtESb7Fcw_28.mp4	0.0	147.32418775558472	0.18326616287231445
22	57.49738597869873	response	0	2		20.0	2.5	/experiments/knapen_aot/videos/S_yt-zlbtESb7Fcw_28.mp4	0.0	147.49182391166687	
22	57.51301598548889	movie	1		301.0	20.0	2.5	/experiments/knapen_aot/videos/S_yt-zlbtESb7Fcw_28.mp4	0.0	147.50745391845703	2.5082828998565674
22	60.02129888534546	fix_post	2		12.0	20.0	2.5	/experiments/knapen_aot/videos/S_yt-zlbtESb7Fcw_28.mp4	0.0	150.0157368183136	0.09998393058776855
23	60.12128281593323	fix_pre	0		17.0	21.0	2.5	/experiments/knapen_aot/videos/R_S_yt-ObT9gF8E_tU_250.mp4	0.0	150.11572074890137	0.141707181930542
23	60.25481295585632	response	0	2		21.0	2.5	/experiments/knapen_aot/videos/R_S_yt-ObT9gF8E_tU_250.mp4	0.0	150.24925088882446	
23	60.26298999786377	movie	1		301.0	21.0	2.5	/experiments/knapen_aot/videos/R_S_yt-ObT9gF8E_tU_250.mp4	0.0	150.2574279308319	2.5083048343658447
23	62.771294832229614	fix_post	2		12.0	21.0	2.5	/experiments/knapen_aot/videos/R_S_yt-ObT9gF8E_tU_250.mp4	0.0	152.76573276519775	0.09995102882385254
24	62.87124586105347	fix_pre	0		7.0	22.0	2.5	/experiments/knapen_aot/videos/R_S_comp_GMT314_139M_170NC_NORTH_AMERICA_AURORA__COMP_v22_SDR_20181206_v12CC_SDR_2K_AVC.mp4	0.0	152.8656837940216	0.05857110023498535
24	62.92166590690613	response	0	2		22.0	2.5	/experiments/knapen_aot/videos/R_S_comp_GMT314_139M_170NC_NORTH_AMERICA_AURORA__COMP_v22_SDR_20181206_v12CC_SDR_2K_AVC.mp4	0.0	152.91610383987427	
24	62.92981696128845	movie	1		164.0	22.0	2.5	/experiments/knapen_aot/videos/R_S_comp_GMT314_139M_170NC_NORTH_AMERICA_AURORA__COMP_v22_SDR_20181206_v12CC_SDR_2K_AVC.mp4	0.0	152.9242548942566	2.508193016052246
24	65.4380099773407	fix_post	2		12.0	22.0	2.5	/experiments/knapen_aot/videos/R_S_comp_GMT314_139M_170NC_NORTH_AMERICA_AURORA__COMP_v22_SDR_20181206_v12CC_SDR_2K_AVC.mp4	0.0	155.43244791030884	0.09998393058776855
25	65.53799390792847	fix_pre	0		7.0	23.0	2.5	/experiments/knapen_aot/videos/S_yt-1H8sfkZGZK8_3.mp4	0.0	155.5324318408966	0.06665802001953125
25	65.58820796012878	response	0	2		23.0	2.5	/experiments/knapen_aot/videos/S_yt-1H8sfkZGZK8_3.mp4	0.0	155.58264589309692	
25	65.604651927948	movie	1		300.0	23.0	2.5	/experiments/knapen_aot/videos/S_yt-1H8sfkZGZK8_3.mp4	0.0	155.59908986091614	2.4999940395355225
25	68.10464596748352	fix_post	2		12.0	23.0	2.5	/experiments/knapen_aot/videos/S_yt-1H8sfkZGZK8_3.mp4	0.0	158.09908390045166	0.09998393058776855
26	68.20462989807129	fix_pre	0		22.0	24.0	2.5	/experiments/knapen_aot/videos/R_S_yt-JTVyt-eu4VI_1.mp4	0.0	158.19906783103943	0.1833641529083252
26	68.3797869682312	response	0	2		24.0	2.5	/experiments/knapen_aot/videos/R_S_yt-JTVyt-eu4VI_1.mp4	0.0	158.37422490119934	
26	68.38799405097961	movie	1		301.0	24.0	2.5	/experiments/knapen_aot/videos/R_S_yt-JTVyt-eu4VI_1.mp4	0.0	158.38243198394775	2.508204936981201
26	70.89619898796082	fix_post	2		12.0	24.0	2.5	/experiments/knapen_aot/videos/R_S_yt-JTVyt-eu4VI_1.mp4	0.0	160.89063692092896	0.10005688667297363
27	70.99625587463379	fix_pre	0		17.0	25.0	2.5	/experiments/knapen_aot/videos/S_yt-ObT9gF8E_tU_250.mp4	0.0	160.99069380760193	0.14172601699829102
27	71.12980794906616	response	0	2		25.0	2.5	/experiments/knapen_aot/videos/S_yt-ObT9gF8E_tU_250.mp4	0.0	161.1242458820343	
27	71.13798189163208	movie	1		301.0	25.0	2.5	/experiments/knapen_aot/videos/S_yt-ObT9gF8E_tU_250.mp4	0.0	161.13241982460022	2.5082180500030518
27	73.64619994163513	fix_post	2		12.0	25.0	2.5	/experiments/knapen_aot/videos/S_yt-ObT9gF8E_tU_250.mp4	0.0	163.64063787460327	0.10007596015930176
28	73.74627590179443	fix_pre	0		8.0	26.0	2.5	blank	1.0	163.74071383476257	0.06669306755065918
28	73.80479288101196	response	0	2		26.0	2.5	blank	1.0	163.7992308139801	
28	73.81296896934509	movie	1		301.0	26.0	2.5	blank	1.0	163.80740690231323	2.508233070373535
28	76.32120203971863	fix_post	2		12.0	26.0	2.5	blank	1.0	166.31563997268677	0.10002779960632324
29	76.42122983932495	fix_pre	0		19.0	27.0	2.5	/experiments/knapen_aot/videos/R_S_yt-YEiNSML5iiQ_18.mp4	0.0	166.4156677722931	0.15836119651794434
29	76.57136392593384	response	0	2		27.0	2.5	/experiments/knapen_aot/videos/R_S_yt-YEiNSML5iiQ_18.mp4	0.0	166.56580185890198	
29	76.5795910358429	movie	1		301.0	27.0	2.5	/experiments/knapen_aot/videos/R_S_yt-YEiNSML5iiQ_18.mp4	0.0	166.57402896881104	2.5083088874816895
29	79.08789992332458	fix_post	2		12.0	27.0	2.5	/experiments/knapen_aot/videos/R_S_yt-YEiNSML5iiQ_18.mp4	0.0	169.08233785629272	0.10001206398010254
30	79.18791198730469	fix_pre	0		6.0	28.0	2.5	/experiments/knapen_aot/videos/S_yt-HMAa2QbfFPI_216.mp4	0.0	169.18234992027283	0.05004692077636719
30	79.22297692298889	response	0	2		28.0	2.5	/experiments/knapen_aot/videos/S_yt-HMAa2QbfFPI_216.mp4	0.0	169.21741485595703	
30	79.23795890808105	movie	1		301.0	28.0	2.5	/experiments/knapen_aot/videos/S_yt-HMAa2QbfFPI_216.mp4	0.0	169.2323968410492	2.5082550048828125
30	81.74621391296387	fix_post	2		12.0	28.0	2.5	/experiments/knapen_aot/videos/S_yt-HMAa2QbfFPI_216.mp4	0.0	171.740651845932	0.1000220775604248
31	81.84623599052429	fix_pre	0		18.0	29.0	2.5	/experiments/knapen_aot/videos/R_S_pexels-mart-production-7698693.mp4	0.0	171.84067392349243	0.15004801750183105
31	81.98808884620667	response	0	2		29.0	2.5	/experiments/knapen_aot/videos/R_S_pexels-mart-production-7698693.mp4	0.0	171.9825267791748	
31	81.99628400802612	movie	1		197.0	29.0	2.5	/experiments/knapen_aot/videos/R_S_pexels-mart-production-7698693.mp4	0.0	171.99072194099426	2.5083088874816895
31	84.50459289550781	fix_post	2		12.0	29.0	2.5	/experiments/knapen_aot/videos/R_S_pexels-mart-production-7698693.mp4	0.0	174.49903082847595	0.09995007514953613
32	84.60454297065735	fix_pre	0		24.0	30.0	2.5	/experiments/knapen_aot/videos/R_S_yt--DXkjCUzThU_413.mp4	0.0	174.5989809036255	0.19998598098754883
32	84.79639887809753	response	0	2		30.0	2.5	/experiments/knapen_aot/videos/R_S_yt--DXkjCUzThU_413.mp4	0.0	174.79083681106567	
32	84.8045289516449	movie	1		301.0	30.0	2.5	/experiments/knapen_aot/videos/R_S_yt--DXkjCUzThU_413.mp4	0.0	174.79896688461304	2.508410930633545
32	87.31293988227844	fix_post	2		12.0	30.0	2.5	/experiments/knapen_aot/videos/R_S_yt--DXkjCUzThU_413.mp4	0.0	177.30737781524658	0.10001707077026367
33	87.4129569530487	fix_pre	0		38.0	31.0	2.5	/experiments/knapen_aot/videos/S_pexels-mart-production-7698911_1.mp4	0.0	177.40739488601685	0.31662797927856445
33	87.72133183479309	response	0	2		31.0	2.5	/experiments/knapen_aot/videos/S_pexels-mart-production-7698911_1.mp4	0.0	177.71576976776123	
33	87.72958493232727	movie	1		211.0	31.0	2.5	/experiments/knapen_aot/videos/S_pexels-mart-production-7698911_1.mp4	0.0	177.7240228652954	2.5082850456237793
33	90.23786997795105	fix_post	2		12.0	31.0	2.5	/experiments/knapen_aot/videos/S_pexels-mart-production-7698911_1.mp4	0.0	180.2323079109192	0.10125184059143066
34	90.33912181854248	fix_pre	0		65.0	32.0	2.5	/experiments/knapen_aot/videos/S_production_ID_5020960.mp4	0.0	180.33355975151062	0.5416111946105957
34	90.87273097038269	response	0	2		32.0	2.5	/experiments/knapen_aot/videos/S_production_ID_5020960.mp4	0.0	180.86716890335083	
34	90.88073301315308	movie	1		198.0	32.0	2.5	/experiments/knapen_aot/videos/S_production_ID_5020960.mp4	0.0	180.87517094612122	2.5071239471435547
34	93.38785696029663	fix_post	2		12.0	32.0	2.5	/experiments/knapen_aot/videos/S_production_ID_5020960.mp4	0.0	183.38229489326477	0.0999600887298584
35	93.48781704902649	fix_pre	0		26.0	33.0	2.5	blank	1.0	183.48225498199463	0.216688871383667
35	93.6963198184967	response	0	2		33.0	2.5	blank	1.0	183.69075775146484	
35	93.70450592041016	movie	1		301.0	33.0	2.5	blank	1.0	183.6989438533783	2.508323907852173
35	96.21282982826233	fix_post	2		12.0	33.0	2.5	blank	1.0	186.20726776123047	0.09998703002929688
36	96.31281685829163	fix_pre	0		20.0	34.0	2.5	/experiments/knapen_aot/videos/S_yt-eczLsCTIyn0_553.mp4	0.0	186.30725479125977	0.16662812232971191
36	96.47134685516357	response	0	2		34.0	2.5	/experiments/knapen_aot/videos/S_yt-eczLsCTIyn0_553.mp4	0.0	186.4657847881317	
36	96.47944498062134	movie	1		301.0	34.0	2.5	/experiments/knapen_aot/videos/S_yt-eczLsCTIyn0_553.mp4	0.0	186.47388291358948	2.508327007293701
36	98.98777198791504	fix_post	2		12.0	34.0	2.5	/experiments/knapen_aot/videos/S_yt-eczLsCTIyn0_553.mp4	0.0	188.98220992088318	0.10007095336914062
37	99.08784294128418	fix_pre	0		16.0	35.0	2.5	/experiments/knapen_aot/videos/R_S_yt-2XRGfGc0q44_37.mp4	0.0	189.08228087425232	0.13336610794067383
37	99.2129168510437	response	0	2		35.0	2.5	/experiments/knapen_aot/videos/R_S_yt-2XRGfGc0q44_37.mp4	0.0	189.20735478401184	
37	99.22120904922485	movie	1		300.0	35.0	2.5	/experiments/knapen_aot/videos/R_S_yt-2XRGfGc0q44_37.mp4	0.0	189.215646982193	2.5083329677581787
37	101.72954201698303	fix_post	2		12.0	35.0	2.5	/experiments/knapen_aot/videos/R_S_yt-2XRGfGc0q44_37.mp4	0.0	191.72397994995117	0.09998703002929688
38	101.82952904701233	fix_pre	0		9.0	36.0	2.5	/experiments/knapen_aot/videos/R_S_video_inspire_oregon_portland_00064.1080-h264.mp4	0.0	191.82396697998047	0.07501983642578125
38	101.8962938785553	response	0	2		36.0	2.5	/experiments/knapen_aot/videos/R_S_video_inspire_oregon_portland_00064.1080-h264.mp4	0.0	191.89073181152344	
38	101.90454888343811	movie	1		172.0	36.0	2.5	/experiments/knapen_aot/videos/R_S_video_inspire_oregon_portland_00064.1080-h264.mp4	0.0	191.89898681640625	2.5082690715789795
38	104.41281795501709	fix_post	2		12.0	36.0	2.5	/experiments/knapen_aot/videos/R_S_video_inspire_oregon_portland_00064.1080-h264.mp4	0.0	194.40725588798523	0.10007286071777344
38	104.44646501541138	response	2	2		36.0	2.5	/experiments/knapen_aot/videos/R_S_video_inspire_oregon_portland_00064.1080-h264.mp4	0.0	194.44090294837952	
39	104.51289081573486	fix_pre	0		28.0	37.0	2.5	/experiments/knapen_aot/videos/S_yt-2LCHVTVwJ5E_235.mp4	0.0	194.507328748703	0.2332911491394043
39	104.73795700073242	response	0	2		37.0	2.5	/experiments/knapen_aot/videos/S_yt-2LCHVTVwJ5E_235.mp4	0.0	194.73239493370056	
39	104.74618196487427	movie	1		301.0	37.0	2.5	/experiments/knapen_aot/videos/S_yt-2LCHVTVwJ5E_235.mp4	0.0	194.7406198978424	2.508354902267456
39	107.25453686714172	fix_post	2		12.0	37.0	2.5	/experiments/knapen_aot/videos/S_yt-2LCHVTVwJ5E_235.mp4	0.0	197.24897480010986	0.10002398490905762
40	107.35456085205078	fix_pre	0		15.0	38.0	2.5	/experiments/knapen_aot/videos/R_S_comp_A108_C001_v09_SDR_FINAL_22062018_SDR_2K_AVC.mp4	0.0	197.34899878501892	0.12489819526672363
40	107.4712278842926	response	0	2		38.0	2.5	/experiments/knapen_aot/videos/R_S_comp_A108_C001_v09_SDR_FINAL_22062018_SDR_2K_AVC.mp4	0.0	197.46566581726074	
40	107.4794590473175	movie	1		179.0	38.0	2.5	/experiments/knapen_aot/videos/R_S_comp_A108_C001_v09_SDR_FINAL_22062018_SDR_2K_AVC.mp4	0.0	197.47389698028564	2.5083417892456055
40	109.98780083656311	fix_post	2		12.0	38.0	2.5	/experiments/knapen_aot/videos/R_S_comp_A108_C001_v09_SDR_FINAL_22062018_SDR_2K_AVC.mp4	0.0	199.98223876953125	0.09998703002929688
40	110.07115697860718	response	2	2		38.0	2.5	/experiments/knapen_aot/videos/R_S_comp_A108_C001_v09_SDR_FINAL_22062018_SDR_2K_AVC.mp4	0.0	200.06559491157532	
41	110.08778786659241	fix_pre	0		31.0	39.0	2.5	/experiments/knapen_aot/videos/S_comp_L010_C006_PS_v01_SDR_PS_20180925_SDR_2K_AVC.mp4	0.0	200.08222579956055	0.2582821846008301
41	110.33790683746338	response	0	2		39.0	2.5	/experiments/knapen_aot/videos/S_comp_L010_C006_PS_v01_SDR_PS_20180925_SDR_2K_AVC.mp4	0.0	200.33234477043152	
41	110.34607005119324	movie	1		168.0	39.0	2.5	/experiments/knapen_aot/videos/S_comp_L010_C006_PS_v01_SDR_PS_20180925_SDR_2K_AVC.mp4	0.0	200.34050798416138	2.5083439350128174
41	112.85441398620605	fix_post	2		12.0	39.0	2.5	/experiments/knapen_aot/videos/S_comp_L010_C006_PS_v01_SDR_PS_20180925_SDR_2K_AVC.mp4	0.0	202.8488519191742	0.1000070571899414
42	112.954421043396	fix_pre	0		16.0	40.0	2.5	/experiments/knapen_aot/videos/S_yt-lGQ3wMI5-Yg_140.mp4	0.0	202.94885897636414	0.13446998596191406
42	113.07949995994568	response	0	2		40.0	2.5	/experiments/knapen_aot/videos/S_yt-lGQ3wMI5-Yg_140.mp4	0.0	203.07393789291382	
42	113.08889102935791	movie	1		301.0	40.0	2.5	/experiments/knapen_aot/videos/S_yt-lGQ3wMI5-Yg_140.mp4	0.0	203.08332896232605	2.507201910018921
42	115.59609293937683	fix_post	2		12.0	40.0	2.5	/experiments/knapen_aot/videos/S_yt-lGQ3wMI5-Yg_140.mp4	0.0	205.59053087234497	0.09990596771240234
43	115.69599890708923	fix_pre	0		13.0	41.0	2.5	blank	1.0	205.69043684005737	0.10838103294372559
43	115.78867387771606	response	0	2		41.0	2.5	blank	1.0	205.7831118106842	
43	115.80437994003296	movie	1		301.0	41.0	2.5	blank	1.0	205.7988178730011	2.5083839893341064
43	118.31276392936707	fix_post	2		12.0	41.0	2.5	blank	1.0	208.3072018623352	0.10001993179321289
44	118.41278386116028	fix_pre	0		32.0	42.0	2.5	/experiments/knapen_aot/videos/R_S_yt-n1snPiGfg0A_45.mp4	0.0	208.40722179412842	0.26659703254699707
44	118.67120885848999	response	0	2		42.0	2.5	/experiments/knapen_aot/videos/R_S_yt-n1snPiGfg0A_45.mp4	0.0	208.66564679145813	
44	118.67938089370728	movie	1		299.0	42.0	2.5	/experiments/knapen_aot/videos/R_S_yt-n1snPiGfg0A_45.mp4	0.0	208.67381882667542	2.508273124694824
44	121.1876540184021	fix_post	2		12.0	42.0	2.5	/experiments/knapen_aot/videos/R_S_yt-n1snPiGfg0A_45.mp4	0.0	211.18209195137024	0.10010385513305664
45	121.28775787353516	fix_pre	0		26.0	43.0	2.5	/experiments/knapen_aot/videos/S_video_inspire_oregon_portland_00064.1080-h264.mp4	0.0	211.2821958065033	0.2177140712738037
45	121.49623584747314	response	0	2		43.0	2.5	/experiments/knapen_aot/videos/S_video_inspire_oregon_portland_00064.1080-h264.mp4	0.0	211.49067378044128	
45	121.50547194480896	movie	1		167.0	43.0	2.5	/experiments/knapen_aot/videos/S_video_inspire_oregon_portland_00064.1080-h264.mp4	0.0	211.4999098777771	2.5072519779205322
45	124.01272392272949	fix_post	2		12.0	43.0	2.5	/experiments/knapen_aot/videos/S_video_inspire_oregon_portland_00064.1080-h264.mp4	0.0	214.00716185569763	0.10000300407409668
45	124.09619188308716	response	2	2		43.0	2.5	/experiments/knapen_aot/videos/S_video_inspire_oregon_portland_00064.1080-h264.mp4	0.0	214.0906298160553	
46	124.11272692680359	fix_pre	0		35.0	44.0	2.5	/experiments/knapen_aot/videos/S_yt-1RVw8p6Dw2Q_20.mp4	0.0	214.10716485977173	0.2916440963745117
46	124.39618992805481	response	0	2		44.0	2.5	/experiments/knapen_aot/videos/S_yt-1RVw8p6Dw2Q_20.mp4	0.0	214.39062786102295	
46	124.4043710231781	movie	1		301.0	44.0	2.5	/experiments/knapen_aot/videos/S_yt-1RVw8p6Dw2Q_20.mp4	0.0	214.39880895614624	2.508389949798584
46	126.91276097297668	fix_post	2		12.0	44.0	2.5	/experiments/knapen_aot/videos/S_yt-1RVw8p6Dw2Q_20.mp4	0.0	216.90719890594482	0.09995603561401367
47	127.0127170085907	fix_pre	0		17.0	45.0	2.5	/experiments/knapen_aot/videos/S_yt--Ra34zJ69AU_68.mp4	0.0	217.00715494155884	0.14162898063659668
47	127.14611387252808	response	0	2		45.0	2.5	/experiments/knapen_aot/videos/S_yt--Ra34zJ69AU_68.mp4	0.0	217.14055180549622	
47	127.1543459892273	movie	1		301.0	45.0	2.5	/experiments/knapen_aot/videos/S_yt--Ra34zJ69AU_68.mp4	0.0	217.14878392219543	2.5083539485931396
47	129.66269993782043	fix_post	2		12.0	45.0	2.5	/experiments/knapen_aot/videos/S_yt--Ra34zJ69AU_68.mp4	0.0	219.65713787078857	0.10002303123474121
48	129.76272296905518	fix_pre	0		22.0	46.0	2.5	/experiments/knapen_aot/videos/R_S_yt-eF5J5Kjt6oY_23.mp4	0.0	219.75716090202332	0.18322491645812988
48	129.93787503242493	response	0	2		46.0	2.5	/experiments/knapen_aot/videos/R_S_yt-eF5J5Kjt6oY_23.mp4	0.0	219.93231296539307	
48	129.9459478855133	movie	1		300.0	46.0	2.5	/experiments/knapen_aot/videos/R_S_yt-eF5J5Kjt6oY_23.mp4	0.0	219.94038581848145	2.508423089981079
48	132.45437097549438	fix_post	2		12.0	46.0	2.5	/experiments/knapen_aot/videos/R_S_yt-eF5J5Kjt6oY_23.mp4	0.0	222.44880890846252	0.0999598503112793
49	132.55433082580566	fix_pre	0		2.0	47.0	2.5	/experiments/knapen_aot/videos/R_S_ILSVRC2015_train_00417000.mp4	0.0	222.5487687587738	0.01669621467590332
49	132.56282496452332	response	0	2		47.0	2.5	/experiments/knapen_aot/videos/R_S_ILSVRC2015_train_00417000.mp4	0.0	222.55726289749146	
49	132.57102704048157	movie	1		301.0	47.0	2.5	/experiments/knapen_aot/videos/R_S_ILSVRC2015_train_00417000.mp4	0.0	222.5654649734497	2.5082879066467285
49	135.0793149471283	fix_post	2		12.0	47.0	2.5	/experiments/knapen_aot/videos/R_S_ILSVRC2015_train_00417000.mp4	0.0	225.07375288009644	0.09999299049377441
49	135.13858890533447	response	2	2		47.0	2.5	/experiments/knapen_aot/videos/R_S_ILSVRC2015_train_00417000.mp4	0.0	225.1330268383026	
50	135.17930793762207	fix_pre	0		28.0	48.0	2.5	blank	1.0	225.1737458705902	0.23336291313171387
50	135.404443025589	response	0	2		48.0	2.5	blank	1.0	225.39888095855713	
50	135.41267085075378	movie	1		301.0	48.0	2.5	blank	1.0	225.40710878372192	2.508357048034668
50	137.92102789878845	fix_post	2		12.0	48.0	2.5	blank	1.0	227.9154658317566	0.09993100166320801
51	138.02095890045166	fix_pre	0		18.0	49.0	2.5	/experiments/knapen_aot/videos/S_yt-n1snPiGfg0A_45.mp4	0.0	228.0153968334198	0.1510019302368164
51	138.16277599334717	response	0	2		49.0	2.5	/experiments/knapen_aot/videos/S_yt-n1snPiGfg0A_45.mp4	0.0	228.1572139263153	
51	138.17196083068848	movie	1		300.0	49.0	2.5	/experiments/knapen_aot/videos/S_yt-n1snPiGfg0A_45.mp4	0.0	228.16639876365662	2.5073530673980713
51	140.67931389808655	fix_post	2		12.0	49.0	2.5	/experiments/knapen_aot/videos/S_yt-n1snPiGfg0A_45.mp4	0.0	230.6737518310547	0.09992814064025879
52	140.7792420387268	fix_pre	0		8.0	50.0	2.5	/experiments/knapen_aot/videos/R_S_yt-y-boY803u9A_12.mp4	0.0	230.77367997169495	0.0667719841003418
52	140.83773183822632	response	0	2		50.0	2.5	/experiments/knapen_aot/videos/R_S_yt-y-boY803u9A_12.mp4	0.0	230.83216977119446	
52	140.84601402282715	movie	1		301.0	50.0	2.5	/experiments/knapen_aot/videos/R_S_yt-y-boY803u9A_12.mp4	0.0	230.8404519557953	2.508270025253296
52	143.35428404808044	fix_post	2		12.0	50.0	2.5	/experiments/knapen_aot/videos/R_S_yt-y-boY803u9A_12.mp4	0.0	233.34872198104858	0.09993886947631836
53	143.45422291755676	fix_pre	0		11.0	51.0	2.5	/experiments/knapen_aot/videos/S_yt-V35ubrbe8gA_86.mp4	0.0	233.4486608505249	0.09266400337219238
53	143.53773283958435	response	0	2		51.0	2.5	/experiments/knapen_aot/videos/S_yt-V35ubrbe8gA_86.mp4	0.0	233.5321707725525	
53	143.54688692092896	movie	1		301.0	51.0	2.5	/experiments/knapen_aot/videos/S_yt-V35ubrbe8gA_86.mp4	0.0	233.5413248538971	2.5074219703674316
53	146.0543088912964	fix_post	2		12.0	51.0	2.5	/experiments/knapen_aot/videos/S_yt-V35ubrbe8gA_86.mp4	0.0	236.04874682426453	0.09998607635498047
54	146.15429496765137	fix_pre	0		16.0	52.0	2.5	/experiments/knapen_aot/videos/S_yt-NqyG4Ar2JWo_10.mp4	0.0	236.1487329006195	0.13332486152648926
54	146.2719738483429	response	0	2		52.0	2.5	/experiments/knapen_aot/videos/S_yt-NqyG4Ar2JWo_10.mp4	0.0	236.26641178131104	
54	146.28761982917786	movie	1		301.0	52.0	2.5	/experiments/knapen_aot/videos/S_yt-NqyG4Ar2JWo_10.mp4	0.0	236.282057762146	2.5083580017089844
54	148.79597783088684	fix_post	2		12.0	52.0	2.5	/experiments/knapen_aot/videos/S_yt-NqyG4Ar2JWo_10.mp4	0.0	238.79041576385498	0.09992504119873047
55	148.89590287208557	fix_pre	0		14.0	53.0	2.5	/experiments/knapen_aot/videos/R_S_goAwcQiFu1Q_99.mp4	0.0	238.8903408050537	0.11668896675109863
55	149.00447583198547	response	0	2		53.0	2.5	/experiments/knapen_aot/videos/R_S_goAwcQiFu1Q_99.mp4	0.0	238.9989137649536	
55	149.01259183883667	movie	1		301.0	53.0	2.5	/experiments/knapen_aot/videos/R_S_goAwcQiFu1Q_99.mp4	0.0	239.0070297718048	2.5082881450653076
55	151.52087998390198	fix_post	2		12.0	53.0	2.5	/experiments/knapen_aot/videos/R_S_goAwcQiFu1Q_99.mp4	0.0	241.51531791687012	0.10014986991882324
56	151.6210298538208	fix_pre	0		5.0	54.0	2.5	/experiments/knapen_aot/videos/R_S_production_ID_4720614.mp4	0.0	241.61546778678894	0.041596174240112305
56	151.65438604354858	response	0	2		54.0	2.5	/experiments/knapen_aot/videos/R_S_production_ID_4720614.mp4	0.0	241.64882397651672	
56	151.6626260280609	movie	1		197.0	54.0	2.5	/experiments/knapen_aot/videos/R_S_production_ID_4720614.mp4	0.0	241.65706396102905	2.5083518028259277
56	154.17097783088684	fix_post	2		12.0	54.0	2.5	/experiments/knapen_aot/videos/R_S_production_ID_4720614.mp4	0.0	244.16541576385498	0.09997701644897461
57	154.27095484733582	fix_pre	0		12.0	55.0	2.5	blank	1.0	244.26539278030396	0.10003805160522461
57	154.36277389526367	response	0	2		55.0	2.5	blank	1.0	244.3572118282318	
57	154.37099289894104	movie	1		301.0	55.0	2.5	blank	1.0	244.36543083190918	2.50823712348938
57	156.87923002243042	fix_post	2		12.0	55.0	2.5	blank	1.0	246.87366795539856	0.09999394416809082
58	156.9792239665985	fix_pre	0		21.0	56.0	2.5	/experiments/knapen_aot/videos/S_yt-vQ-rd-1gwH4_238.mp4	0.0	246.97366189956665	0.1750168800354004
58	157.14595484733582	response	0	2		56.0	2.5	/experiments/knapen_aot/videos/S_yt-vQ-rd-1gwH4_238.mp4	0.0	247.14039278030396	
58	157.1542408466339	movie	1		301.0	56.0	2.5	/experiments/knapen_aot/videos/S_yt-vQ-rd-1gwH4_238.mp4	0.0	247.14867877960205	2.508357048034668
58	159.66259789466858	fix_post	2		12.0	56.0	2.5	/experiments/knapen_aot/videos/S_yt-vQ-rd-1gwH4_238.mp4	0.0	249.65703582763672	0.10003304481506348
59	159.76263093948364	fix_pre	0		30.0	57.0	2.5	/experiments/knapen_aot/videos/R_S_yt-STL3ejY9u_Q_73.mp4	0.0	249.75706887245178	0.24996495246887207
59	160.00432801246643	response	0	2		57.0	2.5	/experiments/knapen_aot/videos/R_S_yt-STL3ejY9u_Q_73.mp4	0.0	249.99876594543457	
59	160.01259589195251	movie	1		300.0	57.0	2.5	/experiments/knapen_aot/videos/R_S_yt-STL3ejY9u_Q_73.mp4	0.0	250.00703382492065	2.508258104324341
59	162.52085399627686	fix_post	2		12.0	57.0	2.5	/experiments/knapen_aot/videos/R_S_yt-STL3ejY9u_Q_73.mp4	0.0	252.515291929245	0.10000991821289062
60	162.62086391448975	fix_pre	0		19.0	58.0	2.5	/experiments/knapen_aot/videos/R_S_yt-2dRSJcaJIXw_32.mp4	0.0	252.61530184745789	0.15834593772888184
60	162.77090692520142	response	0	2		58.0	2.5	/experiments/knapen_aot/videos/R_S_yt-2dRSJcaJIXw_32.mp4	0.0	252.76534485816956	
60	162.77920985221863	movie	1		301.0	58.0	2.5	/experiments/knapen_aot/videos/R_S_yt-2dRSJcaJIXw_32.mp4	0.0	252.77364778518677	2.5083541870117188
60	165.28756403923035	fix_post	2		12.0	58.0	2.5	/experiments/knapen_aot/videos/R_S_yt-2dRSJcaJIXw_32.mp4	0.0	255.2820019721985	0.10007095336914062
61	165.3876349925995	fix_pre	0		14.0	59.0	2.5	/experiments/knapen_aot/videos/S_yt-RKo978aBdzw_173.mp4	0.0	255.38207292556763	0.11739492416381836
61	165.4960060119629	response	0	2		59.0	2.5	/experiments/knapen_aot/videos/S_yt-RKo978aBdzw_173.mp4	0.0	255.49044394493103	
61	165.5050299167633	movie	1		301.0	59.0	2.5	/experiments/knapen_aot/videos/S_yt-RKo978aBdzw_173.mp4	0.0	255.49946784973145	2.507519006729126
61	168.01254892349243	fix_post	2		12.0	59.0	2.5	/experiments/knapen_aot/videos/S_yt-RKo978aBdzw_173.mp4	0.0	258.00698685646057	0.10015106201171875
62	168.11269998550415	fix_pre	0		14.0	60.0	2.5	/experiments/knapen_aot/videos/S_pexels-mart-production-7698693.mp4	0.0	258.1071379184723	0.11648893356323242
62	168.2209758758545	response	0	2		60.0	2.5	/experiments/knapen_aot/videos/S_pexels-mart-production-7698693.mp4	0.0	258.21541380882263	
62	168.22918891906738	movie	1		191.0	60.0	2.5	/experiments/knapen_aot/videos/S_pexels-mart-production-7698693.mp4	0.0	258.2236268520355	2.5082991123199463
62	170.73748803138733	fix_post	2		12.0	60.0	2.5	/experiments/knapen_aot/videos/S_pexels-mart-production-7698693.mp4	0.0	260.73192596435547	0.10001778602600098
63	170.83750581741333	fix_pre	0		21.0	61.0	2.5	/experiments/knapen_aot/videos/R_S_comp_L010_C006_PS_v01_SDR_PS_20180925_SDR_2K_AVC.mp4	0.0	260.83194375038147	0.1749720573425293
63	171.00434494018555	response	0	2		61.0	2.5	/experiments/knapen_aot/videos/R_S_comp_L010_C006_PS_v01_SDR_PS_20180925_SDR_2K_AVC.mp4	0.0	260.9987828731537	
63	171.01247787475586	movie	1		168.0	61.0	2.5	/experiments/knapen_aot/videos/R_S_comp_L010_C006_PS_v01_SDR_PS_20180925_SDR_2K_AVC.mp4	0.0	261.006915807724	2.5083601474761963
63	173.52083802223206	fix_post	2		12.0	61.0	2.5	/experiments/knapen_aot/videos/R_S_comp_L010_C006_PS_v01_SDR_PS_20180925_SDR_2K_AVC.mp4	0.0	263.5152759552002	0.09998202323913574
64	173.6208200454712	fix_pre	0		11.0	62.0	2.5	blank	1.0	263.61525797843933	0.09249186515808105
64	173.70433402061462	response	0	2		62.0	2.5	blank	1.0	263.69877195358276	
64	173.71331191062927	movie	1		301.0	62.0	2.5	blank	1.0	263.7077498435974	2.507568120956421
64	176.2208800315857	fix_post	2		12.0	62.0	2.5	blank	1.0	266.21531796455383	0.10010385513305664
65	176.32098388671875	fix_pre	0		12.0	63.0	2.5	/experiments/knapen_aot/videos/R_S_yt-zSSnQYeO_DE_338.mp4	0.0	266.3154218196869	0.10061907768249512
65	176.41264390945435	response	0	2		63.0	2.5	/experiments/knapen_aot/videos/R_S_yt-zSSnQYeO_DE_338.mp4	0.0	266.4070818424225	
65	176.42160296440125	movie	1		301.0	63.0	2.5	/experiments/knapen_aot/videos/R_S_yt-zSSnQYeO_DE_338.mp4	0.0	266.4160408973694	2.5075080394744873
65	178.92911100387573	fix_post	2		12.0	63.0	2.5	/experiments/knapen_aot/videos/R_S_yt-zSSnQYeO_DE_338.mp4	0.0	268.9235489368439	0.10001492500305176
66	179.02912592887878	fix_pre	0		16.0	64.0	2.5	/experiments/knapen_aot/videos/S_ILSVRC2015_train_00044004.mp4	0.0	269.0235638618469	0.1333930492401123
66	179.15426397323608	response	0	2		64.0	2.5	/experiments/knapen_aot/videos/S_ILSVRC2015_train_00044004.mp4	0.0	269.1487019062042	
66	179.1625189781189	movie	1		298.0	64.0	2.5	/experiments/knapen_aot/videos/S_ILSVRC2015_train_00044004.mp4	0.0	269.15695691108704	2.508302927017212
66	181.6708219051361	fix_post	2		12.0	64.0	2.5	/experiments/knapen_aot/videos/S_ILSVRC2015_train_00044004.mp4	0.0	271.66525983810425	0.10001611709594727
67	181.77083802223206	fix_pre	0		2.0	65.0	2.5	/experiments/knapen_aot/videos/S_yt-GaJaxp546lc_22.mp4	0.0	271.7652759552002	0.016633987426757812
67	181.77333402633667	response	0	2		65.0	2.5	/experiments/knapen_aot/videos/S_yt-GaJaxp546lc_22.mp4	0.0	271.7677719593048	
67	181.7874720096588	movie	1		301.0	65.0	2.5	/experiments/knapen_aot/videos/S_yt-GaJaxp546lc_22.mp4	0.0	271.78190994262695	2.5082948207855225
67	184.29576683044434	fix_post	2		12.0	65.0	2.5	/experiments/knapen_aot/videos/S_yt-GaJaxp546lc_22.mp4	0.0	274.2902047634125	0.10005807876586914
68	184.3958249092102	fix_pre	0		25.0	66.0	2.5	/experiments/knapen_aot/videos/S_S006_C007_SDR_2K_AVC.mp4	0.0	274.39026284217834	0.20834994316101074
68	184.5959448814392	response	0	2		66.0	2.5	/experiments/knapen_aot/videos/S_S006_C007_SDR_2K_AVC.mp4	0.0	274.59038281440735	
68	184.60417485237122	movie	1		162.0	66.0	2.5	/experiments/knapen_aot/videos/S_S006_C007_SDR_2K_AVC.mp4	0.0	274.59861278533936	2.5082240104675293
68	187.11239886283875	fix_post	2		12.0	66.0	2.5	/experiments/knapen_aot/videos/S_S006_C007_SDR_2K_AVC.mp4	0.0	277.1068367958069	0.09999608993530273
69	187.21239495277405	fix_pre	0		10.0	67.0	2.5	/experiments/knapen_aot/videos/S_comp_A103_C002_0205DG_v12_SDR_FINAL_20180706_SDR_2K_AVC.mp4	0.0	277.2068328857422	0.08411908149719238
69	187.287672996521	response	0	2		67.0	2.5	/experiments/knapen_aot/videos/S_comp_A103_C002_0205DG_v12_SDR_FINAL_20180706_SDR_2K_AVC.mp4	0.0	277.28211092948914	
69	187.29651403427124	movie	1		165.0	67.0	2.5	/experiments/knapen_aot/videos/S_comp_A103_C002_0205DG_v12_SDR_FINAL_20180706_SDR_2K_AVC.mp4	0.0	277.2909519672394	2.507629871368408
69	189.80414390563965	fix_post	2		12.0	67.0	2.5	/experiments/knapen_aot/videos/S_comp_A103_C002_0205DG_v12_SDR_FINAL_20180706_SDR_2K_AVC.mp4	0.0	279.7985818386078	0.10000491142272949
70	189.90414881706238	fix_pre	0		15.0	68.0	2.5	blank	1.0	279.8985867500305	0.12495207786560059
70	190.01342701911926	response	0	2		68.0	2.5	blank	1.0	280.0078649520874	
70	190.02910089492798	movie	1		301.0	68.0	2.5	blank	1.0	280.0235388278961	2.508291006088257
70	192.53739190101624	fix_post	2		12.0	68.0	2.5	blank	1.0	282.5318298339844	0.10000014305114746
71	192.63739204406738	fix_pre	0		23.0	69.0	2.5	/experiments/knapen_aot/videos/R_S_yt-rZA9zXR-A6s_426.mp4	0.0	282.6318299770355	0.19168686866760254
71	192.82086396217346	response	0	2		69.0	2.5	/experiments/knapen_aot/videos/R_S_yt-rZA9zXR-A6s_426.mp4	0.0	282.8153018951416	
71	192.82907891273499	movie	1		301.0	69.0	2.5	/experiments/knapen_aot/videos/R_S_yt-rZA9zXR-A6s_426.mp4	0.0	282.8235168457031	2.508333921432495
71	195.33741283416748	fix_post	2		12.0	69.0	2.5	/experiments/knapen_aot/videos/R_S_yt-rZA9zXR-A6s_426.mp4	0.0	285.3318507671356	0.09990215301513672
72	195.43731498718262	fix_pre	0		16.0	70.0	2.5	/experiments/knapen_aot/videos/S_yt-wz2opOBqClo_14.mp4	0.0	285.43175292015076	0.13339686393737793
72	195.56252098083496	response	0	2		70.0	2.5	/experiments/knapen_aot/videos/S_yt-wz2opOBqClo_14.mp4	0.0	285.5569589138031	
72	195.57071185112	movie	1		299.0	70.0	2.5	/experiments/knapen_aot/videos/S_yt-wz2opOBqClo_14.mp4	0.0	285.56514978408813	2.5083260536193848
72	198.07903790473938	fix_post	2		12.0	70.0	2.5	/experiments/knapen_aot/videos/S_yt-wz2opOBqClo_14.mp4	0.0	288.0734758377075	0.10003995895385742
73	198.17907786369324	fix_pre	0		18.0	71.0	2.5	/experiments/knapen_aot/videos/R_S_Pexels_Videos_2786546.mp4	0.0	288.1735157966614	0.14994096755981445
73	198.32091093063354	response	0	2		71.0	2.5	/experiments/knapen_aot/videos/R_S_Pexels_Videos_2786546.mp4	0.0	288.3153488636017	
73	198.32901883125305	movie	1		167.0	71.0	2.5	/experiments/knapen_aot/videos/R_S_Pexels_Videos_2786546.mp4	0.0	288.3234567642212	2.5083580017089844
73	200.83737683296204	fix_post	2		12.0	71.0	2.5	/experiments/knapen_aot/videos/R_S_Pexels_Videos_2786546.mp4	0.0	290.8318147659302	0.09992504119873047
74	200.93730187416077	fix_pre	0		12.0	72.0	2.5	/experiments/knapen_aot/videos/R_S_ILSVRC2015_train_00524001.mp4	0.0	290.9317398071289	0.10005307197570801
74	201.02260184288025	response	0	2		72.0	2.5	/experiments/knapen_aot/videos/R_S_ILSVRC2015_train_00524001.mp4	0.0	291.0170397758484	
74	201.03735494613647	movie	1		301.0	72.0	2.5	/experiments/knapen_aot/videos/R_S_ILSVRC2015_train_00524001.mp4	0.0	291.0317928791046	2.50839900970459
74	203.54575395584106	fix_post	2		12.0	72.0	2.5	/experiments/knapen_aot/videos/R_S_ILSVRC2015_train_00524001.mp4	0.0	293.5401918888092	0.10002493858337402
75	203.64577889442444	fix_pre	0		44.0	73.0	2.5	/experiments/knapen_aot/videos/R_S_yt-FsXOl6JjzSY_15.mp4	0.0	293.6402168273926	0.3665621280670166
75	204.0042040348053	response	0	2		73.0	2.5	/experiments/knapen_aot/videos/R_S_yt-FsXOl6JjzSY_15.mp4	0.0	293.99864196777344	
75	204.01234102249146	movie	1		301.0	73.0	2.5	/experiments/knapen_aot/videos/R_S_yt-FsXOl6JjzSY_15.mp4	0.0	294.0067789554596	2.5083768367767334
75	206.5207178592682	fix_post	2		12.0	73.0	2.5	/experiments/knapen_aot/videos/R_S_yt-FsXOl6JjzSY_15.mp4	0.0	296.5151557922363	0.09998202323913574
76	206.62069988250732	fix_pre	0		18.0	74.0	2.5	/experiments/knapen_aot/videos/R_S_yt--Ra34zJ69AU_68.mp4	0.0	296.61513781547546	0.1499631404876709
76	206.7624180316925	response	0	2		74.0	2.5	/experiments/knapen_aot/videos/R_S_yt--Ra34zJ69AU_68.mp4	0.0	296.75685596466064	
76	206.770663022995	movie	1		301.0	74.0	2.5	/experiments/knapen_aot/videos/R_S_yt--Ra34zJ69AU_68.mp4	0.0	296.76510095596313	2.5083069801330566
76	209.27897000312805	fix_post	2		12.0	74.0	2.5	/experiments/knapen_aot/videos/R_S_yt--Ra34zJ69AU_68.mp4	0.0	299.2734079360962	0.10003185272216797
77	209.37900185585022	fix_pre	0		45.0	75.0	2.5	blank	1.0	299.37343978881836	0.3756570816040039
77	209.74580192565918	response	0	2		75.0	2.5	blank	1.0	299.7402398586273	
77	209.75465893745422	movie	1		301.0	75.0	2.5	blank	1.0	299.74909687042236	2.507668972015381
77	212.2623279094696	fix_post	2		12.0	75.0	2.5	blank	1.0	302.25676584243774	0.10014605522155762
78	212.36247396469116	fix_pre	0		27.0	76.0	2.5	/experiments/knapen_aot/videos/S_yt-waWM9vAfsIw_116.mp4	0.0	302.3569118976593	0.2254619598388672
78	212.5791358947754	response	0	2		76.0	2.5	/experiments/knapen_aot/videos/S_yt-waWM9vAfsIw_116.mp4	0.0	302.57357382774353	
78	212.58793592453003	movie	1		301.0	76.0	2.5	/experiments/knapen_aot/videos/S_yt-waWM9vAfsIw_116.mp4	0.0	302.58237385749817	2.507646083831787
78	215.09558200836182	fix_post	2		12.0	76.0	2.5	/experiments/knapen_aot/videos/S_yt-waWM9vAfsIw_116.mp4	0.0	305.09001994132996	0.10010290145874023
79	215.19568490982056	fix_pre	0		5.0	77.0	2.5	/experiments/knapen_aot/videos/S_production_ID_5020960.mp4	0.0	305.1901228427887	0.04164004325866699
79	215.22918105125427	response	0	2		77.0	2.5	/experiments/knapen_aot/videos/S_production_ID_5020960.mp4	0.0	305.2236189842224	
79	215.23732495307922	movie	1		186.0	77.0	2.5	/experiments/knapen_aot/videos/S_production_ID_5020960.mp4	0.0	305.23176288604736	2.5083699226379395
79	217.74569487571716	fix_post	2		12.0	77.0	2.5	/experiments/knapen_aot/videos/S_production_ID_5020960.mp4	0.0	307.7401328086853	0.09991717338562012
80	217.84561204910278	fix_pre	0		11.0	78.0	2.5	/experiments/knapen_aot/videos/S_yt-X6ivH9SqGu8_306.mp4	0.0	307.8400499820709	0.09161376953125
80	217.92147302627563	response	0	2		78.0	2.5	/experiments/knapen_aot/videos/S_yt-X6ivH9SqGu8_306.mp4	0.0	307.9159109592438	
80	217.93722581863403	movie	1		301.0	78.0	2.5	/experiments/knapen_aot/videos/S_yt-X6ivH9SqGu8_306.mp4	0.0	307.9316637516022	2.50835919380188
80	220.4455850124359	fix_post	2		12.0	78.0	2.5	/experiments/knapen_aot/videos/S_yt-X6ivH9SqGu8_306.mp4	0.0	310.44002294540405	0.10004591941833496
81	220.54563093185425	fix_pre	0		22.0	79.0	2.5	/experiments/knapen_aot/videos/S_yt-XBAU3cq0rZs_150.mp4	0.0	310.5400688648224	0.18332195281982422
81	220.7132179737091	response	0	2		79.0	2.5	/experiments/knapen_aot/videos/S_yt-XBAU3cq0rZs_150.mp4	0.0	310.70765590667725	
81	220.72895288467407	movie	1		298.0	79.0	2.5	/experiments/knapen_aot/videos/S_yt-XBAU3cq0rZs_150.mp4	0.0	310.7233908176422	2.5084080696105957
81	223.23736095428467	fix_post	2		12.0	79.0	2.5	/experiments/knapen_aot/videos/S_yt-XBAU3cq0rZs_150.mp4	0.0	313.2317988872528	0.09998893737792969
82	223.3373498916626	fix_pre	0		15.0	80.0	2.5	/experiments/knapen_aot/videos/S_Y003_C009_SDR_2K_AVC.mp4	0.0	313.33178782463074	0.12548303604125977
82	223.45416498184204	response	0	2		80.0	2.5	/experiments/knapen_aot/videos/S_Y003_C009_SDR_2K_AVC.mp4	0.0	313.4486029148102	
82	223.46283292770386	movie	1		171.0	80.0	2.5	/experiments/knapen_aot/videos/S_Y003_C009_SDR_2K_AVC.mp4	0.0	313.457270860672	2.507873058319092
82	225.97070598602295	fix_post	2		12.0	80.0	2.5	/experiments/knapen_aot/videos/S_Y003_C009_SDR_2K_AVC.mp4	0.0	315.9651439189911	0.0998990535736084
83	226.07060503959656	fix_pre	0		28.0	81.0	2.5	/experiments/knapen_aot/videos/S_wc-16LozRfhUGea_49.mp4	0.0	316.0650429725647	0.23343396186828613
83	226.29581093788147	response	0	2		81.0	2.5	/experiments/knapen_aot/videos/S_wc-16LozRfhUGea_49.mp4	0.0	316.2902488708496	
83	226.30403900146484	movie	1		301.0	81.0	2.5	/experiments/knapen_aot/videos/S_wc-16LozRfhUGea_49.mp4	0.0	316.298476934433	2.508220911026001
83	228.81225991249084	fix_post	2		12.0	81.0	2.5	/experiments/knapen_aot/videos/S_wc-16LozRfhUGea_49.mp4	0.0	318.806697845459	0.09991312026977539
84	228.91217303276062	fix_pre	0		9.0	82.0	2.5	/experiments/knapen_aot/videos/S_yt-2LCHVTVwJ5E_235.mp4	0.0	318.90661096572876	0.08352994918823242
84	228.9839699268341	response	0	2		82.0	2.5	/experiments/knapen_aot/videos/S_yt-2LCHVTVwJ5E_235.mp4	0.0	318.97840785980225	
84	228.99570298194885	movie	1		300.0	82.0	2.5	/experiments/knapen_aot/videos/S_yt-2LCHVTVwJ5E_235.mp4	0.0	318.990140914917	2.499847888946533
84	231.49555087089539	fix_post	2		12.0	82.0	2.5	/experiments/knapen_aot/videos/S_yt-2LCHVTVwJ5E_235.mp4	0.0	321.4899888038635	0.10004210472106934
85	231.59559297561646	fix_pre	0		14.0	83.0	2.5	blank	1.0	321.5900309085846	0.11715984344482422
85	231.70408296585083	response	0	2		83.0	2.5	blank	1.0	321.69852089881897	
85	231.71275281906128	movie	1		301.0	83.0	2.5	blank	1.0	321.7071907520294	2.50781512260437
85	234.22056794166565	fix_post	2		12.0	83.0	2.5	blank	1.0	324.2150058746338	0.10002708435058594
87	234.32059502601624	stim	0		93.0					324.3150329589844	0.7749648094177246
87	234.49570202827454	response	0	2						324.4901399612427	
87	235.09079098701477	response	0	space						325.0852289199829	
