trial_nr	onset	event_type	phase	response	nr_frames	movie_index	movie_duration	movie_file	blank	onset_abs	duration
0	0.15878796577453613	stim	0		56.0					137.77633714675903	0.4669938087463379
0	0.6092429161071777	response	0	space						138.22679209709167	
1	0.625781774520874	stim	0		121.0					138.24333095550537	1.0069780349731445
1	1.6327598094940186	stim	1		120.0					139.25030899047852	0.9999940395355225
1	1.6336979866027832	response	1	space						139.25124716758728	
1	2.2995359897613525	response	1	space						139.91708517074585	
2	2.632753849029541	fix_pre	0		28.0	0.0	2.5	/experiments/knapen_aot/videos/S_flickr-lamujuri-10653517683_4.mp4	0.0	140.25030303001404	0.23329901695251465
2	2.85788893699646	response	0	space		0.0	2.5	/experiments/knapen_aot/videos/S_flickr-lamujuri-10653517683_4.mp4	0.0	140.47543811798096	
2	2.8660528659820557	movie	1		170.0	0.0	2.5	/experiments/knapen_aot/videos/S_flickr-lamujuri-10653517683_4.mp4	0.0	140.48360204696655	2.5082879066467285
2	5.374340772628784	fix_post	2		12.0	0.0	2.5	/experiments/knapen_aot/videos/S_flickr-lamujuri-10653517683_4.mp4	0.0	142.99188995361328	0.09995603561401367
3	5.474296808242798	fix_pre	0		19.0	1.0	2.5	/experiments/knapen_aot/videos/R_S_nvbAwZOKBS8_23.mp4	0.0	143.0918459892273	0.158372163772583
3	5.624712944030762	response	0	2		1.0	2.5	/experiments/knapen_aot/videos/R_S_nvbAwZOKBS8_23.mp4	0.0	143.24226212501526	
3	5.632668972015381	movie	1		301.0	1.0	2.5	/experiments/knapen_aot/videos/R_S_nvbAwZOKBS8_23.mp4	0.0	143.25021815299988	2.508328914642334
3	8.140997886657715	fix_post	2		12.0	1.0	2.5	/experiments/knapen_aot/videos/R_S_nvbAwZOKBS8_23.mp4	0.0	145.7585470676422	0.09996891021728516
4	8.240966796875	fix_pre	0		7.0	2.0	2.5	/experiments/knapen_aot/videos/R_S_yt-Tt_LkR4iAt4_11.mp4	0.0	145.8585159778595	0.05843997001647949
4	8.292305946350098	response	0	2		2.0	2.5	/experiments/knapen_aot/videos/R_S_yt-Tt_LkR4iAt4_11.mp4	0.0	145.9098551273346	
4	8.29940676689148	movie	1		301.0	2.0	2.5	/experiments/knapen_aot/videos/R_S_yt-Tt_LkR4iAt4_11.mp4	0.0	145.91695594787598	2.5083041191101074
4	10.807710886001587	fix_post	2		12.0	2.0	2.5	/experiments/knapen_aot/videos/R_S_yt-Tt_LkR4iAt4_11.mp4	0.0	148.42526006698608	0.09999895095825195
5	10.907709836959839	fix_pre	0		12.0	3.0	2.5	/experiments/knapen_aot/videos/S_comp_A001_C004_1207W5_v23_SDR_FINAL_20180706_SDR_2K_AVC.mp4	0.0	148.52525901794434	0.09992814064025879
5	10.999511957168579	response	0	2		3.0	2.5	/experiments/knapen_aot/videos/S_comp_A001_C004_1207W5_v23_SDR_FINAL_20180706_SDR_2K_AVC.mp4	0.0	148.61706113815308	
5	11.007637977600098	movie	1		162.0	3.0	2.5	/experiments/knapen_aot/videos/S_comp_A001_C004_1207W5_v23_SDR_FINAL_20180706_SDR_2K_AVC.mp4	0.0	148.6251871585846	2.508387804031372
5	13.51602578163147	fix_post	2		12.0	3.0	2.5	/experiments/knapen_aot/videos/S_comp_A001_C004_1207W5_v23_SDR_FINAL_20180706_SDR_2K_AVC.mp4	0.0	151.13357496261597	0.10003519058227539
6	13.616060972213745	fix_pre	0		17.0	4.0	2.5	/experiments/knapen_aot/videos/S_yt-p0buJEEKeuI_61.mp4	0.0	151.23361015319824	0.14156079292297363
6	13.749499797821045	response	0	2		4.0	2.5	/experiments/knapen_aot/videos/S_yt-p0buJEEKeuI_61.mp4	0.0	151.36704897880554	
6	13.757621765136719	movie	1		299.0	4.0	2.5	/experiments/knapen_aot/videos/S_yt-p0buJEEKeuI_61.mp4	0.0	151.37517094612122	2.5083701610565186
6	16.265991926193237	fix_post	2		12.0	4.0	2.5	/experiments/knapen_aot/videos/S_yt-p0buJEEKeuI_61.mp4	0.0	153.88354110717773	0.09995484352111816
7	16.365946769714355	fix_pre	0		11.0	5.0	2.5	blank	1.0	153.98349595069885	0.09268021583557129
7	16.44942593574524	response	0	2		5.0	2.5	blank	1.0	154.06697511672974	
7	16.458626985549927	movie	1		301.0	5.0	2.5	blank	1.0	154.07617616653442	2.5073208808898926
7	18.96594786643982	fix_post	2		12.0	5.0	2.5	blank	1.0	156.58349704742432	0.09993696212768555
8	19.065884828567505	fix_pre	0		19.0	6.0	2.5	/experiments/knapen_aot/videos/S_ILSVRC2015_train_00044004.mp4	0.0	156.683434009552	0.1584031581878662
8	19.216025829315186	response	0	2		6.0	2.5	/experiments/knapen_aot/videos/S_ILSVRC2015_train_00044004.mp4	0.0	156.83357501029968	
8	19.22428798675537	movie	1		301.0	6.0	2.5	/experiments/knapen_aot/videos/S_ILSVRC2015_train_00044004.mp4	0.0	156.84183716773987	2.5083348751068115
8	21.732622861862183	fix_post	2		12.0	6.0	2.5	/experiments/knapen_aot/videos/S_ILSVRC2015_train_00044004.mp4	0.0	159.35017204284668	0.09995412826538086
9	21.832576990127563	fix_pre	0		3.0	7.0	2.5	/experiments/knapen_aot/videos/S_yt-7bSTxOajpjc_58.mp4	0.0	159.45012617111206	0.024985790252685547
9	21.849421977996826	response	0	4		7.0	2.5	/experiments/knapen_aot/videos/S_yt-7bSTxOajpjc_58.mp4	0.0	159.46697115898132	
9	21.85756278038025	movie	1		300.0	7.0	2.5	/experiments/knapen_aot/videos/S_yt-7bSTxOajpjc_58.mp4	0.0	159.47511196136475	2.5083820819854736
9	24.365944862365723	fix_post	2		12.0	7.0	2.5	/experiments/knapen_aot/videos/S_yt-7bSTxOajpjc_58.mp4	0.0	161.98349404335022	0.10002613067626953
10	24.465970993041992	fix_pre	0		5.0	8.0	2.5	/experiments/knapen_aot/videos/S_yt-uXDyvrm0Tw0_17.mp4	0.0	162.0835201740265	0.04169893264770508
10	24.49945378303528	response	0	4		8.0	2.5	/experiments/knapen_aot/videos/S_yt-uXDyvrm0Tw0_17.mp4	0.0	162.11700296401978	
10	24.507669925689697	movie	1		301.0	8.0	2.5	/experiments/knapen_aot/videos/S_yt-uXDyvrm0Tw0_17.mp4	0.0	162.1252191066742	2.5083558559417725
10	27.01602578163147	fix_post	2		12.0	8.0	2.5	/experiments/knapen_aot/videos/S_yt-uXDyvrm0Tw0_17.mp4	0.0	164.63357496261597	0.09988808631896973
11	27.11591386795044	fix_pre	0		3.0	9.0	2.5	/experiments/knapen_aot/videos/S_video_inspire_uk_edinburgh_arthursseat_010.1080-h264.mp4	0.0	164.73346304893494	0.024953126907348633
11	27.132751941680908	response	0	2		9.0	2.5	/experiments/knapen_aot/videos/S_video_inspire_uk_edinburgh_arthursseat_010.1080-h264.mp4	0.0	164.7503011226654	
11	27.140866994857788	movie	1		166.0	9.0	2.5	/experiments/knapen_aot/videos/S_video_inspire_uk_edinburgh_arthursseat_010.1080-h264.mp4	0.0	164.75841617584229	2.508424997329712
11	29.6492919921875	fix_post	2		12.0	9.0	2.5	/experiments/knapen_aot/videos/S_video_inspire_uk_edinburgh_arthursseat_010.1080-h264.mp4	0.0	167.266841173172	0.09999680519104004
11	29.73267698287964	response	2	2		9.0	2.5	/experiments/knapen_aot/videos/S_video_inspire_uk_edinburgh_arthursseat_010.1080-h264.mp4	0.0	167.35022616386414	
12	29.74928879737854	fix_pre	0		61.0	10.0	2.5	/experiments/knapen_aot/videos/S_yt-I9uf7kAccFA_229.mp4	0.0	167.36683797836304	0.508275032043457
12	30.249250888824463	response	0	2		10.0	2.5	/experiments/knapen_aot/videos/S_yt-I9uf7kAccFA_229.mp4	0.0	167.86680006980896	
12	30.257563829421997	movie	1		301.0	10.0	2.5	/experiments/knapen_aot/videos/S_yt-I9uf7kAccFA_229.mp4	0.0	167.8751130104065	2.5083560943603516
12	32.76591992378235	fix_post	2		12.0	10.0	2.5	/experiments/knapen_aot/videos/S_yt-I9uf7kAccFA_229.mp4	0.0	170.38346910476685	0.09999990463256836
13	32.86591982841492	fix_pre	0		12.0	11.0	2.5	/experiments/knapen_aot/videos/S_yt-wnQFgNEnHUI_109.mp4	0.0	170.4834690093994	0.09998011589050293
13	32.95765399932861	response	0	2		11.0	2.5	/experiments/knapen_aot/videos/S_yt-wnQFgNEnHUI_109.mp4	0.0	170.5752031803131	
13	32.96589994430542	movie	1		299.0	11.0	2.5	/experiments/knapen_aot/videos/S_yt-wnQFgNEnHUI_109.mp4	0.0	170.58344912528992	2.5083048343658447
13	35.474204778671265	fix_post	2		12.0	11.0	2.5	/experiments/knapen_aot/videos/S_yt-wnQFgNEnHUI_109.mp4	0.0	173.09175395965576	0.09999203681945801
14	35.57419681549072	fix_pre	0		8.0	12.0	2.5	/experiments/knapen_aot/videos/R_S_yt-Xs-YKSogfak_24.mp4	0.0	173.19174599647522	0.06668615341186523
14	35.625231981277466	response	0	2		12.0	2.5	/experiments/knapen_aot/videos/R_S_yt-Xs-YKSogfak_24.mp4	0.0	173.24278116226196	
14	35.64088296890259	movie	1		301.0	12.0	2.5	/experiments/knapen_aot/videos/R_S_yt-Xs-YKSogfak_24.mp4	0.0	173.25843214988708	2.5082848072052
14	38.14916777610779	fix_post	2		12.0	12.0	2.5	/experiments/knapen_aot/videos/R_S_yt-Xs-YKSogfak_24.mp4	0.0	175.76671695709229	0.09999799728393555
15	38.249165773391724	fix_pre	0		23.0	13.0	2.5	/experiments/knapen_aot/videos/S_comp_GMT060_117NC_363D_1034_AUSTRALIA_v35_SDR_PS_FINAL_20180731_SDR_2K_AVC.mp4	0.0	175.86671495437622	0.19173502922058105
15	38.4326229095459	response	0	2		13.0	2.5	/experiments/knapen_aot/videos/S_comp_GMT060_117NC_363D_1034_AUSTRALIA_v35_SDR_PS_FINAL_20180731_SDR_2K_AVC.mp4	0.0	176.0501720905304	
15	38.440900802612305	movie	1		165.0	13.0	2.5	/experiments/knapen_aot/videos/S_comp_GMT060_117NC_363D_1034_AUSTRALIA_v35_SDR_PS_FINAL_20180731_SDR_2K_AVC.mp4	0.0	176.0584499835968	2.5082809925079346
15	40.94918179512024	fix_post	2		12.0	13.0	2.5	/experiments/knapen_aot/videos/S_comp_GMT060_117NC_363D_1034_AUSTRALIA_v35_SDR_PS_FINAL_20180731_SDR_2K_AVC.mp4	0.0	178.56673097610474	0.09997415542602539
16	41.049155950546265	fix_pre	0		42.0	14.0	2.5	blank	1.0	178.66670513153076	0.35002684593200684
16	41.39099097251892	response	0	2		14.0	2.5	blank	1.0	179.00854015350342	
16	41.39918279647827	movie	1		301.0	14.0	2.5	blank	1.0	179.01673197746277	2.508345127105713
16	43.907527923583984	fix_post	2		12.0	14.0	2.5	blank	1.0	181.52507710456848	0.09995293617248535
17	44.00748085975647	fix_pre	0		30.0	15.0	2.5	/experiments/knapen_aot/videos/R_S_yt-JTBXPfbkjsA_11.mp4	0.0	181.62503004074097	0.2499840259552002
17	44.2492778301239	response	0	2		15.0	2.5	/experiments/knapen_aot/videos/R_S_yt-JTBXPfbkjsA_11.mp4	0.0	181.8668270111084	
17	44.25746488571167	movie	1		301.0	15.0	2.5	/experiments/knapen_aot/videos/R_S_yt-JTBXPfbkjsA_11.mp4	0.0	181.87501406669617	2.5083930492401123
17	46.76585793495178	fix_post	2		12.0	15.0	2.5	/experiments/knapen_aot/videos/R_S_yt-JTBXPfbkjsA_11.mp4	0.0	184.38340711593628	0.09999704360961914
18	46.8658549785614	fix_pre	0		22.0	16.0	2.5	/experiments/knapen_aot/videos/S_production_ID_5139371.mp4	0.0	184.4834041595459	0.18335580825805664
18	47.04092192649841	response	0	2		16.0	2.5	/experiments/knapen_aot/videos/S_production_ID_5139371.mp4	0.0	184.6584711074829	
18	47.04921078681946	movie	1		162.0	16.0	2.5	/experiments/knapen_aot/videos/S_production_ID_5139371.mp4	0.0	184.66675996780396	2.5083119869232178
18	49.557522773742676	fix_post	2		12.0	16.0	2.5	/experiments/knapen_aot/videos/S_production_ID_5139371.mp4	0.0	187.17507195472717	0.09988212585449219
19	49.65740489959717	fix_pre	0		12.0	17.0	2.5	/experiments/knapen_aot/videos/R_S_RS_A008_C010_SDR_20191218_SDR_2K_AVC.mp4	0.0	187.27495408058167	0.10008406639099121
19	49.749263763427734	response	0	2		17.0	2.5	/experiments/knapen_aot/videos/R_S_RS_A008_C010_SDR_20191218_SDR_2K_AVC.mp4	0.0	187.36681294441223	
19	49.75748896598816	movie	1		178.0	17.0	2.5	/experiments/knapen_aot/videos/R_S_RS_A008_C010_SDR_20191218_SDR_2K_AVC.mp4	0.0	187.37503814697266	2.5083348751068115
19	52.20757985115051	response	1	2		17.0	2.5	/experiments/knapen_aot/videos/R_S_RS_A008_C010_SDR_20191218_SDR_2K_AVC.mp4	0.0	189.825129032135	
19	52.26582384109497	fix_post	2		12.0	17.0	2.5	/experiments/knapen_aot/videos/R_S_RS_A008_C010_SDR_20191218_SDR_2K_AVC.mp4	0.0	189.88337302207947	0.09999704360961914
20	52.36582088470459	fix_pre	0		68.0	18.0	2.5	/experiments/knapen_aot/videos/R_S_yt-s2tZ2NIQrxg_175.mp4	0.0	189.9833700656891	0.5666089057922363
20	52.92425084114075	response	0	2		18.0	2.5	/experiments/knapen_aot/videos/R_S_yt-s2tZ2NIQrxg_175.mp4	0.0	190.54180002212524	
20	52.932429790496826	movie	1		301.0	18.0	2.5	/experiments/knapen_aot/videos/R_S_yt-s2tZ2NIQrxg_175.mp4	0.0	190.54997897148132	2.5083420276641846
20	55.44077181816101	fix_post	2		12.0	18.0	2.5	/experiments/knapen_aot/videos/R_S_yt-s2tZ2NIQrxg_175.mp4	0.0	193.0583209991455	0.09992814064025879
21	55.54069995880127	fix_pre	0		13.0	19.0	2.5	/experiments/knapen_aot/videos/R_S_yt-wjBwgccZM5k_150.mp4	0.0	193.15824913978577	0.10841584205627441
21	55.640888929367065	response	0	2		19.0	2.5	/experiments/knapen_aot/videos/R_S_yt-wjBwgccZM5k_150.mp4	0.0	193.25843811035156	
21	55.649115800857544	movie	1		301.0	19.0	2.5	/experiments/knapen_aot/videos/R_S_yt-wjBwgccZM5k_150.mp4	0.0	193.26666498184204	2.5082709789276123
21	58.157386779785156	fix_post	2		12.0	19.0	2.5	/experiments/knapen_aot/videos/R_S_yt-wjBwgccZM5k_150.mp4	0.0	195.77493596076965	0.10000920295715332
22	58.25739598274231	fix_pre	0		8.0	20.0	2.5	/experiments/knapen_aot/videos/S_ILSVRC2015_train_00594000.mp4	0.0	195.8749451637268	0.06894683837890625
22	58.31600499153137	response	0	2		20.0	2.5	/experiments/knapen_aot/videos/S_ILSVRC2015_train_00594000.mp4	0.0	195.93355417251587	
22	58.326342821121216	movie	1		301.0	20.0	2.5	/experiments/knapen_aot/videos/S_ILSVRC2015_train_00594000.mp4	0.0	195.9438920021057	2.506103038787842
22	60.83244585990906	fix_post	2		12.0	20.0	2.5	/experiments/knapen_aot/videos/S_ILSVRC2015_train_00594000.mp4	0.0	198.44999504089355	0.10001492500305176
23	60.93246078491211	fix_pre	0		22.0	21.0	2.5	blank	1.0	198.5500099658966	0.18334197998046875
23	61.10759496688843	response	0	2		21.0	2.5	blank	1.0	198.72514414787292	
23	61.11580276489258	movie	1		301.0	21.0	2.5	blank	1.0	198.73335194587708	2.508296012878418
23	63.624098777770996	fix_post	2		12.0	21.0	2.5	blank	1.0	201.2416479587555	0.09997200965881348
24	63.72407078742981	fix_pre	0		24.0	22.0	2.5	/experiments/knapen_aot/videos/R_S_Y009_C015_SDR_2K_AVC.mp4	0.0	201.3416199684143	0.20002508163452148
24	63.91593098640442	response	0	2		22.0	2.5	/experiments/knapen_aot/videos/R_S_Y009_C015_SDR_2K_AVC.mp4	0.0	201.53348016738892	
24	63.92409586906433	movie	1		178.0	22.0	2.5	/experiments/knapen_aot/videos/R_S_Y009_C015_SDR_2K_AVC.mp4	0.0	201.54164505004883	2.5083489418029785
24	66.43244481086731	fix_post	2		12.0	22.0	2.5	/experiments/knapen_aot/videos/R_S_Y009_C015_SDR_2K_AVC.mp4	0.0	204.0499939918518	0.09996795654296875
25	66.53241276741028	fix_pre	0		15.0	23.0	2.5	/experiments/knapen_aot/videos/R_S_bing-www_yahoo_com_entertainment_anastasia-karanikolaou-chantel-jeffries-discuss-182400502_html_9.mp4	0.0	204.14996194839478	0.1249690055847168
25	66.6492109298706	response	0	2		23.0	2.5	/experiments/knapen_aot/videos/R_S_bing-www_yahoo_com_entertainment_anastasia-karanikolaou-chantel-jeffries-discuss-182400502_html_9.mp4	0.0	204.2667601108551	
25	66.657381772995	movie	1		165.0	23.0	2.5	/experiments/knapen_aot/videos/R_S_bing-www_yahoo_com_entertainment_anastasia-karanikolaou-chantel-jeffries-discuss-182400502_html_9.mp4	0.0	204.2749309539795	2.5083301067352295
25	69.16571187973022	fix_post	2		12.0	23.0	2.5	/experiments/knapen_aot/videos/R_S_bing-www_yahoo_com_entertainment_anastasia-karanikolaou-chantel-jeffries-discuss-182400502_html_9.mp4	0.0	206.78326106071472	0.09992408752441406
26	69.26563596725464	fix_pre	0		22.0	24.0	2.5	/experiments/knapen_aot/videos/S_yt-ROhKDdF1gV4_21.mp4	0.0	206.88318514823914	0.1833789348602295
26	69.44087100028992	response	0	2		24.0	2.5	/experiments/knapen_aot/videos/S_yt-ROhKDdF1gV4_21.mp4	0.0	207.0584201812744	
26	69.44901490211487	movie	1		301.0	24.0	2.5	/experiments/knapen_aot/videos/S_yt-ROhKDdF1gV4_21.mp4	0.0	207.06656408309937	2.508296012878418
26	71.95731091499329	fix_post	2		12.0	24.0	2.5	/experiments/knapen_aot/videos/S_yt-ROhKDdF1gV4_21.mp4	0.0	209.57486009597778	0.10007691383361816
27	72.0573878288269	fix_pre	0		16.0	25.0	2.5	/experiments/knapen_aot/videos/S_yt-HQQws1Lp_rQ_10.mp4	0.0	209.6749370098114	0.13328099250793457
27	72.18253684043884	response	0	2		25.0	2.5	/experiments/knapen_aot/videos/S_yt-HQQws1Lp_rQ_10.mp4	0.0	209.80008602142334	
27	72.19066882133484	movie	1		301.0	25.0	2.5	/experiments/knapen_aot/videos/S_yt-HQQws1Lp_rQ_10.mp4	0.0	209.80821800231934	2.5083391666412354
27	74.69900798797607	fix_post	2		12.0	25.0	2.5	/experiments/knapen_aot/videos/S_yt-HQQws1Lp_rQ_10.mp4	0.0	212.31655716896057	0.10004878044128418
28	74.79905676841736	fix_pre	0		5.0	26.0	2.5	/experiments/knapen_aot/videos/R_S_yt-AHbFln6blfE_36.mp4	0.0	212.41660594940186	0.04165315628051758
28	74.83245182037354	response	0	2		26.0	2.5	/experiments/knapen_aot/videos/R_S_yt-AHbFln6blfE_36.mp4	0.0	212.45000100135803	
28	74.84070992469788	movie	1		301.0	26.0	2.5	/experiments/knapen_aot/videos/R_S_yt-AHbFln6blfE_36.mp4	0.0	212.45825910568237	2.508336067199707
28	77.34904599189758	fix_post	2		12.0	26.0	2.5	/experiments/knapen_aot/videos/R_S_yt-AHbFln6blfE_36.mp4	0.0	214.96659517288208	0.09994196891784668
29	77.44898796081543	fix_pre	0		31.0	27.0	2.5	/experiments/knapen_aot/videos/S_nvbAwZOKBS8_23.mp4	0.0	215.06653714179993	0.2589988708496094
29	77.69922184944153	response	0	2		27.0	2.5	/experiments/knapen_aot/videos/S_nvbAwZOKBS8_23.mp4	0.0	215.31677103042603	
29	77.70798683166504	movie	1		301.0	27.0	2.5	/experiments/knapen_aot/videos/S_nvbAwZOKBS8_23.mp4	0.0	215.32553601264954	2.507735013961792
29	80.21572184562683	fix_post	2		11.0	27.0	2.5	/experiments/knapen_aot/videos/S_nvbAwZOKBS8_23.mp4	0.0	217.83327102661133	0.09998607635498047
30	80.31570792198181	fix_pre	0		12.0	28.0	2.5	blank	1.0	217.9332571029663	0.10056686401367188
30	80.40750479698181	response	0	2		28.0	2.5	blank	1.0	218.0250539779663	
30	80.41627478599548	movie	1		301.0	28.0	2.5	blank	1.0	218.03382396697998	2.5077390670776367
30	82.92401385307312	fix_post	2		12.0	28.0	2.5	blank	1.0	220.54156303405762	0.09999704360961914
31	83.02401089668274	fix_pre	0		19.0	29.0	2.5	/experiments/knapen_aot/videos/R_S_yt-FsylDeYfcxU_24.mp4	0.0	220.64156007766724	0.15830588340759277
31	83.1741349697113	response	0	2		29.0	2.5	/experiments/knapen_aot/videos/R_S_yt-FsylDeYfcxU_24.mp4	0.0	220.7916841506958	
31	83.18231678009033	movie	1		301.0	29.0	2.5	/experiments/knapen_aot/videos/R_S_yt-FsylDeYfcxU_24.mp4	0.0	220.79986596107483	2.5083401203155518
31	85.69065690040588	fix_post	2		12.0	29.0	2.5	/experiments/knapen_aot/videos/R_S_yt-FsylDeYfcxU_24.mp4	0.0	223.30820608139038	0.10001397132873535
32	85.79067087173462	fix_pre	0		15.0	30.0	2.5	/experiments/knapen_aot/videos/S_OdxWh1oU8e8_1.mp4	0.0	223.40822005271912	0.12558197975158691
32	85.90738987922668	response	0	2		30.0	2.5	/experiments/knapen_aot/videos/S_OdxWh1oU8e8_1.mp4	0.0	223.52493906021118	
32	85.9162528514862	movie	1		301.0	30.0	2.5	/experiments/knapen_aot/videos/S_OdxWh1oU8e8_1.mp4	0.0	223.5338020324707	2.507725954055786
32	88.42397880554199	fix_post	2		12.0	30.0	2.5	/experiments/knapen_aot/videos/S_OdxWh1oU8e8_1.mp4	0.0	226.0415279865265	0.09998703002929688
33	88.52396583557129	fix_pre	0		24.0	31.0	2.5	/experiments/knapen_aot/videos/S_Pexels_Videos_2376809.mp4	0.0	226.1415150165558	0.19999408721923828
33	88.71579599380493	response	0	2		31.0	2.5	/experiments/knapen_aot/videos/S_Pexels_Videos_2376809.mp4	0.0	226.33334517478943	
33	88.72395992279053	movie	1		177.0	31.0	2.5	/experiments/knapen_aot/videos/S_Pexels_Videos_2376809.mp4	0.0	226.34150910377502	2.5083279609680176
33	91.23228788375854	fix_post	2		12.0	31.0	2.5	/experiments/knapen_aot/videos/S_Pexels_Videos_2376809.mp4	0.0	228.84983706474304	0.10056090354919434
34	91.33284878730774	fix_pre	0		12.0	32.0	2.5	/experiments/knapen_aot/videos/R_S_flickr-slruok-8006772217_6.mp4	0.0	228.95039796829224	0.09941720962524414
34	91.42407894134521	response	0	2		32.0	2.5	/experiments/knapen_aot/videos/R_S_flickr-slruok-8006772217_6.mp4	0.0	229.0416281223297	
34	91.43226599693298	movie	1		301.0	32.0	2.5	/experiments/knapen_aot/videos/R_S_flickr-slruok-8006772217_6.mp4	0.0	229.04981517791748	2.5083138942718506
34	93.94057989120483	fix_post	2		12.0	32.0	2.5	/experiments/knapen_aot/videos/R_S_flickr-slruok-8006772217_6.mp4	0.0	231.55812907218933	0.09994101524353027
35	94.04052090644836	fix_pre	0		9.0	33.0	2.5	blank	1.0	231.65807008743286	0.07500600814819336
35	94.10741090774536	response	0	2		33.0	2.5	blank	1.0	231.72496008872986	
35	94.11552691459656	movie	1		301.0	33.0	2.5	blank	1.0	231.73307609558105	2.5084168910980225
35	96.62394380569458	fix_post	2		12.0	33.0	2.5	blank	1.0	234.24149298667908	0.10003018379211426
36	96.7239739894867	fix_pre	0		25.0	34.0	2.5	/experiments/knapen_aot/videos/S_yt-I9uf7kAccFA_229.mp4	0.0	234.3415231704712	0.2083139419555664
36	96.92409586906433	response	0	2		34.0	2.5	/experiments/knapen_aot/videos/S_yt-I9uf7kAccFA_229.mp4	0.0	234.54164505004883	
36	96.93228793144226	movie	1		301.0	34.0	2.5	/experiments/knapen_aot/videos/S_yt-I9uf7kAccFA_229.mp4	0.0	234.54983711242676	2.508384943008423
36	99.44067287445068	fix_post	2		12.0	34.0	2.5	/experiments/knapen_aot/videos/S_yt-I9uf7kAccFA_229.mp4	0.0	237.05822205543518	0.09995889663696289
37	99.54063177108765	fix_pre	0		19.0	35.0	2.5	/experiments/knapen_aot/videos/S_yt-mdLT282PVbE_6.mp4	0.0	237.15818095207214	0.15829014778137207
37	99.69072389602661	response	0	2		35.0	2.5	/experiments/knapen_aot/videos/S_yt-mdLT282PVbE_6.mp4	0.0	237.3082730770111	
37	99.69892191886902	movie	1		301.0	35.0	2.5	/experiments/knapen_aot/videos/S_yt-mdLT282PVbE_6.mp4	0.0	237.31647109985352	2.50833797454834
37	102.20725989341736	fix_post	2		12.0	35.0	2.5	/experiments/knapen_aot/videos/S_yt-mdLT282PVbE_6.mp4	0.0	239.82480907440186	0.09999489784240723
38	102.30725479125977	fix_pre	0		27.0	36.0	2.5	/experiments/knapen_aot/videos/S_ILSVRC2015_train_00574004.mp4	0.0	239.92480397224426	0.2249741554260254
38	102.52407884597778	response	0	2		36.0	2.5	/experiments/knapen_aot/videos/S_ILSVRC2015_train_00574004.mp4	0.0	240.14162802696228	
38	102.53222894668579	movie	1		300.0	36.0	2.5	/experiments/knapen_aot/videos/S_ILSVRC2015_train_00574004.mp4	0.0	240.1497781276703	2.508342981338501
38	105.04057192802429	fix_post	2		12.0	36.0	2.5	/experiments/knapen_aot/videos/S_ILSVRC2015_train_00574004.mp4	0.0	242.6581211090088	0.09991288185119629
39	105.14048480987549	fix_pre	0		36.0	37.0	2.5	/experiments/knapen_aot/videos/R_S_comp_GMT060_117NC_363D_1034_AUSTRALIA_v35_SDR_PS_FINAL_20180731_SDR_2K_AVC.mp4	0.0	242.75803399085999	0.3000941276550293
39	105.43229794502258	response	0	2		37.0	2.5	/experiments/knapen_aot/videos/R_S_comp_GMT060_117NC_363D_1034_AUSTRALIA_v35_SDR_PS_FINAL_20180731_SDR_2K_AVC.mp4	0.0	243.04984712600708	
39	105.44057893753052	movie	1		166.0	37.0	2.5	/experiments/knapen_aot/videos/R_S_comp_GMT060_117NC_363D_1034_AUSTRALIA_v35_SDR_PS_FINAL_20180731_SDR_2K_AVC.mp4	0.0	243.05812811851501	2.5083320140838623
39	107.94891095161438	fix_post	2		12.0	37.0	2.5	/experiments/knapen_aot/videos/R_S_comp_GMT060_117NC_363D_1034_AUSTRALIA_v35_SDR_PS_FINAL_20180731_SDR_2K_AVC.mp4	0.0	245.56646013259888	0.10003304481506348
40	108.04894399642944	fix_pre	0		6.0	38.0	2.5	/experiments/knapen_aot/videos/R_S_yt-k-MRlbCOzZU_163.mp4	0.0	245.66649317741394	0.05005693435668945
40	108.09091687202454	response	0	2		38.0	2.5	/experiments/knapen_aot/videos/R_S_yt-k-MRlbCOzZU_163.mp4	0.0	245.70846605300903	
40	108.09900093078613	movie	1		301.0	38.0	2.5	/experiments/knapen_aot/videos/R_S_yt-k-MRlbCOzZU_163.mp4	0.0	245.71655011177063	2.5082168579101562
40	110.60721778869629	fix_post	2		12.0	38.0	2.5	/experiments/knapen_aot/videos/R_S_yt-k-MRlbCOzZU_163.mp4	0.0	248.2247669696808	0.10010910034179688
41	110.70732688903809	fix_pre	0		31.0	39.0	2.5	/experiments/knapen_aot/videos/R_S_yt-Jo6PxivsTOg_247.mp4	0.0	248.32487607002258	0.258167028427124
41	110.95738291740417	response	0	2		39.0	2.5	/experiments/knapen_aot/videos/R_S_yt-Jo6PxivsTOg_247.mp4	0.0	248.57493209838867	
41	110.96549391746521	movie	1		301.0	39.0	2.5	/experiments/knapen_aot/videos/R_S_yt-Jo6PxivsTOg_247.mp4	0.0	248.5830430984497	2.508435010910034
41	113.47392892837524	fix_post	2		12.0	39.0	2.5	/experiments/knapen_aot/videos/R_S_yt-Jo6PxivsTOg_247.mp4	0.0	251.09147810935974	0.10000991821289062
42	113.57393884658813	fix_pre	0		37.0	40.0	2.5	blank	1.0	251.19148802757263	0.3082571029663086
42	113.87451982498169	response	0	2		40.0	2.5	blank	1.0	251.4920690059662	
42	113.88219594955444	movie	1		301.0	40.0	2.5	blank	1.0	251.49974513053894	2.508262872695923
42	116.39045882225037	fix_post	2		12.0	40.0	2.5	blank	1.0	254.00800800323486	0.10007405281066895
43	116.49053287506104	fix_pre	0		23.0	41.0	2.5	/experiments/knapen_aot/videos/R_S_ILSVRC2015_train_00044004.mp4	0.0	254.10808205604553	0.19162511825561523
43	116.67397093772888	response	0	2		41.0	2.5	/experiments/knapen_aot/videos/R_S_ILSVRC2015_train_00044004.mp4	0.0	254.29152011871338	
43	116.68215799331665	movie	1		301.0	41.0	2.5	/experiments/knapen_aot/videos/R_S_ILSVRC2015_train_00044004.mp4	0.0	254.29970717430115	2.508251905441284
43	119.19040989875793	fix_post	2		12.0	41.0	2.5	/experiments/knapen_aot/videos/R_S_ILSVRC2015_train_00044004.mp4	0.0	256.80795907974243	0.10005593299865723
44	119.29046583175659	fix_pre	0		1.0	42.0	2.5	/experiments/knapen_aot/videos/R_S_pexels-nkem-6237382.mp4	0.0	256.9080150127411	0.008396148681640625
44	119.29225897789001	response	0	2		42.0	2.5	/experiments/knapen_aot/videos/R_S_pexels-nkem-6237382.mp4	0.0	256.9098081588745	
44	119.29886198043823	movie	1		165.0	42.0	2.5	/experiments/knapen_aot/videos/R_S_pexels-nkem-6237382.mp4	0.0	256.91641116142273	2.5082948207855225
44	121.80715680122375	fix_post	2		12.0	42.0	2.5	/experiments/knapen_aot/videos/R_S_pexels-nkem-6237382.mp4	0.0	259.42470598220825	0.09991216659545898
45	121.90706896781921	fix_pre	0		19.0	43.0	2.5	/experiments/knapen_aot/videos/S_yt-LhP0mZ6xxIg_111.mp4	0.0	259.5246181488037	0.1584019660949707
45	122.05725979804993	response	0	2		43.0	2.5	/experiments/knapen_aot/videos/S_yt-LhP0mZ6xxIg_111.mp4	0.0	259.6748089790344	
45	122.06547093391418	movie	1		301.0	43.0	2.5	/experiments/knapen_aot/videos/S_yt-LhP0mZ6xxIg_111.mp4	0.0	259.6830201148987	2.5082950592041016
45	124.57376599311829	fix_post	2		12.0	43.0	2.5	/experiments/knapen_aot/videos/S_yt-LhP0mZ6xxIg_111.mp4	0.0	262.1913151741028	0.09996294975280762
46	124.6737289428711	fix_pre	0		10.0	44.0	2.5	/experiments/knapen_aot/videos/S_G008_C015_UHD_SDR_2K_AVC.mp4	0.0	262.2912781238556	0.08342194557189941
46	124.74148392677307	response	0	2		44.0	2.5	/experiments/knapen_aot/videos/S_G008_C015_UHD_SDR_2K_AVC.mp4	0.0	262.35903310775757	
46	124.757150888443	movie	1		184.0	44.0	2.5	/experiments/knapen_aot/videos/S_G008_C015_UHD_SDR_2K_AVC.mp4	0.0	262.3747000694275	2.508310079574585
46	127.26546096801758	fix_post	2		12.0	44.0	2.5	/experiments/knapen_aot/videos/S_G008_C015_UHD_SDR_2K_AVC.mp4	0.0	264.8830101490021	0.10010194778442383
46	127.32526683807373	response	2	2		44.0	2.5	/experiments/knapen_aot/videos/S_G008_C015_UHD_SDR_2K_AVC.mp4	0.0	264.9428160190582	
47	127.365562915802	fix_pre	0		83.0	45.0	2.5	/experiments/knapen_aot/videos/R_S_ILSVRC2015_train_00743005.mp4	0.0	264.9831120967865	0.6915609836578369
47	128.04882383346558	response	0	2		45.0	2.5	/experiments/knapen_aot/videos/R_S_ILSVRC2015_train_00743005.mp4	0.0	265.6663730144501	
47	128.05712389945984	movie	1		301.0	45.0	2.5	/experiments/knapen_aot/videos/R_S_ILSVRC2015_train_00743005.mp4	0.0	265.67467308044434	2.5083580017089844
47	130.56548190116882	fix_post	2		12.0	45.0	2.5	/experiments/knapen_aot/videos/R_S_ILSVRC2015_train_00743005.mp4	0.0	268.1830310821533	0.09991002082824707
48	130.66539192199707	fix_pre	0		44.0	46.0	2.5	/experiments/knapen_aot/videos/S_yt-a9bnYU0Gnxg_59.mp4	0.0	268.28294110298157	0.36669087409973145
48	131.02394485473633	response	0	2		46.0	2.5	/experiments/knapen_aot/videos/S_yt-a9bnYU0Gnxg_59.mp4	0.0	268.6414940357208	
48	131.0320827960968	movie	1		301.0	46.0	2.5	/experiments/knapen_aot/videos/S_yt-a9bnYU0Gnxg_59.mp4	0.0	268.6496319770813	2.5083441734313965
48	133.5404269695282	fix_post	2		12.0	46.0	2.5	/experiments/knapen_aot/videos/S_yt-a9bnYU0Gnxg_59.mp4	0.0	271.1579761505127	0.10001301765441895
49	133.64043998718262	fix_pre	0		51.0	47.0	2.5	/experiments/knapen_aot/videos/S_yt-uSHBdUi8_V0_24.mp4	0.0	271.2579891681671	0.4251887798309326
49	134.05726599693298	response	0	4		47.0	2.5	/experiments/knapen_aot/videos/S_yt-uSHBdUi8_V0_24.mp4	0.0	271.6748151779175	
49	134.06562876701355	movie	1		301.0	47.0	2.5	/experiments/knapen_aot/videos/S_yt-uSHBdUi8_V0_24.mp4	0.0	271.68317794799805	2.5080931186676025
49	136.57372188568115	fix_post	2		12.0	47.0	2.5	/experiments/knapen_aot/videos/S_yt-uSHBdUi8_V0_24.mp4	0.0	274.19127106666565	0.10006904602050781
50	136.67379093170166	fix_pre	0		25.0	48.0	2.5	/experiments/knapen_aot/videos/R_S_yt-oT4Bq8zYN4E_42.mp4	0.0	274.29134011268616	0.20833706855773926
50	136.87384581565857	response	0	2		48.0	2.5	/experiments/knapen_aot/videos/R_S_yt-oT4Bq8zYN4E_42.mp4	0.0	274.49139499664307	
50	136.8821280002594	movie	1		301.0	48.0	2.5	/experiments/knapen_aot/videos/R_S_yt-oT4Bq8zYN4E_42.mp4	0.0	274.4996771812439	2.508370876312256
50	139.39049887657166	fix_post	2		12.0	48.0	2.5	/experiments/knapen_aot/videos/R_S_yt-oT4Bq8zYN4E_42.mp4	0.0	277.00804805755615	0.0999460220336914
51	139.49044489860535	fix_pre	0		23.0	49.0	2.5	blank	1.0	277.10799407958984	0.1916821002960205
51	139.6739377975464	response	0	2		49.0	2.5	blank	1.0	277.2914869785309	
51	139.68212699890137	movie	1		301.0	49.0	2.5	blank	1.0	277.29967617988586	2.5082778930664062
51	142.19040489196777	fix_post	2		12.0	49.0	2.5	blank	1.0	279.80795407295227	0.10031008720397949
52	142.29071497917175	fix_pre	0		31.0	50.0	2.5	/experiments/knapen_aot/videos/R_S_wc-lItGMdwvEd_l_7.mp4	0.0	279.90826416015625	0.2580130100250244
52	142.54054999351501	response	0	2		50.0	2.5	/experiments/knapen_aot/videos/R_S_wc-lItGMdwvEd_l_7.mp4	0.0	280.1580991744995	
52	142.54872798919678	movie	1		165.0	50.0	2.5	/experiments/knapen_aot/videos/R_S_wc-lItGMdwvEd_l_7.mp4	0.0	280.1662771701813	2.508394956588745
52	145.05712294578552	fix_post	2		12.0	50.0	2.5	/experiments/knapen_aot/videos/R_S_wc-lItGMdwvEd_l_7.mp4	0.0	282.67467212677	0.09991288185119629
53	145.15703582763672	fix_pre	0		12.0	51.0	2.5	/experiments/knapen_aot/videos/S_yt-RO4mhuXBVrY_67.mp4	0.0	282.7745850086212	0.10001301765441895
53	145.24199676513672	response	0	2		51.0	2.5	/experiments/knapen_aot/videos/S_yt-RO4mhuXBVrY_67.mp4	0.0	282.8595459461212	
53	145.25704884529114	movie	1		301.0	51.0	2.5	/experiments/knapen_aot/videos/S_yt-RO4mhuXBVrY_67.mp4	0.0	282.87459802627563	2.5083839893341064
53	147.76543283462524	fix_post	2		12.0	51.0	2.5	/experiments/knapen_aot/videos/S_yt-RO4mhuXBVrY_67.mp4	0.0	285.38298201560974	0.09990811347961426
54	147.86534094810486	fix_pre	0		38.0	52.0	2.5	/experiments/knapen_aot/videos/R_S_yt-R9Iabv0XgOQ_80.mp4	0.0	285.48289012908936	0.31665897369384766
54	148.17382788658142	response	0	2		52.0	2.5	/experiments/knapen_aot/videos/R_S_yt-R9Iabv0XgOQ_80.mp4	0.0	285.7913770675659	
54	148.1819999217987	movie	1		300.0	52.0	2.5	/experiments/knapen_aot/videos/R_S_yt-R9Iabv0XgOQ_80.mp4	0.0	285.7995491027832	2.5084478855133057
54	150.690447807312	fix_post	2		12.0	52.0	2.5	/experiments/knapen_aot/videos/R_S_yt-R9Iabv0XgOQ_80.mp4	0.0	288.3079969882965	0.1002500057220459
55	150.79069781303406	fix_pre	0		12.0	53.0	2.5	/experiments/knapen_aot/videos/S_yt-xrWo3lnbshw_80.mp4	0.0	288.40824699401855	0.09969305992126465
55	150.88236093521118	response	0	4		53.0	2.5	/experiments/knapen_aot/videos/S_yt-xrWo3lnbshw_80.mp4	0.0	288.4999101161957	
55	150.89039087295532	movie	1		301.0	53.0	2.5	/experiments/knapen_aot/videos/S_yt-xrWo3lnbshw_80.mp4	0.0	288.5079400539398	2.508291006088257
55	153.39868187904358	fix_post	2		12.0	53.0	2.5	/experiments/knapen_aot/videos/S_yt-xrWo3lnbshw_80.mp4	0.0	291.0162310600281	0.10026097297668457
56	153.49894285202026	fix_pre	0		13.0	54.0	2.5	/experiments/knapen_aot/videos/R_S_yt-HQQws1Lp_rQ_10.mp4	0.0	291.11649203300476	0.10806393623352051
56	153.59885096549988	response	0	4		54.0	2.5	/experiments/knapen_aot/videos/R_S_yt-HQQws1Lp_rQ_10.mp4	0.0	291.2164001464844	
56	153.60700678825378	movie	1		300.0	54.0	2.5	/experiments/knapen_aot/videos/R_S_yt-HQQws1Lp_rQ_10.mp4	0.0	291.2245559692383	2.5083730220794678
56	156.11537981033325	fix_post	2		12.0	54.0	2.5	/experiments/knapen_aot/videos/R_S_yt-HQQws1Lp_rQ_10.mp4	0.0	293.73292899131775	0.09992718696594238
57	156.2153069972992	fix_pre	0		17.0	55.0	2.5	/experiments/knapen_aot/videos/S_yt-2l6VKd94eAI_151.mp4	0.0	293.8328561782837	0.14172792434692383
57	156.34877586364746	response	0	2		55.0	2.5	/experiments/knapen_aot/videos/S_yt-2l6VKd94eAI_151.mp4	0.0	293.96632504463196	
57	156.35703492164612	movie	1		301.0	55.0	2.5	/experiments/knapen_aot/videos/S_yt-2l6VKd94eAI_151.mp4	0.0	293.9745841026306	2.508309841156006
57	158.86534476280212	fix_post	2		12.0	55.0	2.5	/experiments/knapen_aot/videos/S_yt-2l6VKd94eAI_151.mp4	0.0	296.4828939437866	0.1000070571899414
58	158.96535181999207	fix_pre	0		31.0	56.0	2.5	blank	1.0	296.58290100097656	0.2583010196685791
58	159.21552896499634	response	0	2		56.0	2.5	blank	1.0	296.83307814598083	
58	159.22365283966064	movie	1		301.0	56.0	2.5	blank	1.0	296.84120202064514	2.5082850456237793
58	161.73193788528442	fix_post	2		12.0	56.0	2.5	blank	1.0	299.3494870662689	0.10027408599853516
59	161.83221197128296	fix_pre	0		38.0	57.0	2.5	/experiments/knapen_aot/videos/R_S_yt-RO4mhuXBVrY_67.mp4	0.0	299.44976115226746	0.31640100479125977
59	162.14043283462524	response	0	2		57.0	2.5	/experiments/knapen_aot/videos/R_S_yt-RO4mhuXBVrY_67.mp4	0.0	299.75798201560974	
59	162.14861297607422	movie	1		300.0	57.0	2.5	/experiments/knapen_aot/videos/R_S_yt-RO4mhuXBVrY_67.mp4	0.0	299.7661621570587	2.50839900970459
59	164.6570119857788	fix_post	2		12.0	57.0	2.5	/experiments/knapen_aot/videos/R_S_yt-RO4mhuXBVrY_67.mp4	0.0	302.2745611667633	0.0999448299407959
60	164.7569568157196	fix_pre	0		20.0	58.0	2.5	/experiments/knapen_aot/videos/S_yt-3ohvpS42xug_184.mp4	0.0	302.3745059967041	0.1666560173034668
60	164.91536283493042	response	0	2		58.0	2.5	/experiments/knapen_aot/videos/S_yt-3ohvpS42xug_184.mp4	0.0	302.5329120159149	
60	164.92361283302307	movie	1		301.0	58.0	2.5	/experiments/knapen_aot/videos/S_yt-3ohvpS42xug_184.mp4	0.0	302.54116201400757	2.508319139480591
60	167.43193197250366	fix_post	2		12.0	58.0	2.5	/experiments/knapen_aot/videos/S_yt-3ohvpS42xug_184.mp4	0.0	305.04948115348816	0.10000991821289062
61	167.53194189071655	fix_pre	0		25.0	59.0	2.5	/experiments/knapen_aot/videos/S_ILSVRC2015_train_00595000.mp4	0.0	305.14949107170105	0.20829296112060547
61	167.7321457862854	response	0	2		59.0	2.5	/experiments/knapen_aot/videos/S_ILSVRC2015_train_00595000.mp4	0.0	305.3496949672699	
61	167.74023485183716	movie	1		301.0	59.0	2.5	/experiments/knapen_aot/videos/S_ILSVRC2015_train_00595000.mp4	0.0	305.35778403282166	2.508613109588623
61	170.24884796142578	fix_post	2		12.0	59.0	2.5	/experiments/knapen_aot/videos/S_ILSVRC2015_train_00595000.mp4	0.0	307.8663971424103	0.09976387023925781
62	170.34861183166504	fix_pre	0		19.0	60.0	2.5	/experiments/knapen_aot/videos/R_S_yt-WTxvvlP8xnw_113.mp4	0.0	307.96616101264954	0.15826010704040527
62	170.49878191947937	response	0	2		60.0	2.5	/experiments/knapen_aot/videos/R_S_yt-WTxvvlP8xnw_113.mp4	0.0	308.11633110046387	
62	170.50687193870544	movie	1		301.0	60.0	2.5	/experiments/knapen_aot/videos/R_S_yt-WTxvvlP8xnw_113.mp4	0.0	308.12442111968994	2.508404016494751
62	173.0152759552002	fix_post	2		12.0	60.0	2.5	/experiments/knapen_aot/videos/R_S_yt-WTxvvlP8xnw_113.mp4	0.0	310.6328251361847	0.0999908447265625
63	173.11526679992676	fix_pre	0		22.0	61.0	2.5	/experiments/knapen_aot/videos/S_yt-1RVw8p6Dw2Q_20.mp4	0.0	310.73281598091125	0.18329906463623047
63	173.2904269695282	response	0	2		61.0	2.5	/experiments/knapen_aot/videos/S_yt-1RVw8p6Dw2Q_20.mp4	0.0	310.9079761505127	
63	173.298565864563	movie	1		301.0	61.0	2.5	/experiments/knapen_aot/videos/S_yt-1RVw8p6Dw2Q_20.mp4	0.0	310.9161150455475	2.508368968963623
63	175.8069348335266	fix_post	2		12.0	61.0	2.5	/experiments/knapen_aot/videos/S_yt-1RVw8p6Dw2Q_20.mp4	0.0	313.4244840145111	0.10002303123474121
64	175.90695786476135	fix_pre	0		8.0	62.0	2.5	/experiments/knapen_aot/videos/R_S_comp_GMT329_113NC_396B_1105_CHINA_v04_SDR_FINAL_20180706_F900F2700_SDR_2K_AVC.mp4	0.0	313.52450704574585	0.06663393974304199
64	175.96548080444336	response	0	2		62.0	2.5	/experiments/knapen_aot/videos/R_S_comp_GMT329_113NC_396B_1105_CHINA_v04_SDR_FINAL_20180706_F900F2700_SDR_2K_AVC.mp4	0.0	313.58302998542786	
64	175.9735918045044	movie	1		168.0	62.0	2.5	/experiments/knapen_aot/videos/R_S_comp_GMT329_113NC_396B_1105_CHINA_v04_SDR_FINAL_20180706_F900F2700_SDR_2K_AVC.mp4	0.0	313.5911409854889	2.50829815864563
64	178.48188996315002	fix_post	2		12.0	62.0	2.5	/experiments/knapen_aot/videos/R_S_comp_GMT329_113NC_396B_1105_CHINA_v04_SDR_FINAL_20180706_F900F2700_SDR_2K_AVC.mp4	0.0	316.0994391441345	0.10013890266418457
65	178.5820288658142	fix_pre	0		2.0	63.0	2.5	blank	1.0	316.1995780467987	0.016576051712036133
65	178.5902979373932	response	0	2		63.0	2.5	blank	1.0	316.2078471183777	
65	178.59860491752625	movie	1		301.0	63.0	2.5	blank	1.0	316.21615409851074	2.508305072784424
65	181.10690999031067	fix_post	2		12.0	63.0	2.5	blank	1.0	318.72445917129517	0.10009980201721191
66	181.20700979232788	fix_pre	0		23.0	64.0	2.5	/experiments/knapen_aot/videos/S_yt-XA6RBioito4_18.mp4	0.0	318.8245589733124	0.19155597686767578
66	181.39032578468323	response	0	2		64.0	2.5	/experiments/knapen_aot/videos/S_yt-XA6RBioito4_18.mp4	0.0	319.0078749656677	
66	181.39856576919556	movie	1		301.0	64.0	2.5	/experiments/knapen_aot/videos/S_yt-XA6RBioito4_18.mp4	0.0	319.01611495018005	2.508334159851074
66	183.90689992904663	fix_post	2		12.0	64.0	2.5	/experiments/knapen_aot/videos/S_yt-XA6RBioito4_18.mp4	0.0	321.5244491100311	0.10001301765441895
67	184.00691294670105	fix_pre	0		24.0	65.0	2.5	/experiments/knapen_aot/videos/S_ILSVRC2015_train_00743005.mp4	0.0	321.62446212768555	0.20005083084106445
67	184.19864988327026	response	0	2		65.0	2.5	/experiments/knapen_aot/videos/S_ILSVRC2015_train_00743005.mp4	0.0	321.81619906425476	
67	184.20696377754211	movie	1		301.0	65.0	2.5	/experiments/knapen_aot/videos/S_ILSVRC2015_train_00743005.mp4	0.0	321.8245129585266	2.5082449913024902
67	186.7152087688446	fix_post	2		12.0	65.0	2.5	/experiments/knapen_aot/videos/S_ILSVRC2015_train_00743005.mp4	0.0	324.3327579498291	0.09997415542602539
68	186.81518292427063	fix_pre	0		14.0	66.0	2.5	/experiments/knapen_aot/videos/S_video-5.mp4	0.0	324.4327321052551	0.11665606498718262
68	186.92362785339355	response	0	2		66.0	2.5	/experiments/knapen_aot/videos/S_video-5.mp4	0.0	324.54117703437805	
68	186.9318389892578	movie	1		175.0	66.0	2.5	/experiments/knapen_aot/videos/S_video-5.mp4	0.0	324.5493881702423	2.5083978176116943
68	189.4402368068695	fix_post	2		12.0	66.0	2.5	/experiments/knapen_aot/videos/S_video-5.mp4	0.0	327.057785987854	0.10022997856140137
69	189.5404667854309	fix_pre	0		39.0	67.0	2.5	/experiments/knapen_aot/videos/R_S_yt-9aKqMX9IHPg_242.mp4	0.0	327.1580159664154	0.3247251510620117
69	189.8569529056549	response	0	2		67.0	2.5	/experiments/knapen_aot/videos/R_S_yt-9aKqMX9IHPg_242.mp4	0.0	327.4745020866394	
69	189.86519193649292	movie	1		301.0	67.0	2.5	/experiments/knapen_aot/videos/R_S_yt-9aKqMX9IHPg_242.mp4	0.0	327.4827411174774	2.508409023284912
69	192.37360095977783	fix_post	2		12.0	67.0	2.5	/experiments/knapen_aot/videos/R_S_yt-9aKqMX9IHPg_242.mp4	0.0	329.99115014076233	0.09991693496704102
70	192.47351789474487	fix_pre	0		40.0	68.0	2.5	blank	1.0	330.09106707572937	0.3332650661468506
70	192.7986319065094	response	0	2		68.0	2.5	blank	1.0	330.4161810874939	
70	192.80678296089172	movie	1		301.0	68.0	2.5	blank	1.0	330.4243321418762	2.5084228515625
70	195.0819537639618	response	1	2		68.0	2.5	blank	1.0	332.6995029449463	
70	195.31520581245422	fix_post	2		12.0	68.0	2.5	blank	1.0	332.9327549934387	0.09998512268066406
71	195.4151909351349	fix_pre	0		26.0	69.0	2.5	/experiments/knapen_aot/videos/R_S_yt-F1X_vq0Zioc_154.mp4	0.0	333.0327401161194	0.21663904190063477
71	195.6236629486084	response	0	2		69.0	2.5	/experiments/knapen_aot/videos/R_S_yt-F1X_vq0Zioc_154.mp4	0.0	333.2412121295929	
71	195.63182997703552	movie	1		301.0	69.0	2.5	/experiments/knapen_aot/videos/R_S_yt-F1X_vq0Zioc_154.mp4	0.0	333.24937915802	2.5082449913024902
71	198.140074968338	fix_post	2		12.0	69.0	2.5	/experiments/knapen_aot/videos/R_S_yt-F1X_vq0Zioc_154.mp4	0.0	335.7576241493225	0.10010480880737305
72	198.24017977714539	fix_pre	0		27.0	70.0	2.5	/experiments/knapen_aot/videos/S_yt-RO4mhuXBVrY_67.mp4	0.0	335.8577289581299	0.22494912147521973
72	198.45694589614868	response	0	2		70.0	2.5	/experiments/knapen_aot/videos/S_yt-RO4mhuXBVrY_67.mp4	0.0	336.0744950771332	
72	198.4651288986206	movie	1		301.0	70.0	2.5	/experiments/knapen_aot/videos/S_yt-RO4mhuXBVrY_67.mp4	0.0	336.0826780796051	2.508358955383301
72	200.9734878540039	fix_post	2		12.0	70.0	2.5	/experiments/knapen_aot/videos/S_yt-RO4mhuXBVrY_67.mp4	0.0	338.5910370349884	0.09998512268066406
73	201.07347297668457	fix_pre	0		20.0	71.0	2.5	/experiments/knapen_aot/videos/R_S_yt-2ftSsLqRQnA_84.mp4	0.0	338.69102215766907	0.16666579246520996
73	201.23191690444946	response	0	2		71.0	2.5	/experiments/knapen_aot/videos/R_S_yt-2ftSsLqRQnA_84.mp4	0.0	338.84946608543396	
73	201.24013876914978	movie	1		298.0	71.0	2.5	/experiments/knapen_aot/videos/R_S_yt-2ftSsLqRQnA_84.mp4	0.0	338.8576879501343	2.508350133895874
73	203.74848890304565	fix_post	2		12.0	71.0	2.5	/experiments/knapen_aot/videos/R_S_yt-2ftSsLqRQnA_84.mp4	0.0	341.36603808403015	0.10004687309265137
74	203.8485357761383	fix_pre	0		16.0	72.0	2.5	/experiments/knapen_aot/videos/S_comp_A105_C003_0212CT_FLARE_v10_SDR_PS_FINAL_20180711_SDR_2K_AVC.mp4	0.0	341.4660849571228	0.13317203521728516
74	203.96613192558289	response	0	2		72.0	2.5	/experiments/knapen_aot/videos/S_comp_A105_C003_0212CT_FLARE_v10_SDR_PS_FINAL_20180711_SDR_2K_AVC.mp4	0.0	341.5836811065674	
74	203.9817078113556	movie	1		165.0	72.0	2.5	/experiments/knapen_aot/videos/S_comp_A105_C003_0212CT_FLARE_v10_SDR_PS_FINAL_20180711_SDR_2K_AVC.mp4	0.0	341.5992569923401	2.508465051651001
74	206.4901728630066	fix_post	2		12.0	72.0	2.5	/experiments/knapen_aot/videos/S_comp_A105_C003_0212CT_FLARE_v10_SDR_PS_FINAL_20180711_SDR_2K_AVC.mp4	0.0	344.1077220439911	0.09995508193969727
75	206.5901279449463	fix_pre	0		13.0	73.0	2.5	/experiments/knapen_aot/videos/S_yt-9aKqMX9IHPg_242.mp4	0.0	344.2076771259308	0.10828495025634766
75	206.69027590751648	response	0	2		73.0	2.5	/experiments/knapen_aot/videos/S_yt-9aKqMX9IHPg_242.mp4	0.0	344.307825088501	
75	206.69841289520264	movie	1		301.0	73.0	2.5	/experiments/knapen_aot/videos/S_yt-9aKqMX9IHPg_242.mp4	0.0	344.31596207618713	2.5084478855133057
75	209.20686078071594	fix_post	2		12.0	73.0	2.5	/experiments/knapen_aot/videos/S_yt-9aKqMX9IHPg_242.mp4	0.0	346.82440996170044	0.09992718696594238
76	209.30678796768188	fix_pre	0		13.0	74.0	2.5	/experiments/knapen_aot/videos/R_S_yt-JTBXPfbkjsA_11.mp4	0.0	346.9243371486664	0.10828995704650879
76	209.4068877696991	response	0	2		74.0	2.5	/experiments/knapen_aot/videos/R_S_yt-JTBXPfbkjsA_11.mp4	0.0	347.0244369506836	
76	209.4150779247284	movie	1		301.0	74.0	2.5	/experiments/knapen_aot/videos/R_S_yt-JTBXPfbkjsA_11.mp4	0.0	347.0326271057129	2.508363962173462
76	211.92344188690186	fix_post	2		12.0	74.0	2.5	/experiments/knapen_aot/videos/R_S_yt-JTBXPfbkjsA_11.mp4	0.0	349.54099106788635	0.09999299049377441
77	212.02343487739563	fix_pre	0		7.0	75.0	2.5	/experiments/knapen_aot/videos/S_ILSVRC2015_train_00549000.mp4	0.0	349.6409840583801	0.05829596519470215
77	212.07364678382874	response	0	2		75.0	2.5	/experiments/knapen_aot/videos/S_ILSVRC2015_train_00549000.mp4	0.0	349.69119596481323	
77	212.08173084259033	movie	1		301.0	75.0	2.5	/experiments/knapen_aot/videos/S_ILSVRC2015_train_00549000.mp4	0.0	349.69928002357483	2.508315086364746
77	214.59004592895508	fix_post	2		12.0	75.0	2.5	/experiments/knapen_aot/videos/S_ILSVRC2015_train_00549000.mp4	0.0	352.2075951099396	0.10006499290466309
78	214.69011092185974	fix_pre	0		29.0	76.0	2.5	/experiments/knapen_aot/videos/R_S_yt-lkpfs_4qAGE_50.mp4	0.0	352.30766010284424	0.24165606498718262
78	214.92359685897827	response	0	2		76.0	2.5	/experiments/knapen_aot/videos/R_S_yt-lkpfs_4qAGE_50.mp4	0.0	352.54114603996277	
78	214.93176698684692	movie	1		301.0	76.0	2.5	/experiments/knapen_aot/videos/R_S_yt-lkpfs_4qAGE_50.mp4	0.0	352.5493161678314	2.5083508491516113
78	217.44011783599854	fix_post	2		12.0	76.0	2.5	/experiments/knapen_aot/videos/R_S_yt-lkpfs_4qAGE_50.mp4	0.0	355.05766701698303	0.09994101524353027
79	217.54005885124207	fix_pre	0		19.0	77.0	2.5	blank	1.0	355.15760803222656	0.15839099884033203
79	217.69025087356567	response	0	2		77.0	2.5	blank	1.0	355.30780005455017	
79	217.6984498500824	movie	1		301.0	77.0	2.5	blank	1.0	355.3159990310669	2.5083601474761963
79	220.2068099975586	fix_post	2		12.0	77.0	2.5	blank	1.0	357.8243591785431	0.09988999366760254
80	220.3066999912262	fix_pre	0		21.0	78.0	2.5	/experiments/knapen_aot/videos/S_production_ID_3927047.mp4	0.0	357.9242491722107	0.17502093315124512
80	220.47356486320496	response	0	2		78.0	2.5	/experiments/knapen_aot/videos/S_production_ID_3927047.mp4	0.0	358.09111404418945	
80	220.48172092437744	movie	1		178.0	78.0	2.5	/experiments/knapen_aot/videos/S_production_ID_3927047.mp4	0.0	358.09927010536194	2.5083720684051514
80	222.9900929927826	fix_post	2		12.0	78.0	2.5	/experiments/knapen_aot/videos/S_production_ID_3927047.mp4	0.0	360.6076421737671	0.09995698928833008
81	223.09004998207092	fix_pre	0		9.0	79.0	2.5	/experiments/knapen_aot/videos/S_yt-bhiGMKSAz2g_370.mp4	0.0	360.7075991630554	0.07500195503234863
81	223.1493628025055	response	0	2		79.0	2.5	/experiments/knapen_aot/videos/S_yt-bhiGMKSAz2g_370.mp4	0.0	360.76691198349	
81	223.16505193710327	movie	1		299.0	79.0	2.5	/experiments/knapen_aot/videos/S_yt-bhiGMKSAz2g_370.mp4	0.0	360.78260111808777	2.508267879486084
81	225.67331981658936	fix_post	2		12.0	79.0	2.5	/experiments/knapen_aot/videos/S_yt-bhiGMKSAz2g_370.mp4	0.0	363.29086899757385	0.10008597373962402
82	225.77340579032898	fix_pre	0		8.0	80.0	2.5	/experiments/knapen_aot/videos/R_S_yt-NZIhxK5NvWE_152.mp4	0.0	363.3909549713135	0.06663107872009277
82	225.83181190490723	response	0	2		80.0	2.5	/experiments/knapen_aot/videos/R_S_yt-NZIhxK5NvWE_152.mp4	0.0	363.4493610858917	
82	225.84003686904907	movie	1		301.0	80.0	2.5	/experiments/knapen_aot/videos/R_S_yt-NZIhxK5NvWE_152.mp4	0.0	363.45758605003357	2.508327007293701
82	228.34836387634277	fix_post	2		12.0	80.0	2.5	/experiments/knapen_aot/videos/R_S_yt-NZIhxK5NvWE_152.mp4	0.0	365.96591305732727	0.10001492500305176
83	228.44837880134583	fix_pre	0		1.0	81.0	2.5	/experiments/knapen_aot/videos/R_S_yt-sPhtPyQM00c_106.mp4	0.0	366.0659279823303	0.008383989334106445
83	228.4500548839569	response	0	2		81.0	2.5	/experiments/knapen_aot/videos/R_S_yt-sPhtPyQM00c_106.mp4	0.0	366.0676040649414	
83	228.45676279067993	movie	1		301.0	81.0	2.5	/experiments/knapen_aot/videos/R_S_yt-sPhtPyQM00c_106.mp4	0.0	366.07431197166443	2.5082571506500244
83	230.96501994132996	fix_post	2		12.0	81.0	2.5	/experiments/knapen_aot/videos/R_S_yt-sPhtPyQM00c_106.mp4	0.0	368.58256912231445	0.09998083114624023
84	231.0650007724762	fix_pre	0		10.0	82.0	2.5	/experiments/knapen_aot/videos/S_yt-ROhKDdF1gV4_21.mp4	0.0	368.6825499534607	0.08330512046813965
84	231.14014887809753	response	0	2		82.0	2.5	/experiments/knapen_aot/videos/S_yt-ROhKDdF1gV4_21.mp4	0.0	368.75769805908203	
84	231.14830589294434	movie	1		298.0	82.0	2.5	/experiments/knapen_aot/videos/S_yt-ROhKDdF1gV4_21.mp4	0.0	368.76585507392883	2.5083229541778564
84	233.6566288471222	fix_post	2		12.0	82.0	2.5	/experiments/knapen_aot/videos/S_yt-ROhKDdF1gV4_21.mp4	0.0	371.2741780281067	0.10006308555603027
85	233.75669193267822	fix_pre	0		3.0	83.0	2.5	blank	1.0	371.3742411136627	0.024934053421020508
85	233.77342796325684	response	0	2		83.0	2.5	blank	1.0	371.39097714424133	
85	233.78162598609924	movie	1		301.0	83.0	2.5	blank	1.0	371.39917516708374	2.5083889961242676
85	236.2900149822235	fix_post	2		12.0	83.0	2.5	blank	1.0	373.907564163208	0.09996700286865234
87	236.38998198509216	stim	0		141.0					374.00753116607666	1.1776537895202637
87	236.59842896461487	response	0	2						374.21597814559937	
87	237.5611608028412	response	0	space						375.1787099838257	
