trial_nr	onset	event_type	phase	response	nr_frames	movie_index	movie_duration	movie_file	blank	onset_abs	duration
0	0.15276408195495605	stim	0		20.0					70.78638696670532	0.1698307991027832
0	0.31432509422302246	response	0	space						70.94794797897339	
1	0.32259488105773926	stim	0		121.0					70.9562177658081	1.0081121921539307
1	0.8060600757598877	response	0	space						71.43968296051025	
1	1.33070707321167	stim	1		120.0					71.96432995796204	1.0000009536743164
1	1.5056641101837158	response	1	space						72.13928699493408	
1	1.7223529815673828	response	1	space						72.35597586631775	
1	1.9481379985809326	response	1	space						72.5817608833313	
1	2.1972339153289795	response	1	space						72.83085680007935	
2	2.3307080268859863	fix_pre	0		25.0	0.0	2.5	/experiments/knapen_aot/oldvideos/S_b3TCugtX0h0_108.mp4	0.0	72.96433091163635	0.21057391166687012
2	2.53068208694458	response	0	space		0.0	2.5	/experiments/knapen_aot/oldvideos/S_b3TCugtX0h0_108.mp4	0.0	73.16430497169495	
2	2.5412819385528564	movie	1		301.0	0.0	2.5	/experiments/knapen_aot/oldvideos/S_b3TCugtX0h0_108.mp4	0.0	73.17490482330322	2.5059800148010254
2	5.047261953353882	fix_post	2		12.0	0.0	2.5	/experiments/knapen_aot/oldvideos/S_b3TCugtX0h0_108.mp4	0.0	75.68088483810425	0.09992408752441406
3	5.147186040878296	fix_pre	0		35.0	1.0	2.5	/experiments/knapen_aot/oldvideos/S_P005_C002_UHD_SDR_2K_AVC.mp4	0.0	75.78080892562866	0.2917029857635498
3	5.432097911834717	response	0	4		1.0	2.5	/experiments/knapen_aot/oldvideos/S_P005_C002_UHD_SDR_2K_AVC.mp4	0.0	76.06572079658508	
3	5.438889026641846	movie	1		167.0	1.0	2.5	/experiments/knapen_aot/oldvideos/S_P005_C002_UHD_SDR_2K_AVC.mp4	0.0	76.07251191139221	2.508404016494751
3	7.947293043136597	fix_post	2		12.0	1.0	2.5	/experiments/knapen_aot/oldvideos/S_P005_C002_UHD_SDR_2K_AVC.mp4	0.0	78.58091592788696	0.09987497329711914
4	8.047168016433716	fix_pre	0		18.0	2.0	2.5	/experiments/knapen_aot/oldvideos/R_S_yt-oVrkSsEpuvk_118.mp4	0.0	78.68079090118408	0.15001702308654785
4	8.189019918441772	response	0	4		2.0	2.5	/experiments/knapen_aot/oldvideos/R_S_yt-oVrkSsEpuvk_118.mp4	0.0	78.82264280319214	
4	8.197185039520264	movie	1		301.0	2.0	2.5	/experiments/knapen_aot/oldvideos/R_S_yt-oVrkSsEpuvk_118.mp4	0.0	78.83080792427063	2.5083580017089844
4	10.705543041229248	fix_post	2		12.0	2.0	2.5	/experiments/knapen_aot/oldvideos/R_S_yt-oVrkSsEpuvk_118.mp4	0.0	81.33916592597961	0.09998703002929688
5	10.805530071258545	fix_pre	0		19.0	3.0	2.5	/experiments/knapen_aot/oldvideos/S_yt-zgimmOcW5Mc_127.mp4	0.0	81.43915295600891	0.15927481651306152
5	10.955673933029175	response	0	4		3.0	2.5	/experiments/knapen_aot/oldvideos/S_yt-zgimmOcW5Mc_127.mp4	0.0	81.58929681777954	
5	10.964804887771606	movie	1		301.0	3.0	2.5	/experiments/knapen_aot/oldvideos/S_yt-zgimmOcW5Mc_127.mp4	0.0	81.59842777252197	2.5074520111083984
5	13.472256898880005	fix_post	2		12.0	3.0	2.5	/experiments/knapen_aot/oldvideos/S_yt-zgimmOcW5Mc_127.mp4	0.0	84.10587978363037	0.09996414184570312
6	13.572221040725708	fix_pre	0		27.0	4.0	2.5	/experiments/knapen_aot/oldvideos/S_yt-_HuBzj8EPBc_62.mp4	0.0	84.20584392547607	0.22594404220581055
6	13.788935899734497	response	0	4		4.0	2.5	/experiments/knapen_aot/oldvideos/S_yt-_HuBzj8EPBc_62.mp4	0.0	84.42255878448486	
6	13.798165082931519	movie	1		301.0	4.0	2.5	/experiments/knapen_aot/oldvideos/S_yt-_HuBzj8EPBc_62.mp4	0.0	84.43178796768188	2.507351875305176
6	16.305516958236694	fix_post	2		12.0	4.0	2.5	/experiments/knapen_aot/oldvideos/S_yt-_HuBzj8EPBc_62.mp4	0.0	86.93913984298706	0.10000991821289062
7	16.405526876449585	fix_pre	0		133.0	5.0	2.5	/experiments/knapen_aot/oldvideos/S_yt-JDHApyT5ngs_128.mp4	0.0	87.03914976119995	1.1083202362060547
7	17.50567388534546	response	0	4		5.0	2.5	/experiments/knapen_aot/oldvideos/S_yt-JDHApyT5ngs_128.mp4	0.0	88.13929677009583	
7	17.51384711265564	movie	1		301.0	5.0	2.5	/experiments/knapen_aot/oldvideos/S_yt-JDHApyT5ngs_128.mp4	0.0	88.147469997406	2.5084409713745117
7	20.02228808403015	fix_post	2		12.0	5.0	2.5	/experiments/knapen_aot/oldvideos/S_yt-JDHApyT5ngs_128.mp4	0.0	90.65591096878052	0.09985995292663574
8	20.122148036956787	fix_pre	0		27.0	6.0	2.5	/experiments/knapen_aot/oldvideos/R_S_ILSVRC2015_train_00001011.mp4	0.0	90.75577092170715	0.22502994537353516
8	20.338968992233276	response	0	4		6.0	2.5	/experiments/knapen_aot/oldvideos/R_S_ILSVRC2015_train_00001011.mp4	0.0	90.97259187698364	
8	20.347177982330322	movie	1		299.0	6.0	2.5	/experiments/knapen_aot/oldvideos/R_S_ILSVRC2015_train_00001011.mp4	0.0	90.98080086708069	2.5083260536193848
8	22.855504035949707	fix_post	2		12.0	6.0	2.5	/experiments/knapen_aot/oldvideos/R_S_ILSVRC2015_train_00001011.mp4	0.0	93.48912692070007	0.10006284713745117
9	22.955566883087158	fix_pre	0		13.0	7.0	2.5	blank	1.0	93.58918976783752	0.10831212997436523
9	23.055541038513184	response	0	4		7.0	2.5	blank	1.0	93.68916392326355	
9	23.063879013061523	movie	1		301.0	7.0	2.5	blank	1.0	93.69750189781189	2.5084738731384277
9	25.57235288619995	fix_post	2		12.0	7.0	2.5	blank	1.0	96.20597577095032	0.09977006912231445
10	25.672122955322266	fix_pre	0		21.0	8.0	2.5	/experiments/knapen_aot/oldvideos/R_S_yt-8fQ9LaF8U10_382.mp4	0.0	96.30574584007263	0.17499613761901855
10	25.838879108428955	response	0	4		8.0	2.5	/experiments/knapen_aot/oldvideos/R_S_yt-8fQ9LaF8U10_382.mp4	0.0	96.47250199317932	
10	25.847119092941284	movie	1		301.0	8.0	2.5	/experiments/knapen_aot/oldvideos/R_S_yt-8fQ9LaF8U10_382.mp4	0.0	96.48074197769165	2.5083649158477783
10	28.355484008789062	fix_post	2		12.0	8.0	2.5	/experiments/knapen_aot/oldvideos/R_S_yt-8fQ9LaF8U10_382.mp4	0.0	98.98910689353943	0.10006403923034668
11	28.45554804801941	fix_pre	0		36.0	9.0	2.5	/experiments/knapen_aot/oldvideos/S_yt-W4Shvmb1JYs_258.mp4	0.0	99.08917093276978	0.3008079528808594
11	28.747273921966553	response	0	4		9.0	2.5	/experiments/knapen_aot/oldvideos/S_yt-W4Shvmb1JYs_258.mp4	0.0	99.38089680671692	
11	28.75635600090027	movie	1		300.0	9.0	2.5	/experiments/knapen_aot/oldvideos/S_yt-W4Shvmb1JYs_258.mp4	0.0	99.38997888565063	2.5074400901794434
11	30.541100025177002	response	1	4		9.0	2.5	/experiments/knapen_aot/oldvideos/S_yt-W4Shvmb1JYs_258.mp4	0.0	101.17472290992737	
11	31.263796091079712	fix_post	2		12.0	9.0	2.5	/experiments/knapen_aot/oldvideos/S_yt-W4Shvmb1JYs_258.mp4	0.0	101.89741897583008	0.1001899242401123
12	31.363986015319824	fix_pre	0		21.0	10.0	2.5	/experiments/knapen_aot/oldvideos/S_yt-JDHApyT5ngs_128.mp4	0.0	101.99760890007019	0.17480206489562988
12	31.530586004257202	response	0	4		10.0	2.5	/experiments/knapen_aot/oldvideos/S_yt-JDHApyT5ngs_128.mp4	0.0	102.16420888900757	
12	31.538788080215454	movie	1		301.0	10.0	2.5	/experiments/knapen_aot/oldvideos/S_yt-JDHApyT5ngs_128.mp4	0.0	102.17241096496582	2.5084238052368164
12	34.04721188545227	fix_post	2		12.0	10.0	2.5	/experiments/knapen_aot/oldvideos/S_yt-JDHApyT5ngs_128.mp4	0.0	104.68083477020264	0.09992599487304688
13	34.14713788032532	fix_pre	0		28.0	11.0	2.5	/experiments/knapen_aot/oldvideos/R_S_yt-FoO02U39gy4_398.mp4	0.0	104.78076076507568	0.23418903350830078
13	34.372222900390625	response	0	4		11.0	2.5	/experiments/knapen_aot/oldvideos/R_S_yt-FoO02U39gy4_398.mp4	0.0	105.00584578514099	
13	34.38132691383362	movie	1		301.0	11.0	2.5	/experiments/knapen_aot/oldvideos/R_S_yt-FoO02U39gy4_398.mp4	0.0	105.01494979858398	2.5074350833892822
13	36.8887619972229	fix_post	2		12.0	11.0	2.5	/experiments/knapen_aot/oldvideos/R_S_yt-FoO02U39gy4_398.mp4	0.0	107.52238488197327	0.09998011589050293
14	36.9887421131134	fix_pre	0		46.0	12.0	2.5	blank	1.0	107.62236499786377	0.38331079483032227
14	37.36378598213196	response	0	4		12.0	2.5	blank	1.0	107.99740886688232	
14	37.372052907943726	movie	1		301.0	12.0	2.5	blank	1.0	108.00567579269409	2.5084011554718018
14	39.88045406341553	fix_post	2		12.0	12.0	2.5	blank	1.0	110.5140769481659	0.09996604919433594
15	39.98042011260986	fix_pre	0		27.0	13.0	2.5	/experiments/knapen_aot/oldvideos/S_yt-wPXrAuiiRZg_1062.mp4	0.0	110.61404299736023	0.22498297691345215
15	40.19718909263611	response	0	4		13.0	2.5	/experiments/knapen_aot/oldvideos/S_yt-wPXrAuiiRZg_1062.mp4	0.0	110.83081197738647	
15	40.205403089523315	movie	1		301.0	13.0	2.5	/experiments/knapen_aot/oldvideos/S_yt-wPXrAuiiRZg_1062.mp4	0.0	110.83902597427368	2.5083608627319336
15	42.71376395225525	fix_post	2		12.0	13.0	2.5	/experiments/knapen_aot/oldvideos/S_yt-wPXrAuiiRZg_1062.mp4	0.0	113.34738683700562	0.09993410110473633
16	42.813698053359985	fix_pre	0		25.0	14.0	2.5	/experiments/knapen_aot/oldvideos/S_yt-_Hnr82bYGEQ_103.mp4	0.0	113.44732093811035	0.20835304260253906
16	43.013771057128906	response	0	4		14.0	2.5	/experiments/knapen_aot/oldvideos/S_yt-_Hnr82bYGEQ_103.mp4	0.0	113.64739394187927	
16	43.022051095962524	movie	1		301.0	14.0	2.5	/experiments/knapen_aot/oldvideos/S_yt-_Hnr82bYGEQ_103.mp4	0.0	113.65567398071289	2.5084388256073
16	45.530489921569824	fix_post	2		12.0	14.0	2.5	/experiments/knapen_aot/oldvideos/S_yt-_Hnr82bYGEQ_103.mp4	0.0	116.16411280632019	0.09995198249816895
17	45.63044190406799	fix_pre	0		35.0	15.0	2.5	/experiments/knapen_aot/oldvideos/S_yt-yXJr3FR2xrM_27.mp4	0.0	116.26406478881836	0.2924480438232422
17	45.913907051086426	response	0	4		15.0	2.5	/experiments/knapen_aot/oldvideos/S_yt-yXJr3FR2xrM_27.mp4	0.0	116.54752993583679	
17	45.922889947891235	movie	1		301.0	15.0	2.5	/experiments/knapen_aot/oldvideos/S_yt-yXJr3FR2xrM_27.mp4	0.0	116.5565128326416	2.5075371265411377
17	48.43042707443237	fix_post	2		12.0	15.0	2.5	/experiments/knapen_aot/oldvideos/S_yt-yXJr3FR2xrM_27.mp4	0.0	119.06404995918274	0.09995102882385254
18	48.530378103256226	fix_pre	0		51.0	16.0	2.5	/experiments/knapen_aot/oldvideos/R_S_yt-pO5SVq-9EhU_114.mp4	0.0	119.16400098800659	0.42502880096435547
18	48.94724202156067	response	0	4		16.0	2.5	/experiments/knapen_aot/oldvideos/R_S_yt-pO5SVq-9EhU_114.mp4	0.0	119.58086490631104	
18	48.95540690422058	movie	1		301.0	16.0	2.5	/experiments/knapen_aot/oldvideos/R_S_yt-pO5SVq-9EhU_114.mp4	0.0	119.58902978897095	2.508294105529785
18	51.463701009750366	fix_post	2		12.0	16.0	2.5	/experiments/knapen_aot/oldvideos/R_S_yt-pO5SVq-9EhU_114.mp4	0.0	122.09732389450073	0.10004401206970215
19	51.56374502182007	fix_pre	0		42.0	17.0	2.5	/experiments/knapen_aot/oldvideos/S_yt-VJ65ukWmdxQ_193.mp4	0.0	122.19736790657043	0.3499748706817627
19	51.90552806854248	response	0	4		17.0	2.5	/experiments/knapen_aot/oldvideos/S_yt-VJ65ukWmdxQ_193.mp4	0.0	122.53915095329285	
19	51.91371989250183	movie	1		301.0	17.0	2.5	/experiments/knapen_aot/oldvideos/S_yt-VJ65ukWmdxQ_193.mp4	0.0	122.5473427772522	2.508331060409546
19	54.42205095291138	fix_post	2		12.0	17.0	2.5	/experiments/knapen_aot/oldvideos/S_yt-VJ65ukWmdxQ_193.mp4	0.0	125.05567383766174	0.09995508193969727
20	54.522006034851074	fix_pre	0		26.0	18.0	2.5	/experiments/knapen_aot/oldvideos/S_yt-2pRKCSgdXXU_30.mp4	0.0	125.15562891960144	0.21674203872680664
20	54.73051905632019	response	0	4		18.0	2.5	/experiments/knapen_aot/oldvideos/S_yt-2pRKCSgdXXU_30.mp4	0.0	125.36414194107056	
20	54.73874807357788	movie	1		301.0	18.0	2.5	/experiments/knapen_aot/oldvideos/S_yt-2pRKCSgdXXU_30.mp4	0.0	125.37237095832825	2.5083248615264893
20	57.24707293510437	fix_post	2		12.0	18.0	2.5	/experiments/knapen_aot/oldvideos/S_yt-2pRKCSgdXXU_30.mp4	0.0	127.88069581985474	0.10001707077026367
21	57.347090005874634	fix_pre	0		28.0	19.0	2.5	blank	1.0	127.980712890625	0.23327898979187012
21	57.572118043899536	response	0	4		19.0	2.5	blank	1.0	128.2057409286499	
21	57.580368995666504	movie	1		301.0	19.0	2.5	blank	1.0	128.21399188041687	2.5083789825439453
21	60.08874797821045	fix_post	2		12.0	19.0	2.5	blank	1.0	130.72237086296082	0.10001802444458008
22	60.18876600265503	fix_pre	0		57.0	20.0	2.5	/experiments/knapen_aot/oldvideos/R_S_video_inspire_alabama_montgomery_countryside_00007.1080-h264.mp4	0.0	130.8223888874054	0.47492504119873047
22	60.65542697906494	response	0	4		20.0	2.5	/experiments/knapen_aot/oldvideos/R_S_video_inspire_alabama_montgomery_countryside_00007.1080-h264.mp4	0.0	131.2890498638153	
22	60.66369104385376	movie	1		169.0	20.0	2.5	/experiments/knapen_aot/oldvideos/R_S_video_inspire_alabama_montgomery_countryside_00007.1080-h264.mp4	0.0	131.29731392860413	2.5083439350128174
22	63.17203497886658	fix_post	2		12.0	20.0	2.5	/experiments/knapen_aot/oldvideos/R_S_video_inspire_alabama_montgomery_countryside_00007.1080-h264.mp4	0.0	133.80565786361694	0.10004091262817383
23	63.27207589149475	fix_pre	0		8.0	21.0	2.5	/experiments/knapen_aot/oldvideos/R_S_pexels-roman-odintsov-8232443.mp4	0.0	133.90569877624512	0.06722807884216309
23	63.33046889305115	response	0	4		21.0	2.5	/experiments/knapen_aot/oldvideos/R_S_pexels-roman-odintsov-8232443.mp4	0.0	133.9640917778015	
23	63.339303970336914	movie	1		204.0	21.0	2.5	/experiments/knapen_aot/oldvideos/R_S_pexels-roman-odintsov-8232443.mp4	0.0	133.97292685508728	2.5076770782470703
23	65.84698104858398	fix_post	2		12.0	21.0	2.5	/experiments/knapen_aot/oldvideos/R_S_pexels-roman-odintsov-8232443.mp4	0.0	136.48060393333435	0.10003805160522461
24	65.94701910018921	fix_pre	0		27.0	22.0	2.5	/experiments/knapen_aot/oldvideos/R_S_yt-y6JsUW0eSW8_32.mp4	0.0	136.58064198493958	0.22564482688903809
24	66.16381502151489	response	0	2		22.0	2.5	/experiments/knapen_aot/oldvideos/R_S_yt-y6JsUW0eSW8_32.mp4	0.0	136.79743790626526	
24	66.17266392707825	movie	1		301.0	22.0	2.5	/experiments/knapen_aot/oldvideos/R_S_yt-y6JsUW0eSW8_32.mp4	0.0	136.8062868118286	2.507662057876587
24	68.68032598495483	fix_post	2		12.0	22.0	2.5	/experiments/knapen_aot/oldvideos/R_S_yt-y6JsUW0eSW8_32.mp4	0.0	139.3139488697052	0.10005593299865723
25	68.78038191795349	fix_pre	0		106.0	23.0	2.5	/experiments/knapen_aot/oldvideos/R_S_video-7.mp4	0.0	139.41400480270386	0.8832721710205078
25	69.6554479598999	response	0	2		23.0	2.5	/experiments/knapen_aot/oldvideos/R_S_video-7.mp4	0.0	140.28907084465027	
25	69.663654088974	movie	1		166.0	23.0	2.5	/experiments/knapen_aot/oldvideos/R_S_video-7.mp4	0.0	140.29727697372437	2.508262872695923
25	72.17191696166992	fix_post	2		12.0	23.0	2.5	/experiments/knapen_aot/oldvideos/R_S_video-7.mp4	0.0	142.8055398464203	0.10010099411010742
26	72.27201795578003	fix_pre	0		52.0	24.0	2.5	/experiments/knapen_aot/oldvideos/S_production_ID_4154238.mp4	0.0	142.9056408405304	0.43331003189086914
26	72.69710206985474	response	0	2		24.0	2.5	/experiments/knapen_aot/oldvideos/S_production_ID_4154238.mp4	0.0	143.3307249546051	
26	72.7053279876709	movie	1		196.0	24.0	2.5	/experiments/knapen_aot/oldvideos/S_production_ID_4154238.mp4	0.0	143.33895087242126	2.5082790851593018
26	75.2136070728302	fix_post	2		12.0	24.0	2.5	/experiments/knapen_aot/oldvideos/S_production_ID_4154238.mp4	0.0	145.84722995758057	0.10001683235168457
27	75.31362390518188	fix_pre	0		55.0	25.0	2.5	/experiments/knapen_aot/oldvideos/R_S_yt-xWCPbUQc-vg_7.mp4	0.0	145.94724678993225	0.4583001136779785
27	75.76370310783386	response	0	2		25.0	2.5	/experiments/knapen_aot/oldvideos/R_S_yt-xWCPbUQc-vg_7.mp4	0.0	146.39732599258423	
27	75.77192401885986	movie	1		301.0	25.0	2.5	/experiments/knapen_aot/oldvideos/R_S_yt-xWCPbUQc-vg_7.mp4	0.0	146.40554690361023	2.5084080696105957
27	78.28033208847046	fix_post	2		12.0	25.0	2.5	/experiments/knapen_aot/oldvideos/R_S_yt-xWCPbUQc-vg_7.mp4	0.0	148.91395497322083	0.09995698928833008
28	78.38028907775879	fix_pre	0		25.0	26.0	2.5	blank	1.0	149.01391196250916	0.20889496803283691
28	78.58043909072876	response	0	2		26.0	2.5	blank	1.0	149.21406197547913	
28	78.58918404579163	movie	1		301.0	26.0	2.5	blank	1.0	149.222806930542	2.507767915725708
28	81.09695196151733	fix_post	2		12.0	26.0	2.5	blank	1.0	151.7305748462677	0.10009098052978516
29	81.19704294204712	fix_pre	0		28.0	27.0	2.5	/experiments/knapen_aot/oldvideos/R_S_yt-D_f3_HIXG2g_87.mp4	0.0	151.83066582679749	0.23319005966186523
29	81.42203187942505	response	0	2		27.0	2.5	/experiments/knapen_aot/oldvideos/R_S_yt-D_f3_HIXG2g_87.mp4	0.0	152.05565476417542	
29	81.43023300170898	movie	1		301.0	27.0	2.5	/experiments/knapen_aot/oldvideos/R_S_yt-D_f3_HIXG2g_87.mp4	0.0	152.06385588645935	2.5083909034729004
29	83.93862390518188	fix_post	2		12.0	27.0	2.5	/experiments/knapen_aot/oldvideos/R_S_yt-D_f3_HIXG2g_87.mp4	0.0	154.57224678993225	0.09995603561401367
30	84.0385799407959	fix_pre	0		23.0	28.0	2.5	/experiments/knapen_aot/oldvideos/S_pexels-rodnae-productions-5544703.mp4	0.0	154.67220282554626	0.1916201114654541
30	84.22203993797302	response	0	2		28.0	2.5	/experiments/knapen_aot/oldvideos/S_pexels-rodnae-productions-5544703.mp4	0.0	154.8556628227234	
30	84.23020005226135	movie	1		176.0	28.0	2.5	/experiments/knapen_aot/oldvideos/S_pexels-rodnae-productions-5544703.mp4	0.0	154.86382293701172	2.508457899093628
30	86.73865795135498	fix_post	2		12.0	28.0	2.5	/experiments/knapen_aot/oldvideos/S_pexels-rodnae-productions-5544703.mp4	0.0	157.37228083610535	0.09994196891784668
31	86.83859992027283	fix_pre	0		21.0	29.0	2.5	/experiments/knapen_aot/oldvideos/R_S_yt-nlfwzxlwRfk_12.mp4	0.0	157.4722228050232	0.17495417594909668
31	87.00539803504944	response	0	2		29.0	2.5	/experiments/knapen_aot/oldvideos/R_S_yt-nlfwzxlwRfk_12.mp4	0.0	157.6390209197998	
31	87.01355409622192	movie	1		301.0	29.0	2.5	/experiments/knapen_aot/oldvideos/R_S_yt-nlfwzxlwRfk_12.mp4	0.0	157.6471769809723	2.5083858966827393
31	89.52193999290466	fix_post	2		12.0	29.0	2.5	/experiments/knapen_aot/oldvideos/R_S_yt-nlfwzxlwRfk_12.mp4	0.0	160.15556287765503	0.09995007514953613
32	89.6218900680542	fix_pre	0		39.0	30.0	2.5	/experiments/knapen_aot/oldvideos/S_DL_B002_C011_SDR_20191122_SDR_2K_AVC.mp4	0.0	160.25551295280457	0.3249938488006592
32	89.93863606452942	response	0	2		30.0	2.5	/experiments/knapen_aot/oldvideos/S_DL_B002_C011_SDR_20191122_SDR_2K_AVC.mp4	0.0	160.57225894927979	
32	89.94688391685486	movie	1		171.0	30.0	2.5	/experiments/knapen_aot/oldvideos/S_DL_B002_C011_SDR_20191122_SDR_2K_AVC.mp4	0.0	160.58050680160522	2.508345127105713
32	92.45522904396057	fix_post	2		12.0	30.0	2.5	/experiments/knapen_aot/oldvideos/S_DL_B002_C011_SDR_20191122_SDR_2K_AVC.mp4	0.0	163.08885192871094	0.09995102882385254
33	92.55518007278442	fix_pre	0		32.0	31.0	2.5	/experiments/knapen_aot/oldvideos/S_wc-oyG6AjP_W2EL_15.mp4	0.0	163.1888029575348	0.2666769027709961
33	92.81365609169006	response	0	2		31.0	2.5	/experiments/knapen_aot/oldvideos/S_wc-oyG6AjP_W2EL_15.mp4	0.0	163.44727897644043	
33	92.82185697555542	movie	1		301.0	31.0	2.5	/experiments/knapen_aot/oldvideos/S_wc-oyG6AjP_W2EL_15.mp4	0.0	163.4554798603058	2.5083720684051514
33	95.33022904396057	fix_post	2		12.0	31.0	2.5	/experiments/knapen_aot/oldvideos/S_wc-oyG6AjP_W2EL_15.mp4	0.0	165.96385192871094	0.09993505477905273
34	95.43016409873962	fix_pre	0		52.0	32.0	2.5	/experiments/knapen_aot/oldvideos/S_pexels-c-technical-6763571.mp4	0.0	166.06378698349	0.4333159923553467
34	95.85528206825256	response	0	2		32.0	2.5	/experiments/knapen_aot/oldvideos/S_pexels-c-technical-6763571.mp4	0.0	166.48890495300293	
34	95.86348009109497	movie	1		195.0	32.0	2.5	/experiments/knapen_aot/oldvideos/S_pexels-c-technical-6763571.mp4	0.0	166.49710297584534	2.508356809616089
34	98.37183690071106	fix_post	2		12.0	32.0	2.5	/experiments/knapen_aot/oldvideos/S_pexels-c-technical-6763571.mp4	0.0	169.00545978546143	0.09999203681945801
35	98.47182893753052	fix_pre	0		26.0	33.0	2.5	/experiments/knapen_aot/oldvideos/R_S_yt-7Ya-rGPO8cM_159.mp4	0.0	169.10545182228088	0.21660208702087402
35	98.6803069114685	response	0	2		33.0	2.5	/experiments/knapen_aot/oldvideos/R_S_yt-7Ya-rGPO8cM_159.mp4	0.0	169.31392979621887	
35	98.68843102455139	movie	1		301.0	33.0	2.5	/experiments/knapen_aot/oldvideos/R_S_yt-7Ya-rGPO8cM_159.mp4	0.0	169.32205390930176	2.5084030628204346
35	101.19683408737183	fix_post	2		12.0	33.0	2.5	/experiments/knapen_aot/oldvideos/R_S_yt-7Ya-rGPO8cM_159.mp4	0.0	171.8304569721222	0.10042691230773926
36	101.29726099967957	fix_pre	0		22.0	34.0	2.5	/experiments/knapen_aot/oldvideos/R_S_video_inspire_alabama_montgomery_countryside_00007.1080-h264.mp4	0.0	171.93088388442993	0.18282008171081543
36	101.46448993682861	response	0	2		34.0	2.5	/experiments/knapen_aot/oldvideos/R_S_video_inspire_alabama_montgomery_countryside_00007.1080-h264.mp4	0.0	172.09811282157898	
36	101.48008108139038	movie	1		167.0	34.0	2.5	/experiments/knapen_aot/oldvideos/R_S_video_inspire_alabama_montgomery_countryside_00007.1080-h264.mp4	0.0	172.11370396614075	2.5084939002990723
36	103.98857498168945	fix_post	2		12.0	34.0	2.5	/experiments/knapen_aot/oldvideos/R_S_video_inspire_alabama_montgomery_countryside_00007.1080-h264.mp4	0.0	174.62219786643982	0.10034608840942383
36	104.07274794578552	response	2	2		34.0	2.5	/experiments/knapen_aot/oldvideos/R_S_video_inspire_alabama_montgomery_countryside_00007.1080-h264.mp4	0.0	174.7063708305359	
37	104.08892107009888	fix_pre	0		81.0	35.0	2.5	blank	1.0	174.72254395484924	0.6744630336761475
37	104.75522089004517	response	0	2		35.0	2.5	blank	1.0	175.38884377479553	
37	104.76338410377502	movie	1		301.0	35.0	2.5	blank	1.0	175.3970069885254	2.5083119869232178
37	107.27169609069824	fix_post	2		12.0	35.0	2.5	blank	1.0	177.9053189754486	0.10002589225769043
38	107.37172198295593	fix_pre	0		51.0	36.0	2.5	/experiments/knapen_aot/oldvideos/R_S_Pexels_Videos_2795737.mp4	0.0	178.0053448677063	0.4254789352416992
38	107.78856110572815	response	0	2		36.0	2.5	/experiments/knapen_aot/oldvideos/R_S_Pexels_Videos_2795737.mp4	0.0	178.42218399047852	
38	107.79720091819763	movie	1		166.0	36.0	2.5	/experiments/knapen_aot/oldvideos/R_S_Pexels_Videos_2795737.mp4	0.0	178.430823802948	2.507857084274292
38	110.30505800247192	fix_post	2		12.0	36.0	2.5	/experiments/knapen_aot/oldvideos/R_S_Pexels_Videos_2795737.mp4	0.0	180.9386808872223	0.1000828742980957
39	110.40514087677002	fix_pre	0		15.0	37.0	2.5	/experiments/knapen_aot/oldvideos/S_yt-zQnaVApUPH0_14.mp4	0.0	181.03876376152039	0.12495207786560059
39	110.52194595336914	response	0	2		37.0	2.5	/experiments/knapen_aot/oldvideos/S_yt-zQnaVApUPH0_14.mp4	0.0	181.1555688381195	
39	110.53009295463562	movie	1		301.0	37.0	2.5	/experiments/knapen_aot/oldvideos/S_yt-zQnaVApUPH0_14.mp4	0.0	181.163715839386	2.508561134338379
39	113.038654088974	fix_post	2		12.0	37.0	2.5	/experiments/knapen_aot/oldvideos/S_yt-zQnaVApUPH0_14.mp4	0.0	183.67227697372437	0.09972095489501953
40	113.13837504386902	fix_pre	0		39.0	38.0	2.5	/experiments/knapen_aot/oldvideos/R_S_yt-fqbi4rGc9dk_65.mp4	0.0	183.77199792861938	0.32537388801574707
40	113.4552218914032	response	0	2		38.0	2.5	/experiments/knapen_aot/oldvideos/R_S_yt-fqbi4rGc9dk_65.mp4	0.0	184.08884477615356	
40	113.46374893188477	movie	1		301.0	38.0	2.5	/experiments/knapen_aot/oldvideos/R_S_yt-fqbi4rGc9dk_65.mp4	0.0	184.09737181663513	2.507984161376953
40	115.97173309326172	fix_post	2		12.0	38.0	2.5	/experiments/knapen_aot/oldvideos/R_S_yt-fqbi4rGc9dk_65.mp4	0.0	186.60535597801208	0.10002589225769043
41	116.07175898551941	fix_pre	0		63.0	39.0	2.5	/experiments/knapen_aot/oldvideos/R_S_g201_CA_A016_C002_SDR_20191114_SDR_2K_AVC.mp4	0.0	186.70538187026978	0.5249269008636475
41	116.58854508399963	response	0	2		39.0	2.5	/experiments/knapen_aot/oldvideos/R_S_g201_CA_A016_C002_SDR_20191114_SDR_2K_AVC.mp4	0.0	187.22216796875	
41	116.59668588638306	movie	1		169.0	39.0	2.5	/experiments/knapen_aot/oldvideos/R_S_g201_CA_A016_C002_SDR_20191114_SDR_2K_AVC.mp4	0.0	187.23030877113342	2.5085861682891846
41	119.10527205467224	fix_post	2		12.0	39.0	2.5	/experiments/knapen_aot/oldvideos/R_S_g201_CA_A016_C002_SDR_20191114_SDR_2K_AVC.mp4	0.0	189.7388949394226	0.09979605674743652
42	119.20506811141968	fix_pre	0		20.0	40.0	2.5	/experiments/knapen_aot/oldvideos/R_S_PA_A001_C007_SDR_20190717_SDR_2K_AVC.mp4	0.0	189.83869099617004	0.16662883758544922
42	119.36352610588074	response	0	2		40.0	2.5	/experiments/knapen_aot/oldvideos/R_S_PA_A001_C007_SDR_20190717_SDR_2K_AVC.mp4	0.0	189.9971489906311	
42	119.37169694900513	movie	1		192.0	40.0	2.5	/experiments/knapen_aot/oldvideos/R_S_PA_A001_C007_SDR_20190717_SDR_2K_AVC.mp4	0.0	190.0053198337555	2.5083720684051514
42	121.88006901741028	fix_post	2		12.0	40.0	2.5	/experiments/knapen_aot/oldvideos/R_S_PA_A001_C007_SDR_20190717_SDR_2K_AVC.mp4	0.0	192.51369190216064	0.10006904602050781
43	121.98013806343079	fix_pre	0		26.0	41.0	2.5	/experiments/knapen_aot/oldvideos/R_S_yt-5hgLXyLw82w_23.mp4	0.0	192.61376094818115	0.21655583381652832
43	122.18846011161804	response	0	2		41.0	2.5	/experiments/knapen_aot/oldvideos/R_S_yt-5hgLXyLw82w_23.mp4	0.0	192.8220829963684	
43	122.19669389724731	movie	1		301.0	41.0	2.5	/experiments/knapen_aot/oldvideos/R_S_yt-5hgLXyLw82w_23.mp4	0.0	192.83031678199768	2.508371114730835
43	124.70506501197815	fix_post	2		12.0	41.0	2.5	/experiments/knapen_aot/oldvideos/R_S_yt-5hgLXyLw82w_23.mp4	0.0	195.33868789672852	0.10000205039978027
44	124.80506706237793	fix_pre	0		16.0	42.0	2.5	blank	1.0	195.4386899471283	0.13325190544128418
44	124.93024396896362	response	0	2		42.0	2.5	blank	1.0	195.563866853714	
44	124.93831896781921	movie	1		301.0	42.0	2.5	blank	1.0	195.57194185256958	2.5083301067352295
44	127.44664907455444	fix_post	2		12.0	42.0	2.5	blank	1.0	198.0802719593048	0.10039997100830078
45	127.54704904556274	fix_pre	0		27.0	43.0	2.5	/experiments/knapen_aot/oldvideos/S_yt-kYMffy4hTMo_107.mp4	0.0	198.1806719303131	0.22465896606445312
45	127.76348996162415	response	0	2		43.0	2.5	/experiments/knapen_aot/oldvideos/S_yt-kYMffy4hTMo_107.mp4	0.0	198.3971128463745	
45	127.7717080116272	movie	1		301.0	43.0	2.5	/experiments/knapen_aot/oldvideos/S_yt-kYMffy4hTMo_107.mp4	0.0	198.40533089637756	2.5082969665527344
45	130.28000497817993	fix_post	2		12.0	43.0	2.5	/experiments/knapen_aot/oldvideos/S_yt-kYMffy4hTMo_107.mp4	0.0	200.9136278629303	0.10048890113830566
46	130.38049387931824	fix_pre	0		48.0	44.0	2.5	/experiments/knapen_aot/oldvideos/R_S_yt-Kwfwhd07dVo_2.mp4	0.0	201.0141167640686	0.39951300621032715
46	130.7718288898468	response	0	4		44.0	2.5	/experiments/knapen_aot/oldvideos/R_S_yt-Kwfwhd07dVo_2.mp4	0.0	201.40545177459717	
46	130.78000688552856	movie	1		301.0	44.0	2.5	/experiments/knapen_aot/oldvideos/R_S_yt-Kwfwhd07dVo_2.mp4	0.0	201.41362977027893	2.5082740783691406
46	133.2882809638977	fix_post	2		12.0	44.0	2.5	/experiments/knapen_aot/oldvideos/R_S_yt-Kwfwhd07dVo_2.mp4	0.0	203.92190384864807	0.10013508796691895
47	133.38841605186462	fix_pre	0		13.0	45.0	2.5	/experiments/knapen_aot/oldvideos/R_S_yt-VfASxEzDrvc_145.mp4	0.0	204.022038936615	0.10823202133178711
47	133.48090505599976	response	0	4		45.0	2.5	/experiments/knapen_aot/oldvideos/R_S_yt-VfASxEzDrvc_145.mp4	0.0	204.11452794075012	
47	133.4966480731964	movie	1		301.0	45.0	2.5	/experiments/knapen_aot/oldvideos/R_S_yt-VfASxEzDrvc_145.mp4	0.0	204.13027095794678	2.50833797454834
47	136.00498604774475	fix_post	2		12.0	45.0	2.5	/experiments/knapen_aot/oldvideos/R_S_yt-VfASxEzDrvc_145.mp4	0.0	206.63860893249512	0.09999704360961914
48	136.10498309135437	fix_pre	0		73.0	46.0	2.5	/experiments/knapen_aot/oldvideos/R_S_yt-v66td-1WO7w_44.mp4	0.0	206.73860597610474	0.6085999011993408
48	136.70518803596497	response	0	4		46.0	2.5	/experiments/knapen_aot/oldvideos/R_S_yt-v66td-1WO7w_44.mp4	0.0	207.33881092071533	
48	136.7135829925537	movie	1		301.0	46.0	2.5	/experiments/knapen_aot/oldvideos/R_S_yt-v66td-1WO7w_44.mp4	0.0	207.34720587730408	2.508017063140869
48	139.22160005569458	fix_post	2		12.0	46.0	2.5	/experiments/knapen_aot/oldvideos/R_S_yt-v66td-1WO7w_44.mp4	0.0	209.85522294044495	0.10008692741394043
49	139.32168698310852	fix_pre	0		17.0	47.0	2.5	/experiments/knapen_aot/oldvideos/R_S_yt-o_Hakzj8PRg_2864.mp4	0.0	209.9553098678589	0.14182710647583008
49	139.45514798164368	response	0	4		47.0	2.5	/experiments/knapen_aot/oldvideos/R_S_yt-o_Hakzj8PRg_2864.mp4	0.0	210.08877086639404	
49	139.46351408958435	movie	1		301.0	47.0	2.5	/experiments/knapen_aot/oldvideos/R_S_yt-o_Hakzj8PRg_2864.mp4	0.0	210.09713697433472	2.508234977722168
49	141.97174906730652	fix_post	2		12.0	47.0	2.5	/experiments/knapen_aot/oldvideos/R_S_yt-o_Hakzj8PRg_2864.mp4	0.0	212.60537195205688	0.09983992576599121
50	142.0715889930725	fix_pre	0		47.0	48.0	2.5	blank	1.0	212.70521187782288	0.39189910888671875
50	142.45509791374207	response	0	4		48.0	2.5	blank	1.0	213.08872079849243	
50	142.46348810195923	movie	1		301.0	48.0	2.5	blank	1.0	213.0971109867096	2.508103847503662
50	144.9715919494629	fix_post	2		12.0	48.0	2.5	blank	1.0	215.60521483421326	0.10001993179321289
51	145.0716118812561	fix_pre	0		29.0	49.0	2.5	/experiments/knapen_aot/oldvideos/S_yt-8RmEimCI80g_35.mp4	0.0	215.70523476600647	0.24162721633911133
51	145.3050239086151	response	0	4		49.0	2.5	/experiments/knapen_aot/oldvideos/S_yt-8RmEimCI80g_35.mp4	0.0	215.93864679336548	
51	145.31323909759521	movie	1		301.0	49.0	2.5	/experiments/knapen_aot/oldvideos/S_yt-8RmEimCI80g_35.mp4	0.0	215.94686198234558	2.508368968963623
51	147.82160806655884	fix_post	2		12.0	49.0	2.5	/experiments/knapen_aot/oldvideos/S_yt-8RmEimCI80g_35.mp4	0.0	218.4552309513092	0.10025286674499512
52	147.92186093330383	fix_pre	0		36.0	50.0	2.5	/experiments/knapen_aot/oldvideos/R_S_yt-zQnaVApUPH0_14.mp4	0.0	218.5554838180542	0.2997310161590576
52	148.21336007118225	response	0	4		50.0	2.5	/experiments/knapen_aot/oldvideos/R_S_yt-zQnaVApUPH0_14.mp4	0.0	218.84698295593262	
52	148.2215919494629	movie	1		301.0	50.0	2.5	/experiments/knapen_aot/oldvideos/R_S_yt-zQnaVApUPH0_14.mp4	0.0	218.85521483421326	2.508334159851074
52	150.72992610931396	fix_post	2		12.0	50.0	2.5	/experiments/knapen_aot/oldvideos/R_S_yt-zQnaVApUPH0_14.mp4	0.0	221.36354899406433	0.10001182556152344
53	150.8299379348755	fix_pre	0		54.0	51.0	2.5	/experiments/knapen_aot/oldvideos/R_S_yt-O_4DgW-XKvA_35.mp4	0.0	221.46356081962585	0.44995999336242676
53	151.2716588973999	response	0	4		51.0	2.5	/experiments/knapen_aot/oldvideos/R_S_yt-O_4DgW-XKvA_35.mp4	0.0	221.90528178215027	
53	151.27989792823792	movie	1		301.0	51.0	2.5	/experiments/knapen_aot/oldvideos/R_S_yt-O_4DgW-XKvA_35.mp4	0.0	221.91352081298828	2.508331060409546
53	153.78822898864746	fix_post	2		12.0	51.0	2.5	/experiments/knapen_aot/oldvideos/R_S_yt-O_4DgW-XKvA_35.mp4	0.0	224.42185187339783	0.10004711151123047
54	153.8882761001587	fix_pre	0		29.0	52.0	2.5	/experiments/knapen_aot/oldvideos/S_yt-JGKdBO2Ldzo_93.mp4	0.0	224.52189898490906	0.24173688888549805
54	154.12172603607178	response	0	4		52.0	2.5	/experiments/knapen_aot/oldvideos/S_yt-JGKdBO2Ldzo_93.mp4	0.0	224.75534892082214	
54	154.1300129890442	movie	1		301.0	52.0	2.5	/experiments/knapen_aot/oldvideos/S_yt-JGKdBO2Ldzo_93.mp4	0.0	224.76363587379456	2.508167028427124
54	156.6381800174713	fix_post	2		12.0	52.0	2.5	/experiments/knapen_aot/oldvideos/S_yt-JGKdBO2Ldzo_93.mp4	0.0	227.27180290222168	0.10007691383361816
55	156.73825693130493	fix_pre	0		62.0	53.0	2.5	/experiments/knapen_aot/oldvideos/R_S_ILSVRC2015_train_00323000.mp4	0.0	227.3718798160553	0.5168101787567139
55	157.24670100212097	response	0	4		53.0	2.5	/experiments/knapen_aot/oldvideos/R_S_ILSVRC2015_train_00323000.mp4	0.0	227.88032388687134	
55	157.25506711006165	movie	1		301.0	53.0	2.5	/experiments/knapen_aot/oldvideos/R_S_ILSVRC2015_train_00323000.mp4	0.0	227.888689994812	2.5081348419189453
55	159.7632019519806	fix_post	2		12.0	53.0	2.5	/experiments/knapen_aot/oldvideos/R_S_ILSVRC2015_train_00323000.mp4	0.0	230.39682483673096	0.0999600887298584
56	159.86316204071045	fix_pre	0		55.0	54.0	2.5	blank	1.0	230.49678492546082	0.4583590030670166
56	160.3133189678192	response	0	4		54.0	2.5	blank	1.0	230.94694185256958	
56	160.32152104377747	movie	1		301.0	54.0	2.5	blank	1.0	230.95514392852783	2.5083279609680176
56	162.82984900474548	fix_post	2		12.0	54.0	2.5	blank	1.0	233.46347188949585	0.10023188591003418
57	162.93008089065552	fix_pre	0		27.0	55.0	2.5	/experiments/knapen_aot/oldvideos/R_S_yt-JDHApyT5ngs_128.mp4	0.0	233.56370377540588	0.22479605674743652
57	163.14668798446655	response	0	4		55.0	2.5	/experiments/knapen_aot/oldvideos/R_S_yt-JDHApyT5ngs_128.mp4	0.0	233.78031086921692	
57	163.15487694740295	movie	1		301.0	55.0	2.5	/experiments/knapen_aot/oldvideos/R_S_yt-JDHApyT5ngs_128.mp4	0.0	233.78849983215332	2.508329153060913
57	165.66320610046387	fix_post	2		12.0	55.0	2.5	/experiments/knapen_aot/oldvideos/R_S_yt-JDHApyT5ngs_128.mp4	0.0	236.29682898521423	0.1000058650970459
58	165.7632119655609	fix_pre	0		23.0	56.0	2.5	/experiments/knapen_aot/oldvideos/R_S_yt-fymgyhmYnMI_76.mp4	0.0	236.39683485031128	0.19172906875610352
58	165.9466381072998	response	0	4		56.0	2.5	/experiments/knapen_aot/oldvideos/R_S_yt-fymgyhmYnMI_76.mp4	0.0	236.58026099205017	
58	165.95494103431702	movie	1		301.0	56.0	2.5	/experiments/knapen_aot/oldvideos/R_S_yt-fymgyhmYnMI_76.mp4	0.0	236.58856391906738	2.508420944213867
58	168.46336197853088	fix_post	2		12.0	56.0	2.5	/experiments/knapen_aot/oldvideos/R_S_yt-fymgyhmYnMI_76.mp4	0.0	239.09698486328125	0.09980106353759766
59	168.56316304206848	fix_pre	0		34.0	57.0	2.5	/experiments/knapen_aot/oldvideos/S_yt-7Fyu2vr7zbA_31.mp4	0.0	239.19678592681885	0.28334903717041016
59	168.83832597732544	response	0	4		57.0	2.5	/experiments/knapen_aot/oldvideos/S_yt-7Fyu2vr7zbA_31.mp4	0.0	239.4719488620758	
59	168.8465120792389	movie	1		301.0	57.0	2.5	/experiments/knapen_aot/oldvideos/S_yt-7Fyu2vr7zbA_31.mp4	0.0	239.48013496398926	2.508309841156006
59	171.3548219203949	fix_post	2		12.0	57.0	2.5	/experiments/knapen_aot/oldvideos/S_yt-7Fyu2vr7zbA_31.mp4	0.0	241.98844480514526	0.10000300407409668
60	171.454824924469	fix_pre	0		49.0	58.0	2.5	/experiments/knapen_aot/oldvideos/S_yt-7Ya-rGPO8cM_159.mp4	0.0	242.08844780921936	0.408297061920166
60	171.85499811172485	response	0	4		58.0	2.5	/experiments/knapen_aot/oldvideos/S_yt-7Ya-rGPO8cM_159.mp4	0.0	242.48862099647522	
60	171.86312198638916	movie	1		301.0	58.0	2.5	/experiments/knapen_aot/oldvideos/S_yt-7Ya-rGPO8cM_159.mp4	0.0	242.49674487113953	2.50833797454834
60	174.3714599609375	fix_post	2		12.0	58.0	2.5	/experiments/knapen_aot/oldvideos/S_yt-7Ya-rGPO8cM_159.mp4	0.0	245.00508284568787	0.10002613067626953
61	174.47148609161377	fix_pre	0		30.0	59.0	2.5	/experiments/knapen_aot/oldvideos/R_S_yt-JQOHHL30Y54_101.mp4	0.0	245.10510897636414	0.24993181228637695
61	174.7133240699768	response	0	4		59.0	2.5	/experiments/knapen_aot/oldvideos/R_S_yt-JQOHHL30Y54_101.mp4	0.0	245.34694695472717	
61	174.72141790390015	movie	1		301.0	59.0	2.5	/experiments/knapen_aot/oldvideos/R_S_yt-JQOHHL30Y54_101.mp4	0.0	245.3550407886505	2.5083320140838623
61	177.229749917984	fix_post	2		12.0	59.0	2.5	/experiments/knapen_aot/oldvideos/R_S_yt-JQOHHL30Y54_101.mp4	0.0	247.86337280273438	0.10009217262268066
62	177.3298420906067	fix_pre	0		36.0	60.0	2.5	/experiments/knapen_aot/oldvideos/R_S_ILSVRC2015_train_00538000.mp4	0.0	247.96346497535706	0.29998183250427246
62	177.62160205841064	response	0	4		60.0	2.5	/experiments/knapen_aot/oldvideos/R_S_ILSVRC2015_train_00538000.mp4	0.0	248.255224943161	
62	177.62982392311096	movie	1		301.0	60.0	2.5	/experiments/knapen_aot/oldvideos/R_S_ILSVRC2015_train_00538000.mp4	0.0	248.26344680786133	2.508450984954834
62	180.1382749080658	fix_post	2		12.0	60.0	2.5	/experiments/knapen_aot/oldvideos/R_S_ILSVRC2015_train_00538000.mp4	0.0	250.77189779281616	0.09989809989929199
63	180.2381730079651	fix_pre	0		33.0	61.0	2.5	/experiments/knapen_aot/oldvideos/R_S_yt-uT4MXm0UBJM_64.mp4	0.0	250.87179589271545	0.27493906021118164
63	180.50490403175354	response	0	4		61.0	2.5	/experiments/knapen_aot/oldvideos/R_S_yt-uT4MXm0UBJM_64.mp4	0.0	251.1385269165039	
63	180.51311206817627	movie	1		301.0	61.0	2.5	/experiments/knapen_aot/oldvideos/R_S_yt-uT4MXm0UBJM_64.mp4	0.0	251.14673495292664	2.508312940597534
63	183.0214250087738	fix_post	2		12.0	61.0	2.5	/experiments/knapen_aot/oldvideos/R_S_yt-uT4MXm0UBJM_64.mp4	0.0	253.65504789352417	0.10010504722595215
64	183.12153005599976	fix_pre	0		44.0	62.0	2.5	blank	1.0	253.75515294075012	0.3665769100189209
64	183.4797990322113	response	0	4		62.0	2.5	blank	1.0	254.11342191696167	
64	183.48810696601868	movie	1		301.0	62.0	2.5	blank	1.0	254.12172985076904	2.5083420276641846
64	185.99644899368286	fix_post	2		12.0	62.0	2.5	blank	1.0	256.6300718784332	0.10001993179321289
65	186.09646892547607	fix_pre	0		192.0	63.0	2.5	/experiments/knapen_aot/oldvideos/R_S_video_inspire_oregon_lone-ranch-beach_00021.1080-h264.mp4	0.0	256.73009181022644	1.5999009609222412
65	187.68825697898865	response	0	4		63.0	2.5	/experiments/knapen_aot/oldvideos/R_S_video_inspire_oregon_lone-ranch-beach_00021.1080-h264.mp4	0.0	258.321879863739	
65	187.69636988639832	movie	1		166.0	63.0	2.5	/experiments/knapen_aot/oldvideos/R_S_video_inspire_oregon_lone-ranch-beach_00021.1080-h264.mp4	0.0	258.3299927711487	2.508392095565796
65	190.2047619819641	fix_post	2		12.0	63.0	2.5	/experiments/knapen_aot/oldvideos/R_S_video_inspire_oregon_lone-ranch-beach_00021.1080-h264.mp4	0.0	260.8383848667145	0.09999990463256836
66	190.30476188659668	fix_pre	0		19.0	64.0	2.5	/experiments/knapen_aot/oldvideos/R_S_yt-Gokv9ZtV6zo_70.mp4	0.0	260.93838477134705	0.15826821327209473
66	190.45481991767883	response	0	4		64.0	2.5	/experiments/knapen_aot/oldvideos/R_S_yt-Gokv9ZtV6zo_70.mp4	0.0	261.0884428024292	
66	190.46303009986877	movie	1		301.0	64.0	2.5	/experiments/knapen_aot/oldvideos/R_S_yt-Gokv9ZtV6zo_70.mp4	0.0	261.09665298461914	2.508436918258667
66	192.97146701812744	fix_post	2		12.0	64.0	2.5	/experiments/knapen_aot/oldvideos/R_S_yt-Gokv9ZtV6zo_70.mp4	0.0	263.6050899028778	0.09994792938232422
67	193.07141494750977	fix_pre	0		45.0	65.0	2.5	/experiments/knapen_aot/oldvideos/S_comp_L004_C011_PS_v01_SDR_PS_20180925_SDR_2K_AVC.mp4	0.0	263.70503783226013	0.3749549388885498
67	193.4381868839264	response	0	4		65.0	2.5	/experiments/knapen_aot/oldvideos/S_comp_L004_C011_PS_v01_SDR_PS_20180925_SDR_2K_AVC.mp4	0.0	264.07180976867676	
67	193.44636988639832	movie	1		164.0	65.0	2.5	/experiments/knapen_aot/oldvideos/S_comp_L004_C011_PS_v01_SDR_PS_20180925_SDR_2K_AVC.mp4	0.0	264.0799927711487	2.5084002017974854
67	195.9547700881958	fix_post	2		12.0	65.0	2.5	/experiments/knapen_aot/oldvideos/S_comp_L004_C011_PS_v01_SDR_PS_20180925_SDR_2K_AVC.mp4	0.0	266.58839297294617	0.1000058650970459
68	196.05477595329285	fix_pre	0		315.0	66.0	2.5	/experiments/knapen_aot/oldvideos/S_yt-AbJBxqEYoMg_27.mp4	0.0	266.6883988380432	2.624932050704956
68	198.6714448928833	response	0	4		66.0	2.5	/experiments/knapen_aot/oldvideos/S_yt-AbJBxqEYoMg_27.mp4	0.0	269.30506777763367	
68	198.6797080039978	movie	1		301.0	66.0	2.5	/experiments/knapen_aot/oldvideos/S_yt-AbJBxqEYoMg_27.mp4	0.0	269.31333088874817	2.5084331035614014
68	201.1881411075592	fix_post	2		12.0	66.0	2.5	/experiments/knapen_aot/oldvideos/S_yt-AbJBxqEYoMg_27.mp4	0.0	271.82176399230957	0.09989500045776367
69	201.28803610801697	fix_pre	0		56.0	67.0	2.5	/experiments/knapen_aot/oldvideos/S_S005_C015_SDR_2K_AVC.mp4	0.0	271.92165899276733	0.46666479110717773
69	201.7465569972992	response	0	4		67.0	2.5	/experiments/knapen_aot/oldvideos/S_S005_C015_SDR_2K_AVC.mp4	0.0	272.38017988204956	
69	201.75470089912415	movie	1		168.0	67.0	2.5	/experiments/knapen_aot/oldvideos/S_S005_C015_SDR_2K_AVC.mp4	0.0	272.3883237838745	2.5085830688476562
69	204.2632839679718	fix_post	2		11.0	67.0	2.5	/experiments/knapen_aot/oldvideos/S_S005_C015_SDR_2K_AVC.mp4	0.0	274.89690685272217	0.09980893135070801
70	204.3630928993225	fix_pre	0		35.0	68.0	2.5	/experiments/knapen_aot/oldvideos/S_yt-D_f3_HIXG2g_87.mp4	0.0	274.9967157840729	0.29160499572753906
70	204.64649891853333	response	0	4		68.0	2.5	/experiments/knapen_aot/oldvideos/S_yt-D_f3_HIXG2g_87.mp4	0.0	275.2801218032837	
70	204.65469789505005	movie	1		301.0	68.0	2.5	/experiments/knapen_aot/oldvideos/S_yt-D_f3_HIXG2g_87.mp4	0.0	275.2883207798004	2.508711099624634
70	207.16340899467468	fix_post	2		12.0	68.0	2.5	/experiments/knapen_aot/oldvideos/S_yt-D_f3_HIXG2g_87.mp4	0.0	277.79703187942505	0.10001206398010254
71	207.26342105865479	fix_pre	0		46.0	69.0	2.5	blank	1.0	277.89704394340515	0.382922887802124
71	207.6381480693817	response	0	4		69.0	2.5	blank	1.0	278.2717709541321	
71	207.6463439464569	movie	1		301.0	69.0	2.5	blank	1.0	278.2799668312073	2.508352041244507
71	210.15469598770142	fix_post	2		12.0	69.0	2.5	blank	1.0	280.7883188724518	0.09993791580200195
72	210.25463390350342	fix_pre	0		35.0	70.0	2.5	/experiments/knapen_aot/oldvideos/R_S_comp_HK_H004_C010_PSNK_v08_SDR_PS_20181009_SDR_2K_AVC.mp4	0.0	280.8882567882538	0.29168701171875
72	210.53808689117432	response	0	4		70.0	2.5	/experiments/knapen_aot/oldvideos/R_S_comp_HK_H004_C010_PSNK_v08_SDR_PS_20181009_SDR_2K_AVC.mp4	0.0	281.1717097759247	
72	210.54632091522217	movie	1		172.0	70.0	2.5	/experiments/knapen_aot/oldvideos/R_S_comp_HK_H004_C010_PSNK_v08_SDR_PS_20181009_SDR_2K_AVC.mp4	0.0	281.17994379997253	2.5083560943603516
72	213.05467700958252	fix_post	2		12.0	70.0	2.5	/experiments/knapen_aot/oldvideos/R_S_comp_HK_H004_C010_PSNK_v08_SDR_PS_20181009_SDR_2K_AVC.mp4	0.0	283.6882998943329	0.09999608993530273
73	213.15467309951782	fix_pre	0		17.0	71.0	2.5	/experiments/knapen_aot/oldvideos/R_S_wc-oyG6AjP_W2EL_15.mp4	0.0	283.7882959842682	0.14161181449890137
73	213.2881031036377	response	0	4		71.0	2.5	/experiments/knapen_aot/oldvideos/R_S_wc-oyG6AjP_W2EL_15.mp4	0.0	283.92172598838806	
73	213.29628491401672	movie	1		301.0	71.0	2.5	/experiments/knapen_aot/oldvideos/R_S_wc-oyG6AjP_W2EL_15.mp4	0.0	283.9299077987671	2.5083580017089844
73	215.8046429157257	fix_post	2		12.0	71.0	2.5	/experiments/knapen_aot/oldvideos/R_S_wc-oyG6AjP_W2EL_15.mp4	0.0	286.4382658004761	0.10002398490905762
74	215.90466690063477	fix_pre	0		48.0	72.0	2.5	/experiments/knapen_aot/oldvideos/S_FK_U009_C004_SDR_20191220_SDR_2K_AVC.mp4	0.0	286.53828978538513	0.3999311923980713
74	216.2964460849762	response	0	4		72.0	2.5	/experiments/knapen_aot/oldvideos/S_FK_U009_C004_SDR_20191220_SDR_2K_AVC.mp4	0.0	286.93006896972656	
74	216.30459809303284	movie	1		164.0	72.0	2.5	/experiments/knapen_aot/oldvideos/S_FK_U009_C004_SDR_20191220_SDR_2K_AVC.mp4	0.0	286.9382209777832	2.5084939002990723
74	218.8130919933319	fix_post	2		12.0	72.0	2.5	/experiments/knapen_aot/oldvideos/S_FK_U009_C004_SDR_20191220_SDR_2K_AVC.mp4	0.0	289.4467148780823	0.09992003440856934
75	218.91301202774048	fix_pre	0		197.0	73.0	2.5	/experiments/knapen_aot/oldvideos/S_yt-npaE4fe6A6Y_26.mp4	0.0	289.54663491249084	1.6416208744049072
75	220.54643988609314	response	0	4		73.0	2.5	/experiments/knapen_aot/oldvideos/S_yt-npaE4fe6A6Y_26.mp4	0.0	291.1800627708435	
75	220.55463290214539	movie	1		301.0	73.0	2.5	/experiments/knapen_aot/oldvideos/S_yt-npaE4fe6A6Y_26.mp4	0.0	291.18825578689575	2.5083811283111572
75	223.06301403045654	fix_post	2		12.0	73.0	2.5	/experiments/knapen_aot/oldvideos/S_yt-npaE4fe6A6Y_26.mp4	0.0	293.6966369152069	0.09996986389160156
76	223.16298389434814	fix_pre	0		31.0	74.0	2.5	/experiments/knapen_aot/oldvideos/R_S_yt-_HuBzj8EPBc_62.mp4	0.0	293.7966067790985	0.25830507278442383
76	223.41311502456665	response	0	4		74.0	2.5	/experiments/knapen_aot/oldvideos/R_S_yt-_HuBzj8EPBc_62.mp4	0.0	294.046737909317	
76	223.42128896713257	movie	1		301.0	74.0	2.5	/experiments/knapen_aot/oldvideos/R_S_yt-_HuBzj8EPBc_62.mp4	0.0	294.05491185188293	2.5084009170532227
76	225.9296898841858	fix_post	2		12.0	74.0	2.5	/experiments/knapen_aot/oldvideos/R_S_yt-_HuBzj8EPBc_62.mp4	0.0	296.56331276893616	0.09997415542602539
77	226.02966403961182	fix_pre	0		46.0	75.0	2.5	/experiments/knapen_aot/oldvideos/R_S_yt-s2PWkCdT-TM_258.mp4	0.0	296.6632869243622	0.38456106185913086
77	226.40476393699646	response	0	4		75.0	2.5	/experiments/knapen_aot/oldvideos/R_S_yt-s2PWkCdT-TM_258.mp4	0.0	297.0383868217468	
77	226.41422510147095	movie	1		301.0	75.0	2.5	/experiments/knapen_aot/oldvideos/R_S_yt-s2PWkCdT-TM_258.mp4	0.0	297.0478479862213	2.507075786590576
77	228.92130088806152	fix_post	2		12.0	75.0	2.5	/experiments/knapen_aot/oldvideos/R_S_yt-s2PWkCdT-TM_258.mp4	0.0	299.5549237728119	0.09999799728393555
78	229.02129888534546	fix_pre	0		163.0	76.0	2.5	/experiments/knapen_aot/oldvideos/R_S_ILSVRC2015_train_00001009.mp4	0.0	299.6549217700958	1.3583149909973145
78	230.37142992019653	response	0	4		76.0	2.5	/experiments/knapen_aot/oldvideos/R_S_ILSVRC2015_train_00001009.mp4	0.0	301.0050528049469	
78	230.37961387634277	movie	1		301.0	76.0	2.5	/experiments/knapen_aot/oldvideos/R_S_ILSVRC2015_train_00001009.mp4	0.0	301.01323676109314	2.5083601474761963
78	232.88797402381897	fix_post	2		12.0	76.0	2.5	/experiments/knapen_aot/oldvideos/R_S_ILSVRC2015_train_00001009.mp4	0.0	303.52159690856934	0.09999704360961914
79	232.9879710674286	fix_pre	0		6.0	77.0	2.5	blank	1.0	303.62159395217896	0.04998493194580078
79	233.0297679901123	response	0	4		77.0	2.5	blank	1.0	303.66339087486267	
79	233.0379559993744	movie	1		301.0	77.0	2.5	blank	1.0	303.67157888412476	2.5083160400390625
79	235.54627203941345	fix_post	2		12.0	77.0	2.5	blank	1.0	306.1798949241638	0.09998583793640137
80	235.64625787734985	fix_pre	0		34.0	78.0	2.5	/experiments/knapen_aot/oldvideos/S_PA_A001_C007_SDR_20190717_SDR_2K_AVC.mp4	0.0	306.2798807621002	0.2832760810852051
80	235.92136001586914	response	0	4		78.0	2.5	/experiments/knapen_aot/oldvideos/S_PA_A001_C007_SDR_20190717_SDR_2K_AVC.mp4	0.0	306.5549829006195	
80	235.92953395843506	movie	1		165.0	78.0	2.5	/experiments/knapen_aot/oldvideos/S_PA_A001_C007_SDR_20190717_SDR_2K_AVC.mp4	0.0	306.5631568431854	2.508373975753784
80	238.43790793418884	fix_post	2		12.0	78.0	2.5	/experiments/knapen_aot/oldvideos/S_PA_A001_C007_SDR_20190717_SDR_2K_AVC.mp4	0.0	309.0715308189392	0.09991002082824707
81	238.5378179550171	fix_pre	0		30.0	79.0	2.5	/experiments/knapen_aot/oldvideos/S_yt-5hgLXyLw82w_23.mp4	0.0	309.17144083976746	0.25003814697265625
81	238.77220106124878	response	0	4		79.0	2.5	/experiments/knapen_aot/oldvideos/S_yt-5hgLXyLw82w_23.mp4	0.0	309.40582394599915	
81	238.78785610198975	movie	1		301.0	79.0	2.5	/experiments/knapen_aot/oldvideos/S_yt-5hgLXyLw82w_23.mp4	0.0	309.4214789867401	2.5083417892456055
81	241.29619789123535	fix_post	2		12.0	79.0	2.5	/experiments/knapen_aot/oldvideos/S_yt-5hgLXyLw82w_23.mp4	0.0	311.9298207759857	0.09994220733642578
82	241.39614009857178	fix_pre	0		27.0	80.0	2.5	/experiments/knapen_aot/oldvideos/S_yt-fymgyhmYnMI_76.mp4	0.0	312.02976298332214	0.22635197639465332
82	241.61294388771057	response	0	4		80.0	2.5	/experiments/knapen_aot/oldvideos/S_yt-fymgyhmYnMI_76.mp4	0.0	312.24656677246094	
82	241.62249207496643	movie	1		301.0	80.0	2.5	/experiments/knapen_aot/oldvideos/S_yt-fymgyhmYnMI_76.mp4	0.0	312.2561149597168	2.507174015045166
82	244.1296660900116	fix_post	2		12.0	80.0	2.5	/experiments/knapen_aot/oldvideos/S_yt-fymgyhmYnMI_76.mp4	0.0	314.76328897476196	0.09985899925231934
83	244.22952508926392	fix_pre	0		32.0	81.0	2.5	/experiments/knapen_aot/oldvideos/R_S_ILSVRC2015_train_00569007.mp4	0.0	314.8631479740143	0.26787495613098145
83	244.48797702789307	response	0	4		81.0	2.5	/experiments/knapen_aot/oldvideos/R_S_ILSVRC2015_train_00569007.mp4	0.0	315.12159991264343	
83	244.4974000453949	movie	1		301.0	81.0	2.5	/experiments/knapen_aot/oldvideos/R_S_ILSVRC2015_train_00569007.mp4	0.0	315.13102293014526	2.5071380138397217
83	247.00453805923462	fix_post	2		12.0	81.0	2.5	/experiments/knapen_aot/oldvideos/R_S_ILSVRC2015_train_00569007.mp4	0.0	317.638160943985	0.09998393058776855
84	247.1045219898224	fix_pre	0		36.0	82.0	2.5	/experiments/knapen_aot/oldvideos/S_yt-JTuopUgmg1w_101.mp4	0.0	317.73814487457275	0.2999730110168457
84	247.39625597000122	response	0	4		82.0	2.5	/experiments/knapen_aot/oldvideos/S_yt-JTuopUgmg1w_101.mp4	0.0	318.0298788547516	
84	247.40449500083923	movie	1		301.0	82.0	2.5	/experiments/knapen_aot/oldvideos/S_yt-JTuopUgmg1w_101.mp4	0.0	318.0381178855896	2.508342981338501
84	249.91283798217773	fix_post	2		12.0	82.0	2.5	/experiments/knapen_aot/oldvideos/S_yt-JTuopUgmg1w_101.mp4	0.0	320.5464608669281	0.09995508193969727
85	250.01279306411743	fix_pre	0		49.0	83.0	2.5	blank	1.0	320.6464159488678	0.4083750247955322
85	250.41297101974487	response	0	4		83.0	2.5	blank	1.0	321.04659390449524	
85	250.42116808891296	movie	1		301.0	83.0	2.5	blank	1.0	321.05479097366333	2.508330821990967
85	252.92949891090393	fix_post	2		12.0	83.0	2.5	blank	1.0	323.5631217956543	0.10005617141723633
87	253.02955508232117	stim	0		371.0					323.66317796707153	3.092628002166748
87	256.1165359020233	response	0	space						326.7501587867737	
