trial_nr	onset	event_type	phase	response	nr_frames	movie_index	movie_duration	movie_file	blank	onset_abs	duration
0	0.13096284866333008	stim	0		25.0					108.77030801773071	0.2092430591583252
0	0.3309760093688965	response	0	space						108.97032117843628	
1	0.3402059078216553	stim	0		121.0					108.97955107688904	1.0072450637817383
1	0.9392218589782715	response	0	space						109.57856702804565	
1	1.247572898864746	response	0	space						109.88691806793213	
1	1.3474509716033936	stim	1		120.0					109.98679614067078	0.9996850490570068
1	1.4688098430633545	response	1	4						110.10815501213074	
1	1.7074129581451416	response	1	space						110.34675812721252	
1	1.9222450256347656	response	1	space						110.56159019470215	
1	2.1555068492889404	response	1	space						110.79485201835632	
2	2.3471360206604004	fix_pre	0		23.0	0.0	2.5	/experiments/knapen_aot/videos/S_yt-zlbtESb7Fcw_28.mp4	0.0	110.98648118972778	0.19160890579223633
2	2.5307528972625732	response	0	space		0.0	2.5	/experiments/knapen_aot/videos/S_yt-zlbtESb7Fcw_28.mp4	0.0	111.17009806632996	
2	2.5387449264526367	movie	1		300.0	0.0	2.5	/experiments/knapen_aot/videos/S_yt-zlbtESb7Fcw_28.mp4	0.0	111.17809009552002	2.5082409381866455
2	5.046985864639282	fix_post	2		12.0	0.0	2.5	/experiments/knapen_aot/videos/S_yt-zlbtESb7Fcw_28.mp4	0.0	113.68633103370667	0.10011816024780273
3	5.147104024887085	fix_pre	0		48.0	1.0	2.5	/experiments/knapen_aot/videos/S_yt-BQixB0mumIk_169.mp4	0.0	113.78644919395447	0.40108394622802734
3	5.536196947097778	response	0	4		1.0	2.5	/experiments/knapen_aot/videos/S_yt-BQixB0mumIk_169.mp4	0.0	114.17554211616516	
3	5.548187971115112	movie	1		300.0	1.0	2.5	/experiments/knapen_aot/videos/S_yt-BQixB0mumIk_169.mp4	0.0	114.1875331401825	2.5074150562286377
3	8.05560302734375	fix_post	2		12.0	1.0	2.5	/experiments/knapen_aot/videos/S_yt-BQixB0mumIk_169.mp4	0.0	116.69494819641113	0.09990978240966797
4	8.155512809753418	fix_pre	0		109.0	2.0	2.5	/experiments/knapen_aot/videos/S_yt-rY_ra5Tb9XU_51.mp4	0.0	116.7948579788208	0.9083001613616943
4	9.055656909942627	response	0	4		2.0	2.5	/experiments/knapen_aot/videos/S_yt-rY_ra5Tb9XU_51.mp4	0.0	117.69500207901001	
4	9.063812971115112	movie	1		301.0	2.0	2.5	/experiments/knapen_aot/videos/S_yt-rY_ra5Tb9XU_51.mp4	0.0	117.7031581401825	2.508283853530884
4	11.572096824645996	fix_post	2		12.0	2.0	2.5	/experiments/knapen_aot/videos/S_yt-rY_ra5Tb9XU_51.mp4	0.0	120.21144199371338	0.09999918937683105
5	11.672096014022827	fix_pre	0		48.0	3.0	2.5	/experiments/knapen_aot/videos/S_yt-Xkx53mjgj2E_30.mp4	0.0	120.31144118309021	0.3999049663543701
5	12.056325912475586	response	0	4		3.0	2.5	/experiments/knapen_aot/videos/S_yt-Xkx53mjgj2E_30.mp4	0.0	120.69567108154297	
5	12.072000980377197	movie	1		301.0	3.0	2.5	/experiments/knapen_aot/videos/S_yt-Xkx53mjgj2E_30.mp4	0.0	120.71134614944458	2.508558988571167
5	14.580559968948364	fix_post	2		12.0	3.0	2.5	/experiments/knapen_aot/videos/S_yt-Xkx53mjgj2E_30.mp4	0.0	123.21990513801575	0.09985089302062988
6	14.680410861968994	fix_pre	0		35.0	4.0	2.5	/experiments/knapen_aot/videos/S_Pexels_Videos_278654_1.mp4	0.0	123.31975603103638	0.29160404205322266
6	14.963768005371094	response	0	4		4.0	2.5	/experiments/knapen_aot/videos/S_Pexels_Videos_278654_1.mp4	0.0	123.60311317443848	
6	14.972014904022217	movie	1		165.0	4.0	2.5	/experiments/knapen_aot/videos/S_Pexels_Videos_278654_1.mp4	0.0	123.6113600730896	2.508392095565796
6	17.480406999588013	fix_post	2		12.0	4.0	2.5	/experiments/knapen_aot/videos/S_Pexels_Videos_278654_1.mp4	0.0	126.1197521686554	0.09996891021728516
7	17.580375909805298	fix_pre	0		25.0	5.0	2.5	blank	1.0	126.21972107887268	0.20836997032165527
7	17.78056001663208	response	0	4		5.0	2.5	blank	1.0	126.41990518569946	
7	17.788745880126953	movie	1		301.0	5.0	2.5	blank	1.0	126.42809104919434	2.508319139480591
7	20.297065019607544	fix_post	2		12.0	5.0	2.5	blank	1.0	128.93641018867493	0.09995794296264648
8	20.39702296257019	fix_pre	0		39.0	6.0	2.5	/experiments/knapen_aot/videos/R_S_yt-Xkx53mjgj2E_30.mp4	0.0	129.03636813163757	0.3249049186706543
8	20.713775873184204	response	0	4		6.0	2.5	/experiments/knapen_aot/videos/R_S_yt-Xkx53mjgj2E_30.mp4	0.0	129.3531210422516	
8	20.721927881240845	movie	1		301.0	6.0	2.5	/experiments/knapen_aot/videos/R_S_yt-Xkx53mjgj2E_30.mp4	0.0	129.36127305030823	2.50839900970459
8	22.972172021865845	response	1	4		6.0	2.5	/experiments/knapen_aot/videos/R_S_yt-Xkx53mjgj2E_30.mp4	0.0	131.61151719093323	
8	23.230326890945435	fix_post	2		12.0	6.0	2.5	/experiments/knapen_aot/videos/R_S_yt-Xkx53mjgj2E_30.mp4	0.0	131.86967206001282	0.1000509262084961
9	23.33037781715393	fix_pre	0		69.0	7.0	2.5	/experiments/knapen_aot/videos/S_yt-aiDGx4AN8J0_9.mp4	0.0	131.9697229862213	0.5749011039733887
9	23.897095918655396	response	0	4		7.0	2.5	/experiments/knapen_aot/videos/S_yt-aiDGx4AN8J0_9.mp4	0.0	132.53644108772278	
9	23.90527892112732	movie	1		301.0	7.0	2.5	/experiments/knapen_aot/videos/S_yt-aiDGx4AN8J0_9.mp4	0.0	132.5446240901947	2.508466958999634
9	26.413745880126953	fix_post	2		12.0	7.0	2.5	/experiments/knapen_aot/videos/S_yt-aiDGx4AN8J0_9.mp4	0.0	135.05309104919434	0.09990906715393066
10	26.513654947280884	fix_pre	0		43.0	8.0	2.5	/experiments/knapen_aot/videos/R_S_yt-35i8UeYXjGw_47.mp4	0.0	135.15300011634827	0.3584129810333252
10	26.856324911117554	response	0	4		8.0	2.5	/experiments/knapen_aot/videos/R_S_yt-35i8UeYXjGw_47.mp4	0.0	135.49567008018494	
10	26.87206792831421	movie	1		301.0	8.0	2.5	/experiments/knapen_aot/videos/R_S_yt-35i8UeYXjGw_47.mp4	0.0	135.5114130973816	2.50827693939209
10	29.3803448677063	fix_post	2		12.0	8.0	2.5	/experiments/knapen_aot/videos/R_S_yt-35i8UeYXjGw_47.mp4	0.0	138.01969003677368	0.09995794296264648
11	29.480302810668945	fix_pre	0		20.0	9.0	2.5	/experiments/knapen_aot/videos/S_yt-w_e3sxIzepA_115.mp4	0.0	138.11964797973633	0.16666007041931152
11	29.631284952163696	response	0	4		9.0	2.5	/experiments/knapen_aot/videos/S_yt-w_e3sxIzepA_115.mp4	0.0	138.27063012123108	
11	29.646962881088257	movie	1		301.0	9.0	2.5	/experiments/knapen_aot/videos/S_yt-w_e3sxIzepA_115.mp4	0.0	138.28630805015564	2.5083470344543457
11	32.1553099155426	fix_post	2		12.0	9.0	2.5	/experiments/knapen_aot/videos/S_yt-w_e3sxIzepA_115.mp4	0.0	140.79465508460999	0.10010910034179688
12	32.2554190158844	fix_pre	0		43.0	10.0	2.5	/experiments/knapen_aot/videos/R_S_yt-FMIevUic_XY_50.mp4	0.0	140.89476418495178	0.3581678867340088
12	32.60555696487427	response	0	4		10.0	2.5	/experiments/knapen_aot/videos/R_S_yt-FMIevUic_XY_50.mp4	0.0	141.24490213394165	
12	32.61358690261841	movie	1		301.0	10.0	2.5	/experiments/knapen_aot/videos/R_S_yt-FMIevUic_XY_50.mp4	0.0	141.2529320716858	2.5083179473876953
12	34.230396032333374	response	1	4		10.0	2.5	/experiments/knapen_aot/videos/R_S_yt-FMIevUic_XY_50.mp4	0.0	142.86974120140076	
12	35.1219048500061	fix_post	2		12.0	10.0	2.5	/experiments/knapen_aot/videos/R_S_yt-FMIevUic_XY_50.mp4	0.0	143.7612500190735	0.10010218620300293
13	35.222007036209106	fix_pre	0		38.0	11.0	2.5	/experiments/knapen_aot/videos/S_ILSVRC2015_train_00723001.mp4	0.0	143.8613522052765	0.31662487983703613
13	35.53040099143982	response	0	4		11.0	2.5	/experiments/knapen_aot/videos/S_ILSVRC2015_train_00723001.mp4	0.0	144.1697461605072	
13	35.53863191604614	movie	1		301.0	11.0	2.5	/experiments/knapen_aot/videos/S_ILSVRC2015_train_00723001.mp4	0.0	144.17797708511353	2.5083091259002686
13	38.04694104194641	fix_post	2		12.0	11.0	2.5	/experiments/knapen_aot/videos/S_ILSVRC2015_train_00723001.mp4	0.0	146.6862862110138	0.09997677803039551
14	38.14691781997681	fix_pre	0		30.0	12.0	2.5	/experiments/knapen_aot/videos/S_yt-JkKOG9Fxykc_94.mp4	0.0	146.7862629890442	0.2499990463256836
14	38.388723850250244	response	0	4		12.0	2.5	/experiments/knapen_aot/videos/S_yt-JkKOG9Fxykc_94.mp4	0.0	147.02806901931763	
14	38.39691686630249	movie	1		301.0	12.0	2.5	/experiments/knapen_aot/videos/S_yt-JkKOG9Fxykc_94.mp4	0.0	147.03626203536987	2.508471965789795
14	40.905388832092285	fix_post	2		12.0	12.0	2.5	/experiments/knapen_aot/videos/S_yt-JkKOG9Fxykc_94.mp4	0.0	149.54473400115967	0.09990811347961426
15	41.0052969455719	fix_pre	0		48.0	13.0	2.5	/experiments/knapen_aot/videos/R_S_pexels-mart-production-7698911_1.mp4	0.0	149.64464211463928	0.3999459743499756
15	41.39706802368164	response	0	4		13.0	2.5	/experiments/knapen_aot/videos/R_S_pexels-mart-production-7698911_1.mp4	0.0	150.03641319274902	
15	41.405242919921875	movie	1		195.0	13.0	2.5	/experiments/knapen_aot/videos/R_S_pexels-mart-production-7698911_1.mp4	0.0	150.04458808898926	2.508384943008423
15	43.9136278629303	fix_post	2		12.0	13.0	2.5	/experiments/knapen_aot/videos/R_S_pexels-mart-production-7698911_1.mp4	0.0	152.55297303199768	0.10001206398010254
16	44.0136399269104	fix_pre	0		33.0	14.0	2.5	blank	1.0	152.65298509597778	0.27494001388549805
16	44.28042197227478	response	0	4		14.0	2.5	blank	1.0	152.91976714134216	
16	44.2885799407959	movie	1		301.0	14.0	2.5	blank	1.0	152.92792510986328	2.508344888687134
16	46.79692482948303	fix_post	2		12.0	14.0	2.5	blank	1.0	155.43626999855042	0.09998607635498047
17	46.89691090583801	fix_pre	0		49.0	15.0	2.5	/experiments/knapen_aot/videos/R_S_BsNCrwV7d8Q_9.mp4	0.0	155.5362560749054	0.40824007987976074
17	47.289336919784546	response	0	4		15.0	2.5	/experiments/knapen_aot/videos/R_S_BsNCrwV7d8Q_9.mp4	0.0	155.92868208885193	
17	47.30515098571777	movie	1		301.0	15.0	2.5	/experiments/knapen_aot/videos/R_S_BsNCrwV7d8Q_9.mp4	0.0	155.94449615478516	2.5084469318389893
17	49.81359791755676	fix_post	2		12.0	15.0	2.5	/experiments/knapen_aot/videos/R_S_BsNCrwV7d8Q_9.mp4	0.0	158.45294308662415	0.09996199607849121
18	49.913559913635254	fix_pre	0		35.0	16.0	2.5	/experiments/knapen_aot/videos/R_S_yt-K-iCphzt_RE_17.mp4	0.0	158.55290508270264	0.2916591167449951
18	50.19706201553345	response	0	4		16.0	2.5	/experiments/knapen_aot/videos/R_S_yt-K-iCphzt_RE_17.mp4	0.0	158.83640718460083	
18	50.20521903038025	movie	1		301.0	16.0	2.5	/experiments/knapen_aot/videos/R_S_yt-K-iCphzt_RE_17.mp4	0.0	158.84456419944763	2.5083389282226562
18	52.713557958602905	fix_post	2		12.0	16.0	2.5	/experiments/knapen_aot/videos/R_S_yt-K-iCphzt_RE_17.mp4	0.0	161.3529031276703	0.09996891021728516
19	52.81352686882019	fix_pre	0		23.0	17.0	2.5	/experiments/knapen_aot/videos/S_yt-H611SOb1T78_189.mp4	0.0	161.45287203788757	0.1925830841064453
19	52.997045040130615	response	0	4		17.0	2.5	/experiments/knapen_aot/videos/S_yt-H611SOb1T78_189.mp4	0.0	161.636390209198	
19	53.006109952926636	movie	1		301.0	17.0	2.5	/experiments/knapen_aot/videos/S_yt-H611SOb1T78_189.mp4	0.0	161.64545512199402	2.5075180530548096
19	55.513628005981445	fix_post	2		12.0	17.0	2.5	/experiments/knapen_aot/videos/S_yt-H611SOb1T78_189.mp4	0.0	164.15297317504883	0.09993386268615723
20	55.6135618686676	fix_pre	0		28.0	18.0	2.5	/experiments/knapen_aot/videos/S_production_ID_5144823.mp4	0.0	164.25290703773499	0.23330307006835938
20	55.83869981765747	response	0	4		18.0	2.5	/experiments/knapen_aot/videos/S_production_ID_5144823.mp4	0.0	164.47804498672485	
20	55.84686493873596	movie	1		169.0	18.0	2.5	/experiments/knapen_aot/videos/S_production_ID_5144823.mp4	0.0	164.48621010780334	2.508347988128662
20	58.355212926864624	fix_post	2		12.0	18.0	2.5	/experiments/knapen_aot/videos/S_production_ID_5144823.mp4	0.0	166.994558095932	0.09998703002929688
21	58.45519995689392	fix_pre	0		26.0	19.0	2.5	blank	1.0	167.0945451259613	0.21760797500610352
21	58.66372585296631	response	0	4		19.0	2.5	blank	1.0	167.3030710220337	
21	58.672807931900024	movie	1		301.0	19.0	2.5	blank	1.0	167.3121531009674	2.507375955581665
21	61.18018388748169	fix_post	2		12.0	19.0	2.5	blank	1.0	169.81952905654907	0.10001301765441895
22	61.28019690513611	fix_pre	0		9.0	20.0	2.5	/experiments/knapen_aot/videos/S_yt-1iB2ofPY1U8_16.mp4	0.0	169.9195420742035	0.07493090629577637
22	61.346884965896606	response	0	4		20.0	2.5	/experiments/knapen_aot/videos/S_yt-1iB2ofPY1U8_16.mp4	0.0	169.986230134964	
22	61.355127811431885	movie	1		301.0	20.0	2.5	/experiments/knapen_aot/videos/S_yt-1iB2ofPY1U8_16.mp4	0.0	169.99447298049927	2.5083980560302734
22	63.86352586746216	fix_post	2		12.0	20.0	2.5	/experiments/knapen_aot/videos/S_yt-1iB2ofPY1U8_16.mp4	0.0	172.50287103652954	0.09995198249816895
23	63.96347784996033	fix_pre	0		20.0	21.0	2.5	/experiments/knapen_aot/videos/R_S_yt-1iB2ofPY1U8_16.mp4	0.0	172.6028230190277	0.16777610778808594
23	64.11439394950867	response	0	4		21.0	2.5	/experiments/knapen_aot/videos/R_S_yt-1iB2ofPY1U8_16.mp4	0.0	172.75373911857605	
23	64.13125395774841	movie	1		301.0	21.0	2.5	/experiments/knapen_aot/videos/R_S_yt-1iB2ofPY1U8_16.mp4	0.0	172.7705991268158	2.5072600841522217
23	66.63851404190063	fix_post	2		12.0	21.0	2.5	/experiments/knapen_aot/videos/R_S_yt-1iB2ofPY1U8_16.mp4	0.0	175.27785921096802	0.0999898910522461
24	66.73850393295288	fix_pre	0		1.0	22.0	2.5	/experiments/knapen_aot/videos/S_yt-aD-EAuBdpUo_163.mp4	0.0	175.37784910202026	0.010673999786376953
24	66.74014186859131	response	0	4		22.0	2.5	/experiments/knapen_aot/videos/S_yt-aD-EAuBdpUo_163.mp4	0.0	175.3794870376587	
24	66.74917793273926	movie	1		301.0	22.0	2.5	/experiments/knapen_aot/videos/S_yt-aD-EAuBdpUo_163.mp4	0.0	175.38852310180664	2.506005048751831
24	69.25518298149109	fix_post	2		12.0	22.0	2.5	/experiments/knapen_aot/videos/S_yt-aD-EAuBdpUo_163.mp4	0.0	177.89452815055847	0.09997701644897461
25	69.35515999794006	fix_pre	0		63.0	23.0	2.5	/experiments/knapen_aot/videos/R_S_yt-OLDm2slgfA4_3.mp4	0.0	177.99450516700745	0.5257759094238281
25	69.87195086479187	response	0	4		23.0	2.5	/experiments/knapen_aot/videos/R_S_yt-OLDm2slgfA4_3.mp4	0.0	178.51129603385925	
25	69.88093590736389	movie	1		301.0	23.0	2.5	/experiments/knapen_aot/videos/R_S_yt-OLDm2slgfA4_3.mp4	0.0	178.52028107643127	2.507544994354248
25	72.38848090171814	fix_post	2		12.0	23.0	2.5	/experiments/knapen_aot/videos/R_S_yt-OLDm2slgfA4_3.mp4	0.0	181.02782607078552	0.09996509552001953
26	72.48844599723816	fix_pre	0		48.0	24.0	2.5	/experiments/knapen_aot/videos/R_S_yt-CZ2qiY-kS7Y_105.mp4	0.0	181.12779116630554	0.39993882179260254
26	72.8802649974823	response	0	4		24.0	2.5	/experiments/knapen_aot/videos/R_S_yt-CZ2qiY-kS7Y_105.mp4	0.0	181.51961016654968	
26	72.88838481903076	movie	1		301.0	24.0	2.5	/experiments/knapen_aot/videos/R_S_yt-CZ2qiY-kS7Y_105.mp4	0.0	181.52772998809814	2.5084080696105957
26	75.39679288864136	fix_post	2		12.0	24.0	2.5	/experiments/knapen_aot/videos/R_S_yt-CZ2qiY-kS7Y_105.mp4	0.0	184.03613805770874	0.10000395774841309
27	75.49679684638977	fix_pre	0		82.0	25.0	2.5	/experiments/knapen_aot/videos/S_flickr-evananderica-2662125519_8.mp4	0.0	184.13614201545715	0.6832690238952637
27	76.17192697525024	response	0	4		25.0	2.5	/experiments/knapen_aot/videos/S_flickr-evananderica-2662125519_8.mp4	0.0	184.81127214431763	
27	76.18006587028503	movie	1		301.0	25.0	2.5	/experiments/knapen_aot/videos/S_flickr-evananderica-2662125519_8.mp4	0.0	184.81941103935242	2.508347988128662
27	78.6884138584137	fix_post	2		12.0	25.0	2.5	/experiments/knapen_aot/videos/S_flickr-evananderica-2662125519_8.mp4	0.0	187.32775902748108	0.10004997253417969
28	78.78846383094788	fix_pre	0		43.0	26.0	2.5	/experiments/knapen_aot/videos/S_yt-e9AZJKNv9ow_359.mp4	0.0	187.42780900001526	0.3582780361175537
28	79.13098001480103	response	0	4		26.0	2.5	/experiments/knapen_aot/videos/S_yt-e9AZJKNv9ow_359.mp4	0.0	187.7703251838684	
28	79.14674186706543	movie	1		301.0	26.0	2.5	/experiments/knapen_aot/videos/S_yt-e9AZJKNv9ow_359.mp4	0.0	187.7860870361328	2.508362054824829
28	81.65510392189026	fix_post	2		12.0	26.0	2.5	/experiments/knapen_aot/videos/S_yt-e9AZJKNv9ow_359.mp4	0.0	190.29444909095764	0.1000208854675293
29	81.75512480735779	fix_pre	0		40.0	27.0	2.5	/experiments/knapen_aot/videos/R_S_yt-6xXEMHBQ08A_28.mp4	0.0	190.39446997642517	0.33406901359558105
29	82.08015084266663	response	0	4		27.0	2.5	/experiments/knapen_aot/videos/R_S_yt-6xXEMHBQ08A_28.mp4	0.0	190.719496011734	
29	82.08919382095337	movie	1		301.0	27.0	2.5	/experiments/knapen_aot/videos/R_S_yt-6xXEMHBQ08A_28.mp4	0.0	190.72853899002075	2.507559061050415
29	84.58850502967834	response	1	4		27.0	2.5	/experiments/knapen_aot/videos/R_S_yt-6xXEMHBQ08A_28.mp4	0.0	193.22785019874573	
29	84.59675288200378	fix_post	2		12.0	27.0	2.5	/experiments/knapen_aot/videos/R_S_yt-6xXEMHBQ08A_28.mp4	0.0	193.23609805107117	0.10003805160522461
30	84.69679093360901	fix_pre	0		50.0	28.0	2.5	blank	1.0	193.3361361026764	0.41654491424560547
30	85.10509490966797	response	0	4		28.0	2.5	blank	1.0	193.74444007873535	
30	85.11333584785461	movie	1		301.0	28.0	2.5	blank	1.0	193.752681016922	2.5084011554718018
30	87.62173700332642	fix_post	2		12.0	28.0	2.5	blank	1.0	196.2610821723938	0.1001589298248291
31	87.72189593315125	fix_pre	0		43.0	29.0	2.5	/experiments/knapen_aot/videos/R_S_comp_LW_L001_C006_PSNK_DENOISE_v02_SDR_PS_FINAL_20180709_SDR_2K_AVC.mp4	0.0	196.36124110221863	0.3581249713897705
31	88.07183504104614	response	0	4		29.0	2.5	/experiments/knapen_aot/videos/R_S_comp_LW_L001_C006_PSNK_DENOISE_v02_SDR_PS_FINAL_20180709_SDR_2K_AVC.mp4	0.0	196.71118021011353	
31	88.08002090454102	movie	1		165.0	29.0	2.5	/experiments/knapen_aot/videos/R_S_comp_LW_L001_C006_PSNK_DENOISE_v02_SDR_PS_FINAL_20180709_SDR_2K_AVC.mp4	0.0	196.7193660736084	2.508373975753784
31	90.5883948802948	fix_post	2		12.0	29.0	2.5	/experiments/knapen_aot/videos/R_S_comp_LW_L001_C006_PSNK_DENOISE_v02_SDR_PS_FINAL_20180709_SDR_2K_AVC.mp4	0.0	199.22774004936218	0.10003399848937988
32	90.68842887878418	fix_pre	0		41.0	30.0	2.5	/experiments/knapen_aot/videos/R_S_pexels-mart-production-7277934.mp4	0.0	199.32777404785156	0.341555118560791
32	91.02196502685547	response	0	4		30.0	2.5	/experiments/knapen_aot/videos/R_S_pexels-mart-production-7277934.mp4	0.0	199.66131019592285	
32	91.02998399734497	movie	1		167.0	30.0	2.5	/experiments/knapen_aot/videos/R_S_pexels-mart-production-7277934.mp4	0.0	199.66932916641235	2.5082919597625732
32	93.53827595710754	fix_post	2		12.0	30.0	2.5	/experiments/knapen_aot/videos/R_S_pexels-mart-production-7277934.mp4	0.0	202.17762112617493	0.10012102127075195
33	93.6383969783783	fix_pre	0		26.0	31.0	2.5	/experiments/knapen_aot/videos/S_yt-MUfa26F8dfE_97.mp4	0.0	202.27774214744568	0.21661806106567383
33	93.84682393074036	response	0	4		31.0	2.5	/experiments/knapen_aot/videos/S_yt-MUfa26F8dfE_97.mp4	0.0	202.48616909980774	
33	93.85501503944397	movie	1		301.0	31.0	2.5	/experiments/knapen_aot/videos/S_yt-MUfa26F8dfE_97.mp4	0.0	202.49436020851135	2.508570909500122
33	96.36358594894409	fix_post	2		12.0	31.0	2.5	/experiments/knapen_aot/videos/S_yt-MUfa26F8dfE_97.mp4	0.0	205.00293111801147	0.10043907165527344
34	96.46402502059937	fix_pre	0		18.0	32.0	2.5	/experiments/knapen_aot/videos/R_S_yt-PaxmJhMoP3w_87.mp4	0.0	205.10337018966675	0.14922881126403809
34	96.60513401031494	response	0	4		32.0	2.5	/experiments/knapen_aot/videos/R_S_yt-PaxmJhMoP3w_87.mp4	0.0	205.24447917938232	
34	96.6132538318634	movie	1		301.0	32.0	2.5	/experiments/knapen_aot/videos/R_S_yt-PaxmJhMoP3w_87.mp4	0.0	205.2525990009308	2.5084121227264404
34	99.12166595458984	fix_post	2		12.0	32.0	2.5	/experiments/knapen_aot/videos/R_S_yt-PaxmJhMoP3w_87.mp4	0.0	207.76101112365723	0.1000220775604248
34	99.15516090393066	response	2	4		32.0	2.5	/experiments/knapen_aot/videos/R_S_yt-PaxmJhMoP3w_87.mp4	0.0	207.79450607299805	
35	99.22168803215027	fix_pre	0		66.0	33.0	2.5	/experiments/knapen_aot/videos/S_yt-e1RAhIW6WAs_535.mp4	0.0	207.86103320121765	0.5499789714813232
35	99.76352381706238	response	0	4		33.0	2.5	/experiments/knapen_aot/videos/S_yt-e1RAhIW6WAs_535.mp4	0.0	208.40286898612976	
35	99.77166700363159	movie	1		301.0	33.0	2.5	/experiments/knapen_aot/videos/S_yt-e1RAhIW6WAs_535.mp4	0.0	208.41101217269897	2.5085270404815674
35	102.28019404411316	fix_post	2		12.0	33.0	2.5	/experiments/knapen_aot/videos/S_yt-e1RAhIW6WAs_535.mp4	0.0	210.91953921318054	0.09983086585998535
36	102.38002490997314	fix_pre	0		45.0	34.0	2.5	blank	1.0	211.01937007904053	0.37557411193847656
36	102.74675393104553	response	0	4		34.0	2.5	blank	1.0	211.38609910011292	
36	102.75559902191162	movie	1		301.0	34.0	2.5	blank	1.0	211.394944190979	2.5077388286590576
36	104.1133599281311	response	1	4		34.0	2.5	blank	1.0	212.7527050971985	
36	105.26333785057068	fix_post	2		12.0	34.0	2.5	blank	1.0	213.90268301963806	0.10001897811889648
37	105.36335682868958	fix_pre	0		316.0	35.0	2.5	/experiments/knapen_aot/videos/S_yt-xvIZtEVkebk_462.mp4	0.0	214.00270199775696	2.6332061290740967
37	107.98845291137695	response	0	4		35.0	2.5	/experiments/knapen_aot/videos/S_yt-xvIZtEVkebk_462.mp4	0.0	216.62779808044434	
37	107.99656295776367	movie	1		301.0	35.0	2.5	/experiments/knapen_aot/videos/S_yt-xvIZtEVkebk_462.mp4	0.0	216.63590812683105	2.508465051651001
37	110.50502800941467	fix_post	2		12.0	35.0	2.5	/experiments/knapen_aot/videos/S_yt-xvIZtEVkebk_462.mp4	0.0	219.14437317848206	0.09993791580200195
38	110.60496592521667	fix_pre	0		33.0	36.0	2.5	/experiments/knapen_aot/videos/S_yt-e9AZJKNv9ow_359.mp4	0.0	219.24431109428406	0.27557802200317383
38	110.87172794342041	response	0	4		36.0	2.5	/experiments/knapen_aot/videos/S_yt-e9AZJKNv9ow_359.mp4	0.0	219.5110731124878	
38	110.88054394721985	movie	1		301.0	36.0	2.5	/experiments/knapen_aot/videos/S_yt-e9AZJKNv9ow_359.mp4	0.0	219.51988911628723	2.507849931716919
38	113.38839387893677	fix_post	2		12.0	36.0	2.5	/experiments/knapen_aot/videos/S_yt-e9AZJKNv9ow_359.mp4	0.0	222.02773904800415	0.10003209114074707
39	113.48842597007751	fix_pre	0		116.0	37.0	2.5	/experiments/knapen_aot/videos/R_S_yt--I4Ggi6-QOE_23.mp4	0.0	222.1277711391449	0.9664690494537354
39	114.44669103622437	response	0	4		37.0	2.5	/experiments/knapen_aot/videos/R_S_yt--I4Ggi6-QOE_23.mp4	0.0	223.08603620529175	
39	114.45489501953125	movie	1		301.0	37.0	2.5	/experiments/knapen_aot/videos/R_S_yt--I4Ggi6-QOE_23.mp4	0.0	223.09424018859863	2.508558988571167
39	116.06343698501587	response	1	4		37.0	2.5	/experiments/knapen_aot/videos/R_S_yt--I4Ggi6-QOE_23.mp4	0.0	224.70278215408325	
39	116.96345400810242	fix_post	2		12.0	37.0	2.5	/experiments/knapen_aot/videos/R_S_yt--I4Ggi6-QOE_23.mp4	0.0	225.6027991771698	0.09974098205566406
40	117.06319499015808	fix_pre	0		16.0	38.0	2.5	/experiments/knapen_aot/videos/S_bing-www_dailymotion_com_video_x64hzm7_8.mp4	0.0	225.70254015922546	0.1333930492401123
40	117.18838691711426	response	0	4		38.0	2.5	/experiments/knapen_aot/videos/S_bing-www_dailymotion_com_video_x64hzm7_8.mp4	0.0	225.82773208618164	
40	117.1965880393982	movie	1		168.0	38.0	2.5	/experiments/knapen_aot/videos/S_bing-www_dailymotion_com_video_x64hzm7_8.mp4	0.0	225.83593320846558	2.5083138942718506
40	119.70490193367004	fix_post	2		12.0	38.0	2.5	/experiments/knapen_aot/videos/S_bing-www_dailymotion_com_video_x64hzm7_8.mp4	0.0	228.34424710273743	0.10000109672546387
41	119.80490303039551	fix_pre	0		239.0	39.0	2.5	/experiments/knapen_aot/videos/R_S_yt-PyO8-WsbaLU_43.mp4	0.0	228.4442481994629	1.9921720027923584
41	121.78837394714355	response	0	4		39.0	2.5	/experiments/knapen_aot/videos/R_S_yt-PyO8-WsbaLU_43.mp4	0.0	230.42771911621094	
41	121.79707503318787	movie	1		301.0	39.0	2.5	/experiments/knapen_aot/videos/R_S_yt-PyO8-WsbaLU_43.mp4	0.0	230.43642020225525	2.507845878601074
41	124.30492091178894	fix_post	2		12.0	39.0	2.5	/experiments/knapen_aot/videos/R_S_yt-PyO8-WsbaLU_43.mp4	0.0	232.94426608085632	0.09997797012329102
42	124.40489888191223	fix_pre	0		18.0	40.0	2.5	/experiments/knapen_aot/videos/S_ILSVRC2015_train_00324001.mp4	0.0	233.04424405097961	0.15007615089416504
42	124.54669880867004	response	0	4		40.0	2.5	/experiments/knapen_aot/videos/S_ILSVRC2015_train_00324001.mp4	0.0	233.18604397773743	
42	124.5549750328064	movie	1		301.0	40.0	2.5	/experiments/knapen_aot/videos/S_ILSVRC2015_train_00324001.mp4	0.0	233.19432020187378	2.5082759857177734
42	126.1305878162384	response	1	4		40.0	2.5	/experiments/knapen_aot/videos/S_ILSVRC2015_train_00324001.mp4	0.0	234.7699329853058	
42	127.06325101852417	fix_post	2		12.0	40.0	2.5	/experiments/knapen_aot/videos/S_ILSVRC2015_train_00324001.mp4	0.0	235.70259618759155	0.09996795654296875
43	127.16321897506714	fix_pre	0		233.0	41.0	2.5	blank	1.0	235.80256414413452	1.9416499137878418
43	129.09670495986938	response	0	4		41.0	2.5	blank	1.0	237.73605012893677	
43	129.10486888885498	movie	1		301.0	41.0	2.5	blank	1.0	237.74421405792236	2.5083019733428955
43	131.61317086219788	fix_post	2		12.0	41.0	2.5	blank	1.0	240.25251603126526	0.10045003890991211
44	131.7136209011078	fix_pre	0		22.0	42.0	2.5	/experiments/knapen_aot/videos/S_video-2.mp4	0.0	240.35296607017517	0.18288397789001465
44	131.88823986053467	response	0	4		42.0	2.5	/experiments/knapen_aot/videos/S_video-2.mp4	0.0	240.52758502960205	
44	131.8965048789978	movie	1		167.0	42.0	2.5	/experiments/knapen_aot/videos/S_video-2.mp4	0.0	240.53585004806519	2.5083470344543457
44	134.40485191345215	fix_post	2		12.0	42.0	2.5	/experiments/knapen_aot/videos/S_video-2.mp4	0.0	243.04419708251953	0.09999799728393555
45	134.50484991073608	fix_pre	0		15.0	43.0	2.5	/experiments/knapen_aot/videos/R_S_yt-7W50lcw5FCo_37.mp4	0.0	243.14419507980347	0.12543201446533203
45	134.62163186073303	response	0	4		43.0	2.5	/experiments/knapen_aot/videos/R_S_yt-7W50lcw5FCo_37.mp4	0.0	243.26097702980042	
45	134.63028192520142	movie	1		301.0	43.0	2.5	/experiments/knapen_aot/videos/R_S_yt-7W50lcw5FCo_37.mp4	0.0	243.2696270942688	2.507941961288452
45	137.13822388648987	fix_post	2		12.0	43.0	2.5	/experiments/knapen_aot/videos/R_S_yt-7W50lcw5FCo_37.mp4	0.0	245.77756905555725	0.09992313385009766
46	137.23814702033997	fix_pre	0		43.0	44.0	2.5	/experiments/knapen_aot/videos/R_S_yt-mdxs8FCKLFc_232.mp4	0.0	245.87749218940735	0.35834789276123047
46	137.5882658958435	response	0	4		44.0	2.5	/experiments/knapen_aot/videos/R_S_yt-mdxs8FCKLFc_232.mp4	0.0	246.2276110649109	
46	137.5964949131012	movie	1		301.0	44.0	2.5	/experiments/knapen_aot/videos/R_S_yt-mdxs8FCKLFc_232.mp4	0.0	246.23584008216858	2.5083560943603516
46	140.10485100746155	fix_post	2		12.0	44.0	2.5	/experiments/knapen_aot/videos/R_S_yt-mdxs8FCKLFc_232.mp4	0.0	248.74419617652893	0.09992790222167969
47	140.20477890968323	fix_pre	0		66.0	45.0	2.5	/experiments/knapen_aot/videos/S_yt-PaxmJhMoP3w_87.mp4	0.0	248.8441240787506	0.5504269599914551
47	140.74658584594727	response	0	4		45.0	2.5	/experiments/knapen_aot/videos/S_yt-PaxmJhMoP3w_87.mp4	0.0	249.38593101501465	
47	140.75520586967468	movie	1		301.0	45.0	2.5	/experiments/knapen_aot/videos/S_yt-PaxmJhMoP3w_87.mp4	0.0	249.39455103874207	2.5079100131988525
47	143.26311588287354	fix_post	2		12.0	45.0	2.5	/experiments/knapen_aot/videos/S_yt-PaxmJhMoP3w_87.mp4	0.0	251.90246105194092	0.1000211238861084
48	143.36313700675964	fix_pre	0		338.0	46.0	2.5	/experiments/knapen_aot/videos/S_WCwb-DeQOSg_85.mp4	0.0	252.00248217582703	2.8166348934173584
48	146.17165303230286	response	0	4		46.0	2.5	/experiments/knapen_aot/videos/S_WCwb-DeQOSg_85.mp4	0.0	254.81099820137024	
48	146.179771900177	movie	1		301.0	46.0	2.5	/experiments/knapen_aot/videos/S_WCwb-DeQOSg_85.mp4	0.0	254.81911706924438	2.508336067199707
48	148.6881079673767	fix_post	2		12.0	46.0	2.5	/experiments/knapen_aot/videos/S_WCwb-DeQOSg_85.mp4	0.0	257.3274531364441	0.10022592544555664
49	148.78833389282227	fix_pre	0		189.0	47.0	2.5	/experiments/knapen_aot/videos/R_S_yt-JkKOG9Fxykc_94.mp4	0.0	257.42767906188965	1.5747389793395996
49	150.35488080978394	response	0	4		47.0	2.5	/experiments/knapen_aot/videos/R_S_yt-JkKOG9Fxykc_94.mp4	0.0	258.9942259788513	
49	150.36307287216187	movie	1		300.0	47.0	2.5	/experiments/knapen_aot/videos/R_S_yt-JkKOG9Fxykc_94.mp4	0.0	259.00241804122925	2.5084519386291504
49	152.87152481079102	fix_post	2		12.0	47.0	2.5	/experiments/knapen_aot/videos/R_S_yt-JkKOG9Fxykc_94.mp4	0.0	261.5108699798584	0.09994721412658691
50	152.9714720249176	fix_pre	0		177.0	48.0	2.5	/experiments/knapen_aot/videos/S_comp_A012_C014_1223PT_v53_SDR_PS_FINAL_20180709_F0F8700_SDR_2K_AVC.mp4	0.0	261.610817193985	1.4749209880828857
50	154.43822598457336	response	0	4		48.0	2.5	/experiments/knapen_aot/videos/S_comp_A012_C014_1223PT_v53_SDR_PS_FINAL_20180709_F0F8700_SDR_2K_AVC.mp4	0.0	263.07757115364075	
50	154.4463930130005	movie	1		167.0	48.0	2.5	/experiments/knapen_aot/videos/S_comp_A012_C014_1223PT_v53_SDR_PS_FINAL_20180709_F0F8700_SDR_2K_AVC.mp4	0.0	263.08573818206787	2.5083107948303223
50	156.9547038078308	fix_post	2		12.0	48.0	2.5	/experiments/knapen_aot/videos/S_comp_A012_C014_1223PT_v53_SDR_PS_FINAL_20180709_F0F8700_SDR_2K_AVC.mp4	0.0	265.5940489768982	0.1000821590423584
51	157.05478596687317	fix_pre	0		340.0	49.0	2.5	blank	1.0	265.69413113594055	2.8332319259643555
51	159.8798508644104	response	0	4		49.0	2.5	blank	1.0	268.5191960334778	
51	159.88801789283752	movie	1		301.0	49.0	2.5	blank	1.0	268.5273630619049	2.5085039138793945
51	162.39652180671692	fix_post	2		12.0	49.0	2.5	blank	1.0	271.0358669757843	0.09986710548400879
52	162.49638891220093	fix_pre	0		35.0	50.0	2.5	/experiments/knapen_aot/videos/S_yt-roThCERxVCs_133.mp4	0.0	271.1357340812683	0.2915689945220947
52	162.77979683876038	response	0	4		50.0	2.5	/experiments/knapen_aot/videos/S_yt-roThCERxVCs_133.mp4	0.0	271.41914200782776	
52	162.78795790672302	movie	1		301.0	50.0	2.5	/experiments/knapen_aot/videos/S_yt-roThCERxVCs_133.mp4	0.0	271.4273030757904	2.508657932281494
52	165.29661583900452	fix_post	2		12.0	50.0	2.5	/experiments/knapen_aot/videos/S_yt-roThCERxVCs_133.mp4	0.0	273.9359610080719	0.09978508949279785
53	165.39640092849731	fix_pre	0		36.0	51.0	2.5	/experiments/knapen_aot/videos/R_S_yt-lazG9z4VQAw_99.mp4	0.0	274.0357460975647	0.30001306533813477
53	165.68819189071655	response	0	4		51.0	2.5	/experiments/knapen_aot/videos/R_S_yt-lazG9z4VQAw_99.mp4	0.0	274.32753705978394	
53	165.69641399383545	movie	1		301.0	51.0	2.5	/experiments/knapen_aot/videos/R_S_yt-lazG9z4VQAw_99.mp4	0.0	274.33575916290283	2.5084128379821777
53	168.20482683181763	fix_post	2		12.0	51.0	2.5	/experiments/knapen_aot/videos/R_S_yt-lazG9z4VQAw_99.mp4	0.0	276.844172000885	0.09987020492553711
54	168.30469703674316	fix_pre	0		209.0	52.0	2.5	/experiments/knapen_aot/videos/S_wc-6or3Gl2Fif0m_13.mp4	0.0	276.94404220581055	1.7419497966766357
54	170.03834080696106	response	0	4		52.0	2.5	/experiments/knapen_aot/videos/S_wc-6or3Gl2Fif0m_13.mp4	0.0	278.67768597602844	
54	170.0466468334198	movie	1		171.0	52.0	2.5	/experiments/knapen_aot/videos/S_wc-6or3Gl2Fif0m_13.mp4	0.0	278.6859920024872	2.508151054382324
54	172.55479788780212	fix_post	2		12.0	52.0	2.5	/experiments/knapen_aot/videos/S_wc-6or3Gl2Fif0m_13.mp4	0.0	281.1941430568695	0.09992098808288574
55	172.654718875885	fix_pre	0		1.0	53.0	2.5	/experiments/knapen_aot/videos/S_yt-9Z9-RT-ysEE_85.mp4	0.0	281.2940640449524	0.009977102279663086
55	172.65634393692017	response	0	4		53.0	2.5	/experiments/knapen_aot/videos/S_yt-9Z9-RT-ysEE_85.mp4	0.0	281.29568910598755	
55	172.66469597816467	movie	1		301.0	53.0	2.5	/experiments/knapen_aot/videos/S_yt-9Z9-RT-ysEE_85.mp4	0.0	281.30404114723206	2.50669002532959
55	175.17138600349426	fix_post	2		12.0	53.0	2.5	/experiments/knapen_aot/videos/S_yt-9Z9-RT-ysEE_85.mp4	0.0	283.81073117256165	0.09994792938232422
56	175.2713339328766	fix_pre	0		55.0	54.0	2.5	blank	1.0	283.91067910194397	0.45830702781677246
56	175.72151589393616	response	0	4		54.0	2.5	blank	1.0	284.36086106300354	
56	175.72964096069336	movie	1		301.0	54.0	2.5	blank	1.0	284.36898612976074	2.5083909034729004
56	178.23803186416626	fix_post	2		12.0	54.0	2.5	blank	1.0	286.87737703323364	0.10027909278869629
57	178.33831095695496	fix_pre	0		21.0	55.0	2.5	/experiments/knapen_aot/videos/S_flickr-evananderica-2662125519_8.mp4	0.0	286.97765612602234	0.17464995384216309
57	178.5047528743744	response	0	4		55.0	2.5	/experiments/knapen_aot/videos/S_flickr-evananderica-2662125519_8.mp4	0.0	287.1440980434418	
57	178.51296091079712	movie	1		301.0	55.0	2.5	/experiments/knapen_aot/videos/S_flickr-evananderica-2662125519_8.mp4	0.0	287.1523060798645	2.5083870887756348
57	181.02134799957275	fix_post	2		12.0	55.0	2.5	/experiments/knapen_aot/videos/S_flickr-evananderica-2662125519_8.mp4	0.0	289.66069316864014	0.09999394416809082
58	181.12134194374084	fix_pre	0		22.0	56.0	2.5	/experiments/knapen_aot/videos/R_S_yt-XRQ_LSGGr3Y_712.mp4	0.0	289.7606871128082	0.18328595161437988
58	181.29646492004395	response	0	4		56.0	2.5	/experiments/knapen_aot/videos/R_S_yt-XRQ_LSGGr3Y_712.mp4	0.0	289.9358100891113	
58	181.30462789535522	movie	1		301.0	56.0	2.5	/experiments/knapen_aot/videos/R_S_yt-XRQ_LSGGr3Y_712.mp4	0.0	289.9439730644226	2.508384943008423
58	183.81301283836365	fix_post	2		12.0	56.0	2.5	/experiments/knapen_aot/videos/R_S_yt-XRQ_LSGGr3Y_712.mp4	0.0	292.45235800743103	0.09999418258666992
58	183.87977290153503	response	2	4		56.0	2.5	/experiments/knapen_aot/videos/R_S_yt-XRQ_LSGGr3Y_712.mp4	0.0	292.5191180706024	
59	183.91300702095032	fix_pre	0		52.0	57.0	2.5	/experiments/knapen_aot/videos/R_S_pexels-ekaterina-bolovtsova-7669220.mp4	0.0	292.5523521900177	0.43321800231933594
59	184.33805394172668	response	0	4		57.0	2.5	/experiments/knapen_aot/videos/R_S_pexels-ekaterina-bolovtsova-7669220.mp4	0.0	292.97739911079407	
59	184.34622502326965	movie	1		166.0	57.0	2.5	/experiments/knapen_aot/videos/R_S_pexels-ekaterina-bolovtsova-7669220.mp4	0.0	292.98557019233704	2.508430004119873
59	186.85465502738953	fix_post	2		12.0	57.0	2.5	/experiments/knapen_aot/videos/R_S_pexels-ekaterina-bolovtsova-7669220.mp4	0.0	295.4940001964569	0.09998083114624023
60	186.95463585853577	fix_pre	0		28.0	58.0	2.5	/experiments/knapen_aot/videos/R_S_yt-gzjV6YoK6X0_3.mp4	0.0	295.59398102760315	0.23323798179626465
60	187.17968797683716	response	0	4		58.0	2.5	/experiments/knapen_aot/videos/R_S_yt-gzjV6YoK6X0_3.mp4	0.0	295.81903314590454	
60	187.18787384033203	movie	1		301.0	58.0	2.5	/experiments/knapen_aot/videos/R_S_yt-gzjV6YoK6X0_3.mp4	0.0	295.8272190093994	2.5085320472717285
60	189.69640588760376	fix_post	2		12.0	58.0	2.5	/experiments/knapen_aot/videos/R_S_yt-gzjV6YoK6X0_3.mp4	0.0	298.33575105667114	0.10020709037780762
61	189.79661297798157	fix_pre	0		37.0	59.0	2.5	/experiments/knapen_aot/videos/S_ILSVRC2015_train_00404003.mp4	0.0	298.43595814704895	0.30797886848449707
61	190.09643602371216	response	0	4		59.0	2.5	/experiments/knapen_aot/videos/S_ILSVRC2015_train_00404003.mp4	0.0	298.73578119277954	
61	190.10459184646606	movie	1		301.0	59.0	2.5	/experiments/knapen_aot/videos/S_ILSVRC2015_train_00404003.mp4	0.0	298.74393701553345	2.5082921981811523
61	192.61288404464722	fix_post	2		12.0	59.0	2.5	/experiments/knapen_aot/videos/S_ILSVRC2015_train_00404003.mp4	0.0	301.2522292137146	0.10029196739196777
62	192.71317601203918	fix_pre	0		56.0	60.0	2.5	/experiments/knapen_aot/videos/R_S_ILSVRC2015_train_00303008.mp4	0.0	301.35252118110657	0.46639585494995117
62	193.171404838562	response	0	4		60.0	2.5	/experiments/knapen_aot/videos/R_S_ILSVRC2015_train_00303008.mp4	0.0	301.8107500076294	
62	193.17957186698914	movie	1		301.0	60.0	2.5	/experiments/knapen_aot/videos/R_S_ILSVRC2015_train_00303008.mp4	0.0	301.8189170360565	2.5083351135253906
62	195.68790698051453	fix_post	2		12.0	60.0	2.5	/experiments/knapen_aot/videos/R_S_ILSVRC2015_train_00303008.mp4	0.0	304.3272521495819	0.10024189949035645
63	195.78814888000488	fix_pre	0		61.0	61.0	2.5	/experiments/knapen_aot/videos/S_yt-6xXEMHBQ08A_28.mp4	0.0	304.42749404907227	0.5081760883331299
63	196.2880208492279	response	0	4		61.0	2.5	/experiments/knapen_aot/videos/S_yt-6xXEMHBQ08A_28.mp4	0.0	304.9273660182953	
63	196.296324968338	movie	1		301.0	61.0	2.5	/experiments/knapen_aot/videos/S_yt-6xXEMHBQ08A_28.mp4	0.0	304.9356701374054	2.5081820487976074
63	198.80450701713562	fix_post	2		12.0	61.0	2.5	/experiments/knapen_aot/videos/S_yt-6xXEMHBQ08A_28.mp4	0.0	307.443852186203	0.10006093978881836
64	198.90456795692444	fix_pre	0		31.0	62.0	2.5	blank	1.0	307.5439131259918	0.2583279609680176
64	199.1546230316162	response	0	4		62.0	2.5	blank	1.0	307.7939682006836	
64	199.16289591789246	movie	1		301.0	62.0	2.5	blank	1.0	307.80224108695984	2.5083770751953125
64	201.67127299308777	fix_post	2		12.0	62.0	2.5	blank	1.0	310.31061816215515	0.09999585151672363
64	201.72966504096985	response	2	4		62.0	2.5	blank	1.0	310.36901021003723	
65	201.7712688446045	fix_pre	0		38.0	63.0	2.5	/experiments/knapen_aot/videos/R_S_ILSVRC2015_train_00723001.mp4	0.0	310.4106140136719	0.3167390823364258
65	202.07960081100464	response	0	4		63.0	2.5	/experiments/knapen_aot/videos/R_S_ILSVRC2015_train_00723001.mp4	0.0	310.718945980072	
65	202.08800792694092	movie	1		301.0	63.0	2.5	/experiments/knapen_aot/videos/R_S_ILSVRC2015_train_00723001.mp4	0.0	310.7273530960083	2.5081698894500732
65	204.596177816391	fix_post	2		12.0	63.0	2.5	/experiments/knapen_aot/videos/R_S_ILSVRC2015_train_00723001.mp4	0.0	313.2355229854584	0.10006499290466309
66	204.69624280929565	fix_pre	0		36.0	64.0	2.5	/experiments/knapen_aot/videos/R_S_ILSVRC2015_train_00715000.mp4	0.0	313.33558797836304	0.2998971939086914
66	204.98799991607666	response	0	4		64.0	2.5	/experiments/knapen_aot/videos/R_S_ILSVRC2015_train_00715000.mp4	0.0	313.62734508514404	
66	204.99614000320435	movie	1		301.0	64.0	2.5	/experiments/knapen_aot/videos/R_S_ILSVRC2015_train_00715000.mp4	0.0	313.63548517227173	2.5085608959198
66	207.50470089912415	fix_post	2		12.0	64.0	2.5	/experiments/knapen_aot/videos/R_S_ILSVRC2015_train_00715000.mp4	0.0	316.1440460681915	0.09982991218566895
67	207.60453081130981	fix_pre	0		21.0	65.0	2.5	/experiments/knapen_aot/videos/R_S_ILSVRC2015_train_00324001.mp4	0.0	316.2438759803772	0.17497706413269043
67	207.77124190330505	response	0	4		65.0	2.5	/experiments/knapen_aot/videos/R_S_ILSVRC2015_train_00324001.mp4	0.0	316.41058707237244	
67	207.7795078754425	movie	1		301.0	65.0	2.5	/experiments/knapen_aot/videos/R_S_ILSVRC2015_train_00324001.mp4	0.0	316.4188530445099	2.5083870887756348
67	210.28789496421814	fix_post	2		12.0	65.0	2.5	/experiments/knapen_aot/videos/R_S_ILSVRC2015_train_00324001.mp4	0.0	318.9272401332855	0.09990286827087402
68	210.387797832489	fix_pre	0		44.0	66.0	2.5	/experiments/knapen_aot/videos/S_yt-9aKqMX9IHPg_242.mp4	0.0	319.0271430015564	0.3667621612548828
68	210.74626183509827	response	0	4		66.0	2.5	/experiments/knapen_aot/videos/S_yt-9aKqMX9IHPg_242.mp4	0.0	319.38560700416565	
68	210.7545599937439	movie	1		301.0	66.0	2.5	/experiments/knapen_aot/videos/S_yt-9aKqMX9IHPg_242.mp4	0.0	319.3939051628113	2.5083088874816895
68	213.2628688812256	fix_post	2		12.0	66.0	2.5	/experiments/knapen_aot/videos/S_yt-9aKqMX9IHPg_242.mp4	0.0	321.90221405029297	0.09994912147521973
69	213.3628180027008	fix_pre	0		26.0	67.0	2.5	/experiments/knapen_aot/videos/S_production_ID_4121250.mp4	0.0	322.0021631717682	0.21668601036071777
69	213.5713188648224	response	0	4		67.0	2.5	/experiments/knapen_aot/videos/S_production_ID_4121250.mp4	0.0	322.21066403388977	
69	213.57950401306152	movie	1		171.0	67.0	2.5	/experiments/knapen_aot/videos/S_production_ID_4121250.mp4	0.0	322.2188491821289	2.5083699226379395
69	216.08787393569946	fix_post	2		12.0	67.0	2.5	/experiments/knapen_aot/videos/S_production_ID_4121250.mp4	0.0	324.72721910476685	0.09999799728393555
70	216.1878719329834	fix_pre	0		23.0	68.0	2.5	blank	1.0	324.8272171020508	0.19162392616271973
70	216.37127089500427	response	0	4		68.0	2.5	blank	1.0	325.01061606407166	
70	216.37949585914612	movie	1		301.0	68.0	2.5	blank	1.0	325.0188410282135	2.508371114730835
70	218.88786697387695	fix_post	2		12.0	68.0	2.5	blank	1.0	327.52721214294434	0.0999748706817627
71	218.98784184455872	fix_pre	0		53.0	69.0	2.5	/experiments/knapen_aot/videos/S_yt-y3tyx6cZjmA_412.mp4	0.0	327.6271870136261	0.44162607192993164
71	219.42124199867249	response	0	4		69.0	2.5	/experiments/knapen_aot/videos/S_yt-y3tyx6cZjmA_412.mp4	0.0	328.06058716773987	
71	219.42946791648865	movie	1		301.0	69.0	2.5	/experiments/knapen_aot/videos/S_yt-y3tyx6cZjmA_412.mp4	0.0	328.06881308555603	2.5083730220794678
71	221.7462248802185	response	1	4		69.0	2.5	/experiments/knapen_aot/videos/S_yt-y3tyx6cZjmA_412.mp4	0.0	330.3855700492859	
71	221.93784093856812	fix_post	2		12.0	69.0	2.5	/experiments/knapen_aot/videos/S_yt-y3tyx6cZjmA_412.mp4	0.0	330.5771861076355	0.0999760627746582
72	222.03781700134277	fix_pre	0		39.0	70.0	2.5	/experiments/knapen_aot/videos/R_S_yt-1iB2ofPY1U8_16.mp4	0.0	330.67716217041016	0.32512497901916504
72	222.3546028137207	response	0	4		70.0	2.5	/experiments/knapen_aot/videos/R_S_yt-1iB2ofPY1U8_16.mp4	0.0	330.9939479827881	
72	222.36294198036194	movie	1		301.0	70.0	2.5	/experiments/knapen_aot/videos/R_S_yt-1iB2ofPY1U8_16.mp4	0.0	331.0022871494293	2.5082080364227295
72	224.25089693069458	response	1	4		70.0	2.5	/experiments/knapen_aot/videos/R_S_yt-1iB2ofPY1U8_16.mp4	0.0	332.89024209976196	
72	224.87115001678467	fix_post	2		12.0	70.0	2.5	/experiments/knapen_aot/videos/R_S_yt-1iB2ofPY1U8_16.mp4	0.0	333.51049518585205	0.10009098052978516
73	224.97124099731445	fix_pre	0		1.0	71.0	2.5	/experiments/knapen_aot/videos/S_BO_A014_C008_SDR_20190719_SDR_2K_AVC.mp4	0.0	333.61058616638184	0.00855398178100586
73	224.97311282157898	response	0	4		71.0	2.5	/experiments/knapen_aot/videos/S_BO_A014_C008_SDR_20190719_SDR_2K_AVC.mp4	0.0	333.61245799064636	
73	224.97979497909546	movie	1		167.0	71.0	2.5	/experiments/knapen_aot/videos/S_BO_A014_C008_SDR_20190719_SDR_2K_AVC.mp4	0.0	333.61914014816284	2.5080208778381348
73	226.59630298614502	response	1	4		71.0	2.5	/experiments/knapen_aot/videos/S_BO_A014_C008_SDR_20190719_SDR_2K_AVC.mp4	0.0	335.2356481552124	
73	227.44620084762573	response	1	4		71.0	2.5	/experiments/knapen_aot/videos/S_BO_A014_C008_SDR_20190719_SDR_2K_AVC.mp4	0.0	336.0855460166931	
73	227.4878158569336	fix_post	2		12.0	71.0	2.5	/experiments/knapen_aot/videos/S_BO_A014_C008_SDR_20190719_SDR_2K_AVC.mp4	0.0	336.127161026001	0.1000051498413086
74	227.5878210067749	fix_pre	0		22.0	72.0	2.5	/experiments/knapen_aot/videos/S_Pexels_Videos_2376809.mp4	0.0	336.2271661758423	0.18331694602966309
74	227.76288485527039	response	0	4		72.0	2.5	/experiments/knapen_aot/videos/S_Pexels_Videos_2376809.mp4	0.0	336.40223002433777	
74	227.77113795280457	movie	1		168.0	72.0	2.5	/experiments/knapen_aot/videos/S_Pexels_Videos_2376809.mp4	0.0	336.41048312187195	2.5083189010620117
74	228.00460290908813	response	1	4		72.0	2.5	/experiments/knapen_aot/videos/S_Pexels_Videos_2376809.mp4	0.0	336.6439480781555	
74	230.27945685386658	fix_post	2		12.0	72.0	2.5	/experiments/knapen_aot/videos/S_Pexels_Videos_2376809.mp4	0.0	338.91880202293396	0.1000661849975586
75	230.37952303886414	fix_pre	0		9.0	73.0	2.5	/experiments/knapen_aot/videos/S_comp_GL_G004_C010_PSNK_v04_SDR_PS_FINAL_20180709_SDR_2K_AVC.mp4	0.0	339.0188682079315	0.07491779327392578
75	230.446359872818	response	0	4		73.0	2.5	/experiments/knapen_aot/videos/S_comp_GL_G004_C010_PSNK_v04_SDR_PS_FINAL_20180709_SDR_2K_AVC.mp4	0.0	339.0857050418854	
75	230.45444083213806	movie	1		171.0	73.0	2.5	/experiments/knapen_aot/videos/S_comp_GL_G004_C010_PSNK_v04_SDR_PS_FINAL_20180709_SDR_2K_AVC.mp4	0.0	339.09378600120544	2.5084400177001953
75	231.8712558746338	response	1	4		73.0	2.5	/experiments/knapen_aot/videos/S_comp_GL_G004_C010_PSNK_v04_SDR_PS_FINAL_20180709_SDR_2K_AVC.mp4	0.0	340.5106010437012	
75	232.41214299201965	response	1	4		73.0	2.5	/experiments/knapen_aot/videos/S_comp_GL_G004_C010_PSNK_v04_SDR_PS_FINAL_20180709_SDR_2K_AVC.mp4	0.0	341.05148816108704	
75	232.96288084983826	fix_post	2		12.0	73.0	2.5	/experiments/knapen_aot/videos/S_comp_GL_G004_C010_PSNK_v04_SDR_PS_FINAL_20180709_SDR_2K_AVC.mp4	0.0	341.60222601890564	0.099945068359375
76	233.06282591819763	fix_pre	0		19.0	74.0	2.5	/experiments/knapen_aot/videos/S_yt-JPsTqfqfPIY_319.mp4	0.0	341.702171087265	0.15827608108520508
76	233.21288299560547	response	0	4		74.0	2.5	/experiments/knapen_aot/videos/S_yt-JPsTqfqfPIY_319.mp4	0.0	341.85222816467285	
76	233.22110199928284	movie	1		301.0	74.0	2.5	/experiments/knapen_aot/videos/S_yt-JPsTqfqfPIY_319.mp4	0.0	341.8604471683502	2.5085389614105225
76	235.72964096069336	fix_post	2		12.0	74.0	2.5	/experiments/knapen_aot/videos/S_yt-JPsTqfqfPIY_319.mp4	0.0	344.36898612976074	0.09977388381958008
77	235.82941484451294	fix_pre	0		10.0	75.0	2.5	/experiments/knapen_aot/videos/R_S_yt-gzjV6YoK6X0_3.mp4	0.0	344.4687600135803	0.0832669734954834
77	235.90454983711243	response	0	4		75.0	2.5	/experiments/knapen_aot/videos/R_S_yt-gzjV6YoK6X0_3.mp4	0.0	344.5438950061798	
77	235.91268181800842	movie	1		301.0	75.0	2.5	/experiments/knapen_aot/videos/R_S_yt-gzjV6YoK6X0_3.mp4	0.0	344.5520269870758	2.508378028869629
77	238.42105984687805	fix_post	2		12.0	75.0	2.5	/experiments/knapen_aot/videos/R_S_yt-gzjV6YoK6X0_3.mp4	0.0	347.06040501594543	0.09999418258666992
78	238.52105402946472	fix_pre	0		8.0	76.0	2.5	/experiments/knapen_aot/videos/R_S_yt-JkKOG9Fxykc_94.mp4	0.0	347.1603991985321	0.06664896011352539
78	238.5794529914856	response	0	4		76.0	2.5	/experiments/knapen_aot/videos/R_S_yt-JkKOG9Fxykc_94.mp4	0.0	347.218798160553	
78	238.58770298957825	movie	1		301.0	76.0	2.5	/experiments/knapen_aot/videos/R_S_yt-JkKOG9Fxykc_94.mp4	0.0	347.22704815864563	2.5083649158477783
78	241.09606790542603	fix_post	2		12.0	76.0	2.5	/experiments/knapen_aot/videos/R_S_yt-JkKOG9Fxykc_94.mp4	0.0	349.7354130744934	0.10006999969482422
79	241.19613790512085	fix_pre	0		42.0	77.0	2.5	blank	1.0	349.83548307418823	0.3498959541320801
79	241.53785395622253	response	0	4		77.0	2.5	blank	1.0	350.1771991252899	
79	241.54603385925293	movie	1		301.0	77.0	2.5	blank	1.0	350.1853790283203	2.508329153060913
79	244.05436301231384	fix_post	2		12.0	77.0	2.5	blank	1.0	352.6937081813812	0.10018682479858398
80	244.15454983711243	fix_pre	0		31.0	78.0	2.5	/experiments/knapen_aot/videos/R_S_yt-hdZEAsVBEEM_19.mp4	0.0	352.7938950061798	0.2581470012664795
80	244.40447998046875	response	0	4		78.0	2.5	/experiments/knapen_aot/videos/R_S_yt-hdZEAsVBEEM_19.mp4	0.0	353.04382514953613	
80	244.4126968383789	movie	1		301.0	78.0	2.5	/experiments/knapen_aot/videos/R_S_yt-hdZEAsVBEEM_19.mp4	0.0	353.0520420074463	2.5083701610565186
80	246.92106699943542	fix_post	2		12.0	78.0	2.5	/experiments/knapen_aot/videos/R_S_yt-hdZEAsVBEEM_19.mp4	0.0	355.5604121685028	0.10020089149475098
81	247.02126789093018	fix_pre	0		14.0	79.0	2.5	/experiments/knapen_aot/videos/R_S_yt-CZ2qiY-kS7Y_105.mp4	0.0	355.66061305999756	0.11647295951843262
81	247.12949991226196	response	0	4		79.0	2.5	/experiments/knapen_aot/videos/R_S_yt-CZ2qiY-kS7Y_105.mp4	0.0	355.76884508132935	
81	247.1377408504486	movie	1		301.0	79.0	2.5	/experiments/knapen_aot/videos/R_S_yt-CZ2qiY-kS7Y_105.mp4	0.0	355.777086019516	2.508329153060913
81	249.64607000350952	fix_post	2		12.0	79.0	2.5	/experiments/knapen_aot/videos/R_S_yt-CZ2qiY-kS7Y_105.mp4	0.0	358.2854151725769	0.0999288558959961
82	249.74599885940552	fix_pre	0		34.0	80.0	2.5	/experiments/knapen_aot/videos/R_S_yt-7Ya-rGPO8cM_159.mp4	0.0	358.3853440284729	0.2833421230316162
82	250.021164894104	response	0	4		80.0	2.5	/experiments/knapen_aot/videos/R_S_yt-7Ya-rGPO8cM_159.mp4	0.0	358.6605100631714	
82	250.02934098243713	movie	1		301.0	80.0	2.5	/experiments/knapen_aot/videos/R_S_yt-7Ya-rGPO8cM_159.mp4	0.0	358.6686861515045	2.508384943008423
82	252.53772592544556	fix_post	2		12.0	80.0	2.5	/experiments/knapen_aot/videos/R_S_yt-7Ya-rGPO8cM_159.mp4	0.0	361.17707109451294	0.09993600845336914
83	252.63766193389893	fix_pre	0		47.0	81.0	2.5	/experiments/knapen_aot/videos/R_S_yt-YFl_NAWBFAw_166.mp4	0.0	361.2770071029663	0.39162707328796387
83	253.02115392684937	response	0	4		81.0	2.5	/experiments/knapen_aot/videos/R_S_yt-YFl_NAWBFAw_166.mp4	0.0	361.66049909591675	
83	253.0292890071869	movie	1		301.0	81.0	2.5	/experiments/knapen_aot/videos/R_S_yt-YFl_NAWBFAw_166.mp4	0.0	361.6686341762543	2.508359909057617
83	255.43773198127747	response	1	4		81.0	2.5	/experiments/knapen_aot/videos/R_S_yt-YFl_NAWBFAw_166.mp4	0.0	364.07707715034485	
83	255.5376489162445	fix_post	2		12.0	81.0	2.5	/experiments/knapen_aot/videos/R_S_yt-YFl_NAWBFAw_166.mp4	0.0	364.1769940853119	0.0999898910522461
84	255.63763880729675	fix_pre	0		46.0	82.0	2.5	blank	1.0	364.27698397636414	0.3833651542663574
84	256.0127010345459	response	0	4		82.0	2.5	blank	1.0	364.6520462036133	
84	256.0210039615631	movie	1		301.0	82.0	2.5	blank	1.0	364.6603491306305	2.50832200050354
84	257.9376919269562	response	1	4		82.0	2.5	blank	1.0	366.57703709602356	
84	258.52932596206665	fix_post	2		12.0	82.0	2.5	blank	1.0	367.16867113113403	0.1002190113067627
85	258.6295449733734	fix_pre	0		27.0	83.0	2.5	/experiments/knapen_aot/videos/S_wc-jujp1kJRHrkJ_54.mp4	0.0	367.2688901424408	0.22472000122070312
85	258.8460350036621	response	0	4		83.0	2.5	/experiments/knapen_aot/videos/S_wc-jujp1kJRHrkJ_54.mp4	0.0	367.4853801727295	
85	258.8542649745941	movie	1		301.0	83.0	2.5	/experiments/knapen_aot/videos/S_wc-jujp1kJRHrkJ_54.mp4	0.0	367.4936101436615	2.5084340572357178
85	261.36269903182983	fix_post	2		12.0	83.0	2.5	/experiments/knapen_aot/videos/S_wc-jujp1kJRHrkJ_54.mp4	0.0	370.0020442008972	0.09992194175720215
87	261.46262097358704	stim	0		493.0					370.1019661426544	4.110882043838501
87	261.60443782806396	response	0	4						370.24378299713135	
87	265.56689500808716	response	0	space						374.20624017715454	
