trial_nr	onset	event_type	phase	response	nr_frames	movie_index	movie_duration	movie_file	blank	onset_abs	duration
0	0.12812304496765137	stim	0		10.0					100.02591514587402	0.0837249755859375
0	0.203294038772583	response	0	space						100.10108613967896	
1	0.21184802055358887	stim	0		121.0					100.10964012145996	1.0081470012664795
1	1.0116019248962402	response	0	space						100.90939402580261	
1	1.2199950218200684	stim	1		120.0					101.11778712272644	0.9994809627532959
1	2.069645881652832	response	1	space						101.9674379825592	
2	2.2194759845733643	fix_pre	0		33.0	0.0	2.5	/experiments/knapen_aot/videos/R_S_yt-6B69qmkEdTI_1.mp4	0.0	102.11726808547974	0.2749929428100586
2	2.486309051513672	response	0	space		0.0	2.5	/experiments/knapen_aot/videos/R_S_yt-6B69qmkEdTI_1.mp4	0.0	102.38410115242004	
2	2.494468927383423	movie	1		299.0	0.0	2.5	/experiments/knapen_aot/videos/R_S_yt-6B69qmkEdTI_1.mp4	0.0	102.3922610282898	2.5085530281066895
2	5.003021955490112	fix_post	2		12.0	0.0	2.5	/experiments/knapen_aot/videos/R_S_yt-6B69qmkEdTI_1.mp4	0.0	104.90081405639648	0.09984207153320312
3	5.102864027023315	fix_pre	0		39.0	1.0	2.5	/experiments/knapen_aot/videos/R_S_production_ID_4802712.mp4	0.0	105.00065612792969	0.3271820545196533
3	5.421314001083374	response	0	2		1.0	2.5	/experiments/knapen_aot/videos/R_S_production_ID_4802712.mp4	0.0	105.31910610198975	
3	5.430046081542969	movie	1		164.0	1.0	2.5	/experiments/knapen_aot/videos/R_S_production_ID_4802712.mp4	0.0	105.32783818244934	2.5061349868774414
3	7.93618106842041	fix_post	2		12.0	1.0	2.5	/experiments/knapen_aot/videos/R_S_production_ID_4802712.mp4	0.0	107.83397316932678	0.1000208854675293
4	8.03620195388794	fix_pre	0		115.0	2.0	2.5	/experiments/knapen_aot/videos/S_G007_C004_UHD_SDR_2K_AVC.mp4	0.0	107.93399405479431	0.9581830501556396
4	8.986182928085327	response	0	2		2.0	2.5	/experiments/knapen_aot/videos/S_G007_C004_UHD_SDR_2K_AVC.mp4	0.0	108.8839750289917	
4	8.994385004043579	movie	1		171.0	2.0	2.5	/experiments/knapen_aot/videos/S_G007_C004_UHD_SDR_2K_AVC.mp4	0.0	108.89217710494995	2.508415937423706
4	11.502800941467285	fix_post	2		12.0	2.0	2.5	/experiments/knapen_aot/videos/S_G007_C004_UHD_SDR_2K_AVC.mp4	0.0	111.40059304237366	0.10000014305114746
5	11.602801084518433	fix_pre	0		48.0	3.0	2.5	/experiments/knapen_aot/videos/R_S_gHYomsO1dSU_5.mp4	0.0	111.5005931854248	0.3999619483947754
5	11.994494915008545	response	0	2		3.0	2.5	/experiments/knapen_aot/videos/R_S_gHYomsO1dSU_5.mp4	0.0	111.89228701591492	
5	12.002763032913208	movie	1		301.0	3.0	2.5	/experiments/knapen_aot/videos/R_S_gHYomsO1dSU_5.mp4	0.0	111.90055513381958	2.508344888687134
5	14.511107921600342	fix_post	2		12.0	3.0	2.5	/experiments/knapen_aot/videos/R_S_gHYomsO1dSU_5.mp4	0.0	114.40890002250671	0.10000109672546387
6	14.611109018325806	fix_pre	0		44.0	4.0	2.5	/experiments/knapen_aot/videos/R_S_dnLAfffA-kU_53.mp4	0.0	114.50890111923218	0.3675210475921631
6	14.969566106796265	response	0	2		4.0	2.5	/experiments/knapen_aot/videos/R_S_dnLAfffA-kU_53.mp4	0.0	114.86735820770264	
6	14.978630065917969	movie	1		301.0	4.0	2.5	/experiments/knapen_aot/videos/R_S_dnLAfffA-kU_53.mp4	0.0	114.87642216682434	2.50744891166687
6	17.48607897758484	fix_post	2		12.0	4.0	2.5	/experiments/knapen_aot/videos/R_S_dnLAfffA-kU_53.mp4	0.0	117.38387107849121	0.10002899169921875
7	17.586107969284058	fix_pre	0		104.0	5.0	2.5	blank	1.0	117.48390007019043	0.8666739463806152
7	18.44447898864746	response	0	2		5.0	2.5	blank	1.0	118.34227108955383	
7	18.452781915664673	movie	1		301.0	5.0	2.5	blank	1.0	118.35057401657104	2.50826096534729
7	20.961042881011963	fix_post	2		12.0	5.0	2.5	blank	1.0	120.85883498191833	0.10013318061828613
8	21.06117606163025	fix_pre	0		32.0	6.0	2.5	/experiments/knapen_aot/videos/S_yt-fymgyhmYnMI_76.mp4	0.0	120.95896816253662	0.26653385162353516
8	21.31209397315979	response	0	2		6.0	2.5	/experiments/knapen_aot/videos/S_yt-fymgyhmYnMI_76.mp4	0.0	121.20988607406616	
8	21.327709913253784	movie	1		301.0	6.0	2.5	/experiments/knapen_aot/videos/S_yt-fymgyhmYnMI_76.mp4	0.0	121.22550201416016	2.508380174636841
8	23.836090087890625	fix_post	2		12.0	6.0	2.5	/experiments/knapen_aot/videos/S_yt-fymgyhmYnMI_76.mp4	0.0	123.733882188797	0.09994292259216309
9	23.936033010482788	fix_pre	0		50.0	7.0	2.5	/experiments/knapen_aot/videos/S_yt-EKPrSw5xF7k_112.mp4	0.0	123.83382511138916	0.41750597953796387
9	24.34443497657776	response	0	2		7.0	2.5	/experiments/knapen_aot/videos/S_yt-EKPrSw5xF7k_112.mp4	0.0	124.24222707748413	
9	24.353538990020752	movie	1		301.0	7.0	2.5	/experiments/knapen_aot/videos/S_yt-EKPrSw5xF7k_112.mp4	0.0	124.25133109092712	2.507601022720337
9	26.86114001274109	fix_post	2		12.0	7.0	2.5	/experiments/knapen_aot/videos/S_yt-EKPrSw5xF7k_112.mp4	0.0	126.75893211364746	0.09989190101623535
10	26.961031913757324	fix_pre	0		36.0	8.0	2.5	/experiments/knapen_aot/videos/R_S_comp_CH_C007_C004_PSNK_v02_SDR_PS_FINAL_20180709_SDR_2K_AVC.mp4	0.0	126.8588240146637	0.29996800422668457
10	27.252722024917603	response	0	2		8.0	2.5	/experiments/knapen_aot/videos/R_S_comp_CH_C007_C004_PSNK_v02_SDR_PS_FINAL_20180709_SDR_2K_AVC.mp4	0.0	127.15051412582397	
10	27.26099991798401	movie	1		196.0	8.0	2.5	/experiments/knapen_aot/videos/R_S_comp_CH_C007_C004_PSNK_v02_SDR_PS_FINAL_20180709_SDR_2K_AVC.mp4	0.0	127.15879201889038	2.5084071159362793
10	29.769407033920288	fix_post	2		12.0	8.0	2.5	/experiments/knapen_aot/videos/R_S_comp_CH_C007_C004_PSNK_v02_SDR_PS_FINAL_20180709_SDR_2K_AVC.mp4	0.0	129.66719913482666	0.09993791580200195
11	29.86934494972229	fix_pre	0		20.0	9.0	2.5	/experiments/knapen_aot/videos/S_yt-GBt59U0KUR0_6.mp4	0.0	129.76713705062866	0.16666102409362793
11	30.027791023254395	response	0	2		9.0	2.5	/experiments/knapen_aot/videos/S_yt-GBt59U0KUR0_6.mp4	0.0	129.92558312416077	
11	30.036005973815918	movie	1		301.0	9.0	2.5	/experiments/knapen_aot/videos/S_yt-GBt59U0KUR0_6.mp4	0.0	129.9337980747223	2.508345127105713
11	32.54435110092163	fix_post	2		12.0	9.0	2.5	/experiments/knapen_aot/videos/S_yt-GBt59U0KUR0_6.mp4	0.0	132.442143201828	0.0999457836151123
12	32.64429688453674	fix_pre	0		20.0	10.0	2.5	/experiments/knapen_aot/videos/R_S_yt-OdTWn1U1mO4_68.mp4	0.0	132.54208898544312	0.16756105422973633
12	32.8029580116272	response	0	2		10.0	2.5	/experiments/knapen_aot/videos/R_S_yt-OdTWn1U1mO4_68.mp4	0.0	132.70075011253357	
12	32.81185793876648	movie	1		301.0	10.0	2.5	/experiments/knapen_aot/videos/R_S_yt-OdTWn1U1mO4_68.mp4	0.0	132.70965003967285	2.507416009902954
12	35.319273948669434	fix_post	2		12.0	10.0	2.5	/experiments/knapen_aot/videos/R_S_yt-OdTWn1U1mO4_68.mp4	0.0	135.2170660495758	0.10020613670349121
13	35.419480085372925	fix_pre	0		34.0	11.0	2.5	/experiments/knapen_aot/videos/R_S_yt-H5LQq4MPIao_660.mp4	0.0	135.3172721862793	0.2830688953399658
13	35.69445204734802	response	0	2		11.0	2.5	/experiments/knapen_aot/videos/R_S_yt-H5LQq4MPIao_660.mp4	0.0	135.5922441482544	
13	35.70254898071289	movie	1		301.0	11.0	2.5	/experiments/knapen_aot/videos/R_S_yt-H5LQq4MPIao_660.mp4	0.0	135.60034108161926	2.5084381103515625
13	38.21098709106445	fix_post	2		12.0	11.0	2.5	/experiments/knapen_aot/videos/R_S_yt-H5LQq4MPIao_660.mp4	0.0	138.10877919197083	0.10001087188720703
14	38.31099796295166	fix_pre	0		47.0	12.0	2.5	/experiments/knapen_aot/videos/R_S_ILSVRC2015_train_00165009.mp4	0.0	138.20879006385803	0.39162111282348633
14	38.69445204734802	response	0	2		12.0	2.5	/experiments/knapen_aot/videos/R_S_ILSVRC2015_train_00165009.mp4	0.0	138.5922441482544	
14	38.70261907577515	movie	1		301.0	12.0	2.5	/experiments/knapen_aot/videos/R_S_ILSVRC2015_train_00165009.mp4	0.0	138.60041117668152	2.5083730220794678
14	41.210992097854614	fix_post	2		12.0	12.0	2.5	/experiments/knapen_aot/videos/R_S_ILSVRC2015_train_00165009.mp4	0.0	141.108784198761	0.09992289543151855
15	41.31091499328613	fix_pre	0		44.0	13.0	2.5	blank	1.0	141.2087070941925	0.3666820526123047
15	41.669426918029785	response	0	2		13.0	2.5	blank	1.0	141.56721901893616	
15	41.67759704589844	movie	1		301.0	13.0	2.5	blank	1.0	141.5753891468048	2.508333921432495
15	44.18593096733093	fix_post	2		12.0	13.0	2.5	blank	1.0	144.0837230682373	0.1000819206237793
16	44.28601288795471	fix_pre	0		52.0	14.0	2.5	/experiments/knapen_aot/videos/S_yt-iKe-0YNR5Eo_164.mp4	0.0	144.18380498886108	0.4332711696624756
16	44.71112895011902	response	0	2		14.0	2.5	/experiments/knapen_aot/videos/S_yt-iKe-0YNR5Eo_164.mp4	0.0	144.6089210510254	
16	44.71928405761719	movie	1		301.0	14.0	2.5	/experiments/knapen_aot/videos/S_yt-iKe-0YNR5Eo_164.mp4	0.0	144.61707615852356	2.5084240436553955
16	47.22770810127258	fix_post	2		12.0	14.0	2.5	/experiments/knapen_aot/videos/S_yt-iKe-0YNR5Eo_164.mp4	0.0	147.12550020217896	0.09993481636047363
17	47.32764291763306	fix_pre	0		42.0	15.0	2.5	/experiments/knapen_aot/videos/R_S_yt-KM_SJx8CMGc_10.mp4	0.0	147.22543501853943	0.3499870300292969
17	47.669403076171875	response	0	2		15.0	2.5	/experiments/knapen_aot/videos/R_S_yt-KM_SJx8CMGc_10.mp4	0.0	147.56719517707825	
17	47.67762994766235	movie	1		301.0	15.0	2.5	/experiments/knapen_aot/videos/R_S_yt-KM_SJx8CMGc_10.mp4	0.0	147.57542204856873	2.508289098739624
17	50.18591904640198	fix_post	2		12.0	15.0	2.5	/experiments/knapen_aot/videos/R_S_yt-KM_SJx8CMGc_10.mp4	0.0	150.08371114730835	0.0999598503112793
18	50.28587889671326	fix_pre	0		116.0	16.0	2.5	/experiments/knapen_aot/videos/S_video_inspire_alabama_montgomery_countryside_00007.1080-h264.mp4	0.0	150.18367099761963	0.9666900634765625
18	51.24435591697693	response	0	2		16.0	2.5	/experiments/knapen_aot/videos/S_video_inspire_alabama_montgomery_countryside_00007.1080-h264.mp4	0.0	151.1421480178833	
18	51.25256896018982	movie	1		170.0	16.0	2.5	/experiments/knapen_aot/videos/S_video_inspire_alabama_montgomery_countryside_00007.1080-h264.mp4	0.0	151.1503610610962	2.5083811283111572
18	53.76095008850098	fix_post	2		12.0	16.0	2.5	/experiments/knapen_aot/videos/S_video_inspire_alabama_montgomery_countryside_00007.1080-h264.mp4	0.0	153.65874218940735	0.09998393058776855
19	53.860934019088745	fix_pre	0		50.0	17.0	2.5	/experiments/knapen_aot/videos/S_comp_A105_C003_0212CT_FLARE_v10_SDR_PS_FINAL_20180711_SDR_2K_AVC.mp4	0.0	153.75872611999512	0.4166848659515381
19	54.26939797401428	response	0	2		17.0	2.5	/experiments/knapen_aot/videos/S_comp_A105_C003_0212CT_FLARE_v10_SDR_PS_FINAL_20180711_SDR_2K_AVC.mp4	0.0	154.16719007492065	
19	54.27761888504028	movie	1		162.0	17.0	2.5	/experiments/knapen_aot/videos/S_comp_A105_C003_0212CT_FLARE_v10_SDR_PS_FINAL_20180711_SDR_2K_AVC.mp4	0.0	154.17541098594666	2.508327007293701
19	56.785945892333984	fix_post	2		12.0	17.0	2.5	/experiments/knapen_aot/videos/S_comp_A105_C003_0212CT_FLARE_v10_SDR_PS_FINAL_20180711_SDR_2K_AVC.mp4	0.0	156.68373799324036	0.10006999969482422
20	56.88601589202881	fix_pre	0		61.0	18.0	2.5	/experiments/knapen_aot/videos/S_Y011_C008_SDR_2K_AVC.mp4	0.0	156.78380799293518	0.5089762210845947
20	57.3860650062561	response	0	2		18.0	2.5	/experiments/knapen_aot/videos/S_Y011_C008_SDR_2K_AVC.mp4	0.0	157.28385710716248	
20	57.3949921131134	movie	1		167.0	18.0	2.5	/experiments/knapen_aot/videos/S_Y011_C008_SDR_2K_AVC.mp4	0.0	157.29278421401978	2.50780987739563
20	59.90280199050903	fix_post	2		12.0	18.0	2.5	/experiments/knapen_aot/videos/S_Y011_C008_SDR_2K_AVC.mp4	0.0	159.8005940914154	0.09972810745239258
21	60.002530097961426	fix_pre	0		28.0	19.0	2.5	/experiments/knapen_aot/videos/R_S_yt-VJ65ukWmdxQ_193.mp4	0.0	159.9003221988678	0.23334884643554688
21	60.227641105651855	response	0	2		19.0	2.5	/experiments/knapen_aot/videos/R_S_yt-VJ65ukWmdxQ_193.mp4	0.0	160.12543320655823	
21	60.23587894439697	movie	1		301.0	19.0	2.5	/experiments/knapen_aot/videos/R_S_yt-VJ65ukWmdxQ_193.mp4	0.0	160.13367104530334	2.50832200050354
21	62.74420094490051	fix_post	2		12.0	19.0	2.5	/experiments/knapen_aot/videos/R_S_yt-VJ65ukWmdxQ_193.mp4	0.0	162.64199304580688	0.10022115707397461
22	62.84442210197449	fix_pre	0		39.0	20.0	2.5	blank	1.0	162.74221420288086	0.3247678279876709
22	63.160983085632324	response	0	2		20.0	2.5	blank	1.0	163.0587751865387	
22	63.16918992996216	movie	1		301.0	20.0	2.5	blank	1.0	163.06698203086853	2.5083580017089844
22	65.67754793167114	fix_post	2		12.0	20.0	2.5	blank	1.0	165.57534003257751	0.0999290943145752
23	65.77747702598572	fix_pre	0		47.0	21.0	2.5	/experiments/knapen_aot/videos/S_yt-ZdXwVfF6T-s_25.mp4	0.0	165.6752691268921	0.39167094230651855
23	66.16094398498535	response	0	2		21.0	2.5	/experiments/knapen_aot/videos/S_yt-ZdXwVfF6T-s_25.mp4	0.0	166.05873608589172	
23	66.16914796829224	movie	1		301.0	21.0	2.5	/experiments/knapen_aot/videos/S_yt-ZdXwVfF6T-s_25.mp4	0.0	166.0669400691986	2.5084919929504395
23	68.67763996124268	fix_post	2		12.0	21.0	2.5	/experiments/knapen_aot/videos/S_yt-ZdXwVfF6T-s_25.mp4	0.0	168.57543206214905	0.09981703758239746
24	68.77745699882507	fix_pre	0		50.0	22.0	2.5	/experiments/knapen_aot/videos/S_Y011_C008_SDR_2K_AVC.mp4	0.0	168.67524909973145	0.4166750907897949
24	69.18593502044678	response	0	2		22.0	2.5	/experiments/knapen_aot/videos/S_Y011_C008_SDR_2K_AVC.mp4	0.0	169.08372712135315	
24	69.19413208961487	movie	1		170.0	22.0	2.5	/experiments/knapen_aot/videos/S_Y011_C008_SDR_2K_AVC.mp4	0.0	169.09192419052124	2.5084049701690674
24	71.70253705978394	fix_post	2		12.0	22.0	2.5	/experiments/knapen_aot/videos/S_Y011_C008_SDR_2K_AVC.mp4	0.0	171.6003291606903	0.09999704360961914
25	71.80253410339355	fix_pre	0		57.0	23.0	2.5	/experiments/knapen_aot/videos/S_pexels-koolshooters-7689098.mp4	0.0	171.70032620429993	0.4749889373779297
25	72.26922798156738	response	0	2		23.0	2.5	/experiments/knapen_aot/videos/S_pexels-koolshooters-7689098.mp4	0.0	172.16702008247375	
25	72.27752304077148	movie	1		164.0	23.0	2.5	/experiments/knapen_aot/videos/S_pexels-koolshooters-7689098.mp4	0.0	172.17531514167786	2.5083630084991455
25	74.78588604927063	fix_post	2		12.0	23.0	2.5	/experiments/knapen_aot/videos/S_pexels-koolshooters-7689098.mp4	0.0	174.683678150177	0.10015201568603516
26	74.88603806495667	fix_pre	0		56.0	24.0	2.5	/experiments/knapen_aot/videos/R_S_SPNvf6JCjGw_123.mp4	0.0	174.78383016586304	0.4669508934020996
26	75.34427905082703	response	0	2		24.0	2.5	/experiments/knapen_aot/videos/R_S_SPNvf6JCjGw_123.mp4	0.0	175.2420711517334	
26	75.35298895835876	movie	1		301.0	24.0	2.5	/experiments/knapen_aot/videos/R_S_SPNvf6JCjGw_123.mp4	0.0	175.25078105926514	2.5078139305114746
26	77.86080288887024	fix_post	2		12.0	24.0	2.5	/experiments/knapen_aot/videos/R_S_SPNvf6JCjGw_123.mp4	0.0	177.7585949897766	0.10003304481506348
27	77.9608359336853	fix_pre	0		49.0	25.0	2.5	/experiments/knapen_aot/videos/R_S_yt-YCjbGOPBQHw_131.mp4	0.0	177.85862803459167	0.40830302238464355
27	78.36094188690186	response	0	2		25.0	2.5	/experiments/knapen_aot/videos/R_S_yt-YCjbGOPBQHw_131.mp4	0.0	178.25873398780823	
27	78.36913895606995	movie	1		301.0	25.0	2.5	/experiments/knapen_aot/videos/R_S_yt-YCjbGOPBQHw_131.mp4	0.0	178.26693105697632	2.508333921432495
27	80.87747287750244	fix_post	2		12.0	25.0	2.5	/experiments/knapen_aot/videos/R_S_yt-YCjbGOPBQHw_131.mp4	0.0	180.7752649784088	0.09994912147521973
28	80.97742199897766	fix_pre	0		72.0	26.0	2.5	/experiments/knapen_aot/videos/S_yt-cokedWwwYYs_136.mp4	0.0	180.87521409988403	0.6001019477844238
28	81.56928396224976	response	0	2		26.0	2.5	/experiments/knapen_aot/videos/S_yt-cokedWwwYYs_136.mp4	0.0	181.46707606315613	
28	81.57752394676208	movie	1		301.0	26.0	2.5	/experiments/knapen_aot/videos/S_yt-cokedWwwYYs_136.mp4	0.0	181.47531604766846	2.5083789825439453
28	84.08590292930603	fix_post	2		12.0	26.0	2.5	/experiments/knapen_aot/videos/S_yt-cokedWwwYYs_136.mp4	0.0	183.9836950302124	0.09990906715393066
29	84.18581199645996	fix_pre	0		59.0	27.0	2.5	blank	1.0	184.08360409736633	0.49161791801452637
29	84.66169905662537	response	0	2		27.0	2.5	blank	1.0	184.55949115753174	
29	84.67742991447449	movie	1		301.0	27.0	2.5	blank	1.0	184.57522201538086	2.5083441734313965
29	87.18577408790588	fix_post	2		12.0	27.0	2.5	blank	1.0	187.08356618881226	0.10008001327514648
30	87.28585410118103	fix_pre	0		36.0	28.0	2.5	/experiments/knapen_aot/videos/S_production_ID_4787635.mp4	0.0	187.1836462020874	0.29991888999938965
30	87.57759189605713	response	0	2		28.0	2.5	/experiments/knapen_aot/videos/S_production_ID_4787635.mp4	0.0	187.4753839969635	
30	87.58577299118042	movie	1		166.0	28.0	2.5	/experiments/knapen_aot/videos/S_production_ID_4787635.mp4	0.0	187.4835650920868	2.5084500312805176
30	90.09422302246094	fix_post	2		12.0	28.0	2.5	/experiments/knapen_aot/videos/S_production_ID_4787635.mp4	0.0	189.9920151233673	0.0998690128326416
31	90.19409203529358	fix_pre	0		46.0	29.0	2.5	/experiments/knapen_aot/videos/S_yt-YCjbGOPBQHw_131.mp4	0.0	190.09188413619995	0.3833580017089844
31	90.56926393508911	response	0	2		29.0	2.5	/experiments/knapen_aot/videos/S_yt-YCjbGOPBQHw_131.mp4	0.0	190.46705603599548	
31	90.57745003700256	movie	1		301.0	29.0	2.5	/experiments/knapen_aot/videos/S_yt-YCjbGOPBQHw_131.mp4	0.0	190.47524213790894	2.508336067199707
31	93.08578610420227	fix_post	2		12.0	29.0	2.5	/experiments/knapen_aot/videos/S_yt-YCjbGOPBQHw_131.mp4	0.0	192.98357820510864	0.10001182556152344
32	93.1857979297638	fix_pre	0		60.0	30.0	2.5	/experiments/knapen_aot/videos/R_S_yt-M_ApPnq00iE_67.mp4	0.0	193.08359003067017	0.5003809928894043
32	93.67760300636292	response	0	2		30.0	2.5	/experiments/knapen_aot/videos/R_S_yt-M_ApPnq00iE_67.mp4	0.0	193.5753951072693	
32	93.6861789226532	movie	1		301.0	30.0	2.5	/experiments/knapen_aot/videos/R_S_yt-M_ApPnq00iE_67.mp4	0.0	193.58397102355957	2.5080080032348633
32	96.19418692588806	fix_post	2		12.0	30.0	2.5	/experiments/knapen_aot/videos/R_S_yt-M_ApPnq00iE_67.mp4	0.0	196.09197902679443	0.09987306594848633
33	96.29405999183655	fix_pre	0		51.0	31.0	2.5	/experiments/knapen_aot/videos/S_yt-CRw9-cCQqbg_332.mp4	0.0	196.19185209274292	0.4250009059906006
33	96.70333290100098	response	0	2		31.0	2.5	/experiments/knapen_aot/videos/S_yt-CRw9-cCQqbg_332.mp4	0.0	196.60112500190735	
33	96.71906089782715	movie	1		301.0	31.0	2.5	/experiments/knapen_aot/videos/S_yt-CRw9-cCQqbg_332.mp4	0.0	196.61685299873352	2.508441209793091
33	99.22750210762024	fix_post	2		12.0	31.0	2.5	/experiments/knapen_aot/videos/S_yt-CRw9-cCQqbg_332.mp4	0.0	199.1252942085266	0.10004591941833496
34	99.32754802703857	fix_pre	0		30.0	32.0	2.5	/experiments/knapen_aot/videos/R_S_production_ID_4787635.mp4	0.0	199.22534012794495	0.24987292289733887
34	99.56917691230774	response	0	2		32.0	2.5	/experiments/knapen_aot/videos/R_S_production_ID_4787635.mp4	0.0	199.4669690132141	
34	99.57742094993591	movie	1		165.0	32.0	2.5	/experiments/knapen_aot/videos/R_S_production_ID_4787635.mp4	0.0	199.47521305084229	2.508324146270752
34	102.08574509620667	fix_post	2		12.0	32.0	2.5	/experiments/knapen_aot/videos/R_S_production_ID_4787635.mp4	0.0	201.98353719711304	0.10003280639648438
35	102.18577790260315	fix_pre	0		37.0	33.0	2.5	/experiments/knapen_aot/videos/S_yt-j-ifVbxZePQ_70.mp4	0.0	202.08357000350952	0.3082590103149414
35	102.48587799072266	response	0	2		33.0	2.5	/experiments/knapen_aot/videos/S_yt-j-ifVbxZePQ_70.mp4	0.0	202.38367009162903	
35	102.49403691291809	movie	1		301.0	33.0	2.5	/experiments/knapen_aot/videos/S_yt-j-ifVbxZePQ_70.mp4	0.0	202.39182901382446	2.5083861351013184
35	105.00242304801941	fix_post	2		12.0	33.0	2.5	/experiments/knapen_aot/videos/S_yt-j-ifVbxZePQ_70.mp4	0.0	204.90021514892578	0.1001119613647461
36	105.10253500938416	fix_pre	0		41.0	34.0	2.5	/experiments/knapen_aot/videos/R_S_PA_A010_C007_SDR_20190717_SDR_2K_AVC.mp4	0.0	205.00032711029053	0.34150004386901855
36	105.43592309951782	response	0	2		34.0	2.5	/experiments/knapen_aot/videos/R_S_PA_A010_C007_SDR_20190717_SDR_2K_AVC.mp4	0.0	205.3337152004242	
36	105.44403505325317	movie	1		185.0	34.0	2.5	/experiments/knapen_aot/videos/R_S_PA_A010_C007_SDR_20190717_SDR_2K_AVC.mp4	0.0	205.34182715415955	2.5083348751068115
36	107.95236992835999	fix_post	2		12.0	34.0	2.5	/experiments/knapen_aot/videos/R_S_PA_A010_C007_SDR_20190717_SDR_2K_AVC.mp4	0.0	207.85016202926636	0.10010409355163574
37	108.05247402191162	fix_pre	0		38.0	35.0	2.5	blank	1.0	207.950266122818	0.3166790008544922
37	108.36089301109314	response	0	2		35.0	2.5	blank	1.0	208.2586851119995	
37	108.36915302276611	movie	1		301.0	35.0	2.5	blank	1.0	208.26694512367249	2.508228063583374
37	110.87738108634949	fix_post	2		12.0	35.0	2.5	blank	1.0	210.77517318725586	0.10036396980285645
38	110.97774505615234	fix_pre	0		47.0	36.0	2.5	/experiments/knapen_aot/videos/R_S_comp_GL_G002_C002_PSNK_v03_SDR_PS_20180925_SDR_2K_AVC.mp4	0.0	210.87553715705872	0.39125704765319824
38	111.36075901985168	response	0	2		36.0	2.5	/experiments/knapen_aot/videos/R_S_comp_GL_G002_C002_PSNK_v03_SDR_PS_20180925_SDR_2K_AVC.mp4	0.0	211.25855112075806	
38	111.36900210380554	movie	1		174.0	36.0	2.5	/experiments/knapen_aot/videos/R_S_comp_GL_G002_C002_PSNK_v03_SDR_PS_20180925_SDR_2K_AVC.mp4	0.0	211.2667942047119	2.508366823196411
38	113.87736892700195	fix_post	2		12.0	36.0	2.5	/experiments/knapen_aot/videos/R_S_comp_GL_G002_C002_PSNK_v03_SDR_PS_20180925_SDR_2K_AVC.mp4	0.0	213.77516102790833	0.10047698020935059
39	113.9778459072113	fix_pre	0		47.0	37.0	2.5	/experiments/knapen_aot/videos/R_S_wc-lItGMdwvEd_l_7.mp4	0.0	213.87563800811768	0.3911280632019043
39	114.36082792282104	response	0	2		37.0	2.5	/experiments/knapen_aot/videos/R_S_wc-lItGMdwvEd_l_7.mp4	0.0	214.25862002372742	
39	114.36897397041321	movie	1		164.0	37.0	2.5	/experiments/knapen_aot/videos/R_S_wc-lItGMdwvEd_l_7.mp4	0.0	214.26676607131958	2.5086350440979004
39	116.87760901451111	fix_post	2		12.0	37.0	2.5	/experiments/knapen_aot/videos/R_S_wc-lItGMdwvEd_l_7.mp4	0.0	216.77540111541748	0.10011005401611328
40	116.97771906852722	fix_pre	0		41.0	38.0	2.5	/experiments/knapen_aot/videos/R_S_yt-P99dLq0DrK0_277.mp4	0.0	216.8755111694336	0.34116101264953613
40	117.31077289581299	response	0	2		38.0	2.5	/experiments/knapen_aot/videos/R_S_yt-P99dLq0DrK0_277.mp4	0.0	217.20856499671936	
40	117.31888008117676	movie	1		301.0	38.0	2.5	/experiments/knapen_aot/videos/R_S_yt-P99dLq0DrK0_277.mp4	0.0	217.21667218208313	2.5085878372192383
40	119.827467918396	fix_post	2		12.0	38.0	2.5	/experiments/knapen_aot/videos/R_S_yt-P99dLq0DrK0_277.mp4	0.0	219.72526001930237	0.09986710548400879
41	119.92733502388	fix_pre	0		52.0	39.0	2.5	/experiments/knapen_aot/videos/S_ILSVRC2015_test_00001002.mp4	0.0	219.82512712478638	0.4332740306854248
41	120.35244607925415	response	0	2		39.0	2.5	/experiments/knapen_aot/videos/S_ILSVRC2015_test_00001002.mp4	0.0	220.25023818016052	
41	120.36060905456543	movie	1		301.0	39.0	2.5	/experiments/knapen_aot/videos/S_ILSVRC2015_test_00001002.mp4	0.0	220.2584011554718	2.5083789825439453
41	122.86898803710938	fix_post	2		12.0	39.0	2.5	/experiments/knapen_aot/videos/S_ILSVRC2015_test_00001002.mp4	0.0	222.76678013801575	0.10002899169921875
42	122.9690170288086	fix_pre	0		54.0	40.0	2.5	blank	1.0	222.86680912971497	0.4499549865722656
42	123.41082406044006	response	0	2		40.0	2.5	blank	1.0	223.30861616134644	
42	123.41897201538086	movie	1		301.0	40.0	2.5	blank	1.0	223.31676411628723	2.5083370208740234
42	125.92730903625488	fix_post	2		12.0	40.0	2.5	blank	1.0	225.82510113716125	0.10004806518554688
43	126.02735710144043	fix_pre	0		52.0	41.0	2.5	/experiments/knapen_aot/videos/S_comp_HK_H004_C001_PSNK_DENOISE_v14_SDR_PS_FINAL_20180731_SDR_2K_AVC.mp4	0.0	225.9251492023468	0.43323683738708496
43	126.45240092277527	response	0	2		41.0	2.5	/experiments/knapen_aot/videos/S_comp_HK_H004_C001_PSNK_DENOISE_v14_SDR_PS_FINAL_20180731_SDR_2K_AVC.mp4	0.0	226.35019302368164	
43	126.46059393882751	movie	1		165.0	41.0	2.5	/experiments/knapen_aot/videos/S_comp_HK_H004_C001_PSNK_DENOISE_v14_SDR_PS_FINAL_20180731_SDR_2K_AVC.mp4	0.0	226.3583860397339	2.508376121520996
43	128.9689700603485	fix_post	2		12.0	41.0	2.5	/experiments/knapen_aot/videos/S_comp_HK_H004_C001_PSNK_DENOISE_v14_SDR_PS_FINAL_20180731_SDR_2K_AVC.mp4	0.0	228.86676216125488	0.09999489784240723
44	129.06896495819092	fix_pre	0		31.0	42.0	2.5	/experiments/knapen_aot/videos/R_S_yt-2IxVZeiSv3g_28.mp4	0.0	228.9667570590973	0.25832700729370117
44	129.31907105445862	response	0	2		42.0	2.5	/experiments/knapen_aot/videos/R_S_yt-2IxVZeiSv3g_28.mp4	0.0	229.216863155365	
44	129.32729196548462	movie	1		301.0	42.0	2.5	/experiments/knapen_aot/videos/R_S_yt-2IxVZeiSv3g_28.mp4	0.0	229.225084066391	2.508220911026001
44	131.83551287651062	fix_post	2		12.0	42.0	2.5	/experiments/knapen_aot/videos/R_S_yt-2IxVZeiSv3g_28.mp4	0.0	231.733304977417	0.10029911994934082
45	131.93581199645996	fix_pre	0		41.0	43.0	2.5	/experiments/knapen_aot/videos/S_yt-BlWfK4MkjWA_469.mp4	0.0	231.83360409736633	0.3413810729980469
45	132.26905703544617	response	0	2		43.0	2.5	/experiments/knapen_aot/videos/S_yt-BlWfK4MkjWA_469.mp4	0.0	232.16684913635254	
45	132.277193069458	movie	1		301.0	43.0	2.5	/experiments/knapen_aot/videos/S_yt-BlWfK4MkjWA_469.mp4	0.0	232.17498517036438	2.5083630084991455
45	134.78555607795715	fix_post	2		12.0	43.0	2.5	/experiments/knapen_aot/videos/S_yt-BlWfK4MkjWA_469.mp4	0.0	234.68334817886353	0.10000181198120117
46	134.88555788993835	fix_pre	0		43.0	44.0	2.5	/experiments/knapen_aot/videos/S_yt-cBCeq1NQgj0_1129.mp4	0.0	234.78334999084473	0.35830116271972656
46	135.23569798469543	response	0	2		44.0	2.5	/experiments/knapen_aot/videos/S_yt-cBCeq1NQgj0_1129.mp4	0.0	235.1334900856018	
46	135.24385905265808	movie	1		301.0	44.0	2.5	/experiments/knapen_aot/videos/S_yt-cBCeq1NQgj0_1129.mp4	0.0	235.14165115356445	2.5083749294281006
46	137.75223398208618	fix_post	2		12.0	44.0	2.5	/experiments/knapen_aot/videos/S_yt-cBCeq1NQgj0_1129.mp4	0.0	237.65002608299255	0.10033607482910156
47	137.85257005691528	fix_pre	0		40.0	45.0	2.5	/experiments/knapen_aot/videos/R_S_Y011_C008_SDR_2K_AVC.mp4	0.0	237.75036215782166	0.33321595191955566
47	138.17734289169312	response	0	2		45.0	2.5	/experiments/knapen_aot/videos/R_S_Y011_C008_SDR_2K_AVC.mp4	0.0	238.0751349925995	
47	138.18578600883484	movie	1		173.0	45.0	2.5	/experiments/knapen_aot/videos/R_S_Y011_C008_SDR_2K_AVC.mp4	0.0	238.0835781097412	2.5081589221954346
47	140.69394493103027	fix_post	2		12.0	45.0	2.5	/experiments/knapen_aot/videos/R_S_Y011_C008_SDR_2K_AVC.mp4	0.0	240.59173703193665	0.09992313385009766
48	140.79386806488037	fix_pre	0		35.0	46.0	2.5	/experiments/knapen_aot/videos/S_pexels-koolshooters-7689098.mp4	0.0	240.69166016578674	0.29164981842041016
48	141.07735800743103	response	0	2		46.0	2.5	/experiments/knapen_aot/videos/S_pexels-koolshooters-7689098.mp4	0.0	240.9751501083374	
48	141.08551788330078	movie	1		165.0	46.0	2.5	/experiments/knapen_aot/videos/S_pexels-koolshooters-7689098.mp4	0.0	240.98330998420715	2.5083870887756348
48	143.59390497207642	fix_post	2		12.0	46.0	2.5	/experiments/knapen_aot/videos/S_pexels-koolshooters-7689098.mp4	0.0	243.4916970729828	0.09994697570800781
49	143.69385194778442	fix_pre	0		41.0	47.0	2.5	/experiments/knapen_aot/videos/S_yt-qsyDLtXcyHc_8.mp4	0.0	243.5916440486908	0.3416731357574463
49	144.02725791931152	response	0	2		47.0	2.5	/experiments/knapen_aot/videos/S_yt-qsyDLtXcyHc_8.mp4	0.0	243.9250500202179	
49	144.03552508354187	movie	1		301.0	47.0	2.5	/experiments/knapen_aot/videos/S_yt-qsyDLtXcyHc_8.mp4	0.0	243.93331718444824	2.508435010910034
49	146.5439600944519	fix_post	2		12.0	47.0	2.5	/experiments/knapen_aot/videos/S_yt-qsyDLtXcyHc_8.mp4	0.0	246.44175219535828	0.10010981559753418
50	146.64406991004944	fix_pre	0		41.0	48.0	2.5	/experiments/knapen_aot/videos/S_comp_A105_C003_0212CT_FLARE_v10_SDR_PS_FINAL_20180711_SDR_2K_AVC.mp4	0.0	246.5418620109558	0.3415250778198242
50	146.97727704048157	response	0	2		48.0	2.5	/experiments/knapen_aot/videos/S_comp_A105_C003_0212CT_FLARE_v10_SDR_PS_FINAL_20180711_SDR_2K_AVC.mp4	0.0	246.87506914138794	
50	146.98559498786926	movie	1		165.0	48.0	2.5	/experiments/knapen_aot/videos/S_comp_A105_C003_0212CT_FLARE_v10_SDR_PS_FINAL_20180711_SDR_2K_AVC.mp4	0.0	246.88338708877563	2.5083210468292236
50	149.4939160346985	fix_post	2		12.0	48.0	2.5	/experiments/knapen_aot/videos/S_comp_A105_C003_0212CT_FLARE_v10_SDR_PS_FINAL_20180711_SDR_2K_AVC.mp4	0.0	249.39170813560486	0.09985804557800293
51	149.5937740802765	fix_pre	0		44.0	49.0	2.5	blank	1.0	249.49156618118286	0.3666529655456543
51	149.95225191116333	response	0	2		49.0	2.5	blank	1.0	249.8500440120697	
51	149.96042704582214	movie	1		301.0	49.0	2.5	blank	1.0	249.85821914672852	2.5083608627319336
51	152.46878790855408	fix_post	2		12.0	49.0	2.5	blank	1.0	252.36658000946045	0.1000370979309082
52	152.56882500648499	fix_pre	0		66.0	50.0	2.5	/experiments/knapen_aot/videos/R_S_yt-GWOOQZ19-oU_331.mp4	0.0	252.46661710739136	0.5499520301818848
52	153.11051106452942	response	0	2		50.0	2.5	/experiments/knapen_aot/videos/R_S_yt-GWOOQZ19-oU_331.mp4	0.0	253.0083031654358	
52	153.11877703666687	movie	1		301.0	50.0	2.5	/experiments/knapen_aot/videos/R_S_yt-GWOOQZ19-oU_331.mp4	0.0	253.01656913757324	2.508391857147217
52	155.6271688938141	fix_post	2		12.0	50.0	2.5	/experiments/knapen_aot/videos/R_S_yt-GWOOQZ19-oU_331.mp4	0.0	255.52496099472046	0.10057306289672852
53	155.72774195671082	fix_pre	0		40.0	51.0	2.5	/experiments/knapen_aot/videos/S_pexels-rodnae-productions-5993654.mp4	0.0	255.6255340576172	0.33286213874816895
53	156.0522940158844	response	0	2		51.0	2.5	/experiments/knapen_aot/videos/S_pexels-rodnae-productions-5993654.mp4	0.0	255.95008611679077	
53	156.06060409545898	movie	1		162.0	51.0	2.5	/experiments/knapen_aot/videos/S_pexels-rodnae-productions-5993654.mp4	0.0	255.95839619636536	2.508188009262085
53	158.56879210472107	fix_post	2		12.0	51.0	2.5	/experiments/knapen_aot/videos/S_pexels-rodnae-productions-5993654.mp4	0.0	258.46658420562744	0.1000068187713623
54	158.66879892349243	fix_pre	0		49.0	52.0	2.5	/experiments/knapen_aot/videos/R_S_yt-aSEKRE_FNaI_62.mp4	0.0	258.5665910243988	0.4083070755004883
54	159.06889009475708	response	0	2		52.0	2.5	/experiments/knapen_aot/videos/R_S_yt-aSEKRE_FNaI_62.mp4	0.0	258.96668219566345	
54	159.07710599899292	movie	1		301.0	52.0	2.5	/experiments/knapen_aot/videos/R_S_yt-aSEKRE_FNaI_62.mp4	0.0	258.9748980998993	2.508445978164673
54	161.5855519771576	fix_post	2		12.0	52.0	2.5	/experiments/knapen_aot/videos/R_S_yt-aSEKRE_FNaI_62.mp4	0.0	261.48334407806396	0.10007190704345703
55	161.68562388420105	fix_pre	0		53.0	53.0	2.5	/experiments/knapen_aot/videos/S_yt-2ftSsLqRQnA_84.mp4	0.0	261.5834159851074	0.4414541721343994
55	162.11891508102417	response	0	2		53.0	2.5	/experiments/knapen_aot/videos/S_yt-2ftSsLqRQnA_84.mp4	0.0	262.01670718193054	
55	162.12707805633545	movie	1		301.0	53.0	2.5	/experiments/knapen_aot/videos/S_yt-2ftSsLqRQnA_84.mp4	0.0	262.0248701572418	2.5084660053253174
55	164.63554406166077	fix_post	2		12.0	53.0	2.5	/experiments/knapen_aot/videos/S_yt-2ftSsLqRQnA_84.mp4	0.0	264.53333616256714	0.09987401962280273
56	164.73541808128357	fix_pre	0		43.0	54.0	2.5	blank	1.0	264.63321018218994	0.35850095748901367
56	165.0855588912964	response	0	2		54.0	2.5	blank	1.0	264.98335099220276	
56	165.09391903877258	movie	1		301.0	54.0	2.5	blank	1.0	264.99171113967896	2.5082788467407227
56	167.6021978855133	fix_post	2		12.0	54.0	2.5	blank	1.0	267.4999899864197	0.09994220733642578
57	167.70214009284973	fix_pre	0		51.0	55.0	2.5	/experiments/knapen_aot/videos/R_S_yt-BlWfK4MkjWA_469.mp4	0.0	267.5999321937561	0.4248809814453125
57	168.11880588531494	response	0	2		55.0	2.5	/experiments/knapen_aot/videos/R_S_yt-BlWfK4MkjWA_469.mp4	0.0	268.0165979862213	
57	168.12702107429504	movie	1		301.0	55.0	2.5	/experiments/knapen_aot/videos/R_S_yt-BlWfK4MkjWA_469.mp4	0.0	268.0248131752014	2.508396863937378
57	170.63541793823242	fix_post	2		12.0	55.0	2.5	/experiments/knapen_aot/videos/R_S_yt-BlWfK4MkjWA_469.mp4	0.0	270.5332100391388	0.09999513626098633
58	170.7354130744934	fix_pre	0		50.0	56.0	2.5	/experiments/knapen_aot/videos/S_G007_C004_UHD_SDR_2K_AVC.mp4	0.0	270.6332051753998	0.41667795181274414
58	171.13632702827454	response	0	2		56.0	2.5	/experiments/knapen_aot/videos/S_G007_C004_UHD_SDR_2K_AVC.mp4	0.0	271.0341191291809	
58	171.15209102630615	movie	1		168.0	56.0	2.5	/experiments/knapen_aot/videos/S_G007_C004_UHD_SDR_2K_AVC.mp4	0.0	271.0498831272125	2.508291006088257
58	173.6603820323944	fix_post	2		12.0	56.0	2.5	/experiments/knapen_aot/videos/S_G007_C004_UHD_SDR_2K_AVC.mp4	0.0	273.5581741333008	0.10001993179321289
59	173.76040196418762	fix_pre	0		73.0	57.0	2.5	/experiments/knapen_aot/videos/S_yt-FsylDeYfcxU_24.mp4	0.0	273.658194065094	0.608212947845459
59	174.3605260848999	response	0	2		57.0	2.5	/experiments/knapen_aot/videos/S_yt-FsylDeYfcxU_24.mp4	0.0	274.2583181858063	
59	174.36861491203308	movie	1		301.0	57.0	2.5	/experiments/knapen_aot/videos/S_yt-FsylDeYfcxU_24.mp4	0.0	274.26640701293945	2.5084991455078125
59	176.8771140575409	fix_post	2		12.0	57.0	2.5	/experiments/knapen_aot/videos/S_yt-FsylDeYfcxU_24.mp4	0.0	276.77490615844727	0.1000208854675293
60	176.97713494300842	fix_pre	0		47.0	58.0	2.5	/experiments/knapen_aot/videos/S_yt-hQ5pge893b4_6.mp4	0.0	276.8749270439148	0.39180803298950195
60	177.36050510406494	response	0	2		58.0	2.5	/experiments/knapen_aot/videos/S_yt-hQ5pge893b4_6.mp4	0.0	277.2582972049713	
60	177.36894297599792	movie	1		301.0	58.0	2.5	/experiments/knapen_aot/videos/S_yt-hQ5pge893b4_6.mp4	0.0	277.2667350769043	2.5081329345703125
60	179.87707591056824	fix_post	2		12.0	58.0	2.5	/experiments/knapen_aot/videos/S_yt-hQ5pge893b4_6.mp4	0.0	279.7748680114746	0.10000109672546387
61	179.9770770072937	fix_pre	0		61.0	59.0	2.5	/experiments/knapen_aot/videos/R_S_g201_TH_803_A001_8_SDR_20191031_SDR_2K_AVC.mp4	0.0	279.8748691082001	0.5082900524139404
61	180.47723293304443	response	0	2		59.0	2.5	/experiments/knapen_aot/videos/R_S_g201_TH_803_A001_8_SDR_20191031_SDR_2K_AVC.mp4	0.0	280.3750250339508	
61	180.48536705970764	movie	1		172.0	59.0	2.5	/experiments/knapen_aot/videos/R_S_g201_TH_803_A001_8_SDR_20191031_SDR_2K_AVC.mp4	0.0	280.383159160614	2.5083818435668945
61	182.99374890327454	fix_post	2		12.0	59.0	2.5	/experiments/knapen_aot/videos/R_S_g201_TH_803_A001_8_SDR_20191031_SDR_2K_AVC.mp4	0.0	282.8915410041809	0.099945068359375
62	183.0936939716339	fix_pre	0		67.0	60.0	2.5	/experiments/knapen_aot/videos/S_yt-2cwARrUMj40_67.mp4	0.0	282.9914860725403	0.5583479404449463
62	183.64506602287292	response	0	2		60.0	2.5	/experiments/knapen_aot/videos/S_yt-2cwARrUMj40_67.mp4	0.0	283.5428581237793	
62	183.65204191207886	movie	1		301.0	60.0	2.5	/experiments/knapen_aot/videos/S_yt-2cwARrUMj40_67.mp4	0.0	283.54983401298523	2.508362054824829
62	186.1604039669037	fix_post	2		12.0	60.0	2.5	/experiments/knapen_aot/videos/S_yt-2cwARrUMj40_67.mp4	0.0	286.05819606781006	0.09997797012329102
63	186.26038193702698	fix_pre	0		46.0	61.0	2.5	/experiments/knapen_aot/videos/S_yt-1n1jTroiwJs_163.mp4	0.0	286.15817403793335	0.38331007957458496
63	186.63551998138428	response	0	2		61.0	2.5	/experiments/knapen_aot/videos/S_yt-1n1jTroiwJs_163.mp4	0.0	286.53331208229065	
63	186.64369201660156	movie	1		301.0	61.0	2.5	/experiments/knapen_aot/videos/S_yt-1n1jTroiwJs_163.mp4	0.0	286.54148411750793	2.5083889961242676
63	189.15208101272583	fix_post	2		12.0	61.0	2.5	/experiments/knapen_aot/videos/S_yt-1n1jTroiwJs_163.mp4	0.0	289.0498731136322	0.09993791580200195
64	189.25201892852783	fix_pre	0		50.0	62.0	2.5	/experiments/knapen_aot/videos/R_S_PA_A010_C007_SDR_20190717_SDR_2K_AVC.mp4	0.0	289.1498110294342	0.4166140556335449
64	189.66042590141296	response	0	2		62.0	2.5	/experiments/knapen_aot/videos/R_S_PA_A010_C007_SDR_20190717_SDR_2K_AVC.mp4	0.0	289.55821800231934	
64	189.66863298416138	movie	1		164.0	62.0	2.5	/experiments/knapen_aot/videos/R_S_PA_A010_C007_SDR_20190717_SDR_2K_AVC.mp4	0.0	289.56642508506775	2.5084779262542725
64	192.17711091041565	fix_post	2		12.0	62.0	2.5	/experiments/knapen_aot/videos/R_S_PA_A010_C007_SDR_20190717_SDR_2K_AVC.mp4	0.0	292.074903011322	0.09991216659545898
65	192.2770230770111	fix_pre	0		44.0	63.0	2.5	blank	1.0	292.1748151779175	0.3666679859161377
65	192.63543701171875	response	0	2		63.0	2.5	blank	1.0	292.5332291126251	
65	192.64369106292725	movie	1		301.0	63.0	2.5	blank	1.0	292.5414831638336	2.508298873901367
65	195.1519899368286	fix_post	2		12.0	63.0	2.5	blank	1.0	295.049782037735	0.10004115104675293
66	195.25203108787537	fix_pre	0		59.0	64.0	2.5	/experiments/knapen_aot/videos/R_S_yt-8QCcmqaEMPI_16.mp4	0.0	295.14982318878174	0.49154186248779297
66	195.73534202575684	response	0	2		64.0	2.5	/experiments/knapen_aot/videos/R_S_yt-8QCcmqaEMPI_16.mp4	0.0	295.6331341266632	
66	195.74357295036316	movie	1		301.0	64.0	2.5	/experiments/knapen_aot/videos/R_S_yt-8QCcmqaEMPI_16.mp4	0.0	295.64136505126953	2.508466958999634
66	198.2520399093628	fix_post	2		12.0	64.0	2.5	/experiments/knapen_aot/videos/R_S_yt-8QCcmqaEMPI_16.mp4	0.0	298.14983201026917	0.09991312026977539
67	198.35195302963257	fix_pre	0		53.0	65.0	2.5	/experiments/knapen_aot/videos/R_S_wc-lItGMdwvEd_l_7.mp4	0.0	298.24974513053894	0.4415929317474365
67	198.7853889465332	response	0	2		65.0	2.5	/experiments/knapen_aot/videos/R_S_wc-lItGMdwvEd_l_7.mp4	0.0	298.6831810474396	
67	198.79354596138	movie	1		164.0	65.0	2.5	/experiments/knapen_aot/videos/R_S_wc-lItGMdwvEd_l_7.mp4	0.0	298.6913380622864	2.5084331035614014
67	201.3019790649414	fix_post	2		12.0	65.0	2.5	/experiments/knapen_aot/videos/R_S_wc-lItGMdwvEd_l_7.mp4	0.0	301.1997711658478	0.09997391700744629
68	201.40195298194885	fix_pre	0		58.0	66.0	2.5	/experiments/knapen_aot/videos/S_KP_A010_C002_SDR_20190717_SDR_2K_AVC.mp4	0.0	301.2997450828552	0.48459601402282715
68	201.8771209716797	response	0	2		66.0	2.5	/experiments/knapen_aot/videos/S_KP_A010_C002_SDR_20190717_SDR_2K_AVC.mp4	0.0	301.77491307258606	
68	201.88654899597168	movie	1		165.0	66.0	2.5	/experiments/knapen_aot/videos/S_KP_A010_C002_SDR_20190717_SDR_2K_AVC.mp4	0.0	301.78434109687805	2.5070741176605225
68	204.3936231136322	fix_post	2		12.0	66.0	2.5	/experiments/knapen_aot/videos/S_KP_A010_C002_SDR_20190717_SDR_2K_AVC.mp4	0.0	304.2914152145386	0.10025382041931152
69	204.4938769340515	fix_pre	0		44.0	67.0	2.5	/experiments/knapen_aot/videos/S_yt-l6WPyKg_3is_154.mp4	0.0	304.3916690349579	0.3663811683654785
69	204.85207200050354	response	0	2		67.0	2.5	/experiments/knapen_aot/videos/S_yt-l6WPyKg_3is_154.mp4	0.0	304.7498641014099	
69	204.860258102417	movie	1		301.0	67.0	2.5	/experiments/knapen_aot/videos/S_yt-l6WPyKg_3is_154.mp4	0.0	304.75805020332336	2.508420944213867
69	207.36867904663086	fix_post	2		12.0	67.0	2.5	/experiments/knapen_aot/videos/S_yt-l6WPyKg_3is_154.mp4	0.0	307.26647114753723	0.09983086585998535
70	207.46850991249084	fix_pre	0		48.0	68.0	2.5	/experiments/knapen_aot/videos/S_yt-EKPrSw5xF7k_112.mp4	0.0	307.3663020133972	0.4001331329345703
70	207.86032390594482	response	0	2		68.0	2.5	/experiments/knapen_aot/videos/S_yt-EKPrSw5xF7k_112.mp4	0.0	307.7581160068512	
70	207.86864304542542	movie	1		301.0	68.0	2.5	/experiments/knapen_aot/videos/S_yt-EKPrSw5xF7k_112.mp4	0.0	307.7664351463318	2.508270025253296
70	210.3769130706787	fix_post	2		12.0	68.0	2.5	/experiments/knapen_aot/videos/S_yt-EKPrSw5xF7k_112.mp4	0.0	310.2747051715851	0.09999799728393555
71	210.47691106796265	fix_pre	0		89.0	69.0	2.5	blank	1.0	310.374703168869	0.7428748607635498
71	211.21038103103638	response	0	2		69.0	2.5	blank	1.0	311.10817313194275	
71	211.2197859287262	movie	1		301.0	69.0	2.5	blank	1.0	311.11757802963257	2.5071170330047607
71	213.72690296173096	fix_post	2		12.0	69.0	2.5	blank	1.0	313.62469506263733	0.09991002082824707
72	213.8268129825592	fix_pre	0		50.0	70.0	2.5	/experiments/knapen_aot/videos/S_ILSVRC2015_train_00373000.mp4	0.0	313.7246050834656	0.41673994064331055
72	214.23529195785522	response	0	2		70.0	2.5	/experiments/knapen_aot/videos/S_ILSVRC2015_train_00373000.mp4	0.0	314.1330840587616	
72	214.24355292320251	movie	1		301.0	70.0	2.5	/experiments/knapen_aot/videos/S_ILSVRC2015_train_00373000.mp4	0.0	314.1413450241089	2.508363962173462
72	216.75191688537598	fix_post	2		12.0	70.0	2.5	/experiments/knapen_aot/videos/S_ILSVRC2015_train_00373000.mp4	0.0	316.64970898628235	0.09996414184570312
73	216.85188102722168	fix_pre	0		43.0	71.0	2.5	/experiments/knapen_aot/videos/R_S_yt-2dRSJcaJIXw_32.mp4	0.0	316.74967312812805	0.35829997062683105
73	217.20195388793945	response	0	2		71.0	2.5	/experiments/knapen_aot/videos/R_S_yt-2dRSJcaJIXw_32.mp4	0.0	317.0997459888458	
73	217.2101809978485	movie	1		301.0	71.0	2.5	/experiments/knapen_aot/videos/R_S_yt-2dRSJcaJIXw_32.mp4	0.0	317.1079730987549	2.5083630084991455
73	219.71854400634766	fix_post	2		12.0	71.0	2.5	/experiments/knapen_aot/videos/R_S_yt-2dRSJcaJIXw_32.mp4	0.0	319.616336107254	0.10002994537353516
74	219.8185739517212	fix_pre	0		53.0	72.0	2.5	/experiments/knapen_aot/videos/S_yt-H5LQq4MPIao_660.mp4	0.0	319.71636605262756	0.44275712966918945
74	220.2519829273224	response	0	2		72.0	2.5	/experiments/knapen_aot/videos/S_yt-H5LQq4MPIao_660.mp4	0.0	320.14977502822876	
74	220.26133108139038	movie	1		301.0	72.0	2.5	/experiments/knapen_aot/videos/S_yt-H5LQq4MPIao_660.mp4	0.0	320.15912318229675	2.5071499347686768
74	222.76848101615906	fix_post	2		12.0	72.0	2.5	/experiments/knapen_aot/videos/S_yt-H5LQq4MPIao_660.mp4	0.0	322.66627311706543	0.1000370979309082
75	222.86851811408997	fix_pre	0		47.0	73.0	2.5	/experiments/knapen_aot/videos/S_yt_R-JaY8f33fOCw_25.mp4	0.0	322.76631021499634	0.3928377628326416
75	223.25195908546448	response	0	2		73.0	2.5	/experiments/knapen_aot/videos/S_yt_R-JaY8f33fOCw_25.mp4	0.0	323.14975118637085	
75	223.2613558769226	movie	1		301.0	73.0	2.5	/experiments/knapen_aot/videos/S_yt_R-JaY8f33fOCw_25.mp4	0.0	323.159147977829	2.5071451663970947
75	225.7685010433197	fix_post	2		12.0	73.0	2.5	/experiments/knapen_aot/videos/S_yt_R-JaY8f33fOCw_25.mp4	0.0	325.6662931442261	0.10000395774841309
76	225.86850500106812	fix_pre	0		51.0	74.0	2.5	/experiments/knapen_aot/videos/S_yt-KLInd-KrK_w_19.mp4	0.0	325.7662971019745	0.424968957901001
76	226.28519201278687	response	0	2		74.0	2.5	/experiments/knapen_aot/videos/S_yt-KLInd-KrK_w_19.mp4	0.0	326.18298411369324	
76	226.29347395896912	movie	1		301.0	74.0	2.5	/experiments/knapen_aot/videos/S_yt-KLInd-KrK_w_19.mp4	0.0	326.1912660598755	2.5083680152893066
76	228.80184197425842	fix_post	2		12.0	74.0	2.5	/experiments/knapen_aot/videos/S_yt-KLInd-KrK_w_19.mp4	0.0	328.6996340751648	0.0999751091003418
77	228.90181708335876	fix_pre	0		49.0	75.0	2.5	blank	1.0	328.79960918426514	0.40825700759887695
77	229.3018729686737	response	0	2		75.0	2.5	blank	1.0	329.1996650695801	
77	229.31007409095764	movie	1		301.0	75.0	2.5	blank	1.0	329.207866191864	2.508319854736328
77	231.81839394569397	fix_post	2		12.0	75.0	2.5	blank	1.0	331.71618604660034	0.10009407997131348
78	231.91848802566528	fix_pre	0		46.0	76.0	2.5	/experiments/knapen_aot/videos/S_production_ID_4802712.mp4	0.0	331.81628012657166	0.38445401191711426
78	232.2935230731964	response	0	2		76.0	2.5	/experiments/knapen_aot/videos/S_production_ID_4802712.mp4	0.0	332.1913151741028	
78	232.3029420375824	movie	1		164.0	76.0	2.5	/experiments/knapen_aot/videos/S_production_ID_4802712.mp4	0.0	332.20073413848877	2.5073089599609375
78	234.81025099754333	fix_post	2		12.0	76.0	2.5	/experiments/knapen_aot/videos/S_production_ID_4802712.mp4	0.0	334.7080430984497	0.0998680591583252
79	234.91011905670166	fix_pre	0		23.0	77.0	2.5	/experiments/knapen_aot/videos/R_S_yt-5MyvZYFlc9g_125.mp4	0.0	334.80791115760803	0.1916179656982422
79	235.0935320854187	response	0	2		77.0	2.5	/experiments/knapen_aot/videos/R_S_yt-5MyvZYFlc9g_125.mp4	0.0	334.9913241863251	
79	235.1017370223999	movie	1		301.0	77.0	2.5	/experiments/knapen_aot/videos/R_S_yt-5MyvZYFlc9g_125.mp4	0.0	334.9995291233063	2.5083119869232178
79	237.61004900932312	fix_post	2		12.0	77.0	2.5	/experiments/knapen_aot/videos/R_S_yt-5MyvZYFlc9g_125.mp4	0.0	337.5078411102295	0.10006499290466309
80	237.71011400222778	fix_pre	0		26.0	78.0	2.5	/experiments/knapen_aot/videos/R_S_yt-tfHCqgH1guY_235.mp4	0.0	337.60790610313416	0.21771693229675293
80	237.91855096817017	response	0	2		78.0	2.5	/experiments/knapen_aot/videos/R_S_yt-tfHCqgH1guY_235.mp4	0.0	337.81634306907654	
80	237.92783093452454	movie	1		301.0	78.0	2.5	/experiments/knapen_aot/videos/R_S_yt-tfHCqgH1guY_235.mp4	0.0	337.8256230354309	2.507265090942383
80	240.43509602546692	fix_post	2		12.0	78.0	2.5	/experiments/knapen_aot/videos/R_S_yt-tfHCqgH1guY_235.mp4	0.0	340.3328881263733	0.10040402412414551
81	240.53550004959106	fix_pre	0		27.0	79.0	2.5	/experiments/knapen_aot/videos/S_production_ID_4101309.mp4	0.0	340.43329215049744	0.22570586204528809
81	240.75186705589294	response	0	2		79.0	2.5	/experiments/knapen_aot/videos/S_production_ID_4101309.mp4	0.0	340.6496591567993	
81	240.76120591163635	movie	1		203.0	79.0	2.5	/experiments/knapen_aot/videos/S_production_ID_4101309.mp4	0.0	340.6589980125427	2.5073320865631104
81	243.26853799819946	fix_post	2		12.0	79.0	2.5	/experiments/knapen_aot/videos/S_production_ID_4101309.mp4	0.0	343.16633009910583	0.099884033203125
82	243.3684220314026	fix_pre	0		38.0	80.0	2.5	/experiments/knapen_aot/videos/S_yt-N4tt7ZhANDg_21.mp4	0.0	343.26621413230896	0.31659388542175293
82	243.67687797546387	response	0	2		80.0	2.5	/experiments/knapen_aot/videos/S_yt-N4tt7ZhANDg_21.mp4	0.0	343.57467007637024	
82	243.68501591682434	movie	1		301.0	80.0	2.5	/experiments/knapen_aot/videos/S_yt-N4tt7ZhANDg_21.mp4	0.0	343.5828080177307	2.5083861351013184
82	246.19340205192566	fix_post	2		12.0	80.0	2.5	/experiments/knapen_aot/videos/S_yt-N4tt7ZhANDg_21.mp4	0.0	346.09119415283203	0.10012102127075195
83	246.2935230731964	fix_pre	0		26.0	81.0	2.5	/experiments/knapen_aot/videos/R_S_yt-bH4nJibL4Jo_164.mp4	0.0	346.1913151741028	0.21762681007385254
83	246.50187587738037	response	0	2		81.0	2.5	/experiments/knapen_aot/videos/R_S_yt-bH4nJibL4Jo_164.mp4	0.0	346.39966797828674	
83	246.51114988327026	movie	1		301.0	81.0	2.5	/experiments/knapen_aot/videos/R_S_yt-bH4nJibL4Jo_164.mp4	0.0	346.40894198417664	2.5072669982910156
83	249.01841688156128	fix_post	2		12.0	81.0	2.5	/experiments/knapen_aot/videos/R_S_yt-bH4nJibL4Jo_164.mp4	0.0	348.91620898246765	0.09992408752441406
84	249.1183409690857	fix_pre	0		43.0	82.0	2.5	/experiments/knapen_aot/videos/S_yt-n2PnABmSpxI_115.mp4	0.0	349.01613306999207	0.35833096504211426
84	249.46848106384277	response	0	2		82.0	2.5	/experiments/knapen_aot/videos/S_yt-n2PnABmSpxI_115.mp4	0.0	349.36627316474915	
84	249.4766719341278	movie	1		301.0	82.0	2.5	/experiments/knapen_aot/videos/S_yt-n2PnABmSpxI_115.mp4	0.0	349.3744640350342	2.5085761547088623
84	251.98524808883667	fix_post	2		12.0	82.0	2.5	/experiments/knapen_aot/videos/S_yt-n2PnABmSpxI_115.mp4	0.0	351.88304018974304	0.09973502159118652
85	252.08498311042786	fix_pre	0		33.0	83.0	2.5	blank	1.0	351.98277521133423	0.27495694160461426
85	252.35187196731567	response	0	2		83.0	2.5	blank	1.0	352.24966406822205	
85	252.35994005203247	movie	1		301.0	83.0	2.5	blank	1.0	352.25773215293884	2.5084588527679443
85	254.86839890480042	fix_post	2		12.0	83.0	2.5	blank	1.0	354.7661910057068	0.09995317459106445
87	254.96835207939148	stim	0		145.0					354.86614418029785	1.2093260288238525
87	256.16877698898315	response	0	space						356.0665690898895	
