trial_nr	onset	event_type	phase	response	nr_frames	movie_index	movie_duration	movie_file	blank	onset_abs	duration
0	0.13294696807861328	stim	0		65.0					57.13809680938721	0.5417098999023438
0	0.6590888500213623	response	0	space						57.664238691329956	
1	0.674656867980957	stim	0		121.0					57.67980670928955	1.0078439712524414
1	1.5243158340454102	response	0	space						58.529465675354004	
1	1.6825008392333984	stim	1		120.0					58.68765068054199	1.000040054321289
1	2.4909768104553223	response	1	space						59.496126651763916	
2	2.6825408935546875	fix_pre	0		19.0	0.0	2.5	/experiments/knapen_aot/videos/R_S_yt-J8E_BpSJMpk_5.mp4	0.0	59.68769073486328	0.15834307670593262
2	2.8326408863067627	response	0	space		0.0	2.5	/experiments/knapen_aot/videos/R_S_yt-J8E_BpSJMpk_5.mp4	0.0	59.837790727615356	
2	2.84088397026062	movie	1		301.0	0.0	2.5	/experiments/knapen_aot/videos/R_S_yt-J8E_BpSJMpk_5.mp4	0.0	59.846033811569214	2.5082848072052
2	5.34916877746582	fix_post	2		12.0	0.0	2.5	/experiments/knapen_aot/videos/R_S_yt-J8E_BpSJMpk_5.mp4	0.0	62.354318618774414	0.09997820854187012
3	5.44914698600769	fix_pre	0		85.0	1.0	2.5	/experiments/knapen_aot/videos/R_S_yt-8LO59eN9om4_16.mp4	0.0	62.454296827316284	0.7101168632507324
3	6.152662992477417	response	0	2		1.0	2.5	/experiments/knapen_aot/videos/R_S_yt-8LO59eN9om4_16.mp4	0.0	63.15781283378601	
3	6.159263849258423	movie	1		297.0	1.0	2.5	/experiments/knapen_aot/videos/R_S_yt-8LO59eN9om4_16.mp4	0.0	63.16441369056702	2.5065579414367676
3	8.66582179069519	fix_post	2		12.0	1.0	2.5	/experiments/knapen_aot/videos/R_S_yt-8LO59eN9om4_16.mp4	0.0	65.67097163200378	0.0999751091003418
4	8.765796899795532	fix_pre	0		121.0	2.0	2.5	/experiments/knapen_aot/videos/R_S_yt-roThCERxVCs_133.mp4	0.0	65.77094674110413	1.0082979202270508
4	9.765983819961548	response	0	2		2.0	2.5	/experiments/knapen_aot/videos/R_S_yt-roThCERxVCs_133.mp4	0.0	66.77113366127014	
4	9.774094820022583	movie	1		301.0	2.0	2.5	/experiments/knapen_aot/videos/R_S_yt-roThCERxVCs_133.mp4	0.0	66.77924466133118	2.5083229541778564
4	12.28241777420044	fix_post	2		12.0	2.0	2.5	/experiments/knapen_aot/videos/R_S_yt-roThCERxVCs_133.mp4	0.0	69.28756761550903	0.10006403923034668
5	12.382481813430786	fix_pre	0		63.0	3.0	2.5	/experiments/knapen_aot/videos/R_S_yt-fq7m668hqZo_39.mp4	0.0	69.38763165473938	0.5249090194702148
5	12.899257898330688	response	0	2		3.0	2.5	/experiments/knapen_aot/videos/R_S_yt-fq7m668hqZo_39.mp4	0.0	69.90440773963928	
5	12.907390832901001	movie	1		301.0	3.0	2.5	/experiments/knapen_aot/videos/R_S_yt-fq7m668hqZo_39.mp4	0.0	69.9125406742096	2.508378028869629
5	15.41576886177063	fix_post	2		12.0	3.0	2.5	/experiments/knapen_aot/videos/R_S_yt-fq7m668hqZo_39.mp4	0.0	72.42091870307922	0.10001397132873535
6	15.515782833099365	fix_pre	0		50.0	4.0	2.5	/experiments/knapen_aot/videos/S_ILSVRC2015_train_00219003.mp4	0.0	72.52093267440796	0.4166259765625
6	15.924316883087158	response	0	2		4.0	2.5	/experiments/knapen_aot/videos/S_ILSVRC2015_train_00219003.mp4	0.0	72.92946672439575	
6	15.932408809661865	movie	1		301.0	4.0	2.5	/experiments/knapen_aot/videos/S_ILSVRC2015_train_00219003.mp4	0.0	72.93755865097046	2.508390188217163
6	18.44079899787903	fix_post	2		12.0	4.0	2.5	/experiments/knapen_aot/videos/S_ILSVRC2015_train_00219003.mp4	0.0	75.44594883918762	0.10033583641052246
7	18.54113483428955	fix_pre	0		55.0	5.0	2.5	/experiments/knapen_aot/videos/S_production_ID_4428752.mp4	0.0	75.54628467559814	0.45829296112060547
7	18.990962982177734	response	0	2		5.0	2.5	/experiments/knapen_aot/videos/S_production_ID_4428752.mp4	0.0	75.99611282348633	
7	18.999427795410156	movie	1		162.0	5.0	2.5	/experiments/knapen_aot/videos/S_production_ID_4428752.mp4	0.0	76.00457763671875	2.5080020427703857
7	21.507429838180542	fix_post	2		12.0	5.0	2.5	/experiments/knapen_aot/videos/S_production_ID_4428752.mp4	0.0	78.51257967948914	0.10004401206970215
8	21.607473850250244	fix_pre	0		58.0	6.0	2.5	blank	1.0	78.61262369155884	0.4832799434661865
8	22.075024843215942	response	0	2		6.0	2.5	blank	1.0	79.08017468452454	
8	22.09075379371643	movie	1		301.0	6.0	2.5	blank	1.0	79.09590363502502	2.5083980560302734
8	24.599151849746704	fix_post	2		12.0	6.0	2.5	blank	1.0	81.6043016910553	0.09997415542602539
9	24.69912600517273	fix_pre	0		64.0	7.0	2.5	/experiments/knapen_aot/videos/S_yt-hekMMCluhnU_18.mp4	0.0	81.70427584648132	0.533315896987915
9	25.224222898483276	response	0	2		7.0	2.5	/experiments/knapen_aot/videos/S_yt-hekMMCluhnU_18.mp4	0.0	82.22937273979187	
9	25.232441902160645	movie	1		301.0	7.0	2.5	/experiments/knapen_aot/videos/S_yt-hekMMCluhnU_18.mp4	0.0	82.23759174346924	2.5083348751068115
9	27.740776777267456	fix_post	2		12.0	7.0	2.5	/experiments/knapen_aot/videos/S_yt-hekMMCluhnU_18.mp4	0.0	84.74592661857605	0.09995818138122559
10	27.84073495864868	fix_pre	0		65.0	8.0	2.5	/experiments/knapen_aot/videos/S_flickr-53807584@N00-5566422012_16.mp4	0.0	84.84588479995728	0.5416498184204102
10	28.374265909194946	response	0	2		8.0	2.5	/experiments/knapen_aot/videos/S_flickr-53807584@N00-5566422012_16.mp4	0.0	85.37941575050354	
10	28.382384777069092	movie	1		301.0	8.0	2.5	/experiments/knapen_aot/videos/S_flickr-53807584@N00-5566422012_16.mp4	0.0	85.38753461837769	2.5083980560302734
10	30.890782833099365	fix_post	2		12.0	8.0	2.5	/experiments/knapen_aot/videos/S_flickr-53807584@N00-5566422012_16.mp4	0.0	87.89593267440796	0.09993410110473633
11	30.9907169342041	fix_pre	0		72.0	9.0	2.5	/experiments/knapen_aot/videos/R_S_comp_A008_C007_011550_CC_v01_SDR_PS_FINAL_20180709_SDR_2K_AVC.mp4	0.0	87.9958667755127	0.6000509262084961
11	31.582571983337402	response	0	2		9.0	2.5	/experiments/knapen_aot/videos/R_S_comp_A008_C007_011550_CC_v01_SDR_PS_FINAL_20180709_SDR_2K_AVC.mp4	0.0	88.587721824646	
11	31.590767860412598	movie	1		161.0	9.0	2.5	/experiments/knapen_aot/videos/R_S_comp_A008_C007_011550_CC_v01_SDR_PS_FINAL_20180709_SDR_2K_AVC.mp4	0.0	88.59591770172119	2.5081849098205566
11	34.098952770233154	fix_post	2		12.0	9.0	2.5	/experiments/knapen_aot/videos/R_S_comp_A008_C007_011550_CC_v01_SDR_PS_FINAL_20180709_SDR_2K_AVC.mp4	0.0	91.10410261154175	0.10008907318115234
12	34.19904184341431	fix_pre	0		77.0	10.0	2.5	/experiments/knapen_aot/videos/S_yt-fq7m668hqZo_39.mp4	0.0	91.2041916847229	0.6416280269622803
12	34.83249592781067	response	0	2		10.0	2.5	/experiments/knapen_aot/videos/S_yt-fq7m668hqZo_39.mp4	0.0	91.83764576911926	
12	34.84066987037659	movie	1		301.0	10.0	2.5	/experiments/knapen_aot/videos/S_yt-fq7m668hqZo_39.mp4	0.0	91.84581971168518	2.508347988128662
12	37.34901785850525	fix_post	2		12.0	10.0	2.5	/experiments/knapen_aot/videos/S_yt-fq7m668hqZo_39.mp4	0.0	94.35416769981384	0.09998297691345215
13	37.4490008354187	fix_pre	0		51.0	11.0	2.5	/experiments/knapen_aot/videos/R_S_yt-lADkWM79teI_18.mp4	0.0	94.4541506767273	0.42519497871398926
13	37.86585283279419	response	0	2		11.0	2.5	/experiments/knapen_aot/videos/R_S_yt-lADkWM79teI_18.mp4	0.0	94.87100267410278	
13	37.87419581413269	movie	1		301.0	11.0	2.5	/experiments/knapen_aot/videos/R_S_yt-lADkWM79teI_18.mp4	0.0	94.87934565544128	2.5082101821899414
13	40.38240599632263	fix_post	2		12.0	11.0	2.5	/experiments/knapen_aot/videos/R_S_yt-lADkWM79teI_18.mp4	0.0	97.38755583763123	0.09994888305664062
14	40.48235487937927	fix_pre	0		83.0	12.0	2.5	/experiments/knapen_aot/videos/R_S_yt-ThT8utBaywI_68.mp4	0.0	97.48750472068787	0.691648006439209
14	41.165854930877686	response	0	2		12.0	2.5	/experiments/knapen_aot/videos/R_S_yt-ThT8utBaywI_68.mp4	0.0	98.17100477218628	
14	41.17400288581848	movie	1		300.0	12.0	2.5	/experiments/knapen_aot/videos/R_S_yt-ThT8utBaywI_68.mp4	0.0	98.17915272712708	2.508476972579956
14	43.68247985839844	fix_post	2		12.0	12.0	2.5	/experiments/knapen_aot/videos/R_S_yt-ThT8utBaywI_68.mp4	0.0	100.68762969970703	0.09989595413208008
15	43.78237581253052	fix_pre	0		53.0	13.0	2.5	blank	1.0	100.78752565383911	0.44164514541625977
15	44.21583080291748	response	0	2		13.0	2.5	blank	1.0	101.22098064422607	
15	44.22402095794678	movie	1		301.0	13.0	2.5	blank	1.0	101.22917079925537	2.5083189010620117
15	46.73233985900879	fix_post	2		12.0	13.0	2.5	blank	1.0	103.73748970031738	0.10014510154724121
16	46.83248496055603	fix_pre	0		62.0	14.0	2.5	/experiments/knapen_aot/videos/S_pexels-cottonbro-5310858.mp4	0.0	103.83763480186462	0.5164170265197754
16	47.340784788131714	response	0	2		14.0	2.5	/experiments/knapen_aot/videos/S_pexels-cottonbro-5310858.mp4	0.0	104.34593462944031	
16	47.348901987075806	movie	1		165.0	14.0	2.5	/experiments/knapen_aot/videos/S_pexels-cottonbro-5310858.mp4	0.0	104.3540518283844	2.508427858352661
16	49.85732984542847	fix_post	2		12.0	14.0	2.5	/experiments/knapen_aot/videos/S_pexels-cottonbro-5310858.mp4	0.0	106.86247968673706	0.10015201568603516
17	49.9574818611145	fix_pre	0		52.0	15.0	2.5	/experiments/knapen_aot/videos/S_yt-XF0fyyFEgWo_280.mp4	0.0	106.9626317024231	0.433164119720459
17	50.38249182701111	response	0	2		15.0	2.5	/experiments/knapen_aot/videos/S_yt-XF0fyyFEgWo_280.mp4	0.0	107.3876416683197	
17	50.39064598083496	movie	1		301.0	15.0	2.5	/experiments/knapen_aot/videos/S_yt-XF0fyyFEgWo_280.mp4	0.0	107.39579582214355	2.508419990539551
17	52.89906597137451	fix_post	2		12.0	15.0	2.5	/experiments/knapen_aot/videos/S_yt-XF0fyyFEgWo_280.mp4	0.0	109.9042158126831	0.10002779960632324
18	52.999093770980835	fix_pre	0		76.0	16.0	2.5	/experiments/knapen_aot/videos/R_S_wc-PqINyFk_ku4u_18.mp4	0.0	110.00424361228943	0.6331820487976074
18	53.624135971069336	response	0	2		16.0	2.5	/experiments/knapen_aot/videos/R_S_wc-PqINyFk_ku4u_18.mp4	0.0	110.62928581237793	
18	53.63227581977844	movie	1		161.0	16.0	2.5	/experiments/knapen_aot/videos/R_S_wc-PqINyFk_ku4u_18.mp4	0.0	110.63742566108704	2.5083751678466797
18	56.14065098762512	fix_post	2		12.0	16.0	2.5	/experiments/knapen_aot/videos/R_S_wc-PqINyFk_ku4u_18.mp4	0.0	113.14580082893372	0.1000208854675293
19	56.24067187309265	fix_pre	0		56.0	17.0	2.5	/experiments/knapen_aot/videos/R_S_yt-a9bnYU0Gnxg_59.mp4	0.0	113.24582171440125	0.4667809009552002
19	56.69907999038696	response	0	2		17.0	2.5	/experiments/knapen_aot/videos/R_S_yt-a9bnYU0Gnxg_59.mp4	0.0	113.70422983169556	
19	56.70745277404785	movie	1		301.0	17.0	2.5	/experiments/knapen_aot/videos/R_S_yt-a9bnYU0Gnxg_59.mp4	0.0	113.71260261535645	2.508165121078491
19	59.21561789512634	fix_post	2		12.0	17.0	2.5	/experiments/knapen_aot/videos/R_S_yt-a9bnYU0Gnxg_59.mp4	0.0	116.22076773643494	0.10018610954284668
20	59.31580400466919	fix_pre	0		59.0	18.0	2.5	/experiments/knapen_aot/videos/S_yt-LsCCAQ8BRO8_7.mp4	0.0	116.32095384597778	0.49144577980041504
20	59.79901385307312	response	0	2		18.0	2.5	/experiments/knapen_aot/videos/S_yt-LsCCAQ8BRO8_7.mp4	0.0	116.80416369438171	
20	59.807249784469604	movie	1		301.0	18.0	2.5	/experiments/knapen_aot/videos/S_yt-LsCCAQ8BRO8_7.mp4	0.0	116.8123996257782	2.5083301067352295
20	62.315579891204834	fix_post	2		12.0	18.0	2.5	/experiments/knapen_aot/videos/S_yt-LsCCAQ8BRO8_7.mp4	0.0	119.32072973251343	0.10008597373962402
21	62.41566586494446	fix_pre	0		84.0	19.0	2.5	blank	1.0	119.42081570625305	0.6998410224914551
21	63.10759496688843	response	0	2		19.0	2.5	blank	1.0	120.11274480819702	
21	63.11550688743591	movie	1		301.0	19.0	2.5	blank	1.0	120.1206567287445	2.508466958999634
21	65.62397384643555	fix_post	2		12.0	19.0	2.5	blank	1.0	122.62912368774414	0.09990501403808594
22	65.72387886047363	fix_pre	0		79.0	20.0	2.5	/experiments/knapen_aot/videos/S_yt-F1X_vq0Zioc_154.mp4	0.0	122.72902870178223	0.6583349704742432
22	66.37399792671204	response	0	2		20.0	2.5	/experiments/knapen_aot/videos/S_yt-F1X_vq0Zioc_154.mp4	0.0	123.37914776802063	
22	66.38221383094788	movie	1		301.0	20.0	2.5	/experiments/knapen_aot/videos/S_yt-F1X_vq0Zioc_154.mp4	0.0	123.38736367225647	2.508363962173462
22	68.89057779312134	fix_post	2		12.0	20.0	2.5	/experiments/knapen_aot/videos/S_yt-F1X_vq0Zioc_154.mp4	0.0	125.89572763442993	0.10002803802490234
23	68.99060583114624	fix_pre	0		67.0	21.0	2.5	/experiments/knapen_aot/videos/R_S_yt-hekMMCluhnU_18.mp4	0.0	125.99575567245483	0.558243989944458
23	69.53324699401855	response	0	2		21.0	2.5	/experiments/knapen_aot/videos/R_S_yt-hekMMCluhnU_18.mp4	0.0	126.53839683532715	
23	69.5488498210907	movie	1		300.0	21.0	2.5	/experiments/knapen_aot/videos/R_S_yt-hekMMCluhnU_18.mp4	0.0	126.55399966239929	2.5084171295166016
23	72.0572669506073	fix_post	2		12.0	21.0	2.5	/experiments/knapen_aot/videos/R_S_yt-hekMMCluhnU_18.mp4	0.0	129.0624167919159	0.09999489784240723
24	72.1572618484497	fix_pre	0		43.0	22.0	2.5	/experiments/knapen_aot/videos/R_S_I004_C014_SDR_2K_AVC.mp4	0.0	129.1624116897583	0.36659693717956543
24	72.50734782218933	response	0	2		22.0	2.5	/experiments/knapen_aot/videos/R_S_I004_C014_SDR_2K_AVC.mp4	0.0	129.51249766349792	
24	72.52385878562927	movie	1		169.0	22.0	2.5	/experiments/knapen_aot/videos/R_S_I004_C014_SDR_2K_AVC.mp4	0.0	129.52900862693787	2.4999890327453613
24	75.02384781837463	fix_post	2		12.0	22.0	2.5	/experiments/knapen_aot/videos/R_S_I004_C014_SDR_2K_AVC.mp4	0.0	132.02899765968323	0.10000109672546387
25	75.1238489151001	fix_pre	0		49.0	23.0	2.5	/experiments/knapen_aot/videos/R_S_yt-cjndulbUtRc_51.mp4	0.0	132.1289987564087	0.40838098526000977
25	75.51648592948914	response	0	2		23.0	2.5	/experiments/knapen_aot/videos/R_S_yt-cjndulbUtRc_51.mp4	0.0	132.52163577079773	
25	75.53222990036011	movie	1		301.0	23.0	2.5	/experiments/knapen_aot/videos/R_S_yt-cjndulbUtRc_51.mp4	0.0	132.5373797416687	2.5083470344543457
25	78.04057693481445	fix_post	2		12.0	23.0	2.5	/experiments/knapen_aot/videos/R_S_yt-cjndulbUtRc_51.mp4	0.0	135.04572677612305	0.10001206398010254
26	78.14058899879456	fix_pre	0		84.0	24.0	2.5	/experiments/knapen_aot/videos/R_S_yt-qE70lj3-A78_228.mp4	0.0	135.14573884010315	0.6998658180236816
26	78.82471990585327	response	0	2		24.0	2.5	/experiments/knapen_aot/videos/R_S_yt-qE70lj3-A78_228.mp4	0.0	135.82986974716187	
26	78.84045481681824	movie	1		301.0	24.0	2.5	/experiments/knapen_aot/videos/R_S_yt-qE70lj3-A78_228.mp4	0.0	135.84560465812683	2.5083770751953125
26	81.34883189201355	fix_post	2		12.0	24.0	2.5	/experiments/knapen_aot/videos/R_S_yt-qE70lj3-A78_228.mp4	0.0	138.35398173332214	0.10002398490905762
27	81.44885587692261	fix_pre	0		62.0	25.0	2.5	/experiments/knapen_aot/videos/S_yt-kuzdrmHa-W0_39.mp4	0.0	138.4540057182312	0.5166471004486084
27	81.9573028087616	response	0	2		25.0	2.5	/experiments/knapen_aot/videos/S_yt-kuzdrmHa-W0_39.mp4	0.0	138.9624526500702	
27	81.96550297737122	movie	1		301.0	25.0	2.5	/experiments/knapen_aot/videos/S_yt-kuzdrmHa-W0_39.mp4	0.0	138.9706528186798	2.5083248615264893
27	84.4738278388977	fix_post	2		12.0	25.0	2.5	/experiments/knapen_aot/videos/S_yt-kuzdrmHa-W0_39.mp4	0.0	141.4789776802063	0.0999751091003418
28	84.57380294799805	fix_pre	0		54.0	26.0	2.5	/experiments/knapen_aot/videos/R_S_yt-YeT4acsbqok_210.mp4	0.0	141.57895278930664	0.4499979019165039
28	85.01566290855408	response	0	2		26.0	2.5	/experiments/knapen_aot/videos/R_S_yt-YeT4acsbqok_210.mp4	0.0	142.02081274986267	
28	85.02380084991455	movie	1		301.0	26.0	2.5	/experiments/knapen_aot/videos/R_S_yt-YeT4acsbqok_210.mp4	0.0	142.02895069122314	2.5083730220794678
28	87.53217387199402	fix_post	2		12.0	26.0	2.5	/experiments/knapen_aot/videos/R_S_yt-YeT4acsbqok_210.mp4	0.0	144.5373237133026	0.09998798370361328
29	87.63216185569763	fix_pre	0		59.0	27.0	2.5	/experiments/knapen_aot/videos/S_production_ID_5020953.mp4	0.0	144.63731169700623	0.4916501045227051
29	88.115553855896	response	0	2		27.0	2.5	/experiments/knapen_aot/videos/S_production_ID_5020953.mp4	0.0	145.1207036972046	
29	88.12381196022034	movie	1		201.0	27.0	2.5	/experiments/knapen_aot/videos/S_production_ID_5020953.mp4	0.0	145.12896180152893	2.508328914642334
29	90.63214087486267	fix_post	2		12.0	27.0	2.5	/experiments/knapen_aot/videos/S_production_ID_5020953.mp4	0.0	147.63729071617126	0.10011696815490723
30	90.73225784301758	fix_pre	0		70.0	28.0	2.5	blank	1.0	147.73740768432617	0.5831789970397949
30	91.30730199813843	response	0	2		28.0	2.5	blank	1.0	148.31245183944702	
30	91.31543684005737	movie	1		301.0	28.0	2.5	blank	1.0	148.32058668136597	2.5083999633789062
30	93.82383680343628	fix_post	2		12.0	28.0	2.5	blank	1.0	150.82898664474487	0.09998416900634766
31	93.92382097244263	fix_pre	0		61.0	29.0	2.5	/experiments/knapen_aot/videos/S_yt-F1vQ5nZWhDg_21.mp4	0.0	150.92897081375122	0.5083398818969727
31	94.42384791374207	response	0	2		29.0	2.5	/experiments/knapen_aot/videos/S_yt-F1vQ5nZWhDg_21.mp4	0.0	151.42899775505066	
31	94.4321608543396	movie	1		301.0	29.0	2.5	/experiments/knapen_aot/videos/S_yt-F1vQ5nZWhDg_21.mp4	0.0	151.4373106956482	2.508328914642334
31	96.94048976898193	fix_post	2		12.0	29.0	2.5	/experiments/knapen_aot/videos/S_yt-F1vQ5nZWhDg_21.mp4	0.0	153.94563961029053	0.09999418258666992
32	97.0404839515686	fix_pre	0		80.0	30.0	2.5	/experiments/knapen_aot/videos/R_S_yt-AbJBxqEYoMg_105.mp4	0.0	154.0456337928772	0.6666579246520996
32	97.69894289970398	response	0	2		30.0	2.5	/experiments/knapen_aot/videos/R_S_yt-AbJBxqEYoMg_105.mp4	0.0	154.70409274101257	
32	97.7071418762207	movie	1		301.0	30.0	2.5	/experiments/knapen_aot/videos/R_S_yt-AbJBxqEYoMg_105.mp4	0.0	154.7122917175293	2.5083250999450684
32	100.21546697616577	fix_post	2		12.0	30.0	2.5	/experiments/knapen_aot/videos/R_S_yt-AbJBxqEYoMg_105.mp4	0.0	157.22061681747437	0.10001587867736816
33	100.31548285484314	fix_pre	0		57.0	31.0	2.5	/experiments/knapen_aot/videos/S_ILSVRC2015_train_00524006.mp4	0.0	157.32063269615173	0.4749579429626465
33	100.7822859287262	response	0	2		31.0	2.5	/experiments/knapen_aot/videos/S_ILSVRC2015_train_00524006.mp4	0.0	157.7874357700348	
33	100.79044079780579	movie	1		301.0	31.0	2.5	/experiments/knapen_aot/videos/S_ILSVRC2015_train_00524006.mp4	0.0	157.79559063911438	2.508350133895874
33	103.29879093170166	fix_post	2		12.0	31.0	2.5	/experiments/knapen_aot/videos/S_ILSVRC2015_train_00524006.mp4	0.0	160.30394077301025	0.09994697570800781
34	103.39873790740967	fix_pre	0		104.0	32.0	2.5	/experiments/knapen_aot/videos/S_yt-jbvXEFk2Gyw_12.mp4	0.0	160.40388774871826	0.8666660785675049
34	104.25724291801453	response	0	2		32.0	2.5	/experiments/knapen_aot/videos/S_yt-jbvXEFk2Gyw_12.mp4	0.0	161.26239275932312	
34	104.26540398597717	movie	1		301.0	32.0	2.5	/experiments/knapen_aot/videos/S_yt-jbvXEFk2Gyw_12.mp4	0.0	161.27055382728577	2.5082998275756836
34	106.77370381355286	fix_post	2		12.0	32.0	2.5	/experiments/knapen_aot/videos/S_yt-jbvXEFk2Gyw_12.mp4	0.0	163.77885365486145	0.10009002685546875
35	106.87379384040833	fix_pre	0		117.0	33.0	2.5	/experiments/knapen_aot/videos/S_ILSVRC2015_train_00497001.mp4	0.0	163.87894368171692	0.9749870300292969
35	107.83309888839722	response	0	2		33.0	2.5	/experiments/knapen_aot/videos/S_ILSVRC2015_train_00497001.mp4	0.0	164.8382487297058	
35	107.84878087043762	movie	1		301.0	33.0	2.5	/experiments/knapen_aot/videos/S_ILSVRC2015_train_00497001.mp4	0.0	164.85393071174622	2.5082919597625732
35	110.3570728302002	fix_post	2		12.0	33.0	2.5	/experiments/knapen_aot/videos/S_ILSVRC2015_train_00497001.mp4	0.0	167.3622226715088	0.09999299049377441
36	110.45706582069397	fix_pre	0		72.0	34.0	2.5	blank	1.0	167.46221566200256	0.5999760627746582
36	111.048898935318	response	0	2		34.0	2.5	blank	1.0	168.0540487766266	
36	111.05704188346863	movie	1		301.0	34.0	2.5	blank	1.0	168.06219172477722	2.508380889892578
36	113.5654227733612	fix_post	2		12.0	34.0	2.5	blank	1.0	170.5705726146698	0.09995508193969727
37	113.6653778553009	fix_pre	0		100.0	35.0	2.5	/experiments/knapen_aot/videos/S_yt-b7JAHOeiTqU_44.mp4	0.0	170.6705276966095	0.833341121673584
37	114.49046087265015	response	0	2		35.0	2.5	/experiments/knapen_aot/videos/S_yt-b7JAHOeiTqU_44.mp4	0.0	171.49561071395874	
37	114.49871897697449	movie	1		301.0	35.0	2.5	/experiments/knapen_aot/videos/S_yt-b7JAHOeiTqU_44.mp4	0.0	171.50386881828308	2.508333921432495
37	117.00705289840698	fix_post	2		12.0	35.0	2.5	/experiments/knapen_aot/videos/S_yt-b7JAHOeiTqU_44.mp4	0.0	174.01220273971558	0.10002493858337402
38	117.10707783699036	fix_pre	0		68.0	36.0	2.5	/experiments/knapen_aot/videos/S_yt-H3EadcgKySM_58.mp4	0.0	174.11222767829895	0.5666460990905762
38	117.66550993919373	response	0	2		36.0	2.5	/experiments/knapen_aot/videos/S_yt-H3EadcgKySM_58.mp4	0.0	174.67065978050232	
38	117.67372393608093	movie	1		301.0	36.0	2.5	/experiments/knapen_aot/videos/S_yt-H3EadcgKySM_58.mp4	0.0	174.67887377738953	2.5082879066467285
38	120.18201184272766	fix_post	2		12.0	36.0	2.5	/experiments/knapen_aot/videos/S_yt-H3EadcgKySM_58.mp4	0.0	177.18716168403625	0.09994101524353027
39	120.28195285797119	fix_pre	0		110.0	37.0	2.5	/experiments/knapen_aot/videos/R_S_comp_HK_H004_C010_PSNK_v08_SDR_PS_20181009_SDR_2K_AVC.mp4	0.0	177.28710269927979	0.9178581237792969
39	121.19049978256226	response	0	2		37.0	2.5	/experiments/knapen_aot/videos/R_S_comp_HK_H004_C010_PSNK_v08_SDR_PS_20181009_SDR_2K_AVC.mp4	0.0	178.19564962387085	
39	121.19981098175049	movie	1		165.0	37.0	2.5	/experiments/knapen_aot/videos/R_S_comp_HK_H004_C010_PSNK_v08_SDR_PS_20181009_SDR_2K_AVC.mp4	0.0	178.20496082305908	2.507220983505249
39	123.70703196525574	fix_post	2		12.0	37.0	2.5	/experiments/knapen_aot/videos/R_S_comp_HK_H004_C010_PSNK_v08_SDR_PS_20181009_SDR_2K_AVC.mp4	0.0	180.71218180656433	0.10001182556152344
40	123.80704379081726	fix_pre	0		72.0	38.0	2.5	/experiments/knapen_aot/videos/R_S_yt-0buqUbXVTn8_48.mp4	0.0	180.81219363212585	0.6010770797729492
40	124.3988618850708	response	0	2		38.0	2.5	/experiments/knapen_aot/videos/R_S_yt-0buqUbXVTn8_48.mp4	0.0	181.4040117263794	
40	124.40812087059021	movie	1		301.0	38.0	2.5	/experiments/knapen_aot/videos/R_S_yt-0buqUbXVTn8_48.mp4	0.0	181.4132707118988	2.507354974746704
40	126.91547584533691	fix_post	2		12.0	38.0	2.5	/experiments/knapen_aot/videos/R_S_yt-0buqUbXVTn8_48.mp4	0.0	183.9206256866455	0.09991598129272461
41	127.01539182662964	fix_pre	0		80.0	39.0	2.5	/experiments/knapen_aot/videos/R_S_pexels-vlada-karpovich-8044792.mp4	0.0	184.02054166793823	0.6665730476379395
41	127.67383694648743	response	0	2		39.0	2.5	/experiments/knapen_aot/videos/R_S_pexels-vlada-karpovich-8044792.mp4	0.0	184.67898678779602	
41	127.68196487426758	movie	1		164.0	39.0	2.5	/experiments/knapen_aot/videos/R_S_pexels-vlada-karpovich-8044792.mp4	0.0	184.68711471557617	2.508357048034668
41	130.19032192230225	fix_post	2		12.0	39.0	2.5	/experiments/knapen_aot/videos/R_S_pexels-vlada-karpovich-8044792.mp4	0.0	187.19547176361084	0.10005497932434082
42	130.2903769016266	fix_pre	0		66.0	40.0	2.5	/experiments/knapen_aot/videos/S_yt-iKe-0YNR5Eo_164.mp4	0.0	187.29552674293518	0.5499520301818848
42	130.8245279788971	response	0	2		40.0	2.5	/experiments/knapen_aot/videos/S_yt-iKe-0YNR5Eo_164.mp4	0.0	187.8296778202057	
42	130.84032893180847	movie	1		301.0	40.0	2.5	/experiments/knapen_aot/videos/S_yt-iKe-0YNR5Eo_164.mp4	0.0	187.84547877311707	2.508344888687134
42	133.3486738204956	fix_post	2		12.0	40.0	2.5	/experiments/knapen_aot/videos/S_yt-iKe-0YNR5Eo_164.mp4	0.0	190.3538236618042	0.09996604919433594
43	133.44863986968994	fix_pre	0		89.0	41.0	2.5	/experiments/knapen_aot/videos/S_yt-AbJBxqEYoMg_105.mp4	0.0	190.45378971099854	0.7416729927062988
43	134.18209981918335	response	0	2		41.0	2.5	/experiments/knapen_aot/videos/S_yt-AbJBxqEYoMg_105.mp4	0.0	191.18724966049194	
43	134.19031286239624	movie	1		301.0	41.0	2.5	/experiments/knapen_aot/videos/S_yt-AbJBxqEYoMg_105.mp4	0.0	191.19546270370483	2.5083770751953125
43	136.69868993759155	fix_post	2		12.0	41.0	2.5	/experiments/knapen_aot/videos/S_yt-AbJBxqEYoMg_105.mp4	0.0	193.70383977890015	0.09993195533752441
44	136.79862189292908	fix_pre	0		55.0	42.0	2.5	blank	1.0	193.80377173423767	0.45830607414245605
44	137.24880599975586	response	0	2		42.0	2.5	blank	1.0	194.25395584106445	
44	137.25692796707153	movie	1		301.0	42.0	2.5	blank	1.0	194.26207780838013	2.50833797454834
44	139.76526594161987	fix_post	2		12.0	42.0	2.5	blank	1.0	196.77041578292847	0.10009288787841797
45	139.8653588294983	fix_pre	0		67.0	43.0	2.5	/experiments/knapen_aot/videos/S_yt-QOnORDmVMyU_10.mp4	0.0	196.87050867080688	0.5581870079040527
45	140.415433883667	response	0	2		43.0	2.5	/experiments/knapen_aot/videos/S_yt-QOnORDmVMyU_10.mp4	0.0	197.4205837249756	
45	140.42354583740234	movie	1		301.0	43.0	2.5	/experiments/knapen_aot/videos/S_yt-QOnORDmVMyU_10.mp4	0.0	197.42869567871094	2.5083141326904297
45	142.93185997009277	fix_post	2		12.0	43.0	2.5	/experiments/knapen_aot/videos/S_yt-QOnORDmVMyU_10.mp4	0.0	199.93700981140137	0.10006880760192871
46	143.0319287776947	fix_pre	0		60.0	44.0	2.5	/experiments/knapen_aot/videos/S_yt--cAfxH1WnPo_3.mp4	0.0	200.0370786190033	0.5010571479797363
46	143.52376985549927	response	0	2		44.0	2.5	/experiments/knapen_aot/videos/S_yt--cAfxH1WnPo_3.mp4	0.0	200.52891969680786	
46	143.53298592567444	movie	1		301.0	44.0	2.5	/experiments/knapen_aot/videos/S_yt--cAfxH1WnPo_3.mp4	0.0	200.53813576698303	2.5072929859161377
46	146.04027891159058	fix_post	2		12.0	44.0	2.5	/experiments/knapen_aot/videos/S_yt--cAfxH1WnPo_3.mp4	0.0	203.04542875289917	0.09999203681945801
47	146.14027094841003	fix_pre	0		133.0	45.0	2.5	/experiments/knapen_aot/videos/S_ILSVRC2015_train_00460000.mp4	0.0	203.14542078971863	1.10829496383667
47	147.24030900001526	response	0	2		45.0	2.5	/experiments/knapen_aot/videos/S_ILSVRC2015_train_00460000.mp4	0.0	204.24545884132385	
47	147.2485659122467	movie	1		300.0	45.0	2.5	/experiments/knapen_aot/videos/S_ILSVRC2015_train_00460000.mp4	0.0	204.2537157535553	2.50833797454834
47	149.75690388679504	fix_post	2		12.0	45.0	2.5	/experiments/knapen_aot/videos/S_ILSVRC2015_train_00460000.mp4	0.0	206.76205372810364	0.10005903244018555
48	149.85696291923523	fix_pre	0		55.0	46.0	2.5	/experiments/knapen_aot/videos/R_S_yt-EFrazkRaYbs_21.mp4	0.0	206.86211276054382	0.45823192596435547
48	150.30708193778992	response	0	2		46.0	2.5	/experiments/knapen_aot/videos/R_S_yt-EFrazkRaYbs_21.mp4	0.0	207.3122317790985	
48	150.31519484519958	movie	1		301.0	46.0	2.5	/experiments/knapen_aot/videos/R_S_yt-EFrazkRaYbs_21.mp4	0.0	207.32034468650818	2.508439064025879
48	152.82363390922546	fix_post	2		12.0	46.0	2.5	/experiments/knapen_aot/videos/R_S_yt-EFrazkRaYbs_21.mp4	0.0	209.82878375053406	0.09999799728393555
49	152.9236319065094	fix_pre	0		83.0	47.0	2.5	/experiments/knapen_aot/videos/S_yt-ThT8utBaywI_68.mp4	0.0	209.928781747818	0.6925420761108398
49	153.60707092285156	response	0	2		47.0	2.5	/experiments/knapen_aot/videos/S_yt-ThT8utBaywI_68.mp4	0.0	210.61222076416016	
49	153.61617398262024	movie	1		301.0	47.0	2.5	/experiments/knapen_aot/videos/S_yt-ThT8utBaywI_68.mp4	0.0	210.62132382392883	2.5073959827423096
49	156.12356996536255	fix_post	2		12.0	47.0	2.5	/experiments/knapen_aot/videos/S_yt-ThT8utBaywI_68.mp4	0.0	213.12871980667114	0.09999203681945801
50	156.223562002182	fix_pre	0		72.0	48.0	2.5	/experiments/knapen_aot/videos/S_ILSVRC2015_train_00373000.mp4	0.0	213.2287118434906	0.6009509563446045
50	156.81540179252625	response	0	2		48.0	2.5	/experiments/knapen_aot/videos/S_ILSVRC2015_train_00373000.mp4	0.0	213.82055163383484	
50	156.8245129585266	movie	1		300.0	48.0	2.5	/experiments/knapen_aot/videos/S_ILSVRC2015_train_00373000.mp4	0.0	213.8296627998352	2.507295846939087
50	159.3318088054657	fix_post	2		12.0	48.0	2.5	/experiments/knapen_aot/videos/S_ILSVRC2015_train_00373000.mp4	0.0	216.3369586467743	0.10006308555603027
51	159.43187189102173	fix_pre	0		46.0	49.0	2.5	blank	1.0	216.43702173233032	0.3833320140838623
51	159.80697798728943	response	0	2		49.0	2.5	blank	1.0	216.81212782859802	
51	159.8152039051056	movie	1		301.0	49.0	2.5	blank	1.0	216.82035374641418	2.5083160400390625
51	162.32351994514465	fix_post	2		12.0	49.0	2.5	blank	1.0	219.32866978645325	0.10002589225769043
52	162.42354583740234	fix_pre	0		75.0	50.0	2.5	/experiments/knapen_aot/videos/R_S_yt-JG2OY_7B-gI_537.mp4	0.0	219.42869567871094	0.6249699592590332
52	163.0403537750244	response	0	2		50.0	2.5	/experiments/knapen_aot/videos/R_S_yt-JG2OY_7B-gI_537.mp4	0.0	220.045503616333	
52	163.04851579666138	movie	1		301.0	50.0	2.5	/experiments/knapen_aot/videos/R_S_yt-JG2OY_7B-gI_537.mp4	0.0	220.05366563796997	2.5083250999450684
52	165.55684089660645	fix_post	2		12.0	50.0	2.5	/experiments/knapen_aot/videos/R_S_yt-JG2OY_7B-gI_537.mp4	0.0	222.56199073791504	0.09994697570800781
53	165.65678787231445	fix_pre	0		62.0	51.0	2.5	/experiments/knapen_aot/videos/R_S_ILSVRC2015_train_00373000.mp4	0.0	222.66193771362305	0.5167450904846191
53	166.1653277873993	response	0	2		51.0	2.5	/experiments/knapen_aot/videos/R_S_ILSVRC2015_train_00373000.mp4	0.0	223.17047762870789	
53	166.17353296279907	movie	1		301.0	51.0	2.5	/experiments/knapen_aot/videos/R_S_ILSVRC2015_train_00373000.mp4	0.0	223.17868280410767	2.5082578659057617
53	168.68179082870483	fix_post	2		12.0	51.0	2.5	/experiments/knapen_aot/videos/R_S_ILSVRC2015_train_00373000.mp4	0.0	225.68694067001343	0.10002994537353516
54	168.78182077407837	fix_pre	0		75.0	52.0	2.5	/experiments/knapen_aot/videos/S_yt-zKnjBBYWe90_369.mp4	0.0	225.78697061538696	0.6259150505065918
54	169.39865398406982	response	0	2		52.0	2.5	/experiments/knapen_aot/videos/S_yt-zKnjBBYWe90_369.mp4	0.0	226.40380382537842	
54	169.40773582458496	movie	1		301.0	52.0	2.5	/experiments/knapen_aot/videos/S_yt-zKnjBBYWe90_369.mp4	0.0	226.41288566589355	2.507457971572876
54	171.91519379615784	fix_post	2		12.0	52.0	2.5	/experiments/knapen_aot/videos/S_yt-zKnjBBYWe90_369.mp4	0.0	228.92034363746643	0.09996199607849121
55	172.01515579223633	fix_pre	0		71.0	53.0	2.5	/experiments/knapen_aot/videos/S_pexels-koolshooters-7327401.mp4	0.0	229.02030563354492	0.5916171073913574
55	172.59859085083008	response	0	2		53.0	2.5	/experiments/knapen_aot/videos/S_pexels-koolshooters-7327401.mp4	0.0	229.60374069213867	
55	172.60677289962769	movie	1		188.0	53.0	2.5	/experiments/knapen_aot/videos/S_pexels-koolshooters-7327401.mp4	0.0	229.61192274093628	2.5083980560302734
55	175.11517095565796	fix_post	2		12.0	53.0	2.5	/experiments/knapen_aot/videos/S_pexels-koolshooters-7327401.mp4	0.0	232.12032079696655	0.10000491142272949
56	175.2151758670807	fix_pre	0		51.0	54.0	2.5	blank	1.0	232.22032570838928	0.424915075302124
56	175.63193893432617	response	0	2		54.0	2.5	blank	1.0	232.63708877563477	
56	175.6400909423828	movie	1		301.0	54.0	2.5	blank	1.0	232.6452407836914	2.508409023284912
56	178.14849996566772	fix_post	2		12.0	54.0	2.5	blank	1.0	235.15364980697632	0.10002303123474121
57	178.24852299690247	fix_pre	0		74.0	55.0	2.5	/experiments/knapen_aot/videos/R_S_ILSVRC2015_train_00185002.mp4	0.0	235.25367283821106	0.6174628734588623
57	178.85691499710083	response	0	2		55.0	2.5	/experiments/knapen_aot/videos/R_S_ILSVRC2015_train_00185002.mp4	0.0	235.86206483840942	
57	178.86598587036133	movie	1		301.0	55.0	2.5	/experiments/knapen_aot/videos/R_S_ILSVRC2015_train_00185002.mp4	0.0	235.87113571166992	2.507427930831909
57	181.37341380119324	fix_post	2		12.0	55.0	2.5	/experiments/knapen_aot/videos/R_S_ILSVRC2015_train_00185002.mp4	0.0	238.37856364250183	0.10005807876586914
58	181.4734718799591	fix_pre	0		66.0	56.0	2.5	/experiments/knapen_aot/videos/R_S_yt-9qXwehMoX7o_50.mp4	0.0	238.4786217212677	0.549994945526123
58	182.01525783538818	response	0	2		56.0	2.5	/experiments/knapen_aot/videos/R_S_yt-9qXwehMoX7o_50.mp4	0.0	239.02040767669678	
58	182.02346682548523	movie	1		301.0	56.0	2.5	/experiments/knapen_aot/videos/R_S_yt-9qXwehMoX7o_50.mp4	0.0	239.02861666679382	2.5083510875701904
58	184.53181791305542	fix_post	2		12.0	56.0	2.5	/experiments/knapen_aot/videos/R_S_yt-9qXwehMoX7o_50.mp4	0.0	241.536967754364	0.09998893737792969
59	184.63180685043335	fix_pre	0		58.0	57.0	2.5	/experiments/knapen_aot/videos/R_S_pexels-mikhail-nilov-8410063.mp4	0.0	241.63695669174194	0.484112024307251
59	185.10693192481995	response	0	2		57.0	2.5	/experiments/knapen_aot/videos/R_S_pexels-mikhail-nilov-8410063.mp4	0.0	242.11208176612854	
59	185.1159188747406	movie	1		164.0	57.0	2.5	/experiments/knapen_aot/videos/R_S_pexels-mikhail-nilov-8410063.mp4	0.0	242.1210687160492	2.5075109004974365
59	187.62342977523804	fix_post	2		12.0	57.0	2.5	/experiments/knapen_aot/videos/R_S_pexels-mikhail-nilov-8410063.mp4	0.0	244.62857961654663	0.10000014305114746
60	187.72342991828918	fix_pre	0		64.0	58.0	2.5	/experiments/knapen_aot/videos/R_S_yt-b7JAHOeiTqU_44.mp4	0.0	244.72857975959778	0.5333139896392822
60	188.24855279922485	response	0	2		58.0	2.5	/experiments/knapen_aot/videos/R_S_yt-b7JAHOeiTqU_44.mp4	0.0	245.25370264053345	
60	188.25674390792847	movie	1		301.0	58.0	2.5	/experiments/knapen_aot/videos/R_S_yt-b7JAHOeiTqU_44.mp4	0.0	245.26189374923706	2.5082709789276123
60	190.76501488685608	fix_post	2		12.0	58.0	2.5	/experiments/knapen_aot/videos/R_S_yt-b7JAHOeiTqU_44.mp4	0.0	247.77016472816467	0.10008788108825684
61	190.86510276794434	fix_pre	0		84.0	59.0	2.5	/experiments/knapen_aot/videos/R_S_yt-074ygGXNoQ8_64.mp4	0.0	247.87025260925293	0.6999411582946777
61	191.5568869113922	response	0	2		59.0	2.5	/experiments/knapen_aot/videos/R_S_yt-074ygGXNoQ8_64.mp4	0.0	248.5620367527008	
61	191.565043926239	movie	1		301.0	59.0	2.5	/experiments/knapen_aot/videos/R_S_yt-074ygGXNoQ8_64.mp4	0.0	248.5701937675476	2.508368968963623
61	194.07341289520264	fix_post	2		12.0	59.0	2.5	/experiments/knapen_aot/videos/R_S_yt-074ygGXNoQ8_64.mp4	0.0	251.07856273651123	0.0999760627746582
62	194.1733889579773	fix_pre	0		116.0	60.0	2.5	/experiments/knapen_aot/videos/R_S_pexels-mart-production-7698693.mp4	0.0	251.1785387992859	0.9666519165039062
62	195.13188886642456	response	0	2		60.0	2.5	/experiments/knapen_aot/videos/R_S_pexels-mart-production-7698693.mp4	0.0	252.13703870773315	
62	195.1400408744812	movie	1		204.0	60.0	2.5	/experiments/knapen_aot/videos/R_S_pexels-mart-production-7698693.mp4	0.0	252.1451907157898	2.5084009170532227
62	197.64844179153442	fix_post	2		12.0	60.0	2.5	/experiments/knapen_aot/videos/R_S_pexels-mart-production-7698693.mp4	0.0	254.65359163284302	0.09994816780090332
63	197.74838995933533	fix_pre	0		69.0	61.0	2.5	blank	1.0	254.75353980064392	0.5757980346679688
63	198.3152039051056	response	0	2		61.0	2.5	blank	1.0	255.32035374641418	
63	198.3241879940033	movie	1		301.0	61.0	2.5	blank	1.0	255.3293378353119	2.5075249671936035
63	200.8317129611969	fix_post	2		12.0	61.0	2.5	blank	1.0	257.8368628025055	0.10004901885986328
64	200.93176198005676	fix_pre	0		60.0	62.0	2.5	/experiments/knapen_aot/videos/R_S_yt-rlVzHENWufE_61.mp4	0.0	257.93691182136536	0.4999558925628662
64	201.42355680465698	response	0	2		62.0	2.5	/experiments/knapen_aot/videos/R_S_yt-rlVzHENWufE_61.mp4	0.0	258.4287066459656	
64	201.43171787261963	movie	1		301.0	62.0	2.5	/experiments/knapen_aot/videos/R_S_yt-rlVzHENWufE_61.mp4	0.0	258.4368677139282	2.5083749294281006
64	203.94009280204773	fix_post	2		12.0	62.0	2.5	/experiments/knapen_aot/videos/R_S_yt-rlVzHENWufE_61.mp4	0.0	260.9452426433563	0.10002517700195312
65	204.04011797904968	fix_pre	0		77.0	63.0	2.5	/experiments/knapen_aot/videos/R_S_yt-wEbfIR14zZ8_7.mp4	0.0	261.0452678203583	0.6416049003601074
65	204.67356395721436	response	0	2		63.0	2.5	/experiments/knapen_aot/videos/R_S_yt-wEbfIR14zZ8_7.mp4	0.0	261.67871379852295	
65	204.6817228794098	movie	1		300.0	63.0	2.5	/experiments/knapen_aot/videos/R_S_yt-wEbfIR14zZ8_7.mp4	0.0	261.6868727207184	2.5083279609680176
65	207.1900508403778	fix_post	2		12.0	63.0	2.5	/experiments/knapen_aot/videos/R_S_yt-wEbfIR14zZ8_7.mp4	0.0	264.1952006816864	0.10002493858337402
66	207.29007577896118	fix_pre	0		68.0	64.0	2.5	/experiments/knapen_aot/videos/S_yt-4qU-6TEW06E_38.mp4	0.0	264.2952256202698	0.566648006439209
66	207.8410129547119	response	0	2		64.0	2.5	/experiments/knapen_aot/videos/S_yt-4qU-6TEW06E_38.mp4	0.0	264.8461627960205	
66	207.8567237854004	movie	1		301.0	64.0	2.5	/experiments/knapen_aot/videos/S_yt-4qU-6TEW06E_38.mp4	0.0	264.861873626709	2.5082521438598633
66	210.36497592926025	fix_post	2		12.0	64.0	2.5	/experiments/knapen_aot/videos/S_yt-4qU-6TEW06E_38.mp4	0.0	267.37012577056885	0.10000205039978027
67	210.46497797966003	fix_pre	0		63.0	65.0	2.5	/experiments/knapen_aot/videos/S_ILSVRC2015_train_00568002.mp4	0.0	267.4701278209686	0.5257549285888672
67	210.98185396194458	response	0	2		65.0	2.5	/experiments/knapen_aot/videos/S_ILSVRC2015_train_00568002.mp4	0.0	267.9870038032532	
67	210.9907329082489	movie	1		301.0	65.0	2.5	/experiments/knapen_aot/videos/S_ILSVRC2015_train_00568002.mp4	0.0	267.9958827495575	2.507607936859131
67	213.49834084510803	fix_post	2		12.0	65.0	2.5	/experiments/knapen_aot/videos/S_ILSVRC2015_train_00568002.mp4	0.0	270.5034906864166	0.10003304481506348
68	213.5983738899231	fix_pre	0		95.0	66.0	2.5	/experiments/knapen_aot/videos/S_production_ID_3944248.mp4	0.0	270.6035237312317	0.7917048931121826
68	214.38183283805847	response	0	2		66.0	2.5	/experiments/knapen_aot/videos/S_production_ID_3944248.mp4	0.0	271.38698267936707	
68	214.39007878303528	movie	1		203.0	66.0	2.5	/experiments/knapen_aot/videos/S_production_ID_3944248.mp4	0.0	271.3952286243439	2.5082662105560303
68	216.8983449935913	fix_post	2		12.0	66.0	2.5	/experiments/knapen_aot/videos/S_production_ID_3944248.mp4	0.0	273.9034948348999	0.0999917984008789
69	216.9983367919922	fix_pre	0		42.0	67.0	2.5	/experiments/knapen_aot/videos/R_S_ILSVRC2015_train_00373000.mp4	0.0	274.0034866333008	0.3499619960784912
69	217.34003281593323	response	0	2		67.0	2.5	/experiments/knapen_aot/videos/R_S_ILSVRC2015_train_00373000.mp4	0.0	274.3451826572418	
69	217.34829878807068	movie	1		301.0	67.0	2.5	/experiments/knapen_aot/videos/R_S_ILSVRC2015_train_00373000.mp4	0.0	274.3534486293793	2.5083611011505127
69	219.8566598892212	fix_post	2		12.0	67.0	2.5	/experiments/knapen_aot/videos/R_S_ILSVRC2015_train_00373000.mp4	0.0	276.8618097305298	0.09996891021728516
70	219.95662879943848	fix_pre	0		12.0	68.0	2.5	blank	1.0	276.96177864074707	0.1000070571899414
70	220.04841089248657	response	0	2		68.0	2.5	blank	1.0	277.05356073379517	
70	220.05663585662842	movie	1		301.0	68.0	2.5	blank	1.0	277.061785697937	2.5082521438598633
70	222.56488800048828	fix_post	2		12.0	68.0	2.5	blank	1.0	279.5700378417969	0.10001587867736816
71	222.66490387916565	fix_pre	0		72.0	69.0	2.5	/experiments/knapen_aot/videos/S_yt-VQtbKGzI9SE_431.mp4	0.0	279.67005372047424	0.6000339984893799
71	223.25680780410767	response	0	2		69.0	2.5	/experiments/knapen_aot/videos/S_yt-VQtbKGzI9SE_431.mp4	0.0	280.26195764541626	
71	223.26493787765503	movie	1		301.0	69.0	2.5	/experiments/knapen_aot/videos/S_yt-VQtbKGzI9SE_431.mp4	0.0	280.2700877189636	2.5083250999450684
71	225.7732629776001	fix_post	2		12.0	69.0	2.5	/experiments/knapen_aot/videos/S_yt-VQtbKGzI9SE_431.mp4	0.0	282.7784128189087	0.10003185272216797
72	225.87329483032227	fix_pre	0		64.0	70.0	2.5	/experiments/knapen_aot/videos/R_S_yt-hOtj2y9VWrc_354.mp4	0.0	282.87844467163086	0.5339350700378418
72	226.39845991134644	response	0	2		70.0	2.5	/experiments/knapen_aot/videos/R_S_yt-hOtj2y9VWrc_354.mp4	0.0	283.40360975265503	
72	226.4072299003601	movie	1		301.0	70.0	2.5	/experiments/knapen_aot/videos/R_S_yt-hOtj2y9VWrc_354.mp4	0.0	283.4123797416687	2.5076611042022705
72	228.91489100456238	fix_post	2		12.0	70.0	2.5	/experiments/knapen_aot/videos/R_S_yt-hOtj2y9VWrc_354.mp4	0.0	285.920040845871	0.10001587867736816
73	229.01490688323975	fix_pre	0		89.0	71.0	2.5	/experiments/knapen_aot/videos/S_yt-etF_WUW5D68_3.mp4	0.0	286.02005672454834	0.7416329383850098
73	229.74841785430908	response	0	2		71.0	2.5	/experiments/knapen_aot/videos/S_yt-etF_WUW5D68_3.mp4	0.0	286.7535676956177	
73	229.75653982162476	movie	1		301.0	71.0	2.5	/experiments/knapen_aot/videos/S_yt-etF_WUW5D68_3.mp4	0.0	286.76168966293335	2.508491039276123
73	232.26503086090088	fix_post	2		12.0	71.0	2.5	/experiments/knapen_aot/videos/S_yt-etF_WUW5D68_3.mp4	0.0	289.2701807022095	0.09984803199768066
74	232.36487889289856	fix_pre	0		78.0	72.0	2.5	/experiments/knapen_aot/videos/R_S_ILSVRC2015_train_00450001.mp4	0.0	289.37002873420715	0.6499929428100586
74	233.00673389434814	response	0	2		72.0	2.5	/experiments/knapen_aot/videos/R_S_ILSVRC2015_train_00450001.mp4	0.0	290.01188373565674	
74	233.01487183570862	movie	1		301.0	72.0	2.5	/experiments/knapen_aot/videos/R_S_ILSVRC2015_train_00450001.mp4	0.0	290.0200216770172	2.5083789825439453
74	235.52325081825256	fix_post	2		12.0	72.0	2.5	/experiments/knapen_aot/videos/R_S_ILSVRC2015_train_00450001.mp4	0.0	292.52840065956116	0.09995698928833008
75	235.6232078075409	fix_pre	0		36.0	73.0	2.5	/experiments/knapen_aot/videos/R_S_production_ID_4802712.mp4	0.0	292.6283576488495	0.30002498626708984
75	235.91501879692078	response	0	2		73.0	2.5	/experiments/knapen_aot/videos/R_S_production_ID_4802712.mp4	0.0	292.92016863822937	
75	235.92323279380798	movie	1		166.0	73.0	2.5	/experiments/knapen_aot/videos/R_S_production_ID_4802712.mp4	0.0	292.9283826351166	2.508369207382202
75	238.43160200119019	fix_post	2		12.0	73.0	2.5	/experiments/knapen_aot/videos/R_S_production_ID_4802712.mp4	0.0	295.4367518424988	0.09993577003479004
76	238.53153777122498	fix_pre	0		68.0	74.0	2.5	/experiments/knapen_aot/videos/R_S_Pexels_Videos_2791797.mp4	0.0	295.53668761253357	0.5666611194610596
76	239.09128999710083	response	0	2		74.0	2.5	/experiments/knapen_aot/videos/R_S_Pexels_Videos_2791797.mp4	0.0	296.0964398384094	
76	239.09819889068604	movie	1		168.0	74.0	2.5	/experiments/knapen_aot/videos/R_S_Pexels_Videos_2791797.mp4	0.0	296.10334873199463	2.5083088874816895
76	241.60650777816772	fix_post	2		12.0	74.0	2.5	/experiments/knapen_aot/videos/R_S_Pexels_Videos_2791797.mp4	0.0	298.6116576194763	0.10006499290466309
77	241.7065727710724	fix_pre	0		66.0	75.0	2.5	blank	1.0	298.711722612381	0.5500080585479736
77	242.24963283538818	response	0	2		75.0	2.5	blank	1.0	299.2547826766968	
77	242.25658082962036	movie	1		301.0	75.0	2.5	blank	1.0	299.26173067092896	2.5082271099090576
77	244.76480793952942	fix_post	2		12.0	75.0	2.5	blank	1.0	301.769957780838	0.10000395774841309
78	244.86481189727783	fix_pre	0		65.0	76.0	2.5	/experiments/knapen_aot/videos/S_yt-fQGoTMausn8_88.mp4	0.0	301.8699617385864	0.5422298908233643
78	245.39828896522522	response	0	2		76.0	2.5	/experiments/knapen_aot/videos/S_yt-fQGoTMausn8_88.mp4	0.0	302.4034388065338	
78	245.4070417881012	movie	1		301.0	76.0	2.5	/experiments/knapen_aot/videos/S_yt-fQGoTMausn8_88.mp4	0.0	302.4121916294098	2.5077600479125977
78	247.9148018360138	fix_post	2		12.0	76.0	2.5	/experiments/knapen_aot/videos/S_yt-fQGoTMausn8_88.mp4	0.0	304.9199516773224	0.10000300407409668
79	248.0148048400879	fix_pre	0		46.0	77.0	2.5	/experiments/knapen_aot/videos/R_S_yt-7WYXuBHeorw_188.mp4	0.0	305.0199546813965	0.3833639621734619
79	248.3900089263916	response	0	2		77.0	2.5	/experiments/knapen_aot/videos/R_S_yt-7WYXuBHeorw_188.mp4	0.0	305.3951587677002	
79	248.39816880226135	movie	1		301.0	77.0	2.5	/experiments/knapen_aot/videos/R_S_yt-7WYXuBHeorw_188.mp4	0.0	305.40331864356995	2.508368968963623
79	250.90653777122498	fix_post	2		12.0	77.0	2.5	/experiments/knapen_aot/videos/R_S_yt-7WYXuBHeorw_188.mp4	0.0	307.91168761253357	0.09995222091674805
80	251.00648999214172	fix_pre	0		53.0	78.0	2.5	/experiments/knapen_aot/videos/R_S_yt-F1X_vq0Zioc_154.mp4	0.0	308.0116398334503	0.4421508312225342
80	251.43256998062134	response	0	2		78.0	2.5	/experiments/knapen_aot/videos/R_S_yt-F1X_vq0Zioc_154.mp4	0.0	308.43771982192993	
80	251.44864082336426	movie	1		301.0	78.0	2.5	/experiments/knapen_aot/videos/R_S_yt-F1X_vq0Zioc_154.mp4	0.0	308.45379066467285	2.507863998413086
80	253.95650482177734	fix_post	2		12.0	78.0	2.5	/experiments/knapen_aot/videos/R_S_yt-F1X_vq0Zioc_154.mp4	0.0	310.96165466308594	0.10001707077026367
81	254.0565218925476	fix_pre	0		60.0	79.0	2.5	/experiments/knapen_aot/videos/S_yt-WFiEvQuOqqg_18.mp4	0.0	311.0616717338562	0.4999430179595947
81	254.54831790924072	response	0	2		79.0	2.5	/experiments/knapen_aot/videos/S_yt-WFiEvQuOqqg_18.mp4	0.0	311.5534677505493	
81	254.5564649105072	movie	1		301.0	79.0	2.5	/experiments/knapen_aot/videos/S_yt-WFiEvQuOqqg_18.mp4	0.0	311.5616147518158	2.5083670616149902
81	257.0648319721222	fix_post	2		12.0	79.0	2.5	/experiments/knapen_aot/videos/S_yt-WFiEvQuOqqg_18.mp4	0.0	314.0699818134308	0.09990096092224121
82	257.16473293304443	fix_pre	0		58.0	80.0	2.5	/experiments/knapen_aot/videos/S_comp_C003_C003_PS_v01_SDR_PS_20180925_SDR_2K_AVC.mp4	0.0	314.169882774353	0.4833979606628418
82	257.6323959827423	response	0	2		80.0	2.5	/experiments/knapen_aot/videos/S_comp_C003_C003_PS_v01_SDR_PS_20180925_SDR_2K_AVC.mp4	0.0	314.6375458240509	
82	257.6481308937073	movie	1		166.0	80.0	2.5	/experiments/knapen_aot/videos/S_comp_C003_C003_PS_v01_SDR_PS_20180925_SDR_2K_AVC.mp4	0.0	314.65328073501587	2.5083529949188232
82	260.1564838886261	fix_post	2		12.0	80.0	2.5	/experiments/knapen_aot/videos/S_comp_C003_C003_PS_v01_SDR_PS_20180925_SDR_2K_AVC.mp4	0.0	317.1616337299347	0.10001397132873535
83	260.25649785995483	fix_pre	0		79.0	81.0	2.5	/experiments/knapen_aot/videos/R_S_yt-lADkWM79teI_18.mp4	0.0	317.2616477012634	0.6583030223846436
83	260.90655183792114	response	0	2		81.0	2.5	/experiments/knapen_aot/videos/R_S_yt-lADkWM79teI_18.mp4	0.0	317.91170167922974	
83	260.9148008823395	movie	1		299.0	81.0	2.5	/experiments/knapen_aot/videos/R_S_yt-lADkWM79teI_18.mp4	0.0	317.91995072364807	2.508333921432495
83	263.423134803772	fix_post	2		12.0	81.0	2.5	/experiments/knapen_aot/videos/R_S_yt-lADkWM79teI_18.mp4	0.0	320.42828464508057	0.09995102882385254
84	263.5230858325958	fix_pre	0		54.0	82.0	2.5	blank	1.0	320.5282356739044	0.45006394386291504
84	263.9573907852173	response	0	2		82.0	2.5	blank	1.0	320.9625406265259	
84	263.97314977645874	movie	1		301.0	82.0	2.5	blank	1.0	320.97829961776733	2.508345127105713
84	266.48149490356445	fix_post	2		12.0	82.0	2.5	blank	1.0	323.48664474487305	0.09993290901184082
85	266.5814278125763	fix_pre	0		69.0	83.0	2.5	/experiments/knapen_aot/videos/R_S_yt-4qU-6TEW06E_38.mp4	0.0	323.5865776538849	0.5753929615020752
85	267.14822697639465	response	0	2		83.0	2.5	/experiments/knapen_aot/videos/R_S_yt-4qU-6TEW06E_38.mp4	0.0	324.15337681770325	
85	267.15682077407837	movie	1		301.0	83.0	2.5	/experiments/knapen_aot/videos/R_S_yt-4qU-6TEW06E_38.mp4	0.0	324.16197061538696	2.5079801082611084
85	269.6648008823395	fix_post	2		12.0	83.0	2.5	/experiments/knapen_aot/videos/R_S_yt-4qU-6TEW06E_38.mp4	0.0	326.66995072364807	0.10013604164123535
87	269.7649369239807	stim	0		222.0					326.7700867652893	1.850208044052124
87	271.611065864563	response	0	space						328.6162157058716	
