trial_nr	onset	event_type	phase	response	nr_frames	movie_index	movie_duration	movie_file	blank	onset_abs	duration
0	0.12583303451538086	stim	0		634.0					111.80032205581665	5.284168004989624
0	4.0709388256073	response	0	2						115.74542784690857	
0	5.400408029556274	response	0	space						117.07489705085754	
1	5.410001039505005	stim	0		121.0					117.08449006080627	1.006164789199829
1	6.416165828704834	stim	1		120.0					118.0906548500061	1.0000100135803223
1	6.437217950820923	response	1	2						118.11170697212219	
2	7.416175842285156	fix_pre	0		298.0	0.0	2.5	/experiments/knapen_aot/videos/S_yt-v8e_DlCsP4w_10.mp4	0.0	119.09066486358643	2.4916820526123047
2	9.896275997161865	response	0	space		0.0	2.5	/experiments/knapen_aot/videos/S_yt-v8e_DlCsP4w_10.mp4	0.0	121.57076501846313	
2	9.907857894897461	movie	1		296.0	0.0	2.5	/experiments/knapen_aot/videos/S_yt-v8e_DlCsP4w_10.mp4	0.0	121.58234691619873	2.4999871253967285
2	12.40784502029419	fix_post	2		12.0	0.0	2.5	/experiments/knapen_aot/videos/S_yt-v8e_DlCsP4w_10.mp4	0.0	124.08233404159546	0.10000085830688477
3	12.507845878601074	fix_pre	0		145.0	1.0	2.5	/experiments/knapen_aot/videos/S_yt-fQGoTMausn8_88.mp4	0.0	124.18233489990234	1.208207130432129
3	13.710984945297241	response	0	2		1.0	2.5	/experiments/knapen_aot/videos/S_yt-fQGoTMausn8_88.mp4	0.0	125.38547396659851	
3	13.716053009033203	movie	1		298.0	1.0	2.5	/experiments/knapen_aot/videos/S_yt-fQGoTMausn8_88.mp4	0.0	125.39054203033447	2.50838303565979
3	16.224436044692993	fix_post	2		12.0	1.0	2.5	/experiments/knapen_aot/videos/S_yt-fQGoTMausn8_88.mp4	0.0	127.89892506599426	0.10003495216369629
4	16.32447099685669	fix_pre	0		184.0	2.0	2.5	/experiments/knapen_aot/videos/R_S_yt-7W50lcw5FCo_37.mp4	0.0	127.99896001815796	1.5333058834075928
4	17.84961986541748	response	0	2		2.0	2.5	/experiments/knapen_aot/videos/R_S_yt-7W50lcw5FCo_37.mp4	0.0	129.52410888671875	
4	17.857776880264282	movie	1		301.0	2.0	2.5	/experiments/knapen_aot/videos/R_S_yt-7W50lcw5FCo_37.mp4	0.0	129.53226590156555	2.508463144302368
4	20.36624002456665	fix_post	2		12.0	2.0	2.5	/experiments/knapen_aot/videos/R_S_yt-7W50lcw5FCo_37.mp4	0.0	132.04072904586792	0.09990501403808594
5	20.466145038604736	fix_pre	0		56.0	3.0	2.5	/experiments/knapen_aot/videos/S_yt-hvuC_2YXsTQ_159.mp4	0.0	132.140634059906	0.46662282943725586
5	20.924598932266235	response	0	2		3.0	2.5	/experiments/knapen_aot/videos/S_yt-hvuC_2YXsTQ_159.mp4	0.0	132.5990879535675	
5	20.932767868041992	movie	1		301.0	3.0	2.5	/experiments/knapen_aot/videos/S_yt-hvuC_2YXsTQ_159.mp4	0.0	132.60725688934326	2.508286952972412
5	23.441054821014404	fix_post	2		12.0	3.0	2.5	/experiments/knapen_aot/videos/S_yt-hvuC_2YXsTQ_159.mp4	0.0	135.11554384231567	0.10006117820739746
6	23.5411159992218	fix_pre	0		47.0	4.0	2.5	/experiments/knapen_aot/videos/S_ILSVRC2015_train_00165009.mp4	0.0	135.21560502052307	0.3916599750518799
6	23.917080879211426	response	0	2		4.0	2.5	/experiments/knapen_aot/videos/S_ILSVRC2015_train_00165009.mp4	0.0	135.5915699005127	
6	23.93277597427368	movie	1		301.0	4.0	2.5	/experiments/knapen_aot/videos/S_ILSVRC2015_train_00165009.mp4	0.0	135.60726499557495	2.5086610317230225
6	26.441437005996704	fix_post	2		12.0	4.0	2.5	/experiments/knapen_aot/videos/S_ILSVRC2015_train_00165009.mp4	0.0	138.11592602729797	0.09966301918029785
7	26.541100025177002	fix_pre	0		27.0	5.0	2.5	blank	1.0	138.21558904647827	0.2250368595123291
7	26.757866859436035	response	0	2		5.0	2.5	blank	1.0	138.4323558807373	
7	26.76613688468933	movie	1		301.0	5.0	2.5	blank	1.0	138.4406259059906	2.5083250999450684
7	29.2744619846344	fix_post	2		12.0	5.0	2.5	blank	1.0	140.94895100593567	0.09991097450256348
8	29.374372959136963	fix_pre	0		37.0	6.0	2.5	/experiments/knapen_aot/videos/R_S_ILSVRC2015_train_00578000.mp4	0.0	141.04886198043823	0.3083479404449463
8	29.67454195022583	response	0	2		6.0	2.5	/experiments/knapen_aot/videos/R_S_ILSVRC2015_train_00578000.mp4	0.0	141.3490309715271	
8	29.68272089958191	movie	1		301.0	6.0	2.5	/experiments/knapen_aot/videos/R_S_ILSVRC2015_train_00578000.mp4	0.0	141.35720992088318	2.5084760189056396
8	32.19119691848755	fix_post	2		12.0	6.0	2.5	/experiments/knapen_aot/videos/R_S_ILSVRC2015_train_00578000.mp4	0.0	143.86568593978882	0.09993696212768555
9	32.291133880615234	fix_pre	0		4.0	7.0	2.5	/experiments/knapen_aot/videos/R_S_ILSVRC2015_train_00363000.mp4	0.0	143.9656229019165	0.03535294532775879
9	32.31628704071045	response	0	2		7.0	2.5	/experiments/knapen_aot/videos/R_S_ILSVRC2015_train_00363000.mp4	0.0	143.99077606201172	
9	32.32648682594299	movie	1		301.0	7.0	2.5	/experiments/knapen_aot/videos/R_S_ILSVRC2015_train_00363000.mp4	0.0	144.00097584724426	2.5062310695648193
9	34.83271789550781	fix_post	2		12.0	7.0	2.5	/experiments/knapen_aot/videos/R_S_ILSVRC2015_train_00363000.mp4	0.0	146.50720691680908	0.10004591941833496
10	34.93276381492615	fix_pre	0		30.0	8.0	2.5	/experiments/knapen_aot/videos/R_S_ILSVRC2015_train_00404003.mp4	0.0	146.60725283622742	0.2499392032623291
10	35.174577951431274	response	0	2		8.0	2.5	/experiments/knapen_aot/videos/R_S_ILSVRC2015_train_00404003.mp4	0.0	146.84906697273254	
10	35.18270301818848	movie	1		301.0	8.0	2.5	/experiments/knapen_aot/videos/R_S_ILSVRC2015_train_00404003.mp4	0.0	146.85719203948975	2.508323907852173
10	37.69102692604065	fix_post	2		12.0	8.0	2.5	/experiments/knapen_aot/videos/R_S_ILSVRC2015_train_00404003.mp4	0.0	149.36551594734192	0.10010790824890137
11	37.79113483428955	fix_pre	0		27.0	9.0	2.5	/experiments/knapen_aot/videos/S_ILSVRC2015_train_00447000.mp4	0.0	149.46562385559082	0.2249159812927246
11	38.007882833480835	response	0	2		9.0	2.5	/experiments/knapen_aot/videos/S_ILSVRC2015_train_00447000.mp4	0.0	149.6823718547821	
11	38.016050815582275	movie	1		301.0	9.0	2.5	/experiments/knapen_aot/videos/S_ILSVRC2015_train_00447000.mp4	0.0	149.69053983688354	2.508364200592041
11	40.524415016174316	fix_post	2		12.0	9.0	2.5	/experiments/knapen_aot/videos/S_ILSVRC2015_train_00447000.mp4	0.0	152.1989040374756	0.09999299049377441
12	40.62440800666809	fix_pre	0		18.0	10.0	2.5	/experiments/knapen_aot/videos/R_S_yt-T1mMDOVjvrE_83.mp4	0.0	152.29889702796936	0.14993596076965332
12	40.76602387428284	response	0	2		10.0	2.5	/experiments/knapen_aot/videos/R_S_yt-T1mMDOVjvrE_83.mp4	0.0	152.4405128955841	
12	40.774343967437744	movie	1		301.0	10.0	2.5	/experiments/knapen_aot/videos/R_S_yt-T1mMDOVjvrE_83.mp4	0.0	152.448832988739	2.508410930633545
12	43.28275489807129	fix_post	2		12.0	10.0	2.5	/experiments/knapen_aot/videos/R_S_yt-T1mMDOVjvrE_83.mp4	0.0	154.95724391937256	0.09992098808288574
13	43.382675886154175	fix_pre	0		28.0	11.0	2.5	/experiments/knapen_aot/videos/S_video-10.mp4	0.0	155.05716490745544	0.23334407806396484
13	43.60779881477356	response	0	2		11.0	2.5	/experiments/knapen_aot/videos/S_video-10.mp4	0.0	155.28228783607483	
13	43.61601996421814	movie	1		161.0	11.0	2.5	/experiments/knapen_aot/videos/S_video-10.mp4	0.0	155.2905089855194	2.5083649158477783
13	46.12438488006592	fix_post	2		12.0	11.0	2.5	/experiments/knapen_aot/videos/S_video-10.mp4	0.0	157.7988739013672	0.10024499893188477
14	46.2246298789978	fix_pre	0		35.0	12.0	2.5	/experiments/knapen_aot/videos/R_S_yt-c5KPuyzO-50_4.mp4	0.0	157.89911890029907	0.29136109352111816
14	46.50783395767212	response	0	2		12.0	2.5	/experiments/knapen_aot/videos/R_S_yt-c5KPuyzO-50_4.mp4	0.0	158.1823229789734	
14	46.51599097251892	movie	1		301.0	12.0	2.5	/experiments/knapen_aot/videos/R_S_yt-c5KPuyzO-50_4.mp4	0.0	158.1904799938202	2.5083420276641846
14	49.024333000183105	fix_post	2		12.0	12.0	2.5	/experiments/knapen_aot/videos/R_S_yt-c5KPuyzO-50_4.mp4	0.0	160.69882202148438	0.10002899169921875
15	49.124361991882324	fix_pre	0		33.0	13.0	2.5	/experiments/knapen_aot/videos/S_yt-h09NHEfoKb0_8.mp4	0.0	160.7988510131836	0.27488183975219727
15	49.39113092422485	response	0	2		13.0	2.5	/experiments/knapen_aot/videos/S_yt-h09NHEfoKb0_8.mp4	0.0	161.06561994552612	
15	49.39924383163452	movie	1		301.0	13.0	2.5	/experiments/knapen_aot/videos/S_yt-h09NHEfoKb0_8.mp4	0.0	161.0737328529358	2.5084450244903564
15	51.90768885612488	fix_post	2		12.0	13.0	2.5	/experiments/knapen_aot/videos/S_yt-h09NHEfoKb0_8.mp4	0.0	163.58217787742615	0.10018396377563477
16	52.00787281990051	fix_pre	0		25.0	14.0	2.5	blank	1.0	163.68236184120178	0.20808911323547363
16	52.20774984359741	response	0	2		14.0	2.5	blank	1.0	163.88223886489868	
16	52.215961933135986	movie	1		301.0	14.0	2.5	blank	1.0	163.89045095443726	2.508410930633545
16	54.72437286376953	fix_post	2		12.0	14.0	2.5	blank	1.0	166.3988618850708	0.10017514228820801
17	54.82454800605774	fix_pre	0		21.0	15.0	2.5	/experiments/knapen_aot/videos/S_yt-mJzkLd3Mr_c_35.mp4	0.0	166.499037027359	0.1752328872680664
17	54.9836368560791	response	0	2		15.0	2.5	/experiments/knapen_aot/videos/S_yt-mJzkLd3Mr_c_35.mp4	0.0	166.65812587738037	
17	54.999780893325806	movie	1		301.0	15.0	2.5	/experiments/knapen_aot/videos/S_yt-mJzkLd3Mr_c_35.mp4	0.0	166.67426991462708	2.5080370903015137
17	57.50781798362732	fix_post	2		12.0	15.0	2.5	/experiments/knapen_aot/videos/S_yt-mJzkLd3Mr_c_35.mp4	0.0	169.1823070049286	0.09982895851135254
18	57.60764694213867	fix_pre	0		41.0	16.0	2.5	/experiments/knapen_aot/videos/S_yt-pB9w3AA-woE_37.mp4	0.0	169.28213596343994	0.34163999557495117
18	57.94103789329529	response	0	2		16.0	2.5	/experiments/knapen_aot/videos/S_yt-pB9w3AA-woE_37.mp4	0.0	169.61552691459656	
18	57.94928693771362	movie	1		301.0	16.0	2.5	/experiments/knapen_aot/videos/S_yt-pB9w3AA-woE_37.mp4	0.0	169.6237759590149	2.5083999633789062
18	60.45768690109253	fix_post	2		12.0	16.0	2.5	/experiments/knapen_aot/videos/S_yt-pB9w3AA-woE_37.mp4	0.0	172.1321759223938	0.09995198249816895
19	60.5576388835907	fix_pre	0		102.0	17.0	2.5	/experiments/knapen_aot/videos/R_S_video-10.mp4	0.0	172.23212790489197	0.8499410152435303
19	61.39933395385742	response	0	2		17.0	2.5	/experiments/knapen_aot/videos/R_S_video-10.mp4	0.0	173.0738229751587	
19	61.40757989883423	movie	1		167.0	17.0	2.5	/experiments/knapen_aot/videos/R_S_video-10.mp4	0.0	173.0820689201355	2.508578062057495
19	63.916157960891724	fix_post	2		12.0	17.0	2.5	/experiments/knapen_aot/videos/R_S_video-10.mp4	0.0	175.590646982193	0.09980392456054688
20	64.01596188545227	fix_pre	0		24.0	18.0	2.5	/experiments/knapen_aot/videos/S_yt-7VVzNnp36DM_62.mp4	0.0	175.69045090675354	0.19992995262145996
20	64.20769095420837	response	0	2		18.0	2.5	/experiments/knapen_aot/videos/S_yt-7VVzNnp36DM_62.mp4	0.0	175.88217997550964	
20	64.21589183807373	movie	1		301.0	18.0	2.5	/experiments/knapen_aot/videos/S_yt-7VVzNnp36DM_62.mp4	0.0	175.890380859375	2.5083651542663574
20	66.72425699234009	fix_post	2		12.0	18.0	2.5	/experiments/knapen_aot/videos/S_yt-7VVzNnp36DM_62.mp4	0.0	178.39874601364136	0.09997391700744629
21	66.82423090934753	fix_pre	0		28.0	19.0	2.5	/experiments/knapen_aot/videos/R_S_yt-ObT9gF8E_tU_250.mp4	0.0	178.4987199306488	0.23334693908691406
21	67.04934883117676	response	0	2		19.0	2.5	/experiments/knapen_aot/videos/R_S_yt-ObT9gF8E_tU_250.mp4	0.0	178.72383785247803	
21	67.05757784843445	movie	1		301.0	19.0	2.5	/experiments/knapen_aot/videos/R_S_yt-ObT9gF8E_tU_250.mp4	0.0	178.73206686973572	2.50832200050354
21	69.56589984893799	fix_post	2		12.0	19.0	2.5	/experiments/knapen_aot/videos/R_S_yt-ObT9gF8E_tU_250.mp4	0.0	181.24038887023926	0.09995508193969727
22	69.66585493087769	fix_pre	0		32.0	20.0	2.5	/experiments/knapen_aot/videos/R_S_yt-zydTlQGCUjQ_277.mp4	0.0	181.34034395217896	0.2666969299316406
22	69.91680884361267	response	0	2		20.0	2.5	/experiments/knapen_aot/videos/R_S_yt-zydTlQGCUjQ_277.mp4	0.0	181.59129786491394	
22	69.93255186080933	movie	1		301.0	20.0	2.5	/experiments/knapen_aot/videos/R_S_yt-zydTlQGCUjQ_277.mp4	0.0	181.6070408821106	2.508319139480591
22	72.44087100028992	fix_post	2		12.0	20.0	2.5	/experiments/knapen_aot/videos/R_S_yt-zydTlQGCUjQ_277.mp4	0.0	184.1153600215912	0.10001492500305176
23	72.54088592529297	fix_pre	0		182.0	21.0	2.5	blank	1.0	184.21537494659424	1.5167639255523682
23	74.04181289672852	response	0	2		21.0	2.5	blank	1.0	185.71630191802979	
23	74.05764985084534	movie	1		301.0	21.0	2.5	blank	1.0	185.7321388721466	2.508165121078491
23	76.56581497192383	fix_post	2		12.0	21.0	2.5	blank	1.0	188.2403039932251	0.1000819206237793
24	76.66589689254761	fix_pre	0		25.0	22.0	2.5	/experiments/knapen_aot/videos/R_S_yt-JG2OY_7B-gI_537.mp4	0.0	188.34038591384888	0.20865392684936523
24	76.86592483520508	response	0	2		22.0	2.5	/experiments/knapen_aot/videos/R_S_yt-JG2OY_7B-gI_537.mp4	0.0	188.54041385650635	
24	76.87455081939697	movie	1		301.0	22.0	2.5	/experiments/knapen_aot/videos/R_S_yt-JG2OY_7B-gI_537.mp4	0.0	188.54903984069824	2.5082080364227295
24	79.3827588558197	fix_post	2		12.0	22.0	2.5	/experiments/knapen_aot/videos/R_S_yt-JG2OY_7B-gI_537.mp4	0.0	191.05724787712097	0.09976005554199219
25	79.4825189113617	fix_pre	0		19.0	23.0	2.5	/experiments/knapen_aot/videos/R_S_yt-uE9XoCLZlFo_1.mp4	0.0	191.15700793266296	0.1583409309387207
25	79.63253998756409	response	0	2		23.0	2.5	/experiments/knapen_aot/videos/R_S_yt-uE9XoCLZlFo_1.mp4	0.0	191.30702900886536	
25	79.64085984230042	movie	1		301.0	23.0	2.5	/experiments/knapen_aot/videos/R_S_yt-uE9XoCLZlFo_1.mp4	0.0	191.31534886360168	2.5083329677581787
25	82.1491928100586	fix_post	2		12.0	23.0	2.5	/experiments/knapen_aot/videos/R_S_yt-uE9XoCLZlFo_1.mp4	0.0	193.82368183135986	0.10008406639099121
26	82.24927687644958	fix_pre	0		17.0	24.0	2.5	/experiments/knapen_aot/videos/R_S_yt-CRw9-cCQqbg_332.mp4	0.0	193.92376589775085	0.14154911041259766
26	82.38260102272034	response	0	2		24.0	2.5	/experiments/knapen_aot/videos/R_S_yt-CRw9-cCQqbg_332.mp4	0.0	194.0570900440216	
26	82.39082598686218	movie	1		301.0	24.0	2.5	/experiments/knapen_aot/videos/R_S_yt-CRw9-cCQqbg_332.mp4	0.0	194.06531500816345	2.5083649158477783
26	84.89919090270996	fix_post	2		12.0	24.0	2.5	/experiments/knapen_aot/videos/R_S_yt-CRw9-cCQqbg_332.mp4	0.0	196.57367992401123	0.1003870964050293
27	84.99957799911499	fix_pre	0		12.0	25.0	2.5	/experiments/knapen_aot/videos/R_S_ILSVRC2015_train_00067005.mp4	0.0	196.67406702041626	0.09958481788635254
27	85.09101796150208	response	0	2		25.0	2.5	/experiments/knapen_aot/videos/R_S_ILSVRC2015_train_00067005.mp4	0.0	196.76550698280334	
27	85.09916281700134	movie	1		301.0	25.0	2.5	/experiments/knapen_aot/videos/R_S_ILSVRC2015_train_00067005.mp4	0.0	196.7736518383026	2.5083460807800293
27	87.60750889778137	fix_post	2		12.0	25.0	2.5	/experiments/knapen_aot/videos/R_S_ILSVRC2015_train_00067005.mp4	0.0	199.28199791908264	0.1003570556640625
28	87.70786595344543	fix_pre	0		150.0	26.0	2.5	/experiments/knapen_aot/videos/S_ILSVRC2015_train_00001011.mp4	0.0	199.3823549747467	1.2499620914459229
28	88.94927787780762	response	0	2		26.0	2.5	/experiments/knapen_aot/videos/S_ILSVRC2015_train_00001011.mp4	0.0	200.6237668991089	
28	88.95782804489136	movie	1		301.0	26.0	2.5	/experiments/knapen_aot/videos/S_ILSVRC2015_train_00001011.mp4	0.0	200.63231706619263	2.5080678462982178
28	91.46589589118958	fix_post	2		12.0	26.0	2.5	/experiments/knapen_aot/videos/S_ILSVRC2015_train_00001011.mp4	0.0	203.14038491249084	0.10008811950683594
29	91.56598401069641	fix_pre	0		82.0	27.0	2.5	blank	1.0	203.24047303199768	0.6834180355072021
29	92.24088382720947	response	0	2		27.0	2.5	blank	1.0	203.91537284851074	
29	92.24940204620361	movie	1		301.0	27.0	2.5	blank	1.0	203.92389106750488	2.508037805557251
29	94.75743985176086	fix_post	2		12.0	27.0	2.5	blank	1.0	206.43192887306213	0.10002803802490234
30	94.85746788978577	fix_pre	0		96.0	28.0	2.5	/experiments/knapen_aot/videos/R_S_yt-h09NHEfoKb0_8.mp4	0.0	206.53195691108704	0.7999660968780518
30	95.64928793907166	response	0	2		28.0	2.5	/experiments/knapen_aot/videos/R_S_yt-h09NHEfoKb0_8.mp4	0.0	207.32377696037292	
30	95.65743398666382	movie	1		301.0	28.0	2.5	/experiments/knapen_aot/videos/R_S_yt-h09NHEfoKb0_8.mp4	0.0	207.3319230079651	2.5082828998565674
30	98.16571688652039	fix_post	2		12.0	28.0	2.5	/experiments/knapen_aot/videos/R_S_yt-h09NHEfoKb0_8.mp4	0.0	209.84020590782166	0.10003995895385742
31	98.26575684547424	fix_pre	0		71.0	29.0	2.5	/experiments/knapen_aot/videos/S_yt-xQilXyNKsBw_42.mp4	0.0	209.9402458667755	0.5917069911956787
31	98.84926700592041	response	0	2		29.0	2.5	/experiments/knapen_aot/videos/S_yt-xQilXyNKsBw_42.mp4	0.0	210.52375602722168	
31	98.85746383666992	movie	1		301.0	29.0	2.5	/experiments/knapen_aot/videos/S_yt-xQilXyNKsBw_42.mp4	0.0	210.5319528579712	2.508207082748413
31	101.36567091941833	fix_post	2		12.0	29.0	2.5	/experiments/knapen_aot/videos/S_yt-xQilXyNKsBw_42.mp4	0.0	213.0401599407196	0.10010004043579102
32	101.46577095985413	fix_pre	0		145.0	30.0	2.5	/experiments/knapen_aot/videos/S_yt-zhQ32_OayBQ_39.mp4	0.0	213.1402599811554	1.208292007446289
32	102.66588282585144	response	0	2		30.0	2.5	/experiments/knapen_aot/videos/S_yt-zhQ32_OayBQ_39.mp4	0.0	214.3403718471527	
32	102.67406296730042	movie	1		301.0	30.0	2.5	/experiments/knapen_aot/videos/S_yt-zhQ32_OayBQ_39.mp4	0.0	214.34855198860168	2.5083799362182617
32	105.18244290351868	fix_post	2		12.0	30.0	2.5	/experiments/knapen_aot/videos/S_yt-zhQ32_OayBQ_39.mp4	0.0	216.85693192481995	0.10001802444458008
33	105.28246092796326	fix_pre	0		51.0	31.0	2.5	/experiments/knapen_aot/videos/R_S_yt-feTWuKPZA_k_34.mp4	0.0	216.95694994926453	0.4250829219818115
33	105.69922995567322	response	0	2		31.0	2.5	/experiments/knapen_aot/videos/R_S_yt-feTWuKPZA_k_34.mp4	0.0	217.3737189769745	
33	105.70754384994507	movie	1		301.0	31.0	2.5	/experiments/knapen_aot/videos/R_S_yt-feTWuKPZA_k_34.mp4	0.0	217.38203287124634	2.508151054382324
33	108.21569490432739	fix_post	2		12.0	31.0	2.5	/experiments/knapen_aot/videos/R_S_yt-feTWuKPZA_k_34.mp4	0.0	219.89018392562866	0.10005998611450195
34	108.3157548904419	fix_pre	0		47.0	32.0	2.5	/experiments/knapen_aot/videos/S_yt-feTWuKPZA_k_34.mp4	0.0	219.99024391174316	0.39183592796325684
34	108.69918584823608	response	0	2		32.0	2.5	/experiments/knapen_aot/videos/S_yt-feTWuKPZA_k_34.mp4	0.0	220.37367486953735	
34	108.70759081840515	movie	1		301.0	32.0	2.5	/experiments/knapen_aot/videos/S_yt-feTWuKPZA_k_34.mp4	0.0	220.38207983970642	2.508162021636963
34	111.21575284004211	fix_post	2		12.0	32.0	2.5	/experiments/knapen_aot/videos/S_yt-feTWuKPZA_k_34.mp4	0.0	222.89024186134338	0.09991312026977539
35	111.31566596031189	fix_pre	0		36.0	33.0	2.5	blank	1.0	222.99015498161316	0.30007386207580566
35	111.60006403923035	response	0	2		33.0	2.5	blank	1.0	223.27455306053162	
35	111.6157398223877	movie	1		301.0	33.0	2.5	blank	1.0	223.29022884368896	2.5083000659942627
35	114.12403988838196	fix_post	2		12.0	33.0	2.5	blank	1.0	225.79852890968323	0.09999394416809082
36	114.22403383255005	fix_pre	0		123.0	34.0	2.5	/experiments/knapen_aot/videos/R_S_yt-nQu-PAXBv2g_5.mp4	0.0	225.89852285385132	1.0251500606536865
36	115.24086284637451	response	0	2		34.0	2.5	/experiments/knapen_aot/videos/R_S_yt-nQu-PAXBv2g_5.mp4	0.0	226.91535186767578	
36	115.24918389320374	movie	1		301.0	34.0	2.5	/experiments/knapen_aot/videos/R_S_yt-nQu-PAXBv2g_5.mp4	0.0	226.923672914505	2.5082080364227295
36	117.75739192962646	fix_post	2		12.0	34.0	2.5	/experiments/knapen_aot/videos/R_S_yt-nQu-PAXBv2g_5.mp4	0.0	229.43188095092773	0.09996604919433594
37	117.8573579788208	fix_pre	0		59.0	35.0	2.5	/experiments/knapen_aot/videos/S_ILSVRC2015_train_00601000.mp4	0.0	229.53184700012207	0.49169397354125977
37	118.3407928943634	response	0	2		35.0	2.5	/experiments/knapen_aot/videos/S_ILSVRC2015_train_00601000.mp4	0.0	230.01528191566467	
37	118.34905195236206	movie	1		301.0	35.0	2.5	/experiments/knapen_aot/videos/S_ILSVRC2015_train_00601000.mp4	0.0	230.02354097366333	2.508293867111206
37	120.85734581947327	fix_post	2		12.0	35.0	2.5	/experiments/knapen_aot/videos/S_ILSVRC2015_train_00601000.mp4	0.0	232.53183484077454	0.10022711753845215
38	120.95757293701172	fix_pre	0		40.0	36.0	2.5	/experiments/knapen_aot/videos/S_yt-UBqUhu-GEVg_6.mp4	0.0	232.632061958313	0.33321094512939453
38	121.28239703178406	response	0	2		36.0	2.5	/experiments/knapen_aot/videos/S_yt-UBqUhu-GEVg_6.mp4	0.0	232.95688605308533	
38	121.29078388214111	movie	1		301.0	36.0	2.5	/experiments/knapen_aot/videos/S_yt-UBqUhu-GEVg_6.mp4	0.0	232.96527290344238	2.508255958557129
38	123.79903984069824	fix_post	2		12.0	36.0	2.5	/experiments/knapen_aot/videos/S_yt-UBqUhu-GEVg_6.mp4	0.0	235.4735288619995	0.09998202323913574
39	123.89902186393738	fix_pre	0		51.0	37.0	2.5	/experiments/knapen_aot/videos/R_S_comp_GMT329_113NC_396B_1105_ITALY_v03_SDR_FINAL_20180706_SDR_2K_AVC.mp4	0.0	235.57351088523865	0.4249730110168457
39	124.31576299667358	response	0	2		37.0	2.5	/experiments/knapen_aot/videos/R_S_comp_GMT329_113NC_396B_1105_ITALY_v03_SDR_FINAL_20180706_SDR_2K_AVC.mp4	0.0	235.99025201797485	
39	124.32399487495422	movie	1		165.0	37.0	2.5	/experiments/knapen_aot/videos/R_S_comp_GMT329_113NC_396B_1105_ITALY_v03_SDR_FINAL_20180706_SDR_2K_AVC.mp4	0.0	235.9984838962555	2.508492946624756
39	126.83248782157898	fix_post	2		12.0	37.0	2.5	/experiments/knapen_aot/videos/R_S_comp_GMT329_113NC_396B_1105_ITALY_v03_SDR_FINAL_20180706_SDR_2K_AVC.mp4	0.0	238.50697684288025	0.09978413581848145
40	126.93227195739746	fix_pre	0		64.0	38.0	2.5	/experiments/knapen_aot/videos/R_S_yt-MEfljVFL0xw_375.mp4	0.0	238.60676097869873	0.5333330631256104
40	127.45761585235596	response	0	2		38.0	2.5	/experiments/knapen_aot/videos/R_S_yt-MEfljVFL0xw_375.mp4	0.0	239.13210487365723	
40	127.46560502052307	movie	1		301.0	38.0	2.5	/experiments/knapen_aot/videos/R_S_yt-MEfljVFL0xw_375.mp4	0.0	239.14009404182434	2.5083248615264893
40	129.97392988204956	fix_post	2		12.0	38.0	2.5	/experiments/knapen_aot/videos/R_S_yt-MEfljVFL0xw_375.mp4	0.0	241.64841890335083	0.10007715225219727
41	130.07400703430176	fix_pre	0		365.0	39.0	2.5	/experiments/knapen_aot/videos/R_S_yt-q9kT_c9QjbQ_34.mp4	0.0	241.74849605560303	3.0415430068969727
41	133.09984493255615	response	0	2		39.0	2.5	/experiments/knapen_aot/videos/R_S_yt-q9kT_c9QjbQ_34.mp4	0.0	244.77433395385742	
41	133.11555004119873	movie	1		301.0	39.0	2.5	/experiments/knapen_aot/videos/R_S_yt-q9kT_c9QjbQ_34.mp4	0.0	244.7900390625	2.5086209774017334
41	135.62417101860046	fix_post	2		12.0	39.0	2.5	/experiments/knapen_aot/videos/R_S_yt-q9kT_c9QjbQ_34.mp4	0.0	247.29866003990173	0.0997929573059082
42	135.72396397590637	fix_pre	0		13.0	40.0	2.5	/experiments/knapen_aot/videos/S_yt-MEfljVFL0xw_375.mp4	0.0	247.39845299720764	0.10837602615356445
42	135.82407999038696	response	0	2		40.0	2.5	/experiments/knapen_aot/videos/S_yt-MEfljVFL0xw_375.mp4	0.0	247.49856901168823	
42	135.83234000205994	movie	1		301.0	40.0	2.5	/experiments/knapen_aot/videos/S_yt-MEfljVFL0xw_375.mp4	0.0	247.5068290233612	2.5082600116729736
42	138.3406000137329	fix_post	2		12.0	40.0	2.5	/experiments/knapen_aot/videos/S_yt-MEfljVFL0xw_375.mp4	0.0	250.01508903503418	0.09998297691345215
43	138.44058299064636	fix_pre	0		11.0	41.0	2.5	blank	1.0	250.11507201194763	0.09169697761535645
43	138.51660203933716	response	0	2		41.0	2.5	blank	1.0	250.19109106063843	
43	138.53227996826172	movie	1		301.0	41.0	2.5	blank	1.0	250.206768989563	2.5084588527679443
43	141.04073882102966	fix_post	2		12.0	41.0	2.5	blank	1.0	252.71522784233093	0.09998011589050293
44	141.14071893692017	fix_pre	0		56.0	42.0	2.5	/experiments/knapen_aot/videos/R_S_comp_GL_G010_C006_PSNK_NOSUN_v12_SDR_PS_FINAL_20180709_SDR_2K_AVC.mp4	0.0	252.81520795822144	0.4664590358734131
44	141.5990400314331	response	0	2		42.0	2.5	/experiments/knapen_aot/videos/R_S_comp_GL_G010_C006_PSNK_NOSUN_v12_SDR_PS_FINAL_20180709_SDR_2K_AVC.mp4	0.0	253.27352905273438	
44	141.60717797279358	movie	1		168.0	42.0	2.5	/experiments/knapen_aot/videos/R_S_comp_GL_G010_C006_PSNK_NOSUN_v12_SDR_PS_FINAL_20180709_SDR_2K_AVC.mp4	0.0	253.28166699409485	2.5085060596466064
44	144.11568403244019	fix_post	2		12.0	42.0	2.5	/experiments/knapen_aot/videos/R_S_comp_GL_G010_C006_PSNK_NOSUN_v12_SDR_PS_FINAL_20180709_SDR_2K_AVC.mp4	0.0	255.79017305374146	0.09990382194519043
45	144.21558785438538	fix_pre	0		15.0	43.0	2.5	/experiments/knapen_aot/videos/S_ILSVRC2015_train_00587000.mp4	0.0	255.89007687568665	0.12491297721862793
45	144.33232498168945	response	0	2		43.0	2.5	/experiments/knapen_aot/videos/S_ILSVRC2015_train_00587000.mp4	0.0	256.0068140029907	
45	144.340500831604	movie	1		301.0	43.0	2.5	/experiments/knapen_aot/videos/S_ILSVRC2015_train_00587000.mp4	0.0	256.0149898529053	2.5085442066192627
45	146.84904503822327	fix_post	2		12.0	43.0	2.5	/experiments/knapen_aot/videos/S_ILSVRC2015_train_00587000.mp4	0.0	258.52353405952454	0.09986090660095215
46	146.94890594482422	fix_pre	0		18.0	44.0	2.5	/experiments/knapen_aot/videos/S_yt-he_RSdeVinA_68.mp4	0.0	258.6233949661255	0.14997506141662598
46	147.0906858444214	response	0	2		44.0	2.5	/experiments/knapen_aot/videos/S_yt-he_RSdeVinA_68.mp4	0.0	258.76517486572266	
46	147.09888100624084	movie	1		301.0	44.0	2.5	/experiments/knapen_aot/videos/S_yt-he_RSdeVinA_68.mp4	0.0	258.7733700275421	2.508327007293701
46	149.60720801353455	fix_post	2		12.0	44.0	2.5	/experiments/knapen_aot/videos/S_yt-he_RSdeVinA_68.mp4	0.0	261.2816970348358	0.10006284713745117
47	149.707270860672	fix_pre	0		22.0	45.0	2.5	/experiments/knapen_aot/videos/R_S_yt-Z4W6l0eZza4_6.mp4	0.0	261.38175988197327	0.18325209617614746
47	149.88237285614014	response	0	2		45.0	2.5	/experiments/knapen_aot/videos/R_S_yt-Z4W6l0eZza4_6.mp4	0.0	261.5568618774414	
47	149.89052295684814	movie	1		301.0	45.0	2.5	/experiments/knapen_aot/videos/R_S_yt-Z4W6l0eZza4_6.mp4	0.0	261.5650119781494	2.5083670616149902
47	152.39889001846313	fix_post	2		12.0	45.0	2.5	/experiments/knapen_aot/videos/R_S_yt-Z4W6l0eZza4_6.mp4	0.0	264.0733790397644	0.10007596015930176
48	152.49896597862244	fix_pre	0		288.0	46.0	2.5	/experiments/knapen_aot/videos/S_yt-fQgLKiz2tuM_14.mp4	0.0	264.1734549999237	2.3999340534210205
48	154.89065194129944	response	0	2		46.0	2.5	/experiments/knapen_aot/videos/S_yt-fQgLKiz2tuM_14.mp4	0.0	266.5651409626007	
48	154.89890003204346	movie	1		301.0	46.0	2.5	/experiments/knapen_aot/videos/S_yt-fQgLKiz2tuM_14.mp4	0.0	266.5733890533447	2.5082848072052
48	157.40718483924866	fix_post	2		12.0	46.0	2.5	/experiments/knapen_aot/videos/S_yt-fQgLKiz2tuM_14.mp4	0.0	269.0816738605499	0.10004305839538574
49	157.50722789764404	fix_pre	0		23.0	47.0	2.5	/experiments/knapen_aot/videos/S_yt-giRwl4yChlw_9.mp4	0.0	269.1817169189453	0.19161605834960938
49	157.69067692756653	response	0	2		47.0	2.5	/experiments/knapen_aot/videos/S_yt-giRwl4yChlw_9.mp4	0.0	269.3651659488678	
49	157.69884395599365	movie	1		301.0	47.0	2.5	/experiments/knapen_aot/videos/S_yt-giRwl4yChlw_9.mp4	0.0	269.3733329772949	2.5083119869232178
49	160.20715594291687	fix_post	2		12.0	47.0	2.5	/experiments/knapen_aot/videos/S_yt-giRwl4yChlw_9.mp4	0.0	271.88164496421814	0.0999760627746582
50	160.30713200569153	fix_pre	0		39.0	48.0	2.5	blank	1.0	271.9816210269928	0.3251199722290039
50	160.6239719390869	response	0	2		48.0	2.5	blank	1.0	272.2984609603882	
50	160.63225197792053	movie	1		301.0	48.0	2.5	blank	1.0	272.3067409992218	2.5082640647888184
50	163.14051604270935	fix_post	2		12.0	48.0	2.5	blank	1.0	274.8150050640106	0.10008978843688965
51	163.24060583114624	fix_pre	0		50.0	49.0	2.5	/experiments/knapen_aot/videos/R_S_ILSVRC2015_train_00559000.mp4	0.0	274.9150948524475	0.41655516624450684
51	163.64885187149048	response	0	2		49.0	2.5	/experiments/knapen_aot/videos/R_S_ILSVRC2015_train_00559000.mp4	0.0	275.32334089279175	
51	163.65716099739075	movie	1		301.0	49.0	2.5	/experiments/knapen_aot/videos/R_S_ILSVRC2015_train_00559000.mp4	0.0	275.331650018692	2.508373975753784
51	166.16553497314453	fix_post	2		12.0	49.0	2.5	/experiments/knapen_aot/videos/R_S_ILSVRC2015_train_00559000.mp4	0.0	277.8400239944458	0.09996390342712402
52	166.26549887657166	fix_pre	0		37.0	50.0	2.5	/experiments/knapen_aot/videos/S_ILSVRC2015_train_00574004.mp4	0.0	277.9399878978729	0.3083610534667969
52	166.5655918121338	response	0	2		50.0	2.5	/experiments/knapen_aot/videos/S_ILSVRC2015_train_00574004.mp4	0.0	278.24008083343506	
52	166.57385993003845	movie	1		301.0	50.0	2.5	/experiments/knapen_aot/videos/S_ILSVRC2015_train_00574004.mp4	0.0	278.2483489513397	2.508327007293701
52	169.08218693733215	fix_post	2		12.0	50.0	2.5	/experiments/knapen_aot/videos/S_ILSVRC2015_train_00574004.mp4	0.0	280.7566759586334	0.09994697570800781
53	169.18213391304016	fix_pre	0		41.0	51.0	2.5	/experiments/knapen_aot/videos/R_S_yt-9Ow95khYa_M_91.mp4	0.0	280.85662293434143	0.3417079448699951
53	169.51564002037048	response	0	2		51.0	2.5	/experiments/knapen_aot/videos/R_S_yt-9Ow95khYa_M_91.mp4	0.0	281.19012904167175	
53	169.52384185791016	movie	1		301.0	51.0	2.5	/experiments/knapen_aot/videos/R_S_yt-9Ow95khYa_M_91.mp4	0.0	281.1983308792114	2.5083160400390625
53	172.03215789794922	fix_post	2		12.0	51.0	2.5	/experiments/knapen_aot/videos/R_S_yt-9Ow95khYa_M_91.mp4	0.0	283.7066469192505	0.09995508193969727
54	172.13211297988892	fix_pre	0		103.0	52.0	2.5	/experiments/knapen_aot/videos/R_S_yt-Gam0NeyyG8w_22.mp4	0.0	283.8066020011902	0.8596670627593994
54	172.98226499557495	response	0	2		52.0	2.5	/experiments/knapen_aot/videos/R_S_yt-Gam0NeyyG8w_22.mp4	0.0	284.6567540168762	
54	172.99178004264832	movie	1		301.0	52.0	2.5	/experiments/knapen_aot/videos/R_S_yt-Gam0NeyyG8w_22.mp4	0.0	284.6662690639496	2.5070059299468994
54	175.49878597259521	fix_post	2		12.0	52.0	2.5	/experiments/knapen_aot/videos/R_S_yt-Gam0NeyyG8w_22.mp4	0.0	287.1732749938965	0.10019803047180176
55	175.59898400306702	fix_pre	0		57.0	53.0	2.5	/experiments/knapen_aot/videos/S_ILSVRC2015_train_00405001.mp4	0.0	287.2734730243683	0.4747648239135742
55	176.06561183929443	response	0	2		53.0	2.5	/experiments/knapen_aot/videos/S_ILSVRC2015_train_00405001.mp4	0.0	287.7401008605957	
55	176.0737488269806	movie	1		301.0	53.0	2.5	/experiments/knapen_aot/videos/S_ILSVRC2015_train_00405001.mp4	0.0	287.74823784828186	2.5083961486816406
55	178.58214497566223	fix_post	2		12.0	53.0	2.5	/experiments/knapen_aot/videos/S_ILSVRC2015_train_00405001.mp4	0.0	290.2566339969635	0.09995794296264648
56	178.68210291862488	fix_pre	0		43.0	54.0	2.5	blank	1.0	290.35659193992615	0.35829591751098633
56	179.03220391273499	response	0	2		54.0	2.5	blank	1.0	290.70669293403625	
56	179.04039883613586	movie	1		301.0	54.0	2.5	blank	1.0	290.71488785743713	2.50833797454834
56	181.5487368106842	fix_post	2		12.0	54.0	2.5	blank	1.0	293.2232258319855	0.10004115104675293
57	181.64877796173096	fix_pre	0		36.0	55.0	2.5	/experiments/knapen_aot/videos/S_yt-l_pvPAznG1A_20.mp4	0.0	293.3232669830322	0.2999229431152344
57	181.94051694869995	response	0	2		55.0	2.5	/experiments/knapen_aot/videos/S_yt-l_pvPAznG1A_20.mp4	0.0	293.6150059700012	
57	181.9487009048462	movie	1		301.0	55.0	2.5	/experiments/knapen_aot/videos/S_yt-l_pvPAznG1A_20.mp4	0.0	293.62318992614746	2.5083439350128174
57	184.457044839859	fix_post	2		12.0	55.0	2.5	/experiments/knapen_aot/videos/S_yt-l_pvPAznG1A_20.mp4	0.0	296.1315338611603	0.10012602806091309
58	184.55717086791992	fix_pre	0		10.0	56.0	2.5	/experiments/knapen_aot/videos/R_S_wc-0SAXOWjdNVGC_8.mp4	0.0	296.2316598892212	0.08320403099060059
58	184.62470483779907	response	0	2		56.0	2.5	/experiments/knapen_aot/videos/R_S_wc-0SAXOWjdNVGC_8.mp4	0.0	296.29919385910034	
58	184.64037489891052	movie	1		163.0	56.0	2.5	/experiments/knapen_aot/videos/R_S_wc-0SAXOWjdNVGC_8.mp4	0.0	296.3148639202118	2.508341073989868
58	187.1487159729004	fix_post	2		12.0	56.0	2.5	/experiments/knapen_aot/videos/R_S_wc-0SAXOWjdNVGC_8.mp4	0.0	298.82320499420166	0.10003304481506348
59	187.24874901771545	fix_pre	0		14.0	57.0	2.5	/experiments/knapen_aot/videos/S_yt-OEY9O2MglQM_7.mp4	0.0	298.9232380390167	0.11793088912963867
59	187.35718297958374	response	0	2		57.0	2.5	/experiments/knapen_aot/videos/S_yt-OEY9O2MglQM_7.mp4	0.0	299.031672000885	
59	187.3666799068451	movie	1		301.0	57.0	2.5	/experiments/knapen_aot/videos/S_yt-OEY9O2MglQM_7.mp4	0.0	299.04116892814636	2.507404088973999
59	189.8740839958191	fix_post	2		12.0	57.0	2.5	/experiments/knapen_aot/videos/S_yt-OEY9O2MglQM_7.mp4	0.0	301.54857301712036	0.09981393814086914
60	189.97389793395996	fix_pre	0		28.0	58.0	2.5	/experiments/knapen_aot/videos/R_S_comp_LW_L001_C006_PSNK_DENOISE_v02_SDR_PS_FINAL_20180709_SDR_2K_AVC.mp4	0.0	301.64838695526123	0.2331230640411377
60	190.19881081581116	response	0	2		58.0	2.5	/experiments/knapen_aot/videos/R_S_comp_LW_L001_C006_PSNK_DENOISE_v02_SDR_PS_FINAL_20180709_SDR_2K_AVC.mp4	0.0	301.8732998371124	
60	190.2070209980011	movie	1		168.0	58.0	2.5	/experiments/knapen_aot/videos/R_S_comp_LW_L001_C006_PSNK_DENOISE_v02_SDR_PS_FINAL_20180709_SDR_2K_AVC.mp4	0.0	301.88151001930237	2.508368968963623
60	192.71538996696472	fix_post	2		12.0	58.0	2.5	/experiments/knapen_aot/videos/R_S_comp_LW_L001_C006_PSNK_DENOISE_v02_SDR_PS_FINAL_20180709_SDR_2K_AVC.mp4	0.0	304.389878988266	0.0999748706817627
61	192.81536483764648	fix_pre	0		35.0	59.0	2.5	/experiments/knapen_aot/videos/S_yt-o_CT2MjZ9fA_216.mp4	0.0	304.48985385894775	0.2916221618652344
61	193.09878301620483	response	0	2		59.0	2.5	/experiments/knapen_aot/videos/S_yt-o_CT2MjZ9fA_216.mp4	0.0	304.7732720375061	
61	193.10698699951172	movie	1		301.0	59.0	2.5	/experiments/knapen_aot/videos/S_yt-o_CT2MjZ9fA_216.mp4	0.0	304.781476020813	2.5087080001831055
61	195.61569499969482	fix_post	2		12.0	59.0	2.5	/experiments/knapen_aot/videos/S_yt-o_CT2MjZ9fA_216.mp4	0.0	307.2901840209961	0.09966397285461426
62	195.71535897254944	fix_pre	0		25.0	60.0	2.5	/experiments/knapen_aot/videos/R_S_yt-Dlk44AGz-xM_37.mp4	0.0	307.3898479938507	0.20827698707580566
62	195.91553902626038	response	0	2		60.0	2.5	/experiments/knapen_aot/videos/R_S_yt-Dlk44AGz-xM_37.mp4	0.0	307.59002804756165	
62	195.92363595962524	movie	1		301.0	60.0	2.5	/experiments/knapen_aot/videos/R_S_yt-Dlk44AGz-xM_37.mp4	0.0	307.5981249809265	2.508476972579956
62	198.4321129322052	fix_post	2		12.0	60.0	2.5	/experiments/knapen_aot/videos/R_S_yt-Dlk44AGz-xM_37.mp4	0.0	310.10660195350647	0.10001897811889648
63	198.5321319103241	fix_pre	0		42.0	61.0	2.5	blank	1.0	310.20662093162537	0.3499000072479248
63	198.87380695343018	response	0	2		61.0	2.5	blank	1.0	310.54829597473145	
63	198.88203191757202	movie	1		301.0	61.0	2.5	blank	1.0	310.5565209388733	2.5083138942718506
63	201.39034581184387	fix_post	2		12.0	61.0	2.5	blank	1.0	313.06483483314514	0.1002810001373291
64	201.4906268119812	fix_pre	0		43.0	62.0	2.5	/experiments/knapen_aot/videos/S_ILSVRC2015_train_00469000.mp4	0.0	313.16511583328247	0.35797619819641113
64	201.84044098854065	response	0	2		62.0	2.5	/experiments/knapen_aot/videos/S_ILSVRC2015_train_00469000.mp4	0.0	313.5149300098419	
64	201.8486030101776	movie	1		301.0	62.0	2.5	/experiments/knapen_aot/videos/S_ILSVRC2015_train_00469000.mp4	0.0	313.5230920314789	2.5083348751068115
64	204.35693788528442	fix_post	2		12.0	62.0	2.5	/experiments/knapen_aot/videos/S_ILSVRC2015_train_00469000.mp4	0.0	316.0314269065857	0.10004806518554688
65	204.45698595046997	fix_pre	0		15.0	63.0	2.5	/experiments/knapen_aot/videos/S_yt-fymgyhmYnMI_76.mp4	0.0	316.13147497177124	0.12496805191040039
65	204.57392001152039	response	0	2		63.0	2.5	/experiments/knapen_aot/videos/S_yt-fymgyhmYnMI_76.mp4	0.0	316.24840903282166	
65	204.58195400238037	movie	1		301.0	63.0	2.5	/experiments/knapen_aot/videos/S_yt-fymgyhmYnMI_76.mp4	0.0	316.25644302368164	2.5086328983306885
65	207.09058690071106	fix_post	2		12.0	63.0	2.5	/experiments/knapen_aot/videos/S_yt-fymgyhmYnMI_76.mp4	0.0	318.76507592201233	0.09973692893981934
66	207.19032382965088	fix_pre	0		32.0	64.0	2.5	/experiments/knapen_aot/videos/S_yt-nQu-PAXBv2g_5.mp4	0.0	318.86481285095215	0.26661109924316406
66	207.4486539363861	response	0	2		64.0	2.5	/experiments/knapen_aot/videos/S_yt-nQu-PAXBv2g_5.mp4	0.0	319.1231429576874	
66	207.45693492889404	movie	1		301.0	64.0	2.5	/experiments/knapen_aot/videos/S_yt-nQu-PAXBv2g_5.mp4	0.0	319.1314239501953	2.508341073989868
66	209.9652760028839	fix_post	2		12.0	64.0	2.5	/experiments/knapen_aot/videos/S_yt-nQu-PAXBv2g_5.mp4	0.0	321.6397650241852	0.1000509262084961
67	210.0653269290924	fix_pre	0		55.0	65.0	2.5	/experiments/knapen_aot/videos/S_yt-j3Sk8ZnAiEA_32.mp4	0.0	321.7398159503937	0.4583420753479004
67	210.51537489891052	response	0	2		65.0	2.5	/experiments/knapen_aot/videos/S_yt-j3Sk8ZnAiEA_32.mp4	0.0	322.1898639202118	
67	210.5236690044403	movie	1		301.0	65.0	2.5	/experiments/knapen_aot/videos/S_yt-j3Sk8ZnAiEA_32.mp4	0.0	322.1981580257416	2.508405923843384
67	213.0320749282837	fix_post	2		12.0	65.0	2.5	/experiments/knapen_aot/videos/S_yt-j3Sk8ZnAiEA_32.mp4	0.0	324.70656394958496	0.09989595413208008
68	213.13197088241577	fix_pre	0		307.0	66.0	2.5	/experiments/knapen_aot/videos/S_ILSVRC2015_train_00415005.mp4	0.0	324.80645990371704	2.558241128921509
68	215.6820478439331	response	0	2		66.0	2.5	/experiments/knapen_aot/videos/S_ILSVRC2015_train_00415005.mp4	0.0	327.3565368652344	
68	215.69021201133728	movie	1		301.0	66.0	2.5	/experiments/knapen_aot/videos/S_ILSVRC2015_train_00415005.mp4	0.0	327.36470103263855	2.5084028244018555
68	218.19861483573914	fix_post	2		12.0	66.0	2.5	/experiments/knapen_aot/videos/S_ILSVRC2015_train_00415005.mp4	0.0	329.8731038570404	0.09993505477905273
69	218.2985498905182	fix_pre	0		74.0	67.0	2.5	/experiments/knapen_aot/videos/R_S_yt-3ohvpS42xug_184.mp4	0.0	329.97303891181946	0.6167199611663818
69	218.9070508480072	response	0	2		67.0	2.5	/experiments/knapen_aot/videos/R_S_yt-3ohvpS42xug_184.mp4	0.0	330.5815398693085	
69	218.91526985168457	movie	1		301.0	67.0	2.5	/experiments/knapen_aot/videos/R_S_yt-3ohvpS42xug_184.mp4	0.0	330.58975887298584	2.508665084838867
69	221.42393493652344	fix_post	2		12.0	67.0	2.5	/experiments/knapen_aot/videos/R_S_yt-3ohvpS42xug_184.mp4	0.0	333.0984239578247	0.09980106353759766
70	221.52373600006104	fix_pre	0		36.0	68.0	2.5	blank	1.0	333.1982250213623	0.29979491233825684
70	221.81525897979736	response	0	2		68.0	2.5	blank	1.0	333.48974800109863	
70	221.8235309123993	movie	1		301.0	68.0	2.5	blank	1.0	333.49801993370056	2.508384943008423
70	224.33191585540771	fix_post	2		12.0	68.0	2.5	blank	1.0	336.006404876709	0.1001131534576416
71	224.43202900886536	fix_pre	0		173.0	69.0	2.5	/experiments/knapen_aot/videos/R_S_production_ID_4510622.mp4	0.0	336.1065180301666	1.4414949417114258
71	225.86542391777039	response	0	2		69.0	2.5	/experiments/knapen_aot/videos/R_S_production_ID_4510622.mp4	0.0	337.53991293907166	
71	225.87352395057678	movie	1		168.0	69.0	2.5	/experiments/knapen_aot/videos/R_S_production_ID_4510622.mp4	0.0	337.54801297187805	2.5083658695220947
71	228.38188982009888	fix_post	2		12.0	69.0	2.5	/experiments/knapen_aot/videos/R_S_production_ID_4510622.mp4	0.0	340.05637884140015	0.10000014305114746
72	228.48188996315002	fix_pre	0		19.0	70.0	2.5	/experiments/knapen_aot/videos/S_yt-c5KPuyzO-50_4.mp4	0.0	340.1563789844513	0.15836191177368164
72	228.62449502944946	response	0	2		70.0	2.5	/experiments/knapen_aot/videos/S_yt-c5KPuyzO-50_4.mp4	0.0	340.29898405075073	
72	228.6402518749237	movie	1		301.0	70.0	2.5	/experiments/knapen_aot/videos/S_yt-c5KPuyzO-50_4.mp4	0.0	340.314740896225	2.50832200050354
72	231.14857387542725	fix_post	2		12.0	70.0	2.5	/experiments/knapen_aot/videos/S_yt-c5KPuyzO-50_4.mp4	0.0	342.8230628967285	0.10000014305114746
73	231.2485740184784	fix_pre	0		43.0	71.0	2.5	/experiments/knapen_aot/videos/S_yt-i3-YlGenYmk_411.mp4	0.0	342.92306303977966	0.3583028316497803
73	231.59863591194153	response	0	2		71.0	2.5	/experiments/knapen_aot/videos/S_yt-i3-YlGenYmk_411.mp4	0.0	343.2731249332428	
73	231.60687685012817	movie	1		301.0	71.0	2.5	/experiments/knapen_aot/videos/S_yt-i3-YlGenYmk_411.mp4	0.0	343.28136587142944	2.5083260536193848
73	234.11520290374756	fix_post	2		12.0	71.0	2.5	/experiments/knapen_aot/videos/S_yt-i3-YlGenYmk_411.mp4	0.0	345.7896919250488	0.09998512268066406
74	234.21518802642822	fix_pre	0		48.0	72.0	2.5	/experiments/knapen_aot/videos/S_yt-v8e_DlCsP4w_10.mp4	0.0	345.8896770477295	0.40102481842041016
74	234.60699892044067	response	0	2		72.0	2.5	/experiments/knapen_aot/videos/S_yt-v8e_DlCsP4w_10.mp4	0.0	346.28148794174194	
74	234.61621284484863	movie	1		301.0	72.0	2.5	/experiments/knapen_aot/videos/S_yt-v8e_DlCsP4w_10.mp4	0.0	346.2907018661499	2.5073401927948
74	237.12355303764343	fix_post	2		12.0	72.0	2.5	/experiments/knapen_aot/videos/S_yt-v8e_DlCsP4w_10.mp4	0.0	348.7980420589447	0.09991288185119629
75	237.22346591949463	fix_pre	0		39.0	73.0	2.5	/experiments/knapen_aot/videos/S_yt-bmGWhOCsvJo_128.mp4	0.0	348.8979549407959	0.3250429630279541
75	237.54030585289001	response	0	2		73.0	2.5	/experiments/knapen_aot/videos/S_yt-bmGWhOCsvJo_128.mp4	0.0	349.2147948741913	
75	237.54850888252258	movie	1		301.0	73.0	2.5	/experiments/knapen_aot/videos/S_yt-bmGWhOCsvJo_128.mp4	0.0	349.22299790382385	2.508355140686035
75	240.05686402320862	fix_post	2		12.0	73.0	2.5	/experiments/knapen_aot/videos/S_yt-bmGWhOCsvJo_128.mp4	0.0	351.7313530445099	0.10000300407409668
76	240.15686702728271	fix_pre	0		274.0	74.0	2.5	/experiments/knapen_aot/videos/R_S_ILSVRC2015_train_00638001.mp4	0.0	351.831356048584	2.2832889556884766
76	242.43194484710693	response	0	2		74.0	2.5	/experiments/knapen_aot/videos/R_S_ILSVRC2015_train_00638001.mp4	0.0	354.1064338684082	
76	242.4401559829712	movie	1		301.0	74.0	2.5	/experiments/knapen_aot/videos/R_S_ILSVRC2015_train_00638001.mp4	0.0	354.11464500427246	2.5083670616149902
76	244.94852304458618	fix_post	2		12.0	74.0	2.5	/experiments/knapen_aot/videos/R_S_ILSVRC2015_train_00638001.mp4	0.0	356.62301206588745	0.09997797012329102
77	245.04850101470947	fix_pre	0		209.0	75.0	2.5	/experiments/knapen_aot/videos/R_S_flickr-reginahart-31964450591_23.mp4	0.0	356.72299003601074	1.7415800094604492
77	246.78191995620728	response	0	2		75.0	2.5	/experiments/knapen_aot/videos/R_S_flickr-reginahart-31964450591_23.mp4	0.0	358.45640897750854	
77	246.79008102416992	movie	1		171.0	75.0	2.5	/experiments/knapen_aot/videos/R_S_flickr-reginahart-31964450591_23.mp4	0.0	358.4645700454712	2.5083208084106445
77	249.29840183258057	fix_post	2		12.0	75.0	2.5	/experiments/knapen_aot/videos/R_S_flickr-reginahart-31964450591_23.mp4	0.0	360.97289085388184	0.10017013549804688
78	249.3985719680786	fix_pre	0		91.0	76.0	2.5	/experiments/knapen_aot/videos/R_S_yt-fQGoTMausn8_88.mp4	0.0	361.0730609893799	0.7591619491577148
78	250.1486098766327	response	0	2		76.0	2.5	/experiments/knapen_aot/videos/R_S_yt-fQGoTMausn8_88.mp4	0.0	361.82309889793396	
78	250.15773391723633	movie	1		301.0	76.0	2.5	/experiments/knapen_aot/videos/R_S_yt-fQGoTMausn8_88.mp4	0.0	361.8322229385376	2.5073890686035156
78	252.66512298583984	fix_post	2		12.0	76.0	2.5	/experiments/knapen_aot/videos/R_S_yt-fQGoTMausn8_88.mp4	0.0	364.3396120071411	0.1000678539276123
79	252.76519083976746	fix_pre	0		124.0	77.0	2.5	blank	1.0	364.4396798610687	1.0332720279693604
79	253.7901849746704	response	0	2		77.0	2.5	blank	1.0	365.4646739959717	
79	253.79846286773682	movie	1		301.0	77.0	2.5	blank	1.0	365.4729518890381	2.5083470344543457
79	256.30680990219116	fix_post	2		12.0	77.0	2.5	blank	1.0	367.98129892349243	0.09995007514953613
80	256.4067599773407	fix_pre	0		339.0	78.0	2.5	/experiments/knapen_aot/videos/S_yt-CNq5mTA8oXY_176.mp4	0.0	368.08124899864197	2.824889898300171
80	259.22350692749023	response	0	2		78.0	2.5	/experiments/knapen_aot/videos/S_yt-CNq5mTA8oXY_176.mp4	0.0	370.8979959487915	
80	259.23164987564087	movie	1		301.0	78.0	2.5	/experiments/knapen_aot/videos/S_yt-CNq5mTA8oXY_176.mp4	0.0	370.90613889694214	2.508439064025879
80	261.74008893966675	fix_post	2		12.0	78.0	2.5	/experiments/knapen_aot/videos/S_yt-CNq5mTA8oXY_176.mp4	0.0	373.414577960968	0.10005402565002441
81	261.8401429653168	fix_pre	0		23.0	79.0	2.5	/experiments/knapen_aot/videos/R_S_yt-nn-8LZcafGs_25.mp4	0.0	373.51463198661804	0.19236993789672852
81	262.02351999282837	response	0	2		79.0	2.5	/experiments/knapen_aot/videos/R_S_yt-nn-8LZcafGs_25.mp4	0.0	373.69800901412964	
81	262.0325129032135	movie	1		301.0	79.0	2.5	/experiments/knapen_aot/videos/R_S_yt-nn-8LZcafGs_25.mp4	0.0	373.70700192451477	2.507638931274414
81	264.5401518344879	fix_post	2		12.0	79.0	2.5	/experiments/knapen_aot/videos/R_S_yt-nn-8LZcafGs_25.mp4	0.0	376.2146408557892	0.10001301765441895
82	264.64016485214233	fix_pre	0		12.0	80.0	2.5	/experiments/knapen_aot/videos/S_yt-HRuCkU_kBoE_239.mp4	0.0	376.3146538734436	0.10076308250427246
82	264.73183393478394	response	0	2		80.0	2.5	/experiments/knapen_aot/videos/S_yt-HRuCkU_kBoE_239.mp4	0.0	376.4063229560852	
82	264.7409279346466	movie	1		301.0	80.0	2.5	/experiments/knapen_aot/videos/S_yt-HRuCkU_kBoE_239.mp4	0.0	376.4154169559479	2.507513999938965
82	267.24844193458557	fix_post	2		12.0	80.0	2.5	/experiments/knapen_aot/videos/S_yt-HRuCkU_kBoE_239.mp4	0.0	378.92293095588684	0.09997797012329102
83	267.34841990470886	fix_pre	0		8.0	81.0	2.5	/experiments/knapen_aot/videos/S_yt-v9WGfC67DPk_50.mp4	0.0	379.02290892601013	0.06666302680969238
83	267.4069218635559	response	0	2		81.0	2.5	/experiments/knapen_aot/videos/S_yt-v9WGfC67DPk_50.mp4	0.0	379.0814108848572	
83	267.41508293151855	movie	1		301.0	81.0	2.5	/experiments/knapen_aot/videos/S_yt-v9WGfC67DPk_50.mp4	0.0	379.0895719528198	2.508625030517578
83	269.92370796203613	fix_post	2		12.0	81.0	2.5	/experiments/knapen_aot/videos/S_yt-v9WGfC67DPk_50.mp4	0.0	381.5981969833374	0.09968805313110352
84	270.02339601516724	fix_pre	0		12.0	82.0	2.5	/experiments/knapen_aot/videos/R_S_OdxWh1oU8e8_1.mp4	0.0	381.6978850364685	0.09999299049377441
84	270.11513090133667	response	0	2		82.0	2.5	/experiments/knapen_aot/videos/R_S_OdxWh1oU8e8_1.mp4	0.0	381.78961992263794	
84	270.123389005661	movie	1		301.0	82.0	2.5	/experiments/knapen_aot/videos/R_S_OdxWh1oU8e8_1.mp4	0.0	381.7978780269623	2.5085158348083496
84	272.63190484046936	fix_post	2		12.0	82.0	2.5	/experiments/knapen_aot/videos/R_S_OdxWh1oU8e8_1.mp4	0.0	384.30639386177063	0.09981107711791992
85	272.7317159175873	fix_pre	0		31.0	83.0	2.5	blank	1.0	384.40620493888855	0.25908899307250977
85	272.98180985450745	response	0	2		83.0	2.5	blank	1.0	384.6562988758087	
85	272.9908049106598	movie	1		301.0	83.0	2.5	blank	1.0	384.66529393196106	2.507564067840576
85	275.49836897850037	fix_post	2		12.0	83.0	2.5	blank	1.0	387.17285799980164	0.10002493858337402
86	275.59839391708374	stim	0		861.0					387.272882938385	7.177012920379639
86	275.90681290626526	response	0	2						387.5813019275665	
86	277.53181886672974	response	0	2						389.206307888031	
86	281.01599502563477	response	0	2						392.69048404693604	
86	281.1899678707123	response	0	2						392.86445689201355	
86	282.7687768936157	response	0	space						394.443265914917	
