trial_nr	onset	event_type	phase	response	nr_frames	movie_index	movie_duration	movie_file	blank	onset_abs	duration
0	0.13332796096801758	stim	0		520.0					68.49837303161621	4.332961082458496
0	4.458024978637695	response	0	space						72.82307004928589	
1	4.466289043426514	stim	0		121.0					72.8313341140747	1.0083608627319336
1	5.474649906158447	stim	1		120.0					73.83969497680664	0.9999561309814453
2	6.474606037139893	fix_pre	0		54.0	0.0	2.5	/experiments/knapen_aot/videos/S_comp_HK_H004_C010_PSNK_v08_SDR_PS_20181009_SDR_2K_AVC.mp4	0.0	74.83965110778809	0.4499828815460205
2	6.916358947753906	response	0	space		0.0	2.5	/experiments/knapen_aot/videos/S_comp_HK_H004_C010_PSNK_v08_SDR_PS_20181009_SDR_2K_AVC.mp4	0.0	75.2814040184021	
2	6.924588918685913	movie	1		162.0	0.0	2.5	/experiments/knapen_aot/videos/S_comp_HK_H004_C010_PSNK_v08_SDR_PS_20181009_SDR_2K_AVC.mp4	0.0	75.2896339893341	2.508327007293701
2	9.432915925979614	fix_post	2		12.0	0.0	2.5	/experiments/knapen_aot/videos/S_comp_HK_H004_C010_PSNK_v08_SDR_PS_20181009_SDR_2K_AVC.mp4	0.0	77.79796099662781	0.1000051498413086
3	9.532921075820923	fix_pre	0		32.0	1.0	2.5	/experiments/knapen_aot/videos/S_ILSVRC2015_train_00524001.mp4	0.0	77.89796614646912	0.27077388763427734
3	9.795058012008667	response	0	2		1.0	2.5	/experiments/knapen_aot/videos/S_ILSVRC2015_train_00524001.mp4	0.0	78.16010308265686	
3	9.8036949634552	movie	1		299.0	1.0	2.5	/experiments/knapen_aot/videos/S_ILSVRC2015_train_00524001.mp4	0.0	78.1687400341034	2.504326105117798
3	12.308021068572998	fix_post	2		12.0	1.0	2.5	/experiments/knapen_aot/videos/S_ILSVRC2015_train_00524001.mp4	0.0	80.67306613922119	0.0998988151550293
4	12.407919883728027	fix_pre	0		28.0	2.0	2.5	/experiments/knapen_aot/videos/R_S_yt-14tjqjjjAEI_15.mp4	0.0	80.77296495437622	0.23328304290771484
4	12.633050918579102	response	0	2		2.0	2.5	/experiments/knapen_aot/videos/R_S_yt-14tjqjjjAEI_15.mp4	0.0	80.9980959892273	
4	12.641202926635742	movie	1		301.0	2.0	2.5	/experiments/knapen_aot/videos/R_S_yt-14tjqjjjAEI_15.mp4	0.0	81.00624799728394	2.5083529949188232
4	15.149555921554565	fix_post	2		12.0	2.0	2.5	/experiments/knapen_aot/videos/R_S_yt-14tjqjjjAEI_15.mp4	0.0	83.51460099220276	0.09993600845336914
5	15.249491930007935	fix_pre	0		17.0	3.0	2.5	/experiments/knapen_aot/videos/S_Y005_C003_SDR_2K_AVC.mp4	0.0	83.61453700065613	0.1513981819152832
5	15.391304016113281	response	0	2		3.0	2.5	/experiments/knapen_aot/videos/S_Y005_C003_SDR_2K_AVC.mp4	0.0	83.75634908676147	
5	15.400890111923218	movie	1		162.0	3.0	2.5	/experiments/knapen_aot/videos/S_Y005_C003_SDR_2K_AVC.mp4	0.0	83.76593518257141	2.5070037841796875
5	17.907893896102905	fix_post	2		12.0	3.0	2.5	/experiments/knapen_aot/videos/S_Y005_C003_SDR_2K_AVC.mp4	0.0	86.2729389667511	0.10004615783691406
6	18.00794005393982	fix_pre	0		19.0	4.0	2.5	/experiments/knapen_aot/videos/S_yt-25xuzTBhwPk_109.mp4	0.0	86.37298512458801	0.15824198722839355
6	18.158026933670044	response	0	2		4.0	2.5	/experiments/knapen_aot/videos/S_yt-25xuzTBhwPk_109.mp4	0.0	86.52307200431824	
6	18.166182041168213	movie	1		301.0	4.0	2.5	/experiments/knapen_aot/videos/S_yt-25xuzTBhwPk_109.mp4	0.0	86.5312271118164	2.5084428787231445
6	20.674624919891357	fix_post	2		12.0	4.0	2.5	/experiments/knapen_aot/videos/S_yt-25xuzTBhwPk_109.mp4	0.0	89.03966999053955	0.09996604919433594
7	20.774590969085693	fix_pre	0		32.0	5.0	2.5	blank	1.0	89.13963603973389	0.2666590213775635
7	21.033034086227417	response	0	2		5.0	2.5	blank	1.0	89.39807915687561	
7	21.041249990463257	movie	1		301.0	5.0	2.5	blank	1.0	89.40629506111145	2.5083119869232178
7	23.549561977386475	fix_post	2		12.0	5.0	2.5	blank	1.0	91.91460704803467	0.10000205039978027
8	23.649564027786255	fix_pre	0		23.0	6.0	2.5	/experiments/knapen_aot/videos/S_yt-ol2u_-gd0-o_13.mp4	0.0	92.01460909843445	0.1916210651397705
8	23.832990884780884	response	0	2		6.0	2.5	/experiments/knapen_aot/videos/S_yt-ol2u_-gd0-o_13.mp4	0.0	92.19803595542908	
8	23.841185092926025	movie	1		300.0	6.0	2.5	/experiments/knapen_aot/videos/S_yt-ol2u_-gd0-o_13.mp4	0.0	92.20623016357422	2.5082578659057617
8	26.349442958831787	fix_post	2		12.0	6.0	2.5	/experiments/knapen_aot/videos/S_yt-ol2u_-gd0-o_13.mp4	0.0	94.71448802947998	0.10002899169921875
9	26.449471950531006	fix_pre	0		22.0	7.0	2.5	/experiments/knapen_aot/videos/S_yt-UmLeGNcqouI_718.mp4	0.0	94.8145170211792	0.1833181381225586
9	26.624633073806763	response	0	2		7.0	2.5	/experiments/knapen_aot/videos/S_yt-UmLeGNcqouI_718.mp4	0.0	94.98967814445496	
9	26.632790088653564	movie	1		301.0	7.0	2.5	/experiments/knapen_aot/videos/S_yt-UmLeGNcqouI_718.mp4	0.0	94.99783515930176	2.5083258152008057
9	29.14111590385437	fix_post	2		12.0	7.0	2.5	/experiments/knapen_aot/videos/S_yt-UmLeGNcqouI_718.mp4	0.0	97.50616097450256	0.10071516036987305
10	29.241831064224243	fix_pre	0		20.0	8.0	2.5	/experiments/knapen_aot/videos/S_yt-kA0ybjmoiMc_284.mp4	0.0	97.60687613487244	0.16594386100769043
10	29.39951491355896	response	0	2		8.0	2.5	/experiments/knapen_aot/videos/S_yt-kA0ybjmoiMc_284.mp4	0.0	97.76455998420715	
10	29.407774925231934	movie	1		301.0	8.0	2.5	/experiments/knapen_aot/videos/S_yt-kA0ybjmoiMc_284.mp4	0.0	97.77281999588013	2.5084381103515625
10	31.916213035583496	fix_post	2		12.0	8.0	2.5	/experiments/knapen_aot/videos/S_yt-kA0ybjmoiMc_284.mp4	0.0	100.28125810623169	0.09996485710144043
11	32.01617789268494	fix_pre	0		23.0	9.0	2.5	/experiments/knapen_aot/videos/R_S_yt-hRAqAwRhmwE_58.mp4	0.0	100.38122296333313	0.19158506393432617
11	32.199564933776855	response	0	2		9.0	2.5	/experiments/knapen_aot/videos/R_S_yt-hRAqAwRhmwE_58.mp4	0.0	100.56461000442505	
11	32.20776295661926	movie	1		298.0	9.0	2.5	/experiments/knapen_aot/videos/R_S_yt-hRAqAwRhmwE_58.mp4	0.0	100.57280802726746	2.508420944213867
11	34.71618390083313	fix_post	2		12.0	9.0	2.5	/experiments/knapen_aot/videos/R_S_yt-hRAqAwRhmwE_58.mp4	0.0	103.08122897148132	0.0999910831451416
12	34.81617498397827	fix_pre	0		20.0	10.0	2.5	/experiments/knapen_aot/videos/R_S_comp_HK_H004_C010_PSNK_v08_SDR_PS_20181009_SDR_2K_AVC.mp4	0.0	103.18122005462646	0.1679079532623291
12	34.974621057510376	response	0	2		10.0	2.5	/experiments/knapen_aot/videos/R_S_comp_HK_H004_C010_PSNK_v08_SDR_PS_20181009_SDR_2K_AVC.mp4	0.0	103.33966612815857	
12	34.9840829372406	movie	1		164.0	10.0	2.5	/experiments/knapen_aot/videos/R_S_comp_HK_H004_C010_PSNK_v08_SDR_PS_20181009_SDR_2K_AVC.mp4	0.0	103.3491280078888	2.507040023803711
12	37.49112296104431	fix_post	2		12.0	10.0	2.5	/experiments/knapen_aot/videos/R_S_comp_HK_H004_C010_PSNK_v08_SDR_PS_20181009_SDR_2K_AVC.mp4	0.0	105.8561680316925	0.1000370979309082
13	37.59116005897522	fix_pre	0		19.0	11.0	2.5	/experiments/knapen_aot/videos/R_S_yt-XpM1Jtwlvvk_42.mp4	0.0	105.95620512962341	0.15827083587646484
13	37.741281032562256	response	0	2		11.0	2.5	/experiments/knapen_aot/videos/R_S_yt-XpM1Jtwlvvk_42.mp4	0.0	106.10632610321045	
13	37.749430894851685	movie	1		301.0	11.0	2.5	/experiments/knapen_aot/videos/R_S_yt-XpM1Jtwlvvk_42.mp4	0.0	106.11447596549988	2.5083260536193848
13	40.25775694847107	fix_post	2		12.0	11.0	2.5	/experiments/knapen_aot/videos/R_S_yt-XpM1Jtwlvvk_42.mp4	0.0	108.62280201911926	0.09999513626098633
14	40.357752084732056	fix_pre	0		38.0	12.0	2.5	/experiments/knapen_aot/videos/R_S_yt-NqyG4Ar2JWo_10.mp4	0.0	108.72279715538025	0.31662988662719727
14	40.65864109992981	response	0	2		12.0	2.5	/experiments/knapen_aot/videos/R_S_yt-NqyG4Ar2JWo_10.mp4	0.0	109.023686170578	
14	40.67438197135925	movie	1		298.0	12.0	2.5	/experiments/knapen_aot/videos/R_S_yt-NqyG4Ar2JWo_10.mp4	0.0	109.03942704200745	2.508378028869629
14	43.18276000022888	fix_post	2		12.0	12.0	2.5	/experiments/knapen_aot/videos/R_S_yt-NqyG4Ar2JWo_10.mp4	0.0	111.54780507087708	0.10010099411010742
15	43.28286099433899	fix_pre	0		51.0	13.0	2.5	/experiments/knapen_aot/videos/R_S_yt-pOCEuqVE7ro_61.mp4	0.0	111.64790606498718	0.42482900619506836
15	43.69955801963806	response	0	2		13.0	2.5	/experiments/knapen_aot/videos/R_S_yt-pOCEuqVE7ro_61.mp4	0.0	112.06460309028625	
15	43.70769000053406	movie	1		301.0	13.0	2.5	/experiments/knapen_aot/videos/R_S_yt-pOCEuqVE7ro_61.mp4	0.0	112.07273507118225	2.50846791267395
15	46.21615791320801	fix_post	2		12.0	13.0	2.5	/experiments/knapen_aot/videos/R_S_yt-pOCEuqVE7ro_61.mp4	0.0	114.5812029838562	0.09996318817138672
16	46.316121101379395	fix_pre	0		36.0	14.0	2.5	blank	1.0	114.68116617202759	0.2999107837677002
16	46.60787892341614	response	0	2		14.0	2.5	blank	1.0	114.97292399406433	
16	46.616031885147095	movie	1		301.0	14.0	2.5	blank	1.0	114.98107695579529	2.5083701610565186
16	49.12440204620361	fix_post	2		12.0	14.0	2.5	blank	1.0	117.4894471168518	0.09993195533752441
17	49.22433400154114	fix_pre	0		23.0	15.0	2.5	/experiments/knapen_aot/videos/S_yt-GWlwb2QsxIA_48.mp4	0.0	117.58937907218933	0.19167304039001465
17	49.40789604187012	response	0	2		15.0	2.5	/experiments/knapen_aot/videos/S_yt-GWlwb2QsxIA_48.mp4	0.0	117.77294111251831	
17	49.41600704193115	movie	1		301.0	15.0	2.5	/experiments/knapen_aot/videos/S_yt-GWlwb2QsxIA_48.mp4	0.0	117.78105211257935	2.5083229541778564
17	51.92432999610901	fix_post	2		12.0	15.0	2.5	/experiments/knapen_aot/videos/S_yt-GWlwb2QsxIA_48.mp4	0.0	120.2893750667572	0.09995007514953613
18	52.024280071258545	fix_pre	0		25.0	16.0	2.5	/experiments/knapen_aot/videos/R_S_pexels-mikhail-nilov-8410088.mp4	0.0	120.38932514190674	0.2095949649810791
18	52.22448706626892	response	0	2		16.0	2.5	/experiments/knapen_aot/videos/R_S_pexels-mikhail-nilov-8410088.mp4	0.0	120.58953213691711	
18	52.233875036239624	movie	1		163.0	16.0	2.5	/experiments/knapen_aot/videos/R_S_pexels-mikhail-nilov-8410088.mp4	0.0	120.59892010688782	2.5071558952331543
18	54.74103093147278	fix_post	2		12.0	16.0	2.5	/experiments/knapen_aot/videos/R_S_pexels-mikhail-nilov-8410088.mp4	0.0	123.10607600212097	0.09997797012329102
19	54.84100890159607	fix_pre	0		125.0	17.0	2.5	/experiments/knapen_aot/videos/R_S_yt-bH4nJibL4Jo_164.mp4	0.0	123.20605397224426	1.04164719581604
19	55.87442207336426	response	0	2		17.0	2.5	/experiments/knapen_aot/videos/R_S_yt-bH4nJibL4Jo_164.mp4	0.0	124.23946714401245	
19	55.88265609741211	movie	1		301.0	17.0	2.5	/experiments/knapen_aot/videos/R_S_yt-bH4nJibL4Jo_164.mp4	0.0	124.2477011680603	2.5083580017089844
19	58.391014099121094	fix_post	2		12.0	17.0	2.5	/experiments/knapen_aot/videos/R_S_yt-bH4nJibL4Jo_164.mp4	0.0	126.75605916976929	0.10004496574401855
20	58.49105906486511	fix_pre	0		28.0	18.0	2.5	/experiments/knapen_aot/videos/R_S_yt-Z0nfPTEEOLo_85.mp4	0.0	126.8561041355133	0.2332608699798584
20	58.716042041778564	response	0	2		18.0	2.5	/experiments/knapen_aot/videos/R_S_yt-Z0nfPTEEOLo_85.mp4	0.0	127.08108711242676	
20	58.72431993484497	movie	1		301.0	18.0	2.5	/experiments/knapen_aot/videos/R_S_yt-Z0nfPTEEOLo_85.mp4	0.0	127.08936500549316	2.508315086364746
20	61.23263502120972	fix_post	2		12.0	18.0	2.5	/experiments/knapen_aot/videos/R_S_yt-Z0nfPTEEOLo_85.mp4	0.0	129.5976800918579	0.0999760627746582
21	61.332611083984375	fix_pre	0		9.0	19.0	2.5	blank	1.0	129.69765615463257	0.07516980171203613
21	61.392760038375854	response	0	2		19.0	2.5	blank	1.0	129.75780510902405	
21	61.40778088569641	movie	1		301.0	19.0	2.5	blank	1.0	129.7728259563446	2.5081381797790527
21	63.915919065475464	fix_post	2		12.0	19.0	2.5	blank	1.0	132.28096413612366	0.10007882118225098
22	64.01599788665771	fix_pre	0		65.0	20.0	2.5	/experiments/knapen_aot/videos/R_S_yt-5hgLXyLw82w_23.mp4	0.0	132.3810429573059	0.541558027267456
22	64.54939198493958	response	0	2		20.0	2.5	/experiments/knapen_aot/videos/R_S_yt-5hgLXyLw82w_23.mp4	0.0	132.91443705558777	
22	64.55755591392517	movie	1		301.0	20.0	2.5	/experiments/knapen_aot/videos/R_S_yt-5hgLXyLw82w_23.mp4	0.0	132.92260098457336	2.508432149887085
22	67.06598806381226	fix_post	2		12.0	20.0	2.5	/experiments/knapen_aot/videos/R_S_yt-5hgLXyLw82w_23.mp4	0.0	135.43103313446045	0.09996795654296875
23	67.16595602035522	fix_pre	0		36.0	21.0	2.5	/experiments/knapen_aot/videos/R_S_yt-kQpE9L-fsNE_55.mp4	0.0	135.53100109100342	0.2999429702758789
23	67.45773887634277	response	0	2		21.0	2.5	/experiments/knapen_aot/videos/R_S_yt-kQpE9L-fsNE_55.mp4	0.0	135.82278394699097	
23	67.4658989906311	movie	1		301.0	21.0	2.5	/experiments/knapen_aot/videos/R_S_yt-kQpE9L-fsNE_55.mp4	0.0	135.8309440612793	2.5083529949188232
23	69.97425198554993	fix_post	2		12.0	21.0	2.5	/experiments/knapen_aot/videos/R_S_yt-kQpE9L-fsNE_55.mp4	0.0	138.33929705619812	0.10001611709594727
24	70.07426810264587	fix_pre	0		25.0	22.0	2.5	/experiments/knapen_aot/videos/R_S_yt-7XDVHp75fu4_93.mp4	0.0	138.43931317329407	0.20836496353149414
24	70.27443408966064	response	0	2		22.0	2.5	/experiments/knapen_aot/videos/R_S_yt-7XDVHp75fu4_93.mp4	0.0	138.63947916030884	
24	70.28263306617737	movie	1		301.0	22.0	2.5	/experiments/knapen_aot/videos/R_S_yt-7XDVHp75fu4_93.mp4	0.0	138.64767813682556	2.50827693939209
24	72.79091000556946	fix_post	2		12.0	22.0	2.5	/experiments/knapen_aot/videos/R_S_yt-7XDVHp75fu4_93.mp4	0.0	141.15595507621765	0.10000300407409668
25	72.89091300964355	fix_pre	0		7.0	23.0	2.5	/experiments/knapen_aot/videos/S_ILSVRC2015_train_00524001.mp4	0.0	141.25595808029175	0.058387041091918945
25	72.94105696678162	response	0	2		23.0	2.5	/experiments/knapen_aot/videos/S_ILSVRC2015_train_00524001.mp4	0.0	141.3061020374298	
25	72.94930005073547	movie	1		299.0	23.0	2.5	/experiments/knapen_aot/videos/S_ILSVRC2015_train_00524001.mp4	0.0	141.31434512138367	2.5083529949188232
25	75.4576530456543	fix_post	2		12.0	23.0	2.5	/experiments/knapen_aot/videos/S_ILSVRC2015_train_00524001.mp4	0.0	143.8226981163025	0.09995484352111816
26	75.55760788917542	fix_pre	0		14.0	24.0	2.5	/experiments/knapen_aot/videos/S_yt-xrPrnzvWUkY_7.mp4	0.0	143.9226529598236	0.11667203903198242
26	75.66609597206116	response	0	2		24.0	2.5	/experiments/knapen_aot/videos/S_yt-xrPrnzvWUkY_7.mp4	0.0	144.03114104270935	
26	75.6742799282074	movie	1		301.0	24.0	2.5	/experiments/knapen_aot/videos/S_yt-xrPrnzvWUkY_7.mp4	0.0	144.0393249988556	2.508397102355957
26	78.18267703056335	fix_post	2		12.0	24.0	2.5	/experiments/knapen_aot/videos/S_yt-xrPrnzvWUkY_7.mp4	0.0	146.54772210121155	0.0998849868774414
27	78.2825620174408	fix_pre	0		32.0	25.0	2.5	/experiments/knapen_aot/videos/S_yt-Ryb0K9lGPrg_5.mp4	0.0	146.647607088089	0.2666599750518799
27	78.54110407829285	response	0	2		25.0	2.5	/experiments/knapen_aot/videos/S_yt-Ryb0K9lGPrg_5.mp4	0.0	146.90614914894104	
27	78.54922199249268	movie	1		301.0	25.0	2.5	/experiments/knapen_aot/videos/S_yt-Ryb0K9lGPrg_5.mp4	0.0	146.91426706314087	2.5083420276641846
27	81.05756402015686	fix_post	2		12.0	25.0	2.5	/experiments/knapen_aot/videos/S_yt-Ryb0K9lGPrg_5.mp4	0.0	149.42260909080505	0.10001707077026367
28	81.15758109092712	fix_pre	0		17.0	26.0	2.5	/experiments/knapen_aot/videos/R_S_yt-TqVe93JCGmM_12.mp4	0.0	149.52262616157532	0.14166784286499023
28	81.29106998443604	response	0	2		26.0	2.5	/experiments/knapen_aot/videos/R_S_yt-TqVe93JCGmM_12.mp4	0.0	149.65611505508423	
28	81.29924893379211	movie	1		301.0	26.0	2.5	/experiments/knapen_aot/videos/R_S_yt-TqVe93JCGmM_12.mp4	0.0	149.6642940044403	2.508316993713379
28	83.8075659275055	fix_post	2		12.0	26.0	2.5	/experiments/knapen_aot/videos/R_S_yt-TqVe93JCGmM_12.mp4	0.0	152.1726109981537	0.10000801086425781
29	83.90757393836975	fix_pre	0		24.0	27.0	2.5	blank	1.0	152.27261900901794	0.20105314254760742
29	84.09933400154114	response	0	2		27.0	2.5	blank	1.0	152.46437907218933	
29	84.10862708091736	movie	1		301.0	27.0	2.5	blank	1.0	152.47367215156555	2.5072638988494873
29	86.61589097976685	fix_post	2		12.0	27.0	2.5	blank	1.0	154.98093605041504	0.0999460220336914
30	86.71583700180054	fix_pre	0		26.0	28.0	2.5	/experiments/knapen_aot/videos/R_S_ILSVRC2015_train_00610000.mp4	0.0	155.08088207244873	0.2166910171508789
30	86.92434906959534	response	0	2		28.0	2.5	/experiments/knapen_aot/videos/R_S_ILSVRC2015_train_00610000.mp4	0.0	155.28939414024353	
30	86.93252801895142	movie	1		301.0	28.0	2.5	/experiments/knapen_aot/videos/R_S_ILSVRC2015_train_00610000.mp4	0.0	155.2975730895996	2.5083680152893066
30	89.44089603424072	fix_post	2		12.0	28.0	2.5	/experiments/knapen_aot/videos/R_S_ILSVRC2015_train_00610000.mp4	0.0	157.80594110488892	0.09999299049377441
31	89.5408890247345	fix_pre	0		12.0	29.0	2.5	/experiments/knapen_aot/videos/R_S_pexels-rodnae-productions-7467585.mp4	0.0	157.9059340953827	0.10001397132873535
31	89.63265109062195	response	0	2		29.0	2.5	/experiments/knapen_aot/videos/R_S_pexels-rodnae-productions-7467585.mp4	0.0	157.99769616127014	
31	89.64090299606323	movie	1		163.0	29.0	2.5	/experiments/knapen_aot/videos/R_S_pexels-rodnae-productions-7467585.mp4	0.0	158.00594806671143	2.5083088874816895
31	92.14921188354492	fix_post	2		12.0	29.0	2.5	/experiments/knapen_aot/videos/R_S_pexels-rodnae-productions-7467585.mp4	0.0	160.51425695419312	0.10002017021179199
32	92.24923205375671	fix_pre	0		56.0	30.0	2.5	/experiments/knapen_aot/videos/S_yt-9Q7SZR0mgMA_155.mp4	0.0	160.6142771244049	0.4665720462799072
32	92.7076621055603	response	0	2		30.0	2.5	/experiments/knapen_aot/videos/S_yt-9Q7SZR0mgMA_155.mp4	0.0	161.0727071762085	
32	92.71580410003662	movie	1		299.0	30.0	2.5	/experiments/knapen_aot/videos/S_yt-9Q7SZR0mgMA_155.mp4	0.0	161.08084917068481	2.5083909034729004
32	95.22419500350952	fix_post	2		12.0	30.0	2.5	/experiments/knapen_aot/videos/S_yt-9Q7SZR0mgMA_155.mp4	0.0	163.58924007415771	0.09994697570800781
33	95.32414197921753	fix_pre	0		25.0	31.0	2.5	/experiments/knapen_aot/videos/R_S_yt-fQgLKiz2tuM_14.mp4	0.0	163.68918704986572	0.20827913284301758
33	95.52436304092407	response	0	2		31.0	2.5	/experiments/knapen_aot/videos/R_S_yt-fQgLKiz2tuM_14.mp4	0.0	163.88940811157227	
33	95.53242111206055	movie	1		301.0	31.0	2.5	/experiments/knapen_aot/videos/R_S_yt-fQgLKiz2tuM_14.mp4	0.0	163.89746618270874	2.508434772491455
33	98.040855884552	fix_post	2		12.0	31.0	2.5	/experiments/knapen_aot/videos/R_S_yt-fQgLKiz2tuM_14.mp4	0.0	166.4059009552002	0.10004019737243652
34	98.14089608192444	fix_pre	0		124.0	32.0	2.5	/experiments/knapen_aot/videos/S_ILSVRC2015_train_00479003.mp4	0.0	166.50594115257263	1.0333528518676758
34	99.16598105430603	response	0	2		32.0	2.5	/experiments/knapen_aot/videos/S_ILSVRC2015_train_00479003.mp4	0.0	167.53102612495422	
34	99.17424893379211	movie	1		299.0	32.0	2.5	/experiments/knapen_aot/videos/S_ILSVRC2015_train_00479003.mp4	0.0	167.5392940044403	2.5082650184631348
34	101.68251395225525	fix_post	2		12.0	32.0	2.5	/experiments/knapen_aot/videos/S_ILSVRC2015_train_00479003.mp4	0.0	170.04755902290344	0.09991812705993652
35	101.78243207931519	fix_pre	0		12.0	33.0	2.5	/experiments/knapen_aot/videos/S_ILSVRC2015_train_00594000.mp4	0.0	170.14747714996338	0.1000819206237793
35	101.87418794631958	response	0	2		33.0	2.5	/experiments/knapen_aot/videos/S_ILSVRC2015_train_00594000.mp4	0.0	170.23923301696777	
35	101.88251399993896	movie	1		301.0	33.0	2.5	/experiments/knapen_aot/videos/S_ILSVRC2015_train_00594000.mp4	0.0	170.24755907058716	2.5082950592041016
35	104.39080905914307	fix_post	2		12.0	33.0	2.5	/experiments/knapen_aot/videos/S_ILSVRC2015_train_00594000.mp4	0.0	172.75585412979126	0.10003805160522461
36	104.49084711074829	fix_pre	0		26.0	34.0	2.5	blank	1.0	172.85589218139648	0.21658778190612793
36	104.69923710823059	response	0	2		34.0	2.5	blank	1.0	173.06428217887878	
36	104.70743489265442	movie	1		301.0	34.0	2.5	blank	1.0	173.0724799633026	2.508355140686035
36	107.21579003334045	fix_post	2		12.0	34.0	2.5	blank	1.0	175.58083510398865	0.09990596771240234
37	107.31569600105286	fix_pre	0		30.0	35.0	2.5	/experiments/knapen_aot/videos/S_yt-mJzkLd3Mr_c_35.mp4	0.0	175.68074107170105	0.2509799003601074
37	107.55002498626709	response	0	2		35.0	2.5	/experiments/knapen_aot/videos/S_yt-mJzkLd3Mr_c_35.mp4	0.0	175.91507005691528	
37	107.56667590141296	movie	1		301.0	35.0	2.5	/experiments/knapen_aot/videos/S_yt-mJzkLd3Mr_c_35.mp4	0.0	175.93172097206116	2.5074610710144043
37	110.07413697242737	fix_post	2		12.0	35.0	2.5	/experiments/knapen_aot/videos/S_yt-mJzkLd3Mr_c_35.mp4	0.0	178.43918204307556	0.0999460220336914
38	110.17408299446106	fix_pre	0		37.0	36.0	2.5	/experiments/knapen_aot/videos/S_pexels-rodnae-productions-7467585.mp4	0.0	178.53912806510925	0.3092000484466553
38	110.47431898117065	response	0	2		36.0	2.5	/experiments/knapen_aot/videos/S_pexels-rodnae-productions-7467585.mp4	0.0	178.83936405181885	
38	110.48328304290771	movie	1		160.0	36.0	2.5	/experiments/knapen_aot/videos/S_pexels-rodnae-productions-7467585.mp4	0.0	178.8483281135559	2.5075290203094482
38	112.99081206321716	fix_post	2		12.0	36.0	2.5	/experiments/knapen_aot/videos/S_pexels-rodnae-productions-7467585.mp4	0.0	181.35585713386536	0.09995794296264648
39	113.09077000617981	fix_pre	0		25.0	37.0	2.5	/experiments/knapen_aot/videos/S_yt-PvWkOmfZuSY_4.mp4	0.0	181.455815076828	0.20836400985717773
39	113.29092502593994	response	0	2		37.0	2.5	/experiments/knapen_aot/videos/S_yt-PvWkOmfZuSY_4.mp4	0.0	181.65597009658813	
39	113.29913401603699	movie	1		301.0	37.0	2.5	/experiments/knapen_aot/videos/S_yt-PvWkOmfZuSY_4.mp4	0.0	181.66417908668518	2.5083200931549072
39	115.8074541091919	fix_post	2		12.0	37.0	2.5	/experiments/knapen_aot/videos/S_yt-PvWkOmfZuSY_4.mp4	0.0	184.1724991798401	0.10004186630249023
40	115.90749597549438	fix_pre	0		9.0	38.0	2.5	/experiments/knapen_aot/videos/S_pexels-rodnae-productions-5617905.mp4	0.0	184.27254104614258	0.07575106620788574
40	115.97430300712585	response	0	2		38.0	2.5	/experiments/knapen_aot/videos/S_pexels-rodnae-productions-5617905.mp4	0.0	184.33934807777405	
40	115.98324704170227	movie	1		162.0	38.0	2.5	/experiments/knapen_aot/videos/S_pexels-rodnae-productions-5617905.mp4	0.0	184.34829211235046	2.5075788497924805
40	118.49082589149475	fix_post	2		12.0	38.0	2.5	/experiments/knapen_aot/videos/S_pexels-rodnae-productions-5617905.mp4	0.0	186.85587096214294	0.09993600845336914
41	118.59076189994812	fix_pre	0		15.0	39.0	2.5	/experiments/knapen_aot/videos/R_S_comp_HK_H004_C013_t9_6M_HB_tag0.mp4	0.0	186.9558069705963	0.12493610382080078
41	118.70750999450684	response	0	2		39.0	2.5	/experiments/knapen_aot/videos/R_S_comp_HK_H004_C013_t9_6M_HB_tag0.mp4	0.0	187.07255506515503	
41	118.71569800376892	movie	1		199.0	39.0	2.5	/experiments/knapen_aot/videos/R_S_comp_HK_H004_C013_t9_6M_HB_tag0.mp4	0.0	187.08074307441711	2.508375883102417
41	121.22407388687134	fix_post	2		12.0	39.0	2.5	/experiments/knapen_aot/videos/R_S_comp_HK_H004_C013_t9_6M_HB_tag0.mp4	0.0	189.58911895751953	0.09998202323913574
42	121.32405591011047	fix_pre	0		3.0	40.0	2.5	blank	1.0	189.68910098075867	0.024940967559814453
42	121.34099197387695	response	0	2		40.0	2.5	blank	1.0	189.70603704452515	
42	121.34899687767029	movie	1		301.0	40.0	2.5	blank	1.0	189.71404194831848	2.5084002017974854
42	123.85739707946777	fix_post	2		12.0	40.0	2.5	blank	1.0	192.22244215011597	0.09994983673095703
43	123.95734691619873	fix_pre	0		5.0	41.0	2.5	/experiments/knapen_aot/videos/S_ILSVRC2015_train_00610000.mp4	0.0	192.32239198684692	0.04165506362915039
43	123.99092507362366	response	0	2		41.0	2.5	/experiments/knapen_aot/videos/S_ILSVRC2015_train_00610000.mp4	0.0	192.35597014427185	
43	123.99900197982788	movie	1		301.0	41.0	2.5	/experiments/knapen_aot/videos/S_ILSVRC2015_train_00610000.mp4	0.0	192.36404705047607	2.5083200931549072
43	126.50732207298279	fix_post	2		12.0	41.0	2.5	/experiments/knapen_aot/videos/S_ILSVRC2015_train_00610000.mp4	0.0	194.87236714363098	0.10007286071777344
44	126.60739493370056	fix_pre	0		5.0	42.0	2.5	/experiments/knapen_aot/videos/R_S_production_ID_4153808.mp4	0.0	194.97244000434875	0.04262804985046387
44	126.64091610908508	response	0	2		42.0	2.5	/experiments/knapen_aot/videos/R_S_production_ID_4153808.mp4	0.0	195.00596117973328	
44	126.65002298355103	movie	1		199.0	42.0	2.5	/experiments/knapen_aot/videos/R_S_production_ID_4153808.mp4	0.0	195.01506805419922	2.507293939590454
44	129.15731692314148	fix_post	2		12.0	42.0	2.5	/experiments/knapen_aot/videos/R_S_production_ID_4153808.mp4	0.0	197.52236199378967	0.09997105598449707
45	129.25728797912598	fix_pre	0		13.0	43.0	2.5	/experiments/knapen_aot/videos/S_ILSVRC2015_train_00638001.mp4	0.0	197.62233304977417	0.10836100578308105
45	129.35748291015625	response	0	2		43.0	2.5	/experiments/knapen_aot/videos/S_ILSVRC2015_train_00638001.mp4	0.0	197.72252798080444	
45	129.36564898490906	movie	1		301.0	43.0	2.5	/experiments/knapen_aot/videos/S_ILSVRC2015_train_00638001.mp4	0.0	197.73069405555725	2.508378028869629
45	131.8740270137787	fix_post	2		12.0	43.0	2.5	/experiments/knapen_aot/videos/S_ILSVRC2015_train_00638001.mp4	0.0	200.23907208442688	0.09999203681945801
46	131.97401905059814	fix_pre	0		18.0	44.0	2.5	/experiments/knapen_aot/videos/S_ILSVRC2015_train_00371006.mp4	0.0	200.33906412124634	0.14999103546142578
46	132.1157579421997	response	0	2		44.0	2.5	/experiments/knapen_aot/videos/S_ILSVRC2015_train_00371006.mp4	0.0	200.4808030128479	
46	132.12401008605957	movie	1		301.0	44.0	2.5	/experiments/knapen_aot/videos/S_ILSVRC2015_train_00371006.mp4	0.0	200.48905515670776	2.508389949798584
46	134.63240003585815	fix_post	2		12.0	44.0	2.5	/experiments/knapen_aot/videos/S_ILSVRC2015_train_00371006.mp4	0.0	202.99744510650635	0.09994292259216309
47	134.73234295845032	fix_pre	0		19.0	45.0	2.5	/experiments/knapen_aot/videos/R_S_yt-IT741UWKVzg_34.mp4	0.0	203.0973880290985	0.1583409309387207
47	134.88250708580017	response	0	2		45.0	2.5	/experiments/knapen_aot/videos/R_S_yt-IT741UWKVzg_34.mp4	0.0	203.24755215644836	
47	134.89068388938904	movie	1		301.0	45.0	2.5	/experiments/knapen_aot/videos/R_S_yt-IT741UWKVzg_34.mp4	0.0	203.25572896003723	2.5083889961242676
47	137.3990728855133	fix_post	2		12.0	45.0	2.5	/experiments/knapen_aot/videos/R_S_yt-IT741UWKVzg_34.mp4	0.0	205.7641179561615	0.0999441146850586
48	137.49901700019836	fix_pre	0		28.0	46.0	2.5	/experiments/knapen_aot/videos/R_S_ILSVRC2015_train_00524001.mp4	0.0	205.86406207084656	0.23410987854003906
48	137.72417092323303	response	0	2		46.0	2.5	/experiments/knapen_aot/videos/R_S_ILSVRC2015_train_00524001.mp4	0.0	206.08921599388123	
48	137.7331268787384	movie	1		301.0	46.0	2.5	/experiments/knapen_aot/videos/R_S_ILSVRC2015_train_00524001.mp4	0.0	206.0981719493866	2.5076510906219482
48	140.24077796936035	fix_post	2		12.0	46.0	2.5	/experiments/knapen_aot/videos/R_S_ILSVRC2015_train_00524001.mp4	0.0	208.60582304000854	0.0999300479888916
49	140.34070801734924	fix_pre	0		34.0	47.0	2.5	blank	1.0	208.70575308799744	0.2833380699157715
49	140.61586999893188	response	0	2		47.0	2.5	blank	1.0	208.98091506958008	
49	140.62404608726501	movie	1		301.0	47.0	2.5	blank	1.0	208.9890911579132	2.5083038806915283
49	143.13234996795654	fix_post	2		12.0	47.0	2.5	blank	1.0	211.49739503860474	0.09995794296264648
50	143.2323079109192	fix_pre	0		26.0	48.0	2.5	/experiments/knapen_aot/videos/R_S_yt-4W224-RSCnM_15.mp4	0.0	211.59735298156738	0.2167220115661621
50	143.44078707695007	response	0	2		48.0	2.5	/experiments/knapen_aot/videos/R_S_yt-4W224-RSCnM_15.mp4	0.0	211.80583214759827	
50	143.44902992248535	movie	1		301.0	48.0	2.5	/experiments/knapen_aot/videos/R_S_yt-4W224-RSCnM_15.mp4	0.0	211.81407499313354	2.508305072784424
50	145.95733499526978	fix_post	2		12.0	48.0	2.5	/experiments/knapen_aot/videos/R_S_yt-4W224-RSCnM_15.mp4	0.0	214.32238006591797	0.09999990463256836
51	146.05733489990234	fix_pre	0		7.0	49.0	2.5	/experiments/knapen_aot/videos/S_pexels-anastasia-shuraeva-6014070.mp4	0.0	214.42237997055054	0.058318138122558594
51	146.10748600959778	response	0	2		49.0	2.5	/experiments/knapen_aot/videos/S_pexels-anastasia-shuraeva-6014070.mp4	0.0	214.47253108024597	
51	146.1156530380249	movie	1		202.0	49.0	2.5	/experiments/knapen_aot/videos/S_pexels-anastasia-shuraeva-6014070.mp4	0.0	214.4806981086731	2.508347988128662
51	148.62400102615356	fix_post	2		12.0	49.0	2.5	/experiments/knapen_aot/videos/S_pexels-anastasia-shuraeva-6014070.mp4	0.0	216.98904609680176	0.09998703002929688
52	148.72398805618286	fix_pre	0		27.0	50.0	2.5	/experiments/knapen_aot/videos/R_S_yt-1_xoCNmTn3Y_1.mp4	0.0	217.08903312683105	0.22494101524353027
52	148.93323302268982	response	0	2		50.0	2.5	/experiments/knapen_aot/videos/R_S_yt-1_xoCNmTn3Y_1.mp4	0.0	217.298278093338	
52	148.9489290714264	movie	1		301.0	50.0	2.5	/experiments/knapen_aot/videos/R_S_yt-1_xoCNmTn3Y_1.mp4	0.0	217.31397414207458	2.5083060264587402
52	151.45723509788513	fix_post	2		12.0	50.0	2.5	/experiments/knapen_aot/videos/R_S_yt-1_xoCNmTn3Y_1.mp4	0.0	219.82228016853333	0.10008001327514648
53	151.55731511116028	fix_pre	0		4.0	51.0	2.5	/experiments/knapen_aot/videos/R_S_yt-bH4nJibL4Jo_164.mp4	0.0	219.92236018180847	0.03347277641296387
53	151.58247089385986	response	0	2		51.0	2.5	/experiments/knapen_aot/videos/R_S_yt-bH4nJibL4Jo_164.mp4	0.0	219.94751596450806	
53	151.59078788757324	movie	1		301.0	51.0	2.5	/experiments/knapen_aot/videos/R_S_yt-bH4nJibL4Jo_164.mp4	0.0	219.95583295822144	2.50816011428833
53	154.09894800186157	fix_post	2		12.0	51.0	2.5	/experiments/knapen_aot/videos/R_S_yt-bH4nJibL4Jo_164.mp4	0.0	222.46399307250977	0.09999394416809082
54	154.19894194602966	fix_pre	0		20.0	52.0	2.5	/experiments/knapen_aot/videos/R_S_yt-8LO59eN9om4_16.mp4	0.0	222.56398701667786	0.16663098335266113
54	154.35738492012024	response	0	2		52.0	2.5	/experiments/knapen_aot/videos/R_S_yt-8LO59eN9om4_16.mp4	0.0	222.72242999076843	
54	154.36557292938232	movie	1		301.0	52.0	2.5	/experiments/knapen_aot/videos/R_S_yt-8LO59eN9om4_16.mp4	0.0	222.73061800003052	2.5083329677581787
54	156.8739058971405	fix_post	2		12.0	52.0	2.5	/experiments/knapen_aot/videos/R_S_yt-8LO59eN9om4_16.mp4	0.0	225.2389509677887	0.099945068359375
55	156.97385096549988	fix_pre	0		17.0	53.0	2.5	/experiments/knapen_aot/videos/S_yt-f9iXELY0EJ0_344.mp4	0.0	225.33889603614807	0.141679048538208
55	157.10732507705688	response	0	2		53.0	2.5	/experiments/knapen_aot/videos/S_yt-f9iXELY0EJ0_344.mp4	0.0	225.47237014770508	
55	157.1155300140381	movie	1		301.0	53.0	2.5	/experiments/knapen_aot/videos/S_yt-f9iXELY0EJ0_344.mp4	0.0	225.48057508468628	2.508565902709961
55	159.62409591674805	fix_post	2		12.0	53.0	2.5	/experiments/knapen_aot/videos/S_yt-f9iXELY0EJ0_344.mp4	0.0	227.98914098739624	0.09978818893432617
56	159.72388410568237	fix_pre	0		26.0	54.0	2.5	blank	1.0	228.08892917633057	0.2172529697418213
56	159.93237400054932	response	0	2		54.0	2.5	blank	1.0	228.2974190711975	
56	159.9411370754242	movie	1		301.0	54.0	2.5	blank	1.0	228.3061821460724	2.5077710151672363
56	162.44890809059143	fix_post	2		12.0	54.0	2.5	blank	1.0	230.81395316123962	0.09997701644897461
57	162.5488851070404	fix_pre	0		22.0	55.0	2.5	/experiments/knapen_aot/videos/R_S_ILSVRC2015_train_00574004.mp4	0.0	230.9139301776886	0.18387079238891602
57	162.723974943161	response	0	2		55.0	2.5	/experiments/knapen_aot/videos/R_S_ILSVRC2015_train_00574004.mp4	0.0	231.0890200138092	
57	162.73275589942932	movie	1		301.0	55.0	2.5	/experiments/knapen_aot/videos/R_S_ILSVRC2015_train_00574004.mp4	0.0	231.09780097007751	2.5077672004699707
57	165.2405230998993	fix_post	2		12.0	55.0	2.5	/experiments/knapen_aot/videos/R_S_ILSVRC2015_train_00574004.mp4	0.0	233.60556817054749	0.10003280639648438
58	165.34055590629578	fix_pre	0		12.0	56.0	2.5	/experiments/knapen_aot/videos/R_S_yt--5ls65Ue1RA_52.mp4	0.0	233.70560097694397	0.10050106048583984
58	165.4323890209198	response	0	2		56.0	2.5	/experiments/knapen_aot/videos/R_S_yt--5ls65Ue1RA_52.mp4	0.0	233.797434091568	
58	165.44105696678162	movie	1		300.0	56.0	2.5	/experiments/knapen_aot/videos/R_S_yt--5ls65Ue1RA_52.mp4	0.0	233.8061020374298	2.5078060626983643
58	167.34065008163452	response	1	2		56.0	2.5	/experiments/knapen_aot/videos/R_S_yt--5ls65Ue1RA_52.mp4	0.0	235.70569515228271	
58	167.94886302947998	fix_post	2		12.0	56.0	2.5	/experiments/knapen_aot/videos/R_S_yt--5ls65Ue1RA_52.mp4	0.0	236.31390810012817	0.09998393058776855
59	168.04884696006775	fix_pre	0		18.0	57.0	2.5	/experiments/knapen_aot/videos/S_pexels-mikhail-nilov-8410084_1.mp4	0.0	236.41389203071594	0.14998197555541992
59	168.19067096710205	response	0	2		57.0	2.5	/experiments/knapen_aot/videos/S_pexels-mikhail-nilov-8410084_1.mp4	0.0	236.55571603775024	
59	168.19882893562317	movie	1		166.0	57.0	2.5	/experiments/knapen_aot/videos/S_pexels-mikhail-nilov-8410084_1.mp4	0.0	236.56387400627136	2.508366107940674
59	170.70719504356384	fix_post	2		12.0	57.0	2.5	/experiments/knapen_aot/videos/S_pexels-mikhail-nilov-8410084_1.mp4	0.0	239.07224011421204	0.1000368595123291
60	170.80723190307617	fix_pre	0		7.0	58.0	2.5	/experiments/knapen_aot/videos/R_S_yt-xrWo3lnbshw_80.mp4	0.0	239.17227697372437	0.05837607383728027
60	170.85035109519958	response	0	2		58.0	2.5	/experiments/knapen_aot/videos/R_S_yt-xrWo3lnbshw_80.mp4	0.0	239.21539616584778	
60	170.86560797691345	movie	1		301.0	58.0	2.5	/experiments/knapen_aot/videos/R_S_yt-xrWo3lnbshw_80.mp4	0.0	239.23065304756165	2.5082249641418457
60	173.3738329410553	fix_post	2		12.0	58.0	2.5	/experiments/knapen_aot/videos/R_S_yt-xrWo3lnbshw_80.mp4	0.0	241.7388780117035	0.10002303123474121
61	173.47385597229004	fix_pre	0		19.0	59.0	2.5	/experiments/knapen_aot/videos/R_S_ILSVRC2015_train_00495000.mp4	0.0	241.83890104293823	0.15827107429504395
61	173.6239950656891	response	0	2		59.0	2.5	/experiments/knapen_aot/videos/R_S_ILSVRC2015_train_00495000.mp4	0.0	241.98904013633728	
61	173.63212704658508	movie	1		301.0	59.0	2.5	/experiments/knapen_aot/videos/R_S_ILSVRC2015_train_00495000.mp4	0.0	241.99717211723328	2.508391857147217
61	176.1405189037323	fix_post	2		12.0	59.0	2.5	/experiments/knapen_aot/videos/R_S_ILSVRC2015_train_00495000.mp4	0.0	244.5055639743805	0.09999418258666992
62	176.24051308631897	fix_pre	0		15.0	60.0	2.5	/experiments/knapen_aot/videos/S_yt-zam74qlzGtQ_122.mp4	0.0	244.60555815696716	0.12494182586669922
62	176.35717296600342	response	0	2		60.0	2.5	/experiments/knapen_aot/videos/S_yt-zam74qlzGtQ_122.mp4	0.0	244.7222180366516	
62	176.36545491218567	movie	1		301.0	60.0	2.5	/experiments/knapen_aot/videos/S_yt-zam74qlzGtQ_122.mp4	0.0	244.73049998283386	2.508423089981079
62	178.87387800216675	fix_post	2		12.0	60.0	2.5	/experiments/knapen_aot/videos/S_yt-zam74qlzGtQ_122.mp4	0.0	247.23892307281494	0.09990787506103516
63	178.97378587722778	fix_pre	0		40.0	61.0	2.5	blank	1.0	247.33883094787598	0.3332982063293457
63	179.2989959716797	response	0	2		61.0	2.5	blank	1.0	247.66404104232788	
63	179.30708408355713	movie	1		301.0	61.0	2.5	blank	1.0	247.67212915420532	2.508333921432495
63	181.81541800498962	fix_post	2		12.0	61.0	2.5	blank	1.0	250.18046307563782	0.10006093978881836
64	181.91547894477844	fix_pre	0		181.0	62.0	2.5	/experiments/knapen_aot/videos/R_S_yt-ZE8Af60eNsI_15.mp4	0.0	250.28052401542664	1.508342981338501
64	183.40801692008972	response	0	2		62.0	2.5	/experiments/knapen_aot/videos/R_S_yt-ZE8Af60eNsI_15.mp4	0.0	251.77306199073792	
64	183.42382192611694	movie	1		301.0	62.0	2.5	/experiments/knapen_aot/videos/R_S_yt-ZE8Af60eNsI_15.mp4	0.0	251.78886699676514	2.5083181858062744
64	185.93214011192322	fix_post	2		12.0	62.0	2.5	/experiments/knapen_aot/videos/R_S_yt-ZE8Af60eNsI_15.mp4	0.0	254.2971851825714	0.0998997688293457
65	186.03203988075256	fix_pre	0		42.0	63.0	2.5	/experiments/knapen_aot/videos/R_S_yt-QI6k6mhpxLo_453.mp4	0.0	254.39708495140076	0.3500630855560303
65	186.37385892868042	response	0	2		63.0	2.5	/experiments/knapen_aot/videos/R_S_yt-QI6k6mhpxLo_453.mp4	0.0	254.7389039993286	
65	186.3821029663086	movie	1		300.0	63.0	2.5	/experiments/knapen_aot/videos/R_S_yt-QI6k6mhpxLo_453.mp4	0.0	254.7471480369568	2.508355140686035
65	188.89045810699463	fix_post	2		12.0	63.0	2.5	/experiments/knapen_aot/videos/R_S_yt-QI6k6mhpxLo_453.mp4	0.0	257.2555031776428	0.1000368595123291
66	188.99049496650696	fix_pre	0		141.0	64.0	2.5	/experiments/knapen_aot/videos/R_S_yt-O6W6CZPXvlA_15.mp4	0.0	257.35554003715515	1.1748850345611572
66	190.15727591514587	response	0	2		64.0	2.5	/experiments/knapen_aot/videos/R_S_yt-O6W6CZPXvlA_15.mp4	0.0	258.52232098579407	
66	190.16538000106812	movie	1		300.0	64.0	2.5	/experiments/knapen_aot/videos/R_S_yt-O6W6CZPXvlA_15.mp4	0.0	258.5304250717163	2.5085370540618896
66	192.67391705513	fix_post	2		12.0	64.0	2.5	/experiments/knapen_aot/videos/R_S_yt-O6W6CZPXvlA_15.mp4	0.0	261.0389621257782	0.10027790069580078
67	192.7741949558258	fix_pre	0		20.0	65.0	2.5	/experiments/knapen_aot/videos/R_S_yt-sWJc_Do8EaI_32.mp4	0.0	261.139240026474	0.16661906242370605
67	192.93235898017883	response	0	2		65.0	2.5	/experiments/knapen_aot/videos/R_S_yt-sWJc_Do8EaI_32.mp4	0.0	261.297404050827	
67	192.9408140182495	movie	1		301.0	65.0	2.5	/experiments/knapen_aot/videos/R_S_yt-sWJc_Do8EaI_32.mp4	0.0	261.3058590888977	2.507951021194458
67	195.44876503944397	fix_post	2		12.0	65.0	2.5	/experiments/knapen_aot/videos/R_S_yt-sWJc_Do8EaI_32.mp4	0.0	263.81381011009216	0.09996986389160156
68	195.54873490333557	fix_pre	0		13.0	66.0	2.5	/experiments/knapen_aot/videos/R_S_yt-r7PeFd-hIp0_378.mp4	0.0	263.91377997398376	0.10831618309020996
68	195.6488471031189	response	0	2		66.0	2.5	/experiments/knapen_aot/videos/R_S_yt-r7PeFd-hIp0_378.mp4	0.0	264.0138921737671	
68	195.65705108642578	movie	1		301.0	66.0	2.5	/experiments/knapen_aot/videos/R_S_yt-r7PeFd-hIp0_378.mp4	0.0	264.022096157074	2.5083298683166504
68	198.16538095474243	fix_post	2		12.0	66.0	2.5	/experiments/knapen_aot/videos/R_S_yt-r7PeFd-hIp0_378.mp4	0.0	266.5304260253906	0.0999910831451416
69	198.26537203788757	fix_pre	0		14.0	67.0	2.5	/experiments/knapen_aot/videos/S_wc-ZGCMbPfXQ71L_31.mp4	0.0	266.63041710853577	0.11663484573364258
69	198.37382292747498	response	0	2		67.0	2.5	/experiments/knapen_aot/videos/S_wc-ZGCMbPfXQ71L_31.mp4	0.0	266.73886799812317	
69	198.38200688362122	movie	1		163.0	67.0	2.5	/experiments/knapen_aot/videos/S_wc-ZGCMbPfXQ71L_31.mp4	0.0	266.7470519542694	2.508336067199707
69	200.89034295082092	fix_post	2		12.0	67.0	2.5	/experiments/knapen_aot/videos/S_wc-ZGCMbPfXQ71L_31.mp4	0.0	269.2553880214691	0.10003495216369629
70	200.99037790298462	fix_pre	0		16.0	68.0	2.5	blank	1.0	269.3554229736328	0.13330316543579102
70	201.11550998687744	response	0	2		68.0	2.5	blank	1.0	269.48055505752563	
70	201.1236810684204	movie	1		301.0	68.0	2.5	blank	1.0	269.4887261390686	2.5083789825439453
70	203.63206005096436	fix_post	2		12.0	68.0	2.5	blank	1.0	271.99710512161255	0.10035300254821777
71	203.73241305351257	fix_pre	0		26.0	69.0	2.5	/experiments/knapen_aot/videos/S_yt-O6W6CZPXvlA_15.mp4	0.0	272.09745812416077	0.21632599830627441
71	203.9406020641327	response	0	2		69.0	2.5	/experiments/knapen_aot/videos/S_yt-O6W6CZPXvlA_15.mp4	0.0	272.3056471347809	
71	203.94873905181885	movie	1		301.0	69.0	2.5	/experiments/knapen_aot/videos/S_yt-O6W6CZPXvlA_15.mp4	0.0	272.31378412246704	2.5082950592041016
71	206.45703411102295	fix_post	2		12.0	69.0	2.5	/experiments/knapen_aot/videos/S_yt-O6W6CZPXvlA_15.mp4	0.0	274.82207918167114	0.1000368595123291
72	206.55707097053528	fix_pre	0		78.0	70.0	2.5	/experiments/knapen_aot/videos/S_yt-kQpE9L-fsNE_55.mp4	0.0	274.9221160411835	0.6499569416046143
72	207.19888591766357	response	0	2		70.0	2.5	/experiments/knapen_aot/videos/S_yt-kQpE9L-fsNE_55.mp4	0.0	275.56393098831177	
72	207.2070279121399	movie	1		301.0	70.0	2.5	/experiments/knapen_aot/videos/S_yt-kQpE9L-fsNE_55.mp4	0.0	275.5720729827881	2.5083651542663574
72	209.71539306640625	fix_post	2		12.0	70.0	2.5	/experiments/knapen_aot/videos/S_yt-kQpE9L-fsNE_55.mp4	0.0	278.08043813705444	0.0999758243560791
73	209.81536889076233	fix_pre	0		27.0	71.0	2.5	/experiments/knapen_aot/videos/R_S_yt-fk-z6WCvjjA_3.mp4	0.0	278.1804139614105	0.22499704360961914
73	210.0321650505066	response	0	2		71.0	2.5	/experiments/knapen_aot/videos/R_S_yt-fk-z6WCvjjA_3.mp4	0.0	278.3972101211548	
73	210.04036593437195	movie	1		300.0	71.0	2.5	/experiments/knapen_aot/videos/R_S_yt-fk-z6WCvjjA_3.mp4	0.0	278.40541100502014	2.508345127105713
73	212.54871106147766	fix_post	2		12.0	71.0	2.5	/experiments/knapen_aot/videos/R_S_yt-fk-z6WCvjjA_3.mp4	0.0	280.91375613212585	0.1003258228302002
74	212.64903688430786	fix_pre	0		30.0	72.0	2.5	/experiments/knapen_aot/videos/S_wc-dwTccI0TNwps_15.mp4	0.0	281.01408195495605	0.24993300437927246
74	212.89033198356628	response	0	2		72.0	2.5	/experiments/knapen_aot/videos/S_wc-dwTccI0TNwps_15.mp4	0.0	281.2553770542145	
74	212.89896988868713	movie	1		301.0	72.0	2.5	/experiments/knapen_aot/videos/S_wc-dwTccI0TNwps_15.mp4	0.0	281.2640149593353	2.508052110671997
74	215.40702199935913	fix_post	2		12.0	72.0	2.5	/experiments/knapen_aot/videos/S_wc-dwTccI0TNwps_15.mp4	0.0	283.7720670700073	0.10001587867736816
75	215.5070378780365	fix_pre	0		28.0	73.0	2.5	/experiments/knapen_aot/videos/S_yt-VfASxEzDrvc_145.mp4	0.0	283.8720829486847	0.23330211639404297
75	215.73218393325806	response	0	2		73.0	2.5	/experiments/knapen_aot/videos/S_yt-VfASxEzDrvc_145.mp4	0.0	284.09722900390625	
75	215.74033999443054	movie	1		301.0	73.0	2.5	/experiments/knapen_aot/videos/S_yt-VfASxEzDrvc_145.mp4	0.0	284.10538506507874	2.508366107940674
75	218.24870610237122	fix_post	2		12.0	73.0	2.5	/experiments/knapen_aot/videos/S_yt-VfASxEzDrvc_145.mp4	0.0	286.6137511730194	0.09993696212768555
76	218.3486430644989	fix_pre	0		23.0	74.0	2.5	/experiments/knapen_aot/videos/R_S_production_ID_3944248.mp4	0.0	286.7136881351471	0.1917128562927246
76	218.5321021080017	response	0	2		74.0	2.5	/experiments/knapen_aot/videos/R_S_production_ID_3944248.mp4	0.0	286.8971471786499	
76	218.54035592079163	movie	1		202.0	74.0	2.5	/experiments/knapen_aot/videos/R_S_production_ID_3944248.mp4	0.0	286.9054009914398	2.5082640647888184
76	221.04861998558044	fix_post	2		12.0	74.0	2.5	/experiments/knapen_aot/videos/R_S_production_ID_3944248.mp4	0.0	289.41366505622864	0.09999394416809082
77	221.14861392974854	fix_pre	0		18.0	75.0	2.5	/experiments/knapen_aot/videos/R_S_pexels-mikhail-nilov-8410084_1.mp4	0.0	289.51365900039673	0.1499640941619873
77	221.29039692878723	response	0	2		75.0	2.5	/experiments/knapen_aot/videos/R_S_pexels-mikhail-nilov-8410084_1.mp4	0.0	289.6554419994354	
77	221.29857802391052	movie	1		163.0	75.0	2.5	/experiments/knapen_aot/videos/R_S_pexels-mikhail-nilov-8410084_1.mp4	0.0	289.6636230945587	2.5083820819854736
77	223.806960105896	fix_post	2		12.0	75.0	2.5	/experiments/knapen_aot/videos/R_S_pexels-mikhail-nilov-8410084_1.mp4	0.0	292.1720051765442	0.10001778602600098
78	223.906977891922	fix_pre	0		23.0	76.0	2.5	blank	1.0	292.2720229625702	0.19163107872009277
78	224.0904359817505	response	0	2		76.0	2.5	blank	1.0	292.4554810523987	
78	224.0986089706421	movie	1		301.0	76.0	2.5	blank	1.0	292.4636540412903	2.508357048034668
78	226.60696601867676	fix_post	2		12.0	76.0	2.5	blank	1.0	294.97201108932495	0.09993505477905273
79	226.7069010734558	fix_pre	0		26.0	77.0	2.5	/experiments/knapen_aot/videos/S_yt--OkafQ5VFHs_51.mp4	0.0	295.071946144104	0.21664786338806152
79	226.91543698310852	response	0	2		77.0	2.5	/experiments/knapen_aot/videos/S_yt--OkafQ5VFHs_51.mp4	0.0	295.2804820537567	
79	226.92354893684387	movie	1		301.0	77.0	2.5	/experiments/knapen_aot/videos/S_yt--OkafQ5VFHs_51.mp4	0.0	295.28859400749207	2.508420944213867
79	229.43196988105774	fix_post	2		12.0	77.0	2.5	/experiments/knapen_aot/videos/S_yt--OkafQ5VFHs_51.mp4	0.0	297.79701495170593	0.09998512268066406
80	229.5319550037384	fix_pre	0		25.0	78.0	2.5	/experiments/knapen_aot/videos/S_I004_C014_SDR_2K_AVC.mp4	0.0	297.8970000743866	0.20828795433044434
80	229.73204898834229	response	0	2		78.0	2.5	/experiments/knapen_aot/videos/S_I004_C014_SDR_2K_AVC.mp4	0.0	298.0970940589905	
80	229.74024295806885	movie	1		169.0	78.0	2.5	/experiments/knapen_aot/videos/S_I004_C014_SDR_2K_AVC.mp4	0.0	298.10528802871704	2.508413076400757
80	232.2486560344696	fix_post	2		12.0	78.0	2.5	/experiments/knapen_aot/videos/S_I004_C014_SDR_2K_AVC.mp4	0.0	300.6137011051178	0.09995007514953613
81	232.34860610961914	fix_pre	0		14.0	79.0	2.5	/experiments/knapen_aot/videos/S_flickr-evananderica-2662125519_8.mp4	0.0	300.71365118026733	0.11667394638061523
81	232.45702505111694	response	0	2		79.0	2.5	/experiments/knapen_aot/videos/S_flickr-evananderica-2662125519_8.mp4	0.0	300.82207012176514	
81	232.46528005599976	movie	1		298.0	79.0	2.5	/experiments/knapen_aot/videos/S_flickr-evananderica-2662125519_8.mp4	0.0	300.83032512664795	2.5082859992980957
81	234.97356605529785	fix_post	2		12.0	79.0	2.5	/experiments/knapen_aot/videos/S_flickr-evananderica-2662125519_8.mp4	0.0	303.33861112594604	0.0999898910522461
82	235.0735559463501	fix_pre	0		22.0	80.0	2.5	/experiments/knapen_aot/videos/S_yt-zgkJCgcT1s4_300.mp4	0.0	303.4386010169983	0.18332910537719727
82	235.24866390228271	response	0	2		80.0	2.5	/experiments/knapen_aot/videos/S_yt-zgkJCgcT1s4_300.mp4	0.0	303.6137089729309	
82	235.2568850517273	movie	1		301.0	80.0	2.5	/experiments/knapen_aot/videos/S_yt-zgkJCgcT1s4_300.mp4	0.0	303.6219301223755	2.508419990539551
82	237.76530504226685	fix_post	2		12.0	80.0	2.5	/experiments/knapen_aot/videos/S_yt-zgkJCgcT1s4_300.mp4	0.0	306.13035011291504	0.09992504119873047
83	237.86523008346558	fix_pre	0		37.0	81.0	2.5	/experiments/knapen_aot/videos/S_yt-sIXdPhfS67U_203.mp4	0.0	306.23027515411377	0.3083188533782959
83	238.16542100906372	response	0	2		81.0	2.5	/experiments/knapen_aot/videos/S_yt-sIXdPhfS67U_203.mp4	0.0	306.5304660797119	
83	238.17354893684387	movie	1		301.0	81.0	2.5	/experiments/knapen_aot/videos/S_yt-sIXdPhfS67U_203.mp4	0.0	306.53859400749207	2.50844407081604
83	240.6819930076599	fix_post	2		12.0	81.0	2.5	/experiments/knapen_aot/videos/S_yt-sIXdPhfS67U_203.mp4	0.0	309.0470380783081	0.09992790222167969
84	240.7819209098816	fix_pre	0		33.0	82.0	2.5	blank	1.0	309.1469659805298	0.2749950885772705
84	241.04874300956726	response	0	2		82.0	2.5	blank	1.0	309.41378808021545	
84	241.05691599845886	movie	1		301.0	82.0	2.5	blank	1.0	309.42196106910706	2.5085339546203613
84	243.56544995307922	fix_post	2		12.0	82.0	2.5	blank	1.0	311.9304950237274	0.09978199005126953
85	243.6652319431305	fix_pre	0		192.0	83.0	2.5	/experiments/knapen_aot/videos/R_S_yt-HwGg4-zeWi8_364.mp4	0.0	312.0302770137787	1.599980115890503
85	245.25703406333923	response	0	2		83.0	2.5	/experiments/knapen_aot/videos/R_S_yt-HwGg4-zeWi8_364.mp4	0.0	313.6220791339874	
85	245.265212059021	movie	1		301.0	83.0	2.5	/experiments/knapen_aot/videos/R_S_yt-HwGg4-zeWi8_364.mp4	0.0	313.6302571296692	2.5084359645843506
85	247.77364802360535	fix_post	2		12.0	83.0	2.5	/experiments/knapen_aot/videos/R_S_yt-HwGg4-zeWi8_364.mp4	0.0	316.13869309425354	0.09993195533752441
87	247.87357997894287	stim	0		49.0					316.23862504959106	0.4083240032196045
87	248.14029788970947	response	0	2						316.50534296035767	
87	248.2707998752594	response	0	space						316.6358449459076	
