trial_nr	onset	event_type	phase	response	nr_frames	movie_index	movie_duration	movie_file	blank	onset_abs	duration
0	0.15601110458374023	stim	0		31.0					287.350594997406	0.26061582565307617
0	0.4063379764556885	response	0	space						287.60092186927795	
1	0.4166269302368164	stim	0		121.0					287.6112108230591	1.0060391426086426
1	1.422666072845459	stim	1		120.0					288.6172499656677	1.0005979537963867
1	2.230907917022705	response	1	space						289.42549180984497	
2	2.4232640266418457	fix_pre	0		69.0	0.0	2.5	/experiments/knapen_aot/videos/S_pexels-cottonbro-6788024.mp4	0.0	289.6178479194641	0.5763919353485107
2	2.989180088043213	response	0	space		0.0	2.5	/experiments/knapen_aot/videos/S_pexels-cottonbro-6788024.mp4	0.0	290.1837639808655	
2	2.9996559619903564	movie	1		192.0	0.0	2.5	/experiments/knapen_aot/videos/S_pexels-cottonbro-6788024.mp4	0.0	290.1942398548126	2.5061230659484863
2	5.505779027938843	fix_post	2		12.0	0.0	2.5	/experiments/knapen_aot/videos/S_pexels-cottonbro-6788024.mp4	0.0	292.7003629207611	0.10002803802490234
3	5.605807065963745	fix_pre	0		14.0	1.0	2.5	/experiments/knapen_aot/videos/R_S_wc-oyG6AjP_W2EL_15.mp4	0.0	292.800390958786	0.12295389175415039
3	5.718724966049194	response	0	2		1.0	2.5	/experiments/knapen_aot/videos/R_S_wc-oyG6AjP_W2EL_15.mp4	0.0	292.91330885887146	
3	5.7287609577178955	movie	1		300.0	1.0	2.5	/experiments/knapen_aot/videos/R_S_wc-oyG6AjP_W2EL_15.mp4	0.0	292.92334485054016	2.501955986022949
3	8.230716943740845	fix_post	2		12.0	1.0	2.5	/experiments/knapen_aot/videos/R_S_wc-oyG6AjP_W2EL_15.mp4	0.0	295.4253008365631	0.10000109672546387
4	8.330718040466309	fix_pre	0		15.0	2.0	2.5	/experiments/knapen_aot/videos/R_S_yt-1UFhynm5g6Y_266.mp4	0.0	295.5253019332886	0.12501001358032227
4	8.447493076324463	response	0	2		2.0	2.5	/experiments/knapen_aot/videos/R_S_yt-1UFhynm5g6Y_266.mp4	0.0	295.64207696914673	
4	8.45572805404663	movie	1		301.0	2.0	2.5	/experiments/knapen_aot/videos/R_S_yt-1UFhynm5g6Y_266.mp4	0.0	295.6503119468689	2.5082850456237793
4	10.96401309967041	fix_post	2		12.0	2.0	2.5	/experiments/knapen_aot/videos/R_S_yt-1UFhynm5g6Y_266.mp4	0.0	298.1585969924927	0.1000208854675293
5	11.06403398513794	fix_pre	0		7.0	3.0	2.5	/experiments/knapen_aot/videos/R_S_yt-ibDaDIEazxg_3.mp4	0.0	298.2586178779602	0.05831098556518555
5	11.114229917526245	response	0	2		3.0	2.5	/experiments/knapen_aot/videos/R_S_yt-ibDaDIEazxg_3.mp4	0.0	298.3088138103485	
5	11.122344970703125	movie	1		301.0	3.0	2.5	/experiments/knapen_aot/videos/R_S_yt-ibDaDIEazxg_3.mp4	0.0	298.3169288635254	2.5083889961242676
5	13.630733966827393	fix_post	2		12.0	3.0	2.5	/experiments/knapen_aot/videos/R_S_yt-ibDaDIEazxg_3.mp4	0.0	300.82531785964966	0.10000896453857422
6	13.730742931365967	fix_pre	0		22.0	4.0	2.5	/experiments/knapen_aot/videos/S_yt-mDil5vGZb14_4049.mp4	0.0	300.92532682418823	0.18332505226135254
6	13.905826091766357	response	0	2		4.0	2.5	/experiments/knapen_aot/videos/S_yt-mDil5vGZb14_4049.mp4	0.0	301.1004099845886	
6	13.91406798362732	movie	1		301.0	4.0	2.5	/experiments/knapen_aot/videos/S_yt-mDil5vGZb14_4049.mp4	0.0	301.1086518764496	2.508229970932007
6	16.422297954559326	fix_post	2		12.0	4.0	2.5	/experiments/knapen_aot/videos/S_yt-mDil5vGZb14_4049.mp4	0.0	303.6168818473816	0.10007214546203613
7	16.522370100021362	fix_pre	0		41.0	5.0	2.5	/experiments/knapen_aot/videos/S_production_ID_4121250.mp4	0.0	303.7169539928436	0.3416719436645508
7	16.84832000732422	response	0	2		5.0	2.5	/experiments/knapen_aot/videos/S_production_ID_4121250.mp4	0.0	304.0429039001465	
7	16.864042043685913	movie	1		166.0	5.0	2.5	/experiments/knapen_aot/videos/S_production_ID_4121250.mp4	0.0	304.0586259365082	2.5082149505615234
7	19.372256994247437	fix_post	2		12.0	5.0	2.5	/experiments/knapen_aot/videos/S_production_ID_4121250.mp4	0.0	306.5668408870697	0.10004496574401855
8	19.472301959991455	fix_pre	0		6.0	6.0	2.5	blank	1.0	306.6668858528137	0.05005812644958496
8	19.514682054519653	response	0	2		6.0	2.5	blank	1.0	306.7092659473419	
8	19.52236008644104	movie	1		301.0	6.0	2.5	blank	1.0	306.7169439792633	2.5082550048828125
8	22.030615091323853	fix_post	2		12.0	6.0	2.5	blank	1.0	309.2251989841461	0.10006594657897949
9	22.130681037902832	fix_pre	0		54.0	7.0	2.5	/experiments/knapen_aot/videos/R_S_pexels-rodnae-productions-5993671.mp4	0.0	309.3252649307251	0.44997096061706543
9	22.564908981323242	response	0	2		7.0	2.5	/experiments/knapen_aot/videos/R_S_pexels-rodnae-productions-5993671.mp4	0.0	309.7594928741455	
9	22.580651998519897	movie	1		164.0	7.0	2.5	/experiments/knapen_aot/videos/R_S_pexels-rodnae-productions-5993671.mp4	0.0	309.77523589134216	2.5083889961242676
9	25.089040994644165	fix_post	2		12.0	7.0	2.5	/experiments/knapen_aot/videos/R_S_pexels-rodnae-productions-5993671.mp4	0.0	312.28362488746643	0.1000220775604248
10	25.18906307220459	fix_pre	0		9.0	8.0	2.5	/experiments/knapen_aot/videos/S_X-D3lUv-atE_376.mp4	0.0	312.38364696502686	0.07495784759521484
10	25.25576090812683	response	0	2		8.0	2.5	/experiments/knapen_aot/videos/S_X-D3lUv-atE_376.mp4	0.0	312.4503448009491	
10	25.264020919799805	movie	1		301.0	8.0	2.5	/experiments/knapen_aot/videos/S_X-D3lUv-atE_376.mp4	0.0	312.45860481262207	2.5083510875701904
10	27.772372007369995	fix_post	2		12.0	8.0	2.5	/experiments/knapen_aot/videos/S_X-D3lUv-atE_376.mp4	0.0	314.96695590019226	0.10001897811889648
11	27.87239098548889	fix_pre	0		16.0	9.0	2.5	/experiments/knapen_aot/videos/R_S_SE_A016_C009_SDR_20190717_SDR_2K_AVC.mp4	0.0	315.06697487831116	0.13400506973266602
11	27.997636079788208	response	0	2		9.0	2.5	/experiments/knapen_aot/videos/R_S_SE_A016_C009_SDR_20190717_SDR_2K_AVC.mp4	0.0	315.1922199726105	
11	28.006396055221558	movie	1		167.0	9.0	2.5	/experiments/knapen_aot/videos/R_S_SE_A016_C009_SDR_20190717_SDR_2K_AVC.mp4	0.0	315.2009799480438	2.507572889328003
11	30.51396894454956	fix_post	2		12.0	9.0	2.5	/experiments/knapen_aot/videos/R_S_SE_A016_C009_SDR_20190717_SDR_2K_AVC.mp4	0.0	317.7085528373718	0.09999895095825195
12	30.613967895507812	fix_pre	0		18.0	10.0	2.5	/experiments/knapen_aot/videos/R_S_yt-okYy5Md2U8I_7.mp4	0.0	317.8085517883301	0.14997315406799316
12	30.755763053894043	response	0	2		10.0	2.5	/experiments/knapen_aot/videos/R_S_yt-okYy5Md2U8I_7.mp4	0.0	317.9503469467163	
12	30.763941049575806	movie	1		301.0	10.0	2.5	/experiments/knapen_aot/videos/R_S_yt-okYy5Md2U8I_7.mp4	0.0	317.95852494239807	2.5083370208740234
12	33.27227807044983	fix_post	2		12.0	10.0	2.5	/experiments/knapen_aot/videos/R_S_yt-okYy5Md2U8I_7.mp4	0.0	320.4668619632721	0.10006189346313477
13	33.372339963912964	fix_pre	0		7.0	11.0	2.5	/experiments/knapen_aot/videos/S_yt-Q6BFO3Yz0zY_363.mp4	0.0	320.56692385673523	0.05832695960998535
13	33.42331910133362	response	0	2		11.0	2.5	/experiments/knapen_aot/videos/S_yt-Q6BFO3Yz0zY_363.mp4	0.0	320.6179029941559	
13	33.43066692352295	movie	1		301.0	11.0	2.5	/experiments/knapen_aot/videos/S_yt-Q6BFO3Yz0zY_363.mp4	0.0	320.6252508163452	2.508186101913452
13	35.9388530254364	fix_post	2		12.0	11.0	2.5	/experiments/knapen_aot/videos/S_yt-Q6BFO3Yz0zY_363.mp4	0.0	323.13343691825867	0.1000509262084961
14	36.0389039516449	fix_pre	0		7.0	12.0	2.5	blank	1.0	323.23348784446716	0.05832505226135254
14	36.089097023010254	response	0	2		12.0	2.5	blank	1.0	323.2836809158325	
14	36.09722900390625	movie	1		301.0	12.0	2.5	blank	1.0	323.2918128967285	2.5084030628204346
14	38.605632066726685	fix_post	2		12.0	12.0	2.5	blank	1.0	325.80021595954895	0.09991788864135742
15	38.70554995536804	fix_pre	0		29.0	13.0	2.5	/experiments/knapen_aot/videos/R_S_ILSVRC2015_train_00682000.mp4	0.0	325.9001338481903	0.2417130470275879
15	38.93902897834778	response	0	2		13.0	2.5	/experiments/knapen_aot/videos/R_S_ILSVRC2015_train_00682000.mp4	0.0	326.13361287117004	
15	38.94726300239563	movie	1		301.0	13.0	2.5	/experiments/knapen_aot/videos/R_S_ILSVRC2015_train_00682000.mp4	0.0	326.1418468952179	2.5083088874816895
15	41.45557188987732	fix_post	2		12.0	13.0	2.5	/experiments/knapen_aot/videos/R_S_ILSVRC2015_train_00682000.mp4	0.0	328.6501557826996	0.1001131534576416
16	41.55568504333496	fix_pre	0		29.0	14.0	2.5	/experiments/knapen_aot/videos/R_S_I003_C015_SDR_2K_AVC.mp4	0.0	328.7502689361572	0.24218106269836426
16	41.78903102874756	response	0	2		14.0	2.5	/experiments/knapen_aot/videos/R_S_I003_C015_SDR_2K_AVC.mp4	0.0	328.9836149215698	
16	41.797866106033325	movie	1		172.0	14.0	2.5	/experiments/knapen_aot/videos/R_S_I003_C015_SDR_2K_AVC.mp4	0.0	328.9924499988556	2.50768780708313
16	44.305553913116455	fix_post	2		12.0	14.0	2.5	/experiments/knapen_aot/videos/R_S_I003_C015_SDR_2K_AVC.mp4	0.0	331.5001378059387	0.10001015663146973
17	44.405564069747925	fix_pre	0		29.0	15.0	2.5	/experiments/knapen_aot/videos/S_yt-r4st6Mt4EE8_85.mp4	0.0	331.6001479625702	0.24168181419372559
17	44.63899493217468	response	0	2		15.0	2.5	/experiments/knapen_aot/videos/S_yt-r4st6Mt4EE8_85.mp4	0.0	331.83357882499695	
17	44.64724588394165	movie	1		300.0	15.0	2.5	/experiments/knapen_aot/videos/S_yt-r4st6Mt4EE8_85.mp4	0.0	331.8418297767639	2.508316993713379
17	47.15556287765503	fix_post	2		12.0	15.0	2.5	/experiments/knapen_aot/videos/S_yt-r4st6Mt4EE8_85.mp4	0.0	334.3501467704773	0.10001420974731445
18	47.255577087402344	fix_pre	0		22.0	16.0	2.5	/experiments/knapen_aot/videos/S_pexels-koolshooters-7327401_1.mp4	0.0	334.4501609802246	0.18331480026245117
18	47.430761098861694	response	0	2		16.0	2.5	/experiments/knapen_aot/videos/S_pexels-koolshooters-7327401_1.mp4	0.0	334.62534499168396	
18	47.438891887664795	movie	1		166.0	16.0	2.5	/experiments/knapen_aot/videos/S_pexels-koolshooters-7327401_1.mp4	0.0	334.63347578048706	2.5083861351013184
18	49.94727802276611	fix_post	2		12.0	16.0	2.5	/experiments/knapen_aot/videos/S_pexels-koolshooters-7327401_1.mp4	0.0	337.1418619155884	0.09993791580200195
19	50.047215938568115	fix_pre	0		19.0	17.0	2.5	/experiments/knapen_aot/videos/R_S_pexels-mart-production-7698693.mp4	0.0	337.2417998313904	0.15834999084472656
19	50.18989109992981	response	0	2		17.0	2.5	/experiments/knapen_aot/videos/R_S_pexels-mart-production-7698693.mp4	0.0	337.3844749927521	
19	50.20556592941284	movie	1		186.0	17.0	2.5	/experiments/knapen_aot/videos/R_S_pexels-mart-production-7698693.mp4	0.0	337.4001498222351	2.5082859992980957
19	52.71385192871094	fix_post	2		12.0	17.0	2.5	/experiments/knapen_aot/videos/R_S_pexels-mart-production-7698693.mp4	0.0	339.9084358215332	0.1000070571899414
20	52.81385898590088	fix_pre	0		29.0	18.0	2.5	/experiments/knapen_aot/videos/R_S_yt-XtzmBXKYEWk_60.mp4	0.0	340.00844287872314	0.24166607856750488
20	53.047274112701416	response	0	2		18.0	2.5	/experiments/knapen_aot/videos/R_S_yt-XtzmBXKYEWk_60.mp4	0.0	340.2418580055237	
20	53.055525064468384	movie	1		301.0	18.0	2.5	/experiments/knapen_aot/videos/R_S_yt-XtzmBXKYEWk_60.mp4	0.0	340.25010895729065	2.5083489418029785
20	55.56387400627136	fix_post	2		12.0	18.0	2.5	/experiments/knapen_aot/videos/R_S_yt-XtzmBXKYEWk_60.mp4	0.0	342.7584578990936	0.09998106956481934
21	55.66385507583618	fix_pre	0		4.0	19.0	2.5	blank	1.0	342.85843896865845	0.03336000442504883
21	55.68899989128113	response	0	2		19.0	2.5	blank	1.0	342.8835837841034	
21	55.69721508026123	movie	1		301.0	19.0	2.5	blank	1.0	342.8917989730835	2.5082449913024902
21	58.20546007156372	fix_post	2		12.0	19.0	2.5	blank	1.0	345.400043964386	0.10004496574401855
22	58.30550503730774	fix_pre	0		37.0	20.0	2.5	/experiments/knapen_aot/videos/S_video_inspire_italy_como_cerano-dintelvi_006.1080-h264.mp4	0.0	345.50008893013	0.30829787254333496
22	58.60564303398132	response	0	2		20.0	2.5	/experiments/knapen_aot/videos/S_video_inspire_italy_como_cerano-dintelvi_006.1080-h264.mp4	0.0	345.8002269268036	
22	58.613802909851074	movie	1		169.0	20.0	2.5	/experiments/knapen_aot/videos/S_video_inspire_italy_como_cerano-dintelvi_006.1080-h264.mp4	0.0	345.80838680267334	2.5082900524139404
22	61.122092962265015	fix_post	2		12.0	20.0	2.5	/experiments/knapen_aot/videos/S_video_inspire_italy_como_cerano-dintelvi_006.1080-h264.mp4	0.0	348.3166768550873	0.1000680923461914
23	61.222161054611206	fix_pre	0		19.0	21.0	2.5	/experiments/knapen_aot/videos/R_S_pexels-anastasia-shuraeva-601407_2.mp4	0.0	348.4167449474335	0.1588449478149414
23	61.372353076934814	response	0	2		21.0	2.5	/experiments/knapen_aot/videos/R_S_pexels-anastasia-shuraeva-601407_2.mp4	0.0	348.5669369697571	
23	61.38100600242615	movie	1		199.0	21.0	2.5	/experiments/knapen_aot/videos/R_S_pexels-anastasia-shuraeva-601407_2.mp4	0.0	348.5755898952484	2.507812976837158
23	63.888818979263306	fix_post	2		12.0	21.0	2.5	/experiments/knapen_aot/videos/R_S_pexels-anastasia-shuraeva-601407_2.mp4	0.0	351.08340287208557	0.0999901294708252
24	63.98880910873413	fix_pre	0		19.0	22.0	2.5	/experiments/knapen_aot/videos/S_yt-_BvMLZo0MG0_1226.mp4	0.0	351.1833930015564	0.15839791297912598
24	64.138925075531	response	0	2		22.0	2.5	/experiments/knapen_aot/videos/S_yt-_BvMLZo0MG0_1226.mp4	0.0	351.33350896835327	
24	64.14720702171326	movie	1		301.0	22.0	2.5	/experiments/knapen_aot/videos/S_yt-_BvMLZo0MG0_1226.mp4	0.0	351.3417909145355	2.5082919597625732
24	66.65549898147583	fix_post	2		12.0	22.0	2.5	/experiments/knapen_aot/videos/S_yt-_BvMLZo0MG0_1226.mp4	0.0	353.8500828742981	0.0999600887298584
25	66.75545907020569	fix_pre	0		13.0	23.0	2.5	/experiments/knapen_aot/videos/R_S_yt-CJeyOFsd3lg_80.mp4	0.0	353.95004296302795	0.10832691192626953
25	66.85562205314636	response	0	2		23.0	2.5	/experiments/knapen_aot/videos/R_S_yt-CJeyOFsd3lg_80.mp4	0.0	354.0502059459686	
25	66.86378598213196	movie	1		300.0	23.0	2.5	/experiments/knapen_aot/videos/R_S_yt-CJeyOFsd3lg_80.mp4	0.0	354.0583698749542	2.508312940597534
25	69.37209892272949	fix_post	2		12.0	23.0	2.5	/experiments/knapen_aot/videos/R_S_yt-CJeyOFsd3lg_80.mp4	0.0	356.56668281555176	0.10006117820739746
25	69.45553588867188	response	2	2		23.0	2.5	/experiments/knapen_aot/videos/R_S_yt-CJeyOFsd3lg_80.mp4	0.0	356.65011978149414	
26	69.47216010093689	fix_pre	0		126.0	24.0	2.5	/experiments/knapen_aot/videos/R_S_pexels-anthony-shkraba-production-8135459.mp4	0.0	356.66674399375916	1.0498828887939453
26	70.5139970779419	response	0	2		24.0	2.5	/experiments/knapen_aot/videos/R_S_pexels-anthony-shkraba-production-8135459.mp4	0.0	357.70858097076416	
26	70.52204298973083	movie	1		166.0	24.0	2.5	/experiments/knapen_aot/videos/R_S_pexels-anthony-shkraba-production-8135459.mp4	0.0	357.7166268825531	2.5083720684051514
26	73.03041505813599	fix_post	2		12.0	24.0	2.5	/experiments/knapen_aot/videos/R_S_pexels-anthony-shkraba-production-8135459.mp4	0.0	360.22499895095825	0.10000300407409668
27	73.13041806221008	fix_pre	0		10.0	25.0	2.5	/experiments/knapen_aot/videos/S_pexels-cottonbro-9063801_1.mp4	0.0	360.32500195503235	0.08377790451049805
27	73.20554399490356	response	0	2		25.0	2.5	/experiments/knapen_aot/videos/S_pexels-cottonbro-9063801_1.mp4	0.0	360.40012788772583	
27	73.21419596672058	movie	1		204.0	25.0	2.5	/experiments/knapen_aot/videos/S_pexels-cottonbro-9063801_1.mp4	0.0	360.40877985954285	2.5079169273376465
27	75.72211289405823	fix_post	2		12.0	25.0	2.5	/experiments/knapen_aot/videos/S_pexels-cottonbro-9063801_1.mp4	0.0	362.9166967868805	0.09990501403808594
28	75.82201790809631	fix_pre	0		28.0	26.0	2.5	/experiments/knapen_aot/videos/R_S_G010_C026_UHD_SDR_v02_2K_AVC.mp4	0.0	363.0166018009186	0.2334151268005371
28	76.0472309589386	response	0	4		26.0	2.5	/experiments/knapen_aot/videos/R_S_G010_C026_UHD_SDR_v02_2K_AVC.mp4	0.0	363.24181485176086	
28	76.05543303489685	movie	1		179.0	26.0	2.5	/experiments/knapen_aot/videos/R_S_G010_C026_UHD_SDR_v02_2K_AVC.mp4	0.0	363.2500169277191	2.5083439350128174
28	78.56377696990967	fix_post	2		12.0	26.0	2.5	/experiments/knapen_aot/videos/R_S_G010_C026_UHD_SDR_v02_2K_AVC.mp4	0.0	365.75836086273193	0.09992313385009766
29	78.66370010375977	fix_pre	0		7.0	27.0	2.5	/experiments/knapen_aot/videos/R_S_yt-NFb0SUCeiro_158.mp4	0.0	365.85828399658203	0.05836200714111328
29	78.70644497871399	response	0	2		27.0	2.5	/experiments/knapen_aot/videos/R_S_yt-NFb0SUCeiro_158.mp4	0.0	365.90102887153625	
29	78.72206211090088	movie	1		301.0	27.0	2.5	/experiments/knapen_aot/videos/R_S_yt-NFb0SUCeiro_158.mp4	0.0	365.91664600372314	2.508312940597534
29	81.23037505149841	fix_post	2		12.0	27.0	2.5	/experiments/knapen_aot/videos/R_S_yt-NFb0SUCeiro_158.mp4	0.0	368.4249589443207	0.10002803802490234
30	81.33040308952332	fix_pre	0		38.0	28.0	2.5	blank	1.0	368.5249869823456	0.31668901443481445
30	81.63885593414307	response	0	2		28.0	2.5	blank	1.0	368.83343982696533	
30	81.64709210395813	movie	1		301.0	28.0	2.5	blank	1.0	368.8416759967804	2.508293867111206
30	84.15538597106934	fix_post	2		12.0	28.0	2.5	blank	1.0	371.3499698638916	0.09998297691345215
31	84.25536894798279	fix_pre	0		20.0	29.0	2.5	/experiments/knapen_aot/videos/S_wc-16LozRfhUGea_49.mp4	0.0	371.44995284080505	0.1670849323272705
31	84.41383290290833	response	0	2		29.0	2.5	/experiments/knapen_aot/videos/S_wc-16LozRfhUGea_49.mp4	0.0	371.6084167957306	
31	84.42245388031006	movie	1		301.0	29.0	2.5	/experiments/knapen_aot/videos/S_wc-16LozRfhUGea_49.mp4	0.0	371.6170377731323	2.507948160171509
31	86.93040204048157	fix_post	2		12.0	29.0	2.5	/experiments/knapen_aot/videos/S_wc-16LozRfhUGea_49.mp4	0.0	374.12498593330383	0.10005307197570801
32	87.03045511245728	fix_pre	0		6.0	30.0	2.5	/experiments/knapen_aot/videos/R_S_video-8.mp4	0.0	374.22503900527954	0.04993295669555664
32	87.07215595245361	response	0	2		30.0	2.5	/experiments/knapen_aot/videos/R_S_video-8.mp4	0.0	374.2667398452759	
32	87.08038806915283	movie	1		202.0	30.0	2.5	/experiments/knapen_aot/videos/R_S_video-8.mp4	0.0	374.2749719619751	2.508291006088257
32	89.58867907524109	fix_post	2		12.0	30.0	2.5	/experiments/knapen_aot/videos/R_S_video-8.mp4	0.0	376.78326296806335	0.10005784034729004
33	89.68873691558838	fix_pre	0		14.0	31.0	2.5	/experiments/knapen_aot/videos/S_yt-Xq6uX1jfFRk_21.mp4	0.0	376.88332080841064	0.11661410331726074
33	89.79715609550476	response	0	2		31.0	2.5	/experiments/knapen_aot/videos/S_yt-Xq6uX1jfFRk_21.mp4	0.0	376.991739988327	
33	89.80535101890564	movie	1		301.0	31.0	2.5	/experiments/knapen_aot/videos/S_yt-Xq6uX1jfFRk_21.mp4	0.0	376.9999349117279	2.5083529949188232
33	92.31370401382446	fix_post	2		12.0	31.0	2.5	/experiments/knapen_aot/videos/S_yt-Xq6uX1jfFRk_21.mp4	0.0	379.50828790664673	0.10002803802490234
34	92.41373205184937	fix_pre	0		17.0	32.0	2.5	/experiments/knapen_aot/videos/R_S_pexels-anastasia-shuraeva-601407_2.mp4	0.0	379.60831594467163	0.14160799980163574
34	92.5472800731659	response	0	2		32.0	2.5	/experiments/knapen_aot/videos/R_S_pexels-anastasia-shuraeva-601407_2.mp4	0.0	379.74186396598816	
34	92.555340051651	movie	1		203.0	32.0	2.5	/experiments/knapen_aot/videos/R_S_pexels-anastasia-shuraeva-601407_2.mp4	0.0	379.74992394447327	2.5082879066467285
34	95.06362795829773	fix_post	2		12.0	32.0	2.5	/experiments/knapen_aot/videos/R_S_pexels-anastasia-shuraeva-601407_2.mp4	0.0	382.25821185112	0.10006093978881836
35	95.16368889808655	fix_pre	0		6.0	33.0	2.5	blank	1.0	382.3582727909088	0.050373077392578125
35	95.20550203323364	response	0	2		33.0	2.5	blank	1.0	382.4000859260559	
35	95.21406197547913	movie	1		301.0	33.0	2.5	blank	1.0	382.4086458683014	2.5079519748687744
35	97.7220139503479	fix_post	2		12.0	33.0	2.5	blank	1.0	384.91659784317017	0.10001206398010254
36	97.822026014328	fix_pre	0		23.0	34.0	2.5	/experiments/knapen_aot/videos/R_S_production_ID_3967181.mp4	0.0	385.01660990715027	0.19161486625671387
36	98.00567293167114	response	0	2		34.0	2.5	/experiments/knapen_aot/videos/R_S_production_ID_3967181.mp4	0.0	385.2002568244934	
36	98.01364088058472	movie	1		207.0	34.0	2.5	/experiments/knapen_aot/videos/R_S_production_ID_3967181.mp4	0.0	385.208224773407	2.5082921981811523
36	100.52193307876587	fix_post	2		12.0	34.0	2.5	/experiments/knapen_aot/videos/R_S_production_ID_3967181.mp4	0.0	387.71651697158813	0.10007190704345703
37	100.62200498580933	fix_pre	0		14.0	35.0	2.5	/experiments/knapen_aot/videos/R_S_wc-16LozRfhUGea_49.mp4	0.0	387.8165888786316	0.11660289764404297
37	100.73044204711914	response	0	2		35.0	2.5	/experiments/knapen_aot/videos/R_S_wc-16LozRfhUGea_49.mp4	0.0	387.9250259399414	
37	100.73860788345337	movie	1		301.0	35.0	2.5	/experiments/knapen_aot/videos/R_S_wc-16LozRfhUGea_49.mp4	0.0	387.93319177627563	2.5083911418914795
37	103.24699902534485	fix_post	2		12.0	35.0	2.5	/experiments/knapen_aot/videos/R_S_wc-16LozRfhUGea_49.mp4	0.0	390.4415829181671	0.10000395774841309
38	103.34700298309326	fix_pre	0		2.0	36.0	2.5	/experiments/knapen_aot/videos/R_S_pexels-cottonbro-5780808.mp4	0.0	390.5415868759155	0.016622066497802734
38	103.35546493530273	response	0	2		36.0	2.5	/experiments/knapen_aot/videos/R_S_pexels-cottonbro-5780808.mp4	0.0	390.550048828125	
38	103.36362504959106	movie	1		180.0	36.0	2.5	/experiments/knapen_aot/videos/R_S_pexels-cottonbro-5780808.mp4	0.0	390.55820894241333	2.508349895477295
38	105.87197494506836	fix_post	2		12.0	36.0	2.5	/experiments/knapen_aot/videos/R_S_pexels-cottonbro-5780808.mp4	0.0	393.0665588378906	0.10001015663146973
39	105.97198510169983	fix_pre	0		17.0	37.0	2.5	/experiments/knapen_aot/videos/R_S_yt-i3-YlGenYmk_411.mp4	0.0	393.1665689945221	0.14159679412841797
39	106.10562896728516	response	0	2		37.0	2.5	/experiments/knapen_aot/videos/R_S_yt-i3-YlGenYmk_411.mp4	0.0	393.3002128601074	
39	106.11358189582825	movie	1		301.0	37.0	2.5	/experiments/knapen_aot/videos/R_S_yt-i3-YlGenYmk_411.mp4	0.0	393.3081657886505	2.508341073989868
39	108.62192296981812	fix_post	2		12.0	37.0	2.5	/experiments/knapen_aot/videos/R_S_yt-i3-YlGenYmk_411.mp4	0.0	395.8165068626404	0.10008096694946289
40	108.72200393676758	fix_pre	0		22.0	38.0	2.5	/experiments/knapen_aot/videos/R_S_yt-9mWz93En7Gw_97.mp4	0.0	395.91658782958984	0.18327617645263672
40	108.89700698852539	response	0	2		38.0	2.5	/experiments/knapen_aot/videos/R_S_yt-9mWz93En7Gw_97.mp4	0.0	396.09159088134766	
40	108.90528011322021	movie	1		299.0	38.0	2.5	/experiments/knapen_aot/videos/R_S_yt-9mWz93En7Gw_97.mp4	0.0	396.0998640060425	2.5083489418029785
40	111.4136290550232	fix_post	2		12.0	38.0	2.5	/experiments/knapen_aot/videos/R_S_yt-9mWz93En7Gw_97.mp4	0.0	398.60821294784546	0.09998798370361328
41	111.5136170387268	fix_pre	0		27.0	39.0	2.5	/experiments/knapen_aot/videos/R_S_yt-zhQ32_OayBQ_39.mp4	0.0	398.7082009315491	0.22489595413208008
41	111.7304060459137	response	0	2		39.0	2.5	/experiments/knapen_aot/videos/R_S_yt-zhQ32_OayBQ_39.mp4	0.0	398.92498993873596	
41	111.73851299285889	movie	1		301.0	39.0	2.5	/experiments/knapen_aot/videos/R_S_yt-zhQ32_OayBQ_39.mp4	0.0	398.93309688568115	2.5084218978881836
41	114.24693489074707	fix_post	2		12.0	39.0	2.5	/experiments/knapen_aot/videos/R_S_yt-zhQ32_OayBQ_39.mp4	0.0	401.44151878356934	0.10008502006530762
42	114.34701991081238	fix_pre	0		20.0	40.0	2.5	blank	1.0	401.54160380363464	0.1665811538696289
42	114.50529193878174	response	0	2		40.0	2.5	blank	1.0	401.699875831604	
42	114.513601064682	movie	1		301.0	40.0	2.5	blank	1.0	401.7081849575043	2.5083019733428955
42	117.0219030380249	fix_post	2		12.0	40.0	2.5	blank	1.0	404.21648693084717	0.09994006156921387
43	117.12184309959412	fix_pre	0		21.0	41.0	2.5	/experiments/knapen_aot/videos/R_S_yt-8aJDzfAaArQ_75.mp4	0.0	404.3164269924164	0.17528486251831055
43	117.28862309455872	response	0	2		41.0	2.5	/experiments/knapen_aot/videos/R_S_yt-8aJDzfAaArQ_75.mp4	0.0	404.483206987381	
43	117.29712796211243	movie	1		300.0	41.0	2.5	/experiments/knapen_aot/videos/R_S_yt-8aJDzfAaArQ_75.mp4	0.0	404.4917118549347	2.50805401802063
43	119.80518198013306	fix_post	2		12.0	41.0	2.5	/experiments/knapen_aot/videos/R_S_yt-8aJDzfAaArQ_75.mp4	0.0	406.9997658729553	0.10000205039978027
44	119.90518403053284	fix_pre	0		9.0	42.0	2.5	/experiments/knapen_aot/videos/R_S_wc-16LozRfhUGea_49.mp4	0.0	407.0997679233551	0.07494997978210449
44	119.97199392318726	response	0	2		42.0	2.5	/experiments/knapen_aot/videos/R_S_wc-16LozRfhUGea_49.mp4	0.0	407.1665778160095	
44	119.98013401031494	movie	1		301.0	42.0	2.5	/experiments/knapen_aot/videos/R_S_wc-16LozRfhUGea_49.mp4	0.0	407.1747179031372	2.508452892303467
44	122.48858690261841	fix_post	2		12.0	42.0	2.5	/experiments/knapen_aot/videos/R_S_wc-16LozRfhUGea_49.mp4	0.0	409.6831707954407	0.10016012191772461
45	122.58874702453613	fix_pre	0		13.0	43.0	2.5	/experiments/knapen_aot/videos/R_S_yt-QD74nNliDvI_10.mp4	0.0	409.7833309173584	0.10810708999633789
45	122.68870210647583	response	0	2		43.0	2.5	/experiments/knapen_aot/videos/R_S_yt-QD74nNliDvI_10.mp4	0.0	409.8832859992981	
45	122.69685411453247	movie	1		301.0	43.0	2.5	/experiments/knapen_aot/videos/R_S_yt-QD74nNliDvI_10.mp4	0.0	409.89143800735474	2.508319854736328
45	125.2051739692688	fix_post	2		12.0	43.0	2.5	/experiments/knapen_aot/videos/R_S_yt-QD74nNliDvI_10.mp4	0.0	412.39975786209106	0.10004401206970215
46	125.3052179813385	fix_pre	0		2.0	44.0	2.5	/experiments/knapen_aot/videos/R_S_comp_H012_C009_PS_v01_SDR_PS_20180925_SDR_2K_AVC.mp4	0.0	412.49980187416077	0.016680002212524414
46	125.31362891197205	response	0	2		44.0	2.5	/experiments/knapen_aot/videos/R_S_comp_H012_C009_PS_v01_SDR_PS_20180925_SDR_2K_AVC.mp4	0.0	412.5082128047943	
46	125.32189798355103	movie	1		165.0	44.0	2.5	/experiments/knapen_aot/videos/R_S_comp_H012_C009_PS_v01_SDR_PS_20180925_SDR_2K_AVC.mp4	0.0	412.5164818763733	2.5082759857177734
46	127.8301739692688	fix_post	2		12.0	44.0	2.5	/experiments/knapen_aot/videos/R_S_comp_H012_C009_PS_v01_SDR_PS_20180925_SDR_2K_AVC.mp4	0.0	415.02475786209106	0.10004401206970215
47	127.9302179813385	fix_pre	0		23.0	45.0	2.5	/experiments/knapen_aot/videos/R_S_yt-wrfAMDCg93Y_8.mp4	0.0	415.12480187416077	0.19159293174743652
47	128.11368703842163	response	0	2		45.0	2.5	/experiments/knapen_aot/videos/R_S_yt-wrfAMDCg93Y_8.mp4	0.0	415.3082709312439	
47	128.12181091308594	movie	1		301.0	45.0	2.5	/experiments/knapen_aot/videos/R_S_yt-wrfAMDCg93Y_8.mp4	0.0	415.3163948059082	2.5085060596466064
47	130.63031697273254	fix_post	2		12.0	45.0	2.5	/experiments/knapen_aot/videos/R_S_yt-wrfAMDCg93Y_8.mp4	0.0	417.8249008655548	0.09983992576599121
48	130.73015689849854	fix_pre	0		13.0	46.0	2.5	/experiments/knapen_aot/videos/S_comp_H005_C012_PS_v01_SDR_PS_20180925_SDR_2K_AVC.mp4	0.0	417.9247407913208	0.1085200309753418
48	130.8227880001068	response	0	2		46.0	2.5	/experiments/knapen_aot/videos/S_comp_H005_C012_PS_v01_SDR_PS_20180925_SDR_2K_AVC.mp4	0.0	418.0173718929291	
48	130.83867692947388	movie	1		169.0	46.0	2.5	/experiments/knapen_aot/videos/S_comp_H005_C012_PS_v01_SDR_PS_20180925_SDR_2K_AVC.mp4	0.0	418.03326082229614	2.50811505317688
48	133.34679198265076	fix_post	2		12.0	46.0	2.5	/experiments/knapen_aot/videos/S_comp_H005_C012_PS_v01_SDR_PS_20180925_SDR_2K_AVC.mp4	0.0	420.541375875473	0.10008001327514648
49	133.4468719959259	fix_pre	0		7.0	47.0	2.5	blank	1.0	420.64145588874817	0.058576107025146484
49	133.49692392349243	response	0	2		47.0	2.5	blank	1.0	420.6915078163147	
49	133.50544810295105	movie	1		301.0	47.0	2.5	blank	1.0	420.7000319957733	2.5080947875976562
49	135.75526189804077	response	1	2		47.0	2.5	blank	1.0	422.94984579086304	
49	136.0135428905487	fix_post	2		12.0	47.0	2.5	blank	1.0	423.208126783371	0.09986400604248047
50	136.1134068965912	fix_pre	0		27.0	48.0	2.5	/experiments/knapen_aot/videos/S_yt-BIDHmbneB10_998.mp4	0.0	423.30799078941345	0.22518205642700195
50	136.32281708717346	response	0	2		48.0	2.5	/experiments/knapen_aot/videos/S_yt-BIDHmbneB10_998.mp4	0.0	423.5174009799957	
50	136.3385889530182	movie	1		301.0	48.0	2.5	/experiments/knapen_aot/videos/S_yt-BIDHmbneB10_998.mp4	0.0	423.53317284584045	2.5081961154937744
50	138.84678506851196	fix_post	2		12.0	48.0	2.5	/experiments/knapen_aot/videos/S_yt-BIDHmbneB10_998.mp4	0.0	426.04136896133423	0.10000395774841309
51	138.94678902626038	fix_pre	0		33.0	49.0	2.5	/experiments/knapen_aot/videos/R_S_3dzza09VbXY_235.mp4	0.0	426.14137291908264	0.2751588821411133
51	139.20613598823547	response	0	2		49.0	2.5	/experiments/knapen_aot/videos/R_S_3dzza09VbXY_235.mp4	0.0	426.40071988105774	
51	139.2219479084015	movie	1		301.0	49.0	2.5	/experiments/knapen_aot/videos/R_S_3dzza09VbXY_235.mp4	0.0	426.41653180122375	2.5082101821899414
51	141.73015809059143	fix_post	2		12.0	49.0	2.5	/experiments/knapen_aot/videos/R_S_3dzza09VbXY_235.mp4	0.0	428.9247419834137	0.09995388984680176
52	141.83011198043823	fix_pre	0		2.0	50.0	2.5	/experiments/knapen_aot/videos/R_S_yt-mDil5vGZb14_4049.mp4	0.0	429.0246958732605	0.017219066619873047
52	141.8326210975647	response	0	2		50.0	2.5	/experiments/knapen_aot/videos/R_S_yt-mDil5vGZb14_4049.mp4	0.0	429.02720499038696	
52	141.8473310470581	movie	1		301.0	50.0	2.5	/experiments/knapen_aot/videos/R_S_yt-mDil5vGZb14_4049.mp4	0.0	429.04191493988037	2.5078389644622803
52	144.35517001152039	fix_post	2		11.0	50.0	2.5	/experiments/knapen_aot/videos/R_S_yt-mDil5vGZb14_4049.mp4	0.0	431.54975390434265	0.0916299819946289
52	144.4385690689087	response	2	2		50.0	2.5	/experiments/knapen_aot/videos/R_S_yt-mDil5vGZb14_4049.mp4	0.0	431.63315296173096	
53	144.44679999351501	fix_pre	0		95.0	51.0	2.5	/experiments/knapen_aot/videos/S_pexels-anthony-shkraba-production-8135459.mp4	0.0	431.6413838863373	0.7916390895843506
53	145.23027396202087	response	0	2		51.0	2.5	/experiments/knapen_aot/videos/S_pexels-anthony-shkraba-production-8135459.mp4	0.0	432.42485785484314	
53	145.23843908309937	movie	1		165.0	51.0	2.5	/experiments/knapen_aot/videos/S_pexels-anthony-shkraba-production-8135459.mp4	0.0	432.43302297592163	2.5083730220794678
53	147.74681210517883	fix_post	2		12.0	51.0	2.5	/experiments/knapen_aot/videos/S_pexels-anthony-shkraba-production-8135459.mp4	0.0	434.9413959980011	0.09996485710144043
54	147.84677696228027	fix_pre	0		5.0	52.0	2.5	/experiments/knapen_aot/videos/S_pexels-polina-tankilevitch-8203088.mp4	0.0	435.04136085510254	0.041680097579956055
54	147.872740983963	response	0	2		52.0	2.5	/experiments/knapen_aot/videos/S_pexels-polina-tankilevitch-8203088.mp4	0.0	435.0673248767853	
54	147.88845705986023	movie	1		170.0	52.0	2.5	/experiments/knapen_aot/videos/S_pexels-polina-tankilevitch-8203088.mp4	0.0	435.0830409526825	2.5083060264587402
54	150.39676308631897	fix_post	2		12.0	52.0	2.5	/experiments/knapen_aot/videos/S_pexels-polina-tankilevitch-8203088.mp4	0.0	437.59134697914124	0.09999680519104004
55	150.49675989151	fix_pre	0		5.0	53.0	2.5	/experiments/knapen_aot/videos/R_S_yt-kiEFK7bDssE_14.mp4	0.0	437.6913437843323	0.043174028396606445
55	150.5303680896759	response	0	2		53.0	2.5	/experiments/knapen_aot/videos/R_S_yt-kiEFK7bDssE_14.mp4	0.0	437.72495198249817	
55	150.53993391990662	movie	1		301.0	53.0	2.5	/experiments/knapen_aot/videos/R_S_yt-kiEFK7bDssE_14.mp4	0.0	437.7345178127289	2.506878137588501
55	153.04681205749512	fix_post	2		12.0	53.0	2.5	/experiments/knapen_aot/videos/R_S_yt-kiEFK7bDssE_14.mp4	0.0	440.2413959503174	0.09988784790039062
55	153.11357402801514	response	2	2		53.0	2.5	/experiments/knapen_aot/videos/R_S_yt-kiEFK7bDssE_14.mp4	0.0	440.3081579208374	
56	153.1466999053955	fix_pre	0		113.0	54.0	2.5	blank	1.0	440.3412837982178	0.941770076751709
56	154.08014392852783	response	0	2		54.0	2.5	blank	1.0	441.2747278213501	
56	154.08846998214722	movie	1		301.0	54.0	2.5	blank	1.0	441.2830538749695	2.508239984512329
56	156.59670996665955	fix_post	2		12.0	54.0	2.5	blank	1.0	443.7912938594818	0.09994292259216309
57	156.6966528892517	fix_pre	0		11.0	55.0	2.5	/experiments/knapen_aot/videos/R_S_video_inspire_italy_como_cerano-dintelvi_006.1080-h264.mp4	0.0	443.891236782074	0.09313321113586426
57	156.77359294891357	response	0	2		55.0	2.5	/experiments/knapen_aot/videos/R_S_video_inspire_italy_como_cerano-dintelvi_006.1080-h264.mp4	0.0	443.96817684173584	
57	156.78978610038757	movie	1		175.0	55.0	2.5	/experiments/knapen_aot/videos/R_S_video_inspire_italy_como_cerano-dintelvi_006.1080-h264.mp4	0.0	443.98436999320984	2.5069499015808105
57	159.29673600196838	fix_post	2		12.0	55.0	2.5	/experiments/knapen_aot/videos/R_S_video_inspire_italy_como_cerano-dintelvi_006.1080-h264.mp4	0.0	446.49131989479065	0.09996294975280762
57	159.38847303390503	response	2	2		55.0	2.5	/experiments/knapen_aot/videos/R_S_video_inspire_italy_como_cerano-dintelvi_006.1080-h264.mp4	0.0	446.5830569267273	
58	159.3966989517212	fix_pre	0		82.0	56.0	2.5	/experiments/knapen_aot/videos/R_S_yt-2lnxIdOTxog_157.mp4	0.0	446.59128284454346	0.6833240985870361
58	160.07182908058167	response	0	2		56.0	2.5	/experiments/knapen_aot/videos/R_S_yt-2lnxIdOTxog_157.mp4	0.0	447.26641297340393	
58	160.08002305030823	movie	1		301.0	56.0	2.5	/experiments/knapen_aot/videos/R_S_yt-2lnxIdOTxog_157.mp4	0.0	447.2746069431305	2.508335828781128
58	162.58835887908936	fix_post	2		12.0	56.0	2.5	/experiments/knapen_aot/videos/R_S_yt-2lnxIdOTxog_157.mp4	0.0	449.7829427719116	0.10002422332763672
59	162.688383102417	fix_pre	0		27.0	57.0	2.5	/experiments/knapen_aot/videos/S_yt-NFb0SUCeiro_158.mp4	0.0	449.88296699523926	0.22489690780639648
59	162.90513801574707	response	0	2		57.0	2.5	/experiments/knapen_aot/videos/S_yt-NFb0SUCeiro_158.mp4	0.0	450.09972190856934	
59	162.9132800102234	movie	1		298.0	57.0	2.5	/experiments/knapen_aot/videos/S_yt-NFb0SUCeiro_158.mp4	0.0	450.10786390304565	2.5083630084991455
59	165.42164301872253	fix_post	2		12.0	57.0	2.5	/experiments/knapen_aot/videos/S_yt-NFb0SUCeiro_158.mp4	0.0	452.6162269115448	0.10006594657897949
60	165.5217089653015	fix_pre	0		31.0	58.0	2.5	/experiments/knapen_aot/videos/S_yt-okYy5Md2U8I_7.mp4	0.0	452.7162928581238	0.2583029270172119
60	165.77175402641296	response	0	4		58.0	2.5	/experiments/knapen_aot/videos/S_yt-okYy5Md2U8I_7.mp4	0.0	452.96633791923523	
60	165.78001189231873	movie	1		301.0	58.0	2.5	/experiments/knapen_aot/videos/S_yt-okYy5Md2U8I_7.mp4	0.0	452.974595785141	2.508327007293701
60	168.28833889961243	fix_post	2		12.0	58.0	2.5	/experiments/knapen_aot/videos/S_yt-okYy5Md2U8I_7.mp4	0.0	455.4829227924347	0.09999704360961914
61	168.38833594322205	fix_pre	0		11.0	59.0	2.5	/experiments/knapen_aot/videos/S_yt-n1snPiGfg0A_45.mp4	0.0	455.5829198360443	0.09175610542297363
61	168.47185111045837	response	0	2		59.0	2.5	/experiments/knapen_aot/videos/S_yt-n1snPiGfg0A_45.mp4	0.0	455.66643500328064	
61	168.48009204864502	movie	1		301.0	59.0	2.5	/experiments/knapen_aot/videos/S_yt-n1snPiGfg0A_45.mp4	0.0	455.6746759414673	2.508211851119995
61	170.98830389976501	fix_post	2		12.0	59.0	2.5	/experiments/knapen_aot/videos/S_yt-n1snPiGfg0A_45.mp4	0.0	458.1828877925873	0.10004019737243652
62	171.08834409713745	fix_pre	0		14.0	60.0	2.5	/experiments/knapen_aot/videos/S_yt-be7r-ha8BpA_1045.mp4	0.0	458.2829279899597	0.11667680740356445
62	171.1893401145935	response	0	2		60.0	2.5	/experiments/knapen_aot/videos/S_yt-be7r-ha8BpA_1045.mp4	0.0	458.38392400741577	
62	171.20502090454102	movie	1		301.0	60.0	2.5	/experiments/knapen_aot/videos/S_yt-be7r-ha8BpA_1045.mp4	0.0	458.3996047973633	2.5082790851593018
62	173.71329998970032	fix_post	2		12.0	60.0	2.5	/experiments/knapen_aot/videos/S_yt-be7r-ha8BpA_1045.mp4	0.0	460.9078838825226	0.09995293617248535
63	173.8132529258728	fix_pre	0		44.0	61.0	2.5	/experiments/knapen_aot/videos/R_S_yt-mQRzWCcKOR8_28.mp4	0.0	461.00783681869507	0.3666861057281494
63	174.1718499660492	response	0	2		61.0	2.5	/experiments/knapen_aot/videos/R_S_yt-mQRzWCcKOR8_28.mp4	0.0	461.36643385887146	
63	174.17993903160095	movie	1		301.0	61.0	2.5	/experiments/knapen_aot/videos/R_S_yt-mQRzWCcKOR8_28.mp4	0.0	461.3745229244232	2.508323907852173
63	176.68826293945312	fix_post	2		12.0	61.0	2.5	/experiments/knapen_aot/videos/R_S_yt-mQRzWCcKOR8_28.mp4	0.0	463.8828468322754	0.10008811950683594
64	176.78835105895996	fix_pre	0		41.0	62.0	2.5	blank	1.0	463.9829349517822	0.35819387435913086
64	177.13849997520447	response	0	2		62.0	2.5	blank	1.0	464.33308386802673	
64	177.1465449333191	movie	1		301.0	62.0	2.5	blank	1.0	464.34112882614136	2.5083611011505127
64	179.6549060344696	fix_post	2		12.0	62.0	2.5	blank	1.0	466.84948992729187	0.10003995895385742
65	179.75494599342346	fix_pre	0		607.0	63.0	2.5	/experiments/knapen_aot/videos/R_S_yt-Xq6uX1jfFRk_21.mp4	0.0	466.9495298862457	5.058341979980469
65	184.8050730228424	response	0	2		63.0	2.5	/experiments/knapen_aot/videos/R_S_yt-Xq6uX1jfFRk_21.mp4	0.0	471.9996569156647	
65	184.81328797340393	movie	1		301.0	63.0	2.5	/experiments/knapen_aot/videos/R_S_yt-Xq6uX1jfFRk_21.mp4	0.0	472.0078718662262	2.508280038833618
65	187.32156801223755	fix_post	2		12.0	63.0	2.5	/experiments/knapen_aot/videos/R_S_yt-Xq6uX1jfFRk_21.mp4	0.0	474.5161519050598	0.10002803802490234
66	187.42159605026245	fix_pre	0		18.0	64.0	2.5	/experiments/knapen_aot/videos/S_I003_C015_SDR_2K_AVC.mp4	0.0	474.6161799430847	0.14999604225158691
66	187.56337094306946	response	0	2		64.0	2.5	/experiments/knapen_aot/videos/S_I003_C015_SDR_2K_AVC.mp4	0.0	474.7579548358917	
66	187.57159209251404	movie	1		168.0	64.0	2.5	/experiments/knapen_aot/videos/S_I003_C015_SDR_2K_AVC.mp4	0.0	474.7661759853363	2.5083179473876953
66	190.07991003990173	fix_post	2		12.0	64.0	2.5	/experiments/knapen_aot/videos/S_I003_C015_SDR_2K_AVC.mp4	0.0	477.274493932724	0.09995102882385254
67	190.1798610687256	fix_pre	0		28.0	65.0	2.5	/experiments/knapen_aot/videos/R_S_production_ID_4820868.mp4	0.0	477.37444496154785	0.2346189022064209
67	190.40503597259521	response	0	2		65.0	2.5	/experiments/knapen_aot/videos/R_S_production_ID_4820868.mp4	0.0	477.5996198654175	
67	190.414479970932	movie	1		169.0	65.0	2.5	/experiments/knapen_aot/videos/R_S_production_ID_4820868.mp4	0.0	477.6090638637543	2.5071299076080322
67	192.92160987854004	fix_post	2		12.0	65.0	2.5	/experiments/knapen_aot/videos/R_S_production_ID_4820868.mp4	0.0	480.1161937713623	0.09994316101074219
68	193.02155303955078	fix_pre	0		14.0	66.0	2.5	/experiments/knapen_aot/videos/S_comp_GL_G004_C010_PSNK_v04_SDR_PS_FINAL_20180709_SDR_2K_AVC.mp4	0.0	480.21613693237305	0.11667394638061523
68	193.13007402420044	response	0	2		66.0	2.5	/experiments/knapen_aot/videos/S_comp_GL_G004_C010_PSNK_v04_SDR_PS_FINAL_20180709_SDR_2K_AVC.mp4	0.0	480.3246579170227	
68	193.1382269859314	movie	1		167.0	66.0	2.5	/experiments/knapen_aot/videos/S_comp_GL_G004_C010_PSNK_v04_SDR_PS_FINAL_20180709_SDR_2K_AVC.mp4	0.0	480.33281087875366	2.508328914642334
68	195.64655590057373	fix_post	2		12.0	66.0	2.5	/experiments/knapen_aot/videos/S_comp_GL_G004_C010_PSNK_v04_SDR_PS_FINAL_20180709_SDR_2K_AVC.mp4	0.0	482.841139793396	0.09999418258666992
69	195.7465500831604	fix_pre	0		20.0	67.0	2.5	/experiments/knapen_aot/videos/R_S_yt-fA0nOetbOJY_580.mp4	0.0	482.94113397598267	0.1678779125213623
69	195.9050168991089	response	0	2		67.0	2.5	/experiments/knapen_aot/videos/R_S_yt-fA0nOetbOJY_580.mp4	0.0	483.09960079193115	
69	195.91442799568176	movie	1		301.0	67.0	2.5	/experiments/knapen_aot/videos/R_S_yt-fA0nOetbOJY_580.mp4	0.0	483.109011888504	2.507146120071411
69	198.42157411575317	fix_post	2		12.0	67.0	2.5	/experiments/knapen_aot/videos/R_S_yt-fA0nOetbOJY_580.mp4	0.0	485.61615800857544	0.10006189346313477
70	198.5216360092163	fix_pre	0		25.0	68.0	2.5	/experiments/knapen_aot/videos/R_S_yt-jQrMcUCmAaM_44.mp4	0.0	485.7162199020386	0.20820403099060059
70	198.72164392471313	response	0	2		68.0	2.5	/experiments/knapen_aot/videos/R_S_yt-jQrMcUCmAaM_44.mp4	0.0	485.9162278175354	
70	198.7298400402069	movie	1		301.0	68.0	2.5	/experiments/knapen_aot/videos/R_S_yt-jQrMcUCmAaM_44.mp4	0.0	485.9244239330292	2.5083279609680176
70	201.23816800117493	fix_post	2		12.0	68.0	2.5	/experiments/knapen_aot/videos/R_S_yt-jQrMcUCmAaM_44.mp4	0.0	488.4327518939972	0.1000518798828125
71	201.33821988105774	fix_pre	0		6.0	69.0	2.5	blank	1.0	488.53280377388	0.050086021423339844
71	201.37301111221313	response	0	2		69.0	2.5	blank	1.0	488.5675950050354	
71	201.38830590248108	movie	1		301.0	69.0	2.5	blank	1.0	488.58288979530334	2.5082809925079346
71	203.896586894989	fix_post	2		12.0	69.0	2.5	blank	1.0	491.0911707878113	0.09984111785888672
72	203.9964280128479	fix_pre	0		22.0	70.0	2.5	/experiments/knapen_aot/videos/R_S_yt-8fQ9LaF8U10_382.mp4	0.0	491.19101190567017	0.18338298797607422
72	204.1716389656067	response	0	2		70.0	2.5	/experiments/knapen_aot/videos/R_S_yt-8fQ9LaF8U10_382.mp4	0.0	491.36622285842896	
72	204.17981100082397	movie	1		301.0	70.0	2.5	/experiments/knapen_aot/videos/R_S_yt-8fQ9LaF8U10_382.mp4	0.0	491.37439489364624	2.5083398818969727
72	206.68815088272095	fix_post	2		12.0	70.0	2.5	/experiments/knapen_aot/videos/R_S_yt-8fQ9LaF8U10_382.mp4	0.0	493.8827347755432	0.10001206398010254
73	206.78816294670105	fix_pre	0		9.0	71.0	2.5	/experiments/knapen_aot/videos/S_S005_C015_SDR_2K_AVC.mp4	0.0	493.9827468395233	0.07501101493835449
73	206.85493087768555	response	0	2		71.0	2.5	/experiments/knapen_aot/videos/S_S005_C015_SDR_2K_AVC.mp4	0.0	494.0495147705078	
73	206.8631739616394	movie	1		171.0	71.0	2.5	/experiments/knapen_aot/videos/S_S005_C015_SDR_2K_AVC.mp4	0.0	494.05775785446167	2.5082969665527344
73	209.37147092819214	fix_post	2		12.0	71.0	2.5	/experiments/knapen_aot/videos/S_S005_C015_SDR_2K_AVC.mp4	0.0	496.5660548210144	0.10002517700195312
73	209.3883409500122	response	2	2		71.0	2.5	/experiments/knapen_aot/videos/S_S005_C015_SDR_2K_AVC.mp4	0.0	496.5829248428345	
74	209.4714961051941	fix_pre	0		90.0	72.0	2.5	/experiments/knapen_aot/videos/S_yt-tfHCqgH1guY_235.mp4	0.0	496.66607999801636	0.7499728202819824
74	210.21329998970032	response	0	2		72.0	2.5	/experiments/knapen_aot/videos/S_yt-tfHCqgH1guY_235.mp4	0.0	497.4078838825226	
74	210.22146892547607	movie	1		301.0	72.0	2.5	/experiments/knapen_aot/videos/S_yt-tfHCqgH1guY_235.mp4	0.0	497.41605281829834	2.508345127105713
74	212.7298140525818	fix_post	2		12.0	72.0	2.5	/experiments/knapen_aot/videos/S_yt-tfHCqgH1guY_235.mp4	0.0	499.92439794540405	0.10010194778442383
75	212.8299160003662	fix_pre	0		15.0	73.0	2.5	/experiments/knapen_aot/videos/R_S_yt-Q6BFO3Yz0zY_363.mp4	0.0	500.0244998931885	0.12600994110107422
75	212.94663000106812	response	0	2		73.0	2.5	/experiments/knapen_aot/videos/R_S_yt-Q6BFO3Yz0zY_363.mp4	0.0	500.1412138938904	
75	212.95592594146729	movie	1		301.0	73.0	2.5	/experiments/knapen_aot/videos/R_S_yt-Q6BFO3Yz0zY_363.mp4	0.0	500.15050983428955	2.507193088531494
75	215.46311902999878	fix_post	2		12.0	73.0	2.5	/experiments/knapen_aot/videos/R_S_yt-Q6BFO3Yz0zY_363.mp4	0.0	502.65770292282104	0.10000896453857422
76	215.56312799453735	fix_pre	0		14.0	74.0	2.5	/experiments/knapen_aot/videos/R_S_ILSVRC2015_train_00378000.mp4	0.0	502.7577118873596	0.11669301986694336
76	215.67159390449524	response	0	2		74.0	2.5	/experiments/knapen_aot/videos/R_S_ILSVRC2015_train_00378000.mp4	0.0	502.8661777973175	
76	215.6798210144043	movie	1		301.0	74.0	2.5	/experiments/knapen_aot/videos/R_S_ILSVRC2015_train_00378000.mp4	0.0	502.87440490722656	2.508455991744995
76	218.1882770061493	fix_post	2		12.0	74.0	2.5	/experiments/knapen_aot/videos/R_S_ILSVRC2015_train_00378000.mp4	0.0	505.38286089897156	0.09984588623046875
77	218.28812289237976	fix_pre	0		6.0	75.0	2.5	blank	1.0	505.482706785202	0.05006217956542969
77	218.32993388175964	response	0	2		75.0	2.5	blank	1.0	505.5245177745819	
77	218.3381850719452	movie	1		301.0	75.0	2.5	blank	1.0	505.53276896476746	2.5082499980926514
77	220.84643507003784	fix_post	2		12.0	75.0	2.5	blank	1.0	508.0410189628601	0.10001587867736816
78	220.9464509487152	fix_pre	0		27.0	76.0	2.5	/experiments/knapen_aot/videos/S_yt-XtzmBXKYEWk_60.mp4	0.0	508.1410348415375	0.22500014305114746
78	221.1633780002594	response	0	2		76.0	2.5	/experiments/knapen_aot/videos/S_yt-XtzmBXKYEWk_60.mp4	0.0	508.35796189308167	
78	221.17145109176636	movie	1		301.0	76.0	2.5	/experiments/knapen_aot/videos/S_yt-XtzmBXKYEWk_60.mp4	0.0	508.3660349845886	2.5083489418029785
78	223.00485801696777	response	1	2		76.0	2.5	/experiments/knapen_aot/videos/S_yt-XtzmBXKYEWk_60.mp4	0.0	510.19944190979004	
78	223.67980003356934	fix_post	2		12.0	76.0	2.5	/experiments/knapen_aot/videos/S_yt-XtzmBXKYEWk_60.mp4	0.0	510.8743839263916	0.09998106956481934
79	223.77978110313416	fix_pre	0		160.0	77.0	2.5	/experiments/knapen_aot/videos/S_yt-YTQXM5ZjRgg_116.mp4	0.0	510.9743649959564	1.3333139419555664
79	225.10487389564514	response	0	2		77.0	2.5	/experiments/knapen_aot/videos/S_yt-YTQXM5ZjRgg_116.mp4	0.0	512.2994577884674	
79	225.11309504508972	movie	1		301.0	77.0	2.5	/experiments/knapen_aot/videos/S_yt-YTQXM5ZjRgg_116.mp4	0.0	512.307678937912	2.508309841156006
79	226.1465299129486	response	1	2		77.0	2.5	/experiments/knapen_aot/videos/S_yt-YTQXM5ZjRgg_116.mp4	0.0	513.3411138057709	
79	227.62140488624573	fix_post	2		12.0	77.0	2.5	/experiments/knapen_aot/videos/S_yt-YTQXM5ZjRgg_116.mp4	0.0	514.815988779068	0.10001707077026367
80	227.721421957016	fix_pre	0		166.0	78.0	2.5	/experiments/knapen_aot/videos/S_bing-www_dailymotion_com_video_x64hzm7_8.mp4	0.0	514.9160058498383	1.383307933807373
80	229.0964720249176	response	0	4		78.0	2.5	/experiments/knapen_aot/videos/S_bing-www_dailymotion_com_video_x64hzm7_8.mp4	0.0	516.2910559177399	
80	229.10472989082336	movie	1		166.0	78.0	2.5	/experiments/knapen_aot/videos/S_bing-www_dailymotion_com_video_x64hzm7_8.mp4	0.0	516.2993137836456	2.5083281993865967
80	231.61305809020996	fix_post	2		12.0	78.0	2.5	/experiments/knapen_aot/videos/S_bing-www_dailymotion_com_video_x64hzm7_8.mp4	0.0	518.8076419830322	0.09995198249816895
81	231.71301007270813	fix_pre	0		37.0	79.0	2.5	/experiments/knapen_aot/videos/S_Ds4EKTLx_RI_51.mp4	0.0	518.9075939655304	0.3084390163421631
81	232.01319003105164	response	0	4		79.0	2.5	/experiments/knapen_aot/videos/S_Ds4EKTLx_RI_51.mp4	0.0	519.2077739238739	
81	232.0214490890503	movie	1		301.0	79.0	2.5	/experiments/knapen_aot/videos/S_Ds4EKTLx_RI_51.mp4	0.0	519.2160329818726	2.5082550048828125
81	234.18813395500183	response	1	4		79.0	2.5	/experiments/knapen_aot/videos/S_Ds4EKTLx_RI_51.mp4	0.0	521.3827178478241	
81	234.22149896621704	response	1	2		79.0	2.5	/experiments/knapen_aot/videos/S_Ds4EKTLx_RI_51.mp4	0.0	521.4160828590393	
81	234.5297040939331	fix_post	2		12.0	79.0	2.5	/experiments/knapen_aot/videos/S_Ds4EKTLx_RI_51.mp4	0.0	521.7242879867554	0.09999489784240723
82	234.6296989917755	fix_pre	0		148.0	80.0	2.5	/experiments/knapen_aot/videos/S_5Bc466bkeA0_35.mp4	0.0	521.8242828845978	1.2333440780639648
82	235.85468292236328	response	0	2		80.0	2.5	/experiments/knapen_aot/videos/S_5Bc466bkeA0_35.mp4	0.0	523.0492668151855	
82	235.86304306983948	movie	1		301.0	80.0	2.5	/experiments/knapen_aot/videos/S_5Bc466bkeA0_35.mp4	0.0	523.0576269626617	2.50833797454834
82	235.87985110282898	response	1	4		80.0	2.5	/experiments/knapen_aot/videos/S_5Bc466bkeA0_35.mp4	0.0	523.0744349956512	
82	238.37138104438782	fix_post	2		12.0	80.0	2.5	/experiments/knapen_aot/videos/S_5Bc466bkeA0_35.mp4	0.0	525.5659649372101	0.09989500045776367
83	238.47127604484558	fix_pre	0		27.0	81.0	2.5	/experiments/knapen_aot/videos/S_BO_A018_C029_SDR_20190812_SDR_2K_AVC.mp4	0.0	525.6658599376678	0.22745990753173828
83	238.68809390068054	response	0	2		81.0	2.5	/experiments/knapen_aot/videos/S_BO_A018_C029_SDR_20190812_SDR_2K_AVC.mp4	0.0	525.8826777935028	
83	238.68818306922913	response	0	4		81.0	2.5	/experiments/knapen_aot/videos/S_BO_A018_C029_SDR_20190812_SDR_2K_AVC.mp4	0.0	525.8827669620514	
83	238.69873595237732	movie	1		167.0	81.0	2.5	/experiments/knapen_aot/videos/S_BO_A018_C029_SDR_20190812_SDR_2K_AVC.mp4	0.0	525.8933198451996	2.505934953689575
83	241.2046709060669	fix_post	2		12.0	81.0	2.5	/experiments/knapen_aot/videos/S_BO_A018_C029_SDR_20190812_SDR_2K_AVC.mp4	0.0	528.3992547988892	0.10014700889587402
84	241.30481791496277	fix_pre	0		8.0	82.0	2.5	/experiments/knapen_aot/videos/S_yt-lazG9z4VQAw_99.mp4	0.0	528.499401807785	0.06749415397644043
84	241.35556507110596	response	0	4		82.0	2.5	/experiments/knapen_aot/videos/S_yt-lazG9z4VQAw_99.mp4	0.0	528.5501489639282	
84	241.363135099411	response	0	2		82.0	2.5	/experiments/knapen_aot/videos/S_yt-lazG9z4VQAw_99.mp4	0.0	528.5577189922333	
84	241.3723120689392	movie	1		301.0	82.0	2.5	/experiments/knapen_aot/videos/S_yt-lazG9z4VQAw_99.mp4	0.0	528.5668959617615	2.507398843765259
84	243.87971091270447	fix_post	2		12.0	82.0	2.5	/experiments/knapen_aot/videos/S_yt-lazG9z4VQAw_99.mp4	0.0	531.0742948055267	0.1000070571899414
85	243.9797179698944	fix_pre	0		26.0	83.0	2.5	blank	1.0	531.1743018627167	0.21903395652770996
85	244.18813800811768	response	0	4		83.0	2.5	blank	1.0	531.3827219009399	
85	244.18822693824768	response	0	2		83.0	2.5	blank	1.0	531.38281083107	
85	244.19875192642212	movie	1		301.0	83.0	2.5	blank	1.0	531.3933358192444	2.505925178527832
85	246.70467710494995	fix_post	2		12.0	83.0	2.5	blank	1.0	533.8992609977722	0.09999489784240723
87	246.80467200279236	stim	0		205.0					533.9992558956146	1.7082819938659668
87	248.5082230567932	response	0	space						535.7028069496155	
