trial_nr	onset	event_type	phase	response	nr_frames	movie_index	movie_duration	movie_file	blank	onset_abs	duration
0	0.1580350399017334	stim	0		29.0					922.9582462310791	0.24187493324279785
0	0.3924410343170166	response	0	space						923.1926522254944	
1	0.39990997314453125	stim	0		121.0					923.2001211643219	1.0081820487976074
1	1.2918870449066162	response	0	space						924.092098236084	
1	1.4080920219421387	stim	1		120.0					924.2083032131195	0.9999849796295166
1	1.6417131423950195	response	1	space						924.4419243335724	
1	2.0255050659179688	response	1	space						924.8257162570953	
2	2.4080770015716553	fix_pre	0		1.0	0.0	2.5	/experiments/knapen_aot/oldvideos/R_S_yt--JnTDuElzXQ_121.mp4	0.0	925.208288192749	0.01152491569519043
2	2.412014961242676	response	0	space		0.0	2.5	/experiments/knapen_aot/oldvideos/R_S_yt--JnTDuElzXQ_121.mp4	0.0	925.21222615242	
2	2.4196019172668457	movie	1		297.0	0.0	2.5	/experiments/knapen_aot/oldvideos/R_S_yt--JnTDuElzXQ_121.mp4	0.0	925.2198131084442	2.5050201416015625
2	4.924622058868408	fix_post	2		12.0	0.0	2.5	/experiments/knapen_aot/oldvideos/R_S_yt--JnTDuElzXQ_121.mp4	0.0	927.7248332500458	0.10022807121276855
3	5.024850130081177	fix_pre	0		20.0	1.0	2.5	/experiments/knapen_aot/oldvideos/S_ILSVRC2015_train_00324000.mp4	0.0	927.8250613212585	0.16641879081726074
3	5.1848931312561035	response	0	4		1.0	2.5	/experiments/knapen_aot/oldvideos/S_ILSVRC2015_train_00324000.mp4	0.0	927.9851043224335	
3	5.1912689208984375	movie	1		301.0	1.0	2.5	/experiments/knapen_aot/oldvideos/S_ILSVRC2015_train_00324000.mp4	0.0	927.9914801120758	2.5083072185516357
3	7.699576139450073	fix_post	2		12.0	1.0	2.5	/experiments/knapen_aot/oldvideos/S_ILSVRC2015_train_00324000.mp4	0.0	930.4997873306274	0.10001087188720703
4	7.79958701133728	fix_pre	0		278.0	2.0	2.5	/experiments/knapen_aot/oldvideos/S_ILSVRC2015_train_00538001.mp4	0.0	930.5997982025146	2.316642999649048
4	10.108031988143921	response	0	4		2.0	2.5	/experiments/knapen_aot/oldvideos/S_ILSVRC2015_train_00538001.mp4	0.0	932.9082431793213	
4	10.116230010986328	movie	1		301.0	2.0	2.5	/experiments/knapen_aot/oldvideos/S_ILSVRC2015_train_00538001.mp4	0.0	932.9164412021637	2.508366107940674
4	12.624596118927002	fix_post	2		12.0	2.0	2.5	/experiments/knapen_aot/oldvideos/S_ILSVRC2015_train_00538001.mp4	0.0	935.4248073101044	0.09991884231567383
5	12.724514961242676	fix_pre	0		336.0	3.0	2.5	/experiments/knapen_aot/oldvideos/R_S_yt-x7TqP8l4lCA_39.mp4	0.0	935.52472615242	2.8000049591064453
5	15.516330003738403	response	0	4		3.0	2.5	/experiments/knapen_aot/oldvideos/R_S_yt-x7TqP8l4lCA_39.mp4	0.0	938.3165411949158	
5	15.524519920349121	movie	1		301.0	3.0	2.5	/experiments/knapen_aot/oldvideos/R_S_yt-x7TqP8l4lCA_39.mp4	0.0	938.3247311115265	2.508366107940674
5	18.032886028289795	fix_post	2		12.0	3.0	2.5	/experiments/knapen_aot/oldvideos/R_S_yt-x7TqP8l4lCA_39.mp4	0.0	940.8330972194672	0.0999898910522461
6	18.13287591934204	fix_pre	0		23.0	4.0	2.5	/experiments/knapen_aot/oldvideos/S_comp_GMT026_363A_103NC_E1027_KOREA_JAPAN_NIGHT_v18_SDR_PS_20180907_SDR_2K_AVC.mp4	0.0	940.9330871105194	0.19170904159545898
6	18.316306114196777	response	0	4		4.0	2.5	/experiments/knapen_aot/oldvideos/S_comp_GMT026_363A_103NC_E1027_KOREA_JAPAN_NIGHT_v18_SDR_PS_20180907_SDR_2K_AVC.mp4	0.0	941.1165173053741	
6	18.3245849609375	movie	1		168.0	4.0	2.5	/experiments/knapen_aot/oldvideos/S_comp_GMT026_363A_103NC_E1027_KOREA_JAPAN_NIGHT_v18_SDR_PS_20180907_SDR_2K_AVC.mp4	0.0	941.1247961521149	2.508272171020508
6	20.832857131958008	fix_post	2		12.0	4.0	2.5	/experiments/knapen_aot/oldvideos/S_comp_GMT026_363A_103NC_E1027_KOREA_JAPAN_NIGHT_v18_SDR_PS_20180907_SDR_2K_AVC.mp4	0.0	943.6330683231354	0.10005998611450195
7	20.93291711807251	fix_pre	0		186.0	5.0	2.5	/experiments/knapen_aot/oldvideos/S_yt-ZTAaH5XbtfE_3.mp4	0.0	943.7331283092499	1.5499138832092285
7	22.474647045135498	response	0	4		5.0	2.5	/experiments/knapen_aot/oldvideos/S_yt-ZTAaH5XbtfE_3.mp4	0.0	945.2748582363129	
7	22.48283100128174	movie	1		301.0	5.0	2.5	/experiments/knapen_aot/oldvideos/S_yt-ZTAaH5XbtfE_3.mp4	0.0	945.2830421924591	2.508315086364746
7	24.991146087646484	fix_post	2		12.0	5.0	2.5	/experiments/knapen_aot/oldvideos/S_yt-ZTAaH5XbtfE_3.mp4	0.0	947.7913572788239	0.10005402565002441
8	25.09120011329651	fix_pre	0		27.0	6.0	2.5	/experiments/knapen_aot/oldvideos/R_S_ahJft-G235A_122.mp4	0.0	947.8914113044739	0.22505497932434082
8	25.30035901069641	response	0	4		6.0	2.5	/experiments/knapen_aot/oldvideos/R_S_ahJft-G235A_122.mp4	0.0	948.1005702018738	
8	25.31625509262085	movie	1		301.0	6.0	2.5	/experiments/knapen_aot/oldvideos/R_S_ahJft-G235A_122.mp4	0.0	948.1164662837982	2.5083038806915283
8	27.824558973312378	fix_post	2		12.0	6.0	2.5	/experiments/knapen_aot/oldvideos/R_S_ahJft-G235A_122.mp4	0.0	950.6247701644897	0.10009098052978516
9	27.924649953842163	fix_pre	0		225.0	7.0	2.5	blank	1.0	950.7248611450195	1.874852180480957
9	29.7912540435791	response	0	4		7.0	2.5	blank	1.0	952.5914652347565	
9	29.79950213432312	movie	1		301.0	7.0	2.5	blank	1.0	952.5997133255005	2.5082759857177734
9	32.307778120040894	fix_post	2		12.0	7.0	2.5	blank	1.0	955.1079893112183	0.1000828742980957
10	32.40786099433899	fix_pre	0		37.0	8.0	2.5	/experiments/knapen_aot/oldvideos/R_S_yt-c5_SFS4aaJI_1102.mp4	0.0	955.2080721855164	0.30828309059143066
10	32.70043706893921	response	0	4		8.0	2.5	/experiments/knapen_aot/oldvideos/R_S_yt-c5_SFS4aaJI_1102.mp4	0.0	955.5006482601166	
10	32.71614408493042	movie	1		300.0	8.0	2.5	/experiments/knapen_aot/oldvideos/R_S_yt-c5_SFS4aaJI_1102.mp4	0.0	955.5163552761078	2.5083370208740234
10	35.22448110580444	fix_post	2		12.0	8.0	2.5	/experiments/knapen_aot/oldvideos/R_S_yt-c5_SFS4aaJI_1102.mp4	0.0	958.0246922969818	0.09991598129272461
11	35.32439708709717	fix_pre	0		229.0	9.0	2.5	/experiments/knapen_aot/oldvideos/S_yt-pO5SVq-9EhU_114.mp4	0.0	958.1246082782745	1.9083950519561768
11	37.217036962509155	response	0	4		9.0	2.5	/experiments/knapen_aot/oldvideos/S_yt-pO5SVq-9EhU_114.mp4	0.0	960.0172481536865	
11	37.232792139053345	movie	1		301.0	9.0	2.5	/experiments/knapen_aot/oldvideos/S_yt-pO5SVq-9EhU_114.mp4	0.0	960.0330033302307	2.508279800415039
11	39.741071939468384	fix_post	2		12.0	9.0	2.5	/experiments/knapen_aot/oldvideos/S_yt-pO5SVq-9EhU_114.mp4	0.0	962.5412831306458	0.10006403923034668
12	39.84113597869873	fix_pre	0		23.0	10.0	2.5	/experiments/knapen_aot/oldvideos/S_pexels-c-technical-6753390.mp4	0.0	962.6413471698761	0.1916520595550537
12	40.01712203025818	response	0	4		10.0	2.5	/experiments/knapen_aot/oldvideos/S_pexels-c-technical-6753390.mp4	0.0	962.8173332214355	
12	40.032788038253784	movie	1		182.0	10.0	2.5	/experiments/knapen_aot/oldvideos/S_pexels-c-technical-6753390.mp4	0.0	962.8329992294312	2.508375883102417
12	42.5411639213562	fix_post	2		12.0	10.0	2.5	/experiments/knapen_aot/oldvideos/S_pexels-c-technical-6753390.mp4	0.0	965.3413751125336	0.10032200813293457
13	42.641485929489136	fix_pre	0		26.0	11.0	2.5	/experiments/knapen_aot/oldvideos/R_S_comp_A001_C004_1207W5_v23_SDR_FINAL_20180706_SDR_2K_AVC.mp4	0.0	965.4416971206665	0.2162799835205078
13	42.849575996398926	response	0	4		11.0	2.5	/experiments/knapen_aot/oldvideos/R_S_comp_A001_C004_1207W5_v23_SDR_FINAL_20180706_SDR_2K_AVC.mp4	0.0	965.6497871875763	
13	42.857765913009644	movie	1		165.0	11.0	2.5	/experiments/knapen_aot/oldvideos/R_S_comp_A001_C004_1207W5_v23_SDR_FINAL_20180706_SDR_2K_AVC.mp4	0.0	965.657977104187	2.508423089981079
13	45.36618900299072	fix_post	2		12.0	11.0	2.5	/experiments/knapen_aot/oldvideos/R_S_comp_A001_C004_1207W5_v23_SDR_FINAL_20180706_SDR_2K_AVC.mp4	0.0	968.1664001941681	0.0999140739440918
14	45.466103076934814	fix_pre	0		217.0	12.0	2.5	/experiments/knapen_aot/oldvideos/S_comp_H007_C003_PS_v01_SDR_PS_20180925_SDR_2K_AVC.mp4	0.0	968.2663142681122	1.8083009719848633
14	47.26617407798767	response	0	4		12.0	2.5	/experiments/knapen_aot/oldvideos/S_comp_H007_C003_PS_v01_SDR_PS_20180925_SDR_2K_AVC.mp4	0.0	970.066385269165	
14	47.27440404891968	movie	1		170.0	12.0	2.5	/experiments/knapen_aot/oldvideos/S_comp_H007_C003_PS_v01_SDR_PS_20180925_SDR_2K_AVC.mp4	0.0	970.074615240097	2.5083611011505127
14	49.78276515007019	fix_post	2		12.0	12.0	2.5	/experiments/knapen_aot/oldvideos/S_comp_H007_C003_PS_v01_SDR_PS_20180925_SDR_2K_AVC.mp4	0.0	972.5829763412476	0.09997177124023438
15	49.882736921310425	fix_pre	0		6.0	13.0	2.5	blank	1.0	972.6829481124878	0.05030012130737305
15	49.92452692985535	response	0	4		13.0	2.5	blank	1.0	972.7247381210327	
15	49.9330370426178	movie	1		301.0	13.0	2.5	blank	1.0	972.7332482337952	2.5080580711364746
15	52.44109511375427	fix_post	2		12.0	13.0	2.5	blank	1.0	975.2413063049316	0.09997987747192383
16	52.541074991226196	fix_pre	0		24.0	14.0	2.5	/experiments/knapen_aot/oldvideos/R_S_yt-xrWo3lnbshw_80.mp4	0.0	975.3412861824036	0.20000100135803223
16	52.732869148254395	response	0	4		14.0	2.5	/experiments/knapen_aot/oldvideos/R_S_yt-xrWo3lnbshw_80.mp4	0.0	975.5330803394318	
16	52.74107599258423	movie	1		301.0	14.0	2.5	/experiments/knapen_aot/oldvideos/R_S_yt-xrWo3lnbshw_80.mp4	0.0	975.5412871837616	2.508371114730835
16	55.24944710731506	fix_post	2		12.0	14.0	2.5	/experiments/knapen_aot/oldvideos/R_S_yt-xrWo3lnbshw_80.mp4	0.0	978.0496582984924	0.10029196739196777
17	55.34973907470703	fix_pre	0		139.0	15.0	2.5	/experiments/knapen_aot/oldvideos/S_yt-thmqgEV-sYY_91.mp4	0.0	978.1499502658844	1.1579749584197998
17	56.49949908256531	response	0	4		15.0	2.5	/experiments/knapen_aot/oldvideos/S_yt-thmqgEV-sYY_91.mp4	0.0	979.2997102737427	
17	56.50771403312683	movie	1		301.0	15.0	2.5	/experiments/knapen_aot/oldvideos/S_yt-thmqgEV-sYY_91.mp4	0.0	979.3079252243042	2.5084540843963623
17	59.01616811752319	fix_post	2		12.0	15.0	2.5	/experiments/knapen_aot/oldvideos/S_yt-thmqgEV-sYY_91.mp4	0.0	981.8163793087006	0.09988999366760254
18	59.116058111190796	fix_pre	0		39.0	16.0	2.5	/experiments/knapen_aot/oldvideos/S_yt-a9bnYU0Gnxg_59.mp4	0.0	981.9162693023682	0.32494592666625977
18	59.425390005111694	response	0	4		16.0	2.5	/experiments/knapen_aot/oldvideos/S_yt-a9bnYU0Gnxg_59.mp4	0.0	982.2256011962891	
18	59.441004037857056	movie	1		301.0	16.0	2.5	/experiments/knapen_aot/oldvideos/S_yt-a9bnYU0Gnxg_59.mp4	0.0	982.2412152290344	2.5085930824279785
18	61.949597120285034	fix_post	2		12.0	16.0	2.5	/experiments/knapen_aot/oldvideos/S_yt-a9bnYU0Gnxg_59.mp4	0.0	984.7498083114624	0.09974884986877441
19	62.04934597015381	fix_pre	0		12.0	17.0	2.5	/experiments/knapen_aot/oldvideos/S_yt--C2DDZ7LOQA_95.mp4	0.0	984.8495571613312	0.10004401206970215
19	62.14107799530029	response	0	4		17.0	2.5	/experiments/knapen_aot/oldvideos/S_yt--C2DDZ7LOQA_95.mp4	0.0	984.9412891864777	
19	62.14938998222351	movie	1		301.0	17.0	2.5	/experiments/knapen_aot/oldvideos/S_yt--C2DDZ7LOQA_95.mp4	0.0	984.9496011734009	2.508316993713379
19	64.65770697593689	fix_post	2		12.0	17.0	2.5	/experiments/knapen_aot/oldvideos/S_yt--C2DDZ7LOQA_95.mp4	0.0	987.4579181671143	0.10002899169921875
20	64.75773596763611	fix_pre	0		200.0	18.0	2.5	/experiments/knapen_aot/oldvideos/S_yt-f9iXELY0EJ0_344.mp4	0.0	987.5579471588135	1.666553020477295
20	66.4161159992218	response	0	4		18.0	2.5	/experiments/knapen_aot/oldvideos/S_yt-f9iXELY0EJ0_344.mp4	0.0	989.2163271903992	
20	66.4242889881134	movie	1		301.0	18.0	2.5	/experiments/knapen_aot/oldvideos/S_yt-f9iXELY0EJ0_344.mp4	0.0	989.2245001792908	2.508409023284912
20	68.93269801139832	fix_post	2		12.0	18.0	2.5	/experiments/knapen_aot/oldvideos/S_yt-f9iXELY0EJ0_344.mp4	0.0	991.7329092025757	0.10001993179321289
21	69.03271794319153	fix_pre	0		19.0	19.0	2.5	/experiments/knapen_aot/oldvideos/R_S_yt-6UFUeTKci2o_164.mp4	0.0	991.8329291343689	0.15826916694641113
21	69.18295001983643	response	0	4		19.0	2.5	/experiments/knapen_aot/oldvideos/R_S_yt-6UFUeTKci2o_164.mp4	0.0	991.9831612110138	
21	69.19098711013794	movie	1		301.0	19.0	2.5	/experiments/knapen_aot/oldvideos/R_S_yt-6UFUeTKci2o_164.mp4	0.0	991.9911983013153	2.5083279609680176
21	71.69931507110596	fix_post	2		12.0	19.0	2.5	/experiments/knapen_aot/oldvideos/R_S_yt-6UFUeTKci2o_164.mp4	0.0	994.4995262622833	0.10000991821289062
22	71.79932498931885	fix_pre	0		79.0	20.0	2.5	blank	1.0	994.5995361804962	0.6582751274108887
22	72.44938206672668	response	0	4		20.0	2.5	blank	1.0	995.249593257904	
22	72.45760011672974	movie	1		301.0	20.0	2.5	blank	1.0	995.2578113079071	2.5084049701690674
22	74.9660050868988	fix_post	2		12.0	20.0	2.5	blank	1.0	997.7662162780762	0.09998083114624023
23	75.06598591804504	fix_pre	0		317.0	21.0	2.5	/experiments/knapen_aot/oldvideos/R_S_yt-OLDm2slgfA4_3.mp4	0.0	997.8661971092224	2.6415951251983643
23	77.69930696487427	response	0	4		21.0	2.5	/experiments/knapen_aot/oldvideos/R_S_yt-OLDm2slgfA4_3.mp4	0.0	1000.4995181560516	
23	77.70758104324341	movie	1		301.0	21.0	2.5	/experiments/knapen_aot/oldvideos/R_S_yt-OLDm2slgfA4_3.mp4	0.0	1000.5077922344208	2.508358955383301
23	80.21593999862671	fix_post	2		12.0	21.0	2.5	/experiments/knapen_aot/oldvideos/R_S_yt-OLDm2slgfA4_3.mp4	0.0	1003.0161511898041	0.10004711151123047
24	80.31598711013794	fix_pre	0		24.0	22.0	2.5	/experiments/knapen_aot/oldvideos/R_S_yt-J2PiBa1MXI0_210.mp4	0.0	1003.1161983013153	0.20015883445739746
24	80.50776410102844	response	0	4		22.0	2.5	/experiments/knapen_aot/oldvideos/R_S_yt-J2PiBa1MXI0_210.mp4	0.0	1003.3079752922058	
24	80.51614594459534	movie	1		301.0	22.0	2.5	/experiments/knapen_aot/oldvideos/R_S_yt-J2PiBa1MXI0_210.mp4	0.0	1003.3163571357727	2.5081350803375244
24	83.02428102493286	fix_post	2		12.0	22.0	2.5	/experiments/knapen_aot/oldvideos/R_S_yt-J2PiBa1MXI0_210.mp4	0.0	1005.8244922161102	0.09998703002929688
25	83.12426805496216	fix_pre	0		29.0	23.0	2.5	/experiments/knapen_aot/oldvideos/S_comp_H005_C012_PS_v01_SDR_PS_20180925_SDR_2K_AVC.mp4	0.0	1005.9244792461395	0.24177789688110352
25	83.35015106201172	response	0	4		23.0	2.5	/experiments/knapen_aot/oldvideos/S_comp_H005_C012_PS_v01_SDR_PS_20180925_SDR_2K_AVC.mp4	0.0	1006.1503622531891	
25	83.36604595184326	movie	1		169.0	23.0	2.5	/experiments/knapen_aot/oldvideos/S_comp_H005_C012_PS_v01_SDR_PS_20180925_SDR_2K_AVC.mp4	0.0	1006.1662571430206	2.508139133453369
25	85.87418508529663	fix_post	2		12.0	23.0	2.5	/experiments/knapen_aot/oldvideos/S_comp_H005_C012_PS_v01_SDR_PS_20180925_SDR_2K_AVC.mp4	0.0	1008.674396276474	0.10045289993286133
26	85.97463798522949	fix_pre	0		189.0	24.0	2.5	/experiments/knapen_aot/oldvideos/R_S_yt-YlA-FPDylDE_100.mp4	0.0	1008.7748491764069	1.5745899677276611
26	87.53361105918884	response	0	4		24.0	2.5	/experiments/knapen_aot/oldvideos/R_S_yt-YlA-FPDylDE_100.mp4	0.0	1010.3338222503662	
26	87.54922795295715	movie	1		301.0	24.0	2.5	/experiments/knapen_aot/oldvideos/R_S_yt-YlA-FPDylDE_100.mp4	0.0	1010.3494391441345	2.508481025695801
26	90.05770897865295	fix_post	2		12.0	24.0	2.5	/experiments/knapen_aot/oldvideos/R_S_yt-YlA-FPDylDE_100.mp4	0.0	1012.8579201698303	0.09992599487304688
27	90.157634973526	fix_pre	0		140.0	25.0	2.5	/experiments/knapen_aot/oldvideos/R_S_Ds4EKTLx_RI_51.mp4	0.0	1012.9578461647034	1.1665680408477783
27	91.3159990310669	response	0	4		25.0	2.5	/experiments/knapen_aot/oldvideos/R_S_Ds4EKTLx_RI_51.mp4	0.0	1014.1162102222443	
27	91.32420301437378	movie	1		301.0	25.0	2.5	/experiments/knapen_aot/oldvideos/R_S_Ds4EKTLx_RI_51.mp4	0.0	1014.1244142055511	2.5083460807800293
27	93.83254909515381	fix_post	2		12.0	25.0	2.5	/experiments/knapen_aot/oldvideos/R_S_Ds4EKTLx_RI_51.mp4	0.0	1016.6327602863312	0.10017204284667969
28	93.93272113800049	fix_pre	0		30.0	26.0	2.5	/experiments/knapen_aot/oldvideos/R_S_yt-4i1b6NQ9NKs_5.mp4	0.0	1016.7329323291779	0.24985194206237793
28	94.17434406280518	response	0	4		26.0	2.5	/experiments/knapen_aot/oldvideos/R_S_yt-4i1b6NQ9NKs_5.mp4	0.0	1016.9745552539825	
28	94.18257308006287	movie	1		301.0	26.0	2.5	/experiments/knapen_aot/oldvideos/R_S_yt-4i1b6NQ9NKs_5.mp4	0.0	1016.9827842712402	2.508362054824829
28	96.6909351348877	fix_post	2		12.0	26.0	2.5	/experiments/knapen_aot/oldvideos/R_S_yt-4i1b6NQ9NKs_5.mp4	0.0	1019.4911463260651	0.09997987747192383
29	96.79091501235962	fix_pre	0		9.0	27.0	2.5	/experiments/knapen_aot/oldvideos/S_yt-KVB49z48sZU_55.mp4	0.0	1019.591126203537	0.07497596740722656
29	96.857675075531	response	0	4		27.0	2.5	/experiments/knapen_aot/oldvideos/S_yt-KVB49z48sZU_55.mp4	0.0	1019.6578862667084	
29	96.86589097976685	movie	1		301.0	27.0	2.5	/experiments/knapen_aot/oldvideos/S_yt-KVB49z48sZU_55.mp4	0.0	1019.6661021709442	2.5083260536193848
29	99.37421703338623	fix_post	2		12.0	27.0	2.5	/experiments/knapen_aot/oldvideos/S_yt-KVB49z48sZU_55.mp4	0.0	1022.1744282245636	0.10011696815490723
30	99.47433400154114	fix_pre	0		153.0	28.0	2.5	blank	1.0	1022.2745451927185	1.274902105331421
30	100.74097394943237	response	0	4		28.0	2.5	blank	1.0	1023.5411851406097	
30	100.74923610687256	movie	1		301.0	28.0	2.5	blank	1.0	1023.5494472980499	2.508236885070801
30	103.25747299194336	fix_post	2		12.0	28.0	2.5	blank	1.0	1026.0576841831207	0.1000509262084961
31	103.35752391815186	fix_pre	0		72.0	29.0	2.5	/experiments/knapen_aot/oldvideos/S_yt-_BvMLZo0MG0_1226.mp4	0.0	1026.1577351093292	0.5999140739440918
31	103.949303150177	response	0	4		29.0	2.5	/experiments/knapen_aot/oldvideos/S_yt-_BvMLZo0MG0_1226.mp4	0.0	1026.7495143413544	
31	103.95743799209595	movie	1		301.0	29.0	2.5	/experiments/knapen_aot/oldvideos/S_yt-_BvMLZo0MG0_1226.mp4	0.0	1026.7576491832733	2.5085511207580566
31	106.465989112854	fix_post	2		12.0	29.0	2.5	/experiments/knapen_aot/oldvideos/S_yt-_BvMLZo0MG0_1226.mp4	0.0	1029.2662003040314	0.09987497329711914
32	106.56586408615112	fix_pre	0		22.0	30.0	2.5	/experiments/knapen_aot/oldvideos/R_S_yt-pO5SVq-9EhU_114.mp4	0.0	1029.3660752773285	0.18329906463623047
32	106.74084901809692	response	0	4		30.0	2.5	/experiments/knapen_aot/oldvideos/R_S_yt-pO5SVq-9EhU_114.mp4	0.0	1029.5410602092743	
32	106.74916315078735	movie	1		301.0	30.0	2.5	/experiments/knapen_aot/oldvideos/R_S_yt-pO5SVq-9EhU_114.mp4	0.0	1029.5493743419647	2.508354902267456
32	109.25751805305481	fix_post	2		12.0	30.0	2.5	/experiments/knapen_aot/oldvideos/R_S_yt-pO5SVq-9EhU_114.mp4	0.0	1032.0577292442322	0.09999394416809082
33	109.3575119972229	fix_pre	0		7.0	31.0	2.5	/experiments/knapen_aot/oldvideos/S_ILSVRC2015_train_00689000.mp4	0.0	1032.1577231884003	0.05829501152038574
33	109.40011692047119	response	0	4		31.0	2.5	/experiments/knapen_aot/oldvideos/S_ILSVRC2015_train_00689000.mp4	0.0	1032.2003281116486	
33	109.41580700874329	movie	1		301.0	31.0	2.5	/experiments/knapen_aot/oldvideos/S_ILSVRC2015_train_00689000.mp4	0.0	1032.2160181999207	2.5085129737854004
33	111.92431998252869	fix_post	2		12.0	31.0	2.5	/experiments/knapen_aot/oldvideos/S_ILSVRC2015_train_00689000.mp4	0.0	1034.724531173706	0.09984302520751953
34	112.0241630077362	fix_pre	0		169.0	32.0	2.5	/experiments/knapen_aot/oldvideos/S_yt-2IxVZeiSv3g_28.mp4	0.0	1034.8243741989136	1.4082040786743164
34	113.42422914505005	response	0	4		32.0	2.5	/experiments/knapen_aot/oldvideos/S_yt-2IxVZeiSv3g_28.mp4	0.0	1036.2244403362274	
34	113.43236708641052	movie	1		301.0	32.0	2.5	/experiments/knapen_aot/oldvideos/S_yt-2IxVZeiSv3g_28.mp4	0.0	1036.232578277588	2.5086159706115723
34	115.9409830570221	fix_post	2		12.0	32.0	2.5	/experiments/knapen_aot/oldvideos/S_yt-2IxVZeiSv3g_28.mp4	0.0	1038.7411942481995	0.09985089302062988
35	116.04083395004272	fix_pre	0		123.0	33.0	2.5	/experiments/knapen_aot/oldvideos/R_S_yt-1_xoCNmTn3Y_1.mp4	0.0	1038.84104514122	1.024914026260376
35	117.05760908126831	response	0	4		33.0	2.5	/experiments/knapen_aot/oldvideos/R_S_yt-1_xoCNmTn3Y_1.mp4	0.0	1039.8578202724457	
35	117.0657479763031	movie	1		301.0	33.0	2.5	/experiments/knapen_aot/oldvideos/R_S_yt-1_xoCNmTn3Y_1.mp4	0.0	1039.8659591674805	2.5082809925079346
35	119.57402896881104	fix_post	2		12.0	33.0	2.5	/experiments/knapen_aot/oldvideos/R_S_yt-1_xoCNmTn3Y_1.mp4	0.0	1042.3742401599884	0.10009503364562988
36	119.67412400245667	fix_pre	0		213.0	34.0	2.5	blank	1.0	1042.474335193634	1.774960994720459
36	121.44090414047241	response	0	4		34.0	2.5	blank	1.0	1044.2411153316498	
36	121.44908499717712	movie	1		301.0	34.0	2.5	blank	1.0	1044.2492961883545	2.508355140686035
36	123.95744013786316	fix_post	2		12.0	34.0	2.5	blank	1.0	1046.7576513290405	0.10001778602600098
37	124.05745792388916	fix_pre	0		30.0	35.0	2.5	/experiments/knapen_aot/oldvideos/R_S_yt-dQRqGgpS9mE_288.mp4	0.0	1046.8576691150665	0.24995899200439453
37	124.2992250919342	response	0	4		35.0	2.5	/experiments/knapen_aot/oldvideos/R_S_yt-dQRqGgpS9mE_288.mp4	0.0	1047.0994362831116	
37	124.30741691589355	movie	1		301.0	35.0	2.5	/experiments/knapen_aot/oldvideos/R_S_yt-dQRqGgpS9mE_288.mp4	0.0	1047.107628107071	2.5083532333374023
37	126.81577014923096	fix_post	2		12.0	35.0	2.5	/experiments/knapen_aot/oldvideos/R_S_yt-dQRqGgpS9mE_288.mp4	0.0	1049.6159813404083	0.10001587867736816
38	126.91578602790833	fix_pre	0		11.0	36.0	2.5	/experiments/knapen_aot/oldvideos/R_S_production_ID_3709168.mp4	0.0	1049.7159972190857	0.09155392646789551
38	126.99914193153381	response	0	4		36.0	2.5	/experiments/knapen_aot/oldvideos/R_S_production_ID_3709168.mp4	0.0	1049.7993531227112	
38	127.00733995437622	movie	1		193.0	36.0	2.5	/experiments/knapen_aot/oldvideos/R_S_production_ID_3709168.mp4	0.0	1049.8075511455536	2.508392095565796
38	129.51573204994202	fix_post	2		12.0	36.0	2.5	/experiments/knapen_aot/oldvideos/R_S_production_ID_3709168.mp4	0.0	1052.3159432411194	0.09998488426208496
39	129.6157169342041	fix_pre	0		20.0	37.0	2.5	/experiments/knapen_aot/oldvideos/R_S_comp_GL_G010_C006_PSNK_NOSUN_v12_SDR_PS_FINAL_20180709_SDR_2K_AVC.mp4	0.0	1052.4159281253815	0.16668105125427246
39	129.77417993545532	response	0	4		37.0	2.5	/experiments/knapen_aot/oldvideos/R_S_comp_GL_G010_C006_PSNK_NOSUN_v12_SDR_PS_FINAL_20180709_SDR_2K_AVC.mp4	0.0	1052.5743911266327	
39	129.78239798545837	movie	1		167.0	37.0	2.5	/experiments/knapen_aot/oldvideos/R_S_comp_GL_G010_C006_PSNK_NOSUN_v12_SDR_PS_FINAL_20180709_SDR_2K_AVC.mp4	0.0	1052.5826091766357	2.5083889961242676
39	132.29078698158264	fix_post	2		12.0	37.0	2.5	/experiments/knapen_aot/oldvideos/R_S_comp_GL_G010_C006_PSNK_NOSUN_v12_SDR_PS_FINAL_20180709_SDR_2K_AVC.mp4	0.0	1055.09099817276	0.09999895095825195
40	132.3907859325409	fix_pre	0		6.0	38.0	2.5	/experiments/knapen_aot/oldvideos/R_S_yt-xqjVM0Vj4mI_161.mp4	0.0	1055.1909971237183	0.04984617233276367
40	132.4325270652771	response	0	4		38.0	2.5	/experiments/knapen_aot/oldvideos/R_S_yt-xqjVM0Vj4mI_161.mp4	0.0	1055.2327382564545	
40	132.44063210487366	movie	1		301.0	38.0	2.5	/experiments/knapen_aot/oldvideos/R_S_yt-xqjVM0Vj4mI_161.mp4	0.0	1055.240843296051	2.508392810821533
40	134.9490249156952	fix_post	2		12.0	38.0	2.5	/experiments/knapen_aot/oldvideos/R_S_yt-xqjVM0Vj4mI_161.mp4	0.0	1057.7492361068726	0.10003018379211426
41	135.0490550994873	fix_pre	0		183.0	39.0	2.5	/experiments/knapen_aot/oldvideos/S_yt-w_e3sxIzepA_115.mp4	0.0	1057.8492662906647	1.5251848697662354
41	136.56581592559814	response	0	4		39.0	2.5	/experiments/knapen_aot/oldvideos/S_yt-w_e3sxIzepA_115.mp4	0.0	1059.3660271167755	
41	136.57423996925354	movie	1		301.0	39.0	2.5	/experiments/knapen_aot/oldvideos/S_yt-w_e3sxIzepA_115.mp4	0.0	1059.374451160431	2.5082051753997803
41	139.08244514465332	fix_post	2		12.0	39.0	2.5	/experiments/knapen_aot/oldvideos/S_yt-w_e3sxIzepA_115.mp4	0.0	1061.8826563358307	0.09991979598999023
42	139.1823649406433	fix_pre	0		16.0	40.0	2.5	/experiments/knapen_aot/oldvideos/R_S_ILSVRC2015_train_00682009.mp4	0.0	1061.9825761318207	0.13329505920410156
42	139.30750608444214	response	0	4		40.0	2.5	/experiments/knapen_aot/oldvideos/R_S_ILSVRC2015_train_00682009.mp4	0.0	1062.1077172756195	
42	139.3156599998474	movie	1		301.0	40.0	2.5	/experiments/knapen_aot/oldvideos/R_S_ILSVRC2015_train_00682009.mp4	0.0	1062.1158711910248	2.508486032485962
42	141.82414603233337	fix_post	2		12.0	40.0	2.5	/experiments/knapen_aot/oldvideos/R_S_ILSVRC2015_train_00682009.mp4	0.0	1064.6243572235107	0.09990406036376953
43	141.92405009269714	fix_pre	0		90.0	41.0	2.5	/experiments/knapen_aot/oldvideos/R_S_ILSVRC2015_train_00369004.mp4	0.0	1064.7242612838745	0.7512660026550293
43	142.66583704948425	response	0	4		41.0	2.5	/experiments/knapen_aot/oldvideos/R_S_ILSVRC2015_train_00369004.mp4	0.0	1065.4660482406616	
43	142.67531609535217	movie	1		301.0	41.0	2.5	/experiments/knapen_aot/oldvideos/R_S_ILSVRC2015_train_00369004.mp4	0.0	1065.4755272865295	2.5071909427642822
43	145.18250703811646	fix_post	2		12.0	41.0	2.5	/experiments/knapen_aot/oldvideos/R_S_ILSVRC2015_train_00369004.mp4	0.0	1067.9827182292938	0.09991788864135742
44	145.2824249267578	fix_pre	0		20.0	42.0	2.5	blank	1.0	1068.0826361179352	0.16654300689697266
44	145.44085311889648	response	0	4		42.0	2.5	blank	1.0	1068.2410643100739	
44	145.44896793365479	movie	1		301.0	42.0	2.5	blank	1.0	1068.2491791248322	2.5083820819854736
44	147.95735001564026	fix_post	2		12.0	42.0	2.5	blank	1.0	1070.7575612068176	0.09998703002929688
45	148.05733704566956	fix_pre	0		64.0	43.0	2.5	/experiments/knapen_aot/oldvideos/S_yt-HQQws1Lp_rQ_10.mp4	0.0	1070.857548236847	0.5345849990844727
45	148.58267211914062	response	0	4		43.0	2.5	/experiments/knapen_aot/oldvideos/S_yt-HQQws1Lp_rQ_10.mp4	0.0	1071.382883310318	
45	148.59192204475403	movie	1		301.0	43.0	2.5	/experiments/knapen_aot/oldvideos/S_yt-HQQws1Lp_rQ_10.mp4	0.0	1071.3921332359314	2.5070719718933105
45	151.09899401664734	fix_post	2		12.0	43.0	2.5	/experiments/knapen_aot/oldvideos/S_yt-HQQws1Lp_rQ_10.mp4	0.0	1073.8992052078247	0.09996700286865234
46	151.198961019516	fix_pre	0		11.0	44.0	2.5	/experiments/knapen_aot/oldvideos/S_ahJft-G235A_122.mp4	0.0	1073.9991722106934	0.09167289733886719
46	151.28238606452942	response	0	4		44.0	2.5	/experiments/knapen_aot/oldvideos/S_ahJft-G235A_122.mp4	0.0	1074.0825972557068	
46	151.29063391685486	movie	1		301.0	44.0	2.5	/experiments/knapen_aot/oldvideos/S_ahJft-G235A_122.mp4	0.0	1074.0908451080322	2.5083670616149902
46	153.79900097846985	fix_post	2		12.0	44.0	2.5	/experiments/knapen_aot/oldvideos/S_ahJft-G235A_122.mp4	0.0	1076.5992121696472	0.09996795654296875
47	153.89896893501282	fix_pre	0		10.0	45.0	2.5	/experiments/knapen_aot/oldvideos/S_flickr-claywakening-27928940166_2.mp4	0.0	1076.6991801261902	0.08327102661132812
47	153.97412300109863	response	0	4		45.0	2.5	/experiments/knapen_aot/oldvideos/S_flickr-claywakening-27928940166_2.mp4	0.0	1076.774334192276	
47	153.98223996162415	movie	1		168.0	45.0	2.5	/experiments/knapen_aot/oldvideos/S_flickr-claywakening-27928940166_2.mp4	0.0	1076.7824511528015	2.5083260536193848
47	156.49056601524353	fix_post	2		12.0	45.0	2.5	/experiments/knapen_aot/oldvideos/S_flickr-claywakening-27928940166_2.mp4	0.0	1079.290777206421	0.10006594657897949
48	156.5906319618225	fix_pre	0		17.0	46.0	2.5	/experiments/knapen_aot/oldvideos/S_I004_C014_SDR_2K_AVC.mp4	0.0	1079.3908431529999	0.14154815673828125
48	156.7240469455719	response	0	4		46.0	2.5	/experiments/knapen_aot/oldvideos/S_I004_C014_SDR_2K_AVC.mp4	0.0	1079.5242581367493	
48	156.7321801185608	movie	1		172.0	46.0	2.5	/experiments/knapen_aot/oldvideos/S_I004_C014_SDR_2K_AVC.mp4	0.0	1079.5323913097382	2.5085790157318115
48	159.2407591342926	fix_post	2		12.0	46.0	2.5	/experiments/knapen_aot/oldvideos/S_I004_C014_SDR_2K_AVC.mp4	0.0	1082.04097032547	0.09986686706542969
49	159.34062600135803	fix_pre	0		6.0	47.0	2.5	/experiments/knapen_aot/oldvideos/R_S_yt-BKkZUSowoxg_59.mp4	0.0	1082.1408371925354	0.04999399185180664
49	159.37490797042847	response	0	4		47.0	2.5	/experiments/knapen_aot/oldvideos/R_S_yt-BKkZUSowoxg_59.mp4	0.0	1082.1751191616058	
49	159.39061999320984	movie	1		301.0	47.0	2.5	/experiments/knapen_aot/oldvideos/R_S_yt-BKkZUSowoxg_59.mp4	0.0	1082.1908311843872	2.5084481239318848
49	161.89906811714172	fix_post	2		12.0	47.0	2.5	/experiments/knapen_aot/oldvideos/R_S_yt-BKkZUSowoxg_59.mp4	0.0	1084.699279308319	0.10000491142272949
50	161.99907302856445	fix_pre	0		182.0	48.0	2.5	blank	1.0	1084.7992842197418	1.5164740085601807
50	163.50739407539368	response	0	4		48.0	2.5	blank	1.0	1086.307605266571	
50	163.51554703712463	movie	1		301.0	48.0	2.5	blank	1.0	1086.315758228302	2.5083301067352295
50	166.02387714385986	fix_post	2		12.0	48.0	2.5	blank	1.0	1088.8240883350372	0.10003495216369629
51	166.12391209602356	fix_pre	0		40.0	49.0	2.5	/experiments/knapen_aot/oldvideos/S_yt-uX7qYKQm_pg_277.mp4	0.0	1088.924123287201	0.3332939147949219
51	166.4489779472351	response	0	4		49.0	2.5	/experiments/knapen_aot/oldvideos/S_yt-uX7qYKQm_pg_277.mp4	0.0	1089.2491891384125	
51	166.45720601081848	movie	1		301.0	49.0	2.5	/experiments/knapen_aot/oldvideos/S_yt-uX7qYKQm_pg_277.mp4	0.0	1089.2574172019958	2.508371114730835
51	168.96557712554932	fix_post	2		12.0	49.0	2.5	/experiments/knapen_aot/oldvideos/S_yt-uX7qYKQm_pg_277.mp4	0.0	1091.7657883167267	0.09992384910583496
52	169.06550097465515	fix_pre	0		30.0	50.0	2.5	/experiments/knapen_aot/oldvideos/R_S_Xq0a2BWE3zA_53.mp4	0.0	1091.8657121658325	0.25005197525024414
52	169.30736804008484	response	0	4		50.0	2.5	/experiments/knapen_aot/oldvideos/R_S_Xq0a2BWE3zA_53.mp4	0.0	1092.1075792312622	
52	169.3155529499054	movie	1		301.0	50.0	2.5	/experiments/knapen_aot/oldvideos/R_S_Xq0a2BWE3zA_53.mp4	0.0	1092.1157641410828	2.508357048034668
52	171.82390999794006	fix_post	2		12.0	50.0	2.5	/experiments/knapen_aot/oldvideos/R_S_Xq0a2BWE3zA_53.mp4	0.0	1094.6241211891174	0.09994292259216309
53	171.92385292053223	fix_pre	0		24.0	51.0	2.5	/experiments/knapen_aot/oldvideos/R_S_yt-bQRBtP9zkms_111.mp4	0.0	1094.7240641117096	0.1999812126159668
53	172.11565399169922	response	0	4		51.0	2.5	/experiments/knapen_aot/oldvideos/R_S_yt-bQRBtP9zkms_111.mp4	0.0	1094.9158651828766	
53	172.1238341331482	movie	1		301.0	51.0	2.5	/experiments/knapen_aot/oldvideos/R_S_yt-bQRBtP9zkms_111.mp4	0.0	1094.9240453243256	2.508370876312256
53	174.63220500946045	fix_post	2		12.0	51.0	2.5	/experiments/knapen_aot/oldvideos/R_S_yt-bQRBtP9zkms_111.mp4	0.0	1097.4324162006378	0.09998893737792969
54	174.73219394683838	fix_pre	0		36.0	52.0	2.5	/experiments/knapen_aot/oldvideos/R_S_flickr-53807584@N00-5566422012_16.mp4	0.0	1097.5324051380157	0.3000149726867676
54	175.0164351463318	response	0	4		52.0	2.5	/experiments/knapen_aot/oldvideos/R_S_flickr-53807584@N00-5566422012_16.mp4	0.0	1097.8166463375092	
54	175.03220891952515	movie	1		301.0	52.0	2.5	/experiments/knapen_aot/oldvideos/R_S_flickr-53807584@N00-5566422012_16.mp4	0.0	1097.8324201107025	2.508380174636841
54	177.540589094162	fix_post	2		12.0	52.0	2.5	/experiments/knapen_aot/oldvideos/R_S_flickr-53807584@N00-5566422012_16.mp4	0.0	1100.3408002853394	0.09998798370361328
55	177.6405770778656	fix_pre	0		308.0	53.0	2.5	/experiments/knapen_aot/oldvideos/R_S_comp_H007_C003_PS_v01_SDR_PS_20180925_SDR_2K_AVC.mp4	0.0	1100.440788269043	2.5665199756622314
55	180.19897198677063	response	0	4		53.0	2.5	/experiments/knapen_aot/oldvideos/R_S_comp_H007_C003_PS_v01_SDR_PS_20180925_SDR_2K_AVC.mp4	0.0	1102.999183177948	
55	180.20709705352783	movie	1		171.0	53.0	2.5	/experiments/knapen_aot/oldvideos/R_S_comp_H007_C003_PS_v01_SDR_PS_20180925_SDR_2K_AVC.mp4	0.0	1103.0073082447052	2.5084469318389893
55	182.71554398536682	fix_post	2		12.0	53.0	2.5	/experiments/knapen_aot/oldvideos/R_S_comp_H007_C003_PS_v01_SDR_PS_20180925_SDR_2K_AVC.mp4	0.0	1105.5157551765442	0.10000014305114746
56	182.81554412841797	fix_pre	0		10.0	54.0	2.5	/experiments/knapen_aot/oldvideos/S_comp_LA_A006_C008_PSNK_ALL_LOGOS_v10_SDR_PS_FINAL_20180801_SDR_2K_AVC.mp4	0.0	1105.6157553195953	0.0832829475402832
56	182.89067602157593	response	0	4		54.0	2.5	/experiments/knapen_aot/oldvideos/S_comp_LA_A006_C008_PSNK_ALL_LOGOS_v10_SDR_PS_FINAL_20180801_SDR_2K_AVC.mp4	0.0	1105.6908872127533	
56	182.89882707595825	movie	1		171.0	54.0	2.5	/experiments/knapen_aot/oldvideos/S_comp_LA_A006_C008_PSNK_ALL_LOGOS_v10_SDR_PS_FINAL_20180801_SDR_2K_AVC.mp4	0.0	1105.6990382671356	2.5083608627319336
56	185.40718793869019	fix_post	2		12.0	54.0	2.5	/experiments/knapen_aot/oldvideos/S_comp_LA_A006_C008_PSNK_ALL_LOGOS_v10_SDR_PS_FINAL_20180801_SDR_2K_AVC.mp4	0.0	1108.2073991298676	0.09994912147521973
57	185.5071370601654	fix_pre	0		5.0	55.0	2.5	/experiments/knapen_aot/oldvideos/R_S_yt-h09NHEfoKb0_8.mp4	0.0	1108.3073482513428	0.042634010314941406
57	185.54062008857727	response	0	4		55.0	2.5	/experiments/knapen_aot/oldvideos/R_S_yt-h09NHEfoKb0_8.mp4	0.0	1108.3408312797546	
57	185.54977107048035	movie	1		301.0	55.0	2.5	/experiments/knapen_aot/oldvideos/R_S_yt-h09NHEfoKb0_8.mp4	0.0	1108.3499822616577	2.5073249340057373
57	188.05709600448608	fix_post	2		12.0	55.0	2.5	/experiments/knapen_aot/oldvideos/R_S_yt-h09NHEfoKb0_8.mp4	0.0	1110.8573071956635	0.10004496574401855
58	188.1571409702301	fix_pre	0		17.0	56.0	2.5	blank	1.0	1110.9573521614075	0.1417980194091797
58	188.29064393043518	response	0	4		56.0	2.5	blank	1.0	1111.0908551216125	
58	188.29893898963928	movie	1		301.0	56.0	2.5	blank	1.0	1111.0991501808167	2.5082790851593018
58	190.80721807479858	fix_post	2		12.0	56.0	2.5	blank	1.0	1113.607429265976	0.09992289543151855
59	190.9071409702301	fix_pre	0		48.0	57.0	2.5	/experiments/knapen_aot/oldvideos/R_S_pexels-c-technical-6753390_2.mp4	0.0	1113.7073521614075	0.39995718002319336
59	191.29888105392456	response	0	4		57.0	2.5	/experiments/knapen_aot/oldvideos/R_S_pexels-c-technical-6753390_2.mp4	0.0	1114.099092245102	
59	191.3070981502533	movie	1		204.0	57.0	2.5	/experiments/knapen_aot/oldvideos/R_S_pexels-c-technical-6753390_2.mp4	0.0	1114.1073093414307	2.5083508491516113
59	193.8154489994049	fix_post	2		12.0	57.0	2.5	/experiments/knapen_aot/oldvideos/R_S_pexels-c-technical-6753390_2.mp4	0.0	1116.6156601905823	0.1000051498413086
60	193.91545414924622	fix_pre	0		44.0	58.0	2.5	/experiments/knapen_aot/oldvideos/R_S_ILSVRC2015_train_00682009.mp4	0.0	1116.7156653404236	0.36661195755004883
60	194.27392506599426	response	0	4		58.0	2.5	/experiments/knapen_aot/oldvideos/R_S_ILSVRC2015_train_00682009.mp4	0.0	1117.0741362571716	
60	194.28206610679626	movie	1		301.0	58.0	2.5	/experiments/knapen_aot/oldvideos/R_S_ILSVRC2015_train_00682009.mp4	0.0	1117.0822772979736	2.508517026901245
60	196.7905831336975	fix_post	2		12.0	58.0	2.5	/experiments/knapen_aot/oldvideos/R_S_ILSVRC2015_train_00682009.mp4	0.0	1119.5907943248749	0.09994101524353027
61	196.89052414894104	fix_pre	0		37.0	59.0	2.5	/experiments/knapen_aot/oldvideos/R_S_yt-c5IgOXX8YZ0_24.mp4	0.0	1119.6907353401184	0.30820393562316895
61	197.18306803703308	response	0	4		59.0	2.5	/experiments/knapen_aot/oldvideos/R_S_yt-c5IgOXX8YZ0_24.mp4	0.0	1119.9832792282104	
61	197.1987280845642	movie	1		299.0	59.0	2.5	/experiments/knapen_aot/oldvideos/R_S_yt-c5IgOXX8YZ0_24.mp4	0.0	1119.9989392757416	2.5083868503570557
61	199.70711493492126	fix_post	2		12.0	59.0	2.5	/experiments/knapen_aot/oldvideos/R_S_yt-c5IgOXX8YZ0_24.mp4	0.0	1122.5073261260986	0.09996318817138672
62	199.80707812309265	fix_pre	0		14.0	60.0	2.5	/experiments/knapen_aot/oldvideos/R_S_comp_GMT026_363A_103NC_E1027_KOREA_JAPAN_NIGHT_v18_SDR_PS_20180907_SDR_2K_AVC.mp4	0.0	1122.60728931427	0.11765098571777344
62	199.9155740737915	response	0	4		60.0	2.5	/experiments/knapen_aot/oldvideos/R_S_comp_GMT026_363A_103NC_E1027_KOREA_JAPAN_NIGHT_v18_SDR_PS_20180907_SDR_2K_AVC.mp4	0.0	1122.7157852649689	
62	199.92472910881042	movie	1		189.0	60.0	2.5	/experiments/knapen_aot/oldvideos/R_S_comp_GMT026_363A_103NC_E1027_KOREA_JAPAN_NIGHT_v18_SDR_PS_20180907_SDR_2K_AVC.mp4	0.0	1122.7249402999878	2.507408857345581
62	202.432137966156	fix_post	2		12.0	60.0	2.5	/experiments/knapen_aot/oldvideos/R_S_comp_GMT026_363A_103NC_E1027_KOREA_JAPAN_NIGHT_v18_SDR_PS_20180907_SDR_2K_AVC.mp4	0.0	1125.2323491573334	0.09983301162719727
63	202.5319709777832	fix_pre	0		4.0	61.0	2.5	blank	1.0	1125.3321821689606	0.033471107482910156
63	202.55725812911987	response	0	4		61.0	2.5	blank	1.0	1125.3574693202972	
63	202.5654420852661	movie	1		301.0	61.0	2.5	blank	1.0	1125.3656532764435	2.5083670616149902
63	205.0738091468811	fix_post	2		12.0	61.0	2.5	blank	1.0	1127.8740203380585	0.09996485710144043
64	205.17377400398254	fix_pre	0		144.0	62.0	2.5	/experiments/knapen_aot/oldvideos/S_yt-WFiEvQuOqqg_18.mp4	0.0	1127.97398519516	1.1999099254608154
64	206.36555409431458	response	0	4		62.0	2.5	/experiments/knapen_aot/oldvideos/S_yt-WFiEvQuOqqg_18.mp4	0.0	1129.165765285492	
64	206.37368392944336	movie	1		301.0	62.0	2.5	/experiments/knapen_aot/oldvideos/S_yt-WFiEvQuOqqg_18.mp4	0.0	1129.1738951206207	2.508392095565796
64	208.88207602500916	fix_post	2		12.0	62.0	2.5	/experiments/knapen_aot/oldvideos/S_yt-WFiEvQuOqqg_18.mp4	0.0	1131.6822872161865	0.09989809989929199
65	208.98197412490845	fix_pre	0		19.0	63.0	2.5	/experiments/knapen_aot/oldvideos/R_S_Pz_NXxhQCJc_70.mp4	0.0	1131.7821853160858	0.15840983390808105
65	209.1247100830078	response	0	4		63.0	2.5	/experiments/knapen_aot/oldvideos/R_S_Pz_NXxhQCJc_70.mp4	0.0	1131.9249212741852	
65	209.14038395881653	movie	1		301.0	63.0	2.5	/experiments/knapen_aot/oldvideos/R_S_Pz_NXxhQCJc_70.mp4	0.0	1131.940595149994	2.508726119995117
65	211.64911007881165	fix_post	2		12.0	63.0	2.5	/experiments/knapen_aot/oldvideos/R_S_Pz_NXxhQCJc_70.mp4	0.0	1134.449321269989	0.09955906867980957
66	211.74866914749146	fix_pre	0		38.0	64.0	2.5	/experiments/knapen_aot/oldvideos/S_yt-XUnZ7FbBtvk_162.mp4	0.0	1134.5488803386688	0.3167109489440918
66	212.0571210384369	response	0	4		64.0	2.5	/experiments/knapen_aot/oldvideos/S_yt-XUnZ7FbBtvk_162.mp4	0.0	1134.8573322296143	
66	212.06538009643555	movie	1		301.0	64.0	2.5	/experiments/knapen_aot/oldvideos/S_yt-XUnZ7FbBtvk_162.mp4	0.0	1134.865591287613	2.508342981338501
66	214.57372307777405	fix_post	2		12.0	64.0	2.5	/experiments/knapen_aot/oldvideos/S_yt-XUnZ7FbBtvk_162.mp4	0.0	1137.3739342689514	0.09999990463256836
67	214.67372298240662	fix_pre	0		23.0	65.0	2.5	/experiments/knapen_aot/oldvideos/S_yt_R-SwXr0ScjD9o_20.mp4	0.0	1137.473934173584	0.19159603118896484
67	214.85715293884277	response	0	4		65.0	2.5	/experiments/knapen_aot/oldvideos/S_yt_R-SwXr0ScjD9o_20.mp4	0.0	1137.6573641300201	
67	214.86531901359558	movie	1		301.0	65.0	2.5	/experiments/knapen_aot/oldvideos/S_yt_R-SwXr0ScjD9o_20.mp4	0.0	1137.665530204773	2.508708953857422
67	217.374027967453	fix_post	2		12.0	65.0	2.5	/experiments/knapen_aot/oldvideos/S_yt_R-SwXr0ScjD9o_20.mp4	0.0	1140.1742391586304	0.09965395927429199
68	217.4736819267273	fix_pre	0		38.0	66.0	2.5	/experiments/knapen_aot/oldvideos/R_S_ILSVRC2015_train_00689000.mp4	0.0	1140.2738931179047	0.31667399406433105
68	217.78209114074707	response	0	4		66.0	2.5	/experiments/knapen_aot/oldvideos/R_S_ILSVRC2015_train_00689000.mp4	0.0	1140.5823023319244	
68	217.79035592079163	movie	1		301.0	66.0	2.5	/experiments/knapen_aot/oldvideos/R_S_ILSVRC2015_train_00689000.mp4	0.0	1140.590567111969	2.5082571506500244
68	220.29861307144165	fix_post	2		12.0	66.0	2.5	/experiments/knapen_aot/oldvideos/R_S_ILSVRC2015_train_00689000.mp4	0.0	1143.098824262619	0.10006403923034668
69	220.398677110672	fix_pre	0		26.0	67.0	2.5	/experiments/knapen_aot/oldvideos/S_yt-wUqpCtBOFBA_89.mp4	0.0	1143.1988883018494	0.2166128158569336
69	220.59965014457703	response	0	4		67.0	2.5	/experiments/knapen_aot/oldvideos/S_yt-wUqpCtBOFBA_89.mp4	0.0	1143.3998613357544	
69	220.61528992652893	movie	1		301.0	67.0	2.5	/experiments/knapen_aot/oldvideos/S_yt-wUqpCtBOFBA_89.mp4	0.0	1143.4155011177063	2.508472204208374
69	223.1237621307373	fix_post	2		12.0	67.0	2.5	/experiments/knapen_aot/oldvideos/S_yt-wUqpCtBOFBA_89.mp4	0.0	1145.9239733219147	0.09991598129272461
70	223.22367811203003	fix_pre	0		48.0	68.0	2.5	/experiments/knapen_aot/oldvideos/R_S_yt-wnQFgNEnHUI_109.mp4	0.0	1146.0238893032074	0.39998793601989746
70	223.60804891586304	response	0	4		68.0	2.5	/experiments/knapen_aot/oldvideos/R_S_yt-wnQFgNEnHUI_109.mp4	0.0	1146.4082601070404	
70	223.62366604804993	movie	1		301.0	68.0	2.5	/experiments/knapen_aot/oldvideos/R_S_yt-wnQFgNEnHUI_109.mp4	0.0	1146.4238772392273	2.508362054824829
70	226.13202810287476	fix_post	2		12.0	68.0	2.5	/experiments/knapen_aot/oldvideos/R_S_yt-wnQFgNEnHUI_109.mp4	0.0	1148.9322392940521	0.10006499290466309
71	226.23209309577942	fix_pre	0		91.0	69.0	2.5	blank	1.0	1149.0323042869568	0.7581558227539062
71	226.98218607902527	response	0	4		69.0	2.5	blank	1.0	1149.7823972702026	
71	226.99024891853333	movie	1		301.0	69.0	2.5	blank	1.0	1149.7904601097107	2.50832200050354
71	229.49857091903687	fix_post	2		12.0	69.0	2.5	blank	1.0	1152.2987821102142	0.10010004043579102
72	229.59867095947266	fix_pre	0		31.0	70.0	2.5	/experiments/knapen_aot/oldvideos/R_S_wc-PX_MIe5L43_3_16.mp4	0.0	1152.39888215065	0.2582721710205078
72	229.84865593910217	response	0	4		70.0	2.5	/experiments/knapen_aot/oldvideos/R_S_wc-PX_MIe5L43_3_16.mp4	0.0	1152.6488671302795	
72	229.85694313049316	movie	1		301.0	70.0	2.5	/experiments/knapen_aot/oldvideos/R_S_wc-PX_MIe5L43_3_16.mp4	0.0	1152.6571543216705	2.508370876312256
72	232.36531400680542	fix_post	2		12.0	70.0	2.5	/experiments/knapen_aot/oldvideos/R_S_wc-PX_MIe5L43_3_16.mp4	0.0	1155.1655251979828	0.09992098808288574
73	232.4652349948883	fix_pre	0		8.0	71.0	2.5	/experiments/knapen_aot/oldvideos/R_S_yt-ejSzwn8tY8g_49.mp4	0.0	1155.2654461860657	0.06668305397033691
73	232.52373814582825	response	0	4		71.0	2.5	/experiments/knapen_aot/oldvideos/R_S_yt-ejSzwn8tY8g_49.mp4	0.0	1155.3239493370056	
73	232.53191804885864	movie	1		301.0	71.0	2.5	/experiments/knapen_aot/oldvideos/R_S_yt-ejSzwn8tY8g_49.mp4	0.0	1155.332129240036	2.508373975753784
73	235.04029202461243	fix_post	2		12.0	71.0	2.5	/experiments/knapen_aot/oldvideos/R_S_yt-ejSzwn8tY8g_49.mp4	0.0	1157.8405032157898	0.09993290901184082
74	235.14022493362427	fix_pre	0		31.0	72.0	2.5	/experiments/knapen_aot/oldvideos/S_yt-54kx8P3L1ns_6.mp4	0.0	1157.9404361248016	0.2584199905395508
74	235.39045000076294	response	0	4		72.0	2.5	/experiments/knapen_aot/oldvideos/S_yt-54kx8P3L1ns_6.mp4	0.0	1158.1906611919403	
74	235.39864492416382	movie	1		301.0	72.0	2.5	/experiments/knapen_aot/oldvideos/S_yt-54kx8P3L1ns_6.mp4	0.0	1158.1988561153412	2.508294105529785
74	237.9069390296936	fix_post	2		12.0	72.0	2.5	/experiments/knapen_aot/oldvideos/S_yt-54kx8P3L1ns_6.mp4	0.0	1160.707150220871	0.09996891021728516
75	238.0069079399109	fix_pre	0		31.0	73.0	2.5	/experiments/knapen_aot/oldvideos/S_SE_A016_C009_SDR_20190717_SDR_2K_AVC.mp4	0.0	1160.8071191310883	0.25832509994506836
75	238.2570469379425	response	0	4		73.0	2.5	/experiments/knapen_aot/oldvideos/S_SE_A016_C009_SDR_20190717_SDR_2K_AVC.mp4	0.0	1161.0572581291199	
75	238.26523303985596	movie	1		171.0	73.0	2.5	/experiments/knapen_aot/oldvideos/S_SE_A016_C009_SDR_20190717_SDR_2K_AVC.mp4	0.0	1161.0654442310333	2.5083820819854736
75	240.77361512184143	fix_post	2		12.0	73.0	2.5	/experiments/knapen_aot/oldvideos/S_SE_A016_C009_SDR_20190717_SDR_2K_AVC.mp4	0.0	1163.5738263130188	0.09997200965881348
76	240.87358713150024	fix_pre	0		193.0	74.0	2.5	/experiments/knapen_aot/oldvideos/S_yt-YlA-FPDylDE_100.mp4	0.0	1163.6737983226776	1.6083199977874756
76	242.47385096549988	response	0	4		74.0	2.5	/experiments/knapen_aot/oldvideos/S_yt-YlA-FPDylDE_100.mp4	0.0	1165.2740621566772	
76	242.48190712928772	movie	1		301.0	74.0	2.5	/experiments/knapen_aot/oldvideos/S_yt-YlA-FPDylDE_100.mp4	0.0	1165.282118320465	2.5084238052368164
76	244.99033093452454	fix_post	2		12.0	74.0	2.5	/experiments/knapen_aot/oldvideos/S_yt-YlA-FPDylDE_100.mp4	0.0	1167.790542125702	0.09983301162719727
77	245.09016394615173	fix_pre	0		29.0	75.0	2.5	/experiments/knapen_aot/oldvideos/S_yt-J2PiBa1MXI0_210.mp4	0.0	1167.890375137329	0.241746187210083
77	245.3236849308014	response	0	4		75.0	2.5	/experiments/knapen_aot/oldvideos/S_yt-J2PiBa1MXI0_210.mp4	0.0	1168.1238961219788	
77	245.33191013336182	movie	1		301.0	75.0	2.5	/experiments/knapen_aot/oldvideos/S_yt-J2PiBa1MXI0_210.mp4	0.0	1168.1321213245392	2.508255958557129
77	247.84016609191895	fix_post	2		12.0	75.0	2.5	/experiments/knapen_aot/oldvideos/S_yt-J2PiBa1MXI0_210.mp4	0.0	1170.6403772830963	0.10005903244018555
78	247.94022512435913	fix_pre	0		163.0	76.0	2.5	/experiments/knapen_aot/oldvideos/R_S_yt-Wf-RauSbVgA_56.mp4	0.0	1170.7404363155365	1.3590798377990723
78	249.2903380393982	response	0	4		76.0	2.5	/experiments/knapen_aot/oldvideos/R_S_yt-Wf-RauSbVgA_56.mp4	0.0	1172.0905492305756	
78	249.2993049621582	movie	1		301.0	76.0	2.5	/experiments/knapen_aot/oldvideos/R_S_yt-Wf-RauSbVgA_56.mp4	0.0	1172.0995161533356	2.5075690746307373
78	251.80687403678894	fix_post	2		12.0	76.0	2.5	/experiments/knapen_aot/oldvideos/R_S_yt-Wf-RauSbVgA_56.mp4	0.0	1174.6070852279663	0.09997701644897461
79	251.90685105323792	fix_pre	0		56.0	77.0	2.5	blank	1.0	1174.7070622444153	0.46666407585144043
79	252.36524105072021	response	0	4		77.0	2.5	blank	1.0	1175.1654522418976	
79	252.37351512908936	movie	1		301.0	77.0	2.5	blank	1.0	1175.1737263202667	2.508370876312256
79	254.8818860054016	fix_post	2		12.0	77.0	2.5	blank	1.0	1177.682097196579	0.10003113746643066
80	254.98191714286804	fix_pre	0		52.0	78.0	2.5	/experiments/knapen_aot/oldvideos/R_S_yt-RlHmMGUjT9E_130.mp4	0.0	1177.7821283340454	0.43320679664611816
80	255.40687108039856	response	0	4		78.0	2.5	/experiments/knapen_aot/oldvideos/R_S_yt-RlHmMGUjT9E_130.mp4	0.0	1178.207082271576	
80	255.41512393951416	movie	1		301.0	78.0	2.5	/experiments/knapen_aot/oldvideos/R_S_yt-RlHmMGUjT9E_130.mp4	0.0	1178.2153351306915	2.5083889961242676
80	257.9235129356384	fix_post	2		12.0	78.0	2.5	/experiments/knapen_aot/oldvideos/R_S_yt-RlHmMGUjT9E_130.mp4	0.0	1180.7237241268158	0.10020613670349121
81	258.0237190723419	fix_pre	0		32.0	79.0	2.5	/experiments/knapen_aot/oldvideos/S_yt-wUqpCtBOFBA_89.mp4	0.0	1180.8239302635193	0.26642584800720215
81	258.28192114830017	response	0	4		79.0	2.5	/experiments/knapen_aot/oldvideos/S_yt-wUqpCtBOFBA_89.mp4	0.0	1181.0821323394775	
81	258.2901449203491	movie	1		301.0	79.0	2.5	/experiments/knapen_aot/oldvideos/S_yt-wUqpCtBOFBA_89.mp4	0.0	1181.0903561115265	2.5083611011505127
81	260.79850602149963	fix_post	2		12.0	79.0	2.5	/experiments/knapen_aot/oldvideos/S_yt-wUqpCtBOFBA_89.mp4	0.0	1183.598717212677	0.10018610954284668
82	260.8986921310425	fix_pre	0		21.0	80.0	2.5	/experiments/knapen_aot/oldvideos/S_wc-PX_MIe5L43_3_16.mp4	0.0	1183.6989033222198	0.1747899055480957
82	261.0652940273285	response	0	4		80.0	2.5	/experiments/knapen_aot/oldvideos/S_wc-PX_MIe5L43_3_16.mp4	0.0	1183.8655052185059	
82	261.0734820365906	movie	1		301.0	80.0	2.5	/experiments/knapen_aot/oldvideos/S_wc-PX_MIe5L43_3_16.mp4	0.0	1183.873693227768	2.5083680152893066
82	263.5818500518799	fix_post	2		12.0	80.0	2.5	/experiments/knapen_aot/oldvideos/S_wc-PX_MIe5L43_3_16.mp4	0.0	1186.3820612430573	0.09999990463256836
83	263.68184995651245	fix_pre	0		34.0	81.0	2.5	/experiments/knapen_aot/oldvideos/R_S_ILSVRC2015_train_00518001.mp4	0.0	1186.4820611476898	0.2839829921722412
83	263.95694494247437	response	0	4		81.0	2.5	/experiments/knapen_aot/oldvideos/R_S_ILSVRC2015_train_00518001.mp4	0.0	1186.7571561336517	
83	263.9658329486847	movie	1		301.0	81.0	2.5	/experiments/knapen_aot/oldvideos/R_S_ILSVRC2015_train_00518001.mp4	0.0	1186.766044139862	2.507699966430664
83	266.47353291511536	fix_post	2		12.0	81.0	2.5	/experiments/knapen_aot/oldvideos/R_S_ILSVRC2015_train_00518001.mp4	0.0	1189.2737441062927	0.10000205039978027
84	266.57353496551514	fix_pre	0		180.0	82.0	2.5	/experiments/knapen_aot/oldvideos/R_S_ILSVRC2015_train_00001009.mp4	0.0	1189.3737461566925	1.4999301433563232
84	268.0652029514313	response	0	4		82.0	2.5	/experiments/knapen_aot/oldvideos/R_S_ILSVRC2015_train_00001009.mp4	0.0	1190.8654141426086	
84	268.07346510887146	movie	1		301.0	82.0	2.5	/experiments/knapen_aot/oldvideos/R_S_ILSVRC2015_train_00001009.mp4	0.0	1190.8736763000488	2.508333921432495
84	270.58179903030396	fix_post	2		12.0	82.0	2.5	/experiments/knapen_aot/oldvideos/R_S_ILSVRC2015_train_00001009.mp4	0.0	1193.3820102214813	0.09999799728393555
85	270.6817970275879	fix_pre	0		30.0	83.0	2.5	blank	1.0	1193.4820082187653	0.24992799758911133
85	270.92355704307556	response	0	4		83.0	2.5	blank	1.0	1193.723768234253	
85	270.931725025177	movie	1		301.0	83.0	2.5	blank	1.0	1193.7319362163544	2.508380889892578
85	273.4401059150696	fix_post	2		12.0	83.0	2.5	blank	1.0	1196.240317106247	0.10010218620300293
87	273.5402081012726	stim	0		109.0					1196.34041929245	0.9082009792327881
87	274.4424030780792	response	0	space						1197.2426142692566	
