trial_nr	onset	event_type	phase	response	nr_frames	movie_index	movie_duration	movie_file	blank	onset_abs	duration
0	0.13268089294433594	stim	0		36.0					74.26481795310974	0.29979419708251953
0	0.4170510768890381	response	0	space						74.54918813705444	
1	0.43247509002685547	stim	0		121.0					74.56461215019226	1.0084757804870605
1	0.8825600147247314	response	0	space						75.01469707489014	
1	1.1576581001281738	response	0	space						75.28979516029358	
1	1.440950870513916	stim	1		120.0					75.57308793067932	0.9994990825653076
1	1.474215030670166	response	1	space						75.60635209083557	
1	1.6290040016174316	response	1	2						75.76114106178284	
1	1.8461499214172363	response	1	space						75.97828698158264	
1	2.1988420486450195	response	1	space						76.33097910881042	
2	2.4404499530792236	fix_pre	0		3.0	0.0	2.5	/experiments/knapen_aot/oldvideos/R_S_G007_C004_UHD_SDR_2K_AVC.mp4	0.0	76.57258701324463	0.02503514289855957
2	2.4583780765533447	response	0	space		0.0	2.5	/experiments/knapen_aot/oldvideos/R_S_G007_C004_UHD_SDR_2K_AVC.mp4	0.0	76.59051513671875	
2	2.465485095977783	movie	1		167.0	0.0	2.5	/experiments/knapen_aot/oldvideos/R_S_G007_C004_UHD_SDR_2K_AVC.mp4	0.0	76.59762215614319	2.508382797241211
2	4.973867893218994	fix_post	2		11.0	0.0	2.5	/experiments/knapen_aot/oldvideos/R_S_G007_C004_UHD_SDR_2K_AVC.mp4	0.0	79.1060049533844	0.09520697593688965
2	5.053926944732666	response	2	2		0.0	2.5	/experiments/knapen_aot/oldvideos/R_S_G007_C004_UHD_SDR_2K_AVC.mp4	0.0	79.18606400489807	
3	5.069074869155884	fix_pre	0		39.0	1.0	2.5	/experiments/knapen_aot/oldvideos/R_S_comp_A001_C001_120530_v04_SDR_FINAL_20180706_SDR_2K_AVC.mp4	0.0	79.20121192932129	0.32133007049560547
3	5.382236003875732	response	0	2		1.0	2.5	/experiments/knapen_aot/oldvideos/R_S_comp_A001_C001_120530_v04_SDR_FINAL_20180706_SDR_2K_AVC.mp4	0.0	79.51437306404114	
3	5.390404939651489	movie	1		167.0	1.0	2.5	/experiments/knapen_aot/oldvideos/R_S_comp_A001_C001_120530_v04_SDR_FINAL_20180706_SDR_2K_AVC.mp4	0.0	79.5225419998169	2.508517026901245
3	7.898921966552734	fix_post	2		12.0	1.0	2.5	/experiments/knapen_aot/oldvideos/R_S_comp_A001_C001_120530_v04_SDR_FINAL_20180706_SDR_2K_AVC.mp4	0.0	82.03105902671814	0.09984612464904785
3	7.973948955535889	response	2	2		1.0	2.5	/experiments/knapen_aot/oldvideos/R_S_comp_A001_C001_120530_v04_SDR_FINAL_20180706_SDR_2K_AVC.mp4	0.0	82.1060860157013	
4	7.998768091201782	fix_pre	0		38.0	2.0	2.5	/experiments/knapen_aot/oldvideos/S_yt-I2n2eo2zoZs_112.mp4	0.0	82.13090515136719	0.3166649341583252
4	8.29976201057434	response	0	2		2.0	2.5	/experiments/knapen_aot/oldvideos/S_yt-I2n2eo2zoZs_112.mp4	0.0	82.43189907073975	
4	8.315433025360107	movie	1		301.0	2.0	2.5	/experiments/knapen_aot/oldvideos/S_yt-I2n2eo2zoZs_112.mp4	0.0	82.44757008552551	2.50846004486084
4	10.583003997802734	response	1	2		2.0	2.5	/experiments/knapen_aot/oldvideos/S_yt-I2n2eo2zoZs_112.mp4	0.0	84.71514105796814	
4	10.823893070220947	fix_post	2		12.0	2.0	2.5	/experiments/knapen_aot/oldvideos/S_yt-I2n2eo2zoZs_112.mp4	0.0	84.95603013038635	0.09995102882385254
4	10.882248878479004	response	2	2		2.0	2.5	/experiments/knapen_aot/oldvideos/S_yt-I2n2eo2zoZs_112.mp4	0.0	85.01438593864441	
5	10.9238440990448	fix_pre	0		76.0	3.0	2.5	/experiments/knapen_aot/oldvideos/R_S_production_ID_4820868.mp4	0.0	85.0559811592102	0.6332459449768066
5	11.548848867416382	response	0	2		3.0	2.5	/experiments/knapen_aot/oldvideos/R_S_production_ID_4820868.mp4	0.0	85.68098592758179	
5	11.557090044021606	movie	1		168.0	3.0	2.5	/experiments/knapen_aot/oldvideos/R_S_production_ID_4820868.mp4	0.0	85.68922710418701	2.5084068775177
5	14.065496921539307	fix_post	2		12.0	3.0	2.5	/experiments/knapen_aot/oldvideos/R_S_production_ID_4820868.mp4	0.0	88.19763398170471	0.10000014305114746
6	14.165497064590454	fix_pre	0		3.0	4.0	2.5	/experiments/knapen_aot/oldvideos/R_S_pexels-kampus-production-6022792.mp4	0.0	88.29763412475586	0.025002002716064453
6	14.18225908279419	response	0	4		4.0	2.5	/experiments/knapen_aot/oldvideos/R_S_pexels-kampus-production-6022792.mp4	0.0	88.3143961429596	
6	14.190499067306519	movie	1		164.0	4.0	2.5	/experiments/knapen_aot/oldvideos/R_S_pexels-kampus-production-6022792.mp4	0.0	88.32263612747192	2.508328914642334
6	16.698827981948853	fix_post	2		12.0	4.0	2.5	/experiments/knapen_aot/oldvideos/R_S_pexels-kampus-production-6022792.mp4	0.0	90.83096504211426	0.09988689422607422
6	16.79050588607788	response	2	4		4.0	2.5	/experiments/knapen_aot/oldvideos/R_S_pexels-kampus-production-6022792.mp4	0.0	90.92264294624329	
7	16.798714876174927	fix_pre	0		39.0	5.0	2.5	blank	1.0	90.93085193634033	0.3259119987487793
7	17.115487098693848	response	0	4		5.0	2.5	blank	1.0	91.24762415885925	
7	17.124626874923706	movie	1		301.0	5.0	2.5	blank	1.0	91.25676393508911	2.5078420639038086
7	19.632468938827515	fix_post	2		12.0	5.0	2.5	blank	1.0	93.76460599899292	0.09960293769836426
8	19.73207187652588	fix_pre	0		441.0	6.0	2.5	/experiments/knapen_aot/oldvideos/S_yt-zydTlQGCUjQ_277.mp4	0.0	93.86420893669128	3.6749320030212402
8	23.398792028427124	response	0	4		6.0	2.5	/experiments/knapen_aot/oldvideos/S_yt-zydTlQGCUjQ_277.mp4	0.0	97.53092908859253	
8	23.40700387954712	movie	1		301.0	6.0	2.5	/experiments/knapen_aot/oldvideos/S_yt-zydTlQGCUjQ_277.mp4	0.0	97.53914093971252	2.5084540843963623
8	25.91545796394348	fix_post	2		12.0	6.0	2.5	/experiments/knapen_aot/oldvideos/S_yt-zydTlQGCUjQ_277.mp4	0.0	100.04759502410889	0.09996700286865234
9	26.015424966812134	fix_pre	0		9.0	7.0	2.5	/experiments/knapen_aot/oldvideos/R_S_ILSVRC2015_train_00405001.mp4	0.0	100.14756202697754	0.07494497299194336
9	26.08224391937256	response	0	4		7.0	2.5	/experiments/knapen_aot/oldvideos/R_S_ILSVRC2015_train_00405001.mp4	0.0	100.21438097953796	
9	26.090369939804077	movie	1		301.0	7.0	2.5	/experiments/knapen_aot/oldvideos/R_S_ILSVRC2015_train_00405001.mp4	0.0	100.22250699996948	2.5083870887756348
9	28.598757028579712	fix_post	2		12.0	7.0	2.5	/experiments/knapen_aot/oldvideos/R_S_ILSVRC2015_train_00405001.mp4	0.0	102.73089408874512	0.10000395774841309
10	28.698760986328125	fix_pre	0		11.0	8.0	2.5	/experiments/knapen_aot/oldvideos/R_S_production_ID_4584682.mp4	0.0	102.83089804649353	0.0924079418182373
10	28.78212809562683	response	0	4		8.0	2.5	/experiments/knapen_aot/oldvideos/R_S_production_ID_4584682.mp4	0.0	102.91426515579224	
10	28.791168928146362	movie	1		166.0	8.0	2.5	/experiments/knapen_aot/oldvideos/R_S_production_ID_4584682.mp4	0.0	102.92330598831177	2.507594108581543
10	31.298763036727905	fix_post	2		12.0	8.0	2.5	/experiments/knapen_aot/oldvideos/R_S_production_ID_4584682.mp4	0.0	105.43090009689331	0.10002803802490234
10	31.373862981796265	response	2	4		8.0	2.5	/experiments/knapen_aot/oldvideos/R_S_production_ID_4584682.mp4	0.0	105.50600004196167	
11	31.398791074752808	fix_pre	0		52.0	9.0	2.5	/experiments/knapen_aot/oldvideos/R_S_yt-jy96-k8drRE_1.mp4	0.0	105.53092813491821	0.4339020252227783
11	31.823827981948853	response	0	4		9.0	2.5	/experiments/knapen_aot/oldvideos/R_S_yt-jy96-k8drRE_1.mp4	0.0	105.95596504211426	
11	31.832693099975586	movie	1		301.0	9.0	2.5	/experiments/knapen_aot/oldvideos/R_S_yt-jy96-k8drRE_1.mp4	0.0	105.96483016014099	2.507706880569458
11	34.340399980545044	fix_post	2		12.0	9.0	2.5	/experiments/knapen_aot/oldvideos/R_S_yt-jy96-k8drRE_1.mp4	0.0	108.47253704071045	0.0999898910522461
12	34.44038987159729	fix_pre	0		14.0	10.0	2.5	/experiments/knapen_aot/oldvideos/R_S_yt-RKo978aBdzw_173.mp4	0.0	108.5725269317627	0.11669611930847168
12	34.54889702796936	response	0	4		10.0	2.5	/experiments/knapen_aot/oldvideos/R_S_yt-RKo978aBdzw_173.mp4	0.0	108.68103408813477	
12	34.55708599090576	movie	1		301.0	10.0	2.5	/experiments/knapen_aot/oldvideos/R_S_yt-RKo978aBdzw_173.mp4	0.0	108.68922305107117	2.508270025253296
12	37.06535601615906	fix_post	2		12.0	10.0	2.5	/experiments/knapen_aot/oldvideos/R_S_yt-RKo978aBdzw_173.mp4	0.0	111.19749307632446	0.09997105598449707
13	37.165327072143555	fix_pre	0		206.0	11.0	2.5	/experiments/knapen_aot/oldvideos/R_S_yt-ibDaDIEazxg_3.mp4	0.0	111.29746413230896	1.7166788578033447
13	38.873836040496826	response	0	4		11.0	2.5	/experiments/knapen_aot/oldvideos/R_S_yt-ibDaDIEazxg_3.mp4	0.0	113.00597310066223	
13	38.8820059299469	movie	1		301.0	11.0	2.5	/experiments/knapen_aot/oldvideos/R_S_yt-ibDaDIEazxg_3.mp4	0.0	113.0141429901123	2.508415937423706
13	41.390421867370605	fix_post	2		12.0	11.0	2.5	/experiments/knapen_aot/oldvideos/R_S_yt-ibDaDIEazxg_3.mp4	0.0	115.52255892753601	0.09993505477905273
14	41.49035692214966	fix_pre	0		12.0	12.0	2.5	/experiments/knapen_aot/oldvideos/R_S_yt-vY49oIv_dWg_73.mp4	0.0	115.62249398231506	0.10008811950683594
14	41.582321882247925	response	0	4		12.0	2.5	/experiments/knapen_aot/oldvideos/R_S_yt-vY49oIv_dWg_73.mp4	0.0	115.71445894241333	
14	41.590445041656494	movie	1		301.0	12.0	2.5	/experiments/knapen_aot/oldvideos/R_S_yt-vY49oIv_dWg_73.mp4	0.0	115.7225821018219	2.5082969665527344
14	44.09874200820923	fix_post	2		12.0	12.0	2.5	/experiments/knapen_aot/oldvideos/R_S_yt-vY49oIv_dWg_73.mp4	0.0	118.23087906837463	0.09997701644897461
15	44.1987190246582	fix_pre	0		10.0	13.0	2.5	blank	1.0	118.33085608482361	0.08326506614685059
15	44.27380609512329	response	0	4		13.0	2.5	blank	1.0	118.4059431552887	
15	44.281984090805054	movie	1		301.0	13.0	2.5	blank	1.0	118.41412115097046	2.5083508491516113
15	46.790334939956665	fix_post	2		12.0	13.0	2.5	blank	1.0	120.92247200012207	0.10000801086425781
16	46.89034295082092	fix_pre	0		31.0	14.0	2.5	/experiments/knapen_aot/oldvideos/S_pexels-cottonbro-10640532.mp4	0.0	121.02248001098633	0.2582969665527344
16	47.14041805267334	response	0	4		14.0	2.5	/experiments/knapen_aot/oldvideos/S_pexels-cottonbro-10640532.mp4	0.0	121.27255511283875	
16	47.14863991737366	movie	1		188.0	14.0	2.5	/experiments/knapen_aot/oldvideos/S_pexels-cottonbro-10640532.mp4	0.0	121.28077697753906	2.5084211826324463
16	49.6570611000061	fix_post	2		12.0	14.0	2.5	/experiments/knapen_aot/oldvideos/S_pexels-cottonbro-10640532.mp4	0.0	123.78919816017151	0.09993386268615723
17	49.75699496269226	fix_pre	0		16.0	15.0	2.5	/experiments/knapen_aot/oldvideos/S_ILSVRC2015_train_00384000.mp4	0.0	123.88913202285767	0.13332390785217285
17	49.88213896751404	response	0	4		15.0	2.5	/experiments/knapen_aot/oldvideos/S_ILSVRC2015_train_00384000.mp4	0.0	124.01427602767944	
17	49.890318870544434	movie	1		301.0	15.0	2.5	/experiments/knapen_aot/oldvideos/S_ILSVRC2015_train_00384000.mp4	0.0	124.02245593070984	2.5082550048828125
17	52.398573875427246	fix_post	2		12.0	15.0	2.5	/experiments/knapen_aot/oldvideos/S_ILSVRC2015_train_00384000.mp4	0.0	126.53071093559265	0.10007500648498535
18	52.49864888191223	fix_pre	0		25.0	16.0	2.5	/experiments/knapen_aot/oldvideos/R_S_production_ID_4997166.mp4	0.0	126.63078594207764	0.20888400077819824
18	52.69880199432373	response	0	4		16.0	2.5	/experiments/knapen_aot/oldvideos/R_S_production_ID_4997166.mp4	0.0	126.83093905448914	
18	52.70753288269043	movie	1		165.0	16.0	2.5	/experiments/knapen_aot/oldvideos/R_S_production_ID_4997166.mp4	0.0	126.83966994285583	2.5077672004699707
18	55.2153000831604	fix_post	2		12.0	16.0	2.5	/experiments/knapen_aot/oldvideos/R_S_production_ID_4997166.mp4	0.0	129.3474371433258	0.09991192817687988
19	55.31521201133728	fix_pre	0		1.0	17.0	2.5	/experiments/knapen_aot/oldvideos/R_S_yt-c5_SFS4aaJI_1102.mp4	0.0	129.44734907150269	0.010289907455444336
19	55.31684708595276	response	0	4		17.0	2.5	/experiments/knapen_aot/oldvideos/R_S_yt-c5_SFS4aaJI_1102.mp4	0.0	129.44898414611816	
19	55.325501918792725	movie	1		301.0	17.0	2.5	/experiments/knapen_aot/oldvideos/R_S_yt-c5_SFS4aaJI_1102.mp4	0.0	129.45763897895813	2.5064761638641357
19	57.83197808265686	fix_post	2		12.0	17.0	2.5	/experiments/knapen_aot/oldvideos/R_S_yt-c5_SFS4aaJI_1102.mp4	0.0	131.96411514282227	0.10002493858337402
20	57.932003021240234	fix_pre	0		14.0	18.0	2.5	/experiments/knapen_aot/oldvideos/R_S_yt-Nnt51ug6NF8_53.mp4	0.0	132.06414008140564	0.11653995513916016
20	58.040443897247314	response	0	4		18.0	2.5	/experiments/knapen_aot/oldvideos/R_S_yt-Nnt51ug6NF8_53.mp4	0.0	132.17258095741272	
20	58.048542976379395	movie	1		301.0	18.0	2.5	/experiments/knapen_aot/oldvideos/R_S_yt-Nnt51ug6NF8_53.mp4	0.0	132.1806800365448	2.508349895477295
20	60.55689287185669	fix_post	2		12.0	18.0	2.5	/experiments/knapen_aot/oldvideos/R_S_yt-Nnt51ug6NF8_53.mp4	0.0	134.6890299320221	0.10010600090026855
21	60.65699887275696	fix_pre	0		17.0	19.0	2.5	blank	1.0	134.78913593292236	0.14153409004211426
21	60.790432929992676	response	0	2		19.0	2.5	blank	1.0	134.92256999015808	
21	60.79853296279907	movie	1		301.0	19.0	2.5	blank	1.0	134.93067002296448	2.508415937423706
21	63.30694890022278	fix_post	2		12.0	19.0	2.5	blank	1.0	137.43908596038818	0.09995603561401367
22	63.40690493583679	fix_pre	0		16.0	20.0	2.5	/experiments/knapen_aot/oldvideos/S_yt-ibDaDIEazxg_3.mp4	0.0	137.5390419960022	0.1337571144104004
22	63.53205490112305	response	0	4		20.0	2.5	/experiments/knapen_aot/oldvideos/S_yt-ibDaDIEazxg_3.mp4	0.0	137.66419196128845	
22	63.54066205024719	movie	1		301.0	20.0	2.5	/experiments/knapen_aot/oldvideos/S_yt-ibDaDIEazxg_3.mp4	0.0	137.6727991104126	2.508112907409668
22	66.04877495765686	fix_post	2		12.0	20.0	2.5	/experiments/knapen_aot/oldvideos/S_yt-ibDaDIEazxg_3.mp4	0.0	140.18091201782227	0.09981012344360352
23	66.14858508110046	fix_pre	0		27.0	21.0	2.5	/experiments/knapen_aot/oldvideos/R_S_yt-FbCVXEJicis_5.mp4	0.0	140.28072214126587	0.22545289993286133
23	66.3578200340271	response	0	4		21.0	2.5	/experiments/knapen_aot/oldvideos/R_S_yt-FbCVXEJicis_5.mp4	0.0	140.4899570941925	
23	66.37403798103333	movie	1		301.0	21.0	2.5	/experiments/knapen_aot/oldvideos/R_S_yt-FbCVXEJicis_5.mp4	0.0	140.50617504119873	2.508007049560547
23	68.88204503059387	fix_post	2		12.0	21.0	2.5	/experiments/knapen_aot/oldvideos/R_S_yt-FbCVXEJicis_5.mp4	0.0	143.01418209075928	0.09984993934631348
24	68.98189496994019	fix_pre	0		10.0	22.0	2.5	/experiments/knapen_aot/oldvideos/R_S_yt-BG-G7m5wLZ4_94.mp4	0.0	143.1140320301056	0.08334898948669434
24	69.05702209472656	response	0	2		22.0	2.5	/experiments/knapen_aot/oldvideos/R_S_yt-BG-G7m5wLZ4_94.mp4	0.0	143.18915915489197	
24	69.06524395942688	movie	1		301.0	22.0	2.5	/experiments/knapen_aot/oldvideos/R_S_yt-BG-G7m5wLZ4_94.mp4	0.0	143.19738101959229	2.5085480213165283
24	71.57379198074341	fix_post	2		12.0	22.0	2.5	/experiments/knapen_aot/oldvideos/R_S_yt-BG-G7m5wLZ4_94.mp4	0.0	145.7059290409088	0.09975910186767578
25	71.67355108261108	fix_pre	0		47.0	23.0	2.5	/experiments/knapen_aot/oldvideos/S_Pexels_Videos_2795737.mp4	0.0	145.8056881427765	0.3916769027709961
25	72.05699491500854	response	0	2		23.0	2.5	/experiments/knapen_aot/oldvideos/S_Pexels_Videos_2795737.mp4	0.0	146.18913197517395	
25	72.06522798538208	movie	1		162.0	23.0	2.5	/experiments/knapen_aot/oldvideos/S_Pexels_Videos_2795737.mp4	0.0	146.19736504554749	2.508394956588745
25	74.57362294197083	fix_post	2		12.0	23.0	2.5	/experiments/knapen_aot/oldvideos/S_Pexels_Videos_2795737.mp4	0.0	148.70576000213623	0.09996199607849121
26	74.67358493804932	fix_pre	0		4.0	24.0	2.5	/experiments/knapen_aot/oldvideos/R_S_meta-11482036_235.mp4	0.0	148.80572199821472	0.033883094787597656
26	74.69865894317627	response	0	4		24.0	2.5	/experiments/knapen_aot/oldvideos/R_S_meta-11482036_235.mp4	0.0	148.83079600334167	
26	74.70746803283691	movie	1		301.0	24.0	2.5	/experiments/knapen_aot/oldvideos/R_S_meta-11482036_235.mp4	0.0	148.83960509300232	2.507786989212036
26	77.21525502204895	fix_post	2		12.0	24.0	2.5	/experiments/knapen_aot/oldvideos/R_S_meta-11482036_235.mp4	0.0	151.34739208221436	0.10004496574401855
27	77.31529998779297	fix_pre	0		2.0	25.0	2.5	/experiments/knapen_aot/oldvideos/S_yt-fqbi4rGc9dk_65.mp4	0.0	151.44743704795837	0.01717400550842285
27	77.32598805427551	response	0	4		25.0	2.5	/experiments/knapen_aot/oldvideos/S_yt-fqbi4rGc9dk_65.mp4	0.0	151.45812511444092	
27	77.33247399330139	movie	1		300.0	25.0	2.5	/experiments/knapen_aot/oldvideos/S_yt-fqbi4rGc9dk_65.mp4	0.0	151.4646110534668	2.507714033126831
27	79.84018802642822	fix_post	2		12.0	25.0	2.5	/experiments/knapen_aot/oldvideos/S_yt-fqbi4rGc9dk_65.mp4	0.0	153.97232508659363	0.09996199607849121
28	79.94015002250671	fix_pre	0		29.0	26.0	2.5	/experiments/knapen_aot/oldvideos/S_yt-GBt59U0KUR0_6.mp4	0.0	154.07228708267212	0.2416670322418213
28	80.17377090454102	response	0	4		26.0	2.5	/experiments/knapen_aot/oldvideos/S_yt-GBt59U0KUR0_6.mp4	0.0	154.30590796470642	
28	80.18181705474854	movie	1		301.0	26.0	2.5	/experiments/knapen_aot/oldvideos/S_yt-GBt59U0KUR0_6.mp4	0.0	154.31395411491394	2.5083470344543457
28	82.69016408920288	fix_post	2		12.0	26.0	2.5	/experiments/knapen_aot/oldvideos/S_yt-GBt59U0KUR0_6.mp4	0.0	156.8223011493683	0.10001277923583984
29	82.79017686843872	fix_pre	0		24.0	27.0	2.5	blank	1.0	156.92231392860413	0.19998621940612793
29	82.98183798789978	response	0	4		27.0	2.5	blank	1.0	157.11397504806519	
29	82.99016308784485	movie	1		301.0	27.0	2.5	blank	1.0	157.12230014801025	2.508347988128662
29	85.13184309005737	response	1	4		27.0	2.5	blank	1.0	159.26398015022278	
29	85.4153060913086	response	1	4		27.0	2.5	blank	1.0	159.547443151474	
29	85.49851107597351	fix_post	2		12.0	27.0	2.5	blank	1.0	159.63064813613892	0.09999895095825195
30	85.59851002693176	fix_pre	0		17.0	28.0	2.5	/experiments/knapen_aot/oldvideos/R_S_yt-Q9fI2ar05IE_77.mp4	0.0	159.73064708709717	0.14163684844970703
30	85.73184609413147	response	0	4		28.0	2.5	/experiments/knapen_aot/oldvideos/R_S_yt-Q9fI2ar05IE_77.mp4	0.0	159.86398315429688	
30	85.74014687538147	movie	1		301.0	28.0	2.5	/experiments/knapen_aot/oldvideos/R_S_yt-Q9fI2ar05IE_77.mp4	0.0	159.87228393554688	2.5083940029144287
30	88.2485408782959	fix_post	2		12.0	28.0	2.5	/experiments/knapen_aot/oldvideos/R_S_yt-Q9fI2ar05IE_77.mp4	0.0	162.3806779384613	0.1001741886138916
31	88.34871506690979	fix_pre	0		5.0	29.0	2.5	/experiments/knapen_aot/oldvideos/R_S_yt-HwEfWfFJhRo_73.mp4	0.0	162.4808521270752	0.0414118766784668
31	88.38204789161682	response	0	4		29.0	2.5	/experiments/knapen_aot/oldvideos/R_S_yt-HwEfWfFJhRo_73.mp4	0.0	162.51418495178223	
31	88.39012694358826	movie	1		301.0	29.0	2.5	/experiments/knapen_aot/oldvideos/R_S_yt-HwEfWfFJhRo_73.mp4	0.0	162.52226400375366	2.508347988128662
31	90.89847493171692	fix_post	2		12.0	29.0	2.5	/experiments/knapen_aot/oldvideos/R_S_yt-HwEfWfFJhRo_73.mp4	0.0	165.03061199188232	0.10001111030578613
32	90.9984860420227	fix_pre	0		9.0	30.0	2.5	/experiments/knapen_aot/oldvideos/R_S_yt-11S5tcT2Tm0_254.mp4	0.0	165.1306231021881	0.07496190071105957
32	91.06550598144531	response	0	4		30.0	2.5	/experiments/knapen_aot/oldvideos/R_S_yt-11S5tcT2Tm0_254.mp4	0.0	165.19764304161072	
32	91.07344794273376	movie	1		301.0	30.0	2.5	/experiments/knapen_aot/oldvideos/R_S_yt-11S5tcT2Tm0_254.mp4	0.0	165.20558500289917	2.5083470344543457
32	93.58179497718811	fix_post	2		12.0	30.0	2.5	/experiments/knapen_aot/oldvideos/R_S_yt-11S5tcT2Tm0_254.mp4	0.0	167.71393203735352	0.10001707077026367
33	93.68181204795837	fix_pre	0		11.0	31.0	2.5	/experiments/knapen_aot/oldvideos/R_S_pexels-cottonbro-6789228.mp4	0.0	167.81394910812378	0.09153294563293457
33	93.76525092124939	response	0	4		31.0	2.5	/experiments/knapen_aot/oldvideos/R_S_pexels-cottonbro-6789228.mp4	0.0	167.8973879814148	
33	93.77334499359131	movie	1		203.0	31.0	2.5	/experiments/knapen_aot/oldvideos/R_S_pexels-cottonbro-6789228.mp4	0.0	167.9054820537567	2.5084939002990723
33	96.28183889389038	fix_post	2		12.0	31.0	2.5	/experiments/knapen_aot/oldvideos/R_S_pexels-cottonbro-6789228.mp4	0.0	170.4139759540558	0.10029315948486328
34	96.38213205337524	fix_pre	0		24.0	32.0	2.5	/experiments/knapen_aot/oldvideos/S_yt-CR86bVrRwfo_13.mp4	0.0	170.51426911354065	0.1998758316040039
34	96.57359004020691	response	0	4		32.0	2.5	/experiments/knapen_aot/oldvideos/S_yt-CR86bVrRwfo_13.mp4	0.0	170.70572710037231	
34	96.58200788497925	movie	1		301.0	32.0	2.5	/experiments/knapen_aot/oldvideos/S_yt-CR86bVrRwfo_13.mp4	0.0	170.71414494514465	2.5081470012664795
34	99.09015488624573	fix_post	2		12.0	32.0	2.5	/experiments/knapen_aot/oldvideos/S_yt-CR86bVrRwfo_13.mp4	0.0	173.22229194641113	0.09988212585449219
35	99.19003701210022	fix_pre	0		11.0	33.0	2.5	blank	1.0	173.32217407226562	0.09168505668640137
35	99.27345108985901	response	0	4		33.0	2.5	blank	1.0	173.4055881500244	
35	99.28172206878662	movie	1		301.0	33.0	2.5	blank	1.0	173.41385912895203	2.508389949798584
35	101.7901120185852	fix_post	2		12.0	33.0	2.5	blank	1.0	175.9222490787506	0.09998202323913574
36	101.89009404182434	fix_pre	0		28.0	34.0	2.5	/experiments/knapen_aot/oldvideos/R_S_ILSVRC2015_train_00354001.mp4	0.0	176.02223110198975	0.23352694511413574
36	102.11516189575195	response	0	4		34.0	2.5	/experiments/knapen_aot/oldvideos/R_S_ILSVRC2015_train_00354001.mp4	0.0	176.24729895591736	
36	102.12362098693848	movie	1		301.0	34.0	2.5	/experiments/knapen_aot/oldvideos/R_S_ILSVRC2015_train_00354001.mp4	0.0	176.25575804710388	2.508141040802002
36	104.63176202774048	fix_post	2		11.0	34.0	2.5	/experiments/knapen_aot/oldvideos/R_S_ILSVRC2015_train_00354001.mp4	0.0	178.76389908790588	0.09160399436950684
36	104.71522498130798	response	2	4		34.0	2.5	/experiments/knapen_aot/oldvideos/R_S_ILSVRC2015_train_00354001.mp4	0.0	178.8473620414734	
37	104.72336602210999	fix_pre	0		31.0	35.0	2.5	/experiments/knapen_aot/oldvideos/S_yt-sxZ_ONShI7U_75.mp4	0.0	178.8555030822754	0.2583160400390625
37	104.9734320640564	response	0	4		35.0	2.5	/experiments/knapen_aot/oldvideos/S_yt-sxZ_ONShI7U_75.mp4	0.0	179.1055691242218	
37	104.98168206214905	movie	1		301.0	35.0	2.5	/experiments/knapen_aot/oldvideos/S_yt-sxZ_ONShI7U_75.mp4	0.0	179.11381912231445	2.50838303565979
37	107.49006509780884	fix_post	2		12.0	35.0	2.5	/experiments/knapen_aot/oldvideos/S_yt-sxZ_ONShI7U_75.mp4	0.0	181.62220215797424	0.10007691383361816
38	107.59014201164246	fix_pre	0		8.0	36.0	2.5	/experiments/knapen_aot/oldvideos/S_comp_L004_C011_PS_v01_SDR_PS_20180925_SDR_2K_AVC.mp4	0.0	181.72227907180786	0.06657004356384277
38	107.64846992492676	response	0	4		36.0	2.5	/experiments/knapen_aot/oldvideos/S_comp_L004_C011_PS_v01_SDR_PS_20180925_SDR_2K_AVC.mp4	0.0	181.78060698509216	
38	107.6567120552063	movie	1		169.0	36.0	2.5	/experiments/knapen_aot/oldvideos/S_comp_L004_C011_PS_v01_SDR_PS_20180925_SDR_2K_AVC.mp4	0.0	181.7888491153717	2.508875846862793
38	110.16558790206909	fix_post	2		12.0	36.0	2.5	/experiments/knapen_aot/oldvideos/S_comp_L004_C011_PS_v01_SDR_PS_20180925_SDR_2K_AVC.mp4	0.0	184.2977249622345	0.09949302673339844
39	110.26508092880249	fix_pre	0		4.0	37.0	2.5	/experiments/knapen_aot/oldvideos/R_S_yt-c5_SFS4aaJI_1102.mp4	0.0	184.3972179889679	0.03332114219665527
39	110.29090094566345	response	0	4		37.0	2.5	/experiments/knapen_aot/oldvideos/R_S_yt-c5_SFS4aaJI_1102.mp4	0.0	184.42303800582886	
39	110.29840207099915	movie	1		301.0	37.0	2.5	/experiments/knapen_aot/oldvideos/R_S_yt-c5_SFS4aaJI_1102.mp4	0.0	184.43053913116455	2.508448839187622
39	112.80685091018677	fix_post	2		12.0	37.0	2.5	/experiments/knapen_aot/oldvideos/R_S_yt-c5_SFS4aaJI_1102.mp4	0.0	186.93898797035217	0.09987711906433105
40	112.9067280292511	fix_pre	0		20.0	38.0	2.5	/experiments/knapen_aot/oldvideos/R_S_yt-n6aLw10f2Yw_317.mp4	0.0	187.0388650894165	0.1666429042816162
40	113.06516194343567	response	0	4		38.0	2.5	/experiments/knapen_aot/oldvideos/R_S_yt-n6aLw10f2Yw_317.mp4	0.0	187.19729900360107	
40	113.07337093353271	movie	1		301.0	38.0	2.5	/experiments/knapen_aot/oldvideos/R_S_yt-n6aLw10f2Yw_317.mp4	0.0	187.20550799369812	2.5083091259002686
40	115.58168005943298	fix_post	2		12.0	38.0	2.5	/experiments/knapen_aot/oldvideos/R_S_yt-n6aLw10f2Yw_317.mp4	0.0	189.7138171195984	0.09995484352111816
41	115.6816349029541	fix_pre	0		24.0	39.0	2.5	/experiments/knapen_aot/oldvideos/S_pexels-c-technical-5771610.mp4	0.0	189.8137719631195	0.19997215270996094
41	115.87343907356262	response	0	4		39.0	2.5	/experiments/knapen_aot/oldvideos/S_pexels-c-technical-5771610.mp4	0.0	190.00557613372803	
41	115.88160705566406	movie	1		207.0	39.0	2.5	/experiments/knapen_aot/oldvideos/S_pexels-c-technical-5771610.mp4	0.0	190.01374411582947	2.508478879928589
41	118.39008593559265	fix_post	2		12.0	39.0	2.5	/experiments/knapen_aot/oldvideos/S_pexels-c-technical-5771610.mp4	0.0	192.52222299575806	0.10155010223388672
41	118.48180389404297	response	2	4		39.0	2.5	/experiments/knapen_aot/oldvideos/S_pexels-c-technical-5771610.mp4	0.0	192.61394095420837	
42	118.49163603782654	fix_pre	0		48.0	40.0	2.5	/experiments/knapen_aot/oldvideos/R_S_video-8.mp4	0.0	192.62377309799194	0.3982679843902588
42	118.88180208206177	response	0	4		40.0	2.5	/experiments/knapen_aot/oldvideos/R_S_video-8.mp4	0.0	193.01393914222717	
42	118.8899040222168	movie	1		204.0	40.0	2.5	/experiments/knapen_aot/oldvideos/R_S_video-8.mp4	0.0	193.0220410823822	2.5084218978881836
42	121.39832592010498	fix_post	2		12.0	40.0	2.5	/experiments/knapen_aot/oldvideos/R_S_video-8.mp4	0.0	195.53046298027039	0.10014200210571289
43	121.4984679222107	fix_pre	0		1.0	41.0	2.5	blank	1.0	195.6306049823761	0.00817418098449707
43	121.50009489059448	response	0	4		41.0	2.5	blank	1.0	195.6322319507599	
43	121.50664210319519	movie	1		301.0	41.0	2.5	blank	1.0	195.6387791633606	2.5084068775177
43	124.01504898071289	fix_post	2		12.0	41.0	2.5	blank	1.0	198.1471860408783	0.09995794296264648
43	124.05763602256775	response	2	4		41.0	2.5	blank	1.0	198.18977308273315	
44	124.11500692367554	fix_pre	0		29.0	42.0	2.5	/experiments/knapen_aot/oldvideos/R_S_pexels-cottonbro-10640532.mp4	0.0	198.24714398384094	0.24153494834899902
44	124.3484320640564	response	0	4		42.0	2.5	/experiments/knapen_aot/oldvideos/R_S_pexels-cottonbro-10640532.mp4	0.0	198.4805691242218	
44	124.35654187202454	movie	1		199.0	42.0	2.5	/experiments/knapen_aot/oldvideos/R_S_pexels-cottonbro-10640532.mp4	0.0	198.48867893218994	2.5084609985351562
44	126.86500287055969	fix_post	2		12.0	42.0	2.5	/experiments/knapen_aot/oldvideos/R_S_pexels-cottonbro-10640532.mp4	0.0	200.9971399307251	0.1000070571899414
45	126.96500992774963	fix_pre	0		17.0	43.0	2.5	/experiments/knapen_aot/oldvideos/R_S_yt-v9WGfC67DPk_50.mp4	0.0	201.09714698791504	0.14160394668579102
45	127.09839987754822	response	0	4		43.0	2.5	/experiments/knapen_aot/oldvideos/R_S_yt-v9WGfC67DPk_50.mp4	0.0	201.23053693771362	
45	127.10661387443542	movie	1		301.0	43.0	2.5	/experiments/knapen_aot/oldvideos/R_S_yt-v9WGfC67DPk_50.mp4	0.0	201.23875093460083	2.508357048034668
45	129.6149709224701	fix_post	2		12.0	43.0	2.5	/experiments/knapen_aot/oldvideos/R_S_yt-v9WGfC67DPk_50.mp4	0.0	203.7471079826355	0.09993815422058105
46	129.71490907669067	fix_pre	0		5.0	44.0	2.5	/experiments/knapen_aot/oldvideos/R_S_comp_DB_D011_C010_PSNK_DENOISE_v19_SDR_PS_20180914_SDR_2K_AVC.mp4	0.0	203.84704613685608	0.041693925857543945
46	129.74861693382263	response	0	4		44.0	2.5	/experiments/knapen_aot/oldvideos/R_S_comp_DB_D011_C010_PSNK_DENOISE_v19_SDR_PS_20180914_SDR_2K_AVC.mp4	0.0	203.88075399398804	
46	129.75660300254822	movie	1		168.0	44.0	2.5	/experiments/knapen_aot/oldvideos/R_S_comp_DB_D011_C010_PSNK_DENOISE_v19_SDR_PS_20180914_SDR_2K_AVC.mp4	0.0	203.88874006271362	2.508392095565796
46	132.264995098114	fix_post	2		12.0	44.0	2.5	/experiments/knapen_aot/oldvideos/R_S_comp_DB_D011_C010_PSNK_DENOISE_v19_SDR_PS_20180914_SDR_2K_AVC.mp4	0.0	206.39713215827942	0.09997391700744629
46	132.28175401687622	response	2	4		44.0	2.5	/experiments/knapen_aot/oldvideos/R_S_comp_DB_D011_C010_PSNK_DENOISE_v19_SDR_PS_20180914_SDR_2K_AVC.mp4	0.0	206.41389107704163	
47	132.36496901512146	fix_pre	0		32.0	45.0	2.5	/experiments/knapen_aot/oldvideos/S_ILSVRC2015_train_00479003.mp4	0.0	206.49710607528687	0.2666459083557129
47	132.62338495254517	response	0	4		45.0	2.5	/experiments/knapen_aot/oldvideos/S_ILSVRC2015_train_00479003.mp4	0.0	206.75552201271057	
47	132.63161492347717	movie	1		301.0	45.0	2.5	/experiments/knapen_aot/oldvideos/S_ILSVRC2015_train_00479003.mp4	0.0	206.76375198364258	2.508355140686035
47	135.1399700641632	fix_post	2		12.0	45.0	2.5	/experiments/knapen_aot/oldvideos/S_ILSVRC2015_train_00479003.mp4	0.0	209.2721071243286	0.09999680519104004
47	135.19842100143433	response	2	4		45.0	2.5	/experiments/knapen_aot/oldvideos/S_ILSVRC2015_train_00479003.mp4	0.0	209.33055806159973	
48	135.23996686935425	fix_pre	0		56.0	46.0	2.5	/experiments/knapen_aot/oldvideos/R_S_yt-H45g6700wbc_159.mp4	0.0	209.37210392951965	0.46672511100769043
48	135.6984510421753	response	0	4		46.0	2.5	/experiments/knapen_aot/oldvideos/R_S_yt-H45g6700wbc_159.mp4	0.0	209.8305881023407	
48	135.70669198036194	movie	1		301.0	46.0	2.5	/experiments/knapen_aot/oldvideos/R_S_yt-H45g6700wbc_159.mp4	0.0	209.83882904052734	2.508281946182251
48	138.2149739265442	fix_post	2		12.0	46.0	2.5	/experiments/knapen_aot/oldvideos/R_S_yt-H45g6700wbc_159.mp4	0.0	212.3471109867096	0.10002017021179199
49	138.31499409675598	fix_pre	0		26.0	47.0	2.5	blank	1.0	212.4471311569214	0.21653485298156738
49	138.52346301078796	response	0	4		47.0	2.5	blank	1.0	212.65560007095337	
49	138.53152894973755	movie	1		301.0	47.0	2.5	blank	1.0	212.66366600990295	2.5085079669952393
49	141.0400369167328	fix_post	2		12.0	47.0	2.5	blank	1.0	215.1721739768982	0.09993100166320801
50	141.139967918396	fix_pre	0		13.0	48.0	2.5	/experiments/knapen_aot/oldvideos/S_g201_AK_A003_C014_SDR_20191113_SDR_2K_AVC.mp4	0.0	215.2721049785614	0.10828804969787598
50	141.2400200366974	response	0	4		48.0	2.5	/experiments/knapen_aot/oldvideos/S_g201_AK_A003_C014_SDR_20191113_SDR_2K_AVC.mp4	0.0	215.3721570968628	
50	141.24825596809387	movie	1		165.0	48.0	2.5	/experiments/knapen_aot/oldvideos/S_g201_AK_A003_C014_SDR_20191113_SDR_2K_AVC.mp4	0.0	215.38039302825928	2.508373975753784
50	143.75662994384766	fix_post	2		12.0	48.0	2.5	/experiments/knapen_aot/oldvideos/S_g201_AK_A003_C014_SDR_20191113_SDR_2K_AVC.mp4	0.0	217.88876700401306	0.1000981330871582
50	143.79841494560242	response	2	4		48.0	2.5	/experiments/knapen_aot/oldvideos/S_g201_AK_A003_C014_SDR_20191113_SDR_2K_AVC.mp4	0.0	217.93055200576782	
51	143.85672807693481	fix_pre	0		32.0	49.0	2.5	/experiments/knapen_aot/oldvideos/R_S_yt-CH4HfNRC1hY_40.mp4	0.0	217.98886513710022	0.266510009765625
51	144.1149139404297	response	0	4		49.0	2.5	/experiments/knapen_aot/oldvideos/R_S_yt-CH4HfNRC1hY_40.mp4	0.0	218.2470510005951	
51	144.12323808670044	movie	1		301.0	49.0	2.5	/experiments/knapen_aot/oldvideos/R_S_yt-CH4HfNRC1hY_40.mp4	0.0	218.25537514686584	2.50839900970459
51	146.63163709640503	fix_post	2		12.0	49.0	2.5	/experiments/knapen_aot/oldvideos/R_S_yt-CH4HfNRC1hY_40.mp4	0.0	220.76377415657043	0.09991598129272461
52	146.73155307769775	fix_pre	0		4.0	50.0	2.5	/experiments/knapen_aot/oldvideos/R_S_pexels-cottonbro-10640532.mp4	0.0	220.86369013786316	0.0333399772644043
52	146.75662088394165	response	0	4		50.0	2.5	/experiments/knapen_aot/oldvideos/R_S_pexels-cottonbro-10640532.mp4	0.0	220.88875794410706	
52	146.76489305496216	movie	1		203.0	50.0	2.5	/experiments/knapen_aot/oldvideos/R_S_pexels-cottonbro-10640532.mp4	0.0	220.89703011512756	2.5083730220794678
52	149.27326607704163	fix_post	2		12.0	50.0	2.5	/experiments/knapen_aot/oldvideos/R_S_pexels-cottonbro-10640532.mp4	0.0	223.40540313720703	0.1000068187713623
53	149.373272895813	fix_pre	0		4.0	51.0	2.5	/experiments/knapen_aot/oldvideos/S_yt-r2jZ0zZrqzQ_45.mp4	0.0	223.5054099559784	0.033280134201049805
53	149.39827489852905	response	0	4		51.0	2.5	/experiments/knapen_aot/oldvideos/S_yt-r2jZ0zZrqzQ_45.mp4	0.0	223.53041195869446	
53	149.40655303001404	movie	1		301.0	51.0	2.5	/experiments/knapen_aot/oldvideos/S_yt-r2jZ0zZrqzQ_45.mp4	0.0	223.53869009017944	2.508378028869629
53	151.91493105888367	fix_post	2		12.0	51.0	2.5	/experiments/knapen_aot/oldvideos/S_yt-r2jZ0zZrqzQ_45.mp4	0.0	226.04706811904907	0.09990692138671875
54	152.01483798027039	fix_pre	0		8.0	52.0	2.5	/experiments/knapen_aot/oldvideos/R_S_pexels-cottonbro-6789228.mp4	0.0	226.1469750404358	0.06664705276489258
54	152.07333207130432	response	0	4		52.0	2.5	/experiments/knapen_aot/oldvideos/R_S_pexels-cottonbro-6789228.mp4	0.0	226.20546913146973	
54	152.08148503303528	movie	1		207.0	52.0	2.5	/experiments/knapen_aot/oldvideos/R_S_pexels-cottonbro-6789228.mp4	0.0	226.21362209320068	2.508380889892578
54	154.58986592292786	fix_post	2		11.0	52.0	2.5	/experiments/knapen_aot/oldvideos/R_S_pexels-cottonbro-6789228.mp4	0.0	228.72200298309326	0.09158897399902344
54	154.67329692840576	response	2	4		52.0	2.5	/experiments/knapen_aot/oldvideos/R_S_pexels-cottonbro-6789228.mp4	0.0	228.80543398857117	
55	154.68145489692688	fix_pre	0		49.0	53.0	2.5	/experiments/knapen_aot/oldvideos/S_gHYomsO1dSU_5.mp4	0.0	228.81359195709229	0.4083750247955322
55	155.08155393600464	response	0	4		53.0	2.5	/experiments/knapen_aot/oldvideos/S_gHYomsO1dSU_5.mp4	0.0	229.21369099617004	
55	155.0898299217224	movie	1		301.0	53.0	2.5	/experiments/knapen_aot/oldvideos/S_gHYomsO1dSU_5.mp4	0.0	229.22196698188782	2.508327007293701
55	157.5981569290161	fix_post	2		12.0	53.0	2.5	/experiments/knapen_aot/oldvideos/S_gHYomsO1dSU_5.mp4	0.0	231.73029398918152	0.10004210472106934
56	157.69819903373718	fix_pre	0		5.0	54.0	2.5	/experiments/knapen_aot/oldvideos/R_S_yt-cokedWwwYYs_136.mp4	0.0	231.8303360939026	0.041522979736328125
56	157.7316439151764	response	0	4		54.0	2.5	/experiments/knapen_aot/oldvideos/R_S_yt-cokedWwwYYs_136.mp4	0.0	231.8637809753418	
56	157.7397220134735	movie	1		301.0	54.0	2.5	/experiments/knapen_aot/oldvideos/R_S_yt-cokedWwwYYs_136.mp4	0.0	231.87185907363892	2.508455991744995
56	160.2481780052185	fix_post	2		12.0	54.0	2.5	/experiments/knapen_aot/oldvideos/R_S_yt-cokedWwwYYs_136.mp4	0.0	234.3803150653839	0.09998297691345215
57	160.34816098213196	fix_pre	0		14.0	55.0	2.5	blank	1.0	234.48029804229736	0.11660599708557129
57	160.45661091804504	response	0	4		55.0	2.5	blank	1.0	234.58874797821045	
57	160.46476697921753	movie	1		301.0	55.0	2.5	blank	1.0	234.59690403938293	2.5084140300750732
57	162.9731810092926	fix_post	2		12.0	55.0	2.5	blank	1.0	237.105318069458	0.09998488426208496
58	163.0731658935547	fix_pre	0		28.0	56.0	2.5	/experiments/knapen_aot/oldvideos/S_yt-rlEPywo5BEQ_36.mp4	0.0	237.2053029537201	0.23326897621154785
58	163.29823899269104	response	0	4		56.0	2.5	/experiments/knapen_aot/oldvideos/S_yt-rlEPywo5BEQ_36.mp4	0.0	237.43037605285645	
58	163.30643486976624	movie	1		301.0	56.0	2.5	/experiments/knapen_aot/oldvideos/S_yt-rlEPywo5BEQ_36.mp4	0.0	237.43857192993164	2.508362054824829
58	165.81479692459106	fix_post	2		12.0	56.0	2.5	/experiments/knapen_aot/oldvideos/S_yt-rlEPywo5BEQ_36.mp4	0.0	239.94693398475647	0.10001206398010254
59	165.91480898857117	fix_pre	0		8.0	57.0	2.5	/experiments/knapen_aot/oldvideos/R_S_yt-t-wpKypNysg_27.mp4	0.0	240.04694604873657	0.06663799285888672
59	165.973219871521	response	0	4		57.0	2.5	/experiments/knapen_aot/oldvideos/R_S_yt-t-wpKypNysg_27.mp4	0.0	240.1053569316864	
59	165.98144698143005	movie	1		301.0	57.0	2.5	/experiments/knapen_aot/oldvideos/R_S_yt-t-wpKypNysg_27.mp4	0.0	240.11358404159546	2.508394956588745
59	168.4898419380188	fix_post	2		12.0	57.0	2.5	/experiments/knapen_aot/oldvideos/R_S_yt-t-wpKypNysg_27.mp4	0.0	242.6219789981842	0.09995508193969727
60	168.5897970199585	fix_pre	0		1.0	58.0	2.5	/experiments/knapen_aot/oldvideos/S_yt-SgiTZNjCPCo_19.mp4	0.0	242.7219340801239	0.008321046829223633
60	168.5913860797882	response	0	4		58.0	2.5	/experiments/knapen_aot/oldvideos/S_yt-SgiTZNjCPCo_19.mp4	0.0	242.7235231399536	
60	168.59811806678772	movie	1		301.0	58.0	2.5	/experiments/knapen_aot/oldvideos/S_yt-SgiTZNjCPCo_19.mp4	0.0	242.73025512695312	2.508314847946167
60	171.1064329147339	fix_post	2		12.0	58.0	2.5	/experiments/knapen_aot/oldvideos/S_yt-SgiTZNjCPCo_19.mp4	0.0	245.2385699748993	0.10009503364562988
61	171.20652794837952	fix_pre	0		11.0	59.0	2.5	/experiments/knapen_aot/oldvideos/S_ILSVRC2015_train_00369002.mp4	0.0	245.33866500854492	0.09154200553894043
61	171.28244495391846	response	0	4		59.0	2.5	/experiments/knapen_aot/oldvideos/S_ILSVRC2015_train_00369002.mp4	0.0	245.41458201408386	
61	171.29806995391846	movie	1		301.0	59.0	2.5	/experiments/knapen_aot/oldvideos/S_ILSVRC2015_train_00369002.mp4	0.0	245.43020701408386	2.508432149887085
61	173.80650210380554	fix_post	2		12.0	59.0	2.5	/experiments/knapen_aot/oldvideos/S_ILSVRC2015_train_00369002.mp4	0.0	247.93863916397095	0.09994983673095703
62	173.9064519405365	fix_pre	0		11.0	60.0	2.5	/experiments/knapen_aot/oldvideos/R_S_P001_C005_UHD_SDR_2K_AVC.mp4	0.0	248.0385890007019	0.09163808822631836
62	173.98987698554993	response	0	4		60.0	2.5	/experiments/knapen_aot/oldvideos/R_S_P001_C005_UHD_SDR_2K_AVC.mp4	0.0	248.12201404571533	
62	173.99809002876282	movie	1		171.0	60.0	2.5	/experiments/knapen_aot/oldvideos/R_S_P001_C005_UHD_SDR_2K_AVC.mp4	0.0	248.13022708892822	2.508417844772339
62	176.50650787353516	fix_post	2		12.0	60.0	2.5	/experiments/knapen_aot/oldvideos/R_S_P001_C005_UHD_SDR_2K_AVC.mp4	0.0	250.63864493370056	0.10004210472106934
63	176.60654997825623	fix_pre	0		4.0	61.0	2.5	blank	1.0	250.73868703842163	0.033271074295043945
63	176.63163495063782	response	0	4		61.0	2.5	blank	1.0	250.76377201080322	
63	176.63982105255127	movie	1		301.0	61.0	2.5	blank	1.0	250.77195811271667	2.5083038806915283
63	179.1481249332428	fix_post	2		12.0	61.0	2.5	blank	1.0	253.2802619934082	0.10001897811889648
64	179.2481439113617	fix_pre	0		32.0	62.0	2.5	/experiments/knapen_aot/oldvideos/R_S_yt-pOCEuqVE7ro_61.mp4	0.0	253.3802809715271	0.2666020393371582
64	179.50657892227173	response	0	4		62.0	2.5	/experiments/knapen_aot/oldvideos/R_S_yt-pOCEuqVE7ro_61.mp4	0.0	253.63871598243713	
64	179.51474595069885	movie	1		301.0	62.0	2.5	/experiments/knapen_aot/oldvideos/R_S_yt-pOCEuqVE7ro_61.mp4	0.0	253.64688301086426	2.5083250999450684
64	182.02307105064392	fix_post	2		12.0	62.0	2.5	/experiments/knapen_aot/oldvideos/R_S_yt-pOCEuqVE7ro_61.mp4	0.0	256.1552081108093	0.10001492500305176
65	182.12308597564697	fix_pre	0		3.0	63.0	2.5	/experiments/knapen_aot/oldvideos/S_production_ID_4325506.mp4	0.0	256.2552230358124	0.024957895278930664
65	182.13997888565063	response	0	4		63.0	2.5	/experiments/knapen_aot/oldvideos/S_production_ID_4325506.mp4	0.0	256.27211594581604	
65	182.1480438709259	movie	1		204.0	63.0	2.5	/experiments/knapen_aot/oldvideos/S_production_ID_4325506.mp4	0.0	256.2801809310913	2.5083560943603516
65	184.65639996528625	fix_post	2		12.0	63.0	2.5	/experiments/knapen_aot/oldvideos/S_production_ID_4325506.mp4	0.0	258.78853702545166	0.10001301765441895
66	184.75641298294067	fix_pre	0		25.0	64.0	2.5	/experiments/knapen_aot/oldvideos/R_S_flickr-53807584@N00-5566422012_16.mp4	0.0	258.8885500431061	0.20835304260253906
66	184.95653891563416	response	0	4		64.0	2.5	/experiments/knapen_aot/oldvideos/R_S_flickr-53807584@N00-5566422012_16.mp4	0.0	259.08867597579956	
66	184.9647660255432	movie	1		301.0	64.0	2.5	/experiments/knapen_aot/oldvideos/R_S_flickr-53807584@N00-5566422012_16.mp4	0.0	259.0969030857086	2.5086588859558105
66	187.47342491149902	fix_post	2		12.0	64.0	2.5	/experiments/knapen_aot/oldvideos/R_S_flickr-53807584@N00-5566422012_16.mp4	0.0	261.60556197166443	0.09969305992126465
67	187.5731179714203	fix_pre	0		21.0	65.0	2.5	/experiments/knapen_aot/oldvideos/S_ILSVRC2015_train_00697001.mp4	0.0	261.7052550315857	0.17488908767700195
67	187.7397620677948	response	0	4		65.0	2.5	/experiments/knapen_aot/oldvideos/S_ILSVRC2015_train_00697001.mp4	0.0	261.8718991279602	
67	187.7480070590973	movie	1		301.0	65.0	2.5	/experiments/knapen_aot/oldvideos/S_ILSVRC2015_train_00697001.mp4	0.0	261.8801441192627	2.5083959102630615
67	190.25640296936035	fix_post	2		12.0	65.0	2.5	/experiments/knapen_aot/oldvideos/S_ILSVRC2015_train_00697001.mp4	0.0	264.38854002952576	0.0999460220336914
68	190.35634899139404	fix_pre	0		21.0	66.0	2.5	/experiments/knapen_aot/oldvideos/R_S_yt-VfASxEzDrvc_145.mp4	0.0	264.48848605155945	0.17502593994140625
68	190.52309489250183	response	0	4		66.0	2.5	/experiments/knapen_aot/oldvideos/R_S_yt-VfASxEzDrvc_145.mp4	0.0	264.65523195266724	
68	190.53137493133545	movie	1		301.0	66.0	2.5	/experiments/knapen_aot/oldvideos/R_S_yt-VfASxEzDrvc_145.mp4	0.0	264.66351199150085	2.5083351135253906
68	193.03971004486084	fix_post	2		12.0	66.0	2.5	/experiments/knapen_aot/oldvideos/R_S_yt-VfASxEzDrvc_145.mp4	0.0	267.17184710502625	0.10021090507507324
69	193.1399209499359	fix_pre	0		37.0	67.0	2.5	/experiments/knapen_aot/oldvideos/S_yt-6xXEMHBQ08A_28.mp4	0.0	267.2720580101013	0.30809903144836426
69	193.43981194496155	response	0	4		67.0	2.5	/experiments/knapen_aot/oldvideos/S_yt-6xXEMHBQ08A_28.mp4	0.0	267.57194900512695	
69	193.44801998138428	movie	1		301.0	67.0	2.5	/experiments/knapen_aot/oldvideos/S_yt-6xXEMHBQ08A_28.mp4	0.0	267.5801570415497	2.5083401203155518
69	195.95636010169983	fix_post	2		12.0	67.0	2.5	/experiments/knapen_aot/oldvideos/S_yt-6xXEMHBQ08A_28.mp4	0.0	270.08849716186523	0.0999758243560791
70	196.0563359260559	fix_pre	0		39.0	68.0	2.5	/experiments/knapen_aot/oldvideos/S_yt-XPRNMelf5Fs_235.mp4	0.0	270.1884729862213	0.32507896423339844
70	196.3731598854065	response	0	4		68.0	2.5	/experiments/knapen_aot/oldvideos/S_yt-XPRNMelf5Fs_235.mp4	0.0	270.5052969455719	
70	196.3814148902893	movie	1		301.0	68.0	2.5	/experiments/knapen_aot/oldvideos/S_yt-XPRNMelf5Fs_235.mp4	0.0	270.5135519504547	2.508239984512329
70	198.88965487480164	fix_post	2		12.0	68.0	2.5	/experiments/knapen_aot/oldvideos/S_yt-XPRNMelf5Fs_235.mp4	0.0	273.02179193496704	0.10002803802490234
71	198.98968291282654	fix_pre	0		9.0	69.0	2.5	/experiments/knapen_aot/oldvideos/S_comp_L004_C011_PS_v01_SDR_PS_20180925_SDR_2K_AVC.mp4	0.0	273.12181997299194	0.07487010955810547
71	199.0564570426941	response	0	4		69.0	2.5	/experiments/knapen_aot/oldvideos/S_comp_L004_C011_PS_v01_SDR_PS_20180925_SDR_2K_AVC.mp4	0.0	273.1885941028595	
71	199.06455302238464	movie	1		166.0	69.0	2.5	/experiments/knapen_aot/oldvideos/S_comp_L004_C011_PS_v01_SDR_PS_20180925_SDR_2K_AVC.mp4	0.0	273.19669008255005	2.508450984954834
71	201.57300400733948	fix_post	2		12.0	69.0	2.5	/experiments/knapen_aot/oldvideos/S_comp_L004_C011_PS_v01_SDR_PS_20180925_SDR_2K_AVC.mp4	0.0	275.7051410675049	0.09999704360961914
72	201.6730010509491	fix_pre	0		26.0	70.0	2.5	blank	1.0	275.8051381111145	0.21654486656188965
72	201.8813591003418	response	0	4		70.0	2.5	blank	1.0	276.0134961605072	
72	201.889545917511	movie	1		301.0	70.0	2.5	blank	1.0	276.0216829776764	2.5084309577941895
72	204.39797687530518	fix_post	2		12.0	70.0	2.5	blank	1.0	278.5301139354706	0.10002017021179199
73	204.49799704551697	fix_pre	0		15.0	71.0	2.5	/experiments/knapen_aot/oldvideos/R_S_gHYomsO1dSU_5.mp4	0.0	278.6301341056824	0.1249690055847168
73	204.6148180961609	response	0	4		71.0	2.5	/experiments/knapen_aot/oldvideos/R_S_gHYomsO1dSU_5.mp4	0.0	278.7469551563263	
73	204.62296605110168	movie	1		301.0	71.0	2.5	/experiments/knapen_aot/oldvideos/R_S_gHYomsO1dSU_5.mp4	0.0	278.7551031112671	2.508296012878418
73	207.1312620639801	fix_post	2		12.0	71.0	2.5	/experiments/knapen_aot/oldvideos/R_S_gHYomsO1dSU_5.mp4	0.0	281.2633991241455	0.10002994537353516
73	207.181410074234	response	2	4		71.0	2.5	/experiments/knapen_aot/oldvideos/R_S_gHYomsO1dSU_5.mp4	0.0	281.3135471343994	
74	207.23129200935364	fix_pre	0		40.0	72.0	2.5	/experiments/knapen_aot/oldvideos/R_S_comp_A001_C004_1207W5_v23_SDR_FINAL_20180706_SDR_2K_AVC.mp4	0.0	281.36342906951904	0.33327388763427734
74	207.54887795448303	response	0	4		72.0	2.5	/experiments/knapen_aot/oldvideos/R_S_comp_A001_C004_1207W5_v23_SDR_FINAL_20180706_SDR_2K_AVC.mp4	0.0	281.68101501464844	
74	207.56456589698792	movie	1		168.0	72.0	2.5	/experiments/knapen_aot/oldvideos/R_S_comp_A001_C004_1207W5_v23_SDR_FINAL_20180706_SDR_2K_AVC.mp4	0.0	281.6967029571533	2.5083961486816406
74	210.07296204566956	fix_post	2		12.0	72.0	2.5	/experiments/knapen_aot/oldvideos/R_S_comp_A001_C004_1207W5_v23_SDR_FINAL_20180706_SDR_2K_AVC.mp4	0.0	284.20509910583496	0.10006403923034668
74	210.10642290115356	response	2	4		72.0	2.5	/experiments/knapen_aot/oldvideos/R_S_comp_A001_C004_1207W5_v23_SDR_FINAL_20180706_SDR_2K_AVC.mp4	0.0	284.23855996131897	
75	210.1730260848999	fix_pre	0		25.0	73.0	2.5	/experiments/knapen_aot/oldvideos/R_S_yt-NqyG4Ar2JWo_10.mp4	0.0	284.3051631450653	0.2082529067993164
75	210.3655068874359	response	0	4		73.0	2.5	/experiments/knapen_aot/oldvideos/R_S_yt-NqyG4Ar2JWo_10.mp4	0.0	284.4976439476013	
75	210.38127899169922	movie	1		301.0	73.0	2.5	/experiments/knapen_aot/oldvideos/R_S_yt-NqyG4Ar2JWo_10.mp4	0.0	284.5134160518646	2.508435010910034
75	212.88971400260925	fix_post	2		12.0	73.0	2.5	/experiments/knapen_aot/oldvideos/R_S_yt-NqyG4Ar2JWo_10.mp4	0.0	287.02185106277466	0.09989595413208008
76	212.98960995674133	fix_pre	0		17.0	74.0	2.5	/experiments/knapen_aot/oldvideos/R_S_pexels-c-technical-5771610.mp4	0.0	287.12174701690674	0.14163899421691895
76	213.12302994728088	response	0	4		74.0	2.5	/experiments/knapen_aot/oldvideos/R_S_pexels-c-technical-5771610.mp4	0.0	287.2551670074463	
76	213.13124895095825	movie	1		191.0	74.0	2.5	/experiments/knapen_aot/oldvideos/R_S_pexels-c-technical-5771610.mp4	0.0	287.26338601112366	2.5082781314849854
76	215.63952708244324	fix_post	2		12.0	74.0	2.5	/experiments/knapen_aot/oldvideos/R_S_pexels-c-technical-5771610.mp4	0.0	289.77166414260864	0.10028600692749023
76	215.714693069458	response	2	4		74.0	2.5	/experiments/knapen_aot/oldvideos/R_S_pexels-c-technical-5771610.mp4	0.0	289.8468301296234	
77	215.73981308937073	fix_pre	0		35.0	75.0	2.5	/experiments/knapen_aot/oldvideos/R_S_yt-XpM1Jtwlvvk_42.mp4	0.0	289.87195014953613	0.29253196716308594
77	216.02298498153687	response	0	4		75.0	2.5	/experiments/knapen_aot/oldvideos/R_S_yt-XpM1Jtwlvvk_42.mp4	0.0	290.15512204170227	
77	216.0323450565338	movie	1		301.0	75.0	2.5	/experiments/knapen_aot/oldvideos/R_S_yt-XpM1Jtwlvvk_42.mp4	0.0	290.1644821166992	2.5074520111083984
77	218.15638899803162	response	1	4		75.0	2.5	/experiments/knapen_aot/oldvideos/R_S_yt-XpM1Jtwlvvk_42.mp4	0.0	292.288526058197	
77	218.3895878791809	response	1	4		75.0	2.5	/experiments/knapen_aot/oldvideos/R_S_yt-XpM1Jtwlvvk_42.mp4	0.0	292.5217249393463	
77	218.5397970676422	fix_post	2		12.0	75.0	2.5	/experiments/knapen_aot/oldvideos/R_S_yt-XpM1Jtwlvvk_42.mp4	0.0	292.6719341278076	0.09978699684143066
78	218.63958406448364	fix_pre	0		28.0	76.0	2.5	blank	1.0	292.77172112464905	0.23333096504211426
78	218.8646080493927	response	0	4		76.0	2.5	blank	1.0	292.9967451095581	
78	218.87291502952576	movie	1		301.0	76.0	2.5	blank	1.0	293.00505208969116	2.508342981338501
78	221.38125801086426	fix_post	2		12.0	76.0	2.5	blank	1.0	295.51339507102966	0.09997892379760742
78	221.4479420185089	response	2	4		76.0	2.5	blank	1.0	295.5800790786743	
79	221.48123693466187	fix_pre	0		38.0	77.0	2.5	/experiments/knapen_aot/oldvideos/R_S_production_ID_4325506.mp4	0.0	295.61337399482727	0.3165600299835205
79	221.78968501091003	response	0	4		77.0	2.5	/experiments/knapen_aot/oldvideos/R_S_production_ID_4325506.mp4	0.0	295.92182207107544	
79	221.79779696464539	movie	1		199.0	77.0	2.5	/experiments/knapen_aot/oldvideos/R_S_production_ID_4325506.mp4	0.0	295.9299340248108	2.5084550380706787
79	224.20631504058838	response	1	4		77.0	2.5	/experiments/knapen_aot/oldvideos/R_S_production_ID_4325506.mp4	0.0	298.3384521007538	
79	224.30625200271606	fix_post	2		12.0	77.0	2.5	/experiments/knapen_aot/oldvideos/R_S_production_ID_4325506.mp4	0.0	298.43838906288147	0.09996390342712402
80	224.4062159061432	fix_pre	0		7.0	78.0	2.5	/experiments/knapen_aot/oldvideos/S_yt-2LCHVTVwJ5E_235.mp4	0.0	298.5383529663086	0.058331966400146484
80	224.456237077713	response	0	4		78.0	2.5	/experiments/knapen_aot/oldvideos/S_yt-2LCHVTVwJ5E_235.mp4	0.0	298.5883741378784	
80	224.46454787254333	movie	1		301.0	78.0	2.5	/experiments/knapen_aot/oldvideos/S_yt-2LCHVTVwJ5E_235.mp4	0.0	298.59668493270874	2.508352041244507
80	226.97289991378784	fix_post	2		12.0	78.0	2.5	/experiments/knapen_aot/oldvideos/S_yt-2LCHVTVwJ5E_235.mp4	0.0	301.10503697395325	0.1000070571899414
80	227.0396111011505	response	2	4		78.0	2.5	/experiments/knapen_aot/oldvideos/S_yt-2LCHVTVwJ5E_235.mp4	0.0	301.1717481613159	
81	227.07290697097778	fix_pre	0		35.0	79.0	2.5	/experiments/knapen_aot/oldvideos/S_yt-icd9UxxxeW0_255.mp4	0.0	301.2050440311432	0.2926290035247803
81	227.3563039302826	response	0	4		79.0	2.5	/experiments/knapen_aot/oldvideos/S_yt-icd9UxxxeW0_255.mp4	0.0	301.488440990448	
81	227.36553597450256	movie	1		301.0	79.0	2.5	/experiments/knapen_aot/oldvideos/S_yt-icd9UxxxeW0_255.mp4	0.0	301.49767303466797	2.507404088973999
81	229.87294006347656	fix_post	2		12.0	79.0	2.5	/experiments/knapen_aot/oldvideos/S_yt-icd9UxxxeW0_255.mp4	0.0	304.00507712364197	0.09993100166320801
82	229.97287106513977	fix_pre	0		16.0	80.0	2.5	/experiments/knapen_aot/oldvideos/R_S_b2-2.mp4	0.0	304.1050081253052	0.13331389427185059
82	230.0979130268097	response	0	4		80.0	2.5	/experiments/knapen_aot/oldvideos/R_S_b2-2.mp4	0.0	304.2300500869751	
82	230.10618495941162	movie	1		173.0	80.0	2.5	/experiments/knapen_aot/oldvideos/R_S_b2-2.mp4	0.0	304.238322019577	2.508357048034668
82	232.58979201316833	response	1	4		80.0	2.5	/experiments/knapen_aot/oldvideos/R_S_b2-2.mp4	0.0	306.72192907333374	
82	232.6145420074463	fix_post	2		12.0	80.0	2.5	/experiments/knapen_aot/oldvideos/R_S_b2-2.mp4	0.0	306.7466790676117	0.10010790824890137
83	232.7146499156952	fix_pre	0		16.0	81.0	2.5	/experiments/knapen_aot/oldvideos/R_S_yt-1ruRqcfBMw0_21.mp4	0.0	306.8467869758606	0.13319611549377441
83	232.83206486701965	response	0	4		81.0	2.5	/experiments/knapen_aot/oldvideos/R_S_yt-1ruRqcfBMw0_21.mp4	0.0	306.96420192718506	
83	232.84784603118896	movie	1		301.0	81.0	2.5	/experiments/knapen_aot/oldvideos/R_S_yt-1ruRqcfBMw0_21.mp4	0.0	306.97998309135437	2.508333921432495
83	235.35617995262146	fix_post	2		12.0	81.0	2.5	/experiments/knapen_aot/oldvideos/R_S_yt-1ruRqcfBMw0_21.mp4	0.0	309.48831701278687	0.10000896453857422
84	235.45618891716003	fix_pre	0		1.0	82.0	2.5	/experiments/knapen_aot/oldvideos/S_yt-BJsMGxfjrZk_59.mp4	0.0	309.58832597732544	0.00828099250793457
84	235.45787692070007	response	0	4		82.0	2.5	/experiments/knapen_aot/oldvideos/S_yt-BJsMGxfjrZk_59.mp4	0.0	309.5900139808655	
84	235.46446990966797	movie	1		301.0	82.0	2.5	/experiments/knapen_aot/oldvideos/S_yt-BJsMGxfjrZk_59.mp4	0.0	309.5966069698334	2.5083720684051514
84	237.97284197807312	fix_post	2		12.0	82.0	2.5	/experiments/knapen_aot/oldvideos/S_yt-BJsMGxfjrZk_59.mp4	0.0	312.1049790382385	0.09991812705993652
85	238.07276010513306	fix_pre	0		6.0	83.0	2.5	blank	1.0	312.20489716529846	0.0500788688659668
85	238.1071469783783	response	0	4		83.0	2.5	blank	1.0	312.2392840385437	
85	238.12283897399902	movie	1		301.0	83.0	2.5	blank	1.0	312.25497603416443	2.5083189010620117
85	240.63115787506104	fix_post	2		12.0	83.0	2.5	blank	1.0	314.76329493522644	0.10004520416259766
87	240.73120307922363	stim	0		376.0					314.86334013938904	3.1341958045959473
87	240.86455392837524	response	0	4						314.99669098854065	
87	243.8574080467224	response	0	space						317.9895451068878	
