trial_nr	onset	event_type	phase	response	nr_frames	movie_index	movie_duration	movie_file	blank	onset_abs	duration
0	0.16655707359313965	stim	0		13.0					69.21758699417114	0.19780182838439941
0	0.3393380641937256	response	0	space						69.39036798477173	
1	0.36435890197753906	stim	0		120.0					69.41538882255554	0.9998271465301514
1	1.0059139728546143	response	0	space						70.05694389343262	
1	1.3641860485076904	stim	1		121.0					70.4152159690857	1.008146047592163
1	1.639327049255371	response	1	space						70.69035696983337	
1	2.039041042327881	response	1	space						71.09007096290588	
1	2.3305931091308594	response	1	space						71.38162302970886	
2	2.3723320960998535	fix_pre	0		33.0	0.0	2.5	/experiments/knapen_aot/oldvideos/S_ILSVRC2015_train_00469000.mp4	0.0	71.42336201667786	0.27490901947021484
2	2.6390371322631836	response	0	space		0.0	2.5	/experiments/knapen_aot/oldvideos/S_ILSVRC2015_train_00469000.mp4	0.0	71.69006705284119	
2	2.6472411155700684	movie	1		300.0	0.0	2.5	/experiments/knapen_aot/oldvideos/S_ILSVRC2015_train_00469000.mp4	0.0	71.69827103614807	2.508513927459717
2	5.155755043029785	fix_post	2		12.0	0.0	2.5	/experiments/knapen_aot/oldvideos/S_ILSVRC2015_train_00469000.mp4	0.0	74.20678496360779	0.09987807273864746
3	5.255633115768433	fix_pre	0		8.0	1.0	2.5	/experiments/knapen_aot/oldvideos/R_S_ILSVRC2015_train_00042003.mp4	0.0	74.30666303634644	0.07042479515075684
3	5.3175249099731445	response	0	4		1.0	2.5	/experiments/knapen_aot/oldvideos/R_S_ILSVRC2015_train_00042003.mp4	0.0	74.36855483055115	
3	5.3260579109191895	movie	1		299.0	1.0	2.5	/experiments/knapen_aot/oldvideos/R_S_ILSVRC2015_train_00042003.mp4	0.0	74.37708783149719	2.504603147506714
3	7.830661058425903	fix_post	2		12.0	1.0	2.5	/experiments/knapen_aot/oldvideos/R_S_ILSVRC2015_train_00042003.mp4	0.0	76.8816909790039	0.09993100166320801
4	7.930592060089111	fix_pre	0		9.0	2.0	2.5	/experiments/knapen_aot/oldvideos/S_yt-N7ztk2fa3Ls_137.mp4	0.0	76.98162198066711	0.07601189613342285
4	7.989888906478882	response	0	4		2.0	2.5	/experiments/knapen_aot/oldvideos/S_yt-N7ztk2fa3Ls_137.mp4	0.0	77.04091882705688	
4	8.006603956222534	movie	1		301.0	2.0	2.5	/experiments/knapen_aot/oldvideos/S_yt-N7ztk2fa3Ls_137.mp4	0.0	77.05763387680054	2.5073649883270264
4	10.51396894454956	fix_post	2		12.0	2.0	2.5	/experiments/knapen_aot/oldvideos/S_yt-N7ztk2fa3Ls_137.mp4	0.0	79.56499886512756	0.10009598731994629
5	10.614064931869507	fix_pre	0		23.0	3.0	2.5	/experiments/knapen_aot/oldvideos/R_S_yt-Faxdis4m3Fw_9.mp4	0.0	79.66509485244751	0.19150304794311523
5	10.797408103942871	response	0	4		3.0	2.5	/experiments/knapen_aot/oldvideos/R_S_yt-Faxdis4m3Fw_9.mp4	0.0	79.84843802452087	
5	10.805567979812622	movie	1		301.0	3.0	2.5	/experiments/knapen_aot/oldvideos/R_S_yt-Faxdis4m3Fw_9.mp4	0.0	79.85659790039062	2.508458137512207
5	13.314026117324829	fix_post	2		12.0	3.0	2.5	/experiments/knapen_aot/oldvideos/R_S_yt-Faxdis4m3Fw_9.mp4	0.0	82.36505603790283	0.09998488426208496
6	13.414011001586914	fix_pre	0		42.0	4.0	2.5	/experiments/knapen_aot/oldvideos/S_ILSVRC2015_train_00565000.mp4	0.0	82.46504092216492	0.34998393058776855
6	13.755661964416504	response	0	4		4.0	2.5	/experiments/knapen_aot/oldvideos/S_ILSVRC2015_train_00565000.mp4	0.0	82.8066918849945	
6	13.763994932174683	movie	1		301.0	4.0	2.5	/experiments/knapen_aot/oldvideos/S_ILSVRC2015_train_00565000.mp4	0.0	82.81502485275269	2.508350133895874
6	16.272345066070557	fix_post	2		12.0	4.0	2.5	/experiments/knapen_aot/oldvideos/S_ILSVRC2015_train_00565000.mp4	0.0	85.32337498664856	0.10009098052978516
7	16.372436046600342	fix_pre	0		65.0	5.0	2.5	/experiments/knapen_aot/oldvideos/R_S_yt-C0iWlRWU21o_5.mp4	0.0	85.42346596717834	0.5415198802947998
7	16.905750036239624	response	0	4		5.0	2.5	/experiments/knapen_aot/oldvideos/R_S_yt-C0iWlRWU21o_5.mp4	0.0	85.95677995681763	
7	16.91395592689514	movie	1		301.0	5.0	2.5	/experiments/knapen_aot/oldvideos/R_S_yt-C0iWlRWU21o_5.mp4	0.0	85.96498584747314	2.5083770751953125
7	19.422333002090454	fix_post	2		12.0	5.0	2.5	/experiments/knapen_aot/oldvideos/R_S_yt-C0iWlRWU21o_5.mp4	0.0	88.47336292266846	0.10002613067626953
8	19.522359132766724	fix_pre	0		17.0	6.0	2.5	/experiments/knapen_aot/oldvideos/S_production_ID_4720614.mp4	0.0	88.57338905334473	0.14165592193603516
8	19.65578603744507	response	0	4		6.0	2.5	/experiments/knapen_aot/oldvideos/S_production_ID_4720614.mp4	0.0	88.70681595802307	
8	19.66401505470276	movie	1		197.0	6.0	2.5	/experiments/knapen_aot/oldvideos/S_production_ID_4720614.mp4	0.0	88.71504497528076	2.508341073989868
8	22.172356128692627	fix_post	2		12.0	6.0	2.5	/experiments/knapen_aot/oldvideos/S_production_ID_4720614.mp4	0.0	91.22338604927063	0.09994697570800781
9	22.272303104400635	fix_pre	0		207.0	7.0	2.5	blank	1.0	91.32333302497864	1.724963903427124
9	23.989166021347046	response	0	4		7.0	2.5	blank	1.0	93.04019594192505	
9	23.99726700782776	movie	1		301.0	7.0	2.5	blank	1.0	93.04829692840576	2.5085079669952393
9	26.505774974822998	fix_post	2		12.0	7.0	2.5	blank	1.0	95.556804895401	0.09986495971679688
10	26.605639934539795	fix_pre	0		38.0	8.0	2.5	/experiments/knapen_aot/oldvideos/S_yt-4W224-RSCnM_15.mp4	0.0	95.6566698551178	0.31760716438293457
10	26.914205074310303	response	0	4		8.0	2.5	/experiments/knapen_aot/oldvideos/S_yt-4W224-RSCnM_15.mp4	0.0	95.9652349948883	
10	26.92324709892273	movie	1		301.0	8.0	2.5	/experiments/knapen_aot/oldvideos/S_yt-4W224-RSCnM_15.mp4	0.0	95.97427701950073	2.5074620246887207
10	29.43070912361145	fix_post	2		12.0	8.0	2.5	/experiments/knapen_aot/oldvideos/S_yt-4W224-RSCnM_15.mp4	0.0	98.48173904418945	0.09994697570800781
11	29.530656099319458	fix_pre	0		19.0	9.0	2.5	/experiments/knapen_aot/oldvideos/S_ILSVRC2015_train_00404004.mp4	0.0	98.58168601989746	0.15836381912231445
11	29.6807861328125	response	0	4		9.0	2.5	/experiments/knapen_aot/oldvideos/S_ILSVRC2015_train_00404004.mp4	0.0	98.7318160533905	
11	29.689019918441772	movie	1		301.0	9.0	2.5	/experiments/knapen_aot/oldvideos/S_ILSVRC2015_train_00404004.mp4	0.0	98.74004983901978	2.508369207382202
11	32.197389125823975	fix_post	2		12.0	9.0	2.5	/experiments/knapen_aot/oldvideos/S_ILSVRC2015_train_00404004.mp4	0.0	101.24841904640198	0.09995484352111816
12	32.29734396934509	fix_pre	0		207.0	10.0	2.5	/experiments/knapen_aot/oldvideos/S_pexels-anthony-shkraba-7569650.mp4	0.0	101.3483738899231	1.7250239849090576
12	34.01421403884888	response	0	4		10.0	2.5	/experiments/knapen_aot/oldvideos/S_pexels-anthony-shkraba-7569650.mp4	0.0	103.06524395942688	
12	34.02236795425415	movie	1		186.0	10.0	2.5	/experiments/knapen_aot/oldvideos/S_pexels-anthony-shkraba-7569650.mp4	0.0	103.07339787483215	2.5083470344543457
12	36.530714988708496	fix_post	2		12.0	10.0	2.5	/experiments/knapen_aot/oldvideos/S_pexels-anthony-shkraba-7569650.mp4	0.0	105.5817449092865	0.10001492500305176
13	36.63072991371155	fix_pre	0		188.0	11.0	2.5	/experiments/knapen_aot/oldvideos/S_production_ID_4101307.mp4	0.0	105.68175983428955	1.5665841102600098
13	38.181551933288574	response	0	4		11.0	2.5	/experiments/knapen_aot/oldvideos/S_production_ID_4101307.mp4	0.0	107.23258185386658	
13	38.19731402397156	movie	1		203.0	11.0	2.5	/experiments/knapen_aot/oldvideos/S_production_ID_4101307.mp4	0.0	107.24834394454956	2.508389949798584
13	40.70570397377014	fix_post	2		12.0	11.0	2.5	/experiments/knapen_aot/oldvideos/S_production_ID_4101307.mp4	0.0	109.75673389434814	0.10001111030578613
14	40.80571508407593	fix_pre	0		17.0	12.0	2.5	/experiments/knapen_aot/oldvideos/R_S_production_ID_4325591.mp4	0.0	109.85674500465393	0.1415410041809082
14	40.939160108566284	response	0	4		12.0	2.5	/experiments/knapen_aot/oldvideos/R_S_production_ID_4325591.mp4	0.0	109.99019002914429	
14	40.947256088256836	movie	1		190.0	12.0	2.5	/experiments/knapen_aot/oldvideos/R_S_production_ID_4325591.mp4	0.0	109.99828600883484	2.508462905883789
14	43.455718994140625	fix_post	2		12.0	12.0	2.5	/experiments/knapen_aot/oldvideos/R_S_production_ID_4325591.mp4	0.0	112.50674891471863	0.09994912147521973
15	43.555668115615845	fix_pre	0		7.0	13.0	2.5	blank	1.0	112.60669803619385	0.0583188533782959
15	43.60576891899109	response	0	4		13.0	2.5	blank	1.0	112.65679883956909	
15	43.61398696899414	movie	1		301.0	13.0	2.5	blank	1.0	112.66501688957214	2.5083980560302734
15	46.122385025024414	fix_post	2		12.0	13.0	2.5	blank	1.0	115.17341494560242	0.09983205795288086
16	46.222217082977295	fix_pre	0		178.0	14.0	2.5	/experiments/knapen_aot/oldvideos/R_S_P006_C002_UHD_SDR_2K_AVC.mp4	0.0	115.2732470035553	1.4834139347076416
16	47.697482109069824	response	0	4		14.0	2.5	/experiments/knapen_aot/oldvideos/R_S_P006_C002_UHD_SDR_2K_AVC.mp4	0.0	116.74851202964783	
16	47.70563101768494	movie	1		164.0	14.0	2.5	/experiments/knapen_aot/oldvideos/R_S_P006_C002_UHD_SDR_2K_AVC.mp4	0.0	116.75666093826294	2.508378028869629
16	50.214009046554565	fix_post	2		12.0	14.0	2.5	/experiments/knapen_aot/oldvideos/R_S_P006_C002_UHD_SDR_2K_AVC.mp4	0.0	119.26503896713257	0.10012388229370117
17	50.31413292884827	fix_pre	0		25.0	15.0	2.5	/experiments/knapen_aot/oldvideos/S_yt-o_CT2MjZ9fA_216.mp4	0.0	119.36516284942627	0.20824408531188965
17	50.50654697418213	response	0	4		15.0	2.5	/experiments/knapen_aot/oldvideos/S_yt-o_CT2MjZ9fA_216.mp4	0.0	119.55757689476013	
17	50.522377014160156	movie	1		301.0	15.0	2.5	/experiments/knapen_aot/oldvideos/S_yt-o_CT2MjZ9fA_216.mp4	0.0	119.57340693473816	2.508280038833618
17	53.030657052993774	fix_post	2		12.0	15.0	2.5	/experiments/knapen_aot/oldvideos/S_yt-o_CT2MjZ9fA_216.mp4	0.0	122.08168697357178	0.09998798370361328
18	53.13064503669739	fix_pre	0		111.0	16.0	2.5	/experiments/knapen_aot/oldvideos/R_S_yt-STL3ejY9u_Q_73.mp4	0.0	122.18167495727539	0.9250099658966064
18	54.047425985336304	response	0	4		16.0	2.5	/experiments/knapen_aot/oldvideos/R_S_yt-STL3ejY9u_Q_73.mp4	0.0	123.0984559059143	
18	54.055655002593994	movie	1		301.0	16.0	2.5	/experiments/knapen_aot/oldvideos/R_S_yt-STL3ejY9u_Q_73.mp4	0.0	123.106684923172	2.5082859992980957
18	56.56394100189209	fix_post	2		12.0	16.0	2.5	/experiments/knapen_aot/oldvideos/R_S_yt-STL3ejY9u_Q_73.mp4	0.0	125.61497092247009	0.09995794296264648
19	56.663898944854736	fix_pre	0		11.0	17.0	2.5	/experiments/knapen_aot/oldvideos/S_yt-sGckFFOLO30_164.mp4	0.0	125.71492886543274	0.09236598014831543
19	56.74740195274353	response	0	4		17.0	2.5	/experiments/knapen_aot/oldvideos/S_yt-sGckFFOLO30_164.mp4	0.0	125.79843187332153	
19	56.75626492500305	movie	1		301.0	17.0	2.5	/experiments/knapen_aot/oldvideos/S_yt-sGckFFOLO30_164.mp4	0.0	125.80729484558105	2.5076770782470703
19	59.26394200325012	fix_post	2		12.0	17.0	2.5	/experiments/knapen_aot/oldvideos/S_yt-sGckFFOLO30_164.mp4	0.0	128.31497192382812	0.09998798370361328
20	59.363929986953735	fix_pre	0		202.0	18.0	2.5	/experiments/knapen_aot/oldvideos/R_S_yt-PREz5XiiXg0_107.mp4	0.0	128.41495990753174	1.6839780807495117
20	61.03903007507324	response	0	4		18.0	2.5	/experiments/knapen_aot/oldvideos/R_S_yt-PREz5XiiXg0_107.mp4	0.0	130.09005999565125	
20	61.04790806770325	movie	1		301.0	18.0	2.5	/experiments/knapen_aot/oldvideos/R_S_yt-PREz5XiiXg0_107.mp4	0.0	130.09893798828125	2.507627010345459
20	63.555535078048706	fix_post	2		12.0	18.0	2.5	/experiments/knapen_aot/oldvideos/R_S_yt-PREz5XiiXg0_107.mp4	0.0	132.6065649986267	0.10001897811889648
21	63.6555540561676	fix_pre	0		19.0	19.0	2.5	/experiments/knapen_aot/oldvideos/R_S_yt-cjndulbUtRc_51.mp4	0.0	132.7065839767456	0.1582939624786377
21	63.80557107925415	response	0	4		19.0	2.5	/experiments/knapen_aot/oldvideos/R_S_yt-cjndulbUtRc_51.mp4	0.0	132.85660099983215	
21	63.81384801864624	movie	1		301.0	19.0	2.5	/experiments/knapen_aot/oldvideos/R_S_yt-cjndulbUtRc_51.mp4	0.0	132.86487793922424	2.5084030628204346
21	66.32225108146667	fix_post	2		12.0	19.0	2.5	/experiments/knapen_aot/oldvideos/R_S_yt-cjndulbUtRc_51.mp4	0.0	135.37328100204468	0.09994983673095703
22	66.42220091819763	fix_pre	0		45.0	20.0	2.5	/experiments/knapen_aot/oldvideos/R_S_wc-WgOBK5IL7vex_4.mp4	0.0	135.47323083877563	0.3756520748138428
22	66.78903102874756	response	0	4		20.0	2.5	/experiments/knapen_aot/oldvideos/R_S_wc-WgOBK5IL7vex_4.mp4	0.0	135.84006094932556	
22	66.79785299301147	movie	1		169.0	20.0	2.5	/experiments/knapen_aot/oldvideos/R_S_wc-WgOBK5IL7vex_4.mp4	0.0	135.84888291358948	2.5075531005859375
22	69.30540609359741	fix_post	2		12.0	20.0	2.5	/experiments/knapen_aot/oldvideos/R_S_wc-WgOBK5IL7vex_4.mp4	0.0	138.35643601417542	0.10008096694946289
23	69.40548706054688	fix_pre	0		46.0	21.0	2.5	blank	1.0	138.45651698112488	0.38329291343688965
23	69.78059506416321	response	0	4		21.0	2.5	blank	1.0	138.8316249847412	
23	69.78877997398376	movie	1		301.0	21.0	2.5	blank	1.0	138.83980989456177	2.5083811283111572
23	72.29716110229492	fix_post	2		12.0	21.0	2.5	blank	1.0	141.34819102287292	0.09993386268615723
24	72.39709496498108	fix_pre	0		130.0	22.0	2.5	/experiments/knapen_aot/oldvideos/S_yt-ieA3XwoSko4_98.mp4	0.0	141.44812488555908	1.0884220600128174
24	73.47237396240234	response	0	4		22.0	2.5	/experiments/knapen_aot/oldvideos/S_yt-ieA3XwoSko4_98.mp4	0.0	142.52340388298035	
24	73.4855170249939	movie	1		301.0	22.0	2.5	/experiments/knapen_aot/oldvideos/S_yt-ieA3XwoSko4_98.mp4	0.0	142.5365469455719	2.5032920837402344
24	75.98880910873413	fix_post	2		12.0	22.0	2.5	/experiments/knapen_aot/oldvideos/S_yt-ieA3XwoSko4_98.mp4	0.0	145.03983902931213	0.10063695907592773
25	76.08944606781006	fix_pre	0		39.0	23.0	2.5	/experiments/knapen_aot/oldvideos/S_flickr-53807584@N00-5566422012_16.mp4	0.0	145.14047598838806	0.3243448734283447
25	76.40560698509216	response	0	4		23.0	2.5	/experiments/knapen_aot/oldvideos/S_flickr-53807584@N00-5566422012_16.mp4	0.0	145.45663690567017	
25	76.4137909412384	movie	1		301.0	23.0	2.5	/experiments/knapen_aot/oldvideos/S_flickr-53807584@N00-5566422012_16.mp4	0.0	145.4648208618164	2.508347988128662
25	78.92213892936707	fix_post	2		12.0	23.0	2.5	/experiments/knapen_aot/oldvideos/S_flickr-53807584@N00-5566422012_16.mp4	0.0	147.97316884994507	0.1000521183013916
26	79.02219104766846	fix_pre	0		114.0	24.0	2.5	/experiments/knapen_aot/oldvideos/R_S_yt-Y7-umyL036c_507.mp4	0.0	148.07322096824646	0.9499120712280273
26	79.9639151096344	response	0	4		24.0	2.5	/experiments/knapen_aot/oldvideos/R_S_yt-Y7-umyL036c_507.mp4	0.0	149.0149450302124	
26	79.97210311889648	movie	1		301.0	24.0	2.5	/experiments/knapen_aot/oldvideos/R_S_yt-Y7-umyL036c_507.mp4	0.0	149.0231330394745	2.5083398818969727
26	82.48044300079346	fix_post	2		12.0	24.0	2.5	/experiments/knapen_aot/oldvideos/R_S_yt-Y7-umyL036c_507.mp4	0.0	151.53147292137146	0.09994196891784668
27	82.5803849697113	fix_pre	0		190.0	25.0	2.5	/experiments/knapen_aot/oldvideos/S_P006_C002_UHD_SDR_2K_AVC.mp4	0.0	151.6314148902893	1.5833489894866943
27	84.15551400184631	response	0	4		25.0	2.5	/experiments/knapen_aot/oldvideos/S_P006_C002_UHD_SDR_2K_AVC.mp4	0.0	153.20654392242432	
27	84.163733959198	movie	1		163.0	25.0	2.5	/experiments/knapen_aot/oldvideos/S_P006_C002_UHD_SDR_2K_AVC.mp4	0.0	153.214763879776	2.508350133895874
27	86.67208409309387	fix_post	2		12.0	25.0	2.5	/experiments/knapen_aot/oldvideos/S_P006_C002_UHD_SDR_2K_AVC.mp4	0.0	155.72311401367188	0.10002589225769043
28	86.77210998535156	fix_pre	0		39.0	26.0	2.5	blank	1.0	155.82313990592957	0.32492899894714355
28	87.08883309364319	response	0	4		26.0	2.5	blank	1.0	156.1398630142212	
28	87.0970389842987	movie	1		301.0	26.0	2.5	blank	1.0	156.1480689048767	2.5083670616149902
28	89.6054060459137	fix_post	2		12.0	26.0	2.5	blank	1.0	158.6564359664917	0.09988689422607422
29	89.70529294013977	fix_pre	0		38.0	27.0	2.5	/experiments/knapen_aot/oldvideos/R_S_yt-kA0ybjmoiMc_284.mp4	0.0	158.75632286071777	0.31673097610473633
29	90.01380705833435	response	0	4		27.0	2.5	/experiments/knapen_aot/oldvideos/R_S_yt-kA0ybjmoiMc_284.mp4	0.0	159.06483697891235	
29	90.0220239162445	movie	1		301.0	27.0	2.5	/experiments/knapen_aot/oldvideos/R_S_yt-kA0ybjmoiMc_284.mp4	0.0	159.0730538368225	2.5084002017974854
29	92.53042411804199	fix_post	2		12.0	27.0	2.5	/experiments/knapen_aot/oldvideos/R_S_yt-kA0ybjmoiMc_284.mp4	0.0	161.58145403862	0.1001129150390625
30	92.63053703308105	fix_pre	0		89.0	28.0	2.5	/experiments/knapen_aot/oldvideos/S_ILSVRC2015_train_00495000.mp4	0.0	161.68156695365906	0.7414219379425049
30	93.36388397216797	response	0	4		28.0	2.5	/experiments/knapen_aot/oldvideos/S_ILSVRC2015_train_00495000.mp4	0.0	162.41491389274597	
30	93.37195897102356	movie	1		301.0	28.0	2.5	/experiments/knapen_aot/oldvideos/S_ILSVRC2015_train_00495000.mp4	0.0	162.42298889160156	2.5083041191101074
30	95.88026309013367	fix_post	2		12.0	28.0	2.5	/experiments/knapen_aot/oldvideos/S_ILSVRC2015_train_00495000.mp4	0.0	164.93129301071167	0.10015702247619629
31	95.98042011260986	fix_pre	0		39.0	29.0	2.5	/experiments/knapen_aot/oldvideos/S_yt-qBPDvSQD0XY_5.mp4	0.0	165.03145003318787	0.3248939514160156
31	96.29708695411682	response	0	4		29.0	2.5	/experiments/knapen_aot/oldvideos/S_yt-qBPDvSQD0XY_5.mp4	0.0	165.34811687469482	
31	96.30531406402588	movie	1		301.0	29.0	2.5	/experiments/knapen_aot/oldvideos/S_yt-qBPDvSQD0XY_5.mp4	0.0	165.35634398460388	2.5083420276641846
31	98.81365609169006	fix_post	2		12.0	29.0	2.5	/experiments/knapen_aot/oldvideos/S_yt-qBPDvSQD0XY_5.mp4	0.0	167.86468601226807	0.10006093978881836
32	98.91371703147888	fix_pre	0		250.0	30.0	2.5	/experiments/knapen_aot/oldvideos/R_S_pexels-diva-plavalaguna-6985395.mp4	0.0	167.96474695205688	2.083333969116211
32	100.98881196975708	response	0	4		30.0	2.5	/experiments/knapen_aot/oldvideos/R_S_pexels-diva-plavalaguna-6985395.mp4	0.0	170.03984189033508	
32	100.99705100059509	movie	1		163.0	30.0	2.5	/experiments/knapen_aot/oldvideos/R_S_pexels-diva-plavalaguna-6985395.mp4	0.0	170.0480809211731	2.508255958557129
32	103.50530695915222	fix_post	2		12.0	30.0	2.5	/experiments/knapen_aot/oldvideos/R_S_pexels-diva-plavalaguna-6985395.mp4	0.0	172.55633687973022	0.10009098052978516
33	103.605397939682	fix_pre	0		9.0	31.0	2.5	/experiments/knapen_aot/oldvideos/R_S_yt-mDil5vGZb14_4049.mp4	0.0	172.65642786026	0.0748741626739502
33	103.6646671295166	response	0	4		31.0	2.5	/experiments/knapen_aot/oldvideos/R_S_yt-mDil5vGZb14_4049.mp4	0.0	172.7156970500946	
33	103.68027210235596	movie	1		301.0	31.0	2.5	/experiments/knapen_aot/oldvideos/R_S_yt-mDil5vGZb14_4049.mp4	0.0	172.73130202293396	2.5084009170532227
33	106.18867301940918	fix_post	2		12.0	31.0	2.5	/experiments/knapen_aot/oldvideos/R_S_yt-mDil5vGZb14_4049.mp4	0.0	175.23970293998718	0.099884033203125
34	106.2885570526123	fix_pre	0		33.0	32.0	2.5	/experiments/knapen_aot/oldvideos/R_S_yt-Gc1p5CnDbDY_22.mp4	0.0	175.3395869731903	0.2750089168548584
34	106.55548191070557	response	0	4		32.0	2.5	/experiments/knapen_aot/oldvideos/R_S_yt-Gc1p5CnDbDY_22.mp4	0.0	175.60651183128357	
34	106.56356596946716	movie	1		301.0	32.0	2.5	/experiments/knapen_aot/oldvideos/R_S_yt-Gc1p5CnDbDY_22.mp4	0.0	175.61459589004517	2.5083420276641846
34	109.07190799713135	fix_post	2		12.0	32.0	2.5	/experiments/knapen_aot/oldvideos/R_S_yt-Gc1p5CnDbDY_22.mp4	0.0	178.12293791770935	0.10000491142272949
35	109.17191290855408	fix_pre	0		148.0	33.0	2.5	/experiments/knapen_aot/oldvideos/S_production_ID_4707837.mp4	0.0	178.22294282913208	1.2332491874694824
35	110.39715099334717	response	0	4		33.0	2.5	/experiments/knapen_aot/oldvideos/S_production_ID_4707837.mp4	0.0	179.44818091392517	
35	110.40516209602356	movie	1		165.0	33.0	2.5	/experiments/knapen_aot/oldvideos/S_production_ID_4707837.mp4	0.0	179.45619201660156	2.5085699558258057
35	112.91373205184937	fix_post	2		12.0	33.0	2.5	/experiments/knapen_aot/oldvideos/S_production_ID_4707837.mp4	0.0	181.96476197242737	0.0998849868774414
36	113.0136170387268	fix_pre	0		338.0	34.0	2.5	blank	1.0	182.0646469593048	2.816577911376953
36	115.82198905944824	response	0	4		34.0	2.5	blank	1.0	184.87301898002625	
36	115.83019495010376	movie	1		301.0	34.0	2.5	blank	1.0	184.88122487068176	2.5083279609680176
36	118.33852291107178	fix_post	2		12.0	34.0	2.5	blank	1.0	187.38955283164978	0.10005807876586914
37	118.43858098983765	fix_pre	0		34.0	35.0	2.5	/experiments/knapen_aot/oldvideos/R_S_comp_A008_C007_011550_CC_v01_SDR_PS_FINAL_20180709_SDR_2K_AVC.mp4	0.0	187.48961091041565	0.28333497047424316
37	118.71369099617004	response	0	4		35.0	2.5	/experiments/knapen_aot/oldvideos/R_S_comp_A008_C007_011550_CC_v01_SDR_PS_FINAL_20180709_SDR_2K_AVC.mp4	0.0	187.76472091674805	
37	118.72191596031189	movie	1		163.0	35.0	2.5	/experiments/knapen_aot/oldvideos/R_S_comp_A008_C007_011550_CC_v01_SDR_PS_FINAL_20180709_SDR_2K_AVC.mp4	0.0	187.7729458808899	2.5083329677581787
37	121.23024892807007	fix_post	2		12.0	35.0	2.5	/experiments/knapen_aot/oldvideos/R_S_comp_A008_C007_011550_CC_v01_SDR_PS_FINAL_20180709_SDR_2K_AVC.mp4	0.0	190.28127884864807	0.10000920295715332
38	121.33025813102722	fix_pre	0		165.0	36.0	2.5	/experiments/knapen_aot/oldvideos/R_S_yt-wPXrAuiiRZg_1062.mp4	0.0	190.38128805160522	1.3749539852142334
38	122.69700908660889	response	0	4		36.0	2.5	/experiments/knapen_aot/oldvideos/R_S_yt-wPXrAuiiRZg_1062.mp4	0.0	191.7480390071869	
38	122.70521211624146	movie	1		301.0	36.0	2.5	/experiments/knapen_aot/oldvideos/R_S_yt-wPXrAuiiRZg_1062.mp4	0.0	191.75624203681946	2.5084388256073
38	125.21365094184875	fix_post	2		12.0	36.0	2.5	/experiments/knapen_aot/oldvideos/R_S_yt-wPXrAuiiRZg_1062.mp4	0.0	194.26468086242676	0.09988999366760254
39	125.31354093551636	fix_pre	0		33.0	37.0	2.5	/experiments/knapen_aot/oldvideos/R_S_yt--5ls65Ue1RA_52.mp4	0.0	194.36457085609436	0.275374174118042
39	125.58038806915283	response	0	4		37.0	2.5	/experiments/knapen_aot/oldvideos/R_S_yt--5ls65Ue1RA_52.mp4	0.0	194.63141798973083	
39	125.5889151096344	movie	1		301.0	37.0	2.5	/experiments/knapen_aot/oldvideos/R_S_yt--5ls65Ue1RA_52.mp4	0.0	194.6399450302124	2.50785493850708
39	128.09677004814148	fix_post	2		12.0	37.0	2.5	/experiments/knapen_aot/oldvideos/R_S_yt--5ls65Ue1RA_52.mp4	0.0	197.14779996871948	0.1000509262084961
40	128.19682097434998	fix_pre	0		30.0	38.0	2.5	/experiments/knapen_aot/oldvideos/R_S_yt-ieA3XwoSko4_98.mp4	0.0	197.24785089492798	0.24997997283935547
40	128.43857598304749	response	0	4		38.0	2.5	/experiments/knapen_aot/oldvideos/R_S_yt-ieA3XwoSko4_98.mp4	0.0	197.4896059036255	
40	128.44680094718933	movie	1		301.0	38.0	2.5	/experiments/knapen_aot/oldvideos/R_S_yt-ieA3XwoSko4_98.mp4	0.0	197.49783086776733	2.5083200931549072
40	130.95512104034424	fix_post	2		12.0	38.0	2.5	/experiments/knapen_aot/oldvideos/R_S_yt-ieA3XwoSko4_98.mp4	0.0	200.00615096092224	0.10005688667297363
41	131.0551779270172	fix_pre	0		11.0	39.0	2.5	/experiments/knapen_aot/oldvideos/S_ILSVRC2015_train_00278004.mp4	0.0	200.10620784759521	0.09161996841430664
41	131.13849592208862	response	0	4		39.0	2.5	/experiments/knapen_aot/oldvideos/S_ILSVRC2015_train_00278004.mp4	0.0	200.18952584266663	
41	131.14679789543152	movie	1		301.0	39.0	2.5	/experiments/knapen_aot/oldvideos/S_ILSVRC2015_train_00278004.mp4	0.0	200.19782781600952	2.5083611011505127
41	133.65515899658203	fix_post	2		12.0	39.0	2.5	/experiments/knapen_aot/oldvideos/S_ILSVRC2015_train_00278004.mp4	0.0	202.70618891716003	0.10033798217773438
42	133.75549697875977	fix_pre	0		158.0	40.0	2.5	/experiments/knapen_aot/oldvideos/S_yt-PREz5XiiXg0_107.mp4	0.0	202.80652689933777	1.316220998764038
42	135.06354808807373	response	0	4		40.0	2.5	/experiments/knapen_aot/oldvideos/S_yt-PREz5XiiXg0_107.mp4	0.0	204.11457800865173	
42	135.0717179775238	movie	1		301.0	40.0	2.5	/experiments/knapen_aot/oldvideos/S_yt-PREz5XiiXg0_107.mp4	0.0	204.1227478981018	2.508384943008423
42	137.58010292053223	fix_post	2		12.0	40.0	2.5	/experiments/knapen_aot/oldvideos/S_yt-PREz5XiiXg0_107.mp4	0.0	206.63113284111023	0.10003113746643066
43	137.68013405799866	fix_pre	0		17.0	41.0	2.5	blank	1.0	206.73116397857666	0.14157390594482422
43	137.81350803375244	response	0	4		41.0	2.5	blank	1.0	206.86453795433044	
43	137.82170796394348	movie	1		301.0	41.0	2.5	blank	1.0	206.87273788452148	2.5083770751953125
43	140.3300850391388	fix_post	2		12.0	41.0	2.5	blank	1.0	209.3811149597168	0.10002589225769043
44	140.43011093139648	fix_pre	0		54.0	42.0	2.5	/experiments/knapen_aot/oldvideos/R_S_yt-N7ztk2fa3Ls_137.mp4	0.0	209.4811408519745	0.4502251148223877
44	140.87185907363892	response	0	4		42.0	2.5	/experiments/knapen_aot/oldvideos/R_S_yt-N7ztk2fa3Ls_137.mp4	0.0	209.92288899421692	
44	140.88033604621887	movie	1		301.0	42.0	2.5	/experiments/knapen_aot/oldvideos/R_S_yt-N7ztk2fa3Ls_137.mp4	0.0	209.93136596679688	2.508157968521118
44	143.38849401474	fix_post	2		12.0	42.0	2.5	/experiments/knapen_aot/oldvideos/R_S_yt-N7ztk2fa3Ls_137.mp4	0.0	212.439523935318	0.09986400604248047
45	143.48835802078247	fix_pre	0		40.0	43.0	2.5	/experiments/knapen_aot/oldvideos/S_ILSVRC2015_train_00594000.mp4	0.0	212.53938794136047	0.33332109451293945
45	143.8134889602661	response	0	4		43.0	2.5	/experiments/knapen_aot/oldvideos/S_ILSVRC2015_train_00594000.mp4	0.0	212.86451888084412	
45	143.8216791152954	movie	1		301.0	43.0	2.5	/experiments/knapen_aot/oldvideos/S_ILSVRC2015_train_00594000.mp4	0.0	212.8727090358734	2.5084049701690674
45	146.33008408546448	fix_post	2		12.0	43.0	2.5	/experiments/knapen_aot/oldvideos/S_ILSVRC2015_train_00594000.mp4	0.0	215.38111400604248	0.09996390342712402
46	146.4300479888916	fix_pre	0		202.0	44.0	2.5	/experiments/knapen_aot/oldvideos/S_yt-W4Shvmb1JYs_258.mp4	0.0	215.4810779094696	1.683298110961914
46	148.10515594482422	response	0	4		44.0	2.5	/experiments/knapen_aot/oldvideos/S_yt-W4Shvmb1JYs_258.mp4	0.0	217.15618586540222	
46	148.11334609985352	movie	1		301.0	44.0	2.5	/experiments/knapen_aot/oldvideos/S_yt-W4Shvmb1JYs_258.mp4	0.0	217.16437602043152	2.508389949798584
46	150.6217360496521	fix_post	2		12.0	44.0	2.5	/experiments/knapen_aot/oldvideos/S_yt-W4Shvmb1JYs_258.mp4	0.0	219.6727659702301	0.09997391700744629
47	150.72170996665955	fix_pre	0		17.0	45.0	2.5	/experiments/knapen_aot/oldvideos/R_S_yt-gMqeZkpA_1Q_61.mp4	0.0	219.77273988723755	0.14165115356445312
47	150.85515213012695	response	0	4		45.0	2.5	/experiments/knapen_aot/oldvideos/R_S_yt-gMqeZkpA_1Q_61.mp4	0.0	219.90618205070496	
47	150.863361120224	movie	1		301.0	45.0	2.5	/experiments/knapen_aot/oldvideos/R_S_yt-gMqeZkpA_1Q_61.mp4	0.0	219.914391040802	2.5083508491516113
47	153.3717119693756	fix_post	2		12.0	45.0	2.5	/experiments/knapen_aot/oldvideos/R_S_yt-gMqeZkpA_1Q_61.mp4	0.0	222.4227418899536	0.09996199607849121
48	153.4716739654541	fix_pre	0		35.0	46.0	2.5	/experiments/knapen_aot/oldvideos/S_yt-82O1uT8dmv8_12.mp4	0.0	222.5227038860321	0.29173898696899414
48	153.75514912605286	response	0	4		46.0	2.5	/experiments/knapen_aot/oldvideos/S_yt-82O1uT8dmv8_12.mp4	0.0	222.80617904663086	
48	153.7634129524231	movie	1		301.0	46.0	2.5	/experiments/knapen_aot/oldvideos/S_yt-82O1uT8dmv8_12.mp4	0.0	222.8144428730011	2.508169174194336
48	156.27158212661743	fix_post	2		12.0	46.0	2.5	/experiments/knapen_aot/oldvideos/S_yt-82O1uT8dmv8_12.mp4	0.0	225.32261204719543	0.1001279354095459
49	156.37171006202698	fix_pre	0		95.0	47.0	2.5	blank	1.0	225.42273998260498	0.7917230129241943
49	157.15513396263123	response	0	4		47.0	2.5	blank	1.0	226.20616388320923	
49	157.16343307495117	movie	1		301.0	47.0	2.5	blank	1.0	226.21446299552917	2.5082809925079346
49	159.6717140674591	fix_post	2		12.0	47.0	2.5	blank	1.0	228.7227439880371	0.09995388984680176
50	159.7716679573059	fix_pre	0		53.0	48.0	2.5	/experiments/knapen_aot/oldvideos/S_yt-roThCERxVCs_133.mp4	0.0	228.8226978778839	0.44186997413635254
50	160.1975429058075	response	0	2		48.0	2.5	/experiments/knapen_aot/oldvideos/S_yt-roThCERxVCs_133.mp4	0.0	229.2485728263855	
50	160.21353793144226	movie	1		301.0	48.0	2.5	/experiments/knapen_aot/oldvideos/S_yt-roThCERxVCs_133.mp4	0.0	229.26456785202026	2.5080840587615967
50	162.72162199020386	fix_post	2		12.0	48.0	2.5	/experiments/knapen_aot/oldvideos/S_yt-roThCERxVCs_133.mp4	0.0	231.77265191078186	0.10006594657897949
51	162.82168793678284	fix_pre	0		23.0	49.0	2.5	/experiments/knapen_aot/oldvideos/R_S_pexels-koolshooters-7327412_1.mp4	0.0	231.87271785736084	0.1915721893310547
51	163.00516510009766	response	0	2		49.0	2.5	/experiments/knapen_aot/oldvideos/R_S_pexels-koolshooters-7327412_1.mp4	0.0	232.05619502067566	
51	163.0132601261139	movie	1		163.0	49.0	2.5	/experiments/knapen_aot/oldvideos/R_S_pexels-koolshooters-7327412_1.mp4	0.0	232.0642900466919	2.508424997329712
51	165.5216851234436	fix_post	2		12.0	49.0	2.5	/experiments/knapen_aot/oldvideos/R_S_pexels-koolshooters-7327412_1.mp4	0.0	234.5727150440216	0.10004281997680664
52	165.6217279434204	fix_pre	0		24.0	50.0	2.5	/experiments/knapen_aot/oldvideos/R_S_yt-STL3ejY9u_Q_73.mp4	0.0	234.6727578639984	0.19991302490234375
52	165.8134319782257	response	0	2		50.0	2.5	/experiments/knapen_aot/oldvideos/R_S_yt-STL3ejY9u_Q_73.mp4	0.0	234.8644618988037	
52	165.82164096832275	movie	1		301.0	50.0	2.5	/experiments/knapen_aot/oldvideos/R_S_yt-STL3ejY9u_Q_73.mp4	0.0	234.87267088890076	2.508301019668579
52	168.32994198799133	fix_post	2		12.0	50.0	2.5	/experiments/knapen_aot/oldvideos/R_S_yt-STL3ejY9u_Q_73.mp4	0.0	237.38097190856934	0.1000969409942627
53	168.4300389289856	fix_pre	0		93.0	51.0	2.5	/experiments/knapen_aot/oldvideos/R_S_yt-Dwgpjoikt84_71.mp4	0.0	237.4810688495636	0.7749080657958984
53	169.19683408737183	response	0	2		51.0	2.5	/experiments/knapen_aot/oldvideos/R_S_yt-Dwgpjoikt84_71.mp4	0.0	238.24786400794983	
53	169.2049469947815	movie	1		301.0	51.0	2.5	/experiments/knapen_aot/oldvideos/R_S_yt-Dwgpjoikt84_71.mp4	0.0	238.2559769153595	2.5085740089416504
53	171.71352100372314	fix_post	2		12.0	51.0	2.5	/experiments/knapen_aot/oldvideos/R_S_yt-Dwgpjoikt84_71.mp4	0.0	240.76455092430115	0.09995007514953613
54	171.81347107887268	fix_pre	0		113.0	52.0	2.5	/experiments/knapen_aot/oldvideos/S_yt-GWgG8PVM1iw_34.mp4	0.0	240.86450099945068	0.9416248798370361
54	172.74683094024658	response	0	2		52.0	2.5	/experiments/knapen_aot/oldvideos/S_yt-GWgG8PVM1iw_34.mp4	0.0	241.79786086082458	
54	172.75509595870972	movie	1		301.0	52.0	2.5	/experiments/knapen_aot/oldvideos/S_yt-GWgG8PVM1iw_34.mp4	0.0	241.80612587928772	2.508347988128662
54	175.26344394683838	fix_post	2		12.0	52.0	2.5	/experiments/knapen_aot/oldvideos/S_yt-GWgG8PVM1iw_34.mp4	0.0	244.31447386741638	0.09982514381408691
55	175.36326909065247	fix_pre	0		59.0	53.0	2.5	/experiments/knapen_aot/oldvideos/S_yt-MUfa26F8dfE_97.mp4	0.0	244.41429901123047	0.49170899391174316
55	175.83920812606812	response	0	2		53.0	2.5	/experiments/knapen_aot/oldvideos/S_yt-MUfa26F8dfE_97.mp4	0.0	244.89023804664612	
55	175.8549780845642	movie	1		301.0	53.0	2.5	/experiments/knapen_aot/oldvideos/S_yt-MUfa26F8dfE_97.mp4	0.0	244.9060080051422	2.5083818435668945
55	178.3633599281311	fix_post	2		12.0	53.0	2.5	/experiments/knapen_aot/oldvideos/S_yt-MUfa26F8dfE_97.mp4	0.0	247.4143898487091	0.10009598731994629
56	178.46345591545105	fix_pre	0		37.0	54.0	2.5	blank	1.0	247.51448583602905	0.30815720558166504
56	178.76348900794983	response	0	2		54.0	2.5	blank	1.0	247.81451892852783	
56	178.77161312103271	movie	1		301.0	54.0	2.5	blank	1.0	247.82264304161072	2.50832200050354
56	181.27993512153625	fix_post	2		12.0	54.0	2.5	blank	1.0	250.33096504211426	0.10019588470458984
57	181.38013100624084	fix_pre	0		68.0	55.0	2.5	/experiments/knapen_aot/oldvideos/S_wc-7ugQ0V4lxYkJ_131.mp4	0.0	250.43116092681885	0.5664899349212646
57	181.93837690353394	response	0	2		55.0	2.5	/experiments/knapen_aot/oldvideos/S_wc-7ugQ0V4lxYkJ_131.mp4	0.0	250.98940682411194	
57	181.9466209411621	movie	1		301.0	55.0	2.5	/experiments/knapen_aot/oldvideos/S_wc-7ugQ0V4lxYkJ_131.mp4	0.0	250.9976508617401	2.508392095565796
57	184.4550130367279	fix_post	2		12.0	55.0	2.5	/experiments/knapen_aot/oldvideos/S_wc-7ugQ0V4lxYkJ_131.mp4	0.0	253.5060429573059	0.09999799728393555
58	184.55501103401184	fix_pre	0		36.0	56.0	2.5	/experiments/knapen_aot/oldvideos/S_ILSVRC2015_train_00495000.mp4	0.0	253.60604095458984	0.2998950481414795
58	184.8466989994049	response	0	2		56.0	2.5	/experiments/knapen_aot/oldvideos/S_ILSVRC2015_train_00495000.mp4	0.0	253.8977289199829	
58	184.85490608215332	movie	1		301.0	56.0	2.5	/experiments/knapen_aot/oldvideos/S_ILSVRC2015_train_00495000.mp4	0.0	253.90593600273132	2.5083930492401123
58	187.36329913139343	fix_post	2		12.0	56.0	2.5	/experiments/knapen_aot/oldvideos/S_ILSVRC2015_train_00495000.mp4	0.0	256.41432905197144	0.10013079643249512
59	187.46342992782593	fix_pre	0		47.0	57.0	2.5	/experiments/knapen_aot/oldvideos/S_yt-4i1b6NQ9NKs_5.mp4	0.0	256.51445984840393	0.39159297943115234
59	187.84678101539612	response	0	2		57.0	2.5	/experiments/knapen_aot/oldvideos/S_yt-4i1b6NQ9NKs_5.mp4	0.0	256.8978109359741	
59	187.85502290725708	movie	1		301.0	57.0	2.5	/experiments/knapen_aot/oldvideos/S_yt-4i1b6NQ9NKs_5.mp4	0.0	256.9060528278351	2.5083022117614746
59	190.36332511901855	fix_post	2		12.0	57.0	2.5	/experiments/knapen_aot/oldvideos/S_yt-4i1b6NQ9NKs_5.mp4	0.0	259.41435503959656	0.10011982917785645
60	190.4634449481964	fix_pre	0		10.0	58.0	2.5	/experiments/knapen_aot/oldvideos/R_S_ILSVRC2015_train_00495000.mp4	0.0	259.5144748687744	0.08322906494140625
60	190.5385091304779	response	0	2		58.0	2.5	/experiments/knapen_aot/oldvideos/R_S_ILSVRC2015_train_00495000.mp4	0.0	259.5895390510559	
60	190.54667401313782	movie	1		301.0	58.0	2.5	/experiments/knapen_aot/oldvideos/R_S_ILSVRC2015_train_00495000.mp4	0.0	259.5977039337158	2.508296012878418
60	193.05497002601624	fix_post	2		12.0	58.0	2.5	/experiments/knapen_aot/oldvideos/R_S_ILSVRC2015_train_00495000.mp4	0.0	262.10599994659424	0.10003995895385742
61	193.1550099849701	fix_pre	0		79.0	59.0	2.5	/experiments/knapen_aot/oldvideos/R_S_ILSVRC2015_train_00411000.mp4	0.0	262.2060399055481	0.6582770347595215
61	193.80512690544128	response	0	2		59.0	2.5	/experiments/knapen_aot/oldvideos/R_S_ILSVRC2015_train_00411000.mp4	0.0	262.8561568260193	
61	193.81328701972961	movie	1		301.0	59.0	2.5	/experiments/knapen_aot/oldvideos/R_S_ILSVRC2015_train_00411000.mp4	0.0	262.8643169403076	2.5083870887756348
61	196.32167410850525	fix_post	2		12.0	59.0	2.5	/experiments/knapen_aot/oldvideos/R_S_ILSVRC2015_train_00411000.mp4	0.0	265.37270402908325	0.10004281997680664
62	196.42171692848206	fix_pre	0		47.0	60.0	2.5	/experiments/knapen_aot/oldvideos/S_ILSVRC2015_train_00411000.mp4	0.0	265.47274684906006	0.39159607887268066
62	196.80507397651672	response	0	2		60.0	2.5	/experiments/knapen_aot/oldvideos/S_ILSVRC2015_train_00411000.mp4	0.0	265.8561038970947	
62	196.81331300735474	movie	1		301.0	60.0	2.5	/experiments/knapen_aot/oldvideos/S_ILSVRC2015_train_00411000.mp4	0.0	265.86434292793274	2.508341073989868
62	199.3216540813446	fix_post	2		12.0	60.0	2.5	/experiments/knapen_aot/oldvideos/S_ILSVRC2015_train_00411000.mp4	0.0	268.3726840019226	0.10008597373962402
63	199.42174005508423	fix_pre	0		26.0	61.0	2.5	/experiments/knapen_aot/oldvideos/R_S_yt-3eQHOLBzOqA_100.mp4	0.0	268.47276997566223	0.21655702590942383
63	199.63001608848572	response	0	2		61.0	2.5	/experiments/knapen_aot/oldvideos/R_S_yt-3eQHOLBzOqA_100.mp4	0.0	268.6810460090637	
63	199.63829708099365	movie	1		301.0	61.0	2.5	/experiments/knapen_aot/oldvideos/R_S_yt-3eQHOLBzOqA_100.mp4	0.0	268.68932700157166	2.508316993713379
63	202.14661407470703	fix_post	2		12.0	61.0	2.5	/experiments/knapen_aot/oldvideos/R_S_yt-3eQHOLBzOqA_100.mp4	0.0	271.19764399528503	0.1000058650970459
64	202.24661993980408	fix_pre	0		167.0	62.0	2.5	/experiments/knapen_aot/oldvideos/R_S_yt-n1snPiGfg0A_45.mp4	0.0	271.2976498603821	1.3916749954223633
64	203.63011693954468	response	0	2		62.0	2.5	/experiments/knapen_aot/oldvideos/R_S_yt-n1snPiGfg0A_45.mp4	0.0	272.6811468601227	
64	203.63829493522644	movie	1		301.0	62.0	2.5	/experiments/knapen_aot/oldvideos/R_S_yt-n1snPiGfg0A_45.mp4	0.0	272.68932485580444	2.508589029312134
64	206.14688396453857	fix_post	2		12.0	62.0	2.5	/experiments/knapen_aot/oldvideos/R_S_yt-n1snPiGfg0A_45.mp4	0.0	275.1979138851166	0.09975314140319824
65	206.24663710594177	fix_pre	0		59.0	63.0	2.5	blank	1.0	275.2976670265198	0.4915308952331543
65	206.7225170135498	response	0	2		63.0	2.5	blank	1.0	275.7735469341278	
65	206.73816800117493	movie	1		301.0	63.0	2.5	blank	1.0	275.78919792175293	2.5083959102630615
65	209.246563911438	fix_post	2		12.0	63.0	2.5	blank	1.0	278.297593832016	0.10017800331115723
66	209.34674191474915	fix_pre	0		24.0	64.0	2.5	/experiments/knapen_aot/oldvideos/R_S_yt-SHTeTAnZgho_43.mp4	0.0	278.39777183532715	0.19988703727722168
66	209.5383129119873	response	0	2		64.0	2.5	/experiments/knapen_aot/oldvideos/R_S_yt-SHTeTAnZgho_43.mp4	0.0	278.5893428325653	
66	209.54662895202637	movie	1		301.0	64.0	2.5	/experiments/knapen_aot/oldvideos/R_S_yt-SHTeTAnZgho_43.mp4	0.0	278.59765887260437	2.508334159851074
66	212.05496311187744	fix_post	2		12.0	64.0	2.5	/experiments/knapen_aot/oldvideos/R_S_yt-SHTeTAnZgho_43.mp4	0.0	281.10599303245544	0.09998488426208496
67	212.15494799613953	fix_pre	0		18.0	65.0	2.5	/experiments/knapen_aot/oldvideos/R_S_ILSVRC2015_train_00371012.mp4	0.0	281.20597791671753	0.14989590644836426
67	212.29670810699463	response	0	2		65.0	2.5	/experiments/knapen_aot/oldvideos/R_S_ILSVRC2015_train_00371012.mp4	0.0	281.34773802757263	
67	212.3048439025879	movie	1		301.0	65.0	2.5	/experiments/knapen_aot/oldvideos/R_S_ILSVRC2015_train_00371012.mp4	0.0	281.3558738231659	2.5084640979766846
67	214.81330800056458	fix_post	2		12.0	65.0	2.5	/experiments/knapen_aot/oldvideos/R_S_ILSVRC2015_train_00371012.mp4	0.0	283.8643379211426	0.09996199607849121
68	214.91326999664307	fix_pre	0		8.0	66.0	2.5	/experiments/knapen_aot/oldvideos/R_S_I003_C004_SDR_2K_AVC.mp4	0.0	283.96429991722107	0.0665750503540039
68	214.97167110443115	response	0	2		66.0	2.5	/experiments/knapen_aot/oldvideos/R_S_I003_C004_SDR_2K_AVC.mp4	0.0	284.02270102500916	
68	214.97984504699707	movie	1		168.0	66.0	2.5	/experiments/knapen_aot/oldvideos/R_S_I003_C004_SDR_2K_AVC.mp4	0.0	284.0308749675751	2.5084969997406006
68	217.48834204673767	fix_post	2		12.0	66.0	2.5	/experiments/knapen_aot/oldvideos/R_S_I003_C004_SDR_2K_AVC.mp4	0.0	286.5393719673157	0.10008692741394043
69	217.5884289741516	fix_pre	0		161.0	67.0	2.5	/experiments/knapen_aot/oldvideos/S_comp_H007_C003_PS_v01_SDR_PS_20180925_SDR_2K_AVC.mp4	0.0	286.6394588947296	1.3415100574493408
69	218.92181491851807	response	0	2		67.0	2.5	/experiments/knapen_aot/oldvideos/S_comp_H007_C003_PS_v01_SDR_PS_20180925_SDR_2K_AVC.mp4	0.0	287.97284483909607	
69	218.92993903160095	movie	1		169.0	67.0	2.5	/experiments/knapen_aot/oldvideos/S_comp_H007_C003_PS_v01_SDR_PS_20180925_SDR_2K_AVC.mp4	0.0	287.98096895217896	2.508354902267456
69	221.4382939338684	fix_post	2		12.0	67.0	2.5	/experiments/knapen_aot/oldvideos/S_comp_H007_C003_PS_v01_SDR_PS_20180925_SDR_2K_AVC.mp4	0.0	290.4893238544464	0.10002398490905762
70	221.53831791877747	fix_pre	0		16.0	68.0	2.5	/experiments/knapen_aot/oldvideos/S_yt-Fdv-V--QlR0_117.mp4	0.0	290.58934783935547	0.13322710990905762
70	221.66342496871948	response	0	2		68.0	2.5	/experiments/knapen_aot/oldvideos/S_yt-Fdv-V--QlR0_117.mp4	0.0	290.7144548892975	
70	221.67154502868652	movie	1		301.0	68.0	2.5	/experiments/knapen_aot/oldvideos/S_yt-Fdv-V--QlR0_117.mp4	0.0	290.7225749492645	2.5084068775177
70	224.17995190620422	fix_post	2		12.0	68.0	2.5	/experiments/knapen_aot/oldvideos/S_yt-Fdv-V--QlR0_117.mp4	0.0	293.2309818267822	0.09998106956481934
71	224.27993297576904	fix_pre	0		18.0	69.0	2.5	/experiments/knapen_aot/oldvideos/S_ILSVRC2015_train_00613000.mp4	0.0	293.33096289634705	0.1499919891357422
71	224.4217209815979	response	0	2		69.0	2.5	/experiments/knapen_aot/oldvideos/S_ILSVRC2015_train_00613000.mp4	0.0	293.4727509021759	
71	224.42992496490479	movie	1		301.0	69.0	2.5	/experiments/knapen_aot/oldvideos/S_ILSVRC2015_train_00613000.mp4	0.0	293.4809548854828	2.508345127105713
71	226.9382700920105	fix_post	2		12.0	69.0	2.5	/experiments/knapen_aot/oldvideos/S_ILSVRC2015_train_00613000.mp4	0.0	295.9893000125885	0.09997200965881348
72	227.0382421016693	fix_pre	0		19.0	70.0	2.5	blank	1.0	296.0892720222473	0.15830183029174805
72	227.18828010559082	response	0	2		70.0	2.5	blank	1.0	296.2393100261688	
72	227.19654393196106	movie	1		301.0	70.0	2.5	blank	1.0	296.24757385253906	2.5083751678466797
72	229.70491909980774	fix_post	2		12.0	70.0	2.5	blank	1.0	298.75594902038574	0.09994792938232422
73	229.80486702919006	fix_pre	0		32.0	71.0	2.5	/experiments/knapen_aot/oldvideos/S_yt-738MRS0yI6g_177.mp4	0.0	298.85589694976807	0.26677894592285156
73	230.06330704689026	response	0	2		71.0	2.5	/experiments/knapen_aot/oldvideos/S_yt-738MRS0yI6g_177.mp4	0.0	299.11433696746826	
73	230.07164597511292	movie	1		301.0	71.0	2.5	/experiments/knapen_aot/oldvideos/S_yt-738MRS0yI6g_177.mp4	0.0	299.1226758956909	2.508345127105713
73	232.57999110221863	fix_post	2		12.0	71.0	2.5	/experiments/knapen_aot/oldvideos/S_yt-738MRS0yI6g_177.mp4	0.0	301.63102102279663	0.09996581077575684
74	232.67995691299438	fix_pre	0		38.0	72.0	2.5	/experiments/knapen_aot/oldvideos/S_yt-D6fhzH21T_E_26.mp4	0.0	301.7309868335724	0.31673407554626465
74	232.98837804794312	response	0	2		72.0	2.5	/experiments/knapen_aot/oldvideos/S_yt-D6fhzH21T_E_26.mp4	0.0	302.0394079685211	
74	232.99669098854065	movie	1		301.0	72.0	2.5	/experiments/knapen_aot/oldvideos/S_yt-D6fhzH21T_E_26.mp4	0.0	302.04772090911865	2.5082809925079346
74	235.50497198104858	fix_post	2		12.0	72.0	2.5	/experiments/knapen_aot/oldvideos/S_yt-D6fhzH21T_E_26.mp4	0.0	304.5560019016266	0.10001611709594727
75	235.60498809814453	fix_pre	0		43.0	73.0	2.5	/experiments/knapen_aot/oldvideos/R_S_ILSVRC2015_train_00425000.mp4	0.0	304.65601801872253	0.35825586318969727
75	235.95508790016174	response	0	2		73.0	2.5	/experiments/knapen_aot/oldvideos/R_S_ILSVRC2015_train_00425000.mp4	0.0	305.00611782073975	
75	235.96324396133423	movie	1		301.0	73.0	2.5	/experiments/knapen_aot/oldvideos/R_S_ILSVRC2015_train_00425000.mp4	0.0	305.01427388191223	2.508316993713379
75	238.4715609550476	fix_post	2		12.0	73.0	2.5	/experiments/knapen_aot/oldvideos/R_S_ILSVRC2015_train_00425000.mp4	0.0	307.5225908756256	0.10020804405212402
76	238.57176899909973	fix_pre	0		31.0	74.0	2.5	/experiments/knapen_aot/oldvideos/R_S_yt-nE8YJOhW4e4_171.mp4	0.0	307.62279891967773	0.258134126663208
76	238.82160210609436	response	0	2		74.0	2.5	/experiments/knapen_aot/oldvideos/R_S_yt-nE8YJOhW4e4_171.mp4	0.0	307.87263202667236	
76	238.82990312576294	movie	1		301.0	74.0	2.5	/experiments/knapen_aot/oldvideos/R_S_yt-nE8YJOhW4e4_171.mp4	0.0	307.88093304634094	2.5083677768707275
76	241.33827090263367	fix_post	2		12.0	74.0	2.5	/experiments/knapen_aot/oldvideos/R_S_yt-nE8YJOhW4e4_171.mp4	0.0	310.38930082321167	0.09998321533203125
77	241.4382541179657	fix_pre	0		137.0	75.0	2.5	/experiments/knapen_aot/oldvideos/S_ILSVRC2015_train_00568002.mp4	0.0	310.4892840385437	1.1429338455200195
77	242.57167291641235	response	0	2		75.0	2.5	/experiments/knapen_aot/oldvideos/S_ILSVRC2015_train_00568002.mp4	0.0	311.62270283699036	
77	242.58118796348572	movie	1		301.0	75.0	2.5	/experiments/knapen_aot/oldvideos/S_ILSVRC2015_train_00568002.mp4	0.0	311.6322178840637	2.507200002670288
77	245.088387966156	fix_post	2		12.0	75.0	2.5	/experiments/knapen_aot/oldvideos/S_ILSVRC2015_train_00568002.mp4	0.0	314.139417886734	0.09984803199768066
78	245.1882359981537	fix_pre	0		29.0	76.0	2.5	/experiments/knapen_aot/oldvideos/R_S_Nh81j72Utbs_5.mp4	0.0	314.2392659187317	0.241624116897583
78	245.42162990570068	response	0	2		76.0	2.5	/experiments/knapen_aot/oldvideos/R_S_Nh81j72Utbs_5.mp4	0.0	314.4726598262787	
78	245.42986011505127	movie	1		301.0	76.0	2.5	/experiments/knapen_aot/oldvideos/R_S_Nh81j72Utbs_5.mp4	0.0	314.4808900356293	2.5083839893341064
78	247.93824410438538	fix_post	2		12.0	76.0	2.5	/experiments/knapen_aot/oldvideos/R_S_Nh81j72Utbs_5.mp4	0.0	316.9892740249634	0.09997391700744629
79	248.03821802139282	fix_pre	0		15.0	77.0	2.5	blank	1.0	317.0892479419708	0.12488889694213867
79	248.15501499176025	response	0	2		77.0	2.5	blank	1.0	317.20604491233826	
79	248.16310691833496	movie	1		301.0	77.0	2.5	blank	1.0	317.21413683891296	2.508395195007324
79	250.21326994895935	response	1	2		77.0	2.5	blank	1.0	319.26429986953735	
79	250.67150211334229	fix_post	2		12.0	77.0	2.5	blank	1.0	319.7225320339203	0.1001288890838623
80	250.77163100242615	fix_pre	0		56.0	78.0	2.5	/experiments/knapen_aot/oldvideos/S_yt-wE0cEswyaaM_53.mp4	0.0	319.82266092300415	0.4665510654449463
80	251.22995591163635	response	0	2		78.0	2.5	/experiments/knapen_aot/oldvideos/S_yt-wE0cEswyaaM_53.mp4	0.0	320.28098583221436	
80	251.2381820678711	movie	1		301.0	78.0	2.5	/experiments/knapen_aot/oldvideos/S_yt-wE0cEswyaaM_53.mp4	0.0	320.2892119884491	2.508404016494751
80	253.74658608436584	fix_post	2		12.0	78.0	2.5	/experiments/knapen_aot/oldvideos/S_yt-wE0cEswyaaM_53.mp4	0.0	322.79761600494385	0.09999489784240723
81	253.84658098220825	fix_pre	0		108.0	79.0	2.5	/experiments/knapen_aot/oldvideos/S_ILSVRC2015_train_00371012.mp4	0.0	322.89761090278625	0.9010779857635498
81	254.73841905593872	response	0	2		79.0	2.5	/experiments/knapen_aot/oldvideos/S_ILSVRC2015_train_00371012.mp4	0.0	323.7894489765167	
81	254.7476589679718	movie	1		301.0	79.0	2.5	/experiments/knapen_aot/oldvideos/S_ILSVRC2015_train_00371012.mp4	0.0	323.7986888885498	2.5072710514068604
81	257.25493001937866	fix_post	2		12.0	79.0	2.5	/experiments/knapen_aot/oldvideos/S_ILSVRC2015_train_00371012.mp4	0.0	326.30595993995667	0.10006189346313477
82	257.3549919128418	fix_pre	0		88.0	80.0	2.5	/experiments/knapen_aot/oldvideos/S_b5-3.mp4	0.0	326.4060218334198	0.7332401275634766
82	258.0800518989563	response	0	4		80.0	2.5	/experiments/knapen_aot/oldvideos/S_b5-3.mp4	0.0	327.1310818195343	
82	258.0882320404053	movie	1		165.0	80.0	2.5	/experiments/knapen_aot/oldvideos/S_b5-3.mp4	0.0	327.1392619609833	2.5083720684051514
82	260.5966041088104	fix_post	2		12.0	80.0	2.5	/experiments/knapen_aot/oldvideos/S_b5-3.mp4	0.0	329.6476340293884	0.09987688064575195
83	260.6964809894562	fix_pre	0		145.0	81.0	2.5	/experiments/knapen_aot/oldvideos/R_S_yt-AuQ_WxaNy4Y_255.mp4	0.0	329.7475109100342	1.2083289623260498
83	261.88927006721497	response	0	4		81.0	2.5	/experiments/knapen_aot/oldvideos/R_S_yt-AuQ_WxaNy4Y_255.mp4	0.0	330.94029998779297	
83	261.9048099517822	movie	1		301.0	81.0	2.5	/experiments/knapen_aot/oldvideos/R_S_yt-AuQ_WxaNy4Y_255.mp4	0.0	330.95583987236023	2.5084149837493896
83	264.4132249355316	fix_post	2		12.0	81.0	2.5	/experiments/knapen_aot/oldvideos/R_S_yt-AuQ_WxaNy4Y_255.mp4	0.0	333.4642548561096	0.09994006156921387
84	264.51316499710083	fix_pre	0		141.0	82.0	2.5	blank	1.0	333.56419491767883	1.1749730110168457
84	265.67988300323486	response	0	4		82.0	2.5	blank	1.0	334.73091292381287	
84	265.6881380081177	movie	1		301.0	82.0	2.5	blank	1.0	334.7391679286957	2.5083940029144287
84	268.1965320110321	fix_post	2		12.0	82.0	2.5	blank	1.0	337.2475619316101	0.10003805160522461
85	268.29657006263733	fix_pre	0		55.0	83.0	2.5	/experiments/knapen_aot/oldvideos/R_S_yt-Xq6uX1jfFRk_21.mp4	0.0	337.34759998321533	0.45821595191955566
85	268.73908400535583	response	0	4		83.0	2.5	/experiments/knapen_aot/oldvideos/R_S_yt-Xq6uX1jfFRk_21.mp4	0.0	337.79011392593384	
85	268.7547860145569	movie	1		301.0	83.0	2.5	/experiments/knapen_aot/oldvideos/R_S_yt-Xq6uX1jfFRk_21.mp4	0.0	337.8058159351349	2.5084290504455566
85	271.26321506500244	fix_post	2		12.0	83.0	2.5	/experiments/knapen_aot/oldvideos/R_S_yt-Xq6uX1jfFRk_21.mp4	0.0	340.31424498558044	0.09998583793640137
87	271.36320090293884	stim	0		240.0					340.41423082351685	1.999908208847046
87	273.35574412345886	response	0	space						342.40677404403687	
