trial_nr	onset	event_type	phase	response	nr_frames	movie_index	movie_duration	movie_file	blank	onset_abs	duration
0	0.13176798820495605	stim	0		88.0					64.97331094741821	0.733381986618042
0	0.3247239589691162	response	0	escape						65.16626691818237	
0	0.8568499088287354	response	0	space						65.69839286804199	
1	0.865149974822998	stim	0		121.0					65.70669293403625	1.0079259872436523
1	1.756566047668457	response	0	space						66.59810900688171	
1	1.8730759620666504	stim	1		120.0					66.71461892127991	1.0013229846954346
1	2.5065040588378906	response	1	space						67.34804701805115	
2	2.874398946762085	fix_pre	0		12.0	0.0	2.5	/experiments/knapen_aot/videos/R_S_WCwb-DeQOSg_85.mp4	0.0	67.71594190597534	0.09872007369995117
2	2.964843988418579	response	0	space		0.0	2.5	/experiments/knapen_aot/videos/R_S_WCwb-DeQOSg_85.mp4	0.0	67.80638694763184	
2	2.973119020462036	movie	1		301.0	0.0	2.5	/experiments/knapen_aot/videos/R_S_WCwb-DeQOSg_85.mp4	0.0	67.8146619796753	2.5083210468292236
2	5.48144006729126	fix_post	2		12.0	0.0	2.5	/experiments/knapen_aot/videos/R_S_WCwb-DeQOSg_85.mp4	0.0	70.32298302650452	0.09992384910583496
3	5.581363916397095	fix_pre	0		61.0	1.0	2.5	/experiments/knapen_aot/videos/R_S_pexels-tima-miroshnichenko-5717005.mp4	0.0	70.42290687561035	0.5083811283111572
3	6.083714962005615	response	0	2		1.0	2.5	/experiments/knapen_aot/videos/R_S_pexels-tima-miroshnichenko-5717005.mp4	0.0	70.92525792121887	
3	6.089745044708252	movie	1		165.0	1.0	2.5	/experiments/knapen_aot/videos/R_S_pexels-tima-miroshnichenko-5717005.mp4	0.0	70.93128800392151	2.5083000659942627
3	8.598045110702515	fix_post	2		12.0	1.0	2.5	/experiments/knapen_aot/videos/R_S_pexels-tima-miroshnichenko-5717005.mp4	0.0	73.43958806991577	0.09995484352111816
4	8.697999954223633	fix_pre	0		11.0	2.0	2.5	/experiments/knapen_aot/videos/S_yt-D_f3_HIXG2g_87.mp4	0.0	73.53954291343689	0.09291601181030273
4	8.781556129455566	response	0	2		2.0	2.5	/experiments/knapen_aot/videos/S_yt-D_f3_HIXG2g_87.mp4	0.0	73.62309908866882	
4	8.790915966033936	movie	1		301.0	2.0	2.5	/experiments/knapen_aot/videos/S_yt-D_f3_HIXG2g_87.mp4	0.0	73.63245892524719	2.507153034210205
4	11.29806900024414	fix_post	2		12.0	2.0	2.5	/experiments/knapen_aot/videos/S_yt-D_f3_HIXG2g_87.mp4	0.0	76.1396119594574	0.0999901294708252
5	11.398059129714966	fix_pre	0		15.0	3.0	2.5	/experiments/knapen_aot/videos/S_yt-H-qQ0oE1kwM_6.mp4	0.0	76.23960208892822	0.12499499320983887
5	11.514795064926147	response	0	2		3.0	2.5	/experiments/knapen_aot/videos/S_yt-H-qQ0oE1kwM_6.mp4	0.0	76.3563380241394	
5	11.523054122924805	movie	1		297.0	3.0	2.5	/experiments/knapen_aot/videos/S_yt-H-qQ0oE1kwM_6.mp4	0.0	76.36459708213806	2.5082337856292725
5	14.031287908554077	fix_post	2		12.0	3.0	2.5	/experiments/knapen_aot/videos/S_yt-H-qQ0oE1kwM_6.mp4	0.0	78.87283086776733	0.10008120536804199
6	14.13136911392212	fix_pre	0		23.0	4.0	2.5	/experiments/knapen_aot/videos/R_S_yt-IX6uxR5DSKk_2.mp4	0.0	78.97291207313538	0.1916639804840088
6	14.314894914627075	response	0	2		4.0	2.5	/experiments/knapen_aot/videos/R_S_yt-IX6uxR5DSKk_2.mp4	0.0	79.15643787384033	
6	14.323033094406128	movie	1		301.0	4.0	2.5	/experiments/knapen_aot/videos/R_S_yt-IX6uxR5DSKk_2.mp4	0.0	79.16457605361938	2.508280038833618
6	16.831313133239746	fix_post	2		12.0	4.0	2.5	/experiments/knapen_aot/videos/R_S_yt-IX6uxR5DSKk_2.mp4	0.0	81.672856092453	0.1000678539276123
7	16.93138098716736	fix_pre	0		29.0	5.0	2.5	blank	1.0	81.77292394638062	0.24178409576416016
7	17.1648530960083	response	0	2		5.0	2.5	blank	1.0	82.00639605522156	
7	17.17316508293152	movie	1		301.0	5.0	2.5	blank	1.0	82.01470804214478	2.5081558227539062
7	19.681320905685425	fix_post	2		12.0	5.0	2.5	blank	1.0	84.52286386489868	0.09996914863586426
8	19.78129005432129	fix_pre	0		18.0	6.0	2.5	/experiments/knapen_aot/videos/R_S_ILSVRC2015_train_00551000.mp4	0.0	84.62283301353455	0.150068998336792
8	19.923125982284546	response	0	2		6.0	2.5	/experiments/knapen_aot/videos/R_S_ILSVRC2015_train_00551000.mp4	0.0	84.7646689414978	
8	19.93135905265808	movie	1		301.0	6.0	2.5	/experiments/knapen_aot/videos/R_S_ILSVRC2015_train_00551000.mp4	0.0	84.77290201187134	2.508336067199707
8	22.439695119857788	fix_post	2		12.0	6.0	2.5	/experiments/knapen_aot/videos/R_S_ILSVRC2015_train_00551000.mp4	0.0	87.28123807907104	0.10000395774841309
9	22.5396990776062	fix_pre	0		16.0	7.0	2.5	/experiments/knapen_aot/videos/S_yt-D9uD7yM6bxQ_269.mp4	0.0	87.38124203681946	0.13327789306640625
9	22.664803981781006	response	0	2		7.0	2.5	/experiments/knapen_aot/videos/S_yt-D9uD7yM6bxQ_269.mp4	0.0	87.50634694099426	
9	22.672976970672607	movie	1		300.0	7.0	2.5	/experiments/knapen_aot/videos/S_yt-D9uD7yM6bxQ_269.mp4	0.0	87.51451992988586	2.5083489418029785
9	25.181325912475586	fix_post	2		12.0	7.0	2.5	/experiments/knapen_aot/videos/S_yt-D9uD7yM6bxQ_269.mp4	0.0	90.02286887168884	0.09995818138122559
10	25.28128409385681	fix_pre	0		8.0	8.0	2.5	/experiments/knapen_aot/videos/S_yt-wrxk7fFkxHg_177.mp4	0.0	90.12282705307007	0.06672501564025879
10	25.339793920516968	response	0	2		8.0	2.5	/experiments/knapen_aot/videos/S_yt-wrxk7fFkxHg_177.mp4	0.0	90.18133687973022	
10	25.34800910949707	movie	1		301.0	8.0	2.5	/experiments/knapen_aot/videos/S_yt-wrxk7fFkxHg_177.mp4	0.0	90.18955206871033	2.5082778930664062
10	27.856287002563477	fix_post	2		12.0	8.0	2.5	/experiments/knapen_aot/videos/S_yt-wrxk7fFkxHg_177.mp4	0.0	92.69782996177673	0.0999751091003418
11	27.95626211166382	fix_pre	0		16.0	9.0	2.5	/experiments/knapen_aot/videos/R_S_yt-BLmwmX-mni8_56.mp4	0.0	92.79780507087708	0.133375883102417
11	28.081406116485596	response	0	2		9.0	2.5	/experiments/knapen_aot/videos/R_S_yt-BLmwmX-mni8_56.mp4	0.0	92.92294907569885	
11	28.089637994766235	movie	1		301.0	9.0	2.5	/experiments/knapen_aot/videos/R_S_yt-BLmwmX-mni8_56.mp4	0.0	92.93118095397949	2.508315086364746
11	30.59795308113098	fix_post	2		12.0	9.0	2.5	/experiments/knapen_aot/videos/R_S_yt-BLmwmX-mni8_56.mp4	0.0	95.43949604034424	0.10003805160522461
12	30.697991132736206	fix_pre	0		9.0	10.0	2.5	/experiments/knapen_aot/videos/R_S_PA_A004_C003_SDR_20190719_SDR_2K_AVC.mp4	0.0	95.53953409194946	0.0749659538269043
12	30.764763116836548	response	0	2		10.0	2.5	/experiments/knapen_aot/videos/R_S_PA_A004_C003_SDR_20190719_SDR_2K_AVC.mp4	0.0	95.6063060760498	
12	30.77295708656311	movie	1		168.0	10.0	2.5	/experiments/knapen_aot/videos/R_S_PA_A004_C003_SDR_20190719_SDR_2K_AVC.mp4	0.0	95.61450004577637	2.5083580017089844
12	33.281315088272095	fix_post	2		12.0	10.0	2.5	/experiments/knapen_aot/videos/R_S_PA_A004_C003_SDR_20190719_SDR_2K_AVC.mp4	0.0	98.12285804748535	0.09996986389160156
13	33.381284952163696	fix_pre	0		5.0	11.0	2.5	/experiments/knapen_aot/videos/S_yt-vDjj0EWFdIU_49.mp4	0.0	98.22282791137695	0.04169416427612305
13	33.41482496261597	response	0	2		11.0	2.5	/experiments/knapen_aot/videos/S_yt-vDjj0EWFdIU_49.mp4	0.0	98.25636792182922	
13	33.42297911643982	movie	1		301.0	11.0	2.5	/experiments/knapen_aot/videos/S_yt-vDjj0EWFdIU_49.mp4	0.0	98.26452207565308	2.508269786834717
13	35.931248903274536	fix_post	2		12.0	11.0	2.5	/experiments/knapen_aot/videos/S_yt-vDjj0EWFdIU_49.mp4	0.0	100.7727918624878	0.1000680923461914
14	36.03131699562073	fix_pre	0		16.0	12.0	2.5	/experiments/knapen_aot/videos/S_yt-BLmwmX-mni8_56.mp4	0.0	100.87285995483398	0.13440394401550293
14	36.15640711784363	response	0	2		12.0	2.5	/experiments/knapen_aot/videos/S_yt-BLmwmX-mni8_56.mp4	0.0	100.99795007705688	
14	36.16572093963623	movie	1		301.0	12.0	2.5	/experiments/knapen_aot/videos/S_yt-BLmwmX-mni8_56.mp4	0.0	101.00726389884949	2.5072059631347656
14	38.672926902770996	fix_post	2		12.0	12.0	2.5	/experiments/knapen_aot/videos/S_yt-BLmwmX-mni8_56.mp4	0.0	103.51446986198425	0.09996914863586426
15	38.77289605140686	fix_pre	0		24.0	13.0	2.5	/experiments/knapen_aot/videos/R_S_yt-i3-YlGenYmk_411.mp4	0.0	103.61443901062012	0.20005202293395996
15	38.957112073898315	response	0	2		13.0	2.5	/experiments/knapen_aot/videos/R_S_yt-i3-YlGenYmk_411.mp4	0.0	103.79865503311157	
15	38.97294807434082	movie	1		301.0	13.0	2.5	/experiments/knapen_aot/videos/R_S_yt-i3-YlGenYmk_411.mp4	0.0	103.81449103355408	2.5083000659942627
15	41.48124814033508	fix_post	2		12.0	13.0	2.5	/experiments/knapen_aot/videos/R_S_yt-i3-YlGenYmk_411.mp4	0.0	106.32279109954834	0.10001492500305176
16	41.581263065338135	fix_pre	0		8.0	14.0	2.5	blank	1.0	106.42280602455139	0.06667089462280273
16	41.6397750377655	response	0	2		14.0	2.5	blank	1.0	106.48131799697876	
16	41.64793395996094	movie	1		301.0	14.0	2.5	blank	1.0	106.4894769191742	2.508352041244507
16	44.156286001205444	fix_post	2		12.0	14.0	2.5	blank	1.0	108.9978289604187	0.09992694854736328
17	44.25621294975281	fix_pre	0		29.0	15.0	2.5	/experiments/knapen_aot/videos/S_yt-D_f3_HIXG2g_87.mp4	0.0	109.09775590896606	0.24274611473083496
17	44.48967099189758	response	0	2		15.0	2.5	/experiments/knapen_aot/videos/S_yt-D_f3_HIXG2g_87.mp4	0.0	109.33121395111084	
17	44.49895906448364	movie	1		301.0	15.0	2.5	/experiments/knapen_aot/videos/S_yt-D_f3_HIXG2g_87.mp4	0.0	109.3405020236969	2.5072219371795654
17	47.00618100166321	fix_post	2		12.0	15.0	2.5	/experiments/knapen_aot/videos/S_yt-D_f3_HIXG2g_87.mp4	0.0	111.84772396087646	0.10001993179321289
18	47.10620093345642	fix_pre	0		21.0	16.0	2.5	/experiments/knapen_aot/videos/S_ILSVRC2015_train_00551000.mp4	0.0	111.94774389266968	0.17496800422668457
18	47.27304005622864	response	0	2		16.0	2.5	/experiments/knapen_aot/videos/S_ILSVRC2015_train_00551000.mp4	0.0	112.1145830154419	
18	47.281168937683105	movie	1		300.0	16.0	2.5	/experiments/knapen_aot/videos/S_ILSVRC2015_train_00551000.mp4	0.0	112.12271189689636	2.5083611011505127
18	49.78953003883362	fix_post	2		12.0	16.0	2.5	/experiments/knapen_aot/videos/S_ILSVRC2015_train_00551000.mp4	0.0	114.63107299804688	0.10006999969482422
19	49.88960003852844	fix_pre	0		12.0	17.0	2.5	/experiments/knapen_aot/videos/R_S_yt-2WPmM2vIuBE_41.mp4	0.0	114.7311429977417	0.09993410110473633
19	49.981334924697876	response	0	2		17.0	2.5	/experiments/knapen_aot/videos/R_S_yt-2WPmM2vIuBE_41.mp4	0.0	114.82287788391113	
19	49.98953413963318	movie	1		301.0	17.0	2.5	/experiments/knapen_aot/videos/R_S_yt-2WPmM2vIuBE_41.mp4	0.0	114.83107709884644	2.5083048343658447
19	52.49783897399902	fix_post	2		12.0	17.0	2.5	/experiments/knapen_aot/videos/R_S_yt-2WPmM2vIuBE_41.mp4	0.0	117.33938193321228	0.10001707077026367
20	52.59785604476929	fix_pre	0		13.0	18.0	2.5	/experiments/knapen_aot/videos/R_S_yt-UKrWbJEs7pw_74.mp4	0.0	117.43939900398254	0.10932803153991699
20	52.69803500175476	response	0	2		18.0	2.5	/experiments/knapen_aot/videos/R_S_yt-UKrWbJEs7pw_74.mp4	0.0	117.53957796096802	
20	52.707184076309204	movie	1		301.0	18.0	2.5	/experiments/knapen_aot/videos/R_S_yt-UKrWbJEs7pw_74.mp4	0.0	117.54872703552246	2.507340908050537
20	55.21452498435974	fix_post	2		12.0	18.0	2.5	/experiments/knapen_aot/videos/R_S_yt-UKrWbJEs7pw_74.mp4	0.0	120.056067943573	0.1000361442565918
21	55.31456112861633	fix_pre	0		11.0	19.0	2.5	blank	1.0	120.15610408782959	0.09166097640991211
21	55.398109912872314	response	0	2		19.0	2.5	blank	1.0	120.23965287208557	
21	55.406222105026245	movie	1		301.0	19.0	2.5	blank	1.0	120.2477650642395	2.508241891860962
21	57.91446399688721	fix_post	2		12.0	19.0	2.5	blank	1.0	122.75600695610046	0.10015296936035156
22	58.01461696624756	fix_pre	0		33.0	20.0	2.5	/experiments/knapen_aot/videos/S_ILSVRC2015_train_00682005.mp4	0.0	122.85615992546082	0.27594494819641113
22	58.28127908706665	response	0	2		20.0	2.5	/experiments/knapen_aot/videos/S_ILSVRC2015_train_00682005.mp4	0.0	123.12282204627991	
22	58.29056191444397	movie	1		298.0	20.0	2.5	/experiments/knapen_aot/videos/S_ILSVRC2015_train_00682005.mp4	0.0	123.13210487365723	2.507261037826538
22	60.79782295227051	fix_post	2		12.0	20.0	2.5	/experiments/knapen_aot/videos/S_ILSVRC2015_train_00682005.mp4	0.0	125.63936591148376	0.10002398490905762
23	60.897846937179565	fix_pre	0		28.0	21.0	2.5	/experiments/knapen_aot/videos/S_yt-rB3YVZvA78w_20.mp4	0.0	125.73938989639282	0.2333359718322754
23	61.1229989528656	response	0	2		21.0	2.5	/experiments/knapen_aot/videos/S_yt-rB3YVZvA78w_20.mp4	0.0	125.96454191207886	
23	61.13118290901184	movie	1		301.0	21.0	2.5	/experiments/knapen_aot/videos/S_yt-rB3YVZvA78w_20.mp4	0.0	125.9727258682251	2.508327007293701
23	63.63950991630554	fix_post	2		12.0	21.0	2.5	/experiments/knapen_aot/videos/S_yt-rB3YVZvA78w_20.mp4	0.0	128.4810528755188	0.09993815422058105
24	63.73944807052612	fix_pre	0		10.0	22.0	2.5	/experiments/knapen_aot/videos/R_S_yt-STL3ejY9u_Q_73.mp4	0.0	128.58099102973938	0.08577585220336914
24	63.81489706039429	response	0	2		22.0	2.5	/experiments/knapen_aot/videos/R_S_yt-STL3ejY9u_Q_73.mp4	0.0	128.65644001960754	
24	63.82522392272949	movie	1		301.0	22.0	2.5	/experiments/knapen_aot/videos/R_S_yt-STL3ejY9u_Q_73.mp4	0.0	128.66676688194275	2.5059571266174316
24	66.33118104934692	fix_post	2		12.0	22.0	2.5	/experiments/knapen_aot/videos/R_S_yt-STL3ejY9u_Q_73.mp4	0.0	131.17272400856018	0.09995007514953613
25	66.43113112449646	fix_pre	0		12.0	23.0	2.5	/experiments/knapen_aot/videos/S_yt-K_gHa2x2OQA_319.mp4	0.0	131.27267408370972	0.10002493858337402
25	66.52288103103638	response	0	2		23.0	2.5	/experiments/knapen_aot/videos/S_yt-K_gHa2x2OQA_319.mp4	0.0	131.36442399024963	
25	66.53115606307983	movie	1		301.0	23.0	2.5	/experiments/knapen_aot/videos/S_yt-K_gHa2x2OQA_319.mp4	0.0	131.3726990222931	2.508328914642334
25	69.03948497772217	fix_post	2		12.0	23.0	2.5	/experiments/knapen_aot/videos/S_yt-K_gHa2x2OQA_319.mp4	0.0	133.88102793693542	0.09999513626098633
26	69.13948011398315	fix_pre	0		25.0	24.0	2.5	/experiments/knapen_aot/videos/S_FZ0hLmjCR0s_26.mp4	0.0	133.9810230731964	0.20832586288452148
26	69.33204293251038	response	0	2		24.0	2.5	/experiments/knapen_aot/videos/S_FZ0hLmjCR0s_26.mp4	0.0	134.17358589172363	
26	69.34780597686768	movie	1		301.0	24.0	2.5	/experiments/knapen_aot/videos/S_FZ0hLmjCR0s_26.mp4	0.0	134.18934893608093	2.5082430839538574
26	71.85604906082153	fix_post	2		12.0	24.0	2.5	/experiments/knapen_aot/videos/S_FZ0hLmjCR0s_26.mp4	0.0	136.6975920200348	0.10006999969482422
27	71.95611906051636	fix_pre	0		9.0	25.0	2.5	/experiments/knapen_aot/videos/R_S_yt-G_eNNzNB-hU_1.mp4	0.0	136.79766201972961	0.07500386238098145
27	72.02289891242981	response	0	2		25.0	2.5	/experiments/knapen_aot/videos/R_S_yt-G_eNNzNB-hU_1.mp4	0.0	136.86444187164307	
27	72.03112292289734	movie	1		301.0	25.0	2.5	/experiments/knapen_aot/videos/R_S_yt-G_eNNzNB-hU_1.mp4	0.0	136.8726658821106	2.5083281993865967
27	74.53945112228394	fix_post	2		12.0	25.0	2.5	/experiments/knapen_aot/videos/R_S_yt-G_eNNzNB-hU_1.mp4	0.0	139.3809940814972	0.10000395774841309
28	74.63945508003235	fix_pre	0		53.0	26.0	2.5	blank	1.0	139.4809980392456	0.44255900382995605
28	75.07289791107178	response	0	2		26.0	2.5	blank	1.0	139.91444087028503	
28	75.0820140838623	movie	1		301.0	26.0	2.5	blank	1.0	139.92355704307556	2.5074150562286377
28	77.58942914009094	fix_post	2		12.0	26.0	2.5	blank	1.0	142.4309720993042	0.10002779960632324
29	77.68945693969727	fix_pre	0		27.0	27.0	2.5	/experiments/knapen_aot/videos/R_S_yt-z16pdVTZK1o_3.mp4	0.0	142.53099989891052	0.22585201263427734
29	77.90621590614319	response	0	2		27.0	2.5	/experiments/knapen_aot/videos/R_S_yt-z16pdVTZK1o_3.mp4	0.0	142.74775886535645	
29	77.91530895233154	movie	1		301.0	27.0	2.5	/experiments/knapen_aot/videos/R_S_yt-z16pdVTZK1o_3.mp4	0.0	142.7568519115448	2.5074801445007324
29	80.42278909683228	fix_post	2		12.0	27.0	2.5	/experiments/knapen_aot/videos/R_S_yt-z16pdVTZK1o_3.mp4	0.0	145.26433205604553	0.09999489784240723
30	80.52278399467468	fix_pre	0		29.0	28.0	2.5	/experiments/knapen_aot/videos/S_yt-zSSnQYeO_DE_338.mp4	0.0	145.36432695388794	0.24161505699157715
30	80.75631093978882	response	0	2		28.0	2.5	/experiments/knapen_aot/videos/S_yt-zSSnQYeO_DE_338.mp4	0.0	145.59785389900208	
30	80.76439905166626	movie	1		299.0	28.0	2.5	/experiments/knapen_aot/videos/S_yt-zSSnQYeO_DE_338.mp4	0.0	145.60594201087952	2.508288860321045
30	83.2726879119873	fix_post	2		12.0	28.0	2.5	/experiments/knapen_aot/videos/S_yt-zSSnQYeO_DE_338.mp4	0.0	148.11423087120056	0.10005307197570801
31	83.37274098396301	fix_pre	0		18.0	29.0	2.5	/experiments/knapen_aot/videos/R_S_yt-HFiRYTnMZxE_338.mp4	0.0	148.21428394317627	0.14997315406799316
31	83.51454305648804	response	0	2		29.0	2.5	/experiments/knapen_aot/videos/R_S_yt-HFiRYTnMZxE_338.mp4	0.0	148.3560860157013	
31	83.522714138031	movie	1		301.0	29.0	2.5	/experiments/knapen_aot/videos/R_S_yt-HFiRYTnMZxE_338.mp4	0.0	148.36425709724426	2.5083727836608887
31	86.0310869216919	fix_post	2		12.0	29.0	2.5	/experiments/knapen_aot/videos/R_S_yt-HFiRYTnMZxE_338.mp4	0.0	150.87262988090515	0.09995317459106445
32	86.13104009628296	fix_pre	0		12.0	30.0	2.5	/experiments/knapen_aot/videos/R_S_yt-PYHK810V_n8_1375.mp4	0.0	150.97258305549622	0.09997701644897461
32	86.22277903556824	response	0	2		30.0	2.5	/experiments/knapen_aot/videos/R_S_yt-PYHK810V_n8_1375.mp4	0.0	151.0643219947815	
32	86.23101711273193	movie	1		301.0	30.0	2.5	/experiments/knapen_aot/videos/R_S_yt-PYHK810V_n8_1375.mp4	0.0	151.0725600719452	2.5083580017089844
32	88.73937511444092	fix_post	2		12.0	30.0	2.5	/experiments/knapen_aot/videos/R_S_yt-PYHK810V_n8_1375.mp4	0.0	153.58091807365417	0.10004591941833496
33	88.83942103385925	fix_pre	0		17.0	31.0	2.5	/experiments/knapen_aot/videos/R_S_comp_A083_C002_1130KZ_v04_SDR_PS_FINAL_20180725_SDR_2K_AVC.mp4	0.0	153.6809639930725	0.14169096946716309
33	88.97286796569824	response	0	2		31.0	2.5	/experiments/knapen_aot/videos/R_S_comp_A083_C002_1130KZ_v04_SDR_PS_FINAL_20180725_SDR_2K_AVC.mp4	0.0	153.8144109249115	
33	88.98111200332642	movie	1		164.0	31.0	2.5	/experiments/knapen_aot/videos/R_S_comp_A083_C002_1130KZ_v04_SDR_PS_FINAL_20180725_SDR_2K_AVC.mp4	0.0	153.82265496253967	2.508289098739624
33	91.48940110206604	fix_post	2		12.0	31.0	2.5	/experiments/knapen_aot/videos/R_S_comp_A083_C002_1130KZ_v04_SDR_PS_FINAL_20180725_SDR_2K_AVC.mp4	0.0	156.3309440612793	0.09995794296264648
34	91.58935904502869	fix_pre	0		2.0	32.0	2.5	/experiments/knapen_aot/videos/S_yt-eLQydFSMGCU_75.mp4	0.0	156.43090200424194	0.016746997833251953
34	91.59780311584473	response	0	2		32.0	2.5	/experiments/knapen_aot/videos/S_yt-eLQydFSMGCU_75.mp4	0.0	156.43934607505798	
34	91.60610604286194	movie	1		300.0	32.0	2.5	/experiments/knapen_aot/videos/S_yt-eLQydFSMGCU_75.mp4	0.0	156.4476490020752	2.5083000659942627
34	94.1144061088562	fix_post	2		12.0	32.0	2.5	/experiments/knapen_aot/videos/S_yt-eLQydFSMGCU_75.mp4	0.0	158.95594906806946	0.09995198249816895
35	94.21435809135437	fix_pre	0		14.0	33.0	2.5	/experiments/knapen_aot/videos/S_pexels-laker-5793000.mp4	0.0	159.05590105056763	0.11747884750366211
35	94.32289099693298	response	0	2		33.0	2.5	/experiments/knapen_aot/videos/S_pexels-laker-5793000.mp4	0.0	159.16443395614624	
35	94.33183693885803	movie	1		165.0	33.0	2.5	/experiments/knapen_aot/videos/S_pexels-laker-5793000.mp4	0.0	159.1733798980713	2.5074450969696045
35	96.83928203582764	fix_post	2		12.0	33.0	2.5	/experiments/knapen_aot/videos/S_pexels-laker-5793000.mp4	0.0	161.6808249950409	0.10008096694946289
36	96.9393630027771	fix_pre	0		13.0	34.0	2.5	blank	1.0	161.78090596199036	0.10828113555908203
36	97.03942799568176	response	0	2		34.0	2.5	blank	1.0	161.88097095489502	
36	97.04764413833618	movie	1		301.0	34.0	2.5	blank	1.0	161.88918709754944	2.508335828781128
36	99.55597996711731	fix_post	2		12.0	34.0	2.5	blank	1.0	164.39752292633057	0.0999760627746582
37	99.65595602989197	fix_pre	0		17.0	35.0	2.5	/experiments/knapen_aot/videos/R_S_yt-ebzrQh5ErI4_3.mp4	0.0	164.49749898910522	0.14166688919067383
37	99.78936910629272	response	0	2		35.0	2.5	/experiments/knapen_aot/videos/R_S_yt-ebzrQh5ErI4_3.mp4	0.0	164.63091206550598	
37	99.79762291908264	movie	1		301.0	35.0	2.5	/experiments/knapen_aot/videos/R_S_yt-ebzrQh5ErI4_3.mp4	0.0	164.6391658782959	2.5083301067352295
37	102.30595302581787	fix_post	2		12.0	35.0	2.5	/experiments/knapen_aot/videos/R_S_yt-ebzrQh5ErI4_3.mp4	0.0	167.14749598503113	0.10000395774841309
38	102.40595698356628	fix_pre	0		7.0	36.0	2.5	/experiments/knapen_aot/videos/R_S_ILSVRC2015_train_00632002.mp4	0.0	167.24749994277954	0.05826306343078613
38	102.456139087677	response	0	2		36.0	2.5	/experiments/knapen_aot/videos/R_S_ILSVRC2015_train_00632002.mp4	0.0	167.29768204689026	
38	102.46422004699707	movie	1		299.0	36.0	2.5	/experiments/knapen_aot/videos/R_S_ILSVRC2015_train_00632002.mp4	0.0	167.30576300621033	2.5084218978881836
38	104.97264194488525	fix_post	2		12.0	36.0	2.5	/experiments/knapen_aot/videos/R_S_ILSVRC2015_train_00632002.mp4	0.0	169.8141849040985	0.10000395774841309
39	105.07264590263367	fix_pre	0		3.0	37.0	2.5	/experiments/knapen_aot/videos/S_yt-ibDaDIEazxg_3.mp4	0.0	169.91418886184692	0.025020122528076172
39	105.08950805664062	response	0	2		37.0	2.5	/experiments/knapen_aot/videos/S_yt-ibDaDIEazxg_3.mp4	0.0	169.93105101585388	
39	105.09766602516174	movie	1		301.0	37.0	2.5	/experiments/knapen_aot/videos/S_yt-ibDaDIEazxg_3.mp4	0.0	169.939208984375	2.5082449913024902
39	107.60591101646423	fix_post	2		12.0	37.0	2.5	/experiments/knapen_aot/videos/S_yt-ibDaDIEazxg_3.mp4	0.0	172.4474539756775	0.10006093978881836
40	107.70597195625305	fix_pre	0		4.0	38.0	2.5	/experiments/knapen_aot/videos/S_yt-bOgChEHiroI_20.mp4	0.0	172.5475149154663	0.03343009948730469
40	107.73106598854065	response	0	2		38.0	2.5	/experiments/knapen_aot/videos/S_yt-bOgChEHiroI_20.mp4	0.0	172.5726089477539	
40	107.73940205574036	movie	1		301.0	38.0	2.5	/experiments/knapen_aot/videos/S_yt-bOgChEHiroI_20.mp4	0.0	172.5809450149536	2.508207082748413
40	110.24760913848877	fix_post	2		12.0	38.0	2.5	/experiments/knapen_aot/videos/S_yt-bOgChEHiroI_20.mp4	0.0	175.08915209770203	0.1000528335571289
41	110.3476619720459	fix_pre	0		26.0	39.0	2.5	/experiments/knapen_aot/videos/R_S_yt-B8Sy53C6Pxw_8.mp4	0.0	175.18920493125916	0.21666216850280762
41	110.55612707138062	response	0	2		39.0	2.5	/experiments/knapen_aot/videos/R_S_yt-B8Sy53C6Pxw_8.mp4	0.0	175.39767003059387	
41	110.5643241405487	movie	1		301.0	39.0	2.5	/experiments/knapen_aot/videos/R_S_yt-B8Sy53C6Pxw_8.mp4	0.0	175.40586709976196	2.5083367824554443
41	113.07266092300415	fix_post	2		12.0	39.0	2.5	/experiments/knapen_aot/videos/R_S_yt-B8Sy53C6Pxw_8.mp4	0.0	177.9142038822174	0.09998321533203125
42	113.17264413833618	fix_pre	0		9.0	40.0	2.5	/experiments/knapen_aot/videos/R_S_pexels-anna-tarazevich-6189268.mp4	0.0	178.01418709754944	0.07569384574890137
42	113.23284411430359	response	0	2		40.0	2.5	/experiments/knapen_aot/videos/R_S_pexels-anna-tarazevich-6189268.mp4	0.0	178.07438707351685	
42	113.24833798408508	movie	1		215.0	40.0	2.5	/experiments/knapen_aot/videos/R_S_pexels-anna-tarazevich-6189268.mp4	0.0	178.08988094329834	2.507633924484253
42	115.75597190856934	fix_post	2		12.0	40.0	2.5	/experiments/knapen_aot/videos/R_S_pexels-anna-tarazevich-6189268.mp4	0.0	180.5975148677826	0.09999799728393555
42	115.84776902198792	response	2	2		40.0	2.5	/experiments/knapen_aot/videos/R_S_pexels-anna-tarazevich-6189268.mp4	0.0	180.68931198120117	
43	115.85596990585327	fix_pre	0		44.0	41.0	2.5	/experiments/knapen_aot/videos/S_yt-4oT-2eGhmUo_102.mp4	0.0	180.69751286506653	0.3666391372680664
43	116.21438097953796	response	0	2		41.0	2.5	/experiments/knapen_aot/videos/S_yt-4oT-2eGhmUo_102.mp4	0.0	181.05592393875122	
43	116.22260904312134	movie	1		300.0	41.0	2.5	/experiments/knapen_aot/videos/S_yt-4oT-2eGhmUo_102.mp4	0.0	181.0641520023346	2.508363962173462
43	118.7309730052948	fix_post	2		12.0	41.0	2.5	/experiments/knapen_aot/videos/S_yt-4oT-2eGhmUo_102.mp4	0.0	183.57251596450806	0.09999799728393555
44	118.83097100257874	fix_pre	0		8.0	42.0	2.5	blank	1.0	183.672513961792	0.06667494773864746
44	118.88198590278625	response	0	2		42.0	2.5	blank	1.0	183.7235288619995	
44	118.89764595031738	movie	1		301.0	42.0	2.5	blank	1.0	183.73918890953064	2.5083391666412354
44	121.40598511695862	fix_post	2		12.0	42.0	2.5	blank	1.0	186.24752807617188	0.10016584396362305
45	121.50615096092224	fix_pre	0		23.0	43.0	2.5	/experiments/knapen_aot/videos/S_ILSVRC2015_train_00425000.mp4	0.0	186.3476939201355	0.1914820671081543
45	121.68941807746887	response	0	2		43.0	2.5	/experiments/knapen_aot/videos/S_ILSVRC2015_train_00425000.mp4	0.0	186.53096103668213	
45	121.6976330280304	movie	1		301.0	43.0	2.5	/experiments/knapen_aot/videos/S_ILSVRC2015_train_00425000.mp4	0.0	186.53917598724365	2.5082221031188965
45	124.20585513114929	fix_post	2		12.0	43.0	2.5	/experiments/knapen_aot/videos/S_ILSVRC2015_train_00425000.mp4	0.0	189.04739809036255	0.10003495216369629
46	124.30589008331299	fix_pre	0		32.0	44.0	2.5	/experiments/knapen_aot/videos/S_yt-hRAqAwRhmwE_58.mp4	0.0	189.14743304252625	0.2666139602661133
46	124.56435704231262	response	0	2		44.0	2.5	/experiments/knapen_aot/videos/S_yt-hRAqAwRhmwE_58.mp4	0.0	189.40590000152588	
46	124.5725040435791	movie	1		299.0	44.0	2.5	/experiments/knapen_aot/videos/S_yt-hRAqAwRhmwE_58.mp4	0.0	189.41404700279236	2.508419990539551
46	127.08092403411865	fix_post	2		12.0	44.0	2.5	/experiments/knapen_aot/videos/S_yt-hRAqAwRhmwE_58.mp4	0.0	191.9224669933319	0.09997701644897461
47	127.18090105056763	fix_pre	0		19.0	45.0	2.5	/experiments/knapen_aot/videos/R_S_yt-wrxk7fFkxHg_177.mp4	0.0	192.02244400978088	0.15830588340759277
47	127.33097696304321	response	0	2		45.0	2.5	/experiments/knapen_aot/videos/R_S_yt-wrxk7fFkxHg_177.mp4	0.0	192.17251992225647	
47	127.33920693397522	movie	1		301.0	45.0	2.5	/experiments/knapen_aot/videos/R_S_yt-wrxk7fFkxHg_177.mp4	0.0	192.18074989318848	2.5083441734313965
47	129.84755110740662	fix_post	2		12.0	45.0	2.5	/experiments/knapen_aot/videos/R_S_yt-wrxk7fFkxHg_177.mp4	0.0	194.68909406661987	0.10005402565002441
48	129.94760513305664	fix_pre	0		21.0	46.0	2.5	/experiments/knapen_aot/videos/S_yt-2pRKCSgdXXU_30.mp4	0.0	194.7891480922699	0.17554283142089844
48	130.11431002616882	response	0	2		46.0	2.5	/experiments/knapen_aot/videos/S_yt-2pRKCSgdXXU_30.mp4	0.0	194.95585298538208	
48	130.12314796447754	movie	1		301.0	46.0	2.5	/experiments/knapen_aot/videos/S_yt-2pRKCSgdXXU_30.mp4	0.0	194.9646909236908	2.5077080726623535
48	132.6308560371399	fix_post	2		12.0	46.0	2.5	/experiments/knapen_aot/videos/S_yt-2pRKCSgdXXU_30.mp4	0.0	197.47239899635315	0.10000991821289062
49	132.73086595535278	fix_pre	0		41.0	47.0	2.5	/experiments/knapen_aot/videos/R_S_pexels-laker-5793000.mp4	0.0	197.57240891456604	0.34165406227111816
49	133.0643389225006	response	0	2		47.0	2.5	/experiments/knapen_aot/videos/R_S_pexels-laker-5793000.mp4	0.0	197.90588188171387	
49	133.0725200176239	movie	1		163.0	47.0	2.5	/experiments/knapen_aot/videos/R_S_pexels-laker-5793000.mp4	0.0	197.91406297683716	2.5083069801330566
49	135.58082699775696	fix_post	2		12.0	47.0	2.5	/experiments/knapen_aot/videos/R_S_pexels-laker-5793000.mp4	0.0	200.42236995697021	0.09998393058776855
50	135.68081092834473	fix_pre	0		24.0	48.0	2.5	blank	1.0	200.52235388755798	0.2000141143798828
50	135.87265491485596	response	0	2		48.0	2.5	blank	1.0	200.7141978740692	
50	135.8808250427246	movie	1		301.0	48.0	2.5	blank	1.0	200.72236800193787	2.508297920227051
50	138.38912296295166	fix_post	2		12.0	48.0	2.5	blank	1.0	203.23066592216492	0.10001301765441895
51	138.48913598060608	fix_pre	0		44.0	49.0	2.5	/experiments/knapen_aot/videos/R_S_wc-_W9iefBXz8bi_23.mp4	0.0	203.33067893981934	0.3666541576385498
51	138.84762692451477	response	0	2		49.0	2.5	/experiments/knapen_aot/videos/R_S_wc-_W9iefBXz8bi_23.mp4	0.0	203.68916988372803	
51	138.85579013824463	movie	1		162.0	49.0	2.5	/experiments/knapen_aot/videos/R_S_wc-_W9iefBXz8bi_23.mp4	0.0	203.69733309745789	2.5083529949188232
51	141.36414313316345	fix_post	2		12.0	49.0	2.5	/experiments/knapen_aot/videos/R_S_wc-_W9iefBXz8bi_23.mp4	0.0	206.2056860923767	0.1000359058380127
52	141.46417903900146	fix_pre	0		13.0	50.0	2.5	/experiments/knapen_aot/videos/R_S_production_ID_4325506.mp4	0.0	206.30572199821472	0.1083230972290039
52	141.56419205665588	response	0	2		50.0	2.5	/experiments/knapen_aot/videos/R_S_production_ID_4325506.mp4	0.0	206.40573501586914	
52	141.57250213623047	movie	1		202.0	50.0	2.5	/experiments/knapen_aot/videos/R_S_production_ID_4325506.mp4	0.0	206.41404509544373	2.5083069801330566
52	144.08080911636353	fix_post	2		12.0	50.0	2.5	/experiments/knapen_aot/videos/R_S_production_ID_4325506.mp4	0.0	208.92235207557678	0.1000068187713623
53	144.1808159351349	fix_pre	0		14.0	51.0	2.5	/experiments/knapen_aot/videos/R_S_yt-8vm83GUgYxI_1.mp4	0.0	209.02235889434814	0.11656308174133301
53	144.28930807113647	response	0	2		51.0	2.5	/experiments/knapen_aot/videos/R_S_yt-8vm83GUgYxI_1.mp4	0.0	209.13085103034973	
53	144.29737901687622	movie	1		301.0	51.0	2.5	/experiments/knapen_aot/videos/R_S_yt-8vm83GUgYxI_1.mp4	0.0	209.13892197608948	2.508424997329712
53	146.80580401420593	fix_post	2		12.0	51.0	2.5	/experiments/knapen_aot/videos/R_S_yt-8vm83GUgYxI_1.mp4	0.0	211.6473469734192	0.10001492500305176
54	146.90581893920898	fix_pre	0		14.0	52.0	2.5	/experiments/knapen_aot/videos/R_S_yt-JkKOG9Fxykc_94.mp4	0.0	211.74736189842224	0.11663413047790527
54	147.01432609558105	response	0	2		52.0	2.5	/experiments/knapen_aot/videos/R_S_yt-JkKOG9Fxykc_94.mp4	0.0	211.8558690547943	
54	147.0224530696869	movie	1		300.0	52.0	2.5	/experiments/knapen_aot/videos/R_S_yt-JkKOG9Fxykc_94.mp4	0.0	211.86399602890015	2.5083298683166504
54	149.53078293800354	fix_post	2		12.0	52.0	2.5	/experiments/knapen_aot/videos/R_S_yt-JkKOG9Fxykc_94.mp4	0.0	214.3723258972168	0.10002517700195312
55	149.6308081150055	fix_pre	0		17.0	53.0	2.5	/experiments/knapen_aot/videos/S_yt-HFiRYTnMZxE_338.mp4	0.0	214.47235107421875	0.1416459083557129
55	149.75677299499512	response	0	2		53.0	2.5	/experiments/knapen_aot/videos/S_yt-HFiRYTnMZxE_338.mp4	0.0	214.59831595420837	
55	149.7724540233612	movie	1		301.0	53.0	2.5	/experiments/knapen_aot/videos/S_yt-HFiRYTnMZxE_338.mp4	0.0	214.61399698257446	2.5083420276641846
55	152.2807960510254	fix_post	2		12.0	53.0	2.5	/experiments/knapen_aot/videos/S_yt-HFiRYTnMZxE_338.mp4	0.0	217.12233901023865	0.09993600845336914
56	152.38073205947876	fix_pre	0		14.0	54.0	2.5	blank	1.0	217.22227501869202	0.1172170639038086
56	152.48176193237305	response	0	2		54.0	2.5	blank	1.0	217.3233048915863	
56	152.49794912338257	movie	1		301.0	54.0	2.5	blank	1.0	217.33949208259583	2.507798910140991
56	155.00574803352356	fix_post	2		12.0	54.0	2.5	blank	1.0	219.84729099273682	0.1000359058380127
57	155.10578393936157	fix_pre	0		30.0	55.0	2.5	/experiments/knapen_aot/videos/R_S_yt-D9uD7yM6bxQ_269.mp4	0.0	219.94732689857483	0.24999308586120605
57	155.34756207466125	response	0	2		55.0	2.5	/experiments/knapen_aot/videos/R_S_yt-D9uD7yM6bxQ_269.mp4	0.0	220.1891050338745	
57	155.35577702522278	movie	1		301.0	55.0	2.5	/experiments/knapen_aot/videos/R_S_yt-D9uD7yM6bxQ_269.mp4	0.0	220.19731998443604	2.5083138942718506
57	157.86409091949463	fix_post	2		12.0	55.0	2.5	/experiments/knapen_aot/videos/R_S_yt-D9uD7yM6bxQ_269.mp4	0.0	222.70563387870789	0.10014700889587402
58	157.9642379283905	fix_pre	0		44.0	56.0	2.5	/experiments/knapen_aot/videos/R_S_yt-ebzrQh5ErI4_3.mp4	0.0	222.80578088760376	0.3670980930328369
58	158.32250308990479	response	0	2		56.0	2.5	/experiments/knapen_aot/videos/R_S_yt-ebzrQh5ErI4_3.mp4	0.0	223.16404604911804	
58	158.33133602142334	movie	1		301.0	56.0	2.5	/experiments/knapen_aot/videos/R_S_yt-ebzrQh5ErI4_3.mp4	0.0	223.1728789806366	2.5077199935913086
58	160.83905601501465	fix_post	2		12.0	56.0	2.5	/experiments/knapen_aot/videos/R_S_yt-ebzrQh5ErI4_3.mp4	0.0	225.6805989742279	0.09995508193969727
59	160.93901109695435	fix_pre	0		6.0	57.0	2.5	/experiments/knapen_aot/videos/S_yt-O6W6CZPXvlA_15.mp4	0.0	225.7805540561676	0.05001997947692871
59	160.980938911438	response	0	2		57.0	2.5	/experiments/knapen_aot/videos/S_yt-O6W6CZPXvlA_15.mp4	0.0	225.82248187065125	
59	160.98903107643127	movie	1		300.0	57.0	2.5	/experiments/knapen_aot/videos/S_yt-O6W6CZPXvlA_15.mp4	0.0	225.83057403564453	2.5083630084991455
59	163.49739408493042	fix_post	2		12.0	57.0	2.5	/experiments/knapen_aot/videos/S_yt-O6W6CZPXvlA_15.mp4	0.0	228.33893704414368	0.09993600845336914
60	163.5973300933838	fix_pre	0		13.0	58.0	2.5	/experiments/knapen_aot/videos/R_S_yt-JPsTqfqfPIY_319.mp4	0.0	228.43887305259705	0.1088109016418457
60	163.69751811027527	response	0	2		58.0	2.5	/experiments/knapen_aot/videos/R_S_yt-JPsTqfqfPIY_319.mp4	0.0	228.53906106948853	
60	163.70614099502563	movie	1		301.0	58.0	2.5	/experiments/knapen_aot/videos/R_S_yt-JPsTqfqfPIY_319.mp4	0.0	228.5476839542389	2.5079400539398193
60	166.21408104896545	fix_post	2		11.0	58.0	2.5	/experiments/knapen_aot/videos/R_S_yt-JPsTqfqfPIY_319.mp4	0.0	231.0556240081787	0.0999288558959961
61	166.31400990486145	fix_pre	0		33.0	59.0	2.5	/experiments/knapen_aot/videos/S_yt-J8E_BpSJMpk_5.mp4	0.0	231.1555528640747	0.27502012252807617
61	166.5807991027832	response	0	2		59.0	2.5	/experiments/knapen_aot/videos/S_yt-J8E_BpSJMpk_5.mp4	0.0	231.42234206199646	
61	166.58903002738953	movie	1		301.0	59.0	2.5	/experiments/knapen_aot/videos/S_yt-J8E_BpSJMpk_5.mp4	0.0	231.43057298660278	2.508341073989868
61	169.0973711013794	fix_post	2		12.0	59.0	2.5	/experiments/knapen_aot/videos/S_yt-J8E_BpSJMpk_5.mp4	0.0	233.93891406059265	0.10002899169921875
62	169.1974000930786	fix_pre	0		26.0	60.0	2.5	/experiments/knapen_aot/videos/R_S_ux8Mvi8P16k_168.mp4	0.0	234.03894305229187	0.21707892417907715
62	169.3984169960022	response	0	2		60.0	2.5	/experiments/knapen_aot/videos/R_S_ux8Mvi8P16k_168.mp4	0.0	234.23995995521545	
62	169.4144790172577	movie	1		301.0	60.0	2.5	/experiments/knapen_aot/videos/R_S_ux8Mvi8P16k_168.mp4	0.0	234.25602197647095	2.5078530311584473
62	171.92233204841614	fix_post	2		12.0	60.0	2.5	/experiments/knapen_aot/videos/R_S_ux8Mvi8P16k_168.mp4	0.0	236.7638750076294	0.10007786750793457
63	172.02240991592407	fix_pre	0		12.0	61.0	2.5	blank	1.0	236.86395287513733	0.1003730297088623
63	172.10657906532288	response	0	2		61.0	2.5	blank	1.0	236.94812202453613	
63	172.12278294563293	movie	1		301.0	61.0	2.5	blank	1.0	236.9643259048462	2.507833957672119
63	174.63061690330505	fix_post	2		12.0	61.0	2.5	blank	1.0	239.4721598625183	0.1000511646270752
64	174.73066806793213	fix_pre	0		18.0	62.0	2.5	/experiments/knapen_aot/videos/R_S_yt-Ev39pXXfr1Y_152.mp4	0.0	239.57221102714539	0.15005898475646973
64	174.87242102622986	response	0	2		62.0	2.5	/experiments/knapen_aot/videos/R_S_yt-Ev39pXXfr1Y_152.mp4	0.0	239.71396398544312	
64	174.8807270526886	movie	1		301.0	62.0	2.5	/experiments/knapen_aot/videos/R_S_yt-Ev39pXXfr1Y_152.mp4	0.0	239.72227001190186	2.5082199573516846
64	177.38894701004028	fix_post	2		12.0	62.0	2.5	/experiments/knapen_aot/videos/R_S_yt-Ev39pXXfr1Y_152.mp4	0.0	242.23048996925354	0.09997701644897461
65	177.48892402648926	fix_pre	0		7.0	63.0	2.5	/experiments/knapen_aot/videos/R_S_yt-xrPrnzvWUkY_7.mp4	0.0	242.33046698570251	0.058474063873291016
65	177.54009890556335	response	0	2		63.0	2.5	/experiments/knapen_aot/videos/R_S_yt-xrPrnzvWUkY_7.mp4	0.0	242.3816418647766	
65	177.54739809036255	movie	1		301.0	63.0	2.5	/experiments/knapen_aot/videos/R_S_yt-xrPrnzvWUkY_7.mp4	0.0	242.3889410495758	2.508234977722168
65	180.05563306808472	fix_post	2		12.0	63.0	2.5	/experiments/knapen_aot/videos/R_S_yt-xrPrnzvWUkY_7.mp4	0.0	244.89717602729797	0.10001707077026367
66	180.15565013885498	fix_pre	0		23.0	64.0	2.5	/experiments/knapen_aot/videos/R_S_yt-Ul81y6R9YbE_12.mp4	0.0	244.99719309806824	0.19157886505126953
66	180.33913707733154	response	0	2		64.0	2.5	/experiments/knapen_aot/videos/R_S_yt-Ul81y6R9YbE_12.mp4	0.0	245.1806800365448	
66	180.34722900390625	movie	1		300.0	64.0	2.5	/experiments/knapen_aot/videos/R_S_yt-Ul81y6R9YbE_12.mp4	0.0	245.1887719631195	2.50844407081604
66	182.8556730747223	fix_post	2		12.0	64.0	2.5	/experiments/knapen_aot/videos/R_S_yt-Ul81y6R9YbE_12.mp4	0.0	247.69721603393555	0.10034394264221191
66	182.94737100601196	response	2	2		64.0	2.5	/experiments/knapen_aot/videos/R_S_yt-Ul81y6R9YbE_12.mp4	0.0	247.78891396522522	
67	182.9560170173645	fix_pre	0		41.0	65.0	2.5	/experiments/knapen_aot/videos/R_S_yt-mHLTJkMrkZI_143.mp4	0.0	247.79755997657776	0.3413240909576416
67	183.28906798362732	response	0	2		65.0	2.5	/experiments/knapen_aot/videos/R_S_yt-mHLTJkMrkZI_143.mp4	0.0	248.13061094284058	
67	183.29734110832214	movie	1		301.0	65.0	2.5	/experiments/knapen_aot/videos/R_S_yt-mHLTJkMrkZI_143.mp4	0.0	248.1388840675354	2.5082778930664062
67	185.80561900138855	fix_post	2		12.0	65.0	2.5	/experiments/knapen_aot/videos/R_S_yt-mHLTJkMrkZI_143.mp4	0.0	250.6471619606018	0.10008811950683594
68	185.90570712089539	fix_pre	0		24.0	66.0	2.5	/experiments/knapen_aot/videos/R_S_yt-HwGg4-zeWi8_364.mp4	0.0	250.74725008010864	0.19987797737121582
68	186.09760403633118	response	0	2		66.0	2.5	/experiments/knapen_aot/videos/R_S_yt-HwGg4-zeWi8_364.mp4	0.0	250.93914699554443	
68	186.1055850982666	movie	1		301.0	66.0	2.5	/experiments/knapen_aot/videos/R_S_yt-HwGg4-zeWi8_364.mp4	0.0	250.94712805747986	2.5083060264587402
68	188.61389112472534	fix_post	2		12.0	66.0	2.5	/experiments/knapen_aot/videos/R_S_yt-HwGg4-zeWi8_364.mp4	0.0	253.4554340839386	0.10001182556152344
69	188.71390295028687	fix_pre	0		21.0	67.0	2.5	/experiments/knapen_aot/videos/R_S_yt-qiPhBL4lBr0_44.mp4	0.0	253.55544590950012	0.1749570369720459
69	188.88075399398804	response	0	2		67.0	2.5	/experiments/knapen_aot/videos/R_S_yt-qiPhBL4lBr0_44.mp4	0.0	253.7222969532013	
69	188.8888599872589	movie	1		297.0	67.0	2.5	/experiments/knapen_aot/videos/R_S_yt-qiPhBL4lBr0_44.mp4	0.0	253.73040294647217	2.5084569454193115
69	191.39731693267822	fix_post	2		12.0	67.0	2.5	/experiments/knapen_aot/videos/R_S_yt-qiPhBL4lBr0_44.mp4	0.0	256.2388598918915	0.10033798217773438
70	191.49765491485596	fix_pre	0		20.0	68.0	2.5	blank	1.0	256.3391978740692	0.1666271686553955
70	191.65578699111938	response	0	2		68.0	2.5	blank	1.0	256.49732995033264	
70	191.66428208351135	movie	1		301.0	68.0	2.5	blank	1.0	256.5058250427246	2.507974863052368
70	194.17225694656372	fix_post	2		12.0	68.0	2.5	blank	1.0	259.013799905777	0.10000395774841309
71	194.27226090431213	fix_pre	0		17.0	69.0	2.5	/experiments/knapen_aot/videos/R_S_yt-JPsTqfqfPIY_319.mp4	0.0	259.1138038635254	0.14200210571289062
71	194.4057240486145	response	0	2		69.0	2.5	/experiments/knapen_aot/videos/R_S_yt-JPsTqfqfPIY_319.mp4	0.0	259.24726700782776	
71	194.41426301002502	movie	1		301.0	69.0	2.5	/experiments/knapen_aot/videos/R_S_yt-JPsTqfqfPIY_319.mp4	0.0	259.2558059692383	2.5079269409179688
71	196.922189950943	fix_post	2		12.0	69.0	2.5	/experiments/knapen_aot/videos/R_S_yt-JPsTqfqfPIY_319.mp4	0.0	261.76373291015625	0.10007596015930176
72	197.0222659111023	fix_pre	0		1.0	70.0	2.5	/experiments/knapen_aot/videos/S_g201_CA_A016_C002_SDR_20191114_SDR_2K_AVC.mp4	0.0	261.86380887031555	0.010055065155029297
72	197.02485513687134	response	0	2		70.0	2.5	/experiments/knapen_aot/videos/S_g201_CA_A016_C002_SDR_20191114_SDR_2K_AVC.mp4	0.0	261.8663980960846	
72	197.03232097625732	movie	1		165.0	70.0	2.5	/experiments/knapen_aot/videos/S_g201_CA_A016_C002_SDR_20191114_SDR_2K_AVC.mp4	0.0	261.8738639354706	2.5068440437316895
72	199.539165019989	fix_post	2		12.0	70.0	2.5	/experiments/knapen_aot/videos/S_g201_CA_A016_C002_SDR_20191114_SDR_2K_AVC.mp4	0.0	264.38070797920227	0.0997920036315918
73	199.6389570236206	fix_pre	0		4.0	71.0	2.5	/experiments/knapen_aot/videos/R_S_g201_CA_A016_C002_SDR_20191114_SDR_2K_AVC.mp4	0.0	264.48049998283386	0.03322005271911621
73	199.6640501022339	response	0	2		71.0	2.5	/experiments/knapen_aot/videos/R_S_g201_CA_A016_C002_SDR_20191114_SDR_2K_AVC.mp4	0.0	264.50559306144714	
73	199.67217707633972	movie	1		166.0	71.0	2.5	/experiments/knapen_aot/videos/R_S_g201_CA_A016_C002_SDR_20191114_SDR_2K_AVC.mp4	0.0	264.513720035553	2.508388042449951
73	202.18056511878967	fix_post	2		12.0	71.0	2.5	/experiments/knapen_aot/videos/R_S_g201_CA_A016_C002_SDR_20191114_SDR_2K_AVC.mp4	0.0	267.02210807800293	0.09999489784240723
74	202.28056001663208	fix_pre	0		5.0	72.0	2.5	/experiments/knapen_aot/videos/S_yt-2WPmM2vIuBE_41.mp4	0.0	267.12210297584534	0.04169511795043945
74	202.30677700042725	response	0	2		72.0	2.5	/experiments/knapen_aot/videos/S_yt-2WPmM2vIuBE_41.mp4	0.0	267.1483199596405	
74	202.32225513458252	movie	1		301.0	72.0	2.5	/experiments/knapen_aot/videos/S_yt-2WPmM2vIuBE_41.mp4	0.0	267.1637980937958	2.5082948207855225
74	204.83054995536804	fix_post	2		12.0	72.0	2.5	/experiments/knapen_aot/videos/S_yt-2WPmM2vIuBE_41.mp4	0.0	269.6720929145813	0.10003018379211426
75	204.93058013916016	fix_pre	0		9.0	73.0	2.5	/experiments/knapen_aot/videos/S_ILSVRC2015_train_00551000.mp4	0.0	269.7721230983734	0.07496976852416992
75	204.99733901023865	response	0	2		73.0	2.5	/experiments/knapen_aot/videos/S_ILSVRC2015_train_00551000.mp4	0.0	269.8388819694519	
75	205.00554990768433	movie	1		301.0	73.0	2.5	/experiments/knapen_aot/videos/S_ILSVRC2015_train_00551000.mp4	0.0	269.8470928668976	2.508331060409546
75	207.51388096809387	fix_post	2		12.0	73.0	2.5	/experiments/knapen_aot/videos/S_ILSVRC2015_train_00551000.mp4	0.0	272.35542392730713	0.09996914863586426
76	207.61385011672974	fix_pre	0		7.0	74.0	2.5	/experiments/knapen_aot/videos/S_yt-GytLOB9Qjro_76.mp4	0.0	272.455393075943	0.05838584899902344
76	207.6575059890747	response	0	2		74.0	2.5	/experiments/knapen_aot/videos/S_yt-GytLOB9Qjro_76.mp4	0.0	272.49904894828796	
76	207.67223596572876	movie	1		301.0	74.0	2.5	/experiments/knapen_aot/videos/S_yt-GytLOB9Qjro_76.mp4	0.0	272.513778924942	2.5083060264587402
76	210.1805419921875	fix_post	2		12.0	74.0	2.5	/experiments/knapen_aot/videos/S_yt-GytLOB9Qjro_76.mp4	0.0	275.02208495140076	0.10001397132873535
77	210.28055596351624	fix_pre	0		1.0	75.0	2.5	/experiments/knapen_aot/videos/R_S_yt-VfASxEzDrvc_145.mp4	0.0	275.1220989227295	0.008543014526367188
77	210.2821581363678	response	0	2		75.0	2.5	/experiments/knapen_aot/videos/R_S_yt-VfASxEzDrvc_145.mp4	0.0	275.12370109558105	
77	210.2890989780426	movie	1		301.0	75.0	2.5	/experiments/knapen_aot/videos/R_S_yt-VfASxEzDrvc_145.mp4	0.0	275.13064193725586	2.508103132247925
77	212.79720211029053	fix_post	2		12.0	75.0	2.5	/experiments/knapen_aot/videos/R_S_yt-VfASxEzDrvc_145.mp4	0.0	277.6387450695038	0.10002398490905762
78	212.89722609519958	fix_pre	0		14.0	76.0	2.5	/experiments/knapen_aot/videos/S_yt-szXWk_X_67Q_10.mp4	0.0	277.73876905441284	0.11664390563964844
78	213.00572800636292	response	0	2		76.0	2.5	/experiments/knapen_aot/videos/S_yt-szXWk_X_67Q_10.mp4	0.0	277.8472709655762	
78	213.01387000083923	movie	1		301.0	76.0	2.5	/experiments/knapen_aot/videos/S_yt-szXWk_X_67Q_10.mp4	0.0	277.8554129600525	2.5083370208740234
78	215.52220702171326	fix_post	2		12.0	76.0	2.5	/experiments/knapen_aot/videos/S_yt-szXWk_X_67Q_10.mp4	0.0	280.3637499809265	0.10015392303466797
79	215.62236094474792	fix_pre	0		2.0	77.0	2.5	blank	1.0	280.4639039039612	0.017232179641723633
79	215.63069701194763	response	0	2		77.0	2.5	blank	1.0	280.4722399711609	
79	215.63959312438965	movie	1		301.0	77.0	2.5	blank	1.0	280.4811360836029	2.507699966430664
79	218.1472930908203	fix_post	2		12.0	77.0	2.5	blank	1.0	282.98883605003357	0.10006594657897949
80	218.2473590373993	fix_pre	0		24.0	78.0	2.5	/experiments/knapen_aot/videos/S_yt-z16pdVTZK1o_3.mp4	0.0	283.08890199661255	0.19982409477233887
80	218.4389910697937	response	0	2		78.0	2.5	/experiments/knapen_aot/videos/S_yt-z16pdVTZK1o_3.mp4	0.0	283.28053402900696	
80	218.44718313217163	movie	1		301.0	78.0	2.5	/experiments/knapen_aot/videos/S_yt-z16pdVTZK1o_3.mp4	0.0	283.2887260913849	2.5084218978881836
80	220.95560503005981	fix_post	2		12.0	78.0	2.5	/experiments/knapen_aot/videos/S_yt-z16pdVTZK1o_3.mp4	0.0	285.79714798927307	0.0998680591583252
81	221.05547308921814	fix_pre	0		25.0	79.0	2.5	/experiments/knapen_aot/videos/S_yt-J_FnFAl1uL0_143.mp4	0.0	285.8970160484314	0.20833301544189453
81	221.24820709228516	response	0	2		79.0	2.5	/experiments/knapen_aot/videos/S_yt-J_FnFAl1uL0_143.mp4	0.0	286.0897500514984	
81	221.26380610466003	movie	1		301.0	79.0	2.5	/experiments/knapen_aot/videos/S_yt-J_FnFAl1uL0_143.mp4	0.0	286.1053490638733	2.5083470344543457
81	223.77215313911438	fix_post	2		12.0	79.0	2.5	/experiments/knapen_aot/videos/S_yt-J_FnFAl1uL0_143.mp4	0.0	288.61369609832764	0.10012578964233398
82	223.8722789287567	fix_pre	0		9.0	80.0	2.5	/experiments/knapen_aot/videos/S_yt-H611SOb1T78_189.mp4	0.0	288.71382188796997	0.07482600212097168
82	223.93894791603088	response	0	2		80.0	2.5	/experiments/knapen_aot/videos/S_yt-H611SOb1T78_189.mp4	0.0	288.78049087524414	
82	223.94710493087769	movie	1		301.0	80.0	2.5	/experiments/knapen_aot/videos/S_yt-H611SOb1T78_189.mp4	0.0	288.78864789009094	2.508512020111084
82	226.45561695098877	fix_post	2		12.0	80.0	2.5	/experiments/knapen_aot/videos/S_yt-H611SOb1T78_189.mp4	0.0	291.297159910202	0.09985017776489258
83	226.55546712875366	fix_pre	0		4.0	81.0	2.5	/experiments/knapen_aot/videos/S_yt-JkKOG9Fxykc_94.mp4	0.0	291.3970100879669	0.03335094451904297
83	226.58056902885437	response	0	2		81.0	2.5	/experiments/knapen_aot/videos/S_yt-JkKOG9Fxykc_94.mp4	0.0	291.4221119880676	
83	226.5888180732727	movie	1		301.0	81.0	2.5	/experiments/knapen_aot/videos/S_yt-JkKOG9Fxykc_94.mp4	0.0	291.43036103248596	2.508254051208496
83	229.0970721244812	fix_post	2		12.0	81.0	2.5	/experiments/knapen_aot/videos/S_yt-JkKOG9Fxykc_94.mp4	0.0	293.93861508369446	0.10002899169921875
84	229.19710111618042	fix_pre	0		15.0	82.0	2.5	/experiments/knapen_aot/videos/S_yt-P001x88adE4_427.mp4	0.0	294.0386440753937	0.12494778633117676
84	229.31386995315552	response	0	2		82.0	2.5	/experiments/knapen_aot/videos/S_yt-P001x88adE4_427.mp4	0.0	294.1554129123688	
84	229.3220489025116	movie	1		301.0	82.0	2.5	/experiments/knapen_aot/videos/S_yt-P001x88adE4_427.mp4	0.0	294.16359186172485	2.508470058441162
84	231.83051896095276	fix_post	2		12.0	82.0	2.5	/experiments/knapen_aot/videos/S_yt-P001x88adE4_427.mp4	0.0	296.672061920166	0.09993505477905273
85	231.9304540157318	fix_pre	0		10.0	83.0	2.5	blank	1.0	296.77199697494507	0.08326411247253418
85	232.00556898117065	response	0	2		83.0	2.5	blank	1.0	296.8471119403839	
85	232.01371812820435	movie	1		301.0	83.0	2.5	blank	1.0	296.8552610874176	2.508342981338501
85	234.52206110954285	fix_post	2		12.0	83.0	2.5	blank	1.0	299.3636040687561	0.10011792182922363
87	234.62217903137207	stim	0		99.0					299.4637219905853	0.8264210224151611
87	235.43672108650208	response	0	space						300.27826404571533	
