trial_nr	onset	event_type	phase	response	nr_frames	movie_index	movie_duration	movie_file	blank	onset_abs	duration
0	0.13247394561767578	stim	0		66.0					64.32292294502258	0.5501480102539062
0	0.6743109226226807	response	0	space						64.86475992202759	
1	0.682621955871582	stim	0		121.0					64.87307095527649	1.0115129947662354
1	1.6862759590148926	response	0	2						65.8767249584198	
1	1.6941349506378174	stim	1		120.0					65.88458395004272	0.9963619709014893
1	1.7738358974456787	response	1	2						65.96428489685059	
1	1.8655169010162354	response	1	2						66.05596590042114	
1	1.9655609130859375	response	1	2						66.15600991249084	
1	2.0905730724334717	response	1	2						66.28102207183838	
1	2.290565013885498	response	1	2						66.4810140132904	
1	2.3987789154052734	response	1	2						66.58922791481018	
1	2.507172107696533	response	1	2						66.69762110710144	
1	2.6155710220336914	response	1	2						66.8060200214386	
2	2.6904969215393066	fix_pre	0		19.0	0.0	2.5	/experiments/knapen_aot/videos/S_Y011_C001_SDR_2K_AVC.mp4	0.0	66.88094592094421	0.1583561897277832
2	2.8405840396881104	response	0	2		0.0	2.5	/experiments/knapen_aot/videos/S_Y011_C001_SDR_2K_AVC.mp4	0.0	67.03103303909302	
2	2.84885311126709	movie	1		170.0	0.0	2.5	/experiments/knapen_aot/videos/S_Y011_C001_SDR_2K_AVC.mp4	0.0	67.039302110672	2.5083119869232178
2	2.948962926864624	response	1	2		0.0	2.5	/experiments/knapen_aot/videos/S_Y011_C001_SDR_2K_AVC.mp4	0.0	67.13941192626953	
2	5.357165098190308	fix_post	2		12.0	0.0	2.5	/experiments/knapen_aot/videos/S_Y011_C001_SDR_2K_AVC.mp4	0.0	69.54761409759521	0.10000801086425781
3	5.457173109054565	fix_pre	0		8.0	1.0	2.5	/experiments/knapen_aot/videos/S_yt-mDil5vGZb14_4049.mp4	0.0	69.64762210845947	0.06659293174743652
3	5.515599012374878	response	0	2		1.0	2.5	/experiments/knapen_aot/videos/S_yt-mDil5vGZb14_4049.mp4	0.0	69.70604801177979	
3	5.523766040802002	movie	1		301.0	1.0	2.5	/experiments/knapen_aot/videos/S_yt-mDil5vGZb14_4049.mp4	0.0	69.71421504020691	2.508435010910034
3	8.032201051712036	fix_post	2		12.0	1.0	2.5	/experiments/knapen_aot/videos/S_yt-mDil5vGZb14_4049.mp4	0.0	72.22265005111694	0.09995484352111816
4	8.132155895233154	fix_pre	0		36.0	2.0	2.5	/experiments/knapen_aot/videos/S_yt-xNKgc8sFYvU_35.mp4	0.0	72.32260489463806	0.2999281883239746
4	8.42383599281311	response	0	2		2.0	2.5	/experiments/knapen_aot/videos/S_yt-xNKgc8sFYvU_35.mp4	0.0	72.61428499221802	
4	8.432084083557129	movie	1		301.0	2.0	2.5	/experiments/knapen_aot/videos/S_yt-xNKgc8sFYvU_35.mp4	0.0	72.62253308296204	2.508354902267456
4	10.940438985824585	fix_post	2		12.0	2.0	2.5	/experiments/knapen_aot/videos/S_yt-xNKgc8sFYvU_35.mp4	0.0	75.13088798522949	0.09995102882385254
5	11.040390014648438	fix_pre	0		22.0	3.0	2.5	/experiments/knapen_aot/videos/R_S_video_inspire_california_vineyard_sierra-mar_sunrise_110.1080-h264.mp4	0.0	75.23083901405334	0.18334507942199707
5	11.215544939041138	response	0	2		3.0	2.5	/experiments/knapen_aot/videos/R_S_video_inspire_california_vineyard_sierra-mar_sunrise_110.1080-h264.mp4	0.0	75.40599393844604	
5	11.223735094070435	movie	1		176.0	3.0	2.5	/experiments/knapen_aot/videos/R_S_video_inspire_california_vineyard_sierra-mar_sunrise_110.1080-h264.mp4	0.0	75.41418409347534	2.5083718299865723
5	13.732106924057007	fix_post	2		12.0	3.0	2.5	/experiments/knapen_aot/videos/R_S_video_inspire_california_vineyard_sierra-mar_sunrise_110.1080-h264.mp4	0.0	77.92255592346191	0.10000109672546387
6	13.83210802078247	fix_pre	0		16.0	4.0	2.5	/experiments/knapen_aot/videos/R_S_yt-R0gFQo85cAE_5.mp4	0.0	78.02255702018738	0.13333988189697266
6	13.95714807510376	response	0	2		4.0	2.5	/experiments/knapen_aot/videos/R_S_yt-R0gFQo85cAE_5.mp4	0.0	78.14759707450867	
6	13.965447902679443	movie	1		301.0	4.0	2.5	/experiments/knapen_aot/videos/R_S_yt-R0gFQo85cAE_5.mp4	0.0	78.15589690208435	2.5083210468292236
6	16.473768949508667	fix_post	2		12.0	4.0	2.5	/experiments/knapen_aot/videos/R_S_yt-R0gFQo85cAE_5.mp4	0.0	80.66421794891357	0.09994006156921387
7	16.57370901107788	fix_pre	0		27.0	5.0	2.5	/experiments/knapen_aot/videos/R_S_ILSVRC2015_test_00004002.mp4	0.0	80.76415801048279	0.22507500648498535
7	16.790630102157593	response	0	2		5.0	2.5	/experiments/knapen_aot/videos/R_S_ILSVRC2015_test_00004002.mp4	0.0	80.9810791015625	
7	16.798784017562866	movie	1		301.0	5.0	2.5	/experiments/knapen_aot/videos/R_S_ILSVRC2015_test_00004002.mp4	0.0	80.98923301696777	2.5083649158477783
7	19.307148933410645	fix_post	2		12.0	5.0	2.5	/experiments/knapen_aot/videos/R_S_ILSVRC2015_test_00004002.mp4	0.0	83.49759793281555	0.0999441146850586
8	19.407093048095703	fix_pre	0		60.0	6.0	2.5	/experiments/knapen_aot/videos/S_yt-5rC42egLl5E_387.mp4	0.0	83.59754204750061	0.4999558925628662
8	19.8989200592041	response	0	2		6.0	2.5	/experiments/knapen_aot/videos/S_yt-5rC42egLl5E_387.mp4	0.0	84.08936905860901	
8	19.90704894065857	movie	1		298.0	6.0	2.5	/experiments/knapen_aot/videos/S_yt-5rC42egLl5E_387.mp4	0.0	84.09749794006348	2.5083751678466797
8	22.41542410850525	fix_post	2		12.0	6.0	2.5	/experiments/knapen_aot/videos/S_yt-5rC42egLl5E_387.mp4	0.0	86.60587310791016	0.10004281997680664
9	22.515466928482056	fix_pre	0		21.0	7.0	2.5	blank	1.0	86.70591592788696	0.17492008209228516
9	22.682240962982178	response	0	2		7.0	2.5	blank	1.0	86.87268996238708	
9	22.69038701057434	movie	1		301.0	7.0	2.5	blank	1.0	86.88083600997925	2.5083539485931396
9	24.823801040649414	response	1	2		7.0	2.5	blank	1.0	89.01425004005432	
9	25.19874095916748	fix_post	2		12.0	7.0	2.5	blank	1.0	89.38918995857239	0.1000220775604248
10	25.298763036727905	fix_pre	0		24.0	8.0	2.5	/experiments/knapen_aot/videos/S_yt-xKteiAi5h7Q_36.mp4	0.0	89.48921203613281	0.20067787170410156
10	25.490473985671997	response	0	2		8.0	2.5	/experiments/knapen_aot/videos/S_yt-xKteiAi5h7Q_36.mp4	0.0	89.6809229850769	
10	25.499440908432007	movie	1		301.0	8.0	2.5	/experiments/knapen_aot/videos/S_yt-xKteiAi5h7Q_36.mp4	0.0	89.68988990783691	2.507652997970581
10	28.007093906402588	fix_post	2		12.0	8.0	2.5	/experiments/knapen_aot/videos/S_yt-xKteiAi5h7Q_36.mp4	0.0	92.1975429058075	0.09997200965881348
11	28.1070659160614	fix_pre	0		43.0	9.0	2.5	/experiments/knapen_aot/videos/R_S_comp_GL_G004_C010_PSNK_v04_SDR_PS_FINAL_20180709_SDR_2K_AVC.mp4	0.0	92.29751491546631	0.3583030700683594
11	28.45724606513977	response	0	2		9.0	2.5	/experiments/knapen_aot/videos/R_S_comp_GL_G004_C010_PSNK_v04_SDR_PS_FINAL_20180709_SDR_2K_AVC.mp4	0.0	92.64769506454468	
11	28.46536898612976	movie	1		171.0	9.0	2.5	/experiments/knapen_aot/videos/R_S_comp_GL_G004_C010_PSNK_v04_SDR_PS_FINAL_20180709_SDR_2K_AVC.mp4	0.0	92.65581798553467	2.5082859992980957
11	30.973654985427856	fix_post	2		12.0	9.0	2.5	/experiments/knapen_aot/videos/R_S_comp_GL_G004_C010_PSNK_v04_SDR_PS_FINAL_20180709_SDR_2K_AVC.mp4	0.0	95.16410398483276	0.10000801086425781
12	31.073662996292114	fix_pre	0		3.0	10.0	2.5	/experiments/knapen_aot/videos/S_yt-Ja7d2a6e5xE_279.mp4	0.0	95.26411199569702	0.025018930435180664
12	31.09051489830017	response	0	2		10.0	2.5	/experiments/knapen_aot/videos/S_yt-Ja7d2a6e5xE_279.mp4	0.0	95.28096389770508	
12	31.098681926727295	movie	1		301.0	10.0	2.5	/experiments/knapen_aot/videos/S_yt-Ja7d2a6e5xE_279.mp4	0.0	95.2891309261322	2.5082781314849854
12	33.60696005821228	fix_post	2		12.0	10.0	2.5	/experiments/knapen_aot/videos/S_yt-Ja7d2a6e5xE_279.mp4	0.0	97.79740905761719	0.10006904602050781
13	33.70702910423279	fix_pre	0		24.0	11.0	2.5	/experiments/knapen_aot/videos/S_yt-OrTpetjDNKs_31.mp4	0.0	97.8974781036377	0.1999969482421875
13	33.891217947006226	response	0	2		11.0	2.5	/experiments/knapen_aot/videos/S_yt-OrTpetjDNKs_31.mp4	0.0	98.08166694641113	
13	33.907026052474976	movie	1		301.0	11.0	2.5	/experiments/knapen_aot/videos/S_yt-OrTpetjDNKs_31.mp4	0.0	98.09747505187988	2.5083658695220947
13	36.41539192199707	fix_post	2		12.0	11.0	2.5	/experiments/knapen_aot/videos/S_yt-OrTpetjDNKs_31.mp4	0.0	100.60584092140198	0.09997105598449707
14	36.51536297798157	fix_pre	0		22.0	12.0	2.5	/experiments/knapen_aot/videos/R_S_yt-1ruRqcfBMw0_21.mp4	0.0	100.70581197738647	0.1833019256591797
14	36.69052600860596	response	0	2		12.0	2.5	/experiments/knapen_aot/videos/R_S_yt-1ruRqcfBMw0_21.mp4	0.0	100.88097500801086	
14	36.69866490364075	movie	1		301.0	12.0	2.5	/experiments/knapen_aot/videos/R_S_yt-1ruRqcfBMw0_21.mp4	0.0	100.88911390304565	2.5083351135253906
14	39.20700001716614	fix_post	2		12.0	12.0	2.5	/experiments/knapen_aot/videos/R_S_yt-1ruRqcfBMw0_21.mp4	0.0	103.39744901657104	0.10005688667297363
15	39.30705690383911	fix_pre	0		19.0	13.0	2.5	/experiments/knapen_aot/videos/R_S_production_ID_4101244.mp4	0.0	103.49750590324402	0.15826702117919922
15	39.457173109054565	response	0	2		13.0	2.5	/experiments/knapen_aot/videos/R_S_production_ID_4101244.mp4	0.0	103.64762210845947	
15	39.46532392501831	movie	1		206.0	13.0	2.5	/experiments/knapen_aot/videos/R_S_production_ID_4101244.mp4	0.0	103.65577292442322	2.5083680152893066
15	41.97369194030762	fix_post	2		12.0	13.0	2.5	/experiments/knapen_aot/videos/R_S_production_ID_4101244.mp4	0.0	106.16414093971252	0.09999608993530273
16	42.07368803024292	fix_pre	0		13.0	14.0	2.5	blank	1.0	106.26413702964783	0.10832691192626953
16	42.17382597923279	response	0	2		14.0	2.5	blank	1.0	106.3642749786377	
16	42.18201494216919	movie	1		301.0	14.0	2.5	blank	1.0	106.3724639415741	2.508350133895874
16	44.55711102485657	response	1	2		14.0	2.5	blank	1.0	108.74756002426147	
16	44.69036507606506	fix_post	2		12.0	14.0	2.5	blank	1.0	108.88081407546997	0.10060596466064453
17	44.79097104072571	fix_pre	0		25.0	15.0	2.5	/experiments/knapen_aot/videos/S_ILSVRC2015_train_00371010.mp4	0.0	108.98142004013062	0.2082679271697998
17	44.99047589302063	response	0	2		15.0	2.5	/experiments/knapen_aot/videos/S_ILSVRC2015_train_00371010.mp4	0.0	109.18092489242554	
17	44.99923896789551	movie	1		300.0	15.0	2.5	/experiments/knapen_aot/videos/S_ILSVRC2015_train_00371010.mp4	0.0	109.18968796730042	2.507730007171631
17	45.25713491439819	response	1	2		15.0	2.5	/experiments/knapen_aot/videos/S_ILSVRC2015_train_00371010.mp4	0.0	109.4475839138031	
17	47.50696897506714	fix_post	2		12.0	15.0	2.5	/experiments/knapen_aot/videos/S_ILSVRC2015_train_00371010.mp4	0.0	111.69741797447205	0.09996700286865234
18	47.60693597793579	fix_pre	0		23.0	16.0	2.5	/experiments/knapen_aot/videos/R_S_8amznWxLS04_212.mp4	0.0	111.7973849773407	0.19169092178344727
18	47.790443897247314	response	0	2		16.0	2.5	/experiments/knapen_aot/videos/R_S_8amznWxLS04_212.mp4	0.0	111.98089289665222	
18	47.79862689971924	movie	1		301.0	16.0	2.5	/experiments/knapen_aot/videos/R_S_8amznWxLS04_212.mp4	0.0	111.98907589912415	2.5082550048828125
18	50.30688190460205	fix_post	2		12.0	16.0	2.5	/experiments/knapen_aot/videos/R_S_8amznWxLS04_212.mp4	0.0	114.49733090400696	0.10002398490905762
19	50.40690588951111	fix_pre	0		33.0	17.0	2.5	/experiments/knapen_aot/videos/S_yt-Pinnv3-3GFU_452.mp4	0.0	114.59735488891602	0.27506113052368164
19	50.67376089096069	response	0	2		17.0	2.5	/experiments/knapen_aot/videos/S_yt-Pinnv3-3GFU_452.mp4	0.0	114.8642098903656	
19	50.68196702003479	movie	1		301.0	17.0	2.5	/experiments/knapen_aot/videos/S_yt-Pinnv3-3GFU_452.mp4	0.0	114.8724160194397	2.5083069801330566
19	53.19027400016785	fix_post	2		12.0	17.0	2.5	/experiments/knapen_aot/videos/S_yt-Pinnv3-3GFU_452.mp4	0.0	117.38072299957275	0.0999898910522461
20	53.29026389122009	fix_pre	0		17.0	18.0	2.5	/experiments/knapen_aot/videos/R_S_comp_LA_A006_C004_v01_SDR_FINAL_PS_20180730_SDR_2K_AVC.mp4	0.0	117.480712890625	0.14164209365844727
20	53.42380094528198	response	0	2		18.0	2.5	/experiments/knapen_aot/videos/R_S_comp_LA_A006_C004_v01_SDR_FINAL_PS_20180730_SDR_2K_AVC.mp4	0.0	117.61424994468689	
20	53.43190598487854	movie	1		168.0	18.0	2.5	/experiments/knapen_aot/videos/R_S_comp_LA_A006_C004_v01_SDR_FINAL_PS_20180730_SDR_2K_AVC.mp4	0.0	117.62235498428345	2.5083489418029785
20	55.94025492668152	fix_post	2		12.0	18.0	2.5	/experiments/knapen_aot/videos/R_S_comp_LA_A006_C004_v01_SDR_FINAL_PS_20180730_SDR_2K_AVC.mp4	0.0	120.13070392608643	0.10002899169921875
20	56.00695490837097	response	2	2		18.0	2.5	/experiments/knapen_aot/videos/R_S_comp_LA_A006_C004_v01_SDR_FINAL_PS_20180730_SDR_2K_AVC.mp4	0.0	120.19740390777588	
21	56.04028391838074	fix_pre	0		48.0	19.0	2.5	blank	1.0	120.23073291778564	0.39996910095214844
21	56.43200397491455	response	0	2		19.0	2.5	blank	1.0	120.62245297431946	
21	56.440253019332886	movie	1		301.0	19.0	2.5	blank	1.0	120.6307020187378	2.5083200931549072
21	58.94857311248779	fix_post	2		12.0	19.0	2.5	blank	1.0	123.1390221118927	0.09994077682495117
22	59.048513889312744	fix_pre	0		29.0	20.0	2.5	/experiments/knapen_aot/videos/R_S_pexels-c-technical-6344801.mp4	0.0	123.23896288871765	0.24225306510925293
22	59.28203511238098	response	0	2		20.0	2.5	/experiments/knapen_aot/videos/R_S_pexels-c-technical-6344801.mp4	0.0	123.47248411178589	
22	59.290766954422	movie	1		198.0	20.0	2.5	/experiments/knapen_aot/videos/R_S_pexels-c-technical-6344801.mp4	0.0	123.4812159538269	2.507866144180298
22	61.798633098602295	fix_post	2		12.0	20.0	2.5	/experiments/knapen_aot/videos/R_S_pexels-c-technical-6344801.mp4	0.0	125.9890820980072	0.09995293617248535
23	61.89858603477478	fix_pre	0		15.0	21.0	2.5	/experiments/knapen_aot/videos/S_ILSVRC2015_train_00595000.mp4	0.0	126.08903503417969	0.12499094009399414
23	62.015280961990356	response	0	2		21.0	2.5	/experiments/knapen_aot/videos/S_ILSVRC2015_train_00595000.mp4	0.0	126.20572996139526	
23	62.023576974868774	movie	1		300.0	21.0	2.5	/experiments/knapen_aot/videos/S_ILSVRC2015_train_00595000.mp4	0.0	126.21402597427368	2.5083229541778564
23	64.53189992904663	fix_post	2		12.0	21.0	2.5	/experiments/knapen_aot/videos/S_ILSVRC2015_train_00595000.mp4	0.0	128.72234892845154	0.09995913505554199
24	64.63185906410217	fix_pre	0		12.0	22.0	2.5	/experiments/knapen_aot/videos/S_ILSVRC2015_train_00697001.mp4	0.0	128.82230806350708	0.09998893737792969
24	64.72363090515137	response	0	2		22.0	2.5	/experiments/knapen_aot/videos/S_ILSVRC2015_train_00697001.mp4	0.0	128.91407990455627	
24	64.7318480014801	movie	1		301.0	22.0	2.5	/experiments/knapen_aot/videos/S_ILSVRC2015_train_00697001.mp4	0.0	128.922297000885	2.5083649158477783
24	67.24021291732788	fix_post	2		12.0	22.0	2.5	/experiments/knapen_aot/videos/S_ILSVRC2015_train_00697001.mp4	0.0	131.4306619167328	0.10001897811889648
25	67.34023189544678	fix_pre	0		10.0	23.0	2.5	/experiments/knapen_aot/videos/S_yt-tX3slAQb9yY_13.mp4	0.0	131.53068089485168	0.08330321311950684
25	67.41536092758179	response	0	2		23.0	2.5	/experiments/knapen_aot/videos/S_yt-tX3slAQb9yY_13.mp4	0.0	131.6058099269867	
25	67.42353510856628	movie	1		301.0	23.0	2.5	/experiments/knapen_aot/videos/S_yt-tX3slAQb9yY_13.mp4	0.0	131.6139841079712	2.5083727836608887
25	69.93190789222717	fix_post	2		12.0	23.0	2.5	/experiments/knapen_aot/videos/S_yt-tX3slAQb9yY_13.mp4	0.0	134.12235689163208	0.10002803802490234
26	70.03193593025208	fix_pre	0		24.0	24.0	2.5	/experiments/knapen_aot/videos/R_S_yt-4sSV4iIs8gQ_55.mp4	0.0	134.22238492965698	0.19987916946411133
26	70.22357606887817	response	0	2		24.0	2.5	/experiments/knapen_aot/videos/R_S_yt-4sSV4iIs8gQ_55.mp4	0.0	134.41402506828308	
26	70.23181509971619	movie	1		301.0	24.0	2.5	/experiments/knapen_aot/videos/R_S_yt-4sSV4iIs8gQ_55.mp4	0.0	134.4222640991211	2.508349895477295
26	72.74016499519348	fix_post	2		12.0	24.0	2.5	/experiments/knapen_aot/videos/R_S_yt-4sSV4iIs8gQ_55.mp4	0.0	136.9306139945984	0.09996700286865234
27	72.84013199806213	fix_pre	0		17.0	25.0	2.5	/experiments/knapen_aot/videos/R_S_yt-qurTr1BJMec_244.mp4	0.0	137.03058099746704	0.14171910285949707
27	72.96614193916321	response	0	2		25.0	2.5	/experiments/knapen_aot/videos/R_S_yt-qurTr1BJMec_244.mp4	0.0	137.15659093856812	
27	72.98185110092163	movie	1		301.0	25.0	2.5	/experiments/knapen_aot/videos/R_S_yt-qurTr1BJMec_244.mp4	0.0	137.17230010032654	2.5083229541778564
27	75.49017405509949	fix_post	2		12.0	25.0	2.5	/experiments/knapen_aot/videos/R_S_yt-qurTr1BJMec_244.mp4	0.0	139.6806230545044	0.0999898910522461
28	75.59016394615173	fix_pre	0		15.0	26.0	2.5	blank	1.0	139.78061294555664	0.12491393089294434
28	75.70695209503174	response	0	2		26.0	2.5	blank	1.0	139.89740109443665	
28	75.71507787704468	movie	1		301.0	26.0	2.5	blank	1.0	139.90552687644958	2.5084362030029297
28	77.99025797843933	response	1	2		26.0	2.5	blank	1.0	142.18070697784424	
28	78.22351408004761	fix_post	2		12.0	26.0	2.5	blank	1.0	142.41396307945251	0.09999680519104004
29	78.32351088523865	fix_pre	0		8.0	27.0	2.5	/experiments/knapen_aot/videos/R_S_yt-IyxCMODHSSE_29.mp4	0.0	142.51395988464355	0.06661200523376465
29	78.38189697265625	response	0	2		27.0	2.5	/experiments/knapen_aot/videos/R_S_yt-IyxCMODHSSE_29.mp4	0.0	142.57234597206116	
29	78.39012289047241	movie	1		301.0	27.0	2.5	/experiments/knapen_aot/videos/R_S_yt-IyxCMODHSSE_29.mp4	0.0	142.58057188987732	2.5083811283111572
29	80.89850401878357	fix_post	2		12.0	27.0	2.5	/experiments/knapen_aot/videos/R_S_yt-IyxCMODHSSE_29.mp4	0.0	145.08895301818848	0.10001397132873535
30	80.9985179901123	fix_pre	0		38.0	28.0	2.5	/experiments/knapen_aot/videos/S_comp_A114_C001_0305OT_v10_SDR_FINAL_22062018_SDR_2K_AVC.mp4	0.0	145.1889669895172	0.3165469169616699
30	81.30691504478455	response	0	2		28.0	2.5	/experiments/knapen_aot/videos/S_comp_A114_C001_0305OT_v10_SDR_FINAL_22062018_SDR_2K_AVC.mp4	0.0	145.49736404418945	
30	81.31506490707397	movie	1		164.0	28.0	2.5	/experiments/knapen_aot/videos/S_comp_A114_C001_0305OT_v10_SDR_FINAL_22062018_SDR_2K_AVC.mp4	0.0	145.50551390647888	2.50846004486084
30	83.82352495193481	fix_post	2		12.0	28.0	2.5	/experiments/knapen_aot/videos/S_comp_A114_C001_0305OT_v10_SDR_FINAL_22062018_SDR_2K_AVC.mp4	0.0	148.01397395133972	0.09999203681945801
31	83.92351698875427	fix_pre	0		8.0	29.0	2.5	/experiments/knapen_aot/videos/S_ga8dBJH_qK8_765.mp4	0.0	148.11396598815918	0.06662893295288086
31	83.98195600509644	response	0	2		29.0	2.5	/experiments/knapen_aot/videos/S_ga8dBJH_qK8_765.mp4	0.0	148.17240500450134	
31	83.99014592170715	movie	1		301.0	29.0	2.5	/experiments/knapen_aot/videos/S_ga8dBJH_qK8_765.mp4	0.0	148.18059492111206	2.5083601474761963
31	86.49850606918335	fix_post	2		12.0	29.0	2.5	/experiments/knapen_aot/videos/S_ga8dBJH_qK8_765.mp4	0.0	150.68895506858826	0.10001897811889648
32	86.59852504730225	fix_pre	0		7.0	30.0	2.5	/experiments/knapen_aot/videos/R_S_yt-lazG9z4VQAw_99.mp4	0.0	150.78897404670715	0.058326005935668945
32	86.64870810508728	response	0	2		30.0	2.5	/experiments/knapen_aot/videos/R_S_yt-lazG9z4VQAw_99.mp4	0.0	150.8391571044922	
32	86.65685105323792	movie	1		301.0	30.0	2.5	/experiments/knapen_aot/videos/R_S_yt-lazG9z4VQAw_99.mp4	0.0	150.84730005264282	2.5083398818969727
32	89.16519093513489	fix_post	2		12.0	30.0	2.5	/experiments/knapen_aot/videos/R_S_yt-lazG9z4VQAw_99.mp4	0.0	153.3556399345398	0.09998106956481934
33	89.2651720046997	fix_pre	0		10.0	31.0	2.5	/experiments/knapen_aot/videos/R_S_yt-UBqUhu-GEVg_6.mp4	0.0	153.45562100410461	0.08333396911621094
33	89.33268809318542	response	0	2		31.0	2.5	/experiments/knapen_aot/videos/R_S_yt-UBqUhu-GEVg_6.mp4	0.0	153.52313709259033	
33	89.34850597381592	movie	1		301.0	31.0	2.5	/experiments/knapen_aot/videos/R_S_yt-UBqUhu-GEVg_6.mp4	0.0	153.53895497322083	2.508319139480591
33	91.85682511329651	fix_post	2		12.0	31.0	2.5	/experiments/knapen_aot/videos/R_S_yt-UBqUhu-GEVg_6.mp4	0.0	156.04727411270142	0.10035276412963867
34	91.95717787742615	fix_pre	0		12.0	32.0	2.5	/experiments/knapen_aot/videos/S_yt-AOP7QYQntPI_28.mp4	0.0	156.14762687683105	0.09960103034973145
34	92.04863095283508	response	0	2		32.0	2.5	/experiments/knapen_aot/videos/S_yt-AOP7QYQntPI_28.mp4	0.0	156.23907995224	
34	92.05677890777588	movie	1		297.0	32.0	2.5	/experiments/knapen_aot/videos/S_yt-AOP7QYQntPI_28.mp4	0.0	156.2472279071808	2.508371114730835
34	94.56515002250671	fix_post	2		12.0	32.0	2.5	/experiments/knapen_aot/videos/S_yt-AOP7QYQntPI_28.mp4	0.0	158.75559902191162	0.09999990463256836
35	94.66514992713928	fix_pre	0		19.0	33.0	2.5	/experiments/knapen_aot/videos/R_S_yt-8QCcmqaEMPI_16.mp4	0.0	158.8555989265442	0.1583089828491211
35	94.81526708602905	response	0	2		33.0	2.5	/experiments/knapen_aot/videos/R_S_yt-8QCcmqaEMPI_16.mp4	0.0	159.00571608543396	
35	94.8234589099884	movie	1		301.0	33.0	2.5	/experiments/knapen_aot/videos/R_S_yt-8QCcmqaEMPI_16.mp4	0.0	159.0139079093933	2.508319139480591
35	97.331778049469	fix_post	2		12.0	33.0	2.5	/experiments/knapen_aot/videos/R_S_yt-8QCcmqaEMPI_16.mp4	0.0	161.5222270488739	0.10002303123474121
36	97.43180108070374	fix_pre	0		46.0	34.0	2.5	/experiments/knapen_aot/videos/S_yt-9qXwehMoX7o_50.mp4	0.0	161.62225008010864	0.38332080841064453
36	97.80687189102173	response	0	2		34.0	2.5	/experiments/knapen_aot/videos/S_yt-9qXwehMoX7o_50.mp4	0.0	161.99732089042664	
36	97.81512188911438	movie	1		301.0	34.0	2.5	/experiments/knapen_aot/videos/S_yt-9qXwehMoX7o_50.mp4	0.0	162.0055708885193	2.5083560943603516
36	100.32347798347473	fix_post	2		12.0	34.0	2.5	/experiments/knapen_aot/videos/S_yt-9qXwehMoX7o_50.mp4	0.0	164.51392698287964	0.09999608993530273
37	100.42347407341003	fix_pre	0		30.0	35.0	2.5	blank	1.0	164.61392307281494	0.24997496604919434
37	100.66520404815674	response	0	2		35.0	2.5	blank	1.0	164.85565304756165	
37	100.67344903945923	movie	1		301.0	35.0	2.5	blank	1.0	164.86389803886414	2.508319854736328
37	102.92355608940125	response	1	2		35.0	2.5	blank	1.0	167.11400508880615	
37	103.18176889419556	fix_post	2		12.0	35.0	2.5	blank	1.0	167.37221789360046	0.10002517700195312
38	103.28179407119751	fix_pre	0		3.0	36.0	2.5	/experiments/knapen_aot/videos/S_yt-c5_SFS4aaJI_1102.mp4	0.0	167.47224307060242	0.02496194839477539
38	103.29855704307556	response	0	2		36.0	2.5	/experiments/knapen_aot/videos/S_yt-c5_SFS4aaJI_1102.mp4	0.0	167.48900604248047	
38	103.30675601959229	movie	1		300.0	36.0	2.5	/experiments/knapen_aot/videos/S_yt-c5_SFS4aaJI_1102.mp4	0.0	167.4972050189972	2.5083248615264893
38	105.81508088111877	fix_post	2		12.0	36.0	2.5	/experiments/knapen_aot/videos/S_yt-c5_SFS4aaJI_1102.mp4	0.0	170.00552988052368	0.10034918785095215
39	105.91543006896973	fix_pre	0		25.0	37.0	2.5	/experiments/knapen_aot/videos/S_comp_N008_C003_PS_v01_SDR_PS_20180925_SDR_2K_AVC.mp4	0.0	170.10587906837463	0.20816397666931152
39	106.11517906188965	response	0	2		37.0	2.5	/experiments/knapen_aot/videos/S_comp_N008_C003_PS_v01_SDR_PS_20180925_SDR_2K_AVC.mp4	0.0	170.30562806129456	
39	106.12359404563904	movie	1		161.0	37.0	2.5	/experiments/knapen_aot/videos/S_comp_N008_C003_PS_v01_SDR_PS_20180925_SDR_2K_AVC.mp4	0.0	170.31404304504395	2.508136034011841
39	108.63173007965088	fix_post	2		12.0	37.0	2.5	/experiments/knapen_aot/videos/S_comp_N008_C003_PS_v01_SDR_PS_20180925_SDR_2K_AVC.mp4	0.0	172.8221790790558	0.09999895095825195
40	108.73172903060913	fix_pre	0		8.0	38.0	2.5	/experiments/knapen_aot/videos/R_S_yt-Ja7d2a6e5xE_279.mp4	0.0	172.92217803001404	0.06664896011352539
40	108.7901439666748	response	0	2		38.0	2.5	/experiments/knapen_aot/videos/R_S_yt-Ja7d2a6e5xE_279.mp4	0.0	172.9805929660797	
40	108.79837799072266	movie	1		301.0	38.0	2.5	/experiments/knapen_aot/videos/R_S_yt-Ja7d2a6e5xE_279.mp4	0.0	172.98882699012756	2.508263111114502
40	111.30664110183716	fix_post	2		12.0	38.0	2.5	/experiments/knapen_aot/videos/R_S_yt-Ja7d2a6e5xE_279.mp4	0.0	175.49709010124207	0.09999799728393555
41	111.4066390991211	fix_pre	0		15.0	39.0	2.5	/experiments/knapen_aot/videos/S_yt-y6JsUW0eSW8_32.mp4	0.0	175.597088098526	0.12503790855407715
41	111.52364993095398	response	0	2		39.0	2.5	/experiments/knapen_aot/videos/S_yt-y6JsUW0eSW8_32.mp4	0.0	175.7140989303589	
41	111.53167700767517	movie	1		301.0	39.0	2.5	/experiments/knapen_aot/videos/S_yt-y6JsUW0eSW8_32.mp4	0.0	175.72212600708008	2.5085949897766113
41	114.04027199745178	fix_post	2		12.0	39.0	2.5	/experiments/knapen_aot/videos/S_yt-y6JsUW0eSW8_32.mp4	0.0	178.2307209968567	0.09978008270263672
42	114.14005208015442	fix_pre	0		15.0	40.0	2.5	blank	1.0	178.33050107955933	0.12501788139343262
42	114.25693202018738	response	0	2		40.0	2.5	blank	1.0	178.44738101959229	
42	114.26506996154785	movie	1		301.0	40.0	2.5	blank	1.0	178.45551896095276	2.5082390308380127
42	116.77330899238586	fix_post	2		12.0	40.0	2.5	blank	1.0	180.96375799179077	0.10045409202575684
43	116.87376308441162	fix_pre	0		28.0	41.0	2.5	/experiments/knapen_aot/videos/R_S_ILSVRC2015_train_00485001.mp4	0.0	181.06421208381653	0.2329249382019043
43	117.09845995903015	response	0	2		41.0	2.5	/experiments/knapen_aot/videos/R_S_ILSVRC2015_train_00485001.mp4	0.0	181.28890895843506	
43	117.10668802261353	movie	1		301.0	41.0	2.5	/experiments/knapen_aot/videos/R_S_ILSVRC2015_train_00485001.mp4	0.0	181.29713702201843	2.5083649158477783
43	119.6150529384613	fix_post	2		12.0	41.0	2.5	/experiments/knapen_aot/videos/R_S_ILSVRC2015_train_00485001.mp4	0.0	183.8055019378662	0.09995198249816895
44	119.71500492095947	fix_pre	0		9.0	42.0	2.5	/experiments/knapen_aot/videos/S_yt-dESxu60Cl10_24.mp4	0.0	183.90545392036438	0.07520008087158203
44	119.78184008598328	response	0	2		42.0	2.5	/experiments/knapen_aot/videos/S_yt-dESxu60Cl10_24.mp4	0.0	183.97228908538818	
44	119.79020500183105	movie	1		301.0	42.0	2.5	/experiments/knapen_aot/videos/S_yt-dESxu60Cl10_24.mp4	0.0	183.98065400123596	2.5081069469451904
44	122.29831194877625	fix_post	2		12.0	42.0	2.5	/experiments/knapen_aot/videos/S_yt-dESxu60Cl10_24.mp4	0.0	186.48876094818115	0.10004115104675293
45	122.398353099823	fix_pre	0		15.0	43.0	2.5	/experiments/knapen_aot/videos/S_yt-mmvWYAttrIw_2.mp4	0.0	186.5888020992279	0.12498879432678223
45	122.51517009735107	response	0	2		43.0	2.5	/experiments/knapen_aot/videos/S_yt-mmvWYAttrIw_2.mp4	0.0	186.70561909675598	
45	122.52334189414978	movie	1		301.0	43.0	2.5	/experiments/knapen_aot/videos/S_yt-mmvWYAttrIw_2.mp4	0.0	186.7137908935547	2.5083320140838623
45	124.81808400154114	response	1	2		43.0	2.5	/experiments/knapen_aot/videos/S_yt-mmvWYAttrIw_2.mp4	0.0	189.00853300094604	
45	125.03167390823364	fix_post	2		12.0	43.0	2.5	/experiments/knapen_aot/videos/S_yt-mmvWYAttrIw_2.mp4	0.0	189.22212290763855	0.09998917579650879
46	125.13166308403015	fix_pre	0		31.0	44.0	2.5	/experiments/knapen_aot/videos/S_yt-_WFwhcmbXXY_51.mp4	0.0	189.32211208343506	0.2583458423614502
46	125.38182091712952	response	0	2		44.0	2.5	/experiments/knapen_aot/videos/S_yt-_WFwhcmbXXY_51.mp4	0.0	189.57226991653442	
46	125.3900089263916	movie	1		301.0	44.0	2.5	/experiments/knapen_aot/videos/S_yt-_WFwhcmbXXY_51.mp4	0.0	189.5804579257965	2.508397102355957
46	127.89840602874756	fix_post	2		12.0	44.0	2.5	/experiments/knapen_aot/videos/S_yt-_WFwhcmbXXY_51.mp4	0.0	192.08885502815247	0.1001288890838623
47	127.99853491783142	fix_pre	0		22.0	45.0	2.5	/experiments/knapen_aot/videos/S_ILSVRC2015_train_00563000.mp4	0.0	192.18898391723633	0.1831371784210205
47	128.17346596717834	response	0	2		45.0	2.5	/experiments/knapen_aot/videos/S_ILSVRC2015_train_00563000.mp4	0.0	192.36391496658325	
47	128.18167209625244	movie	1		301.0	45.0	2.5	/experiments/knapen_aot/videos/S_ILSVRC2015_train_00563000.mp4	0.0	192.37212109565735	2.5083539485931396
47	130.69002604484558	fix_post	2		12.0	45.0	2.5	/experiments/knapen_aot/videos/S_ILSVRC2015_train_00563000.mp4	0.0	194.8804750442505	0.10021805763244629
48	130.79024410247803	fix_pre	0		21.0	46.0	2.5	/experiments/knapen_aot/videos/R_S_yt-Pinnv3-3GFU_452.mp4	0.0	194.98069310188293	0.17475080490112305
48	130.95680594444275	response	0	2		46.0	2.5	/experiments/knapen_aot/videos/R_S_yt-Pinnv3-3GFU_452.mp4	0.0	195.14725494384766	
48	130.96499490737915	movie	1		301.0	46.0	2.5	/experiments/knapen_aot/videos/R_S_yt-Pinnv3-3GFU_452.mp4	0.0	195.15544390678406	2.508342981338501
48	133.47333788871765	fix_post	2		12.0	46.0	2.5	/experiments/knapen_aot/videos/R_S_yt-Pinnv3-3GFU_452.mp4	0.0	197.66378688812256	0.10000014305114746
49	133.5733380317688	fix_pre	0		25.0	47.0	2.5	/experiments/knapen_aot/videos/R_S_wc-6or3Gl2Fif0m_13.mp4	0.0	197.7637870311737	0.20825600624084473
49	133.76587200164795	response	0	2		47.0	2.5	/experiments/knapen_aot/videos/R_S_wc-6or3Gl2Fif0m_13.mp4	0.0	197.95632100105286	
49	133.78159403800964	movie	1		167.0	47.0	2.5	/experiments/knapen_aot/videos/R_S_wc-6or3Gl2Fif0m_13.mp4	0.0	197.97204303741455	2.5085020065307617
49	136.2900960445404	fix_post	2		12.0	47.0	2.5	/experiments/knapen_aot/videos/R_S_wc-6or3Gl2Fif0m_13.mp4	0.0	200.4805450439453	0.09987902641296387
50	136.38997507095337	fix_pre	0		21.0	48.0	2.5	/experiments/knapen_aot/videos/S_yt-IyxCMODHSSE_29.mp4	0.0	200.58042407035828	0.17498302459716797
50	136.5567409992218	response	0	2		48.0	2.5	/experiments/knapen_aot/videos/S_yt-IyxCMODHSSE_29.mp4	0.0	200.7471899986267	
50	136.56495809555054	movie	1		301.0	48.0	2.5	/experiments/knapen_aot/videos/S_yt-IyxCMODHSSE_29.mp4	0.0	200.75540709495544	2.5083658695220947
50	139.07332396507263	fix_post	2		12.0	48.0	2.5	/experiments/knapen_aot/videos/S_yt-IyxCMODHSSE_29.mp4	0.0	203.26377296447754	0.09999608993530273
51	139.17332005500793	fix_pre	0		18.0	49.0	2.5	blank	1.0	203.36376905441284	0.1499779224395752
51	139.31511211395264	response	0	2		49.0	2.5	blank	1.0	203.50556111335754	
51	139.3232979774475	movie	1		301.0	49.0	2.5	blank	1.0	203.51374697685242	2.5084149837493896
51	141.8317129611969	fix_post	2		12.0	49.0	2.5	blank	1.0	206.0221619606018	0.09987998008728027
52	141.93159294128418	fix_pre	0		44.0	50.0	2.5	/experiments/knapen_aot/videos/R_S_yt-4oT-2eGhmUo_102.mp4	0.0	206.1220419406891	0.36666011810302734
52	142.29006505012512	response	0	2		50.0	2.5	/experiments/knapen_aot/videos/R_S_yt-4oT-2eGhmUo_102.mp4	0.0	206.48051404953003	
52	142.2982530593872	movie	1		301.0	50.0	2.5	/experiments/knapen_aot/videos/R_S_yt-4oT-2eGhmUo_102.mp4	0.0	206.48870205879211	2.5083558559417725
52	144.80660891532898	fix_post	2		12.0	50.0	2.5	/experiments/knapen_aot/videos/R_S_yt-4oT-2eGhmUo_102.mp4	0.0	208.9970579147339	0.10001015663146973
53	144.90661907196045	fix_pre	0		14.0	51.0	2.5	/experiments/knapen_aot/videos/S_yt-3JApfnMu5cU_378.mp4	0.0	209.09706807136536	0.1166388988494873
53	145.0150089263916	response	0	2		51.0	2.5	/experiments/knapen_aot/videos/S_yt-3JApfnMu5cU_378.mp4	0.0	209.2054579257965	
53	145.02325797080994	movie	1		301.0	51.0	2.5	/experiments/knapen_aot/videos/S_yt-3JApfnMu5cU_378.mp4	0.0	209.21370697021484	2.5083179473876953
53	147.53157591819763	fix_post	2		12.0	51.0	2.5	/experiments/knapen_aot/videos/S_yt-3JApfnMu5cU_378.mp4	0.0	211.72202491760254	0.09999299049377441
54	147.6315689086914	fix_pre	0		10.0	52.0	2.5	/experiments/knapen_aot/videos/R_S_yt-Rqwi-Fk9IJQ_114.mp4	0.0	211.8220179080963	0.08337211608886719
54	147.70758390426636	response	0	2		52.0	2.5	/experiments/knapen_aot/videos/R_S_yt-Rqwi-Fk9IJQ_114.mp4	0.0	211.89803290367126	
54	147.71494102478027	movie	1		301.0	52.0	2.5	/experiments/knapen_aot/videos/R_S_yt-Rqwi-Fk9IJQ_114.mp4	0.0	211.90539002418518	2.508436918258667
54	150.22337794303894	fix_post	2		12.0	52.0	2.5	/experiments/knapen_aot/videos/R_S_yt-Rqwi-Fk9IJQ_114.mp4	0.0	214.41382694244385	0.0998530387878418
55	150.32323098182678	fix_pre	0		15.0	53.0	2.5	/experiments/knapen_aot/videos/S_yt-mDil5vGZb14_4049.mp4	0.0	214.5136799812317	0.12497997283935547
55	150.4324119091034	response	0	2		53.0	2.5	/experiments/knapen_aot/videos/S_yt-mDil5vGZb14_4049.mp4	0.0	214.6228609085083	
55	150.44821095466614	movie	1		301.0	53.0	2.5	/experiments/knapen_aot/videos/S_yt-mDil5vGZb14_4049.mp4	0.0	214.63865995407104	2.5083529949188232
55	152.95656394958496	fix_post	2		12.0	53.0	2.5	/experiments/knapen_aot/videos/S_yt-mDil5vGZb14_4049.mp4	0.0	217.14701294898987	0.09998703002929688
56	153.05655097961426	fix_pre	0		16.0	54.0	2.5	blank	1.0	217.24699997901917	0.1333470344543457
56	153.18172192573547	response	0	2		54.0	2.5	blank	1.0	217.37217092514038	
56	153.1898980140686	movie	1		301.0	54.0	2.5	blank	1.0	217.3803470134735	2.5083019733428955
56	155.6981999874115	fix_post	2		12.0	54.0	2.5	blank	1.0	219.8886489868164	0.09996700286865234
57	155.79816699028015	fix_pre	0		360.0	55.0	2.5	/experiments/knapen_aot/videos/S_yt-a5TGHnldsKg_102.mp4	0.0	219.98861598968506	3.000020980834961
57	158.78997802734375	response	0	2		55.0	2.5	/experiments/knapen_aot/videos/S_yt-a5TGHnldsKg_102.mp4	0.0	222.98042702674866	
57	158.7981879711151	movie	1		301.0	55.0	2.5	/experiments/knapen_aot/videos/S_yt-a5TGHnldsKg_102.mp4	0.0	222.98863697052002	2.5083370208740234
57	161.30652499198914	fix_post	2		12.0	55.0	2.5	/experiments/knapen_aot/videos/S_yt-a5TGHnldsKg_102.mp4	0.0	225.49697399139404	0.09994792938232422
58	161.40647292137146	fix_pre	0		22.0	56.0	2.5	/experiments/knapen_aot/videos/S_ILSVRC2015_train_00610000.mp4	0.0	225.59692192077637	0.18332695960998535
58	161.5742359161377	response	0	2		56.0	2.5	/experiments/knapen_aot/videos/S_ILSVRC2015_train_00610000.mp4	0.0	225.7646849155426	
58	161.58979988098145	movie	1		301.0	56.0	2.5	/experiments/knapen_aot/videos/S_ILSVRC2015_train_00610000.mp4	0.0	225.78024888038635	2.5083491802215576
58	164.098149061203	fix_post	2		12.0	56.0	2.5	/experiments/knapen_aot/videos/S_ILSVRC2015_train_00610000.mp4	0.0	228.2885980606079	0.10006499290466309
59	164.19821405410767	fix_pre	0		9.0	57.0	2.5	/experiments/knapen_aot/videos/R_S_ILSVRC2015_train_00074011.mp4	0.0	228.38866305351257	0.0778050422668457
59	164.2651650905609	response	0	2		57.0	2.5	/experiments/knapen_aot/videos/R_S_ILSVRC2015_train_00074011.mp4	0.0	228.45561408996582	
59	164.2760190963745	movie	1		301.0	57.0	2.5	/experiments/knapen_aot/videos/R_S_ILSVRC2015_train_00074011.mp4	0.0	228.46646809577942	2.505403995513916
59	166.78142309188843	fix_post	2		12.0	57.0	2.5	/experiments/knapen_aot/videos/R_S_ILSVRC2015_train_00074011.mp4	0.0	230.97187209129333	0.10000991821289062
60	166.88143301010132	fix_pre	0		14.0	58.0	2.5	/experiments/knapen_aot/videos/R_S_video_inspire_oregon_lone-ranch-beach_00021.1080-h264.mp4	0.0	231.07188200950623	0.11664390563964844
60	166.98994088172913	response	0	2		58.0	2.5	/experiments/knapen_aot/videos/R_S_video_inspire_oregon_lone-ranch-beach_00021.1080-h264.mp4	0.0	231.18038988113403	
60	166.99807691574097	movie	1		167.0	58.0	2.5	/experiments/knapen_aot/videos/R_S_video_inspire_oregon_lone-ranch-beach_00021.1080-h264.mp4	0.0	231.18852591514587	2.5083119869232178
60	169.50638890266418	fix_post	2		12.0	58.0	2.5	/experiments/knapen_aot/videos/R_S_video_inspire_oregon_lone-ranch-beach_00021.1080-h264.mp4	0.0	233.6968379020691	0.10007214546203613
61	169.60646104812622	fix_pre	0		17.0	59.0	2.5	/experiments/knapen_aot/videos/S_PA_A002_C009_SDR_20190730_ALT01_SDR_2K_AVC.mp4	0.0	233.79691004753113	0.1416149139404297
61	169.73994994163513	response	0	2		59.0	2.5	/experiments/knapen_aot/videos/S_PA_A002_C009_SDR_20190730_ALT01_SDR_2K_AVC.mp4	0.0	233.93039894104004	
61	169.74807596206665	movie	1		166.0	59.0	2.5	/experiments/knapen_aot/videos/S_PA_A002_C009_SDR_20190730_ALT01_SDR_2K_AVC.mp4	0.0	233.93852496147156	2.50832200050354
61	172.2563979625702	fix_post	2		12.0	59.0	2.5	/experiments/knapen_aot/videos/S_PA_A002_C009_SDR_20190730_ALT01_SDR_2K_AVC.mp4	0.0	236.4468469619751	0.10003495216369629
62	172.3564329147339	fix_pre	0		17.0	60.0	2.5	/experiments/knapen_aot/videos/R_S_yt-sXy_bKQE-8U_7.mp4	0.0	236.5468819141388	0.1416170597076416
62	172.48992896080017	response	0	2		60.0	2.5	/experiments/knapen_aot/videos/R_S_yt-sXy_bKQE-8U_7.mp4	0.0	236.68037796020508	
62	172.49804997444153	movie	1		301.0	60.0	2.5	/experiments/knapen_aot/videos/R_S_yt-sXy_bKQE-8U_7.mp4	0.0	236.68849897384644	2.5084121227264404
62	175.00646209716797	fix_post	2		12.0	60.0	2.5	/experiments/knapen_aot/videos/R_S_yt-sXy_bKQE-8U_7.mp4	0.0	239.19691109657288	0.09998798370361328
63	175.10645008087158	fix_pre	0		8.0	61.0	2.5	/experiments/knapen_aot/videos/S_ILSVRC2015_train_00451000.mp4	0.0	239.2968990802765	0.0667870044708252
63	175.15811800956726	response	0	2		61.0	2.5	/experiments/knapen_aot/videos/S_ILSVRC2015_train_00451000.mp4	0.0	239.34856700897217	
63	175.1732370853424	movie	1		301.0	61.0	2.5	/experiments/knapen_aot/videos/S_ILSVRC2015_train_00451000.mp4	0.0	239.36368608474731	2.508140802383423
63	177.68137788772583	fix_post	2		12.0	61.0	2.5	/experiments/knapen_aot/videos/S_ILSVRC2015_train_00451000.mp4	0.0	241.87182688713074	0.09998416900634766
63	177.74817895889282	response	2	2		61.0	2.5	/experiments/knapen_aot/videos/S_ILSVRC2015_train_00451000.mp4	0.0	241.93862795829773	
64	177.78136205673218	fix_pre	0		230.0	62.0	2.5	/experiments/knapen_aot/videos/S_BO_A012_C031_SDR_20190726_SDR_2K_AVC.mp4	0.0	241.97181105613708	1.916661024093628
64	179.68978190422058	response	0	2		62.0	2.5	/experiments/knapen_aot/videos/S_BO_A012_C031_SDR_20190726_SDR_2K_AVC.mp4	0.0	243.8802309036255	
64	179.6980230808258	movie	1		164.0	62.0	2.5	/experiments/knapen_aot/videos/S_BO_A012_C031_SDR_20190726_SDR_2K_AVC.mp4	0.0	243.8884720802307	2.5083420276641846
64	182.20636510849	fix_post	2		12.0	62.0	2.5	/experiments/knapen_aot/videos/S_BO_A012_C031_SDR_20190726_SDR_2K_AVC.mp4	0.0	246.3968141078949	0.1000218391418457
65	182.30638694763184	fix_pre	0		9.0	63.0	2.5	blank	1.0	246.49683594703674	0.07512807846069336
65	182.3732979297638	response	0	2		63.0	2.5	blank	1.0	246.5637469291687	
65	182.38151502609253	movie	1		301.0	63.0	2.5	blank	1.0	246.57196402549744	2.5082058906555176
65	184.88972091674805	fix_post	2		12.0	63.0	2.5	blank	1.0	249.08016991615295	0.09990715980529785
66	184.98962807655334	fix_pre	0		46.0	64.0	2.5	/experiments/knapen_aot/videos/S_yt-TZ107yBhXoA_1.mp4	0.0	249.18007707595825	0.3834109306335449
66	185.3648509979248	response	0	2		64.0	2.5	/experiments/knapen_aot/videos/S_yt-TZ107yBhXoA_1.mp4	0.0	249.5552999973297	
66	185.3730390071869	movie	1		301.0	64.0	2.5	/experiments/knapen_aot/videos/S_yt-TZ107yBhXoA_1.mp4	0.0	249.5634880065918	2.5083329677581787
66	187.88137197494507	fix_post	2		12.0	64.0	2.5	/experiments/knapen_aot/videos/S_yt-TZ107yBhXoA_1.mp4	0.0	252.07182097434998	0.1000070571899414
67	187.981379032135	fix_pre	0		59.0	65.0	2.5	/experiments/knapen_aot/videos/R_S_yt-RKo978aBdzw_173.mp4	0.0	252.17182803153992	0.49161601066589355
67	188.46482110023499	response	0	2		65.0	2.5	/experiments/knapen_aot/videos/R_S_yt-RKo978aBdzw_173.mp4	0.0	252.6552700996399	
67	188.4729950428009	movie	1		301.0	65.0	2.5	/experiments/knapen_aot/videos/R_S_yt-RKo978aBdzw_173.mp4	0.0	252.6634440422058	2.5082969665527344
67	190.98129200935364	fix_post	2		12.0	65.0	2.5	/experiments/knapen_aot/videos/R_S_yt-RKo978aBdzw_173.mp4	0.0	255.17174100875854	0.10008597373962402
68	191.08137798309326	fix_pre	0		12.0	66.0	2.5	/experiments/knapen_aot/videos/R_S_yt-K0CzoUy_uIA_22.mp4	0.0	255.27182698249817	0.09993791580200195
68	191.17315697669983	response	0	2		66.0	2.5	/experiments/knapen_aot/videos/R_S_yt-K0CzoUy_uIA_22.mp4	0.0	255.36360597610474	
68	191.18131589889526	movie	1		300.0	66.0	2.5	/experiments/knapen_aot/videos/R_S_yt-K0CzoUy_uIA_22.mp4	0.0	255.37176489830017	2.5084500312805176
68	193.68976593017578	fix_post	2		12.0	66.0	2.5	/experiments/knapen_aot/videos/R_S_yt-K0CzoUy_uIA_22.mp4	0.0	257.8802149295807	0.09995603561401367
69	193.7897219657898	fix_pre	0		28.0	67.0	2.5	/experiments/knapen_aot/videos/R_S_yt-4NjyKFnwHBo_13.mp4	0.0	257.9801709651947	0.23331999778747559
69	194.01492595672607	response	0	2		67.0	2.5	/experiments/knapen_aot/videos/R_S_yt-4NjyKFnwHBo_13.mp4	0.0	258.205374956131	
69	194.02304196357727	movie	1		301.0	67.0	2.5	/experiments/knapen_aot/videos/R_S_yt-4NjyKFnwHBo_13.mp4	0.0	258.2134909629822	2.508225917816162
69	196.53126788139343	fix_post	2		12.0	67.0	2.5	/experiments/knapen_aot/videos/R_S_yt-4NjyKFnwHBo_13.mp4	0.0	260.72171688079834	0.10006213188171387
70	196.63133001327515	fix_pre	0		17.0	68.0	2.5	/experiments/knapen_aot/videos/R_S_yt-j3Sk8ZnAiEA_32.mp4	0.0	260.82177901268005	0.14163494110107422
70	196.76484608650208	response	0	2		68.0	2.5	/experiments/knapen_aot/videos/R_S_yt-j3Sk8ZnAiEA_32.mp4	0.0	260.955295085907	
70	196.77296495437622	movie	1		301.0	68.0	2.5	/experiments/knapen_aot/videos/R_S_yt-j3Sk8ZnAiEA_32.mp4	0.0	260.9634139537811	2.5083489418029785
70	199.2813138961792	fix_post	2		12.0	68.0	2.5	/experiments/knapen_aot/videos/R_S_yt-j3Sk8ZnAiEA_32.mp4	0.0	263.4717628955841	0.10015010833740234
71	199.3814640045166	fix_pre	0		62.0	69.0	2.5	blank	1.0	263.5719130039215	0.5164370536804199
71	199.88981294631958	response	0	2		69.0	2.5	blank	1.0	264.0802619457245	
71	199.89790105819702	movie	1		301.0	69.0	2.5	blank	1.0	264.08835005760193	2.50833797454834
71	202.40623903274536	fix_post	2		12.0	69.0	2.5	blank	1.0	266.59668803215027	0.10006189346313477
72	202.5063009262085	fix_pre	0		20.0	70.0	2.5	/experiments/knapen_aot/videos/S_yt-J1dw4AznwmQ_7.mp4	0.0	266.6967499256134	0.16669297218322754
72	202.66471791267395	response	0	2		70.0	2.5	/experiments/knapen_aot/videos/S_yt-J1dw4AznwmQ_7.mp4	0.0	266.85516691207886	
72	202.67299389839172	movie	1		300.0	70.0	2.5	/experiments/knapen_aot/videos/S_yt-J1dw4AznwmQ_7.mp4	0.0	266.86344289779663	2.508280038833618
72	205.18127393722534	fix_post	2		12.0	70.0	2.5	/experiments/knapen_aot/videos/S_yt-J1dw4AznwmQ_7.mp4	0.0	269.37172293663025	0.10002517700195312
73	205.2812991142273	fix_pre	0		18.0	71.0	2.5	/experiments/knapen_aot/videos/S_pexels-c-technical-6344801.mp4	0.0	269.4717481136322	0.1499028205871582
73	205.42313289642334	response	0	2		71.0	2.5	/experiments/knapen_aot/videos/S_pexels-c-technical-6344801.mp4	0.0	269.61358189582825	
73	205.43120193481445	movie	1		193.0	71.0	2.5	/experiments/knapen_aot/videos/S_pexels-c-technical-6344801.mp4	0.0	269.62165093421936	2.508540153503418
73	207.93974208831787	fix_post	2		12.0	71.0	2.5	/experiments/knapen_aot/videos/S_pexels-c-technical-6344801.mp4	0.0	272.1301910877228	0.09989380836486816
74	208.03963589668274	fix_pre	0		35.0	72.0	2.5	/experiments/knapen_aot/videos/R_S_ILSVRC2015_train_00613000.mp4	0.0	272.23008489608765	0.29157114028930664
74	208.32304096221924	response	0	2		72.0	2.5	/experiments/knapen_aot/videos/R_S_ILSVRC2015_train_00613000.mp4	0.0	272.51348996162415	
74	208.33120703697205	movie	1		301.0	72.0	2.5	/experiments/knapen_aot/videos/R_S_ILSVRC2015_train_00613000.mp4	0.0	272.52165603637695	2.5083580017089844
74	210.83956503868103	fix_post	2		12.0	72.0	2.5	/experiments/knapen_aot/videos/R_S_ILSVRC2015_train_00613000.mp4	0.0	275.03001403808594	0.10003995895385742
75	210.9396049976349	fix_pre	0		25.0	73.0	2.5	/experiments/knapen_aot/videos/S_yt-J1dw4AznwmQ_7.mp4	0.0	275.1300539970398	0.20835590362548828
75	211.13978695869446	response	0	2		73.0	2.5	/experiments/knapen_aot/videos/S_yt-J1dw4AznwmQ_7.mp4	0.0	275.33023595809937	
75	211.14796090126038	movie	1		301.0	73.0	2.5	/experiments/knapen_aot/videos/S_yt-J1dw4AznwmQ_7.mp4	0.0	275.3384099006653	2.50832200050354
75	213.65628290176392	fix_post	2		12.0	73.0	2.5	/experiments/knapen_aot/videos/S_yt-J1dw4AznwmQ_7.mp4	0.0	277.8467319011688	0.09987998008728027
76	213.7561628818512	fix_pre	0		24.0	74.0	2.5	/experiments/knapen_aot/videos/R_S_pexels-cottonbro-6844209.mp4	0.0	277.9466118812561	0.20005106925964355
76	213.9481348991394	response	0	2		74.0	2.5	/experiments/knapen_aot/videos/R_S_pexels-cottonbro-6844209.mp4	0.0	278.1385838985443	
76	213.95621395111084	movie	1		204.0	74.0	2.5	/experiments/knapen_aot/videos/R_S_pexels-cottonbro-6844209.mp4	0.0	278.14666295051575	2.5084340572357178
76	216.46464800834656	fix_post	2		12.0	74.0	2.5	/experiments/knapen_aot/videos/R_S_pexels-cottonbro-6844209.mp4	0.0	280.65509700775146	0.09995603561401367
77	216.56460404396057	fix_pre	0		16.0	75.0	2.5	/experiments/knapen_aot/videos/R_S_SE_A016_C009_SDR_20190717_SDR_2K_AVC.mp4	0.0	280.7550530433655	0.13439202308654785
77	216.68959999084473	response	0	2		75.0	2.5	/experiments/knapen_aot/videos/R_S_SE_A016_C009_SDR_20190717_SDR_2K_AVC.mp4	0.0	280.88004899024963	
77	216.69899606704712	movie	1		164.0	75.0	2.5	/experiments/knapen_aot/videos/R_S_SE_A016_C009_SDR_20190717_SDR_2K_AVC.mp4	0.0	280.889445066452	2.5072269439697266
77	219.20622301101685	fix_post	2		12.0	75.0	2.5	/experiments/knapen_aot/videos/R_S_SE_A016_C009_SDR_20190717_SDR_2K_AVC.mp4	0.0	283.39667201042175	0.10001897811889648
78	219.30624198913574	fix_pre	0		19.0	76.0	2.5	/experiments/knapen_aot/videos/S_ILSVRC2015_train_00704000.mp4	0.0	283.49669098854065	0.15833210945129395
78	219.4563798904419	response	0	2		76.0	2.5	/experiments/knapen_aot/videos/S_ILSVRC2015_train_00704000.mp4	0.0	283.6468288898468	
78	219.46457409858704	movie	1		301.0	76.0	2.5	/experiments/knapen_aot/videos/S_ILSVRC2015_train_00704000.mp4	0.0	283.65502309799194	2.5083158016204834
78	221.97288990020752	fix_post	2		12.0	76.0	2.5	/experiments/knapen_aot/videos/S_ILSVRC2015_train_00704000.mp4	0.0	286.1633388996124	0.09994721412658691
79	222.0728371143341	fix_pre	0		64.0	77.0	2.5	blank	1.0	286.263286113739	0.5332968235015869
79	222.59804892539978	response	0	2		77.0	2.5	blank	1.0	286.7884979248047	
79	222.6061339378357	movie	1		301.0	77.0	2.5	blank	1.0	286.7965829372406	2.508535146713257
79	225.11466908454895	fix_post	2		12.0	77.0	2.5	blank	1.0	289.30511808395386	0.09985995292663574
80	225.2145290374756	fix_pre	0		6.0	78.0	2.5	/experiments/knapen_aot/videos/S_yt-KNdCiW8m1uY_168.mp4	0.0	289.4049780368805	0.04998302459716797
80	225.25633597373962	response	0	2		78.0	2.5	/experiments/knapen_aot/videos/S_yt-KNdCiW8m1uY_168.mp4	0.0	289.44678497314453	
80	225.26451206207275	movie	1		301.0	78.0	2.5	/experiments/knapen_aot/videos/S_yt-KNdCiW8m1uY_168.mp4	0.0	289.45496106147766	2.5083389282226562
80	227.7728509902954	fix_post	2		12.0	78.0	2.5	/experiments/knapen_aot/videos/S_yt-KNdCiW8m1uY_168.mp4	0.0	291.9632999897003	0.09998893737792969
81	227.87283992767334	fix_pre	0		29.0	79.0	2.5	/experiments/knapen_aot/videos/R_S_yt-RKo978aBdzw_173.mp4	0.0	292.06328892707825	0.24277114868164062
81	228.10632705688477	response	0	2		79.0	2.5	/experiments/knapen_aot/videos/R_S_yt-RKo978aBdzw_173.mp4	0.0	292.2967760562897	
81	228.11561107635498	movie	1		301.0	79.0	2.5	/experiments/knapen_aot/videos/R_S_yt-RKo978aBdzw_173.mp4	0.0	292.3060600757599	2.5072009563446045
81	230.62281203269958	fix_post	2		12.0	79.0	2.5	/experiments/knapen_aot/videos/R_S_yt-RKo978aBdzw_173.mp4	0.0	294.8132610321045	0.10001397132873535
82	230.72282600402832	fix_pre	0		82.0	80.0	2.5	/experiments/knapen_aot/videos/R_S_yt-FsXOl6JjzSY_15.mp4	0.0	294.9132750034332	0.6843829154968262
82	231.39804100990295	response	0	2		80.0	2.5	/experiments/knapen_aot/videos/R_S_yt-FsXOl6JjzSY_15.mp4	0.0	295.58849000930786	
82	231.40720891952515	movie	1		299.0	80.0	2.5	/experiments/knapen_aot/videos/R_S_yt-FsXOl6JjzSY_15.mp4	0.0	295.59765791893005	2.5073599815368652
82	233.914568901062	fix_post	2		12.0	80.0	2.5	/experiments/knapen_aot/videos/R_S_yt-FsXOl6JjzSY_15.mp4	0.0	298.1050179004669	0.09995198249816895
83	234.01452088356018	fix_pre	0		78.0	81.0	2.5	/experiments/knapen_aot/videos/S_production_ID_4101242.mp4	0.0	298.2049698829651	0.6500120162963867
83	234.6488070487976	response	0	2		81.0	2.5	/experiments/knapen_aot/videos/S_production_ID_4101242.mp4	0.0	298.8392560482025	
83	234.66453289985657	movie	1		203.0	81.0	2.5	/experiments/knapen_aot/videos/S_production_ID_4101242.mp4	0.0	298.8549818992615	2.508355140686035
83	237.1728880405426	fix_post	2		12.0	81.0	2.5	/experiments/knapen_aot/videos/S_production_ID_4101242.mp4	0.0	301.3633370399475	0.10001492500305176
84	237.27290296554565	fix_pre	0		57.0	82.0	2.5	/experiments/knapen_aot/videos/R_S_yt-KpOAdMtPGFs_17.mp4	0.0	301.46335196495056	0.4749460220336914
84	237.7397050857544	response	0	2		82.0	2.5	/experiments/knapen_aot/videos/R_S_yt-KpOAdMtPGFs_17.mp4	0.0	301.9301540851593	
84	237.74784898757935	movie	1		301.0	82.0	2.5	/experiments/knapen_aot/videos/R_S_yt-KpOAdMtPGFs_17.mp4	0.0	301.93829798698425	2.508291006088257
84	240.2561399936676	fix_post	2		12.0	82.0	2.5	/experiments/knapen_aot/videos/R_S_yt-KpOAdMtPGFs_17.mp4	0.0	304.4465889930725	0.10001897811889648
85	240.3561589717865	fix_pre	0		15.0	83.0	2.5	blank	1.0	304.5466079711914	0.12500810623168945
85	240.47302889823914	response	0	2		83.0	2.5	blank	1.0	304.66347789764404	
85	240.4811670780182	movie	1		301.0	83.0	2.5	blank	1.0	304.6716160774231	2.5083119869232178
85	242.9894790649414	fix_post	2		12.0	83.0	2.5	blank	1.0	307.1799280643463	0.10004496574401855
87	243.08952403068542	stim	0		111.0					307.27997303009033	0.9286839962005615
87	243.2896490097046	response	0	2						307.4800980091095	
87	244.01055097579956	response	0	space						308.20099997520447	
