trial_nr	onset	event_type	phase	response	nr_frames	movie_index	movie_duration	movie_file	blank	onset_abs	duration
0	0.13332700729370117	stim	0		765.0					644.895838022232	6.374608993530273
0	2.824683904647827	response	0	c						647.5871949195862	
0	6.083070993423462	response	0	escape						650.8455820083618	
0	6.111868858337402	response	0	4						650.8743798732758	
0	6.500259876251221	response	0	space						651.2627708911896	
1	6.507936000823975	stim	0		121.0					651.2704470157623	1.00832200050354
1	6.9831109046936035	response	0	space						651.745621919632	
1	7.433013916015625	response	0	space						652.195524930954	
1	7.516258001327515	stim	1		120.0					652.2787690162659	0.9999628067016602
1	7.8457629680633545	response	1	4						652.6082739830017	
1	7.924742937088013	response	1	space						652.6872539520264	
1	8.268831014633179	response	1	space						653.0313420295715	
2	8.516220808029175	fix_pre	0		24.0	0.0	2.5	/experiments/knapen_aot/videos/S_yt-yyIimWrvRyI_246.mp4	0.0	653.2787318229675	0.19998407363891602
2	8.708073854446411	response	0	space		0.0	2.5	/experiments/knapen_aot/videos/S_yt-yyIimWrvRyI_246.mp4	0.0	653.4705848693848	
2	8.71620488166809	movie	1		301.0	0.0	2.5	/experiments/knapen_aot/videos/S_yt-yyIimWrvRyI_246.mp4	0.0	653.4787158966064	2.508350133895874
2	11.224555015563965	fix_post	2		12.0	0.0	2.5	/experiments/knapen_aot/videos/S_yt-yyIimWrvRyI_246.mp4	0.0	655.9870660305023	0.10003995895385742
3	11.324594974517822	fix_pre	0		43.0	1.0	2.5	/experiments/knapen_aot/videos/S_yt--OkafQ5VFHs_51.mp4	0.0	656.0871059894562	0.35826802253723145
3	11.675606966018677	response	0	4		1.0	2.5	/experiments/knapen_aot/videos/S_yt--OkafQ5VFHs_51.mp4	0.0	656.438117980957	
3	11.682862997055054	movie	1		301.0	1.0	2.5	/experiments/knapen_aot/videos/S_yt--OkafQ5VFHs_51.mp4	0.0	656.4453740119934	2.508283853530884
3	14.191146850585938	fix_post	2		12.0	1.0	2.5	/experiments/knapen_aot/videos/S_yt--OkafQ5VFHs_51.mp4	0.0	658.9536578655243	0.10002517700195312
4	14.29117202758789	fix_pre	0		42.0	2.0	2.5	/experiments/knapen_aot/videos/R_S_yt-RMjo2PPEPEA_112.mp4	0.0	659.0536830425262	0.35005998611450195
4	14.63293194770813	response	0	4		2.0	2.5	/experiments/knapen_aot/videos/R_S_yt-RMjo2PPEPEA_112.mp4	0.0	659.3954429626465	
4	14.641232013702393	movie	1		300.0	2.0	2.5	/experiments/knapen_aot/videos/R_S_yt-RMjo2PPEPEA_112.mp4	0.0	659.4037430286407	2.508272886276245
4	17.149504899978638	fix_post	2		12.0	2.0	2.5	/experiments/knapen_aot/videos/R_S_yt-RMjo2PPEPEA_112.mp4	0.0	661.912015914917	0.10057806968688965
5	17.250082969665527	fix_pre	0		52.0	3.0	2.5	/experiments/knapen_aot/videos/S_yt-hRAqAwRhmwE_58.mp4	0.0	662.0125939846039	0.4327218532562256
5	17.67468285560608	response	0	4		3.0	2.5	/experiments/knapen_aot/videos/S_yt-hRAqAwRhmwE_58.mp4	0.0	662.4371938705444	
5	17.682804822921753	movie	1		301.0	3.0	2.5	/experiments/knapen_aot/videos/S_yt-hRAqAwRhmwE_58.mp4	0.0	662.4453158378601	2.5084099769592285
5	19.899658918380737	response	1	4		3.0	2.5	/experiments/knapen_aot/videos/S_yt-hRAqAwRhmwE_58.mp4	0.0	664.6621699333191	
5	20.19121479988098	fix_post	2		12.0	3.0	2.5	/experiments/knapen_aot/videos/S_yt-hRAqAwRhmwE_58.mp4	0.0	664.9537258148193	0.10002923011779785
6	20.29124402999878	fix_pre	0		49.0	4.0	2.5	/experiments/knapen_aot/videos/S_yt-Fm97IY0Z2LU_110.mp4	0.0	665.0537550449371	0.4082198143005371
6	20.69119381904602	response	0	4		4.0	2.5	/experiments/knapen_aot/videos/S_yt-Fm97IY0Z2LU_110.mp4	0.0	665.4537048339844	
6	20.699463844299316	movie	1		298.0	4.0	2.5	/experiments/knapen_aot/videos/S_yt-Fm97IY0Z2LU_110.mp4	0.0	665.4619748592377	2.508368968963623
6	23.20783281326294	fix_post	2		12.0	4.0	2.5	/experiments/knapen_aot/videos/S_yt-Fm97IY0Z2LU_110.mp4	0.0	667.9703438282013	0.09998011589050293
7	23.307812929153442	fix_pre	0		46.0	5.0	2.5	/experiments/knapen_aot/videos/S_zAKvYNtmhuc_772.mp4	0.0	668.0703239440918	0.38329505920410156
7	23.682989835739136	response	0	4		5.0	2.5	/experiments/knapen_aot/videos/S_zAKvYNtmhuc_772.mp4	0.0	668.4455008506775	
7	23.691107988357544	movie	1		300.0	5.0	2.5	/experiments/knapen_aot/videos/S_zAKvYNtmhuc_772.mp4	0.0	668.4536190032959	2.5083789825439453
7	25.791791915893555	response	1	4		5.0	2.5	/experiments/knapen_aot/videos/S_zAKvYNtmhuc_772.mp4	0.0	670.5543029308319	
7	26.19948697090149	fix_post	2		12.0	5.0	2.5	/experiments/knapen_aot/videos/S_zAKvYNtmhuc_772.mp4	0.0	670.9619979858398	0.09997200965881348
8	26.299458980560303	fix_pre	0		42.0	6.0	2.5	/experiments/knapen_aot/videos/R_S_pexels-koolshooters-7327405.mp4	0.0	671.0619699954987	0.3499758243560791
8	26.641326904296875	response	0	4		6.0	2.5	/experiments/knapen_aot/videos/R_S_pexels-koolshooters-7327405.mp4	0.0	671.4038379192352	
8	26.649434804916382	movie	1		160.0	6.0	2.5	/experiments/knapen_aot/videos/R_S_pexels-koolshooters-7327405.mp4	0.0	671.4119458198547	2.5083281993865967
8	29.15776300430298	fix_post	2		12.0	6.0	2.5	/experiments/knapen_aot/videos/R_S_pexels-koolshooters-7327405.mp4	0.0	673.9202740192413	0.10006880760192871
9	29.257831811904907	fix_pre	0		148.0	7.0	2.5	blank	1.0	674.0203428268433	1.233349084854126
9	30.482905864715576	response	0	4		7.0	2.5	blank	1.0	675.2454168796539	
9	30.491180896759033	movie	1		301.0	7.0	2.5	blank	1.0	675.2536919116974	2.508359909057617
9	32.99954080581665	fix_post	2		12.0	7.0	2.5	blank	1.0	677.762051820755	0.09990406036376953
10	33.09944486618042	fix_pre	0		258.0	8.0	2.5	/experiments/knapen_aot/videos/R_S_wc-hmW1OnCPF_xn_37.mp4	0.0	677.8619558811188	2.1504900455474854
10	35.23365092277527	response	0	4		8.0	2.5	/experiments/knapen_aot/videos/R_S_wc-hmW1OnCPF_xn_37.mp4	0.0	679.9961619377136	
10	35.249934911727905	movie	1		167.0	8.0	2.5	/experiments/knapen_aot/videos/R_S_wc-hmW1OnCPF_xn_37.mp4	0.0	680.0124459266663	2.507874011993408
10	36.84128189086914	response	1	4		8.0	2.5	/experiments/knapen_aot/videos/R_S_wc-hmW1OnCPF_xn_37.mp4	0.0	681.6037929058075	
10	37.75780892372131	fix_post	2		12.0	8.0	2.5	/experiments/knapen_aot/videos/R_S_wc-hmW1OnCPF_xn_37.mp4	0.0	682.5203199386597	0.10003399848937988
11	37.85784292221069	fix_pre	0		83.0	9.0	2.5	/experiments/knapen_aot/videos/R_S_pexels-cottonbro-9063801_1.mp4	0.0	682.620353937149	0.6915678977966309
11	38.54112887382507	response	0	4		9.0	2.5	/experiments/knapen_aot/videos/R_S_pexels-cottonbro-9063801_1.mp4	0.0	683.3036398887634	
11	38.549410820007324	movie	1		198.0	9.0	2.5	/experiments/knapen_aot/videos/R_S_pexels-cottonbro-9063801_1.mp4	0.0	683.3119218349457	2.508310079574585
11	40.88295888900757	response	1	4		9.0	2.5	/experiments/knapen_aot/videos/R_S_pexels-cottonbro-9063801_1.mp4	0.0	685.6454699039459	
11	41.05772089958191	fix_post	2		12.0	9.0	2.5	/experiments/knapen_aot/videos/R_S_pexels-cottonbro-9063801_1.mp4	0.0	685.8202319145203	0.09999799728393555
12	41.157718896865845	fix_pre	0		350.0	10.0	2.5	/experiments/knapen_aot/videos/R_S_yt-Wf-RauSbVgA_56.mp4	0.0	685.9202299118042	2.9166409969329834
12	44.06623888015747	response	0	4		10.0	2.5	/experiments/knapen_aot/videos/R_S_yt-Wf-RauSbVgA_56.mp4	0.0	688.8287498950958	
12	44.07435989379883	movie	1		301.0	10.0	2.5	/experiments/knapen_aot/videos/R_S_yt-Wf-RauSbVgA_56.mp4	0.0	688.8368709087372	2.508384943008423
12	46.58274483680725	fix_post	2		12.0	10.0	2.5	/experiments/knapen_aot/videos/R_S_yt-Wf-RauSbVgA_56.mp4	0.0	691.3452558517456	0.09997415542602539
13	46.682718992233276	fix_pre	0		318.0	11.0	2.5	/experiments/knapen_aot/videos/S_yt-11VGDAOVEag_8.mp4	0.0	691.4452300071716	2.650444984436035
13	49.32457184791565	response	0	4		11.0	2.5	/experiments/knapen_aot/videos/S_yt-11VGDAOVEag_8.mp4	0.0	694.087082862854	
13	49.33316397666931	movie	1		301.0	11.0	2.5	/experiments/knapen_aot/videos/S_yt-11VGDAOVEag_8.mp4	0.0	694.0956749916077	2.507910966873169
13	51.84107494354248	fix_post	2		12.0	11.0	2.5	/experiments/knapen_aot/videos/S_yt-11VGDAOVEag_8.mp4	0.0	696.6035859584808	0.09997296333312988
14	51.94104790687561	fix_pre	0		11.0	12.0	2.5	/experiments/knapen_aot/videos/R_S_production_ID_5020953.mp4	0.0	696.703558921814	0.09166193008422852
14	52.02457785606384	response	0	4		12.0	2.5	/experiments/knapen_aot/videos/R_S_production_ID_5020953.mp4	0.0	696.7870888710022	
14	52.03270983695984	movie	1		190.0	12.0	2.5	/experiments/knapen_aot/videos/R_S_production_ID_5020953.mp4	0.0	696.7952208518982	2.508255958557129
14	54.299537897109985	response	1	4		12.0	2.5	/experiments/knapen_aot/videos/R_S_production_ID_5020953.mp4	0.0	699.0620489120483	
14	54.54096579551697	fix_post	2		12.0	12.0	2.5	/experiments/knapen_aot/videos/R_S_production_ID_5020953.mp4	0.0	699.3034768104553	0.10008502006530762
15	54.641050815582275	fix_pre	0		170.0	13.0	2.5	blank	1.0	699.4035618305206	1.4165551662445068
15	56.04946494102478	response	0	4		13.0	2.5	blank	1.0	700.8119759559631	
15	56.05760598182678	movie	1		301.0	13.0	2.5	blank	1.0	700.8201169967651	2.508373975753784
15	58.565979957580566	fix_post	2		12.0	13.0	2.5	blank	1.0	703.3284909725189	0.10045003890991211
16	58.66642999649048	fix_pre	0		61.0	14.0	2.5	/experiments/knapen_aot/videos/R_S_yt-VjTiMtjdjTw_103.mp4	0.0	703.4289410114288	0.5078268051147461
16	59.16612887382507	response	0	4		14.0	2.5	/experiments/knapen_aot/videos/R_S_yt-VjTiMtjdjTw_103.mp4	0.0	703.9286398887634	
16	59.174256801605225	movie	1		301.0	14.0	2.5	/experiments/knapen_aot/videos/R_S_yt-VjTiMtjdjTw_103.mp4	0.0	703.9367678165436	2.5084080696105957
16	61.68266487121582	fix_post	2		12.0	14.0	2.5	/experiments/knapen_aot/videos/R_S_yt-VjTiMtjdjTw_103.mp4	0.0	706.4451758861542	0.1000070571899414
17	61.78267192840576	fix_pre	0		205.0	15.0	2.5	/experiments/knapen_aot/videos/S_production_ID_4325509.mp4	0.0	706.5451829433441	1.7082560062408447
17	63.4826819896698	response	0	4		15.0	2.5	/experiments/knapen_aot/videos/S_production_ID_4325509.mp4	0.0	708.2451930046082	
17	63.490927934646606	movie	1		202.0	15.0	2.5	/experiments/knapen_aot/videos/S_production_ID_4325509.mp4	0.0	708.253438949585	2.5084068775177
17	65.9993348121643	fix_post	2		12.0	15.0	2.5	/experiments/knapen_aot/videos/S_production_ID_4325509.mp4	0.0	710.7618458271027	0.09995007514953613
18	66.09928488731384	fix_pre	0		212.0	16.0	2.5	/experiments/knapen_aot/videos/R_S_yt-KM_SJx8CMGc_10.mp4	0.0	710.8617959022522	1.766685962677002
18	67.85783290863037	response	0	4		16.0	2.5	/experiments/knapen_aot/videos/R_S_yt-KM_SJx8CMGc_10.mp4	0.0	712.6203439235687	
18	67.86597084999084	movie	1		301.0	16.0	2.5	/experiments/knapen_aot/videos/R_S_yt-KM_SJx8CMGc_10.mp4	0.0	712.6284818649292	2.5082130432128906
18	70.37418389320374	fix_post	2		12.0	16.0	2.5	/experiments/knapen_aot/videos/R_S_yt-KM_SJx8CMGc_10.mp4	0.0	715.1366949081421	0.1000521183013916
19	70.47423601150513	fix_pre	0		34.0	17.0	2.5	/experiments/knapen_aot/videos/R_S_pexels-mart-production-7698693.mp4	0.0	715.2367470264435	0.2833290100097656
19	70.7494568824768	response	0	4		17.0	2.5	/experiments/knapen_aot/videos/R_S_pexels-mart-production-7698693.mp4	0.0	715.5119678974152	
19	70.75756502151489	movie	1		210.0	17.0	2.5	/experiments/knapen_aot/videos/R_S_pexels-mart-production-7698693.mp4	0.0	715.5200760364532	2.50837779045105
19	72.08146286010742	response	1	4		17.0	2.5	/experiments/knapen_aot/videos/R_S_pexels-mart-production-7698693.mp4	0.0	716.8439738750458	
19	72.78444600105286	response	1	4		17.0	2.5	/experiments/knapen_aot/videos/R_S_pexels-mart-production-7698693.mp4	0.0	717.5469570159912	
19	73.13277888298035	response	1	4		17.0	2.5	/experiments/knapen_aot/videos/R_S_pexels-mart-production-7698693.mp4	0.0	717.8952898979187	
19	73.26594281196594	fix_post	2		12.0	17.0	2.5	/experiments/knapen_aot/videos/R_S_pexels-mart-production-7698693.mp4	0.0	718.0284538269043	0.10002303123474121
20	73.36596584320068	fix_pre	0		75.0	18.0	2.5	/experiments/knapen_aot/videos/R_S_yt-pB9w3AA-woE_37.mp4	0.0	718.128476858139	0.6249141693115234
20	73.98266696929932	response	0	4		18.0	2.5	/experiments/knapen_aot/videos/R_S_yt-pB9w3AA-woE_37.mp4	0.0	718.7451779842377	
20	73.9908800125122	movie	1		301.0	18.0	2.5	/experiments/knapen_aot/videos/R_S_yt-pB9w3AA-woE_37.mp4	0.0	718.7533910274506	2.5083978176116943
20	74.7497169971466	response	1	4		18.0	2.5	/experiments/knapen_aot/videos/R_S_yt-pB9w3AA-woE_37.mp4	0.0	719.512228012085	
20	76.4992778301239	fix_post	2		12.0	18.0	2.5	/experiments/knapen_aot/videos/R_S_yt-pB9w3AA-woE_37.mp4	0.0	721.2617888450623	0.09995198249816895
21	76.59922981262207	fix_pre	0		56.0	19.0	2.5	blank	1.0	721.3617408275604	0.4666290283203125
21	77.05778884887695	response	0	4		19.0	2.5	blank	1.0	721.8202998638153	
21	77.06585884094238	movie	1		301.0	19.0	2.5	blank	1.0	721.8283698558807	2.508362054824829
21	79.57422089576721	fix_post	2		12.0	19.0	2.5	blank	1.0	724.3367319107056	0.10003399848937988
22	79.67425489425659	fix_pre	0		32.0	20.0	2.5	/experiments/knapen_aot/videos/R_S_yt-WRBmpC-RxIc_678.mp4	0.0	724.436765909195	0.2666630744934082
22	79.93269896507263	response	0	4		20.0	2.5	/experiments/knapen_aot/videos/R_S_yt-WRBmpC-RxIc_678.mp4	0.0	724.695209980011	
22	79.94091796875	movie	1		301.0	20.0	2.5	/experiments/knapen_aot/videos/R_S_yt-WRBmpC-RxIc_678.mp4	0.0	724.7034289836884	2.508312940597534
22	82.44923090934753	fix_post	2		12.0	20.0	2.5	/experiments/knapen_aot/videos/R_S_yt-WRBmpC-RxIc_678.mp4	0.0	727.2117419242859	0.09998703002929688
23	82.54921793937683	fix_pre	0		6.0	21.0	2.5	/experiments/knapen_aot/videos/S_yt-KM_SJx8CMGc_10.mp4	0.0	727.3117289543152	0.049980878829956055
23	82.59108090400696	response	0	4		21.0	2.5	/experiments/knapen_aot/videos/S_yt-KM_SJx8CMGc_10.mp4	0.0	727.3535919189453	
23	82.59919881820679	movie	1		301.0	21.0	2.5	/experiments/knapen_aot/videos/S_yt-KM_SJx8CMGc_10.mp4	0.0	727.3617098331451	2.5083091259002686
23	84.51606297492981	response	1	4		21.0	2.5	/experiments/knapen_aot/videos/S_yt-KM_SJx8CMGc_10.mp4	0.0	729.2785739898682	
23	85.10750794410706	fix_post	2		12.0	21.0	2.5	/experiments/knapen_aot/videos/S_yt-KM_SJx8CMGc_10.mp4	0.0	729.8700189590454	0.1000368595123291
24	85.20754480361938	fix_pre	0		99.0	22.0	2.5	/experiments/knapen_aot/videos/S_yt-CR86bVrRwfo_13.mp4	0.0	729.9700558185577	0.8250181674957275
24	86.02437686920166	response	0	4		22.0	2.5	/experiments/knapen_aot/videos/S_yt-CR86bVrRwfo_13.mp4	0.0	730.78688788414	
24	86.03256297111511	movie	1		301.0	22.0	2.5	/experiments/knapen_aot/videos/S_yt-CR86bVrRwfo_13.mp4	0.0	730.7950739860535	2.5083110332489014
24	88.54087400436401	fix_post	2		12.0	22.0	2.5	/experiments/knapen_aot/videos/S_yt-CR86bVrRwfo_13.mp4	0.0	733.3033850193024	0.0999448299407959
25	88.64081883430481	fix_pre	0		24.0	23.0	2.5	/experiments/knapen_aot/videos/R_S_yt-KV8X9IBWuJk_48.mp4	0.0	733.4033298492432	0.20001816749572754
25	88.83267498016357	response	0	4		23.0	2.5	/experiments/knapen_aot/videos/R_S_yt-KV8X9IBWuJk_48.mp4	0.0	733.5951859951019	
25	88.84083700180054	movie	1		299.0	23.0	2.5	/experiments/knapen_aot/videos/R_S_yt-KV8X9IBWuJk_48.mp4	0.0	733.6033480167389	2.508270025253296
25	91.34910702705383	fix_post	2		12.0	23.0	2.5	/experiments/knapen_aot/videos/R_S_yt-KV8X9IBWuJk_48.mp4	0.0	736.1116180419922	0.10010480880737305
26	91.4492118358612	fix_pre	0		51.0	24.0	2.5	/experiments/knapen_aot/videos/R_S_comp_GMT060_117NC_363D_1034_AUSTRALIA_v35_SDR_PS_FINAL_20180731_SDR_2K_AVC.mp4	0.0	736.2117228507996	0.4252290725708008
26	91.86597990989685	response	0	4		24.0	2.5	/experiments/knapen_aot/videos/R_S_comp_GMT060_117NC_363D_1034_AUSTRALIA_v35_SDR_PS_FINAL_20180731_SDR_2K_AVC.mp4	0.0	736.6284909248352	
26	91.874440908432	movie	1		164.0	24.0	2.5	/experiments/knapen_aot/videos/R_S_comp_GMT060_117NC_363D_1034_AUSTRALIA_v35_SDR_PS_FINAL_20180731_SDR_2K_AVC.mp4	0.0	736.6369519233704	2.5080859661102295
26	94.38252687454224	fix_post	2		12.0	24.0	2.5	/experiments/knapen_aot/videos/R_S_comp_GMT060_117NC_363D_1034_AUSTRALIA_v35_SDR_PS_FINAL_20180731_SDR_2K_AVC.mp4	0.0	739.1450378894806	0.10000014305114746
27	94.48252701759338	fix_pre	0		22.0	25.0	2.5	/experiments/knapen_aot/videos/S_comp_N013_C004_PS_v01_SDR_PS_20180925_F1970F7193_SDR_2K_AVC.mp4	0.0	739.2450380325317	0.1835949420928955
27	94.65028691291809	response	0	4		25.0	2.5	/experiments/knapen_aot/videos/S_comp_N013_C004_PS_v01_SDR_PS_20180925_F1970F7193_SDR_2K_AVC.mp4	0.0	739.4127979278564	
27	94.66612195968628	movie	1		163.0	25.0	2.5	/experiments/knapen_aot/videos/S_comp_N013_C004_PS_v01_SDR_PS_20180925_F1970F7193_SDR_2K_AVC.mp4	0.0	739.4286329746246	2.5080599784851074
27	95.56488990783691	response	1	4		25.0	2.5	/experiments/knapen_aot/videos/S_comp_N013_C004_PS_v01_SDR_PS_20180925_F1970F7193_SDR_2K_AVC.mp4	0.0	740.3274009227753	
27	97.17418193817139	fix_post	2		12.0	25.0	2.5	/experiments/knapen_aot/videos/S_comp_N013_C004_PS_v01_SDR_PS_20180925_F1970F7193_SDR_2K_AVC.mp4	0.0	741.9366929531097	0.0999610424041748
28	97.27414298057556	fix_pre	0		27.0	26.0	2.5	/experiments/knapen_aot/videos/R_S_yt-2IxVZeiSv3g_28.mp4	0.0	742.0366539955139	0.22519397735595703
28	97.49094200134277	response	0	4		26.0	2.5	/experiments/knapen_aot/videos/R_S_yt-2IxVZeiSv3g_28.mp4	0.0	742.2534530162811	
28	97.49933695793152	movie	1		301.0	26.0	2.5	/experiments/knapen_aot/videos/R_S_yt-2IxVZeiSv3g_28.mp4	0.0	742.2618479728699	2.5080759525299072
28	100.00741291046143	fix_post	2		12.0	26.0	2.5	/experiments/knapen_aot/videos/R_S_yt-2IxVZeiSv3g_28.mp4	0.0	744.7699239253998	0.10015606880187988
29	100.1075689792633	fix_pre	0		166.0	27.0	2.5	blank	1.0	744.8700799942017	1.3831698894500732
29	101.4825599193573	response	0	4		27.0	2.5	blank	1.0	746.2450709342957	
29	101.49073886871338	movie	1		301.0	27.0	2.5	blank	1.0	746.2532498836517	2.508397102355957
29	103.90751791000366	response	1	4		27.0	2.5	blank	1.0	748.670028924942	
29	103.99913597106934	fix_post	2		12.0	27.0	2.5	blank	1.0	748.7616469860077	0.1000070571899414
30	104.09914302825928	fix_pre	0		79.0	28.0	2.5	/experiments/knapen_aot/videos/R_S_yt-1Xbcf0BPT-g_57.mp4	0.0	748.8616540431976	0.6583027839660645
30	104.74928784370422	response	0	4		28.0	2.5	/experiments/knapen_aot/videos/R_S_yt-1Xbcf0BPT-g_57.mp4	0.0	749.5117988586426	
30	104.75744581222534	movie	1		301.0	28.0	2.5	/experiments/knapen_aot/videos/R_S_yt-1Xbcf0BPT-g_57.mp4	0.0	749.5199568271637	2.5083630084991455
30	107.21589994430542	response	1	4		28.0	2.5	/experiments/knapen_aot/videos/R_S_yt-1Xbcf0BPT-g_57.mp4	0.0	751.9784109592438	
30	107.26580882072449	fix_post	2		12.0	28.0	2.5	/experiments/knapen_aot/videos/R_S_yt-1Xbcf0BPT-g_57.mp4	0.0	752.0283198356628	0.1000361442565918
31	107.36584496498108	fix_pre	0		51.0	29.0	2.5	/experiments/knapen_aot/videos/R_S_yt-G_eNNzNB-hU_1.mp4	0.0	752.1283559799194	0.42509889602661133
31	107.78253388404846	response	0	4		29.0	2.5	/experiments/knapen_aot/videos/R_S_yt-G_eNNzNB-hU_1.mp4	0.0	752.5450448989868	
31	107.79094386100769	movie	1		301.0	29.0	2.5	/experiments/knapen_aot/videos/R_S_yt-G_eNNzNB-hU_1.mp4	0.0	752.553454875946	2.508254051208496
31	110.29919791221619	fix_post	2		12.0	29.0	2.5	/experiments/knapen_aot/videos/R_S_yt-G_eNNzNB-hU_1.mp4	0.0	755.0617089271545	0.09990906715393066
32	110.39910697937012	fix_pre	0		34.0	30.0	2.5	/experiments/knapen_aot/videos/S_AK_A004_C012_SDR_20191217_SDR_2K_AVC.mp4	0.0	755.1616179943085	0.2833230495452881
32	110.67419481277466	response	0	4		30.0	2.5	/experiments/knapen_aot/videos/S_AK_A004_C012_SDR_20191217_SDR_2K_AVC.mp4	0.0	755.436705827713	
32	110.6824300289154	movie	1		163.0	30.0	2.5	/experiments/knapen_aot/videos/S_AK_A004_C012_SDR_20191217_SDR_2K_AVC.mp4	0.0	755.4449410438538	2.508359909057617
32	113.19078993797302	fix_post	2		12.0	30.0	2.5	/experiments/knapen_aot/videos/S_AK_A004_C012_SDR_20191217_SDR_2K_AVC.mp4	0.0	757.9533009529114	0.10005497932434082
33	113.29084491729736	fix_pre	0		40.0	31.0	2.5	/experiments/knapen_aot/videos/R_S_yt-fQGoTMausn8_88.mp4	0.0	758.0533559322357	0.33342909812927246
33	113.61595487594604	response	0	4		31.0	2.5	/experiments/knapen_aot/videos/R_S_yt-fQGoTMausn8_88.mp4	0.0	758.3784658908844	
33	113.62427401542664	movie	1		301.0	31.0	2.5	/experiments/knapen_aot/videos/R_S_yt-fQGoTMausn8_88.mp4	0.0	758.386785030365	2.5081939697265625
33	116.1324679851532	fix_post	2		12.0	31.0	2.5	/experiments/knapen_aot/videos/R_S_yt-fQGoTMausn8_88.mp4	0.0	760.8949790000916	0.10007095336914062
34	116.23253893852234	fix_pre	0		33.0	32.0	2.5	/experiments/knapen_aot/videos/S_yt-VJ65ukWmdxQ_193.mp4	0.0	760.9950499534607	0.2749490737915039
34	116.4992208480835	response	0	4		32.0	2.5	/experiments/knapen_aot/videos/S_yt-VJ65ukWmdxQ_193.mp4	0.0	761.2617318630219	
34	116.50748801231384	movie	1		301.0	32.0	2.5	/experiments/knapen_aot/videos/S_yt-VJ65ukWmdxQ_193.mp4	0.0	761.2699990272522	2.5082387924194336
34	119.01572680473328	fix_post	2		12.0	32.0	2.5	/experiments/knapen_aot/videos/S_yt-VJ65ukWmdxQ_193.mp4	0.0	763.7782378196716	0.09995722770690918
35	119.11568403244019	fix_pre	0		597.0	33.0	2.5	/experiments/knapen_aot/videos/S_video_inspire_texas_pecos_foggy-landscape_00018.1080-h264.mp4	0.0	763.8781950473785	4.97496485710144
35	124.08250784873962	response	0	4		33.0	2.5	/experiments/knapen_aot/videos/S_video_inspire_texas_pecos_foggy-landscape_00018.1080-h264.mp4	0.0	768.845018863678	
35	124.09064888954163	movie	1		166.0	33.0	2.5	/experiments/knapen_aot/videos/S_video_inspire_texas_pecos_foggy-landscape_00018.1080-h264.mp4	0.0	768.85315990448	2.508409023284912
35	126.59905791282654	fix_post	2		12.0	33.0	2.5	/experiments/knapen_aot/videos/S_video_inspire_texas_pecos_foggy-landscape_00018.1080-h264.mp4	0.0	771.3615689277649	0.09991693496704102
36	126.69897484779358	fix_pre	0		48.0	34.0	2.5	/experiments/knapen_aot/videos/R_S_pexels-c-technical-6763571.mp4	0.0	771.4614858627319	0.40006208419799805
36	127.08340191841125	response	0	4		34.0	2.5	/experiments/knapen_aot/videos/R_S_pexels-c-technical-6763571.mp4	0.0	771.8459129333496	
36	127.09903693199158	movie	1		201.0	34.0	2.5	/experiments/knapen_aot/videos/R_S_pexels-c-technical-6763571.mp4	0.0	771.8615479469299	2.5083348751068115
36	129.6073718070984	fix_post	2		12.0	34.0	2.5	/experiments/knapen_aot/videos/R_S_pexels-c-technical-6763571.mp4	0.0	774.3698828220367	0.10006117820739746
37	129.7074329853058	fix_pre	0		33.0	35.0	2.5	blank	1.0	774.4699440002441	0.2748420238494873
37	129.9741837978363	response	0	4		35.0	2.5	blank	1.0	774.7366948127747	
37	129.98227500915527	movie	1		301.0	35.0	2.5	blank	1.0	774.7447860240936	2.5083858966827393
37	131.5241198539734	response	1	4		35.0	2.5	blank	1.0	776.2866308689117	
37	132.490660905838	fix_post	2		12.0	35.0	2.5	blank	1.0	777.2531719207764	0.09997797012329102
38	132.5906388759613	fix_pre	0		35.0	36.0	2.5	/experiments/knapen_aot/videos/S_ILSVRC2015_train_00743006.mp4	0.0	777.3531498908997	0.2916579246520996
38	132.87415099143982	response	0	4		36.0	2.5	/experiments/knapen_aot/videos/S_ILSVRC2015_train_00743006.mp4	0.0	777.6366620063782	
38	132.8822968006134	movie	1		301.0	36.0	2.5	/experiments/knapen_aot/videos/S_ILSVRC2015_train_00743006.mp4	0.0	777.6448078155518	2.508305072784424
38	135.39060187339783	fix_post	2		12.0	36.0	2.5	/experiments/knapen_aot/videos/S_ILSVRC2015_train_00743006.mp4	0.0	780.1531128883362	0.10001611709594727
39	135.49061799049377	fix_pre	0		209.0	37.0	2.5	/experiments/knapen_aot/videos/S_yt-WFiEvQuOqqg_18.mp4	0.0	780.2531290054321	1.7416799068450928
39	137.22410082817078	response	0	4		37.0	2.5	/experiments/knapen_aot/videos/S_yt-WFiEvQuOqqg_18.mp4	0.0	781.9866118431091	
39	137.23229789733887	movie	1		301.0	37.0	2.5	/experiments/knapen_aot/videos/S_yt-WFiEvQuOqqg_18.mp4	0.0	781.9948089122772	2.5083000659942627
39	139.74059796333313	fix_post	2		12.0	37.0	2.5	/experiments/knapen_aot/videos/S_yt-WFiEvQuOqqg_18.mp4	0.0	784.5031089782715	0.10001993179321289
40	139.84061789512634	fix_pre	0		220.0	38.0	2.5	/experiments/knapen_aot/videos/S_ILSVRC2015_train_00251005.mp4	0.0	784.6031289100647	1.8333511352539062
40	141.65816402435303	response	0	4		38.0	2.5	/experiments/knapen_aot/videos/S_ILSVRC2015_train_00251005.mp4	0.0	786.4206750392914	
40	141.67396903038025	movie	1		301.0	38.0	2.5	/experiments/knapen_aot/videos/S_ILSVRC2015_train_00251005.mp4	0.0	786.4364800453186	2.508281946182251
40	144.1822509765625	fix_post	2		12.0	38.0	2.5	/experiments/knapen_aot/videos/S_ILSVRC2015_train_00251005.mp4	0.0	788.9447619915009	0.10003805160522461
41	144.28228902816772	fix_pre	0		31.0	39.0	2.5	/experiments/knapen_aot/videos/R_S_video_inspire_california_big-sur_bixby_005.1080-h264.mp4	0.0	789.0448000431061	0.25832080841064453
41	144.5324409008026	response	0	4		39.0	2.5	/experiments/knapen_aot/videos/R_S_video_inspire_california_big-sur_bixby_005.1080-h264.mp4	0.0	789.294951915741	
41	144.54060983657837	movie	1		172.0	39.0	2.5	/experiments/knapen_aot/videos/R_S_video_inspire_california_big-sur_bixby_005.1080-h264.mp4	0.0	789.3031208515167	2.50828218460083
41	145.44077587127686	response	1	4		39.0	2.5	/experiments/knapen_aot/videos/R_S_video_inspire_california_big-sur_bixby_005.1080-h264.mp4	0.0	790.2032868862152	
41	147.0488920211792	fix_post	2		12.0	39.0	2.5	/experiments/knapen_aot/videos/R_S_video_inspire_california_big-sur_bixby_005.1080-h264.mp4	0.0	791.8114030361176	0.10006284713745117
42	147.14895486831665	fix_pre	0		5.0	40.0	2.5	blank	1.0	791.911465883255	0.041674137115478516
42	147.18246793746948	response	0	4		40.0	2.5	blank	1.0	791.9449789524078	
42	147.19062900543213	movie	1		301.0	40.0	2.5	blank	1.0	791.9531400203705	2.5082879066467285
42	149.69891691207886	fix_post	2		12.0	40.0	2.5	blank	1.0	794.4614279270172	0.10002303123474121
43	149.7989399433136	fix_pre	0		182.0	41.0	2.5	/experiments/knapen_aot/videos/S_yt-RMjo2PPEPEA_112.mp4	0.0	794.561450958252	1.5165798664093018
43	151.30740880966187	response	0	4		41.0	2.5	/experiments/knapen_aot/videos/S_yt-RMjo2PPEPEA_112.mp4	0.0	796.0699198246002	
43	151.3155198097229	movie	1		301.0	41.0	2.5	/experiments/knapen_aot/videos/S_yt-RMjo2PPEPEA_112.mp4	0.0	796.0780308246613	2.5083370208740234
43	153.82385683059692	fix_post	2		12.0	41.0	2.5	/experiments/knapen_aot/videos/S_yt-RMjo2PPEPEA_112.mp4	0.0	798.5863678455353	0.10005807876586914
44	153.9239149093628	fix_pre	0		39.0	42.0	2.5	/experiments/knapen_aot/videos/S_yt-uSHBdUi8_V0_24.mp4	0.0	798.6864259243011	0.32497310638427734
44	154.23317694664001	response	0	4		42.0	2.5	/experiments/knapen_aot/videos/S_yt-uSHBdUi8_V0_24.mp4	0.0	798.9956879615784	
44	154.24888801574707	movie	1		301.0	42.0	2.5	/experiments/knapen_aot/videos/S_yt-uSHBdUi8_V0_24.mp4	0.0	799.0113990306854	2.508283853530884
44	156.75717186927795	fix_post	2		12.0	42.0	2.5	/experiments/knapen_aot/videos/S_yt-uSHBdUi8_V0_24.mp4	0.0	801.5196828842163	0.10003304481506348
45	156.85720491409302	fix_pre	0		31.0	43.0	2.5	/experiments/knapen_aot/videos/S_wc-DcFDe419cL3d_17.mp4	0.0	801.6197159290314	0.25836992263793945
45	157.0998899936676	response	0	4		43.0	2.5	/experiments/knapen_aot/videos/S_wc-DcFDe419cL3d_17.mp4	0.0	801.862401008606	
45	157.11557483673096	movie	1		164.0	43.0	2.5	/experiments/knapen_aot/videos/S_wc-DcFDe419cL3d_17.mp4	0.0	801.8780858516693	2.50832200050354
45	159.6238968372345	fix_post	2		12.0	43.0	2.5	/experiments/knapen_aot/videos/S_wc-DcFDe419cL3d_17.mp4	0.0	804.3864078521729	0.0999760627746582
46	159.72387290000916	fix_pre	0		378.0	44.0	2.5	/experiments/knapen_aot/videos/S_TYs22gin-EU_57.mp4	0.0	804.4863839149475	3.1499710083007812
46	162.8656828403473	response	0	4		44.0	2.5	/experiments/knapen_aot/videos/S_TYs22gin-EU_57.mp4	0.0	807.6281938552856	
46	162.87384390830994	movie	1		301.0	44.0	2.5	/experiments/knapen_aot/videos/S_TYs22gin-EU_57.mp4	0.0	807.6363549232483	2.5083389282226562
46	165.3821828365326	fix_post	2		12.0	44.0	2.5	/experiments/knapen_aot/videos/S_TYs22gin-EU_57.mp4	0.0	810.144693851471	0.1000070571899414
47	165.48218989372253	fix_pre	0		33.0	45.0	2.5	/experiments/knapen_aot/videos/S_yt-OPzchvF7jO8_53.mp4	0.0	810.2447009086609	0.2749910354614258
47	165.74902486801147	response	0	4		45.0	2.5	/experiments/knapen_aot/videos/S_yt-OPzchvF7jO8_53.mp4	0.0	810.5115358829498	
47	165.75718092918396	movie	1		300.0	45.0	2.5	/experiments/knapen_aot/videos/S_yt-OPzchvF7jO8_53.mp4	0.0	810.5196919441223	2.5082669258117676
47	166.97717881202698	response	1	4		45.0	2.5	/experiments/knapen_aot/videos/S_yt-OPzchvF7jO8_53.mp4	0.0	811.7396898269653	
47	168.25721788406372	response	1	4		45.0	2.5	/experiments/knapen_aot/videos/S_yt-OPzchvF7jO8_53.mp4	0.0	813.0197288990021	
47	168.26544785499573	fix_post	2		12.0	45.0	2.5	/experiments/knapen_aot/videos/S_yt-OPzchvF7jO8_53.mp4	0.0	813.0279588699341	0.10004210472106934
48	168.3654899597168	fix_pre	0		42.0	46.0	2.5	/experiments/knapen_aot/videos/R_S_yt-CeOZeB1LXwE_79.mp4	0.0	813.1280009746552	0.34999990463256836
48	168.70727586746216	response	0	4		46.0	2.5	/experiments/knapen_aot/videos/R_S_yt-CeOZeB1LXwE_79.mp4	0.0	813.4697868824005	
48	168.71548986434937	movie	1		301.0	46.0	2.5	/experiments/knapen_aot/videos/R_S_yt-CeOZeB1LXwE_79.mp4	0.0	813.4780008792877	2.5083279609680176
48	171.22381782531738	fix_post	2		12.0	46.0	2.5	/experiments/knapen_aot/videos/R_S_yt-CeOZeB1LXwE_79.mp4	0.0	815.9863288402557	0.1000211238861084
49	171.3238389492035	fix_pre	0		38.0	47.0	2.5	blank	1.0	816.0863499641418	0.31662797927856445
49	171.63227581977844	response	0	4		47.0	2.5	blank	1.0	816.3947868347168	
49	171.64046692848206	movie	1		301.0	47.0	2.5	blank	1.0	816.4029779434204	2.5083389282226562
49	174.1488058567047	fix_post	2		12.0	47.0	2.5	blank	1.0	818.9113168716431	0.10001206398010254
50	174.24881792068481	fix_pre	0		79.0	48.0	2.5	/experiments/knapen_aot/videos/R_S_yt-n_eO-7KedAE_21.mp4	0.0	819.0113289356232	0.659527063369751
50	174.89891600608826	response	0	4		48.0	2.5	/experiments/knapen_aot/videos/R_S_yt-n_eO-7KedAE_21.mp4	0.0	819.6614270210266	
50	174.90834498405457	movie	1		301.0	48.0	2.5	/experiments/knapen_aot/videos/R_S_yt-n_eO-7KedAE_21.mp4	0.0	819.6708559989929	2.507114887237549
50	177.0156979560852	response	1	4		48.0	2.5	/experiments/knapen_aot/videos/R_S_yt-n_eO-7KedAE_21.mp4	0.0	821.7782089710236	
50	177.41545987129211	fix_post	2		12.0	48.0	2.5	/experiments/knapen_aot/videos/R_S_yt-n_eO-7KedAE_21.mp4	0.0	822.1779708862305	0.0999760627746582
51	177.51543593406677	fix_pre	0		71.0	49.0	2.5	/experiments/knapen_aot/videos/S_comp_C001_C005_PS_v01_SDR_PS_20180925_SDR_2K_AVC.mp4	0.0	822.2779469490051	0.5917088985443115
51	178.09890794754028	response	0	4		49.0	2.5	/experiments/knapen_aot/videos/S_comp_C001_C005_PS_v01_SDR_PS_20180925_SDR_2K_AVC.mp4	0.0	822.8614189624786	
51	178.10714483261108	movie	1		170.0	49.0	2.5	/experiments/knapen_aot/videos/S_comp_C001_C005_PS_v01_SDR_PS_20180925_SDR_2K_AVC.mp4	0.0	822.8696558475494	2.508345127105713
51	180.6154899597168	fix_post	2		12.0	49.0	2.5	/experiments/knapen_aot/videos/S_comp_C001_C005_PS_v01_SDR_PS_20180925_SDR_2K_AVC.mp4	0.0	825.3780009746552	0.10000395774841309
52	180.7154939174652	fix_pre	0		15.0	50.0	2.5	/experiments/knapen_aot/videos/R_S_production_ID_4154238.mp4	0.0	825.4780049324036	0.12495803833007812
52	180.83221888542175	response	0	4		50.0	2.5	/experiments/knapen_aot/videos/R_S_production_ID_4154238.mp4	0.0	825.5947299003601	
52	180.8404519557953	movie	1		202.0	50.0	2.5	/experiments/knapen_aot/videos/R_S_production_ID_4154238.mp4	0.0	825.6029629707336	2.5083119869232178
52	183.3487639427185	fix_post	2		12.0	50.0	2.5	/experiments/knapen_aot/videos/R_S_production_ID_4154238.mp4	0.0	828.1112749576569	0.09998607635498047
53	183.4487500190735	fix_pre	0		43.0	51.0	2.5	/experiments/knapen_aot/videos/R_S_yt-a0axt7n0GuQ_19.mp4	0.0	828.2112610340118	0.3583219051361084
53	183.7990279197693	response	0	4		51.0	2.5	/experiments/knapen_aot/videos/R_S_yt-a0axt7n0GuQ_19.mp4	0.0	828.5615389347076	
53	183.8070719242096	movie	1		301.0	51.0	2.5	/experiments/knapen_aot/videos/R_S_yt-a0axt7n0GuQ_19.mp4	0.0	828.569582939148	2.5083889961242676
53	185.09053897857666	response	1	4		51.0	2.5	/experiments/knapen_aot/videos/R_S_yt-a0axt7n0GuQ_19.mp4	0.0	829.853049993515	
53	186.31546092033386	fix_post	2		12.0	51.0	2.5	/experiments/knapen_aot/videos/R_S_yt-a0axt7n0GuQ_19.mp4	0.0	831.0779719352722	0.10002303123474121
54	186.4154839515686	fix_pre	0		87.0	52.0	2.5	/experiments/knapen_aot/videos/R_S_yt-Ek1jcvett9E_33.mp4	0.0	831.177994966507	0.724951982498169
54	187.13226079940796	response	0	4		52.0	2.5	/experiments/knapen_aot/videos/R_S_yt-Ek1jcvett9E_33.mp4	0.0	831.8947718143463	
54	187.14043593406677	movie	1		301.0	52.0	2.5	/experiments/knapen_aot/videos/R_S_yt-Ek1jcvett9E_33.mp4	0.0	831.9029469490051	2.508349895477295
54	189.64878582954407	fix_post	2		12.0	52.0	2.5	/experiments/knapen_aot/videos/R_S_yt-Ek1jcvett9E_33.mp4	0.0	834.4112968444824	0.10001802444458008
55	189.74880385398865	fix_pre	0		34.0	53.0	2.5	/experiments/knapen_aot/videos/S_yt-GWlwb2QsxIA_48.mp4	0.0	834.511314868927	0.2844510078430176
55	190.02391695976257	response	0	4		53.0	2.5	/experiments/knapen_aot/videos/S_yt-GWlwb2QsxIA_48.mp4	0.0	834.7864279747009	
55	190.03325486183167	movie	1		301.0	53.0	2.5	/experiments/knapen_aot/videos/S_yt-GWlwb2QsxIA_48.mp4	0.0	834.79576587677	2.5072340965270996
55	192.54048895835876	fix_post	2		12.0	53.0	2.5	/experiments/knapen_aot/videos/S_yt-GWlwb2QsxIA_48.mp4	0.0	837.3029999732971	0.09995889663696289
56	192.64044785499573	fix_pre	0		38.0	54.0	2.5	/experiments/knapen_aot/videos/R_S_yt-oxUpc8I5wWQ_238.mp4	0.0	837.4029588699341	0.31665706634521484
56	192.94887399673462	response	0	4		54.0	2.5	/experiments/knapen_aot/videos/R_S_yt-oxUpc8I5wWQ_238.mp4	0.0	837.711385011673	
56	192.95710492134094	movie	1		300.0	54.0	2.5	/experiments/knapen_aot/videos/R_S_yt-oxUpc8I5wWQ_238.mp4	0.0	837.7196159362793	2.508281946182251
56	195.4653868675232	fix_post	2		12.0	54.0	2.5	/experiments/knapen_aot/videos/R_S_yt-oxUpc8I5wWQ_238.mp4	0.0	840.2278978824615	0.10002803802490234
57	195.5654149055481	fix_pre	0		24.0	55.0	2.5	blank	1.0	840.3279259204865	0.19997000694274902
57	195.75718879699707	response	0	4		55.0	2.5	blank	1.0	840.5196998119354	
57	195.76538491249084	movie	1		301.0	55.0	2.5	blank	1.0	840.5278959274292	2.508394956588745
57	198.2737798690796	fix_post	2		12.0	55.0	2.5	blank	1.0	843.036290884018	0.09987211227416992
58	198.37365198135376	fix_pre	0		181.0	56.0	2.5	/experiments/knapen_aot/videos/S_pexels-c-technical-6344801.mp4	0.0	843.1361629962921	1.5083308219909668
58	199.8737759590149	response	0	4		56.0	2.5	/experiments/knapen_aot/videos/S_pexels-c-technical-6344801.mp4	0.0	844.6362869739532	
58	199.88198280334473	movie	1		198.0	56.0	2.5	/experiments/knapen_aot/videos/S_pexels-c-technical-6344801.mp4	0.0	844.6444938182831	2.5084261894226074
58	201.1397008895874	response	1	4		56.0	2.5	/experiments/knapen_aot/videos/S_pexels-c-technical-6344801.mp4	0.0	845.9022119045258	
58	202.39040899276733	fix_post	2		12.0	56.0	2.5	/experiments/knapen_aot/videos/S_pexels-c-technical-6344801.mp4	0.0	847.1529200077057	0.09997701644897461
59	202.4903860092163	fix_pre	0		5.0	57.0	2.5	/experiments/knapen_aot/videos/R_S_ILSVRC2015_train_00743006.mp4	0.0	847.2528970241547	0.04282999038696289
59	202.52386784553528	response	0	4		57.0	2.5	/experiments/knapen_aot/videos/R_S_ILSVRC2015_train_00743006.mp4	0.0	847.2863788604736	
59	202.53321599960327	movie	1		300.0	57.0	2.5	/experiments/knapen_aot/videos/R_S_ILSVRC2015_train_00743006.mp4	0.0	847.2957270145416	2.5071818828582764
59	204.63217902183533	response	1	4		57.0	2.5	/experiments/knapen_aot/videos/R_S_ILSVRC2015_train_00743006.mp4	0.0	849.3946900367737	
59	205.04039788246155	fix_post	2		12.0	57.0	2.5	/experiments/knapen_aot/videos/R_S_ILSVRC2015_train_00743006.mp4	0.0	849.8029088973999	0.09997200965881348
60	205.14036989212036	fix_pre	0		147.0	58.0	2.5	/experiments/knapen_aot/videos/S_yt-T1mMDOVjvrE_83.mp4	0.0	849.9028809070587	1.2260079383850098
60	206.35712480545044	response	0	4		58.0	2.5	/experiments/knapen_aot/videos/S_yt-T1mMDOVjvrE_83.mp4	0.0	851.1196358203888	
60	206.36637783050537	movie	1		298.0	58.0	2.5	/experiments/knapen_aot/videos/S_yt-T1mMDOVjvrE_83.mp4	0.0	851.1288888454437	2.5072381496429443
60	208.87361598014832	fix_post	2		12.0	58.0	2.5	/experiments/knapen_aot/videos/S_yt-T1mMDOVjvrE_83.mp4	0.0	853.6361269950867	0.1000819206237793
61	208.9736979007721	fix_pre	0		23.0	59.0	2.5	/experiments/knapen_aot/videos/S_yt-2IxVZeiSv3g_28.mp4	0.0	853.7362089157104	0.1915900707244873
61	209.15714383125305	response	0	4		59.0	2.5	/experiments/knapen_aot/videos/S_yt-2IxVZeiSv3g_28.mp4	0.0	853.9196548461914	
61	209.16528797149658	movie	1		301.0	59.0	2.5	/experiments/knapen_aot/videos/S_yt-2IxVZeiSv3g_28.mp4	0.0	853.9277989864349	2.5083649158477783
61	211.67365288734436	fix_post	2		12.0	59.0	2.5	/experiments/knapen_aot/videos/S_yt-2IxVZeiSv3g_28.mp4	0.0	856.4361639022827	0.10000014305114746
62	211.7736530303955	fix_pre	0		44.0	60.0	2.5	/experiments/knapen_aot/videos/R_S_ILSVRC2015_train_00725000.mp4	0.0	856.5361640453339	0.36683177947998047
62	212.13212299346924	response	0	4		60.0	2.5	/experiments/knapen_aot/videos/R_S_ILSVRC2015_train_00725000.mp4	0.0	856.8946340084076	
62	212.1404848098755	movie	1		301.0	60.0	2.5	/experiments/knapen_aot/videos/R_S_ILSVRC2015_train_00725000.mp4	0.0	856.9029958248138	2.5081100463867188
62	214.04889297485352	response	1	4		60.0	2.5	/experiments/knapen_aot/videos/R_S_ILSVRC2015_train_00725000.mp4	0.0	858.8114039897919	
62	214.6485948562622	fix_post	2		12.0	60.0	2.5	/experiments/knapen_aot/videos/R_S_ILSVRC2015_train_00725000.mp4	0.0	859.4111058712006	0.09995317459106445
63	214.74854803085327	fix_pre	0		73.0	61.0	2.5	/experiments/knapen_aot/videos/R_S_yt-zlbtESb7Fcw_28.mp4	0.0	859.5110590457916	0.6083838939666748
63	215.34877586364746	response	0	4		61.0	2.5	/experiments/knapen_aot/videos/R_S_yt-zlbtESb7Fcw_28.mp4	0.0	860.1112868785858	
63	215.35693192481995	movie	1		301.0	61.0	2.5	/experiments/knapen_aot/videos/R_S_yt-zlbtESb7Fcw_28.mp4	0.0	860.1194429397583	2.50839900970459
63	217.4437539577484	response	1	4		61.0	2.5	/experiments/knapen_aot/videos/R_S_yt-zlbtESb7Fcw_28.mp4	0.0	862.2062649726868	
63	217.86533093452454	fix_post	2		12.0	61.0	2.5	/experiments/knapen_aot/videos/R_S_yt-zlbtESb7Fcw_28.mp4	0.0	862.6278419494629	0.09999489784240723
64	217.96532583236694	fix_pre	0		192.0	62.0	2.5	blank	1.0	862.7278368473053	1.6000089645385742
64	219.54970502853394	response	0	4		62.0	2.5	blank	1.0	864.3122160434723	
64	219.56533479690552	movie	1		301.0	62.0	2.5	blank	1.0	864.3278458118439	2.5083470344543457
64	222.07368183135986	fix_post	2		12.0	62.0	2.5	blank	1.0	866.8361928462982	0.09996819496154785
65	222.1736500263214	fix_pre	0		47.0	63.0	2.5	/experiments/knapen_aot/videos/R_S_production_ID_4820325.mp4	0.0	866.9361610412598	0.39158177375793457
65	222.55702900886536	response	0	4		63.0	2.5	/experiments/knapen_aot/videos/R_S_production_ID_4820325.mp4	0.0	867.3195400238037	
65	222.56523180007935	movie	1		166.0	63.0	2.5	/experiments/knapen_aot/videos/R_S_production_ID_4820325.mp4	0.0	867.3277428150177	2.5083131790161133
65	225.07354497909546	fix_post	2		12.0	63.0	2.5	/experiments/knapen_aot/videos/R_S_production_ID_4820325.mp4	0.0	869.8360559940338	0.10006093978881836
66	225.17360591888428	fix_pre	0		17.0	64.0	2.5	/experiments/knapen_aot/videos/R_S_yt-CNq5mTA8oXY_176.mp4	0.0	869.9361169338226	0.14162993431091309
66	225.30699491500854	response	0	4		64.0	2.5	/experiments/knapen_aot/videos/R_S_yt-CNq5mTA8oXY_176.mp4	0.0	870.0695059299469	
66	225.3152358531952	movie	1		301.0	64.0	2.5	/experiments/knapen_aot/videos/R_S_yt-CNq5mTA8oXY_176.mp4	0.0	870.0777468681335	2.508308172225952
66	226.0153830051422	response	1	4		64.0	2.5	/experiments/knapen_aot/videos/R_S_yt-CNq5mTA8oXY_176.mp4	0.0	870.7778940200806	
66	227.82354402542114	fix_post	2		12.0	64.0	2.5	/experiments/knapen_aot/videos/R_S_yt-CNq5mTA8oXY_176.mp4	0.0	872.5860550403595	0.09994196891784668
67	227.923485994339	fix_pre	0		59.0	65.0	2.5	/experiments/knapen_aot/videos/S_Pexels_Videos_2795731.mp4	0.0	872.6859970092773	0.49179792404174805
67	228.40703296661377	response	0	4		65.0	2.5	/experiments/knapen_aot/videos/S_Pexels_Videos_2795731.mp4	0.0	873.1695439815521	
67	228.41528391838074	movie	1		167.0	65.0	2.5	/experiments/knapen_aot/videos/S_Pexels_Videos_2795731.mp4	0.0	873.1777949333191	2.508249044418335
67	229.15583181381226	response	1	4		65.0	2.5	/experiments/knapen_aot/videos/S_Pexels_Videos_2795731.mp4	0.0	873.9183428287506	
67	230.86537790298462	response	1	4		65.0	2.5	/experiments/knapen_aot/videos/S_Pexels_Videos_2795731.mp4	0.0	875.627888917923	
67	230.92353296279907	fix_post	2		12.0	65.0	2.5	/experiments/knapen_aot/videos/S_Pexels_Videos_2795731.mp4	0.0	875.6860439777374	0.09995484352111816
68	231.0234878063202	fix_pre	0		109.0	66.0	2.5	/experiments/knapen_aot/videos/S_bing-www_cnn_com_2015_04_20_living_steak-eating-contest-molly-schuyler-feat_index_html_1.mp4	0.0	875.7859988212585	0.9083971977233887
68	231.9237048625946	response	0	4		66.0	2.5	/experiments/knapen_aot/videos/S_bing-www_cnn_com_2015_04_20_living_steak-eating-contest-molly-schuyler-feat_index_html_1.mp4	0.0	876.686215877533	
68	231.93188500404358	movie	1		301.0	66.0	2.5	/experiments/knapen_aot/videos/S_bing-www_cnn_com_2015_04_20_living_steak-eating-contest-molly-schuyler-feat_index_html_1.mp4	0.0	876.6943960189819	2.5083439350128174
68	234.4402289390564	fix_post	2		12.0	66.0	2.5	/experiments/knapen_aot/videos/S_bing-www_cnn_com_2015_04_20_living_steak-eating-contest-molly-schuyler-feat_index_html_1.mp4	0.0	879.2027399539948	0.10002303123474121
69	234.54025197029114	fix_pre	0		170.0	67.0	2.5	/experiments/knapen_aot/videos/R_S_wc-PqINyFk_ku4u_18.mp4	0.0	879.3027629852295	1.4166209697723389
69	235.94865489006042	response	0	4		67.0	2.5	/experiments/knapen_aot/videos/R_S_wc-PqINyFk_ku4u_18.mp4	0.0	880.7111659049988	
69	235.95687294006348	movie	1		165.0	67.0	2.5	/experiments/knapen_aot/videos/R_S_wc-PqINyFk_ku4u_18.mp4	0.0	880.7193839550018	2.5083000659942627
69	236.48213601112366	response	1	4		67.0	2.5	/experiments/knapen_aot/videos/R_S_wc-PqINyFk_ku4u_18.mp4	0.0	881.244647026062	
69	237.47369384765625	response	1	4		67.0	2.5	/experiments/knapen_aot/videos/R_S_wc-PqINyFk_ku4u_18.mp4	0.0	882.2362048625946	
69	238.46517300605774	fix_post	2		12.0	67.0	2.5	/experiments/knapen_aot/videos/R_S_wc-PqINyFk_ku4u_18.mp4	0.0	883.2276840209961	0.10001587867736816
70	238.5651888847351	fix_pre	0		33.0	68.0	2.5	blank	1.0	883.3276998996735	0.2749910354614258
70	238.82444500923157	response	0	4		68.0	2.5	blank	1.0	883.5869560241699	
70	238.84017992019653	movie	1		301.0	68.0	2.5	blank	1.0	883.6026909351349	2.5084760189056396
70	241.34865593910217	fix_post	2		12.0	68.0	2.5	blank	1.0	886.1111669540405	0.09992599487304688
71	241.44858193397522	fix_pre	0		232.0	69.0	2.5	/experiments/knapen_aot/videos/R_S_yt-kXarkCFJLeg_46.mp4	0.0	886.2110929489136	1.9332880973815918
71	243.37386298179626	response	0	4		69.0	2.5	/experiments/knapen_aot/videos/R_S_yt-kXarkCFJLeg_46.mp4	0.0	888.1363739967346	
71	243.3818700313568	movie	1		300.0	69.0	2.5	/experiments/knapen_aot/videos/R_S_yt-kXarkCFJLeg_46.mp4	0.0	888.1443810462952	2.5083649158477783
71	245.8902349472046	fix_post	2		12.0	69.0	2.5	/experiments/knapen_aot/videos/R_S_yt-kXarkCFJLeg_46.mp4	0.0	890.652745962143	0.09998798370361328
72	245.9902229309082	fix_pre	0		224.0	70.0	2.5	/experiments/knapen_aot/videos/R_S_yt-wEbfIR14zZ8_7.mp4	0.0	890.7527339458466	1.8666229248046875
72	247.84861397743225	response	0	4		70.0	2.5	/experiments/knapen_aot/videos/R_S_yt-wEbfIR14zZ8_7.mp4	0.0	892.6111249923706	
72	247.8568458557129	movie	1		301.0	70.0	2.5	/experiments/knapen_aot/videos/R_S_yt-wEbfIR14zZ8_7.mp4	0.0	892.6193568706512	2.5082950592041016
72	250.365140914917	fix_post	2		12.0	70.0	2.5	/experiments/knapen_aot/videos/R_S_yt-wEbfIR14zZ8_7.mp4	0.0	895.1276519298553	0.0999460220336914
73	250.46508693695068	fix_pre	0		122.0	71.0	2.5	/experiments/knapen_aot/videos/R_S_yt-ybH6uAiFbjc_273.mp4	0.0	895.227597951889	1.0167279243469238
73	251.47358083724976	response	0	4		71.0	2.5	/experiments/knapen_aot/videos/R_S_yt-ybH6uAiFbjc_273.mp4	0.0	896.2360918521881	
73	251.4818148612976	movie	1		301.0	71.0	2.5	/experiments/knapen_aot/videos/R_S_yt-ybH6uAiFbjc_273.mp4	0.0	896.244325876236	2.50833797454834
73	253.99015283584595	fix_post	2		12.0	71.0	2.5	/experiments/knapen_aot/videos/R_S_yt-ybH6uAiFbjc_273.mp4	0.0	898.7526638507843	0.09995412826538086
74	254.09010696411133	fix_pre	0		59.0	72.0	2.5	/experiments/knapen_aot/videos/R_S_yt-QJ2k6vA8aco_12.mp4	0.0	898.8526179790497	0.49170899391174316
74	254.5735638141632	response	0	4		72.0	2.5	/experiments/knapen_aot/videos/R_S_yt-QJ2k6vA8aco_12.mp4	0.0	899.3360748291016	
74	254.58181595802307	movie	1		301.0	72.0	2.5	/experiments/knapen_aot/videos/R_S_yt-QJ2k6vA8aco_12.mp4	0.0	899.3443269729614	2.5083420276641846
74	257.09015798568726	fix_post	2		12.0	72.0	2.5	/experiments/knapen_aot/videos/R_S_yt-QJ2k6vA8aco_12.mp4	0.0	901.8526690006256	0.09988689422607422
75	257.19004487991333	fix_pre	0		35.0	73.0	2.5	/experiments/knapen_aot/videos/S_production_ID_4820325.mp4	0.0	901.9525558948517	0.29169702529907227
75	257.46599888801575	response	0	4		73.0	2.5	/experiments/knapen_aot/videos/S_production_ID_4820325.mp4	0.0	902.2285099029541	
75	257.4817419052124	movie	1		169.0	73.0	2.5	/experiments/knapen_aot/videos/S_production_ID_4820325.mp4	0.0	902.2442529201508	2.5083460807800293
75	258.4889569282532	response	1	4		73.0	2.5	/experiments/knapen_aot/videos/S_production_ID_4820325.mp4	0.0	903.2514679431915	
75	259.99008798599243	fix_post	2		12.0	73.0	2.5	/experiments/knapen_aot/videos/S_production_ID_4820325.mp4	0.0	904.7525990009308	0.09993886947631836
76	260.09002685546875	fix_pre	0		35.0	74.0	2.5	/experiments/knapen_aot/videos/R_S_yt--OkafQ5VFHs_51.mp4	0.0	904.8525378704071	0.2916901111602783
76	260.3735649585724	response	0	4		74.0	2.5	/experiments/knapen_aot/videos/R_S_yt--OkafQ5VFHs_51.mp4	0.0	905.1360759735107	
76	260.381716966629	movie	1		301.0	74.0	2.5	/experiments/knapen_aot/videos/R_S_yt--OkafQ5VFHs_51.mp4	0.0	905.1442279815674	2.5083940029144287
76	262.89011096954346	fix_post	2		12.0	74.0	2.5	/experiments/knapen_aot/videos/R_S_yt--OkafQ5VFHs_51.mp4	0.0	907.6526219844818	0.09997296333312988
77	262.9900839328766	fix_pre	0		2.0	75.0	2.5	/experiments/knapen_aot/videos/R_S_comp_LW_L001_C003__PSNK_DENOISE_v04_SDR_PS_FINAL_20180803_SDR_2K_AVC.mp4	0.0	907.7525949478149	0.016746044158935547
77	262.9986689090729	response	0	4		75.0	2.5	/experiments/knapen_aot/videos/R_S_comp_LW_L001_C003__PSNK_DENOISE_v04_SDR_PS_FINAL_20180803_SDR_2K_AVC.mp4	0.0	907.7611799240112	
77	263.0068299770355	movie	1		164.0	75.0	2.5	/experiments/knapen_aot/videos/R_S_comp_LW_L001_C003__PSNK_DENOISE_v04_SDR_PS_FINAL_20180803_SDR_2K_AVC.mp4	0.0	907.7693409919739	2.508190870285034
77	263.9975218772888	response	1	4		75.0	2.5	/experiments/knapen_aot/videos/R_S_comp_LW_L001_C003__PSNK_DENOISE_v04_SDR_PS_FINAL_20180803_SDR_2K_AVC.mp4	0.0	908.7600328922272	
77	265.51502084732056	fix_post	2		12.0	75.0	2.5	/experiments/knapen_aot/videos/R_S_comp_LW_L001_C003__PSNK_DENOISE_v04_SDR_PS_FINAL_20180803_SDR_2K_AVC.mp4	0.0	910.2775318622589	0.10010504722595215
78	265.6151258945465	fix_pre	0		38.0	76.0	2.5	/experiments/knapen_aot/videos/R_S_yt-bQRBtP9zkms_111.mp4	0.0	910.3776369094849	0.31674790382385254
78	265.9235157966614	response	0	4		76.0	2.5	/experiments/knapen_aot/videos/R_S_yt-bQRBtP9zkms_111.mp4	0.0	910.6860268115997	
78	265.93187379837036	movie	1		301.0	76.0	2.5	/experiments/knapen_aot/videos/R_S_yt-bQRBtP9zkms_111.mp4	0.0	910.6943848133087	2.5082621574401855
78	268.44013595581055	fix_post	2		12.0	76.0	2.5	/experiments/knapen_aot/videos/R_S_yt-bQRBtP9zkms_111.mp4	0.0	913.2026469707489	0.09989500045776367
79	268.5400309562683	fix_pre	0		32.0	77.0	2.5	blank	1.0	913.3025419712067	0.26674604415893555
79	268.7985348701477	response	0	4		77.0	2.5	blank	1.0	913.5610458850861	
79	268.80677700042725	movie	1		301.0	77.0	2.5	blank	1.0	913.5692880153656	2.508319854736328
79	270.9152150154114	response	1	4		77.0	2.5	blank	1.0	915.6777260303497	
79	271.3150968551636	fix_post	2		12.0	77.0	2.5	blank	1.0	916.0776078701019	0.09993100166320801
80	271.4150278568268	fix_pre	0		71.0	78.0	2.5	/experiments/knapen_aot/videos/R_S_Oo8otu7cQ20_112.mp4	0.0	916.1775388717651	0.5917861461639404
80	271.9985258579254	response	0	4		78.0	2.5	/experiments/knapen_aot/videos/R_S_Oo8otu7cQ20_112.mp4	0.0	916.7610368728638	
80	272.0068140029907	movie	1		301.0	78.0	2.5	/experiments/knapen_aot/videos/R_S_Oo8otu7cQ20_112.mp4	0.0	916.7693250179291	2.508281946182251
80	274.515095949173	fix_post	2		12.0	78.0	2.5	/experiments/knapen_aot/videos/R_S_Oo8otu7cQ20_112.mp4	0.0	919.2776069641113	0.09997105598449707
81	274.61506700515747	fix_pre	0		37.0	79.0	2.5	/experiments/knapen_aot/videos/S_yt-0d5TkclKWVA_146.mp4	0.0	919.3775780200958	0.3083069324493408
81	274.91515588760376	response	0	4		79.0	2.5	/experiments/knapen_aot/videos/S_yt-0d5TkclKWVA_146.mp4	0.0	919.6776669025421	
81	274.9233739376068	movie	1		301.0	79.0	2.5	/experiments/knapen_aot/videos/S_yt-0d5TkclKWVA_146.mp4	0.0	919.6858849525452	2.5082719326019287
81	277.43164587020874	fix_post	2		12.0	79.0	2.5	/experiments/knapen_aot/videos/S_yt-0d5TkclKWVA_146.mp4	0.0	922.1941568851471	0.0999760627746582
82	277.5316219329834	fix_pre	0		37.0	80.0	2.5	/experiments/knapen_aot/videos/S_b6-4.mp4	0.0	922.2941329479218	0.3168160915374756
82	277.83186292648315	response	0	4		80.0	2.5	/experiments/knapen_aot/videos/S_b6-4.mp4	0.0	922.5943739414215	
82	277.8484380245209	movie	1		163.0	80.0	2.5	/experiments/knapen_aot/videos/S_b6-4.mp4	0.0	922.6109490394592	2.499952793121338
82	278.9977149963379	response	1	4		80.0	2.5	/experiments/knapen_aot/videos/S_b6-4.mp4	0.0	923.7602260112762	
82	279.94768381118774	response	1	4		80.0	2.5	/experiments/knapen_aot/videos/S_b6-4.mp4	0.0	924.7101948261261	
82	280.3483908176422	fix_post	2		12.0	80.0	2.5	/experiments/knapen_aot/videos/S_b6-4.mp4	0.0	925.1109018325806	0.09992504119873047
83	280.44831585884094	fix_pre	0		67.0	81.0	2.5	/experiments/knapen_aot/videos/R_S_yt-LdHRVIb4nIE_6.mp4	0.0	925.2108268737793	0.5584380626678467
83	280.999892950058	response	0	4		81.0	2.5	/experiments/knapen_aot/videos/R_S_yt-LdHRVIb4nIE_6.mp4	0.0	925.7624039649963	
83	281.0067539215088	movie	1		300.0	81.0	2.5	/experiments/knapen_aot/videos/R_S_yt-LdHRVIb4nIE_6.mp4	0.0	925.7692649364471	2.5082480907440186
83	283.5150020122528	fix_post	2		12.0	81.0	2.5	/experiments/knapen_aot/videos/R_S_yt-LdHRVIb4nIE_6.mp4	0.0	928.2775130271912	0.09998893737792969
84	283.61499094963074	fix_pre	0		42.0	82.0	2.5	/experiments/knapen_aot/videos/R_S_yt-Ozx_f0a0ZDI_32.mp4	0.0	928.3775019645691	0.34998393058776855
84	283.9567928314209	response	0	4		82.0	2.5	/experiments/knapen_aot/videos/R_S_yt-Ozx_f0a0ZDI_32.mp4	0.0	928.7193038463593	
84	283.9649748802185	movie	1		301.0	82.0	2.5	/experiments/knapen_aot/videos/R_S_yt-Ozx_f0a0ZDI_32.mp4	0.0	928.7274858951569	2.5083980560302734
84	286.4733729362488	fix_post	2		12.0	82.0	2.5	/experiments/knapen_aot/videos/R_S_yt-Ozx_f0a0ZDI_32.mp4	0.0	931.2358839511871	0.09994006156921387
85	286.573312997818	fix_pre	0		38.0	83.0	2.5	blank	1.0	931.3358240127563	0.31672096252441406
85	286.87425899505615	response	0	4		83.0	2.5	blank	1.0	931.6367700099945	
85	286.8900339603424	movie	1		301.0	83.0	2.5	blank	1.0	931.6525449752808	2.508296012878418
85	289.3983299732208	fix_post	2		12.0	83.0	2.5	blank	1.0	934.1608409881592	0.0999300479888916
87	289.4982600212097	stim	0		227.0					934.2607710361481	1.8917498588562012
87	289.69011092185974	response	0	4						934.4526219367981	
87	291.3843879699707	response	0	space						936.1468989849091	
