trial_nr	onset	event_type	phase	response	nr_frames	movie_index	movie_duration	movie_file	blank	onset_abs	duration
0	0.15832114219665527	stim	0		23.0					123.21744704246521	0.1923818588256836
0	0.3346731662750244	response	0	space						123.39379906654358	
1	0.35070300102233887	stim	0		121.0					123.4098289012909	1.0072381496429443
1	0.9667360782623291	response	0	space						124.02586197853088	
1	1.2746200561523438	response	0	space						124.3337459564209	
1	1.3579411506652832	stim	1		120.0					124.41706705093384	1.0001518726348877
1	1.7330541610717773	response	1	space						124.79218006134033	
1	2.2663559913635254	response	1	space						125.32548189163208	
2	2.358093023300171	fix_pre	0		32.0	0.0	2.5	/experiments/knapen_aot/oldvideos/S_comp_A105_C003_0212CT_FLARE_v10_SDR_PS_FINAL_20180711_SDR_2K_AVC.mp4	0.0	125.41721892356873	0.2665369510650635
2	2.616374969482422	response	0	space		0.0	2.5	/experiments/knapen_aot/oldvideos/S_comp_A105_C003_0212CT_FLARE_v10_SDR_PS_FINAL_20180711_SDR_2K_AVC.mp4	0.0	125.67550086975098	
2	2.6246299743652344	movie	1		161.0	0.0	2.5	/experiments/knapen_aot/oldvideos/S_comp_A105_C003_0212CT_FLARE_v10_SDR_PS_FINAL_20180711_SDR_2K_AVC.mp4	0.0	125.68375587463379	2.5083470344543457
2	5.13297700881958	fix_post	2		12.0	0.0	2.5	/experiments/knapen_aot/oldvideos/S_comp_A105_C003_0212CT_FLARE_v10_SDR_PS_FINAL_20180711_SDR_2K_AVC.mp4	0.0	128.19210290908813	0.09993410110473633
3	5.232911109924316	fix_pre	0		58.0	1.0	2.5	/experiments/knapen_aot/oldvideos/S_WCwb-DeQOSg_85.mp4	0.0	128.29203701019287	0.4852938652038574
3	5.710812091827393	response	0	4		1.0	2.5	/experiments/knapen_aot/oldvideos/S_WCwb-DeQOSg_85.mp4	0.0	128.76993799209595	
3	5.718204975128174	movie	1		295.0	1.0	2.5	/experiments/knapen_aot/oldvideos/S_WCwb-DeQOSg_85.mp4	0.0	128.77733087539673	2.506432056427002
3	8.224637031555176	fix_post	2		12.0	1.0	2.5	/experiments/knapen_aot/oldvideos/S_WCwb-DeQOSg_85.mp4	0.0	131.28376293182373	0.10001111030578613
4	8.324648141860962	fix_pre	0		19.0	2.0	2.5	/experiments/knapen_aot/oldvideos/R_S_yt-hRAqAwRhmwE_58.mp4	0.0	131.38377404212952	0.15830302238464355
4	8.474693059921265	response	0	2		2.0	2.5	/experiments/knapen_aot/oldvideos/R_S_yt-hRAqAwRhmwE_58.mp4	0.0	131.53381896018982	
4	8.482951164245605	movie	1		301.0	2.0	2.5	/experiments/knapen_aot/oldvideos/R_S_yt-hRAqAwRhmwE_58.mp4	0.0	131.54207706451416	2.5083298683166504
4	10.991281032562256	fix_post	2		12.0	2.0	2.5	/experiments/knapen_aot/oldvideos/R_S_yt-hRAqAwRhmwE_58.mp4	0.0	134.0504069328308	0.09988713264465332
5	11.09116816520691	fix_pre	0		40.0	3.0	2.5	/experiments/knapen_aot/oldvideos/S_video.mp4	0.0	134.15029406547546	0.33334994316101074
5	11.416382074356079	response	0	4		3.0	2.5	/experiments/knapen_aot/oldvideos/S_video.mp4	0.0	134.47550797462463	
5	11.42451810836792	movie	1		164.0	3.0	2.5	/experiments/knapen_aot/oldvideos/S_video.mp4	0.0	134.48364400863647	2.508375883102417
5	13.932893991470337	fix_post	2		12.0	3.0	2.5	/experiments/knapen_aot/oldvideos/S_video.mp4	0.0	136.9920198917389	0.10001397132873535
6	14.032907962799072	fix_pre	0		5.0	4.0	2.5	/experiments/knapen_aot/oldvideos/S_DL_B002_C011_SDR_20191122_SDR_2K_AVC.mp4	0.0	137.09203386306763	0.0417020320892334
6	14.066333055496216	response	0	2		4.0	2.5	/experiments/knapen_aot/oldvideos/S_DL_B002_C011_SDR_20191122_SDR_2K_AVC.mp4	0.0	137.12545895576477	
6	14.074609994888306	movie	1		162.0	4.0	2.5	/experiments/knapen_aot/oldvideos/S_DL_B002_C011_SDR_20191122_SDR_2K_AVC.mp4	0.0	137.13373589515686	2.508265972137451
6	16.582875967025757	fix_post	2		12.0	4.0	2.5	/experiments/knapen_aot/oldvideos/S_DL_B002_C011_SDR_20191122_SDR_2K_AVC.mp4	0.0	139.6420018672943	0.10001611709594727
7	16.682892084121704	fix_pre	0		25.0	5.0	2.5	/experiments/knapen_aot/oldvideos/R_S_yt-6MwA-jx56AQ_612.mp4	0.0	139.74201798439026	0.20892810821533203
7	16.88301706314087	response	0	4		5.0	2.5	/experiments/knapen_aot/oldvideos/R_S_yt-6MwA-jx56AQ_612.mp4	0.0	139.94214296340942	
7	16.891820192337036	movie	1		301.0	5.0	2.5	/experiments/knapen_aot/oldvideos/R_S_yt-6MwA-jx56AQ_612.mp4	0.0	139.9509460926056	2.507783889770508
7	19.399604082107544	fix_post	2		12.0	5.0	2.5	/experiments/knapen_aot/oldvideos/R_S_yt-6MwA-jx56AQ_612.mp4	0.0	142.4587299823761	0.100006103515625
8	19.49961018562317	fix_pre	0		21.0	6.0	2.5	blank	1.0	142.55873608589172	0.17493677139282227
8	19.66629409790039	response	0	2		6.0	2.5	blank	1.0	142.72541999816895	
8	19.67454695701599	movie	1		301.0	6.0	2.5	blank	1.0	142.73367285728455	2.5083420276641846
8	22.182888984680176	fix_post	2		12.0	6.0	2.5	blank	1.0	145.24201488494873	0.09996700286865234
9	22.282855987548828	fix_pre	0		64.0	7.0	2.5	/experiments/knapen_aot/oldvideos/S_ux8Mvi8P16k_168.mp4	0.0	145.34198188781738	0.5333051681518555
9	22.807955980300903	response	0	4		7.0	2.5	/experiments/knapen_aot/oldvideos/S_ux8Mvi8P16k_168.mp4	0.0	145.86708188056946	
9	22.816161155700684	movie	1		301.0	7.0	2.5	/experiments/knapen_aot/oldvideos/S_ux8Mvi8P16k_168.mp4	0.0	145.87528705596924	2.5083730220794678
9	25.32453417778015	fix_post	2		12.0	7.0	2.5	/experiments/knapen_aot/oldvideos/S_ux8Mvi8P16k_168.mp4	0.0	148.3836600780487	0.10016298294067383
10	25.424697160720825	fix_pre	0		26.0	8.0	2.5	/experiments/knapen_aot/oldvideos/R_S_yt-7lULOC_rSE0_747.mp4	0.0	148.48382306098938	0.2169179916381836
10	25.632930040359497	response	0	2		8.0	2.5	/experiments/knapen_aot/oldvideos/R_S_yt-7lULOC_rSE0_747.mp4	0.0	148.69205594062805	
10	25.64161515235901	movie	1		301.0	8.0	2.5	/experiments/knapen_aot/oldvideos/R_S_yt-7lULOC_rSE0_747.mp4	0.0	148.70074105262756	2.507906913757324
10	28.149522066116333	fix_post	2		12.0	8.0	2.5	/experiments/knapen_aot/oldvideos/R_S_yt-7lULOC_rSE0_747.mp4	0.0	151.2086479663849	0.10000205039978027
11	28.249524116516113	fix_pre	0		26.0	9.0	2.5	/experiments/knapen_aot/oldvideos/S_yt-wUqpCtBOFBA_89.mp4	0.0	151.30865001678467	0.2165389060974121
11	28.457950115203857	response	0	4		9.0	2.5	/experiments/knapen_aot/oldvideos/S_yt-wUqpCtBOFBA_89.mp4	0.0	151.5170760154724	
11	28.466063022613525	movie	1		301.0	9.0	2.5	/experiments/knapen_aot/oldvideos/S_yt-wUqpCtBOFBA_89.mp4	0.0	151.52518892288208	2.5083470344543457
11	30.97441005706787	fix_post	2		12.0	9.0	2.5	/experiments/knapen_aot/oldvideos/S_yt-wUqpCtBOFBA_89.mp4	0.0	154.03353595733643	0.10008692741394043
12	31.07449698448181	fix_pre	0		34.0	10.0	2.5	/experiments/knapen_aot/oldvideos/R_S_yt-qazCIJqjxUU_3.mp4	0.0	154.13362288475037	0.28322720527648926
12	31.349642992019653	response	0	2		10.0	2.5	/experiments/knapen_aot/oldvideos/R_S_yt-qazCIJqjxUU_3.mp4	0.0	154.4087688922882	
12	31.3577241897583	movie	1		301.0	10.0	2.5	/experiments/knapen_aot/oldvideos/R_S_yt-qazCIJqjxUU_3.mp4	0.0	154.41685009002686	2.508419990539551
12	33.86614418029785	fix_post	2		12.0	10.0	2.5	/experiments/knapen_aot/oldvideos/R_S_yt-qazCIJqjxUU_3.mp4	0.0	156.9252700805664	0.10000491142272949
13	33.96614909172058	fix_pre	0		25.0	11.0	2.5	/experiments/knapen_aot/oldvideos/S_yt--v_iMUMMX6g_39.mp4	0.0	157.02527499198914	0.20829296112060547
13	34.166274070739746	response	0	4		11.0	2.5	/experiments/knapen_aot/oldvideos/S_yt--v_iMUMMX6g_39.mp4	0.0	157.2253999710083	
13	34.17444205284119	movie	1		301.0	11.0	2.5	/experiments/knapen_aot/oldvideos/S_yt--v_iMUMMX6g_39.mp4	0.0	157.23356795310974	2.508439064025879
13	36.682881116867065	fix_post	2		12.0	11.0	2.5	/experiments/knapen_aot/oldvideos/S_yt--v_iMUMMX6g_39.mp4	0.0	159.74200701713562	0.09987497329711914
14	36.782756090164185	fix_pre	0		35.0	12.0	2.5	blank	1.0	159.84188199043274	0.2916860580444336
14	37.058640003204346	response	0	2		12.0	2.5	blank	1.0	160.1177659034729	
14	37.07444214820862	movie	1		301.0	12.0	2.5	blank	1.0	160.13356804847717	2.5084400177001953
14	39.58288216590881	fix_post	2		12.0	12.0	2.5	blank	1.0	162.64200806617737	0.09996795654296875
15	39.68285012245178	fix_pre	0		24.0	13.0	2.5	/experiments/knapen_aot/oldvideos/S_yt-PP93D7b7Ni4_10.mp4	0.0	162.74197602272034	0.19990301132202148
15	39.87455701828003	response	0	4		13.0	2.5	/experiments/knapen_aot/oldvideos/S_yt-PP93D7b7Ni4_10.mp4	0.0	162.93368291854858	
15	39.882753133773804	movie	1		301.0	13.0	2.5	/experiments/knapen_aot/oldvideos/S_yt-PP93D7b7Ni4_10.mp4	0.0	162.94187903404236	2.5083160400390625
15	42.391069173812866	fix_post	2		12.0	13.0	2.5	/experiments/knapen_aot/oldvideos/S_yt-PP93D7b7Ni4_10.mp4	0.0	165.45019507408142	0.10006189346313477
16	42.491131067276	fix_pre	0		32.0	14.0	2.5	/experiments/knapen_aot/oldvideos/S_pexels-diva-plavalaguna-6985395.mp4	0.0	165.55025696754456	0.26660799980163574
16	42.74968910217285	response	0	2		14.0	2.5	/experiments/knapen_aot/oldvideos/S_pexels-diva-plavalaguna-6985395.mp4	0.0	165.8088150024414	
16	42.75773906707764	movie	1		162.0	14.0	2.5	/experiments/knapen_aot/oldvideos/S_pexels-diva-plavalaguna-6985395.mp4	0.0	165.8168649673462	2.5083720684051514
16	45.26611113548279	fix_post	2		12.0	14.0	2.5	/experiments/knapen_aot/oldvideos/S_pexels-diva-plavalaguna-6985395.mp4	0.0	168.32523703575134	0.09997797012329102
17	45.36608910560608	fix_pre	0		20.0	15.0	2.5	/experiments/knapen_aot/oldvideos/R_S_nPwtvvPgdNc_39.mp4	0.0	168.42521500587463	0.16666388511657715
17	45.517024993896484	response	0	4		15.0	2.5	/experiments/knapen_aot/oldvideos/R_S_nPwtvvPgdNc_39.mp4	0.0	168.57615089416504	
17	45.532752990722656	movie	1		301.0	15.0	2.5	/experiments/knapen_aot/oldvideos/R_S_nPwtvvPgdNc_39.mp4	0.0	168.5918788909912	2.50832200050354
17	48.041074991226196	fix_post	2		12.0	15.0	2.5	/experiments/knapen_aot/oldvideos/R_S_nPwtvvPgdNc_39.mp4	0.0	171.10020089149475	0.1004190444946289
18	48.141494035720825	fix_pre	0		33.0	16.0	2.5	/experiments/knapen_aot/oldvideos/S_yt-tEzCpMrjOHs_24.mp4	0.0	171.20061993598938	0.2745809555053711
18	48.407840967178345	response	0	2		16.0	2.5	/experiments/knapen_aot/oldvideos/S_yt-tEzCpMrjOHs_24.mp4	0.0	171.4669668674469	
18	48.416074991226196	movie	1		301.0	16.0	2.5	/experiments/knapen_aot/oldvideos/S_yt-tEzCpMrjOHs_24.mp4	0.0	171.47520089149475	2.5083069801330566
18	50.92438197135925	fix_post	2		12.0	16.0	2.5	/experiments/knapen_aot/oldvideos/S_yt-tEzCpMrjOHs_24.mp4	0.0	173.9835078716278	0.10001921653747559
19	51.02440118789673	fix_pre	0		35.0	17.0	2.5	/experiments/knapen_aot/oldvideos/R_S_yt-wz2opOBqClo_14.mp4	0.0	174.08352708816528	0.2916429042816162
19	51.30781817436218	response	0	4		17.0	2.5	/experiments/knapen_aot/oldvideos/R_S_yt-wz2opOBqClo_14.mp4	0.0	174.36694407463074	
19	51.316044092178345	movie	1		301.0	17.0	2.5	/experiments/knapen_aot/oldvideos/R_S_yt-wz2opOBqClo_14.mp4	0.0	174.3751699924469	2.5083608627319336
19	53.82440495491028	fix_post	2		12.0	17.0	2.5	/experiments/knapen_aot/oldvideos/R_S_yt-wz2opOBqClo_14.mp4	0.0	176.88353085517883	0.10014915466308594
20	53.924554109573364	fix_pre	0		46.0	18.0	2.5	/experiments/knapen_aot/oldvideos/S_yt-OFbbvxTLrtM_132.mp4	0.0	176.98368000984192	0.3834269046783447
20	54.299463987350464	response	0	2		18.0	2.5	/experiments/knapen_aot/oldvideos/S_yt-OFbbvxTLrtM_132.mp4	0.0	177.35858988761902	
20	54.30798101425171	movie	1		301.0	18.0	2.5	/experiments/knapen_aot/oldvideos/S_yt-OFbbvxTLrtM_132.mp4	0.0	177.36710691452026	2.50811505317688
20	56.81609606742859	fix_post	2		12.0	18.0	2.5	/experiments/knapen_aot/oldvideos/S_yt-OFbbvxTLrtM_132.mp4	0.0	179.87522196769714	0.10018801689147949
21	56.91628408432007	fix_pre	0		28.0	19.0	2.5	/experiments/knapen_aot/oldvideos/R_S_ILSVRC2015_train_00371006.mp4	0.0	179.97540998458862	0.23304200172424316
21	57.133689165115356	response	0	4		19.0	2.5	/experiments/knapen_aot/oldvideos/R_S_ILSVRC2015_train_00371006.mp4	0.0	180.1928150653839	
21	57.14932608604431	movie	1		301.0	19.0	2.5	/experiments/knapen_aot/oldvideos/R_S_ILSVRC2015_train_00371006.mp4	0.0	180.20845198631287	2.5083611011505127
21	59.657687187194824	fix_post	2		12.0	19.0	2.5	/experiments/knapen_aot/oldvideos/R_S_ILSVRC2015_train_00371006.mp4	0.0	182.71681308746338	0.09990477561950684
22	59.75759196281433	fix_pre	0		6.0	20.0	2.5	/experiments/knapen_aot/oldvideos/S_yt-y3tyx6cZjmA_412.mp4	0.0	182.81671786308289	0.050350189208984375
22	59.79954814910889	response	0	2		20.0	2.5	/experiments/knapen_aot/oldvideos/S_yt-y3tyx6cZjmA_412.mp4	0.0	182.85867404937744	
22	59.807942152023315	movie	1		301.0	20.0	2.5	/experiments/knapen_aot/oldvideos/S_yt-y3tyx6cZjmA_412.mp4	0.0	182.86706805229187	2.508028984069824
22	62.31597113609314	fix_post	2		12.0	20.0	2.5	/experiments/knapen_aot/oldvideos/S_yt-y3tyx6cZjmA_412.mp4	0.0	185.3750970363617	0.10005402565002441
23	62.416025161743164	fix_pre	0		21.0	21.0	2.5	blank	1.0	185.47515106201172	0.1749269962310791
23	62.582802057266235	response	0	4		21.0	2.5	blank	1.0	185.6419279575348	
23	62.59095215797424	movie	1		301.0	21.0	2.5	blank	1.0	185.6500780582428	2.508713960647583
23	65.09966611862183	fix_post	2		12.0	21.0	2.5	blank	1.0	188.15879201889038	0.09964203834533691
24	65.19930815696716	fix_pre	0		28.0	22.0	2.5	/experiments/knapen_aot/oldvideos/R_S_yt-PK-Eip9wFr0_24.mp4	0.0	188.25843405723572	0.23353099822998047
24	65.42446804046631	response	0	4		22.0	2.5	/experiments/knapen_aot/oldvideos/R_S_yt-PK-Eip9wFr0_24.mp4	0.0	188.48359394073486	
24	65.43283915519714	movie	1		301.0	22.0	2.5	/experiments/knapen_aot/oldvideos/R_S_yt-PK-Eip9wFr0_24.mp4	0.0	188.4919650554657	2.508162021636963
24	67.9410011768341	fix_post	2		12.0	22.0	2.5	/experiments/knapen_aot/oldvideos/R_S_yt-PK-Eip9wFr0_24.mp4	0.0	191.00012707710266	0.10003495216369629
25	68.0410361289978	fix_pre	0		18.0	23.0	2.5	/experiments/knapen_aot/oldvideos/R_S_yt-1UFhynm5g6Y_266.mp4	0.0	191.10016202926636	0.1499040126800537
25	68.18268299102783	response	0	2		23.0	2.5	/experiments/knapen_aot/oldvideos/R_S_yt-1UFhynm5g6Y_266.mp4	0.0	191.2418088912964	
25	68.19094014167786	movie	1		301.0	23.0	2.5	/experiments/knapen_aot/oldvideos/R_S_yt-1UFhynm5g6Y_266.mp4	0.0	191.2500660419464	2.508359909057617
25	70.69930005073547	fix_post	2		12.0	23.0	2.5	/experiments/knapen_aot/oldvideos/R_S_yt-1UFhynm5g6Y_266.mp4	0.0	193.75842595100403	0.0999910831451416
26	70.79929113388062	fix_pre	0		19.0	24.0	2.5	/experiments/knapen_aot/oldvideos/S_pexels-mikhail-nilov-8410084_1.mp4	0.0	193.85841703414917	0.1583998203277588
26	70.94943118095398	response	0	4		24.0	2.5	/experiments/knapen_aot/oldvideos/S_pexels-mikhail-nilov-8410084_1.mp4	0.0	194.00855708122253	
26	70.95769095420837	movie	1		163.0	24.0	2.5	/experiments/knapen_aot/oldvideos/S_pexels-mikhail-nilov-8410084_1.mp4	0.0	194.01681685447693	2.5082972049713135
26	73.46598815917969	fix_post	2		12.0	24.0	2.5	/experiments/knapen_aot/oldvideos/S_pexels-mikhail-nilov-8410084_1.mp4	0.0	196.52511405944824	0.10003900527954102
27	73.56602716445923	fix_pre	0		65.0	25.0	2.5	/experiments/knapen_aot/oldvideos/R_S_yt-7WYXuBHeorw_188.mp4	0.0	196.62515306472778	0.541611909866333
27	74.09936618804932	response	0	2		25.0	2.5	/experiments/knapen_aot/oldvideos/R_S_yt-7WYXuBHeorw_188.mp4	0.0	197.15849208831787	
27	74.10763907432556	movie	1		301.0	25.0	2.5	/experiments/knapen_aot/oldvideos/R_S_yt-7WYXuBHeorw_188.mp4	0.0	197.16676497459412	2.5083189010620117
27	76.61595797538757	fix_post	2		12.0	25.0	2.5	/experiments/knapen_aot/oldvideos/R_S_yt-7WYXuBHeorw_188.mp4	0.0	199.67508387565613	0.1000220775604248
28	76.715980052948	fix_pre	0		15.0	26.0	2.5	blank	1.0	199.77510595321655	0.12491202354431152
28	76.83269715309143	response	0	4		26.0	2.5	blank	1.0	199.89182305335999	
28	76.84089207649231	movie	1		301.0	26.0	2.5	blank	1.0	199.90001797676086	2.5086240768432617
28	79.34951615333557	fix_post	2		12.0	26.0	2.5	blank	1.0	202.40864205360413	0.09970283508300781
29	79.44921898841858	fix_pre	0		30.0	27.0	2.5	/experiments/knapen_aot/oldvideos/S_video_inspire_italy_como_cerano-dintelvi_006.1080-h264.mp4	0.0	202.50834488868713	0.25003504753112793
29	79.69107818603516	response	0	4		27.0	2.5	/experiments/knapen_aot/oldvideos/S_video_inspire_italy_como_cerano-dintelvi_006.1080-h264.mp4	0.0	202.7502040863037	
29	79.6992540359497	movie	1		170.0	27.0	2.5	/experiments/knapen_aot/oldvideos/S_video_inspire_italy_como_cerano-dintelvi_006.1080-h264.mp4	0.0	202.75837993621826	2.5084850788116455
29	82.20773911476135	fix_post	2		12.0	27.0	2.5	/experiments/knapen_aot/oldvideos/S_video_inspire_italy_como_cerano-dintelvi_006.1080-h264.mp4	0.0	205.2668650150299	0.1001899242401123
30	82.30792903900146	fix_pre	0		14.0	28.0	2.5	/experiments/knapen_aot/oldvideos/R_S_comp_A007_C017_01156B_v02_SDR_PS_20180925_SDR_2K_AVC.mp4	0.0	205.36705493927002	0.11628413200378418
30	82.416020154953	response	0	2		28.0	2.5	/experiments/knapen_aot/oldvideos/R_S_comp_A007_C017_01156B_v02_SDR_PS_20180925_SDR_2K_AVC.mp4	0.0	205.47514605522156	
30	82.42421317100525	movie	1		166.0	28.0	2.5	/experiments/knapen_aot/oldvideos/R_S_comp_A007_C017_01156B_v02_SDR_PS_20180925_SDR_2K_AVC.mp4	0.0	205.4833390712738	2.5083558559417725
30	84.93256902694702	fix_post	2		12.0	28.0	2.5	/experiments/knapen_aot/oldvideos/R_S_comp_A007_C017_01156B_v02_SDR_PS_20180925_SDR_2K_AVC.mp4	0.0	207.99169492721558	0.10002803802490234
31	85.03259706497192	fix_pre	0		20.0	29.0	2.5	/experiments/knapen_aot/oldvideos/R_S_yt-hHdxZ26SImA_17.mp4	0.0	208.09172296524048	0.16663789749145508
31	85.1910490989685	response	0	4		29.0	2.5	/experiments/knapen_aot/oldvideos/R_S_yt-hHdxZ26SImA_17.mp4	0.0	208.25017499923706	
31	85.19923496246338	movie	1		301.0	29.0	2.5	/experiments/knapen_aot/oldvideos/R_S_yt-hHdxZ26SImA_17.mp4	0.0	208.25836086273193	2.508371114730835
31	87.70760607719421	fix_post	2		12.0	29.0	2.5	/experiments/knapen_aot/oldvideos/R_S_yt-hHdxZ26SImA_17.mp4	0.0	210.76673197746277	0.10035490989685059
32	87.80796098709106	fix_pre	0		24.0	30.0	2.5	/experiments/knapen_aot/oldvideos/R_S_yt-sIXdPhfS67U_203.mp4	0.0	210.86708688735962	0.19953513145446777
32	87.99931001663208	response	0	2		30.0	2.5	/experiments/knapen_aot/oldvideos/R_S_yt-sIXdPhfS67U_203.mp4	0.0	211.05843591690063	
32	88.00749611854553	movie	1		301.0	30.0	2.5	/experiments/knapen_aot/oldvideos/R_S_yt-sIXdPhfS67U_203.mp4	0.0	211.0666220188141	2.508875846862793
32	90.51637196540833	fix_post	2		12.0	30.0	2.5	/experiments/knapen_aot/oldvideos/R_S_yt-sIXdPhfS67U_203.mp4	0.0	213.57549786567688	0.09950900077819824
33	90.61588096618652	fix_pre	0		28.0	31.0	2.5	/experiments/knapen_aot/oldvideos/S_yt-Q5wYs9vSzlA_30.mp4	0.0	213.67500686645508	0.23342108726501465
33	90.84095001220703	response	0	4		31.0	2.5	/experiments/knapen_aot/oldvideos/S_yt-Q5wYs9vSzlA_30.mp4	0.0	213.9000759124756	
33	90.84930205345154	movie	1		301.0	31.0	2.5	/experiments/knapen_aot/oldvideos/S_yt-Q5wYs9vSzlA_30.mp4	0.0	213.9084279537201	2.5082759857177734
33	93.35757803916931	fix_post	2		12.0	31.0	2.5	/experiments/knapen_aot/oldvideos/S_yt-Q5wYs9vSzlA_30.mp4	0.0	216.41670393943787	0.0999600887298584
34	93.45753812789917	fix_pre	0		33.0	32.0	2.5	/experiments/knapen_aot/oldvideos/S_production_ID_5020960.mp4	0.0	216.51666402816772	0.2750258445739746
34	93.72429299354553	response	0	2		32.0	2.5	/experiments/knapen_aot/oldvideos/S_production_ID_5020960.mp4	0.0	216.7834188938141	
34	93.73256397247314	movie	1		203.0	32.0	2.5	/experiments/knapen_aot/oldvideos/S_production_ID_5020960.mp4	0.0	216.7916898727417	2.508316993713379
34	96.24088096618652	fix_post	2		12.0	32.0	2.5	/experiments/knapen_aot/oldvideos/S_production_ID_5020960.mp4	0.0	219.30000686645508	0.1000051498413086
35	96.34088611602783	fix_pre	0		33.0	33.0	2.5	/experiments/knapen_aot/oldvideos/R_S_yt-G_eNNzNB-hU_1.mp4	0.0	219.4000120162964	0.27500104904174805
35	96.60017895698547	response	0	4		33.0	2.5	/experiments/knapen_aot/oldvideos/R_S_yt-G_eNNzNB-hU_1.mp4	0.0	219.65930485725403	
35	96.61588716506958	movie	1		301.0	33.0	2.5	/experiments/knapen_aot/oldvideos/R_S_yt-G_eNNzNB-hU_1.mp4	0.0	219.67501306533813	2.5083718299865723
35	99.12425899505615	fix_post	2		12.0	33.0	2.5	/experiments/knapen_aot/oldvideos/R_S_yt-G_eNNzNB-hU_1.mp4	0.0	222.1833848953247	0.10004496574401855
36	99.22430396080017	fix_pre	0		28.0	34.0	2.5	/experiments/knapen_aot/oldvideos/S_yt--vHa85DHvLU_31.mp4	0.0	222.28342986106873	0.2331860065460205
36	99.44933199882507	response	0	2		34.0	2.5	/experiments/knapen_aot/oldvideos/S_yt--vHa85DHvLU_31.mp4	0.0	222.50845789909363	
36	99.45748996734619	movie	1		301.0	34.0	2.5	/experiments/knapen_aot/oldvideos/S_yt--vHa85DHvLU_31.mp4	0.0	222.51661586761475	2.5083611011505127
36	101.9658510684967	fix_post	2		12.0	34.0	2.5	/experiments/knapen_aot/oldvideos/S_yt--vHa85DHvLU_31.mp4	0.0	225.02497696876526	0.10002589225769043
37	102.0658769607544	fix_pre	0		56.0	35.0	2.5	blank	1.0	225.12500286102295	0.4665641784667969
37	102.52432203292847	response	0	4		35.0	2.5	blank	1.0	225.58344793319702	
37	102.53244113922119	movie	1		301.0	35.0	2.5	blank	1.0	225.59156703948975	2.508769989013672
37	105.04121112823486	fix_post	2		12.0	35.0	2.5	blank	1.0	228.10033702850342	0.09974288940429688
38	105.14095401763916	fix_pre	0		21.0	36.0	2.5	/experiments/knapen_aot/oldvideos/R_S_yt-hRAqAwRhmwE_58.mp4	0.0	228.20007991790771	0.17484116554260254
38	105.3076000213623	response	0	4		36.0	2.5	/experiments/knapen_aot/oldvideos/R_S_yt-hRAqAwRhmwE_58.mp4	0.0	228.36672592163086	
38	105.31579518318176	movie	1		301.0	36.0	2.5	/experiments/knapen_aot/oldvideos/R_S_yt-hRAqAwRhmwE_58.mp4	0.0	228.37492108345032	2.5084869861602783
38	107.82428216934204	fix_post	2		12.0	36.0	2.5	/experiments/knapen_aot/oldvideos/R_S_yt-hRAqAwRhmwE_58.mp4	0.0	230.8834080696106	0.09981489181518555
39	107.92409706115723	fix_pre	0		19.0	37.0	2.5	/experiments/knapen_aot/oldvideos/R_S_yt-M8wvzt_BMXM_173.mp4	0.0	230.98322296142578	0.15836405754089355
39	108.07425618171692	response	0	2		37.0	2.5	/experiments/knapen_aot/oldvideos/R_S_yt-M8wvzt_BMXM_173.mp4	0.0	231.13338208198547	
39	108.08246111869812	movie	1		301.0	37.0	2.5	/experiments/knapen_aot/oldvideos/R_S_yt-M8wvzt_BMXM_173.mp4	0.0	231.14158701896667	2.5084750652313232
39	110.59093618392944	fix_post	2		12.0	37.0	2.5	/experiments/knapen_aot/oldvideos/R_S_yt-M8wvzt_BMXM_173.mp4	0.0	233.650062084198	0.09986686706542969
40	110.69080305099487	fix_pre	0		40.0	38.0	2.5	/experiments/knapen_aot/oldvideos/S_yt-Ilr77XzakaY_95.mp4	0.0	233.74992895126343	0.33332204818725586
40	111.01605105400085	response	0	4		38.0	2.5	/experiments/knapen_aot/oldvideos/S_yt-Ilr77XzakaY_95.mp4	0.0	234.0751769542694	
40	111.02412509918213	movie	1		301.0	38.0	2.5	/experiments/knapen_aot/oldvideos/S_yt-Ilr77XzakaY_95.mp4	0.0	234.08325099945068	2.508486032485962
40	113.53261113166809	fix_post	2		12.0	38.0	2.5	/experiments/knapen_aot/oldvideos/S_yt-Ilr77XzakaY_95.mp4	0.0	236.59173703193665	0.09986686706542969
41	113.63247799873352	fix_pre	0		35.0	39.0	2.5	/experiments/knapen_aot/oldvideos/S_yt-RWN5qOIgqec_25.mp4	0.0	236.69160389900208	0.2916421890258789
41	113.91588616371155	response	0	2		39.0	2.5	/experiments/knapen_aot/oldvideos/S_yt-RWN5qOIgqec_25.mp4	0.0	236.9750120639801	
41	113.9241201877594	movie	1		301.0	39.0	2.5	/experiments/knapen_aot/oldvideos/S_yt-RWN5qOIgqec_25.mp4	0.0	236.98324608802795	2.5084898471832275
41	116.43261003494263	fix_post	2		12.0	39.0	2.5	/experiments/knapen_aot/oldvideos/S_yt-RWN5qOIgqec_25.mp4	0.0	239.49173593521118	0.09979701042175293
42	116.53240704536438	fix_pre	0		22.0	40.0	2.5	/experiments/knapen_aot/oldvideos/S_yt-5rC42egLl5E_387.mp4	0.0	239.59153294563293	0.18337392807006836
42	116.70757508277893	response	0	4		40.0	2.5	/experiments/knapen_aot/oldvideos/S_yt-5rC42egLl5E_387.mp4	0.0	239.76670098304749	
42	116.71578097343445	movie	1		301.0	40.0	2.5	/experiments/knapen_aot/oldvideos/S_yt-5rC42egLl5E_387.mp4	0.0	239.774906873703	2.5083281993865967
42	119.22410917282104	fix_post	2		12.0	40.0	2.5	/experiments/knapen_aot/oldvideos/S_yt-5rC42egLl5E_387.mp4	0.0	242.2832350730896	0.0999917984008789
43	119.32410097122192	fix_pre	0		41.0	41.0	2.5	/experiments/knapen_aot/oldvideos/S_comp_LA_A006_C008_PSNK_ALL_LOGOS_v10_SDR_PS_FINAL_20180801_SDR_2K_AVC.mp4	0.0	242.38322687149048	0.3416421413421631
43	119.65759110450745	response	0	2		41.0	2.5	/experiments/knapen_aot/oldvideos/S_comp_LA_A006_C008_PSNK_ALL_LOGOS_v10_SDR_PS_FINAL_20180801_SDR_2K_AVC.mp4	0.0	242.716717004776	
43	119.66574311256409	movie	1		172.0	41.0	2.5	/experiments/knapen_aot/oldvideos/S_comp_LA_A006_C008_PSNK_ALL_LOGOS_v10_SDR_PS_FINAL_20180801_SDR_2K_AVC.mp4	0.0	242.72486901283264	2.5083470344543457
43	122.17409014701843	fix_post	2		12.0	41.0	2.5	/experiments/knapen_aot/oldvideos/S_comp_LA_A006_C008_PSNK_ALL_LOGOS_v10_SDR_PS_FINAL_20180801_SDR_2K_AVC.mp4	0.0	245.233216047287	0.09994697570800781
44	122.27403712272644	fix_pre	0		6.0	42.0	2.5	blank	1.0	245.333163022995	0.04998302459716797
44	122.31584000587463	response	0	4		42.0	2.5	blank	1.0	245.3749659061432	
44	122.32402014732361	movie	1		301.0	42.0	2.5	blank	1.0	245.38314604759216	2.508370876312256
44	124.83239102363586	fix_post	2		12.0	42.0	2.5	blank	1.0	247.89151692390442	0.1000511646270752
45	124.93244218826294	fix_pre	0		40.0	43.0	2.5	/experiments/knapen_aot/oldvideos/R_S_yt-zSSnQYeO_DE_338.mp4	0.0	247.9915680885315	0.3332939147949219
45	125.25752806663513	response	0	4		43.0	2.5	/experiments/knapen_aot/oldvideos/R_S_yt-zSSnQYeO_DE_338.mp4	0.0	248.3166539669037	
45	125.26573610305786	movie	1		301.0	43.0	2.5	/experiments/knapen_aot/oldvideos/R_S_yt-zSSnQYeO_DE_338.mp4	0.0	248.32486200332642	2.508331060409546
45	127.77406716346741	fix_post	2		12.0	43.0	2.5	/experiments/knapen_aot/oldvideos/R_S_yt-zSSnQYeO_DE_338.mp4	0.0	250.83319306373596	0.10013580322265625
46	127.87420296669006	fix_pre	0		57.0	44.0	2.5	/experiments/knapen_aot/oldvideos/S_yt-GjFQxAklviE_25.mp4	0.0	250.93332886695862	0.47481799125671387
46	128.34083104133606	response	0	2		44.0	2.5	/experiments/knapen_aot/oldvideos/S_yt-GjFQxAklviE_25.mp4	0.0	251.39995694160461	
46	128.34902095794678	movie	1		301.0	44.0	2.5	/experiments/knapen_aot/oldvideos/S_yt-GjFQxAklviE_25.mp4	0.0	251.40814685821533	2.508430004119873
46	130.85745096206665	fix_post	2		12.0	44.0	2.5	/experiments/knapen_aot/oldvideos/S_yt-GjFQxAklviE_25.mp4	0.0	253.9165768623352	0.09992599487304688
47	130.9573769569397	fix_pre	0		27.0	45.0	2.5	/experiments/knapen_aot/oldvideos/S_pexels-cottonbro-6789231.mp4	0.0	254.01650285720825	0.22501111030578613
47	131.1740951538086	response	0	2		45.0	2.5	/experiments/knapen_aot/oldvideos/S_pexels-cottonbro-6789231.mp4	0.0	254.23322105407715	
47	131.18238806724548	movie	1		206.0	45.0	2.5	/experiments/knapen_aot/oldvideos/S_pexels-cottonbro-6789231.mp4	0.0	254.24151396751404	2.508249044418335
47	133.69063711166382	fix_post	2		12.0	45.0	2.5	/experiments/knapen_aot/oldvideos/S_pexels-cottonbro-6789231.mp4	0.0	256.7497630119324	0.10029292106628418
48	133.7909300327301	fix_pre	0		26.0	46.0	2.5	/experiments/knapen_aot/oldvideos/S_yt-pbFpqAQJCJo_149.mp4	0.0	256.85005593299866	0.21643900871276855
48	133.9991590976715	response	0	4		46.0	2.5	/experiments/knapen_aot/oldvideos/S_yt-pbFpqAQJCJo_149.mp4	0.0	257.05828499794006	
48	134.00736904144287	movie	1		301.0	46.0	2.5	/experiments/knapen_aot/oldvideos/S_yt-pbFpqAQJCJo_149.mp4	0.0	257.0664949417114	2.508331060409546
48	136.51570010185242	fix_post	2		12.0	46.0	2.5	/experiments/knapen_aot/oldvideos/S_yt-pbFpqAQJCJo_149.mp4	0.0	259.574826002121	0.10008001327514648
49	136.61578011512756	fix_pre	0		19.0	47.0	2.5	/experiments/knapen_aot/oldvideos/S_yt--wYgjXsc1XQ_106.mp4	0.0	259.6749060153961	0.1582179069519043
49	136.76583909988403	response	0	2		47.0	2.5	/experiments/knapen_aot/oldvideos/S_yt--wYgjXsc1XQ_106.mp4	0.0	259.8249650001526	
49	136.77399802207947	movie	1		301.0	47.0	2.5	/experiments/knapen_aot/oldvideos/S_yt--wYgjXsc1XQ_106.mp4	0.0	259.833123922348	2.50833797454834
49	139.2823359966278	fix_post	2		12.0	47.0	2.5	/experiments/knapen_aot/oldvideos/S_yt--wYgjXsc1XQ_106.mp4	0.0	262.34146189689636	0.1000521183013916
50	139.3823881149292	fix_pre	0		44.0	48.0	2.5	blank	1.0	262.44151401519775	0.3666820526123047
50	139.74078607559204	response	0	2		48.0	2.5	blank	1.0	262.7999119758606	
50	139.7490701675415	movie	1		301.0	48.0	2.5	blank	1.0	262.80819606781006	2.508288860321045
50	142.25735902786255	fix_post	2		12.0	48.0	2.5	blank	1.0	265.3164849281311	0.0999610424041748
51	142.35732007026672	fix_pre	0		105.0	49.0	2.5	/experiments/knapen_aot/oldvideos/S_ILSVRC2015_train_00418001.mp4	0.0	265.4164459705353	0.8749580383300781
51	143.2242090702057	response	0	4		49.0	2.5	/experiments/knapen_aot/oldvideos/S_ILSVRC2015_train_00418001.mp4	0.0	266.28333497047424	
51	143.2322781085968	movie	1		301.0	49.0	2.5	/experiments/knapen_aot/oldvideos/S_ILSVRC2015_train_00418001.mp4	0.0	266.29140400886536	2.508370876312256
51	145.74064898490906	fix_post	2		12.0	49.0	2.5	/experiments/knapen_aot/oldvideos/S_ILSVRC2015_train_00418001.mp4	0.0	268.7997748851776	0.10127806663513184
52	145.8419270515442	fix_pre	0		26.0	50.0	2.5	/experiments/knapen_aot/oldvideos/S_yt-nE8YJOhW4e4_171.mp4	0.0	268.90105295181274	0.2153761386871338
52	146.049152135849	response	0	2		50.0	2.5	/experiments/knapen_aot/oldvideos/S_yt-nE8YJOhW4e4_171.mp4	0.0	269.10827803611755	
52	146.05730319023132	movie	1		301.0	50.0	2.5	/experiments/knapen_aot/oldvideos/S_yt-nE8YJOhW4e4_171.mp4	0.0	269.1164290904999	2.5083649158477783
52	148.5656681060791	fix_post	2		12.0	50.0	2.5	/experiments/knapen_aot/oldvideos/S_yt-nE8YJOhW4e4_171.mp4	0.0	271.62479400634766	0.10022306442260742
53	148.6658911705017	fix_pre	0		23.0	51.0	2.5	/experiments/knapen_aot/oldvideos/R_S_yt-Ilr77XzakaY_95.mp4	0.0	271.72501707077026	0.19135379791259766
53	148.84909796714783	response	0	4		51.0	2.5	/experiments/knapen_aot/oldvideos/R_S_yt-Ilr77XzakaY_95.mp4	0.0	271.9082238674164	
53	148.8572449684143	movie	1		301.0	51.0	2.5	/experiments/knapen_aot/oldvideos/R_S_yt-Ilr77XzakaY_95.mp4	0.0	271.91637086868286	2.508589029312134
53	151.36583399772644	fix_post	2		12.0	51.0	2.5	/experiments/knapen_aot/oldvideos/R_S_yt-Ilr77XzakaY_95.mp4	0.0	274.424959897995	0.09979104995727539
54	151.46562504768372	fix_pre	0		15.0	52.0	2.5	/experiments/knapen_aot/oldvideos/S_yt-EAMpitsjbbA_153.mp4	0.0	274.52475094795227	0.12498712539672852
54	151.58238315582275	response	0	2		52.0	2.5	/experiments/knapen_aot/oldvideos/S_yt-EAMpitsjbbA_153.mp4	0.0	274.6415090560913	
54	151.59061217308044	movie	1		301.0	52.0	2.5	/experiments/knapen_aot/oldvideos/S_yt-EAMpitsjbbA_153.mp4	0.0	274.649738073349	2.5083208084106445
54	154.0989329814911	fix_post	2		12.0	52.0	2.5	/experiments/knapen_aot/oldvideos/S_yt-EAMpitsjbbA_153.mp4	0.0	277.15805888175964	0.10002899169921875
55	154.1989619731903	fix_pre	0		39.0	53.0	2.5	/experiments/knapen_aot/oldvideos/S_2RTDFkjD6vI_93.mp4	0.0	277.25808787345886	0.3250911235809326
55	154.50829195976257	response	0	4		53.0	2.5	/experiments/knapen_aot/oldvideos/S_2RTDFkjD6vI_93.mp4	0.0	277.5674178600311	
55	154.52405309677124	movie	1		301.0	53.0	2.5	/experiments/knapen_aot/oldvideos/S_2RTDFkjD6vI_93.mp4	0.0	277.5831789970398	2.508225917816162
55	157.0322790145874	fix_post	2		12.0	53.0	2.5	/experiments/knapen_aot/oldvideos/S_2RTDFkjD6vI_93.mp4	0.0	280.09140491485596	0.10001111030578613
56	157.1322901248932	fix_pre	0		38.0	54.0	2.5	/experiments/knapen_aot/oldvideos/R_S_yt-1sn8u-rQRas_7.mp4	0.0	280.19141602516174	0.3166358470916748
56	157.44075918197632	response	0	2		54.0	2.5	/experiments/knapen_aot/oldvideos/R_S_yt-1sn8u-rQRas_7.mp4	0.0	280.4998850822449	
56	157.44892597198486	movie	1		301.0	54.0	2.5	/experiments/knapen_aot/oldvideos/R_S_yt-1sn8u-rQRas_7.mp4	0.0	280.5080518722534	2.508402109146118
56	159.95732808113098	fix_post	2		12.0	54.0	2.5	/experiments/knapen_aot/oldvideos/R_S_yt-1sn8u-rQRas_7.mp4	0.0	283.01645398139954	0.09996795654296875
57	160.05729603767395	fix_pre	0		22.0	55.0	2.5	/experiments/knapen_aot/oldvideos/R_S_yt-pbFpqAQJCJo_149.mp4	0.0	283.1164219379425	0.18343210220336914
57	160.2323980331421	response	0	4		55.0	2.5	/experiments/knapen_aot/oldvideos/R_S_yt-pbFpqAQJCJo_149.mp4	0.0	283.29152393341064	
57	160.24072813987732	movie	1		301.0	55.0	2.5	/experiments/knapen_aot/oldvideos/R_S_yt-pbFpqAQJCJo_149.mp4	0.0	283.2998540401459	2.5081939697265625
57	162.74892210960388	fix_post	2		12.0	55.0	2.5	/experiments/knapen_aot/oldvideos/R_S_yt-pbFpqAQJCJo_149.mp4	0.0	285.80804800987244	0.09999394416809082
58	162.84891605377197	fix_pre	0		23.0	56.0	2.5	blank	1.0	285.9080419540405	0.1915900707244873
58	163.03255105018616	response	0	2		56.0	2.5	blank	1.0	286.0916769504547	
58	163.04050612449646	movie	1		301.0	56.0	2.5	blank	1.0	286.099632024765	2.5083119869232178
58	165.54881811141968	fix_post	2		12.0	56.0	2.5	blank	1.0	288.60794401168823	0.10008096694946289
59	165.64889907836914	fix_pre	0		81.0	57.0	2.5	/experiments/knapen_aot/oldvideos/R_S_yt-mdLT282PVbE_6.mp4	0.0	288.7080249786377	0.6749730110168457
59	166.31566405296326	response	0	2		57.0	2.5	/experiments/knapen_aot/oldvideos/R_S_yt-mdLT282PVbE_6.mp4	0.0	289.3747899532318	
59	166.323872089386	movie	1		301.0	57.0	2.5	/experiments/knapen_aot/oldvideos/R_S_yt-mdLT282PVbE_6.mp4	0.0	289.38299798965454	2.508362054824829
59	168.83223414421082	fix_post	2		12.0	57.0	2.5	/experiments/knapen_aot/oldvideos/R_S_yt-mdLT282PVbE_6.mp4	0.0	291.89136004447937	0.09999990463256836
60	168.93223404884338	fix_pre	0		36.0	58.0	2.5	/experiments/knapen_aot/oldvideos/S_yt-QFGyhhr1KSQ_9.mp4	0.0	291.99135994911194	0.2999730110168457
60	169.2240149974823	response	0	4		58.0	2.5	/experiments/knapen_aot/oldvideos/S_yt-QFGyhhr1KSQ_9.mp4	0.0	292.28314089775085	
60	169.23220705986023	movie	1		301.0	58.0	2.5	/experiments/knapen_aot/oldvideos/S_yt-QFGyhhr1KSQ_9.mp4	0.0	292.2913329601288	2.508333921432495
60	171.74054098129272	fix_post	2		12.0	58.0	2.5	/experiments/knapen_aot/oldvideos/S_yt-QFGyhhr1KSQ_9.mp4	0.0	294.7996668815613	0.10008502006530762
61	171.84062600135803	fix_pre	0		23.0	59.0	2.5	/experiments/knapen_aot/oldvideos/S_3WAnGcPubBY_179.mp4	0.0	294.8997519016266	0.19155597686767578
61	172.02396512031555	response	0	4		59.0	2.5	/experiments/knapen_aot/oldvideos/S_3WAnGcPubBY_179.mp4	0.0	295.0830910205841	
61	172.0321819782257	movie	1		301.0	59.0	2.5	/experiments/knapen_aot/oldvideos/S_3WAnGcPubBY_179.mp4	0.0	295.09130787849426	2.508336067199707
61	174.54051804542542	fix_post	2		12.0	59.0	2.5	/experiments/knapen_aot/oldvideos/S_3WAnGcPubBY_179.mp4	0.0	297.59964394569397	0.09998202323913574
62	174.64050006866455	fix_pre	0		24.0	60.0	2.5	/experiments/knapen_aot/oldvideos/S_comp_A007_C017_01156B_v02_SDR_PS_20180925_SDR_2K_AVC.mp4	0.0	297.6996259689331	0.20110511779785156
62	174.83229517936707	response	0	2		60.0	2.5	/experiments/knapen_aot/oldvideos/S_comp_A007_C017_01156B_v02_SDR_PS_20180925_SDR_2K_AVC.mp4	0.0	297.8914210796356	
62	174.8416051864624	movie	1		164.0	60.0	2.5	/experiments/knapen_aot/oldvideos/S_comp_A007_C017_01156B_v02_SDR_PS_20180925_SDR_2K_AVC.mp4	0.0	297.90073108673096	2.5072879791259766
62	177.34889316558838	fix_post	2		12.0	60.0	2.5	/experiments/knapen_aot/oldvideos/S_comp_A007_C017_01156B_v02_SDR_PS_20180925_SDR_2K_AVC.mp4	0.0	300.40801906585693	0.09995293617248535
63	177.44884610176086	fix_pre	0		33.0	61.0	2.5	/experiments/knapen_aot/oldvideos/R_S_yt-mI9voWol7cE_104.mp4	0.0	300.5079720020294	0.27500391006469727
63	177.7156491279602	response	0	2		61.0	2.5	/experiments/knapen_aot/oldvideos/R_S_yt-mI9voWol7cE_104.mp4	0.0	300.77477502822876	
63	177.72385001182556	movie	1		301.0	61.0	2.5	/experiments/knapen_aot/oldvideos/R_S_yt-mI9voWol7cE_104.mp4	0.0	300.7829759120941	2.508305072784424
63	180.23215508460999	fix_post	2		12.0	61.0	2.5	/experiments/knapen_aot/oldvideos/R_S_yt-mI9voWol7cE_104.mp4	0.0	303.29128098487854	0.10002303123474121
64	180.33217811584473	fix_pre	0		37.0	62.0	2.5	/experiments/knapen_aot/oldvideos/S_yt-jzDaQD-g168_103.mp4	0.0	303.3913040161133	0.30829787254333496
64	180.63229608535767	response	0	4		62.0	2.5	/experiments/knapen_aot/oldvideos/S_yt-jzDaQD-g168_103.mp4	0.0	303.6914219856262	
64	180.64047598838806	movie	1		301.0	62.0	2.5	/experiments/knapen_aot/oldvideos/S_yt-jzDaQD-g168_103.mp4	0.0	303.6996018886566	2.508342981338501
64	183.14881896972656	fix_post	2		12.0	62.0	2.5	/experiments/knapen_aot/oldvideos/S_yt-jzDaQD-g168_103.mp4	0.0	306.2079448699951	0.10003209114074707
65	183.2488510608673	fix_pre	0		36.0	63.0	2.5	blank	1.0	306.30797696113586	0.30008411407470703
65	183.5330331325531	response	0	2		63.0	2.5	blank	1.0	306.59215903282166	
65	183.54893517494202	movie	1		301.0	63.0	2.5	blank	1.0	306.60806107521057	2.508229970932007
65	186.05716514587402	fix_post	2		12.0	63.0	2.5	blank	1.0	309.1162910461426	0.09998798370361328
66	186.15715312957764	fix_pre	0		30.0	64.0	2.5	/experiments/knapen_aot/oldvideos/R_S_yt-tMP5WhHMtWE_55.mp4	0.0	309.2162790298462	0.2499399185180664
66	186.39895105361938	response	0	4		64.0	2.5	/experiments/knapen_aot/oldvideos/R_S_yt-tMP5WhHMtWE_55.mp4	0.0	309.45807695388794	
66	186.4070930480957	movie	1		301.0	64.0	2.5	/experiments/knapen_aot/oldvideos/R_S_yt-tMP5WhHMtWE_55.mp4	0.0	309.46621894836426	2.508359909057617
66	188.91545295715332	fix_post	2		12.0	64.0	2.5	/experiments/knapen_aot/oldvideos/R_S_yt-tMP5WhHMtWE_55.mp4	0.0	311.9745788574219	0.1000070571899414
67	189.01546001434326	fix_pre	0		20.0	65.0	2.5	/experiments/knapen_aot/oldvideos/R_S_yt-LGwEki4ghNw_69.mp4	0.0	312.0745859146118	0.16669702529907227
67	189.17392301559448	response	0	2		65.0	2.5	/experiments/knapen_aot/oldvideos/R_S_yt-LGwEki4ghNw_69.mp4	0.0	312.23304891586304	
67	189.18215703964233	movie	1		301.0	65.0	2.5	/experiments/knapen_aot/oldvideos/R_S_yt-LGwEki4ghNw_69.mp4	0.0	312.2412829399109	2.5083019733428955
67	191.69045901298523	fix_post	2		12.0	65.0	2.5	/experiments/knapen_aot/oldvideos/R_S_yt-LGwEki4ghNw_69.mp4	0.0	314.7495849132538	0.10002994537353516
68	191.79048895835876	fix_pre	0		20.0	66.0	2.5	/experiments/knapen_aot/oldvideos/S_yt-JTVyt-eu4VI_1.mp4	0.0	314.8496148586273	0.16674423217773438
68	191.9489381313324	response	0	4		66.0	2.5	/experiments/knapen_aot/oldvideos/S_yt-JTVyt-eu4VI_1.mp4	0.0	315.00806403160095	
68	191.9572331905365	movie	1		301.0	66.0	2.5	/experiments/knapen_aot/oldvideos/S_yt-JTVyt-eu4VI_1.mp4	0.0	315.01635909080505	2.5082478523254395
68	194.46548104286194	fix_post	2		12.0	66.0	2.5	/experiments/knapen_aot/oldvideos/S_yt-JTVyt-eu4VI_1.mp4	0.0	317.5246069431305	0.09999895095825195
69	194.5654799938202	fix_pre	0		25.0	67.0	2.5	/experiments/knapen_aot/oldvideos/R_S_Pexels_Videos_278654_1.mp4	0.0	317.62460589408875	0.20822811126708984
69	194.76556015014648	response	0	2		67.0	2.5	/experiments/knapen_aot/oldvideos/R_S_Pexels_Videos_278654_1.mp4	0.0	317.82468605041504	
69	194.77370810508728	movie	1		163.0	67.0	2.5	/experiments/knapen_aot/oldvideos/R_S_Pexels_Videos_278654_1.mp4	0.0	317.83283400535583	2.5084290504455566
69	197.28213715553284	fix_post	2		12.0	67.0	2.5	/experiments/knapen_aot/oldvideos/R_S_Pexels_Videos_278654_1.mp4	0.0	320.3412630558014	0.1000678539276123
70	197.38220500946045	fix_pre	0		16.0	68.0	2.5	blank	1.0	320.441330909729	0.13320016860961914
70	197.50712609291077	response	0	4		68.0	2.5	blank	1.0	320.5662519931793	
70	197.51540517807007	movie	1		301.0	68.0	2.5	blank	1.0	320.5745310783386	2.5083298683166504
70	200.02373504638672	fix_post	2		12.0	68.0	2.5	blank	1.0	323.0828609466553	0.10007095336914062
71	200.12380599975586	fix_pre	0		37.0	69.0	2.5	/experiments/knapen_aot/oldvideos/S_yt-158C6xUMi5Y_75.mp4	0.0	323.1829319000244	0.3082621097564697
71	200.42391800880432	response	0	4		69.0	2.5	/experiments/knapen_aot/oldvideos/S_yt-158C6xUMi5Y_75.mp4	0.0	323.4830439090729	
71	200.43206810951233	movie	1		301.0	69.0	2.5	/experiments/knapen_aot/oldvideos/S_yt-158C6xUMi5Y_75.mp4	0.0	323.4911940097809	2.5083529949188232
71	202.94042110443115	fix_post	2		12.0	69.0	2.5	/experiments/knapen_aot/oldvideos/S_yt-158C6xUMi5Y_75.mp4	0.0	325.9995470046997	0.10020804405212402
72	203.04062914848328	fix_pre	0		35.0	70.0	2.5	/experiments/knapen_aot/oldvideos/R_S_pexels-artem-podrez-5457692.mp4	0.0	326.09975504875183	0.29141783714294434
72	203.32385110855103	response	0	2		70.0	2.5	/experiments/knapen_aot/oldvideos/R_S_pexels-artem-podrez-5457692.mp4	0.0	326.3829770088196	
72	203.33204698562622	movie	1		168.0	70.0	2.5	/experiments/knapen_aot/oldvideos/R_S_pexels-artem-podrez-5457692.mp4	0.0	326.3911728858948	2.508342981338501
72	205.84038996696472	fix_post	2		12.0	70.0	2.5	/experiments/knapen_aot/oldvideos/R_S_pexels-artem-podrez-5457692.mp4	0.0	328.8995158672333	0.09999203681945801
73	205.94038200378418	fix_pre	0		10.0	71.0	2.5	/experiments/knapen_aot/oldvideos/R_S_video_inspire_texas_pecos_foggy-landscape_00018.1080-h264.mp4	0.0	328.99950790405273	0.0834360122680664
73	206.01545214653015	response	0	4		71.0	2.5	/experiments/knapen_aot/oldvideos/R_S_video_inspire_texas_pecos_foggy-landscape_00018.1080-h264.mp4	0.0	329.0745780467987	
73	206.02381801605225	movie	1		174.0	71.0	2.5	/experiments/knapen_aot/oldvideos/R_S_video_inspire_texas_pecos_foggy-landscape_00018.1080-h264.mp4	0.0	329.0829439163208	2.50823712348938
73	208.53205513954163	fix_post	2		12.0	71.0	2.5	/experiments/knapen_aot/oldvideos/R_S_video_inspire_texas_pecos_foggy-landscape_00018.1080-h264.mp4	0.0	331.5911810398102	0.09999203681945801
74	208.63204717636108	fix_pre	0		24.0	72.0	2.5	/experiments/knapen_aot/oldvideos/R_S_yt-0qfEA1ZFWjA_123.mp4	0.0	331.69117307662964	0.1999499797821045
74	208.82384705543518	response	0	4		72.0	2.5	/experiments/knapen_aot/oldvideos/R_S_yt-0qfEA1ZFWjA_123.mp4	0.0	331.88297295570374	
74	208.8319971561432	movie	1		301.0	72.0	2.5	/experiments/knapen_aot/oldvideos/R_S_yt-0qfEA1ZFWjA_123.mp4	0.0	331.89112305641174	2.5084187984466553
74	211.34041595458984	fix_post	2		12.0	72.0	2.5	/experiments/knapen_aot/oldvideos/R_S_yt-0qfEA1ZFWjA_123.mp4	0.0	334.3995418548584	0.09995603561401367
75	211.44037199020386	fix_pre	0		25.0	73.0	2.5	/experiments/knapen_aot/oldvideos/S_comp_LA_A006_C004_v01_SDR_FINAL_PS_20180730_SDR_2K_AVC.mp4	0.0	334.4994978904724	0.2083420753479004
75	211.64044904708862	response	0	2		73.0	2.5	/experiments/knapen_aot/oldvideos/S_comp_LA_A006_C004_v01_SDR_FINAL_PS_20180730_SDR_2K_AVC.mp4	0.0	334.6995749473572	
75	211.64871406555176	movie	1		170.0	73.0	2.5	/experiments/knapen_aot/oldvideos/S_comp_LA_A006_C004_v01_SDR_FINAL_PS_20180730_SDR_2K_AVC.mp4	0.0	334.7078399658203	2.5083069801330566
75	214.15702104568481	fix_post	2		12.0	73.0	2.5	/experiments/knapen_aot/oldvideos/S_comp_LA_A006_C004_v01_SDR_FINAL_PS_20180730_SDR_2K_AVC.mp4	0.0	337.21614694595337	0.09994006156921387
76	214.25696110725403	fix_pre	0		38.0	74.0	2.5	/experiments/knapen_aot/oldvideos/S_yt-jzDaQD-g168_103.mp4	0.0	337.3160870075226	0.3167250156402588
76	214.5654580593109	response	0	4		74.0	2.5	/experiments/knapen_aot/oldvideos/S_yt-jzDaQD-g168_103.mp4	0.0	337.62458395957947	
76	214.5736861228943	movie	1		301.0	74.0	2.5	/experiments/knapen_aot/oldvideos/S_yt-jzDaQD-g168_103.mp4	0.0	337.63281202316284	2.510676860809326
76	217.0843629837036	fix_post	2		12.0	74.0	2.5	/experiments/knapen_aot/oldvideos/S_yt-jzDaQD-g168_103.mp4	0.0	340.14348888397217	0.09766197204589844
77	217.1820249557495	fix_pre	0		28.0	75.0	2.5	blank	1.0	340.24115085601807	0.23343515396118164
77	217.40707206726074	response	0	4		75.0	2.5	blank	1.0	340.4661979675293	
77	217.4154601097107	movie	1		301.0	75.0	2.5	blank	1.0	340.47458600997925	2.508229970932007
77	219.9236900806427	fix_post	2		12.0	75.0	2.5	blank	1.0	342.98281598091125	0.10002589225769043
78	220.0237159729004	fix_pre	0		23.0	76.0	2.5	/experiments/knapen_aot/oldvideos/R_S_yt-3EZOeAbiMQE_10.mp4	0.0	343.08284187316895	0.19248008728027344
78	220.2070951461792	response	0	4		76.0	2.5	/experiments/knapen_aot/oldvideos/R_S_yt-3EZOeAbiMQE_10.mp4	0.0	343.26622104644775	
78	220.21619606018066	movie	1		301.0	76.0	2.5	/experiments/knapen_aot/oldvideos/R_S_yt-3EZOeAbiMQE_10.mp4	0.0	343.2753219604492	2.507657051086426
78	222.7238531112671	fix_post	2		12.0	76.0	2.5	/experiments/knapen_aot/oldvideos/R_S_yt-3EZOeAbiMQE_10.mp4	0.0	345.78297901153564	0.0998680591583252
79	222.82372117042542	fix_pre	0		13.0	77.0	2.5	/experiments/knapen_aot/oldvideos/S_yt-4GDusA21cEA_170.mp4	0.0	345.88284707069397	0.10821390151977539
79	222.92379713058472	response	0	2		77.0	2.5	/experiments/knapen_aot/oldvideos/S_yt-4GDusA21cEA_170.mp4	0.0	345.98292303085327	
79	222.9319350719452	movie	1		301.0	77.0	2.5	/experiments/knapen_aot/oldvideos/S_yt-4GDusA21cEA_170.mp4	0.0	345.99106097221375	2.508402109146118
79	225.4403371810913	fix_post	2		12.0	77.0	2.5	/experiments/knapen_aot/oldvideos/S_yt-4GDusA21cEA_170.mp4	0.0	348.49946308135986	0.09995198249816895
80	225.54028916358948	fix_pre	0		33.0	78.0	2.5	/experiments/knapen_aot/oldvideos/R_S_yt-aiwDdJm1ek8_90.mp4	0.0	348.59941506385803	0.27500486373901367
80	225.79946112632751	response	0	4		78.0	2.5	/experiments/knapen_aot/oldvideos/R_S_yt-aiwDdJm1ek8_90.mp4	0.0	348.85858702659607	
80	225.8152940273285	movie	1		301.0	78.0	2.5	/experiments/knapen_aot/oldvideos/R_S_yt-aiwDdJm1ek8_90.mp4	0.0	348.87441992759705	2.5083401203155518
80	228.32363414764404	fix_post	2		12.0	78.0	2.5	/experiments/knapen_aot/oldvideos/R_S_yt-aiwDdJm1ek8_90.mp4	0.0	351.3827600479126	0.09995889663696289
81	228.423593044281	fix_pre	0		28.0	79.0	2.5	/experiments/knapen_aot/oldvideos/R_S_pexels-c-technical-6753390.mp4	0.0	351.48271894454956	0.2333359718322754
81	228.64873814582825	response	0	2		79.0	2.5	/experiments/knapen_aot/oldvideos/R_S_pexels-c-technical-6753390.mp4	0.0	351.7078640460968	
81	228.65692901611328	movie	1		204.0	79.0	2.5	/experiments/knapen_aot/oldvideos/R_S_pexels-c-technical-6753390.mp4	0.0	351.71605491638184	2.5084660053253174
81	231.1653950214386	fix_post	2		12.0	79.0	2.5	/experiments/knapen_aot/oldvideos/R_S_pexels-c-technical-6753390.mp4	0.0	354.22452092170715	0.09983396530151367
82	231.2652289867401	fix_pre	0		25.0	80.0	2.5	/experiments/knapen_aot/oldvideos/S_ILSVRC2015_train_00441000.mp4	0.0	354.32435488700867	0.20834708213806152
82	231.4654130935669	response	0	2		80.0	2.5	/experiments/knapen_aot/oldvideos/S_ILSVRC2015_train_00441000.mp4	0.0	354.52453899383545	
82	231.47357606887817	movie	1		301.0	80.0	2.5	/experiments/knapen_aot/oldvideos/S_ILSVRC2015_train_00441000.mp4	0.0	354.53270196914673	2.508359909057617
82	233.9819359779358	fix_post	2		12.0	80.0	2.5	/experiments/knapen_aot/oldvideos/S_ILSVRC2015_train_00441000.mp4	0.0	357.04106187820435	0.09995698928833008
83	234.08189296722412	fix_pre	0		27.0	81.0	2.5	/experiments/knapen_aot/oldvideos/R_S_ILSVRC2015_train_00723001.mp4	0.0	357.1410188674927	0.22502708435058594
83	234.2987220287323	response	0	4		81.0	2.5	/experiments/knapen_aot/oldvideos/R_S_ILSVRC2015_train_00723001.mp4	0.0	357.35784792900085	
83	234.3069200515747	movie	1		301.0	81.0	2.5	/experiments/knapen_aot/oldvideos/R_S_ILSVRC2015_train_00723001.mp4	0.0	357.36604595184326	2.5083510875701904
83	236.8152711391449	fix_post	2		12.0	81.0	2.5	/experiments/knapen_aot/oldvideos/R_S_ILSVRC2015_train_00723001.mp4	0.0	359.87439703941345	0.10009193420410156
84	236.915363073349	fix_pre	0		27.0	82.0	2.5	/experiments/knapen_aot/oldvideos/R_S_yt-zhQ32_OayBQ_39.mp4	0.0	359.97448897361755	0.22486400604248047
84	237.13198900222778	response	0	2		82.0	2.5	/experiments/knapen_aot/oldvideos/R_S_yt-zhQ32_OayBQ_39.mp4	0.0	360.19111490249634	
84	237.14022707939148	movie	1		301.0	82.0	2.5	/experiments/knapen_aot/oldvideos/R_S_yt-zhQ32_OayBQ_39.mp4	0.0	360.19935297966003	2.5083460807800293
84	239.6485731601715	fix_post	2		12.0	82.0	2.5	/experiments/knapen_aot/oldvideos/R_S_yt-zhQ32_OayBQ_39.mp4	0.0	362.70769906044006	0.10007095336914062
85	239.74864411354065	fix_pre	0		20.0	83.0	2.5	blank	1.0	362.8077700138092	0.16667795181274414
85	239.90698313713074	response	0	4		83.0	2.5	blank	1.0	362.9661090373993	
85	239.9153220653534	movie	1		301.0	83.0	2.5	blank	1.0	362.97444796562195	2.508246898651123
85	242.42356896400452	fix_post	2		12.0	83.0	2.5	blank	1.0	365.48269486427307	0.09998106956481934
87	242.52355003356934	stim	0		442.0					365.5826759338379	3.6854031085968018
87	246.20331001281738	response	0	space						369.26243591308594	
