trial_nr	onset	event_type	phase	response	nr_frames	movie_index	movie_duration	movie_file	blank	onset_abs	duration
0	0.15827393531799316	stim	0		128.0					57.12613010406494	1.066723108291626
0	1.2167308330535889	response	0	space						58.18458700180054	
1	1.2249970436096191	stim	0		121.0					58.19285321235657	1.008039951324463
1	2.233036994934082	stim	1		120.0					59.20089316368103	0.9998819828033447
2	3.2329189777374268	fix_pre	0		82.0	0.0	2.5	/experiments/knapen_aot/videos/R_S_ILSVRC2015_train_00574004.mp4	0.0	60.200775146484375	0.6832959651947021
2	3.9080560207366943	response	0	space		0.0	2.5	/experiments/knapen_aot/videos/R_S_ILSVRC2015_train_00574004.mp4	0.0	60.87591218948364	
2	3.916214942932129	movie	1		300.0	0.0	2.5	/experiments/knapen_aot/videos/R_S_ILSVRC2015_train_00574004.mp4	0.0	60.88407111167908	2.508452892303467
2	6.424667835235596	fix_post	2		12.0	0.0	2.5	/experiments/knapen_aot/videos/R_S_ILSVRC2015_train_00574004.mp4	0.0	63.392524003982544	0.09986209869384766
3	6.524529933929443	fix_pre	0		101.0	1.0	2.5	/experiments/knapen_aot/videos/R_S_yt-28ODBE9bVh0_44.mp4	0.0	63.49238610267639	0.8419570922851562
3	7.361073970794678	response	0	2		1.0	2.5	/experiments/knapen_aot/videos/R_S_yt-28ODBE9bVh0_44.mp4	0.0	64.32893013954163	
3	7.3664870262146	movie	1		298.0	1.0	2.5	/experiments/knapen_aot/videos/R_S_yt-28ODBE9bVh0_44.mp4	0.0	64.33434319496155	2.507990837097168
3	9.874477863311768	fix_post	2		12.0	1.0	2.5	/experiments/knapen_aot/videos/R_S_yt-28ODBE9bVh0_44.mp4	0.0	66.84233403205872	0.10003018379211426
4	9.974508047103882	fix_pre	0		13.0	2.0	2.5	/experiments/knapen_aot/videos/R_S_video_inspire_california_big-sur_bixby_005.1080-h264.mp4	0.0	66.94236421585083	0.10837388038635254
4	10.074583053588867	response	0	2		2.0	2.5	/experiments/knapen_aot/videos/R_S_video_inspire_california_big-sur_bixby_005.1080-h264.mp4	0.0	67.04243922233582	
4	10.082881927490234	movie	1		187.0	2.0	2.5	/experiments/knapen_aot/videos/R_S_video_inspire_california_big-sur_bixby_005.1080-h264.mp4	0.0	67.05073809623718	2.5083200931549072
4	12.591202020645142	fix_post	2		12.0	2.0	2.5	/experiments/knapen_aot/videos/R_S_video_inspire_california_big-sur_bixby_005.1080-h264.mp4	0.0	69.55905818939209	0.10002303123474121
4	12.657985925674438	response	2	2		2.0	2.5	/experiments/knapen_aot/videos/R_S_video_inspire_california_big-sur_bixby_005.1080-h264.mp4	0.0	69.62584209442139	
5	12.691225051879883	fix_pre	0		49.0	3.0	2.5	/experiments/knapen_aot/videos/S_yt--WPE_4bqQXc_26.mp4	0.0	69.65908122062683	0.408322811126709
5	13.083713054656982	response	0	2		3.0	2.5	/experiments/knapen_aot/videos/S_yt--WPE_4bqQXc_26.mp4	0.0	70.05156922340393	
5	13.099547863006592	movie	1		301.0	3.0	2.5	/experiments/knapen_aot/videos/S_yt--WPE_4bqQXc_26.mp4	0.0	70.06740403175354	2.5083301067352295
5	15.607877969741821	fix_post	2		12.0	3.0	2.5	/experiments/knapen_aot/videos/S_yt--WPE_4bqQXc_26.mp4	0.0	72.57573413848877	0.09999608993530273
6	15.707874059677124	fix_pre	0		1.0	4.0	2.5	/experiments/knapen_aot/videos/S_yt-_6j2NXrB-zE_28.mp4	0.0	72.67573022842407	0.00833892822265625
6	15.710433959960938	response	0	2		4.0	2.5	/experiments/knapen_aot/videos/S_yt-_6j2NXrB-zE_28.mp4	0.0	72.67829012870789	
6	15.71621298789978	movie	1		297.0	4.0	2.5	/experiments/knapen_aot/videos/S_yt-_6j2NXrB-zE_28.mp4	0.0	72.68406915664673	2.5082640647888184
6	18.2244770526886	fix_post	2		12.0	4.0	2.5	/experiments/knapen_aot/videos/S_yt-_6j2NXrB-zE_28.mp4	0.0	75.19233322143555	0.10023689270019531
7	18.324713945388794	fix_pre	0		9.0	5.0	2.5	/experiments/knapen_aot/videos/S_yt-GI8BEHw2Lq8_3.mp4	0.0	75.29257011413574	0.07474493980407715
7	18.391361951828003	response	0	2		5.0	2.5	/experiments/knapen_aot/videos/S_yt-GI8BEHw2Lq8_3.mp4	0.0	75.35921812057495	
7	18.39945888519287	movie	1		300.0	5.0	2.5	/experiments/knapen_aot/videos/S_yt-GI8BEHw2Lq8_3.mp4	0.0	75.36731505393982	2.508430004119873
7	20.907888889312744	fix_post	2		12.0	5.0	2.5	/experiments/knapen_aot/videos/S_yt-GI8BEHw2Lq8_3.mp4	0.0	77.87574505805969	0.09997916221618652
8	21.00786805152893	fix_pre	0		6.0	6.0	2.5	/experiments/knapen_aot/videos/R_S_yt-1ruRqcfBMw0_21.mp4	0.0	77.97572422027588	0.049986839294433594
8	21.049614906311035	response	0	2		6.0	2.5	/experiments/knapen_aot/videos/R_S_yt-1ruRqcfBMw0_21.mp4	0.0	78.01747107505798	
8	21.057854890823364	movie	1		301.0	6.0	2.5	/experiments/knapen_aot/videos/R_S_yt-1ruRqcfBMw0_21.mp4	0.0	78.02571105957031	2.508341073989868
8	23.566195964813232	fix_post	2		12.0	6.0	2.5	/experiments/knapen_aot/videos/R_S_yt-1ruRqcfBMw0_21.mp4	0.0	80.53405213356018	0.09997391700744629
9	23.66616988182068	fix_pre	0		8.0	7.0	2.5	blank	1.0	80.63402605056763	0.0666501522064209
9	23.724745988845825	response	0	2		7.0	2.5	blank	1.0	80.69260215759277	
9	23.7328200340271	movie	1		301.0	7.0	2.5	blank	1.0	80.70067620277405	2.508344888687134
9	26.241164922714233	fix_post	2		12.0	7.0	2.5	blank	1.0	83.20902109146118	0.10002398490905762
9	26.316279888153076	response	2	2		7.0	2.5	blank	1.0	83.28413605690002	
10	26.34118890762329	fix_pre	0		26.0	8.0	2.5	/experiments/knapen_aot/videos/R_S_yt-6DJulOrg2-8_122.mp4	0.0	83.30904507637024	0.21659398078918457
10	26.54950499534607	response	0	2		8.0	2.5	/experiments/knapen_aot/videos/R_S_yt-6DJulOrg2-8_122.mp4	0.0	83.51736116409302	
10	26.557782888412476	movie	1		301.0	8.0	2.5	/experiments/knapen_aot/videos/R_S_yt-6DJulOrg2-8_122.mp4	0.0	83.52563905715942	2.5083730220794678
10	29.066155910491943	fix_post	2		12.0	8.0	2.5	/experiments/knapen_aot/videos/R_S_yt-6DJulOrg2-8_122.mp4	0.0	86.03401207923889	0.09998106956481934
11	29.166136980056763	fix_pre	0		8.0	9.0	2.5	/experiments/knapen_aot/videos/S_ILSVRC2015_train_00324002.mp4	0.0	86.13399314880371	0.06664705276489258
11	29.22464084625244	response	0	2		9.0	2.5	/experiments/knapen_aot/videos/S_ILSVRC2015_train_00324002.mp4	0.0	86.19249701499939	
11	29.232784032821655	movie	1		301.0	9.0	2.5	/experiments/knapen_aot/videos/S_ILSVRC2015_train_00324002.mp4	0.0	86.2006402015686	2.5083439350128174
11	31.741127967834473	fix_post	2		12.0	9.0	2.5	/experiments/knapen_aot/videos/S_ILSVRC2015_train_00324002.mp4	0.0	88.70898413658142	0.10001707077026367
12	31.841145038604736	fix_pre	0		5.0	10.0	2.5	/experiments/knapen_aot/videos/S_yt-RKo978aBdzw_173.mp4	0.0	88.80900120735168	0.04162096977233887
12	31.86756992340088	response	0	2		10.0	2.5	/experiments/knapen_aot/videos/S_yt-RKo978aBdzw_173.mp4	0.0	88.83542609214783	
12	31.882766008377075	movie	1		301.0	10.0	2.5	/experiments/knapen_aot/videos/S_yt-RKo978aBdzw_173.mp4	0.0	88.85062217712402	2.5083470344543457
12	34.39111304283142	fix_post	2		12.0	10.0	2.5	/experiments/knapen_aot/videos/S_yt-RKo978aBdzw_173.mp4	0.0	91.35896921157837	0.10018181800842285
13	34.491294860839844	fix_pre	0		16.0	11.0	2.5	/experiments/knapen_aot/videos/R_S_yt-7bSTxOajpjc_58.mp4	0.0	91.45915102958679	0.13323402404785156
13	34.61626195907593	response	0	2		11.0	2.5	/experiments/knapen_aot/videos/R_S_yt-7bSTxOajpjc_58.mp4	0.0	91.58411812782288	
13	34.624528884887695	movie	1		301.0	11.0	2.5	/experiments/knapen_aot/videos/R_S_yt-7bSTxOajpjc_58.mp4	0.0	91.59238505363464	2.508258104324341
13	37.132786989212036	fix_post	2		12.0	11.0	2.5	/experiments/knapen_aot/videos/R_S_yt-7bSTxOajpjc_58.mp4	0.0	94.10064315795898	0.10000896453857422
14	37.23279595375061	fix_pre	0		11.0	12.0	2.5	/experiments/knapen_aot/videos/S_yt-rY_ra5Tb9XU_51.mp4	0.0	94.20065212249756	0.09191608428955078
14	37.31635499000549	response	0	2		12.0	2.5	/experiments/knapen_aot/videos/S_yt-rY_ra5Tb9XU_51.mp4	0.0	94.28421115875244	
14	37.32471203804016	movie	1		301.0	12.0	2.5	/experiments/knapen_aot/videos/S_yt-rY_ra5Tb9XU_51.mp4	0.0	94.29256820678711	2.508049964904785
14	39.832762002944946	fix_post	2		12.0	12.0	2.5	/experiments/knapen_aot/videos/S_yt-rY_ra5Tb9XU_51.mp4	0.0	96.8006181716919	0.10000896453857422
15	39.93277096748352	fix_pre	0		12.0	13.0	2.5	/experiments/knapen_aot/videos/S_yt-3V8US8ZD3NU_229.mp4	0.0	96.90062713623047	0.10007095336914062
15	40.02455186843872	response	0	2		13.0	2.5	/experiments/knapen_aot/videos/S_yt-3V8US8ZD3NU_229.mp4	0.0	96.99240803718567	
15	40.03284192085266	movie	1		301.0	13.0	2.5	/experiments/knapen_aot/videos/S_yt-3V8US8ZD3NU_229.mp4	0.0	97.00069808959961	2.508168935775757
15	42.54101085662842	fix_post	2		12.0	13.0	2.5	/experiments/knapen_aot/videos/S_yt-3V8US8ZD3NU_229.mp4	0.0	99.50886702537537	0.10004901885986328
16	42.64105987548828	fix_pre	0		29.0	14.0	2.5	blank	1.0	99.60891604423523	0.24168109893798828
16	42.87460684776306	response	0	2		14.0	2.5	blank	1.0	99.84246301651001	
16	42.88274097442627	movie	1		301.0	14.0	2.5	blank	1.0	99.85059714317322	2.5083038806915283
16	45.3910448551178	fix_post	2		12.0	14.0	2.5	blank	1.0	102.35890102386475	0.10013198852539062
17	45.49117684364319	fix_pre	0		24.0	15.0	2.5	/experiments/knapen_aot/videos/S_yt-oVrkSsEpuvk_118.mp4	0.0	102.45903301239014	0.1998920440673828
17	45.6828989982605	response	0	2		15.0	2.5	/experiments/knapen_aot/videos/S_yt-oVrkSsEpuvk_118.mp4	0.0	102.65075516700745	
17	45.69106888771057	movie	1		301.0	15.0	2.5	/experiments/knapen_aot/videos/S_yt-oVrkSsEpuvk_118.mp4	0.0	102.65892505645752	2.5084800720214844
17	48.199548959732056	fix_post	2		12.0	15.0	2.5	/experiments/knapen_aot/videos/S_yt-oVrkSsEpuvk_118.mp4	0.0	105.167405128479	0.09987807273864746
18	48.2994270324707	fix_pre	0		18.0	16.0	2.5	/experiments/knapen_aot/videos/S_b4-3.mp4	0.0	105.26728320121765	0.15004992485046387
18	48.44115090370178	response	0	2		16.0	2.5	/experiments/knapen_aot/videos/S_b4-3.mp4	0.0	105.40900707244873	
18	48.44947695732117	movie	1		164.0	16.0	2.5	/experiments/knapen_aot/videos/S_b4-3.mp4	0.0	105.41733312606812	2.5082600116729736
18	50.95773696899414	fix_post	2		12.0	16.0	2.5	/experiments/knapen_aot/videos/S_b4-3.mp4	0.0	107.92559313774109	0.09999299049377441
19	51.057729959487915	fix_pre	0		5.0	17.0	2.5	/experiments/knapen_aot/videos/R_S_pexels-koolshooters-7691440.mp4	0.0	108.02558612823486	0.041610002517700195
19	51.09116005897522	response	0	2		17.0	2.5	/experiments/knapen_aot/videos/R_S_pexels-koolshooters-7691440.mp4	0.0	108.05901622772217	
19	51.099339962005615	movie	1		178.0	17.0	2.5	/experiments/knapen_aot/videos/R_S_pexels-koolshooters-7691440.mp4	0.0	108.06719613075256	2.508394956588745
19	53.60773491859436	fix_post	2		12.0	17.0	2.5	/experiments/knapen_aot/videos/R_S_pexels-koolshooters-7691440.mp4	0.0	110.57559108734131	0.09998703002929688
20	53.70772194862366	fix_pre	0		5.0	18.0	2.5	/experiments/knapen_aot/videos/S_yt-KLInd-KrK_w_19.mp4	0.0	110.6755781173706	0.04169487953186035
20	53.74148201942444	response	0	2		18.0	2.5	/experiments/knapen_aot/videos/S_yt-KLInd-KrK_w_19.mp4	0.0	110.70933818817139	
20	53.74941682815552	movie	1		301.0	18.0	2.5	/experiments/knapen_aot/videos/S_yt-KLInd-KrK_w_19.mp4	0.0	110.71727299690247	2.508315086364746
20	56.257731914520264	fix_post	2		12.0	18.0	2.5	/experiments/knapen_aot/videos/S_yt-KLInd-KrK_w_19.mp4	0.0	113.22558808326721	0.09995007514953613
21	56.3576819896698	fix_pre	0		15.0	19.0	2.5	blank	1.0	113.32553815841675	0.1249840259552002
21	56.47444796562195	response	0	2		19.0	2.5	blank	1.0	113.4423041343689	
21	56.482666015625	movie	1		301.0	19.0	2.5	blank	1.0	113.45052218437195	2.5084378719329834
21	58.99110388755798	fix_post	2		12.0	19.0	2.5	blank	1.0	115.95896005630493	0.09990715980529785
22	59.09101104736328	fix_pre	0		15.0	20.0	2.5	/experiments/knapen_aot/videos/S_yt-rB3YVZvA78w_20.mp4	0.0	116.05886721611023	0.12493300437927246
22	59.207820892333984	response	0	2		20.0	2.5	/experiments/knapen_aot/videos/S_yt-rB3YVZvA78w_20.mp4	0.0	116.17567706108093	
22	59.215944051742554	movie	1		301.0	20.0	2.5	/experiments/knapen_aot/videos/S_yt-rB3YVZvA78w_20.mp4	0.0	116.1838002204895	2.508327007293701
22	61.724271059036255	fix_post	2		12.0	20.0	2.5	/experiments/knapen_aot/videos/S_yt-rB3YVZvA78w_20.mp4	0.0	118.6921272277832	0.1000978946685791
23	61.824368953704834	fix_pre	0		11.0	21.0	2.5	/experiments/knapen_aot/videos/S_yt-Ek1jcvett9E_33.mp4	0.0	118.79222512245178	0.09163689613342285
23	61.907739877700806	response	0	2		21.0	2.5	/experiments/knapen_aot/videos/S_yt-Ek1jcvett9E_33.mp4	0.0	118.87559604644775	
23	61.91600584983826	movie	1		301.0	21.0	2.5	/experiments/knapen_aot/videos/S_yt-Ek1jcvett9E_33.mp4	0.0	118.8838620185852	2.5082740783691406
23	64.4242799282074	fix_post	2		12.0	21.0	2.5	/experiments/knapen_aot/videos/S_yt-Ek1jcvett9E_33.mp4	0.0	121.39213609695435	0.09998893737792969
24	64.52426886558533	fix_pre	0		12.0	22.0	2.5	/experiments/knapen_aot/videos/S_production_ID_4154238.mp4	0.0	121.49212503433228	0.10002803802490234
24	64.61623096466064	response	0	2		22.0	2.5	/experiments/knapen_aot/videos/S_production_ID_4154238.mp4	0.0	121.58408713340759	
24	64.62429690361023	movie	1		201.0	22.0	2.5	/experiments/knapen_aot/videos/S_production_ID_4154238.mp4	0.0	121.59215307235718	2.508263111114502
24	67.13256001472473	fix_post	2		12.0	22.0	2.5	/experiments/knapen_aot/videos/S_production_ID_4154238.mp4	0.0	124.10041618347168	0.10008001327514648
25	67.23264002799988	fix_pre	0		14.0	23.0	2.5	/experiments/knapen_aot/videos/S_yt-x7TqP8l4lCA_39.mp4	0.0	124.20049619674683	0.11669492721557617
25	67.34104084968567	response	0	2		23.0	2.5	/experiments/knapen_aot/videos/S_yt-x7TqP8l4lCA_39.mp4	0.0	124.30889701843262	
25	67.34933495521545	movie	1		301.0	23.0	2.5	/experiments/knapen_aot/videos/S_yt-x7TqP8l4lCA_39.mp4	0.0	124.3171911239624	2.508265972137451
25	69.8576009273529	fix_post	2		12.0	23.0	2.5	/experiments/knapen_aot/videos/S_yt-x7TqP8l4lCA_39.mp4	0.0	126.82545709609985	0.09998393058776855
26	69.95758485794067	fix_pre	0		16.0	24.0	2.5	/experiments/knapen_aot/videos/R_S_yt-b0IfGcoHfD0_83.mp4	0.0	126.92544102668762	0.13337302207946777
26	70.08274292945862	response	0	2		24.0	2.5	/experiments/knapen_aot/videos/R_S_yt-b0IfGcoHfD0_83.mp4	0.0	127.05059909820557	
26	70.09095788002014	movie	1		300.0	24.0	2.5	/experiments/knapen_aot/videos/R_S_yt-b0IfGcoHfD0_83.mp4	0.0	127.05881404876709	2.5083160400390625
26	72.5992739200592	fix_post	2		12.0	24.0	2.5	/experiments/knapen_aot/videos/R_S_yt-b0IfGcoHfD0_83.mp4	0.0	129.56713008880615	0.0999610424041748
27	72.69923496246338	fix_pre	0		15.0	25.0	2.5	/experiments/knapen_aot/videos/R_S_comp_GMT060_117NC_363D_1034_AUSTRALIA_v35_SDR_PS_FINAL_20180731_SDR_2K_AVC.mp4	0.0	129.66709113121033	0.1250438690185547
27	72.81608891487122	response	0	2		25.0	2.5	/experiments/knapen_aot/videos/R_S_comp_GMT060_117NC_363D_1034_AUSTRALIA_v35_SDR_PS_FINAL_20180731_SDR_2K_AVC.mp4	0.0	129.78394508361816	
27	72.82427883148193	movie	1		167.0	25.0	2.5	/experiments/knapen_aot/videos/R_S_comp_GMT060_117NC_363D_1034_AUSTRALIA_v35_SDR_PS_FINAL_20180731_SDR_2K_AVC.mp4	0.0	129.79213500022888	2.508327007293701
27	75.33260583877563	fix_post	2		12.0	25.0	2.5	/experiments/knapen_aot/videos/R_S_comp_GMT060_117NC_363D_1034_AUSTRALIA_v35_SDR_PS_FINAL_20180731_SDR_2K_AVC.mp4	0.0	132.30046200752258	0.09990620613098145
27	75.41605305671692	response	2	2		25.0	2.5	/experiments/knapen_aot/videos/R_S_comp_GMT060_117NC_363D_1034_AUSTRALIA_v35_SDR_PS_FINAL_20180731_SDR_2K_AVC.mp4	0.0	132.38390922546387	
28	75.43251204490662	fix_pre	0		38.0	26.0	2.5	blank	1.0	132.40036821365356	0.31676793098449707
28	75.7410478591919	response	0	2		26.0	2.5	blank	1.0	132.70890402793884	
28	75.74927997589111	movie	1		301.0	26.0	2.5	blank	1.0	132.71713614463806	2.508265972137451
28	78.25754594802856	fix_post	2		12.0	26.0	2.5	blank	1.0	135.2254021167755	0.10008907318115234
29	78.35763502120972	fix_pre	0		25.0	27.0	2.5	/experiments/knapen_aot/videos/S_production_ID_4154238.mp4	0.0	135.32549118995667	0.20957684516906738
29	78.55772399902344	response	0	2		27.0	2.5	/experiments/knapen_aot/videos/S_production_ID_4154238.mp4	0.0	135.52558016777039	
29	78.56721186637878	movie	1		207.0	27.0	2.5	/experiments/knapen_aot/videos/S_production_ID_4154238.mp4	0.0	135.53506803512573	2.5070431232452393
29	81.07425498962402	fix_post	2		12.0	27.0	2.5	/experiments/knapen_aot/videos/S_production_ID_4154238.mp4	0.0	138.04211115837097	0.0999610424041748
30	81.1742160320282	fix_pre	0		1.0	28.0	2.5	/experiments/knapen_aot/videos/R_S_comp_GMT060_117NC_363D_1034_AUSTRALIA_v35_SDR_PS_FINAL_20180731_SDR_2K_AVC.mp4	0.0	138.14207220077515	0.011066913604736328
30	81.1767749786377	response	0	2		28.0	2.5	/experiments/knapen_aot/videos/R_S_comp_GMT060_117NC_363D_1034_AUSTRALIA_v35_SDR_PS_FINAL_20180731_SDR_2K_AVC.mp4	0.0	138.14463114738464	
30	81.18528294563293	movie	1		165.0	28.0	2.5	/experiments/knapen_aot/videos/R_S_comp_GMT060_117NC_363D_1034_AUSTRALIA_v35_SDR_PS_FINAL_20180731_SDR_2K_AVC.mp4	0.0	138.15313911437988	2.5058040618896484
30	83.69108700752258	fix_post	2		12.0	28.0	2.5	/experiments/knapen_aot/videos/R_S_comp_GMT060_117NC_363D_1034_AUSTRALIA_v35_SDR_PS_FINAL_20180731_SDR_2K_AVC.mp4	0.0	140.65894317626953	0.09989285469055176
30	83.73266291618347	response	2	2		28.0	2.5	/experiments/knapen_aot/videos/R_S_comp_GMT060_117NC_363D_1034_AUSTRALIA_v35_SDR_PS_FINAL_20180731_SDR_2K_AVC.mp4	0.0	140.70051908493042	
31	83.79097986221313	fix_pre	0		32.0	29.0	2.5	/experiments/knapen_aot/videos/R_S_yt-C0INfEJ4Awk_53.mp4	0.0	140.75883603096008	0.26661014556884766
31	84.04934692382812	response	0	2		29.0	2.5	/experiments/knapen_aot/videos/R_S_yt-C0INfEJ4Awk_53.mp4	0.0	141.01720309257507	
31	84.05759000778198	movie	1		301.0	29.0	2.5	/experiments/knapen_aot/videos/R_S_yt-C0INfEJ4Awk_53.mp4	0.0	141.02544617652893	2.5083038806915283
31	86.56589388847351	fix_post	2		12.0	29.0	2.5	/experiments/knapen_aot/videos/R_S_yt-C0INfEJ4Awk_53.mp4	0.0	143.53375005722046	0.09990811347961426
31	86.6492600440979	response	2	2		29.0	2.5	/experiments/knapen_aot/videos/R_S_yt-C0INfEJ4Awk_53.mp4	0.0	143.61711621284485	
32	86.66580200195312	fix_pre	0		33.0	30.0	2.5	/experiments/knapen_aot/videos/R_S_yt-TqVe93JCGmM_12.mp4	0.0	143.63365817070007	0.2763328552246094
32	86.93275284767151	response	0	2		30.0	2.5	/experiments/knapen_aot/videos/R_S_yt-TqVe93JCGmM_12.mp4	0.0	143.90060901641846	
32	86.94213485717773	movie	1		301.0	30.0	2.5	/experiments/knapen_aot/videos/R_S_yt-TqVe93JCGmM_12.mp4	0.0	143.90999102592468	2.5070791244506836
32	89.44921398162842	fix_post	2		12.0	30.0	2.5	/experiments/knapen_aot/videos/R_S_yt-TqVe93JCGmM_12.mp4	0.0	146.41707015037537	0.10004401206970215
33	89.54925799369812	fix_pre	0		12.0	31.0	2.5	/experiments/knapen_aot/videos/S_yt-RKo978aBdzw_173.mp4	0.0	146.51711416244507	0.10124492645263672
33	89.64094686508179	response	0	2		31.0	2.5	/experiments/knapen_aot/videos/S_yt-RKo978aBdzw_173.mp4	0.0	146.60880303382874	
33	89.65050292015076	movie	1		301.0	31.0	2.5	/experiments/knapen_aot/videos/S_yt-RKo978aBdzw_173.mp4	0.0	146.6183590888977	2.5071051120758057
33	92.15760803222656	fix_post	2		12.0	31.0	2.5	/experiments/knapen_aot/videos/S_yt-RKo978aBdzw_173.mp4	0.0	149.1254642009735	0.09995794296264648
34	92.25756597518921	fix_pre	0		18.0	32.0	2.5	/experiments/knapen_aot/videos/S_video-4.mp4	0.0	149.22542214393616	0.14996099472045898
34	92.39941787719727	response	0	2		32.0	2.5	/experiments/knapen_aot/videos/S_video-4.mp4	0.0	149.3672740459442	
34	92.40752696990967	movie	1		167.0	32.0	2.5	/experiments/knapen_aot/videos/S_video-4.mp4	0.0	149.37538313865662	2.508384943008423
34	94.91591191291809	fix_post	2		12.0	32.0	2.5	/experiments/knapen_aot/videos/S_video-4.mp4	0.0	151.88376808166504	0.10000801086425781
35	95.01591992378235	fix_pre	0		18.0	33.0	2.5	/experiments/knapen_aot/videos/R_S_yt-ybH6uAiFbjc_273.mp4	0.0	151.9837760925293	0.14995908737182617
35	95.15771293640137	response	0	2		33.0	2.5	/experiments/knapen_aot/videos/R_S_yt-ybH6uAiFbjc_273.mp4	0.0	152.12556910514832	
35	95.16587901115417	movie	1		301.0	33.0	2.5	/experiments/knapen_aot/videos/R_S_yt-ybH6uAiFbjc_273.mp4	0.0	152.13373517990112	2.5083389282226562
35	97.67421793937683	fix_post	2		12.0	33.0	2.5	/experiments/knapen_aot/videos/R_S_yt-ybH6uAiFbjc_273.mp4	0.0	154.64207410812378	0.10003495216369629
36	97.77425289154053	fix_pre	0		32.0	34.0	2.5	/experiments/knapen_aot/videos/S_video-4.mp4	0.0	154.74210906028748	0.26662611961364746
36	98.03266501426697	response	0	2		34.0	2.5	/experiments/knapen_aot/videos/S_video-4.mp4	0.0	155.00052118301392	
36	98.04087901115417	movie	1		164.0	34.0	2.5	/experiments/knapen_aot/videos/S_video-4.mp4	0.0	155.00873517990112	2.50834584236145
36	100.54922485351562	fix_post	2		12.0	34.0	2.5	/experiments/knapen_aot/videos/S_video-4.mp4	0.0	157.51708102226257	0.0999600887298584
37	100.64918494224548	fix_pre	0		18.0	35.0	2.5	blank	1.0	157.61704111099243	0.1499929428100586
37	100.79097199440002	response	0	2		35.0	2.5	blank	1.0	157.75882816314697	
37	100.79917788505554	movie	1		301.0	35.0	2.5	blank	1.0	157.7670340538025	2.508280038833618
37	103.30745792388916	fix_post	2		12.0	35.0	2.5	blank	1.0	160.2753140926361	0.10002613067626953
38	103.40748405456543	fix_pre	0		47.0	36.0	2.5	/experiments/knapen_aot/videos/R_S_yt-tqxZlasEvZA_43.mp4	0.0	160.37534022331238	0.3917059898376465
38	103.78349494934082	response	0	2		36.0	2.5	/experiments/knapen_aot/videos/R_S_yt-tqxZlasEvZA_43.mp4	0.0	160.75135111808777	
38	103.79919004440308	movie	1		300.0	36.0	2.5	/experiments/knapen_aot/videos/R_S_yt-tqxZlasEvZA_43.mp4	0.0	160.76704621315002	2.5083417892456055
38	106.30753183364868	fix_post	2		12.0	36.0	2.5	/experiments/knapen_aot/videos/R_S_yt-tqxZlasEvZA_43.mp4	0.0	163.27538800239563	0.09992718696594238
39	106.40745902061462	fix_pre	0		41.0	37.0	2.5	/experiments/knapen_aot/videos/S_ILSVRC2015_train_00408000.mp4	0.0	163.37531518936157	0.34166884422302246
39	106.74095487594604	response	0	2		37.0	2.5	/experiments/knapen_aot/videos/S_ILSVRC2015_train_00408000.mp4	0.0	163.708811044693	
39	106.74912786483765	movie	1		301.0	37.0	2.5	/experiments/knapen_aot/videos/S_ILSVRC2015_train_00408000.mp4	0.0	163.7169840335846	2.508395195007324
39	109.25752305984497	fix_post	2		12.0	37.0	2.5	/experiments/knapen_aot/videos/S_ILSVRC2015_train_00408000.mp4	0.0	166.22537922859192	0.0998997688293457
40	109.35742282867432	fix_pre	0		34.0	38.0	2.5	/experiments/knapen_aot/videos/R_S_yt-XbNHfZjXuVM_43.mp4	0.0	166.32527899742126	0.2833380699157715
40	109.62504005432129	response	0	2		38.0	2.5	/experiments/knapen_aot/videos/R_S_yt-XbNHfZjXuVM_43.mp4	0.0	166.59289622306824	
40	109.64076089859009	movie	1		301.0	38.0	2.5	/experiments/knapen_aot/videos/R_S_yt-XbNHfZjXuVM_43.mp4	0.0	166.60861706733704	2.5083611011505127
40	112.1491219997406	fix_post	2		12.0	38.0	2.5	/experiments/knapen_aot/videos/R_S_yt-XbNHfZjXuVM_43.mp4	0.0	169.11697816848755	0.09992289543151855
41	112.24904489517212	fix_pre	0		22.0	39.0	2.5	/experiments/knapen_aot/videos/S_yt-mL3MuCfKtdY_79.mp4	0.0	169.21690106391907	0.18333196640014648
41	112.42422389984131	response	0	2		39.0	2.5	/experiments/knapen_aot/videos/S_yt-mL3MuCfKtdY_79.mp4	0.0	169.39208006858826	
41	112.43237686157227	movie	1		301.0	39.0	2.5	/experiments/knapen_aot/videos/S_yt-mL3MuCfKtdY_79.mp4	0.0	169.4002330303192	2.5083470344543457
41	114.94072389602661	fix_post	2		12.0	39.0	2.5	/experiments/knapen_aot/videos/S_yt-mL3MuCfKtdY_79.mp4	0.0	171.90858006477356	0.10005307197570801
42	115.04077696800232	fix_pre	0		16.0	40.0	2.5	blank	1.0	172.00863313674927	0.1333000659942627
42	115.16590189933777	response	0	2		40.0	2.5	blank	1.0	172.13375806808472	
42	115.17407703399658	movie	1		301.0	40.0	2.5	blank	1.0	172.14193320274353	2.5084328651428223
42	117.6825098991394	fix_post	2		12.0	40.0	2.5	blank	1.0	174.65036606788635	0.0999000072479248
43	117.78240990638733	fix_pre	0		34.0	41.0	2.5	/experiments/knapen_aot/videos/R_S_yt-TqVe93JCGmM_12.mp4	0.0	174.75026607513428	0.28446292877197266
43	118.05760097503662	response	0	2		41.0	2.5	/experiments/knapen_aot/videos/R_S_yt-TqVe93JCGmM_12.mp4	0.0	175.02545714378357	
43	118.0668728351593	movie	1		301.0	41.0	2.5	/experiments/knapen_aot/videos/R_S_yt-TqVe93JCGmM_12.mp4	0.0	175.03472900390625	2.507251024246216
43	120.57412385940552	fix_post	2		12.0	41.0	2.5	/experiments/knapen_aot/videos/R_S_yt-TqVe93JCGmM_12.mp4	0.0	177.54198002815247	0.09986615180969238
44	120.67399001121521	fix_pre	0		19.0	42.0	2.5	/experiments/knapen_aot/videos/R_S_production_ID_4154238.mp4	0.0	177.64184617996216	0.1584339141845703
44	120.82420802116394	response	0	2		42.0	2.5	/experiments/knapen_aot/videos/R_S_production_ID_4154238.mp4	0.0	177.7920641899109	
44	120.83242392539978	movie	1		194.0	42.0	2.5	/experiments/knapen_aot/videos/R_S_production_ID_4154238.mp4	0.0	177.80028009414673	2.5083200931549072
44	123.34074401855469	fix_post	2		12.0	42.0	2.5	/experiments/knapen_aot/videos/R_S_production_ID_4154238.mp4	0.0	180.30860018730164	0.09999489784240723
45	123.4407389163971	fix_pre	0		27.0	43.0	2.5	/experiments/knapen_aot/videos/R_S_comp_1223LV_FLARE_v21_SDR_PS_FINAL_20180709_F0F5700_SDR_2K_AVC.mp4	0.0	180.40859508514404	0.22495603561401367
45	123.64998388290405	response	0	2		43.0	2.5	/experiments/knapen_aot/videos/R_S_comp_1223LV_FLARE_v21_SDR_PS_FINAL_20180709_F0F5700_SDR_2K_AVC.mp4	0.0	180.617840051651	
45	123.66569495201111	movie	1		167.0	43.0	2.5	/experiments/knapen_aot/videos/R_S_comp_1223LV_FLARE_v21_SDR_PS_FINAL_20180709_F0F5700_SDR_2K_AVC.mp4	0.0	180.63355112075806	2.508368968963623
45	126.17406392097473	fix_post	2		12.0	43.0	2.5	/experiments/knapen_aot/videos/R_S_comp_1223LV_FLARE_v21_SDR_PS_FINAL_20180709_F0F5700_SDR_2K_AVC.mp4	0.0	183.14192008972168	0.10000801086425781
46	126.27407193183899	fix_pre	0		4.0	44.0	2.5	/experiments/knapen_aot/videos/S_pexels-koolshooters-7691440.mp4	0.0	183.24192810058594	0.033445119857788086
46	126.29930591583252	response	0	2		44.0	2.5	/experiments/knapen_aot/videos/S_pexels-koolshooters-7691440.mp4	0.0	183.26716208457947	
46	126.30751705169678	movie	1		165.0	44.0	2.5	/experiments/knapen_aot/videos/S_pexels-koolshooters-7691440.mp4	0.0	183.27537322044373	2.508246898651123
46	128.8157639503479	fix_post	2		12.0	44.0	2.5	/experiments/knapen_aot/videos/S_pexels-koolshooters-7691440.mp4	0.0	185.78362011909485	0.10001587867736816
47	128.91577982902527	fix_pre	0		11.0	45.0	2.5	/experiments/knapen_aot/videos/S_bing-www_nytimes_com_video_dining_1247468118505_grilled-chicken-breasts-with-herb-butter_html_132.mp4	0.0	185.88363599777222	0.09162616729736328
47	128.99928283691406	response	0	2		45.0	2.5	/experiments/knapen_aot/videos/S_bing-www_nytimes_com_video_dining_1247468118505_grilled-chicken-breasts-with-herb-butter_html_132.mp4	0.0	185.967139005661	
47	129.00740599632263	movie	1		164.0	45.0	2.5	/experiments/knapen_aot/videos/S_bing-www_nytimes_com_video_dining_1247468118505_grilled-chicken-breasts-with-herb-butter_html_132.mp4	0.0	185.97526216506958	2.5083439350128174
47	131.51574993133545	fix_post	2		12.0	45.0	2.5	/experiments/knapen_aot/videos/S_bing-www_nytimes_com_video_dining_1247468118505_grilled-chicken-breasts-with-herb-butter_html_132.mp4	0.0	188.4836061000824	0.09999203681945801
48	131.6157419681549	fix_pre	0		12.0	46.0	2.5	/experiments/knapen_aot/videos/R_S_82eJpVKGnC0_188.mp4	0.0	188.58359813690186	0.10000395774841309
48	131.70752787590027	response	0	2		46.0	2.5	/experiments/knapen_aot/videos/R_S_82eJpVKGnC0_188.mp4	0.0	188.67538404464722	
48	131.71574592590332	movie	1		301.0	46.0	2.5	/experiments/knapen_aot/videos/R_S_82eJpVKGnC0_188.mp4	0.0	188.68360209465027	2.508296012878418
48	134.22404193878174	fix_post	2		12.0	46.0	2.5	/experiments/knapen_aot/videos/R_S_82eJpVKGnC0_188.mp4	0.0	191.1918981075287	0.09993505477905273
49	134.3239769935608	fix_pre	0		3.0	47.0	2.5	/experiments/knapen_aot/videos/R_S_pexels-ron-lach-8259631.mp4	0.0	191.29183316230774	0.025053024291992188
49	134.34085083007812	response	0	2		47.0	2.5	/experiments/knapen_aot/videos/R_S_pexels-ron-lach-8259631.mp4	0.0	191.30870699882507	
49	134.34903001785278	movie	1		184.0	47.0	2.5	/experiments/knapen_aot/videos/R_S_pexels-ron-lach-8259631.mp4	0.0	191.31688618659973	2.5083370208740234
49	136.8573670387268	fix_post	2		12.0	47.0	2.5	/experiments/knapen_aot/videos/R_S_pexels-ron-lach-8259631.mp4	0.0	193.82522320747375	0.10000491142272949
50	136.95737195014954	fix_pre	0		5.0	48.0	2.5	/experiments/knapen_aot/videos/S_yt-zpoIiHGRm5k_296.mp4	0.0	193.92522811889648	0.0417170524597168
50	136.99078392982483	response	0	2		48.0	2.5	/experiments/knapen_aot/videos/S_yt-zpoIiHGRm5k_296.mp4	0.0	193.95864009857178	
50	136.99908900260925	movie	1		301.0	48.0	2.5	/experiments/knapen_aot/videos/S_yt-zpoIiHGRm5k_296.mp4	0.0	193.9669451713562	2.5082919597625732
50	139.50738096237183	fix_post	2		12.0	48.0	2.5	/experiments/knapen_aot/videos/S_yt-zpoIiHGRm5k_296.mp4	0.0	196.47523713111877	0.09995007514953613
51	139.60733103752136	fix_pre	0		11.0	49.0	2.5	blank	1.0	196.5751872062683	0.09158992767333984
51	139.6907799243927	response	0	2		49.0	2.5	blank	1.0	196.65863609313965	
51	139.6989209651947	movie	1		301.0	49.0	2.5	blank	1.0	196.66677713394165	2.508375883102417
51	142.12413787841797	response	1	2		49.0	2.5	blank	1.0	199.09199404716492	
51	142.20729684829712	fix_post	2		12.0	49.0	2.5	blank	1.0	199.17515301704407	0.100067138671875
52	142.307363986969	fix_pre	0		5.0	50.0	2.5	/experiments/knapen_aot/videos/S_ILSVRC2015_train_00495000.mp4	0.0	199.27522015571594	0.04173088073730469
52	142.3408658504486	response	0	2		50.0	2.5	/experiments/knapen_aot/videos/S_ILSVRC2015_train_00495000.mp4	0.0	199.30872201919556	
52	142.3490948677063	movie	1		301.0	50.0	2.5	/experiments/knapen_aot/videos/S_ILSVRC2015_train_00495000.mp4	0.0	199.31695103645325	2.508228063583374
52	144.85732293128967	fix_post	2		12.0	50.0	2.5	/experiments/knapen_aot/videos/S_ILSVRC2015_train_00495000.mp4	0.0	201.82517910003662	0.09994792938232422
53	144.957270860672	fix_pre	0		14.0	51.0	2.5	/experiments/knapen_aot/videos/R_S_ILSVRC2015_test_00012005.mp4	0.0	201.92512702941895	0.1166691780090332
53	145.0657298564911	response	0	2		51.0	2.5	/experiments/knapen_aot/videos/R_S_ILSVRC2015_test_00012005.mp4	0.0	202.03358602523804	
53	145.07394003868103	movie	1		301.0	51.0	2.5	/experiments/knapen_aot/videos/R_S_ILSVRC2015_test_00012005.mp4	0.0	202.04179620742798	2.508316993713379
53	147.5822570323944	fix_post	2		12.0	51.0	2.5	/experiments/knapen_aot/videos/R_S_ILSVRC2015_test_00012005.mp4	0.0	204.55011320114136	0.1000068187713623
54	147.68226385116577	fix_pre	0		31.0	52.0	2.5	/experiments/knapen_aot/videos/S_yt-mJzkLd3Mr_c_35.mp4	0.0	204.65012001991272	0.2593071460723877
54	147.93244886398315	response	0	2		52.0	2.5	/experiments/knapen_aot/videos/S_yt-mJzkLd3Mr_c_35.mp4	0.0	204.9003050327301	
54	147.94157099723816	movie	1		299.0	52.0	2.5	/experiments/knapen_aot/videos/S_yt-mJzkLd3Mr_c_35.mp4	0.0	204.9094271659851	2.5072999000549316
54	150.4488708972931	fix_post	2		12.0	52.0	2.5	/experiments/knapen_aot/videos/S_yt-mJzkLd3Mr_c_35.mp4	0.0	207.41672706604004	0.10011005401611328
55	150.5489809513092	fix_pre	0		33.0	53.0	2.5	/experiments/knapen_aot/videos/R_S_yt-oVrkSsEpuvk_118.mp4	0.0	207.51683712005615	0.2750210762023926
55	150.8156988620758	response	0	2		53.0	2.5	/experiments/knapen_aot/videos/R_S_yt-oVrkSsEpuvk_118.mp4	0.0	207.78355503082275	
55	150.8240020275116	movie	1		301.0	53.0	2.5	/experiments/knapen_aot/videos/R_S_yt-oVrkSsEpuvk_118.mp4	0.0	207.79185819625854	2.508236885070801
55	153.3322389125824	fix_post	2		12.0	53.0	2.5	/experiments/knapen_aot/videos/R_S_yt-oVrkSsEpuvk_118.mp4	0.0	210.30009508132935	0.09999299049377441
56	153.43223190307617	fix_pre	0		17.0	54.0	2.5	/experiments/knapen_aot/videos/R_S_video_inspire_sanfrancisco_castro_005.1080-h264.mp4	0.0	210.40008807182312	0.14167213439941406
56	153.56570196151733	response	0	2		54.0	2.5	/experiments/knapen_aot/videos/R_S_video_inspire_sanfrancisco_castro_005.1080-h264.mp4	0.0	210.53355813026428	
56	153.5739040374756	movie	1		168.0	54.0	2.5	/experiments/knapen_aot/videos/R_S_video_inspire_sanfrancisco_castro_005.1080-h264.mp4	0.0	210.54176020622253	2.508340835571289
56	156.08224487304688	fix_post	2		12.0	54.0	2.5	/experiments/knapen_aot/videos/R_S_video_inspire_sanfrancisco_castro_005.1080-h264.mp4	0.0	213.05010104179382	0.100067138671875
56	156.14244985580444	response	2	2		54.0	2.5	/experiments/knapen_aot/videos/R_S_video_inspire_sanfrancisco_castro_005.1080-h264.mp4	0.0	213.1103060245514	
57	156.18231201171875	fix_pre	0		31.0	55.0	2.5	/experiments/knapen_aot/videos/R_S_yt-Ev39pXXfr1Y_152.mp4	0.0	213.1501681804657	0.25920701026916504
57	156.43238306045532	response	0	2		55.0	2.5	/experiments/knapen_aot/videos/R_S_yt-Ev39pXXfr1Y_152.mp4	0.0	213.40023922920227	
57	156.44151902198792	movie	1		301.0	55.0	2.5	/experiments/knapen_aot/videos/R_S_yt-Ev39pXXfr1Y_152.mp4	0.0	213.40937519073486	2.50736403465271
57	158.94888305664062	fix_post	2		12.0	55.0	2.5	/experiments/knapen_aot/videos/R_S_yt-Ev39pXXfr1Y_152.mp4	0.0	215.91673922538757	0.10000395774841309
58	159.04888701438904	fix_pre	0		21.0	56.0	2.5	blank	1.0	216.016743183136	0.17503786087036133
58	159.2157118320465	response	0	2		56.0	2.5	blank	1.0	216.18356800079346	
58	159.2239248752594	movie	1		301.0	56.0	2.5	blank	1.0	216.19178104400635	2.5083651542663574
58	161.73229002952576	fix_post	2		12.0	56.0	2.5	blank	1.0	218.7001461982727	0.0999460220336914
59	161.83223605155945	fix_pre	0		31.0	57.0	2.5	/experiments/knapen_aot/videos/S_yt-xSGPe0KemD4_384.mp4	0.0	218.8000922203064	0.2583189010620117
59	162.0824098587036	response	0	2		57.0	2.5	/experiments/knapen_aot/videos/S_yt-xSGPe0KemD4_384.mp4	0.0	219.05026602745056	
59	162.09055495262146	movie	1		301.0	57.0	2.5	/experiments/knapen_aot/videos/S_yt-xSGPe0KemD4_384.mp4	0.0	219.0584111213684	2.508336067199707
59	164.59889101982117	fix_post	2		12.0	57.0	2.5	/experiments/knapen_aot/videos/S_yt-xSGPe0KemD4_384.mp4	0.0	221.56674718856812	0.10001182556152344
60	164.6989028453827	fix_pre	0		33.0	58.0	2.5	/experiments/knapen_aot/videos/S_yt-TvU-aYjNa2c_21.mp4	0.0	221.66675901412964	0.274975061416626
60	164.96569085121155	response	0	2		58.0	2.5	/experiments/knapen_aot/videos/S_yt-TvU-aYjNa2c_21.mp4	0.0	221.9335470199585	
60	164.97387790679932	movie	1		301.0	58.0	2.5	/experiments/knapen_aot/videos/S_yt-TvU-aYjNa2c_21.mp4	0.0	221.94173407554626	2.5083329677581787
60	167.4822108745575	fix_post	2		11.0	58.0	2.5	/experiments/knapen_aot/videos/S_yt-TvU-aYjNa2c_21.mp4	0.0	224.45006704330444	0.10002708435058594
61	167.58223795890808	fix_pre	0		19.0	59.0	2.5	/experiments/knapen_aot/videos/S_yt-ybH6uAiFbjc_273.mp4	0.0	224.55009412765503	0.15834903717041016
61	167.72490096092224	response	0	2		59.0	2.5	/experiments/knapen_aot/videos/S_yt-ybH6uAiFbjc_273.mp4	0.0	224.6927571296692	
61	167.7405869960785	movie	1		301.0	59.0	2.5	/experiments/knapen_aot/videos/S_yt-ybH6uAiFbjc_273.mp4	0.0	224.70844316482544	2.5083489418029785
61	170.24893593788147	fix_post	2		12.0	59.0	2.5	/experiments/knapen_aot/videos/S_yt-ybH6uAiFbjc_273.mp4	0.0	227.21679210662842	0.09993791580200195
62	170.34887385368347	fix_pre	0		34.0	60.0	2.5	/experiments/knapen_aot/videos/S_yt-qazCIJqjxUU_3.mp4	0.0	227.31673002243042	0.28336215019226074
62	170.62404584884644	response	0	2		60.0	2.5	/experiments/knapen_aot/videos/S_yt-qazCIJqjxUU_3.mp4	0.0	227.59190201759338	
62	170.63223600387573	movie	1		300.0	60.0	2.5	/experiments/knapen_aot/videos/S_yt-qazCIJqjxUU_3.mp4	0.0	227.60009217262268	2.50834584236145
62	173.14058184623718	fix_post	2		12.0	60.0	2.5	/experiments/knapen_aot/videos/S_yt-qazCIJqjxUU_3.mp4	0.0	230.10843801498413	0.10002017021179199
63	173.24060201644897	fix_pre	0		36.0	61.0	2.5	blank	1.0	230.20845818519592	0.2999110221862793
63	173.5323669910431	response	0	2		61.0	2.5	blank	1.0	230.50022315979004	
63	173.54051303863525	movie	1		301.0	61.0	2.5	blank	1.0	230.5083692073822	2.5083229541778564
63	176.0488359928131	fix_post	2		12.0	61.0	2.5	blank	1.0	233.01669216156006	0.10010790824890137
64	176.148943901062	fix_pre	0		24.0	62.0	2.5	/experiments/knapen_aot/videos/S_comp_LA_A005_C009_PSNK_ALT_v09_SDR_PS_201809134_SDR_2K_AVC.mp4	0.0	233.11680006980896	0.19987893104553223
64	176.34055995941162	response	0	2		62.0	2.5	/experiments/knapen_aot/videos/S_comp_LA_A005_C009_PSNK_ALT_v09_SDR_PS_201809134_SDR_2K_AVC.mp4	0.0	233.30841612815857	
64	176.34882283210754	movie	1		166.0	62.0	2.5	/experiments/knapen_aot/videos/S_comp_LA_A005_C009_PSNK_ALT_v09_SDR_PS_201809134_SDR_2K_AVC.mp4	0.0	233.3166790008545	2.5083491802215576
64	178.8571720123291	fix_post	2		12.0	62.0	2.5	/experiments/knapen_aot/videos/S_comp_LA_A005_C009_PSNK_ALT_v09_SDR_PS_201809134_SDR_2K_AVC.mp4	0.0	235.82502818107605	0.09998202323913574
65	178.95715403556824	fix_pre	0		19.0	63.0	2.5	/experiments/knapen_aot/videos/R_S_yt-N7ztk2fa3Ls_137.mp4	0.0	235.92501020431519	0.15832281112670898
65	179.10725688934326	response	0	2		63.0	2.5	/experiments/knapen_aot/videos/R_S_yt-N7ztk2fa3Ls_137.mp4	0.0	236.0751130580902	
65	179.11547684669495	movie	1		301.0	63.0	2.5	/experiments/knapen_aot/videos/R_S_yt-N7ztk2fa3Ls_137.mp4	0.0	236.0833330154419	2.508316993713379
65	181.62379384040833	fix_post	2		12.0	63.0	2.5	/experiments/knapen_aot/videos/R_S_yt-N7ztk2fa3Ls_137.mp4	0.0	238.59165000915527	0.10001111030578613
66	181.7238049507141	fix_pre	0		20.0	64.0	2.5	/experiments/knapen_aot/videos/R_S_Ds4EKTLx_RI_51.mp4	0.0	238.69166111946106	0.16669893264770508
66	181.88227796554565	response	0	2		64.0	2.5	/experiments/knapen_aot/videos/R_S_Ds4EKTLx_RI_51.mp4	0.0	238.8501341342926	
66	181.89050388336182	movie	1		301.0	64.0	2.5	/experiments/knapen_aot/videos/R_S_Ds4EKTLx_RI_51.mp4	0.0	238.85836005210876	2.5083000659942627
66	184.39880394935608	fix_post	2		12.0	64.0	2.5	/experiments/knapen_aot/videos/R_S_Ds4EKTLx_RI_51.mp4	0.0	241.36666011810303	0.1000359058380127
67	184.4988398551941	fix_pre	0		12.0	65.0	2.5	/experiments/knapen_aot/videos/S_yt-FMIevUic_XY_50.mp4	0.0	241.46669602394104	0.09998106956481934
67	184.59057593345642	response	0	2		65.0	2.5	/experiments/knapen_aot/videos/S_yt-FMIevUic_XY_50.mp4	0.0	241.55843210220337	
67	184.5988209247589	movie	1		301.0	65.0	2.5	/experiments/knapen_aot/videos/S_yt-FMIevUic_XY_50.mp4	0.0	241.56667709350586	2.5083329677581787
67	187.1071538925171	fix_post	2		12.0	65.0	2.5	/experiments/knapen_aot/videos/S_yt-FMIevUic_XY_50.mp4	0.0	244.07501006126404	0.09996914863586426
68	187.20712304115295	fix_pre	0		22.0	66.0	2.5	/experiments/knapen_aot/videos/R_S_yt-aiDGx4AN8J0_9.mp4	0.0	244.1749792098999	0.1833019256591797
68	187.382248878479	response	0	2		66.0	2.5	/experiments/knapen_aot/videos/R_S_yt-aiDGx4AN8J0_9.mp4	0.0	244.35010504722595	
68	187.39042496681213	movie	1		301.0	66.0	2.5	/experiments/knapen_aot/videos/R_S_yt-aiDGx4AN8J0_9.mp4	0.0	244.35828113555908	2.508388042449951
68	189.89881300926208	fix_post	2		12.0	66.0	2.5	/experiments/knapen_aot/videos/R_S_yt-aiDGx4AN8J0_9.mp4	0.0	246.86666917800903	0.1000068187713623
69	189.99881982803345	fix_pre	0		19.0	67.0	2.5	/experiments/knapen_aot/videos/R_S_yt-vQ-rd-1gwH4_238.mp4	0.0	246.9666759967804	0.158278226852417
69	190.14897394180298	response	0	2		67.0	2.5	/experiments/knapen_aot/videos/R_S_yt-vQ-rd-1gwH4_238.mp4	0.0	247.11683011054993	
69	190.15709805488586	movie	1		301.0	67.0	2.5	/experiments/knapen_aot/videos/R_S_yt-vQ-rd-1gwH4_238.mp4	0.0	247.1249542236328	2.508359909057617
69	192.66545796394348	fix_post	2		12.0	67.0	2.5	/experiments/knapen_aot/videos/R_S_yt-vQ-rd-1gwH4_238.mp4	0.0	249.63331413269043	0.1000058650970459
70	192.76546382904053	fix_pre	0		23.0	68.0	2.5	blank	1.0	249.73331999778748	0.1916821002960205
70	192.94895386695862	response	0	2		68.0	2.5	blank	1.0	249.91681003570557	
70	192.95714592933655	movie	1		301.0	68.0	2.5	blank	1.0	249.9250020980835	2.508305072784424
70	195.46545100212097	fix_post	2		12.0	68.0	2.5	blank	1.0	252.43330717086792	0.09998798370361328
71	195.56543898582458	fix_pre	0		18.0	69.0	2.5	/experiments/knapen_aot/videos/R_S_pexels-mikhail-nilov-8410084.mp4	0.0	252.53329515457153	0.15000104904174805
71	195.70725202560425	response	0	2		69.0	2.5	/experiments/knapen_aot/videos/R_S_pexels-mikhail-nilov-8410084.mp4	0.0	252.6751081943512	
71	195.71544003486633	movie	1		168.0	69.0	2.5	/experiments/knapen_aot/videos/R_S_pexels-mikhail-nilov-8410084.mp4	0.0	252.68329620361328	2.5083370208740234
71	198.22377705574036	fix_post	2		12.0	69.0	2.5	/experiments/knapen_aot/videos/R_S_pexels-mikhail-nilov-8410084.mp4	0.0	255.1916332244873	0.1000218391418457
72	198.3237988948822	fix_pre	0		7.0	70.0	2.5	/experiments/knapen_aot/videos/R_S_yt-O6FS0xnF0CU_106.mp4	0.0	255.29165506362915	0.05830693244934082
72	198.37382292747498	response	0	2		70.0	2.5	/experiments/knapen_aot/videos/R_S_yt-O6FS0xnF0CU_106.mp4	0.0	255.34167909622192	
72	198.38210582733154	movie	1		301.0	70.0	2.5	/experiments/knapen_aot/videos/R_S_yt-O6FS0xnF0CU_106.mp4	0.0	255.3499619960785	2.508424997329712
72	200.89053082466125	fix_post	2		12.0	70.0	2.5	/experiments/knapen_aot/videos/R_S_yt-O6FS0xnF0CU_106.mp4	0.0	257.8583869934082	0.09985017776489258
73	200.99038100242615	fix_pre	0		12.0	71.0	2.5	/experiments/knapen_aot/videos/S_wc-ikynRrpJVaWp_12.mp4	0.0	257.9582371711731	0.10002589225769043
73	201.0821988582611	response	0	2		71.0	2.5	/experiments/knapen_aot/videos/S_wc-ikynRrpJVaWp_12.mp4	0.0	258.05005502700806	
73	201.09040689468384	movie	1		164.0	71.0	2.5	/experiments/knapen_aot/videos/S_wc-ikynRrpJVaWp_12.mp4	0.0	258.0582630634308	2.5084290504455566
73	203.5988359451294	fix_post	2		12.0	71.0	2.5	/experiments/knapen_aot/videos/S_wc-ikynRrpJVaWp_12.mp4	0.0	260.56669211387634	0.10002398490905762
74	203.69885993003845	fix_pre	0		10.0	72.0	2.5	/experiments/knapen_aot/videos/R_S_ILSVRC2015_test_00001002.mp4	0.0	260.6667160987854	0.0832979679107666
74	203.77508401870728	response	0	2		72.0	2.5	/experiments/knapen_aot/videos/R_S_ILSVRC2015_test_00001002.mp4	0.0	260.7429401874542	
74	203.78215789794922	movie	1		301.0	72.0	2.5	/experiments/knapen_aot/videos/R_S_ILSVRC2015_test_00001002.mp4	0.0	260.75001406669617	2.5082449913024902
74	206.2904028892517	fix_post	2		12.0	72.0	2.5	/experiments/knapen_aot/videos/R_S_ILSVRC2015_test_00001002.mp4	0.0	263.25825905799866	0.09995603561401367
75	206.39035892486572	fix_pre	0		16.0	73.0	2.5	/experiments/knapen_aot/videos/S_wc-lItGMdwvEd_l_7.mp4	0.0	263.35821509361267	0.13399791717529297
75	206.51558804512024	response	0	2		73.0	2.5	/experiments/knapen_aot/videos/S_wc-lItGMdwvEd_l_7.mp4	0.0	263.4834442138672	
75	206.52435684204102	movie	1		161.0	73.0	2.5	/experiments/knapen_aot/videos/S_wc-lItGMdwvEd_l_7.mp4	0.0	263.49221301078796	2.5076911449432373
75	209.03204798698425	fix_post	2		12.0	73.0	2.5	/experiments/knapen_aot/videos/S_wc-lItGMdwvEd_l_7.mp4	0.0	265.9999041557312	0.10001492500305176
76	209.1320629119873	fix_pre	0		15.0	74.0	2.5	/experiments/knapen_aot/videos/R_S_yt-Ndwek2tpIOA_169.mp4	0.0	266.09991908073425	0.12500405311584473
76	209.24883103370667	response	0	2		74.0	2.5	/experiments/knapen_aot/videos/R_S_yt-Ndwek2tpIOA_169.mp4	0.0	266.2166872024536	
76	209.25706696510315	movie	1		301.0	74.0	2.5	/experiments/knapen_aot/videos/R_S_yt-Ndwek2tpIOA_169.mp4	0.0	266.2249231338501	2.5082759857177734
76	211.76534295082092	fix_post	2		12.0	74.0	2.5	/experiments/knapen_aot/videos/R_S_yt-Ndwek2tpIOA_169.mp4	0.0	268.73319911956787	0.10001802444458008
77	211.8653609752655	fix_pre	0		24.0	75.0	2.5	/experiments/knapen_aot/videos/R_S_yt-aiDGx4AN8J0_9.mp4	0.0	268.83321714401245	0.20064496994018555
77	212.05712604522705	response	0	2		75.0	2.5	/experiments/knapen_aot/videos/R_S_yt-aiDGx4AN8J0_9.mp4	0.0	269.024982213974	
77	212.0660059452057	movie	1		301.0	75.0	2.5	/experiments/knapen_aot/videos/R_S_yt-aiDGx4AN8J0_9.mp4	0.0	269.03386211395264	2.507720947265625
77	214.5737268924713	fix_post	2		12.0	75.0	2.5	/experiments/knapen_aot/videos/R_S_yt-aiDGx4AN8J0_9.mp4	0.0	271.54158306121826	0.09991812705993652
78	214.67364501953125	fix_pre	0		17.0	76.0	2.5	/experiments/knapen_aot/videos/R_S_yt-mL3MuCfKtdY_79.mp4	0.0	271.6415011882782	0.1423039436340332
78	214.7996039390564	response	0	2		76.0	2.5	/experiments/knapen_aot/videos/R_S_yt-mL3MuCfKtdY_79.mp4	0.0	271.76746010780334	
78	214.81594896316528	movie	1		301.0	76.0	2.5	/experiments/knapen_aot/videos/R_S_yt-mL3MuCfKtdY_79.mp4	0.0	271.78380513191223	2.507775068283081
78	217.32372403144836	fix_post	2		12.0	76.0	2.5	/experiments/knapen_aot/videos/R_S_yt-mL3MuCfKtdY_79.mp4	0.0	274.2915802001953	0.09994888305664062
79	217.423672914505	fix_pre	0		19.0	77.0	2.5	blank	1.0	274.39152908325195	0.1582930088043213
79	217.57385087013245	response	0	2		77.0	2.5	blank	1.0	274.5417070388794	
79	217.58196592330933	movie	1		301.0	77.0	2.5	blank	1.0	274.5498220920563	2.50833797454834
79	220.09030389785767	fix_post	2		12.0	77.0	2.5	blank	1.0	277.0581600666046	0.09997010231018066
80	220.19027400016785	fix_pre	0		31.0	78.0	2.5	/experiments/knapen_aot/videos/S_yt-3ohvpS42xug_184.mp4	0.0	277.1581301689148	0.25835490226745605
80	220.44042897224426	response	0	2		78.0	2.5	/experiments/knapen_aot/videos/S_yt-3ohvpS42xug_184.mp4	0.0	277.4082851409912	
80	220.4486289024353	movie	1		301.0	78.0	2.5	/experiments/knapen_aot/videos/S_yt-3ohvpS42xug_184.mp4	0.0	277.41648507118225	2.508310079574585
80	222.9569389820099	fix_post	2		12.0	78.0	2.5	/experiments/knapen_aot/videos/S_yt-3ohvpS42xug_184.mp4	0.0	279.92479515075684	0.1000669002532959
81	223.05700588226318	fix_pre	0		8.0	79.0	2.5	/experiments/knapen_aot/videos/S_ILSVRC2015_train_00411000.mp4	0.0	280.02486205101013	0.06662511825561523
81	223.11548686027527	response	0	2		79.0	2.5	/experiments/knapen_aot/videos/S_ILSVRC2015_train_00411000.mp4	0.0	280.0833430290222	
81	223.1236310005188	movie	1		301.0	79.0	2.5	/experiments/knapen_aot/videos/S_ILSVRC2015_train_00411000.mp4	0.0	280.09148716926575	2.508280038833618
81	225.63191103935242	fix_post	2		12.0	79.0	2.5	/experiments/knapen_aot/videos/S_ILSVRC2015_train_00411000.mp4	0.0	282.59976720809937	0.10007882118225098
82	225.73198986053467	fix_pre	0		8.0	80.0	2.5	/experiments/knapen_aot/videos/S_yt-ZTAaH5XbtfE_3.mp4	0.0	282.6998460292816	0.0666360855102539
82	225.79042983055115	response	0	2		80.0	2.5	/experiments/knapen_aot/videos/S_yt-ZTAaH5XbtfE_3.mp4	0.0	282.7582859992981	
82	225.79862594604492	movie	1		301.0	80.0	2.5	/experiments/knapen_aot/videos/S_yt-ZTAaH5XbtfE_3.mp4	0.0	282.76648211479187	2.508336067199707
82	228.30696201324463	fix_post	2		12.0	80.0	2.5	/experiments/knapen_aot/videos/S_yt-ZTAaH5XbtfE_3.mp4	0.0	285.2748181819916	0.09998893737792969
83	228.40695095062256	fix_pre	0		14.0	81.0	2.5	/experiments/knapen_aot/videos/R_S_pexels-tima-miroshnichenko-5717005.mp4	0.0	285.3748071193695	0.1172170639038086
83	228.51548290252686	response	0	2		81.0	2.5	/experiments/knapen_aot/videos/R_S_pexels-tima-miroshnichenko-5717005.mp4	0.0	285.4833390712738	
83	228.52416801452637	movie	1		167.0	81.0	2.5	/experiments/knapen_aot/videos/R_S_pexels-tima-miroshnichenko-5717005.mp4	0.0	285.4920241832733	2.5077860355377197
83	231.0319540500641	fix_post	2		12.0	81.0	2.5	/experiments/knapen_aot/videos/R_S_pexels-tima-miroshnichenko-5717005.mp4	0.0	287.99981021881104	0.09995484352111816
84	231.1319088935852	fix_pre	0		6.0	82.0	2.5	/experiments/knapen_aot/videos/S_yt--vHa85DHvLU_31.mp4	0.0	288.09976506233215	0.05008697509765625
84	231.17374992370605	response	0	2		82.0	2.5	/experiments/knapen_aot/videos/S_yt--vHa85DHvLU_31.mp4	0.0	288.141606092453	
84	231.18199586868286	movie	1		301.0	82.0	2.5	/experiments/knapen_aot/videos/S_yt--vHa85DHvLU_31.mp4	0.0	288.1498520374298	2.5083231925964355
84	233.6903190612793	fix_post	2		12.0	82.0	2.5	/experiments/knapen_aot/videos/S_yt--vHa85DHvLU_31.mp4	0.0	290.65817523002625	0.09993195533752441
85	233.79025101661682	fix_pre	0		15.0	83.0	2.5	blank	1.0	290.75810718536377	0.1249399185180664
85	233.90709590911865	response	0	2		83.0	2.5	blank	1.0	290.8749520778656	
85	233.9151909351349	movie	1		301.0	83.0	2.5	blank	1.0	290.88304710388184	2.508341073989868
85	236.42353200912476	fix_post	2		12.0	83.0	2.5	blank	1.0	293.3913881778717	0.10058403015136719
87	236.52411603927612	stim	0		151.0					293.49197220802307	1.2578308582305908
87	236.64039587974548	response	0	2						293.60825204849243	
87	237.77845788002014	response	0	space						294.7463140487671	
