trial_nr	onset	event_type	phase	response	nr_frames	movie_index	movie_duration	movie_file	blank	onset_abs	duration
0	0.15116500854492188	stim	0		51.0					98.7964768409729	0.4238240718841553
0	0.5666971206665039	response	0	space						99.21200895309448	
1	0.5749890804290771	stim	0		121.0					99.22030091285706	1.0082039833068848
1	1.583193063735962	stim	1		120.0					100.22850489616394	0.9996421337127686
1	2.249547004699707	response	1	space						100.89485883712769	
2	2.5828351974487305	fix_pre	0		53.0	0.0	2.5	/experiments/knapen_aot/videos/S_ILSVRC2015_train_00417000.mp4	0.0	101.22814702987671	0.44288086891174316
2	3.0163052082061768	response	0	space		0.0	2.5	/experiments/knapen_aot/videos/S_ILSVRC2015_train_00417000.mp4	0.0	101.66161704063416	
2	3.0257160663604736	movie	1		300.0	0.0	2.5	/experiments/knapen_aot/videos/S_ILSVRC2015_train_00417000.mp4	0.0	101.67102789878845	2.5071959495544434
2	5.532912015914917	fix_post	2		12.0	0.0	2.5	/experiments/knapen_aot/videos/S_ILSVRC2015_train_00417000.mp4	0.0	104.1782238483429	0.09997916221618652
3	5.6328911781311035	fix_pre	0		59.0	1.0	2.5	/experiments/knapen_aot/videos/R_S_yt-GfPep7IhZIU_47.mp4	0.0	104.27820301055908	0.4969968795776367
3	6.1210761070251465	response	0	2		1.0	2.5	/experiments/knapen_aot/videos/R_S_yt-GfPep7IhZIU_47.mp4	0.0	104.76638793945312	
3	6.12988805770874	movie	1		301.0	1.0	2.5	/experiments/knapen_aot/videos/R_S_yt-GfPep7IhZIU_47.mp4	0.0	104.77519989013672	2.50301194190979
3	8.63289999961853	fix_post	2		12.0	1.0	2.5	/experiments/knapen_aot/videos/R_S_yt-GfPep7IhZIU_47.mp4	0.0	107.27821183204651	0.09999299049377441
4	8.732892990112305	fix_pre	0		33.0	2.0	2.5	/experiments/knapen_aot/videos/S_Y011_C001_SDR_2K_AVC.mp4	0.0	107.37820482254028	0.27499914169311523
4	8.999630212783813	response	0	2		2.0	2.5	/experiments/knapen_aot/videos/S_Y011_C001_SDR_2K_AVC.mp4	0.0	107.64494204521179	
4	9.00789213180542	movie	1		170.0	2.0	2.5	/experiments/knapen_aot/videos/S_Y011_C001_SDR_2K_AVC.mp4	0.0	107.6532039642334	2.508296012878418
4	11.516188144683838	fix_post	2		12.0	2.0	2.5	/experiments/knapen_aot/videos/S_Y011_C001_SDR_2K_AVC.mp4	0.0	110.16149997711182	0.10005784034729004
5	11.616245985031128	fix_pre	0		26.0	3.0	2.5	/experiments/knapen_aot/videos/S_PA_A010_C007_SDR_20190717_SDR_2K_AVC.mp4	0.0	110.2615578174591	0.2165820598602295
5	11.824696063995361	response	0	2		3.0	2.5	/experiments/knapen_aot/videos/S_PA_A010_C007_SDR_20190717_SDR_2K_AVC.mp4	0.0	110.47000789642334	
5	11.832828044891357	movie	1		167.0	3.0	2.5	/experiments/knapen_aot/videos/S_PA_A010_C007_SDR_20190717_SDR_2K_AVC.mp4	0.0	110.47813987731934	2.5083789825439453
5	14.341207027435303	fix_post	2		12.0	3.0	2.5	/experiments/knapen_aot/videos/S_PA_A010_C007_SDR_20190717_SDR_2K_AVC.mp4	0.0	112.98651885986328	0.09998703002929688
6	14.4411940574646	fix_pre	0		28.0	4.0	2.5	/experiments/knapen_aot/videos/S_yt-Jo6PxivsTOg_247.mp4	0.0	113.08650588989258	0.2332141399383545
6	14.666304111480713	response	0	2		4.0	2.5	/experiments/knapen_aot/videos/S_yt-Jo6PxivsTOg_247.mp4	0.0	113.31161594390869	
6	14.674408197402954	movie	1		301.0	4.0	2.5	/experiments/knapen_aot/videos/S_yt-Jo6PxivsTOg_247.mp4	0.0	113.31972002983093	2.5084378719329834
6	17.182846069335938	fix_post	2		12.0	4.0	2.5	/experiments/knapen_aot/videos/S_yt-Jo6PxivsTOg_247.mp4	0.0	115.82815790176392	0.09997105598449707
7	17.282817125320435	fix_pre	0		33.0	5.0	2.5	/experiments/knapen_aot/videos/R_S_yt-Iu2ZPHLqXuY_32.mp4	0.0	115.92812895774841	0.27497386932373047
7	17.549610137939453	response	0	2		5.0	2.5	/experiments/knapen_aot/videos/R_S_yt-Iu2ZPHLqXuY_32.mp4	0.0	116.19492197036743	
7	17.557790994644165	movie	1		301.0	5.0	2.5	/experiments/knapen_aot/videos/R_S_yt-Iu2ZPHLqXuY_32.mp4	0.0	116.20310282707214	2.5082480907440186
7	20.066039085388184	fix_post	2		12.0	5.0	2.5	/experiments/knapen_aot/videos/R_S_yt-Iu2ZPHLqXuY_32.mp4	0.0	118.71135091781616	0.10010099411010742
8	20.16614007949829	fix_pre	0		48.0	6.0	2.5	blank	1.0	118.81145191192627	0.39995598793029785
8	20.557876110076904	response	0	2		6.0	2.5	blank	1.0	119.20318794250488	
8	20.56609606742859	movie	1		301.0	6.0	2.5	blank	1.0	119.21140789985657	2.5083749294281006
8	23.07447099685669	fix_post	2		12.0	6.0	2.5	blank	1.0	121.71978282928467	0.10006308555603027
9	23.17453408241272	fix_pre	0		39.0	7.0	2.5	/experiments/knapen_aot/videos/S_ILSVRC2015_train_00379000.mp4	0.0	121.8198459148407	0.3249359130859375
9	23.491231203079224	response	0	2		7.0	2.5	/experiments/knapen_aot/videos/S_ILSVRC2015_train_00379000.mp4	0.0	122.1365430355072	
9	23.499469995498657	movie	1		301.0	7.0	2.5	/experiments/knapen_aot/videos/S_ILSVRC2015_train_00379000.mp4	0.0	122.14478182792664	2.5082499980926514
9	26.00771999359131	fix_post	2		12.0	7.0	2.5	/experiments/knapen_aot/videos/S_ILSVRC2015_train_00379000.mp4	0.0	124.65303182601929	0.10006117820739746
10	26.107781171798706	fix_pre	0		34.0	8.0	2.5	/experiments/knapen_aot/videos/S_pexels-ron-lach-8071987.mp4	0.0	124.75309300422668	0.28334689140319824
10	26.375428199768066	response	0	2		8.0	2.5	/experiments/knapen_aot/videos/S_pexels-ron-lach-8071987.mp4	0.0	125.02074003219604	
10	26.391128063201904	movie	1		198.0	8.0	2.5	/experiments/knapen_aot/videos/S_pexels-ron-lach-8071987.mp4	0.0	125.03643989562988	2.5082931518554688
10	28.899421215057373	fix_post	2		12.0	8.0	2.5	/experiments/knapen_aot/videos/S_pexels-ron-lach-8071987.mp4	0.0	127.54473304748535	0.10004091262817383
11	28.999462127685547	fix_pre	0		40.0	9.0	2.5	/experiments/knapen_aot/videos/R_S_yt-ZE8Af60eNsI_15.mp4	0.0	127.64477396011353	0.33330798149108887
11	29.324599027633667	response	0	2		9.0	2.5	/experiments/knapen_aot/videos/R_S_yt-ZE8Af60eNsI_15.mp4	0.0	127.96991086006165	
11	29.332770109176636	movie	1		297.0	9.0	2.5	/experiments/knapen_aot/videos/R_S_yt-ZE8Af60eNsI_15.mp4	0.0	127.97808194160461	2.5083389282226562
11	31.841109037399292	fix_post	2		12.0	9.0	2.5	/experiments/knapen_aot/videos/R_S_yt-ZE8Af60eNsI_15.mp4	0.0	130.48642086982727	0.09993910789489746
12	31.94104814529419	fix_pre	0		26.0	10.0	2.5	/experiments/knapen_aot/videos/S_yt-b0IfGcoHfD0_83.mp4	0.0	130.58635997772217	0.21670293807983398
12	32.149543046951294	response	0	2		10.0	2.5	/experiments/knapen_aot/videos/S_yt-b0IfGcoHfD0_83.mp4	0.0	130.79485487937927	
12	32.15775108337402	movie	1		301.0	10.0	2.5	/experiments/knapen_aot/videos/S_yt-b0IfGcoHfD0_83.mp4	0.0	130.803062915802	2.508296012878418
12	34.66604709625244	fix_post	2		12.0	10.0	2.5	/experiments/knapen_aot/videos/S_yt-b0IfGcoHfD0_83.mp4	0.0	133.31135892868042	0.10004591941833496
13	34.766093015670776	fix_pre	0		40.0	11.0	2.5	/experiments/knapen_aot/videos/R_S_yt-4wjGeLyvfjY_223.mp4	0.0	133.41140484809875	0.3333590030670166
13	35.091206073760986	response	0	2		11.0	2.5	/experiments/knapen_aot/videos/R_S_yt-4wjGeLyvfjY_223.mp4	0.0	133.73651790618896	
13	35.09945201873779	movie	1		301.0	11.0	2.5	/experiments/knapen_aot/videos/R_S_yt-4wjGeLyvfjY_223.mp4	0.0	133.74476385116577	2.5083019733428955
13	37.60775399208069	fix_post	2		12.0	11.0	2.5	/experiments/knapen_aot/videos/R_S_yt-4wjGeLyvfjY_223.mp4	0.0	136.25306582450867	0.099884033203125
14	37.70763802528381	fix_pre	0		29.0	12.0	2.5	blank	1.0	136.3529498577118	0.24172115325927734
14	37.941179037094116	response	0	2		12.0	2.5	blank	1.0	136.5864908695221	
14	37.94935917854309	movie	1		301.0	12.0	2.5	blank	1.0	136.59467101097107	2.508258819580078
14	40.45761799812317	fix_post	2		12.0	12.0	2.5	blank	1.0	139.10292983055115	0.10007309913635254
15	40.55769109725952	fix_pre	0		28.0	13.0	2.5	/experiments/knapen_aot/videos/S_production_ID_3761571.mp4	0.0	139.2030029296875	0.2333369255065918
15	40.78284215927124	response	0	2		13.0	2.5	/experiments/knapen_aot/videos/S_production_ID_3761571.mp4	0.0	139.42815399169922	
15	40.79102802276611	movie	1		164.0	13.0	2.5	/experiments/knapen_aot/videos/S_production_ID_3761571.mp4	0.0	139.4363398551941	2.508373975753784
15	43.2994019985199	fix_post	2		12.0	13.0	2.5	/experiments/knapen_aot/videos/S_production_ID_3761571.mp4	0.0	141.94471383094788	0.1002051830291748
16	43.39960718154907	fix_pre	0		15.0	14.0	2.5	/experiments/knapen_aot/videos/S_production_ID_4325509.mp4	0.0	142.04491901397705	0.12577390670776367
16	43.51612901687622	response	0	2		14.0	2.5	/experiments/knapen_aot/videos/S_production_ID_4325509.mp4	0.0	142.1614408493042	
16	43.525381088256836	movie	1		198.0	14.0	2.5	/experiments/knapen_aot/videos/S_production_ID_4325509.mp4	0.0	142.17069292068481	2.507385015487671
16	46.03276610374451	fix_post	2		12.0	14.0	2.5	/experiments/knapen_aot/videos/S_production_ID_4325509.mp4	0.0	144.67807793617249	0.09997391700744629
17	46.13274002075195	fix_pre	0		50.0	15.0	2.5	/experiments/knapen_aot/videos/R_S_yt-hWXr5bv2_uA_48.mp4	0.0	144.77805185317993	0.41663599014282227
17	46.54115414619446	response	0	2		15.0	2.5	/experiments/knapen_aot/videos/R_S_yt-hWXr5bv2_uA_48.mp4	0.0	145.18646597862244	
17	46.549376010894775	movie	1		298.0	15.0	2.5	/experiments/knapen_aot/videos/R_S_yt-hWXr5bv2_uA_48.mp4	0.0	145.19468784332275	2.508287191390991
17	49.05766320228577	fix_post	2		12.0	15.0	2.5	/experiments/knapen_aot/videos/R_S_yt-hWXr5bv2_uA_48.mp4	0.0	147.70297503471375	0.09992098808288574
18	49.15758419036865	fix_pre	0		40.0	16.0	2.5	/experiments/knapen_aot/videos/S_bing-www_yahoo_com_entertainment_anastasia-karanikolaou-chantel-jeffries-discuss-182400502_html_9.mp4	0.0	147.80289602279663	0.3334369659423828
18	49.48274803161621	response	0	2		16.0	2.5	/experiments/knapen_aot/videos/S_bing-www_yahoo_com_entertainment_anastasia-karanikolaou-chantel-jeffries-discuss-182400502_html_9.mp4	0.0	148.1280598640442	
18	49.491021156311035	movie	1		164.0	16.0	2.5	/experiments/knapen_aot/videos/S_bing-www_yahoo_com_entertainment_anastasia-karanikolaou-chantel-jeffries-discuss-182400502_html_9.mp4	0.0	148.136332988739	2.5082788467407227
18	51.99930000305176	fix_post	2		12.0	16.0	2.5	/experiments/knapen_aot/videos/S_bing-www_yahoo_com_entertainment_anastasia-karanikolaou-chantel-jeffries-discuss-182400502_html_9.mp4	0.0	150.64461183547974	0.10003113746643066
19	52.09933114051819	fix_pre	0		36.0	17.0	2.5	/experiments/knapen_aot/videos/S_ILSVRC2015_train_00547001.mp4	0.0	150.74464297294617	0.30100107192993164
19	52.38349199295044	response	0	2		17.0	2.5	/experiments/knapen_aot/videos/S_ILSVRC2015_train_00547001.mp4	0.0	151.02880382537842	
19	52.40033221244812	movie	1		301.0	17.0	2.5	/experiments/knapen_aot/videos/S_ILSVRC2015_train_00547001.mp4	0.0	151.0456440448761	2.507340908050537
19	54.90767312049866	fix_post	2		12.0	17.0	2.5	/experiments/knapen_aot/videos/S_ILSVRC2015_train_00547001.mp4	0.0	153.55298495292664	0.10000300407409668
20	55.007676124572754	fix_pre	0		31.0	18.0	2.5	/experiments/knapen_aot/videos/R_S_yt-ak01CHYgEOs_1383.mp4	0.0	153.65298795700073	0.25832295417785645
20	55.25777220726013	response	0	2		18.0	2.5	/experiments/knapen_aot/videos/R_S_yt-ak01CHYgEOs_1383.mp4	0.0	153.9030840396881	
20	55.26599907875061	movie	1		301.0	18.0	2.5	/experiments/knapen_aot/videos/R_S_yt-ak01CHYgEOs_1383.mp4	0.0	153.9113109111786	2.5083980560302734
20	57.774397134780884	fix_post	2		12.0	18.0	2.5	/experiments/knapen_aot/videos/R_S_yt-ak01CHYgEOs_1383.mp4	0.0	156.41970896720886	0.09992003440856934
21	57.87431716918945	fix_pre	0		33.0	19.0	2.5	blank	1.0	156.51962900161743	0.27594590187072754
21	58.14104104042053	response	0	2		19.0	2.5	blank	1.0	156.7863528728485	
21	58.15026307106018	movie	1		301.0	19.0	2.5	blank	1.0	156.79557490348816	2.507344961166382
21	60.65760803222656	fix_post	2		12.0	19.0	2.5	blank	1.0	159.30291986465454	0.09996700286865234
22	60.757575035095215	fix_pre	0		50.0	20.0	2.5	/experiments/knapen_aot/videos/R_S_ILSVRC2015_train_00339001.mp4	0.0	159.4028868675232	0.4167001247406006
22	61.166100025177	response	0	2		20.0	2.5	/experiments/knapen_aot/videos/R_S_ILSVRC2015_train_00339001.mp4	0.0	159.81141185760498	
22	61.174275159835815	movie	1		301.0	20.0	2.5	/experiments/knapen_aot/videos/R_S_ILSVRC2015_train_00339001.mp4	0.0	159.8195869922638	2.5084049701690674
22	63.68268013000488	fix_post	2		12.0	20.0	2.5	/experiments/knapen_aot/videos/R_S_ILSVRC2015_train_00339001.mp4	0.0	162.32799196243286	0.09992790222167969
23	63.78260803222656	fix_pre	0		19.0	21.0	2.5	/experiments/knapen_aot/videos/S_Y011_C001_SDR_2K_AVC.mp4	0.0	162.42791986465454	0.15924811363220215
23	63.93274521827698	response	0	2		21.0	2.5	/experiments/knapen_aot/videos/S_Y011_C001_SDR_2K_AVC.mp4	0.0	162.57805705070496	
23	63.941856145858765	movie	1		170.0	21.0	2.5	/experiments/knapen_aot/videos/S_Y011_C001_SDR_2K_AVC.mp4	0.0	162.58716797828674	2.507469892501831
23	66.4493260383606	fix_post	2		12.0	21.0	2.5	/experiments/knapen_aot/videos/S_Y011_C001_SDR_2K_AVC.mp4	0.0	165.09463787078857	0.09995698928833008
24	66.54928302764893	fix_pre	0		35.0	22.0	2.5	/experiments/knapen_aot/videos/R_S_ILSVRC2015_train_00303008.mp4	0.0	165.1945948600769	0.2916600704193115
24	66.83280110359192	response	0	2		22.0	2.5	/experiments/knapen_aot/videos/R_S_ILSVRC2015_train_00303008.mp4	0.0	165.4781129360199	
24	66.84094309806824	movie	1		301.0	22.0	2.5	/experiments/knapen_aot/videos/R_S_ILSVRC2015_train_00303008.mp4	0.0	165.48625493049622	2.5083351135253906
24	69.34927821159363	fix_post	2		12.0	22.0	2.5	/experiments/knapen_aot/videos/R_S_ILSVRC2015_train_00303008.mp4	0.0	167.9945900440216	0.10003280639648438
25	69.44931101799011	fix_pre	0		45.0	23.0	2.5	/experiments/knapen_aot/videos/R_S_flickr-seattlemcneals-996953_3.mp4	0.0	168.0946228504181	0.37494897842407227
25	69.8085401058197	response	0	2		23.0	2.5	/experiments/knapen_aot/videos/R_S_flickr-seattlemcneals-996953_3.mp4	0.0	168.45385193824768	
25	69.82425999641418	movie	1		301.0	23.0	2.5	/experiments/knapen_aot/videos/R_S_flickr-seattlemcneals-996953_3.mp4	0.0	168.46957182884216	2.508369207382202
25	72.33262920379639	fix_post	2		12.0	23.0	2.5	/experiments/knapen_aot/videos/R_S_flickr-seattlemcneals-996953_3.mp4	0.0	170.97794103622437	0.10000801086425781
26	72.43263721466064	fix_pre	0		21.0	24.0	2.5	/experiments/knapen_aot/videos/R_S_yt-AHbFln6blfE_36.mp4	0.0	171.07794904708862	0.17582297325134277
26	72.59188508987427	response	0	2		24.0	2.5	/experiments/knapen_aot/videos/R_S_yt-AHbFln6blfE_36.mp4	0.0	171.23719692230225	
26	72.60846018791199	movie	1		301.0	24.0	2.5	/experiments/knapen_aot/videos/R_S_yt-AHbFln6blfE_36.mp4	0.0	171.25377202033997	2.507619857788086
26	75.11608004570007	fix_post	2		12.0	24.0	2.5	/experiments/knapen_aot/videos/R_S_yt-AHbFln6blfE_36.mp4	0.0	173.76139187812805	0.0998849868774414
27	75.21596503257751	fix_pre	0		35.0	25.0	2.5	/experiments/knapen_aot/videos/S_ILSVRC2015_train_00339001.mp4	0.0	173.8612768650055	0.291640043258667
27	75.49942016601562	response	0	2		25.0	2.5	/experiments/knapen_aot/videos/S_ILSVRC2015_train_00339001.mp4	0.0	174.1447319984436	
27	75.50760507583618	movie	1		301.0	25.0	2.5	/experiments/knapen_aot/videos/S_ILSVRC2015_train_00339001.mp4	0.0	174.15291690826416	2.508328914642334
27	78.01593399047852	fix_post	2		12.0	25.0	2.5	/experiments/knapen_aot/videos/S_ILSVRC2015_train_00339001.mp4	0.0	176.6612458229065	0.10007619857788086
28	78.1160101890564	fix_pre	0		22.0	26.0	2.5	/experiments/knapen_aot/videos/R_S_ILSVRC2015_train_00363000.mp4	0.0	176.76132202148438	0.18324494361877441
28	78.29108500480652	response	0	2		26.0	2.5	/experiments/knapen_aot/videos/R_S_ILSVRC2015_train_00363000.mp4	0.0	176.9363968372345	
28	78.29925513267517	movie	1		301.0	26.0	2.5	/experiments/knapen_aot/videos/R_S_ILSVRC2015_train_00363000.mp4	0.0	176.94456696510315	2.5083680152893066
28	80.80762314796448	fix_post	2		12.0	26.0	2.5	/experiments/knapen_aot/videos/R_S_ILSVRC2015_train_00363000.mp4	0.0	179.45293498039246	0.10000491142272949
29	80.9076280593872	fix_pre	0		24.0	27.0	2.5	blank	1.0	179.55293989181519	0.2007899284362793
29	81.09947419166565	response	0	2		27.0	2.5	blank	1.0	179.74478602409363	
29	81.10841798782349	movie	1		301.0	27.0	2.5	blank	1.0	179.75372982025146	2.5074400901794434
29	83.61585807800293	fix_post	2		12.0	27.0	2.5	blank	1.0	182.2611699104309	0.10000109672546387
30	83.7158591747284	fix_pre	0		50.0	28.0	2.5	/experiments/knapen_aot/videos/R_S_pexels-c-technical-6754008.mp4	0.0	182.36117100715637	0.4166560173034668
30	84.12421011924744	response	0	2		28.0	2.5	/experiments/knapen_aot/videos/R_S_pexels-c-technical-6754008.mp4	0.0	182.76952195167542	
30	84.13251519203186	movie	1		190.0	28.0	2.5	/experiments/knapen_aot/videos/R_S_pexels-c-technical-6754008.mp4	0.0	182.77782702445984	2.5083649158477783
30	86.64088010787964	fix_post	2		12.0	28.0	2.5	/experiments/knapen_aot/videos/R_S_pexels-c-technical-6754008.mp4	0.0	185.28619194030762	0.09998798370361328
31	86.74086809158325	fix_pre	0		20.0	29.0	2.5	/experiments/knapen_aot/videos/R_S_yt-PyO8-WsbaLU_43.mp4	0.0	185.38617992401123	0.166611909866333
31	86.8993570804596	response	0	2		29.0	2.5	/experiments/knapen_aot/videos/R_S_yt-PyO8-WsbaLU_43.mp4	0.0	185.54466891288757	
31	86.90748000144958	movie	1		301.0	29.0	2.5	/experiments/knapen_aot/videos/R_S_yt-PyO8-WsbaLU_43.mp4	0.0	185.55279183387756	2.508364200592041
31	89.41584420204163	fix_post	2		12.0	29.0	2.5	/experiments/knapen_aot/videos/R_S_yt-PyO8-WsbaLU_43.mp4	0.0	188.0611560344696	0.10002493858337402
32	89.515869140625	fix_pre	0		43.0	30.0	2.5	/experiments/knapen_aot/videos/R_S_yt-fIEGqReekCM_10.mp4	0.0	188.16118097305298	0.358273983001709
32	89.86599111557007	response	0	2		30.0	2.5	/experiments/knapen_aot/videos/R_S_yt-fIEGqReekCM_10.mp4	0.0	188.51130294799805	
32	89.87414312362671	movie	1		300.0	30.0	2.5	/experiments/knapen_aot/videos/R_S_yt-fIEGqReekCM_10.mp4	0.0	188.5194549560547	2.508352041244507
32	92.38249516487122	fix_post	2		12.0	30.0	2.5	/experiments/knapen_aot/videos/R_S_yt-fIEGqReekCM_10.mp4	0.0	191.0278069972992	0.1000218391418457
33	92.48251700401306	fix_pre	0		22.0	31.0	2.5	/experiments/knapen_aot/videos/S_pexels-cottonbro-6789228.mp4	0.0	191.12782883644104	0.183305025100708
33	92.65761017799377	response	0	2		31.0	2.5	/experiments/knapen_aot/videos/S_pexels-cottonbro-6789228.mp4	0.0	191.30292201042175	
33	92.66582202911377	movie	1		212.0	31.0	2.5	/experiments/knapen_aot/videos/S_pexels-cottonbro-6789228.mp4	0.0	191.31113386154175	2.50828218460083
33	95.1741042137146	fix_post	2		12.0	31.0	2.5	/experiments/knapen_aot/videos/S_pexels-cottonbro-6789228.mp4	0.0	193.81941604614258	0.09999990463256836
34	95.27410411834717	fix_pre	0		47.0	32.0	2.5	/experiments/knapen_aot/videos/S_yt-MTo50ReVNmU_2.mp4	0.0	193.91941595077515	0.39170289039611816
34	95.657644033432	response	0	2		32.0	2.5	/experiments/knapen_aot/videos/S_yt-MTo50ReVNmU_2.mp4	0.0	194.30295586585999	
34	95.66580700874329	movie	1		301.0	32.0	2.5	/experiments/knapen_aot/videos/S_yt-MTo50ReVNmU_2.mp4	0.0	194.31111884117126	2.5083580017089844
34	98.17416501045227	fix_post	2		12.0	32.0	2.5	/experiments/knapen_aot/videos/S_yt-MTo50ReVNmU_2.mp4	0.0	196.81947684288025	0.10002303123474121
35	98.27418804168701	fix_pre	0		23.0	33.0	2.5	blank	1.0	196.919499874115	0.19163107872009277
35	98.45760321617126	response	0	2		33.0	2.5	blank	1.0	197.10291504859924	
35	98.4658191204071	movie	1		301.0	33.0	2.5	blank	1.0	197.11113095283508	2.508336067199707
35	100.97415518760681	fix_post	2		12.0	33.0	2.5	blank	1.0	199.6194670200348	0.10000085830688477
36	101.0741560459137	fix_pre	0		43.0	34.0	2.5	/experiments/knapen_aot/videos/S_meta-11482036_235.mp4	0.0	199.71946787834167	0.35831594467163086
36	101.42423415184021	response	0	2		34.0	2.5	/experiments/knapen_aot/videos/S_meta-11482036_235.mp4	0.0	200.0695459842682	
36	101.43247199058533	movie	1		301.0	34.0	2.5	/experiments/knapen_aot/videos/S_meta-11482036_235.mp4	0.0	200.0777838230133	2.5083000659942627
36	103.94077205657959	fix_post	2		12.0	34.0	2.5	/experiments/knapen_aot/videos/S_meta-11482036_235.mp4	0.0	202.58608388900757	0.09999608993530273
37	104.04076814651489	fix_pre	0		34.0	35.0	2.5	/experiments/knapen_aot/videos/S_yt-fQGoTMausn8_88.mp4	0.0	202.68607997894287	0.28334903717041016
37	104.30844616889954	response	0	2		35.0	2.5	/experiments/knapen_aot/videos/S_yt-fQGoTMausn8_88.mp4	0.0	202.95375800132751	
37	104.3241171836853	movie	1		301.0	35.0	2.5	/experiments/knapen_aot/videos/S_yt-fQGoTMausn8_88.mp4	0.0	202.96942901611328	2.5083208084106445
37	106.83243799209595	fix_post	2		12.0	35.0	2.5	/experiments/knapen_aot/videos/S_yt-fQGoTMausn8_88.mp4	0.0	205.47774982452393	0.10003805160522461
38	106.93247604370117	fix_pre	0		21.0	36.0	2.5	/experiments/knapen_aot/videos/R_S_yt-b0IfGcoHfD0_83.mp4	0.0	205.57778787612915	0.17564010620117188
38	107.0992681980133	response	0	2		36.0	2.5	/experiments/knapen_aot/videos/R_S_yt-b0IfGcoHfD0_83.mp4	0.0	205.74458003044128	
38	107.10811614990234	movie	1		301.0	36.0	2.5	/experiments/knapen_aot/videos/R_S_yt-b0IfGcoHfD0_83.mp4	0.0	205.75342798233032	2.5077710151672363
38	109.61588716506958	fix_post	2		12.0	36.0	2.5	/experiments/knapen_aot/videos/R_S_yt-b0IfGcoHfD0_83.mp4	0.0	208.26119899749756	0.09989595413208008
39	109.71578311920166	fix_pre	0		47.0	37.0	2.5	/experiments/knapen_aot/videos/R_S_bing-www_yahoo_com_entertainment_anastasia-karanikolaou-chantel-jeffries-discuss-182400502_html_9.mp4	0.0	208.36109495162964	0.39229607582092285
39	110.09919500350952	response	0	2		37.0	2.5	/experiments/knapen_aot/videos/R_S_bing-www_yahoo_com_entertainment_anastasia-karanikolaou-chantel-jeffries-discuss-182400502_html_9.mp4	0.0	208.7445068359375	
39	110.10807919502258	movie	1		161.0	37.0	2.5	/experiments/knapen_aot/videos/R_S_bing-www_yahoo_com_entertainment_anastasia-karanikolaou-chantel-jeffries-discuss-182400502_html_9.mp4	0.0	208.75339102745056	2.5076849460601807
39	112.61576414108276	fix_post	2		12.0	37.0	2.5	/experiments/knapen_aot/videos/R_S_bing-www_yahoo_com_entertainment_anastasia-karanikolaou-chantel-jeffries-discuss-182400502_html_9.mp4	0.0	211.26107597351074	0.10002803802490234
40	112.71579217910767	fix_pre	0		23.0	38.0	2.5	/experiments/knapen_aot/videos/S_yt-g_CLzrCYHoc_7.mp4	0.0	211.36110401153564	0.19164299964904785
40	112.89915418624878	response	0	2		38.0	2.5	/experiments/knapen_aot/videos/S_yt-g_CLzrCYHoc_7.mp4	0.0	211.54446601867676	
40	112.90743517875671	movie	1		301.0	38.0	2.5	/experiments/knapen_aot/videos/S_yt-g_CLzrCYHoc_7.mp4	0.0	211.5527470111847	2.5082509517669678
40	115.41568613052368	fix_post	2		12.0	38.0	2.5	/experiments/knapen_aot/videos/S_yt-g_CLzrCYHoc_7.mp4	0.0	214.06099796295166	0.10004901885986328
41	115.51573514938354	fix_pre	0		56.0	39.0	2.5	/experiments/knapen_aot/videos/R_S_yt-4i1b6NQ9NKs_5.mp4	0.0	214.16104698181152	0.467242956161499
41	115.97416615486145	response	0	2		39.0	2.5	/experiments/knapen_aot/videos/R_S_yt-4i1b6NQ9NKs_5.mp4	0.0	214.61947798728943	
41	115.98297810554504	movie	1		301.0	39.0	2.5	/experiments/knapen_aot/videos/R_S_yt-4i1b6NQ9NKs_5.mp4	0.0	214.62828993797302	2.507690906524658
41	118.4906690120697	fix_post	2		12.0	39.0	2.5	/experiments/knapen_aot/videos/R_S_yt-4i1b6NQ9NKs_5.mp4	0.0	217.13598084449768	0.10010099411010742
42	118.59077000617981	fix_pre	0		43.0	40.0	2.5	blank	1.0	217.2360818386078	0.35823702812194824
42	118.94085311889648	response	0	2		40.0	2.5	blank	1.0	217.58616495132446	
42	118.94900703430176	movie	1		301.0	40.0	2.5	blank	1.0	217.59431886672974	2.5084171295166016
42	121.45742416381836	fix_post	2		12.0	40.0	2.5	blank	1.0	220.10273599624634	0.09999489784240723
43	121.55741906166077	fix_pre	0		38.0	41.0	2.5	/experiments/knapen_aot/videos/S_ILSVRC2015_train_00165013.mp4	0.0	220.20273089408875	0.31658411026000977
43	121.86581206321716	response	0	2		41.0	2.5	/experiments/knapen_aot/videos/S_ILSVRC2015_train_00165013.mp4	0.0	220.51112389564514	
43	121.87400317192078	movie	1		300.0	41.0	2.5	/experiments/knapen_aot/videos/S_ILSVRC2015_train_00165013.mp4	0.0	220.51931500434875	2.508384943008423
43	124.3823881149292	fix_post	2		12.0	41.0	2.5	/experiments/knapen_aot/videos/S_ILSVRC2015_train_00165013.mp4	0.0	223.02769994735718	0.0999290943145752
44	124.48231720924377	fix_pre	0		40.0	42.0	2.5	/experiments/knapen_aot/videos/R_S_yt-2jVJb1PR2XA_16.mp4	0.0	223.12762904167175	0.33394479751586914
44	124.80753421783447	response	0	2		42.0	2.5	/experiments/knapen_aot/videos/R_S_yt-2jVJb1PR2XA_16.mp4	0.0	223.45284605026245	
44	124.81626200675964	movie	1		301.0	42.0	2.5	/experiments/knapen_aot/videos/R_S_yt-2jVJb1PR2XA_16.mp4	0.0	223.46157383918762	2.5077710151672363
44	127.32403302192688	fix_post	2		12.0	42.0	2.5	/experiments/knapen_aot/videos/R_S_yt-2jVJb1PR2XA_16.mp4	0.0	225.96934485435486	0.0999910831451416
45	127.42402410507202	fix_pre	0		35.0	43.0	2.5	/experiments/knapen_aot/videos/R_S_flickr-southeasternstar-3464778323_10.mp4	0.0	226.0693359375	0.2916719913482666
45	127.70754218101501	response	0	2		43.0	2.5	/experiments/knapen_aot/videos/R_S_flickr-southeasternstar-3464778323_10.mp4	0.0	226.352854013443	
45	127.71569609642029	movie	1		299.0	43.0	2.5	/experiments/knapen_aot/videos/R_S_flickr-southeasternstar-3464778323_10.mp4	0.0	226.36100792884827	2.5083470344543457
45	130.22404313087463	fix_post	2		12.0	43.0	2.5	/experiments/knapen_aot/videos/R_S_flickr-southeasternstar-3464778323_10.mp4	0.0	228.8693549633026	0.09999895095825195
46	130.32404208183289	fix_pre	0		34.0	44.0	2.5	/experiments/knapen_aot/videos/R_S_ILnEDG_aP1A_35.mp4	0.0	228.96935391426086	0.2838571071624756
46	130.59914112091064	response	0	2		44.0	2.5	/experiments/knapen_aot/videos/R_S_ILnEDG_aP1A_35.mp4	0.0	229.24445295333862	
46	130.60789918899536	movie	1		301.0	44.0	2.5	/experiments/knapen_aot/videos/R_S_ILnEDG_aP1A_35.mp4	0.0	229.25321102142334	2.5078048706054688
46	133.11570405960083	fix_post	2		12.0	44.0	2.5	/experiments/knapen_aot/videos/R_S_ILnEDG_aP1A_35.mp4	0.0	231.7610158920288	0.10005593299865723
47	133.2157599925995	fix_pre	0		35.0	45.0	2.5	/experiments/knapen_aot/videos/R_S_yt-0buqUbXVTn8_48.mp4	0.0	231.86107182502747	0.2915980815887451
47	133.49914002418518	response	0	2		45.0	2.5	/experiments/knapen_aot/videos/R_S_yt-0buqUbXVTn8_48.mp4	0.0	232.14445185661316	
47	133.50735807418823	movie	1		301.0	45.0	2.5	/experiments/knapen_aot/videos/R_S_yt-0buqUbXVTn8_48.mp4	0.0	232.1526699066162	2.5083041191101074
47	136.01566219329834	fix_post	2		12.0	45.0	2.5	/experiments/knapen_aot/videos/R_S_yt-0buqUbXVTn8_48.mp4	0.0	234.66097402572632	0.09998202323913574
48	136.11564421653748	fix_pre	0		25.0	46.0	2.5	/experiments/knapen_aot/videos/R_S_yt-ZtS7ZrJ_rtk_525.mp4	0.0	234.76095604896545	0.20835494995117188
48	136.31569719314575	response	0	2		46.0	2.5	/experiments/knapen_aot/videos/R_S_yt-ZtS7ZrJ_rtk_525.mp4	0.0	234.96100902557373	
48	136.32399916648865	movie	1		301.0	46.0	2.5	/experiments/knapen_aot/videos/R_S_yt-ZtS7ZrJ_rtk_525.mp4	0.0	234.96931099891663	2.508347988128662
48	138.8323471546173	fix_post	2		12.0	46.0	2.5	/experiments/knapen_aot/videos/R_S_yt-ZtS7ZrJ_rtk_525.mp4	0.0	237.4776589870453	0.1000070571899414
49	138.93235421180725	fix_pre	0		19.0	47.0	2.5	/experiments/knapen_aot/videos/R_S_meta-11482036_235.mp4	0.0	237.57766604423523	0.1582629680633545
49	139.0824680328369	response	0	2		47.0	2.5	/experiments/knapen_aot/videos/R_S_meta-11482036_235.mp4	0.0	237.7277798652649	
49	139.0906171798706	movie	1		301.0	47.0	2.5	/experiments/knapen_aot/videos/R_S_meta-11482036_235.mp4	0.0	237.73592901229858	2.5083439350128174
49	141.59896111488342	fix_post	2		12.0	47.0	2.5	/experiments/knapen_aot/videos/R_S_meta-11482036_235.mp4	0.0	240.2442729473114	0.09995293617248535
50	141.6989140510559	fix_pre	0		42.0	48.0	2.5	/experiments/knapen_aot/videos/S_yt-MSdNCUWOp4o_4.mp4	0.0	240.3442258834839	0.3500070571899414
50	142.04079008102417	response	0	2		48.0	2.5	/experiments/knapen_aot/videos/S_yt-MSdNCUWOp4o_4.mp4	0.0	240.68610191345215	
50	142.04892110824585	movie	1		301.0	48.0	2.5	/experiments/knapen_aot/videos/S_yt-MSdNCUWOp4o_4.mp4	0.0	240.69423294067383	2.508373975753784
50	144.55729508399963	fix_post	2		12.0	48.0	2.5	/experiments/knapen_aot/videos/S_yt-MSdNCUWOp4o_4.mp4	0.0	243.2026069164276	0.10005903244018555
51	144.65735411643982	fix_pre	0		40.0	49.0	2.5	blank	1.0	243.3026659488678	0.3332998752593994
51	144.98247408866882	response	0	2		49.0	2.5	blank	1.0	243.6277859210968	
51	144.99065399169922	movie	1		301.0	49.0	2.5	blank	1.0	243.6359658241272	2.5083491802215576
51	147.49900317192078	fix_post	2		12.0	49.0	2.5	blank	1.0	246.14431500434875	0.10002493858337402
52	147.59902811050415	fix_pre	0		43.0	50.0	2.5	/experiments/knapen_aot/videos/S_yt-6MwA-jx56AQ_612.mp4	0.0	246.24433994293213	0.35828208923339844
52	147.94907903671265	response	0	2		50.0	2.5	/experiments/knapen_aot/videos/S_yt-6MwA-jx56AQ_612.mp4	0.0	246.59439086914062	
52	147.95731019973755	movie	1		301.0	50.0	2.5	/experiments/knapen_aot/videos/S_yt-6MwA-jx56AQ_612.mp4	0.0	246.60262203216553	2.5083558559417725
52	150.46566605567932	fix_post	2		12.0	50.0	2.5	/experiments/knapen_aot/videos/S_yt-6MwA-jx56AQ_612.mp4	0.0	249.1109778881073	0.09993696212768555
53	150.565603017807	fix_pre	0		53.0	51.0	2.5	/experiments/knapen_aot/videos/R_S_flickr-lamujuri-10653517683_4.mp4	0.0	249.21091485023499	0.44168615341186523
53	150.99153399467468	response	0	2		51.0	2.5	/experiments/knapen_aot/videos/R_S_flickr-lamujuri-10653517683_4.mp4	0.0	249.63684582710266	
53	151.00728917121887	movie	1		176.0	51.0	2.5	/experiments/knapen_aot/videos/R_S_flickr-lamujuri-10653517683_4.mp4	0.0	249.65260100364685	2.508283853530884
53	153.51557302474976	fix_post	2		12.0	51.0	2.5	/experiments/knapen_aot/videos/R_S_flickr-lamujuri-10653517683_4.mp4	0.0	252.16088485717773	0.10004615783691406
54	153.61561918258667	fix_pre	0		27.0	52.0	2.5	/experiments/knapen_aot/videos/S_video_inspire_alabama_montgomery_countryside_00007.1080-h264.mp4	0.0	252.26093101501465	0.2250049114227295
54	153.82489919662476	response	0	2		52.0	2.5	/experiments/knapen_aot/videos/S_video_inspire_alabama_montgomery_countryside_00007.1080-h264.mp4	0.0	252.47021102905273	
54	153.8406240940094	movie	1		167.0	52.0	2.5	/experiments/knapen_aot/videos/S_video_inspire_alabama_montgomery_countryside_00007.1080-h264.mp4	0.0	252.48593592643738	2.5083260536193848
54	156.34895014762878	fix_post	2		12.0	52.0	2.5	/experiments/knapen_aot/videos/S_video_inspire_alabama_montgomery_countryside_00007.1080-h264.mp4	0.0	254.99426198005676	0.10001897811889648
55	156.44896912574768	fix_pre	0		55.0	53.0	2.5	/experiments/knapen_aot/videos/R_S_PA_A002_C009_SDR_20190730_ALT01_SDR_2K_AVC.mp4	0.0	255.09428095817566	0.4582998752593994
55	156.89924001693726	response	0	2		53.0	2.5	/experiments/knapen_aot/videos/R_S_PA_A002_C009_SDR_20190730_ALT01_SDR_2K_AVC.mp4	0.0	255.54455184936523	
55	156.90726900100708	movie	1		166.0	53.0	2.5	/experiments/knapen_aot/videos/R_S_PA_A002_C009_SDR_20190730_ALT01_SDR_2K_AVC.mp4	0.0	255.55258083343506	2.508376121520996
55	159.41564512252808	fix_post	2		12.0	53.0	2.5	/experiments/knapen_aot/videos/R_S_PA_A002_C009_SDR_20190730_ALT01_SDR_2K_AVC.mp4	0.0	258.06095695495605	0.09993290901184082
56	159.51557803153992	fix_pre	0		32.0	54.0	2.5	/experiments/knapen_aot/videos/S_yt-6MwA-jx56AQ_612.mp4	0.0	258.1608898639679	0.2666890621185303
56	159.77404308319092	response	0	2		54.0	2.5	/experiments/knapen_aot/videos/S_yt-6MwA-jx56AQ_612.mp4	0.0	258.4193549156189	
56	159.78226709365845	movie	1		301.0	54.0	2.5	/experiments/knapen_aot/videos/S_yt-6MwA-jx56AQ_612.mp4	0.0	258.4275789260864	2.5083301067352295
56	162.29059720039368	fix_post	2		12.0	54.0	2.5	/experiments/knapen_aot/videos/S_yt-6MwA-jx56AQ_612.mp4	0.0	260.93590903282166	0.1017608642578125
57	162.3923580646515	fix_pre	0		20.0	55.0	2.5	blank	1.0	261.03766989707947	0.16494512557983398
57	162.54908800125122	response	0	2		55.0	2.5	blank	1.0	261.1943998336792	
57	162.55730319023132	movie	1		301.0	55.0	2.5	blank	1.0	261.2026150226593	2.508133888244629
57	165.06543707847595	fix_post	2		12.0	55.0	2.5	blank	1.0	263.71074891090393	0.1000521183013916
58	165.16548919677734	fix_pre	0		51.0	56.0	2.5	/experiments/knapen_aot/videos/S_yt-AuQ_WxaNy4Y_255.mp4	0.0	263.8108010292053	0.42510080337524414
58	165.58239817619324	response	0	2		56.0	2.5	/experiments/knapen_aot/videos/S_yt-AuQ_WxaNy4Y_255.mp4	0.0	264.2277100086212	
58	165.5905900001526	movie	1		301.0	56.0	2.5	/experiments/knapen_aot/videos/S_yt-AuQ_WxaNy4Y_255.mp4	0.0	264.23590183258057	2.508308172225952
58	168.09889817237854	fix_post	2		12.0	56.0	2.5	/experiments/knapen_aot/videos/S_yt-AuQ_WxaNy4Y_255.mp4	0.0	266.7442100048065	0.09996581077575684
59	168.1988639831543	fix_pre	0		65.0	57.0	2.5	/experiments/knapen_aot/videos/S_flickr-lamujuri-10653517683_4.mp4	0.0	266.8441758155823	0.5417370796203613
59	168.73239612579346	response	0	2		57.0	2.5	/experiments/knapen_aot/videos/S_flickr-lamujuri-10653517683_4.mp4	0.0	267.37770795822144	
59	168.74060106277466	movie	1		168.0	57.0	2.5	/experiments/knapen_aot/videos/S_flickr-lamujuri-10653517683_4.mp4	0.0	267.38591289520264	2.508305072784424
59	171.24890613555908	fix_post	2		12.0	57.0	2.5	/experiments/knapen_aot/videos/S_flickr-lamujuri-10653517683_4.mp4	0.0	269.89421796798706	0.10000801086425781
60	171.34891414642334	fix_pre	0		51.0	58.0	2.5	/experiments/knapen_aot/videos/S_ILSVRC2015_train_00379000.mp4	0.0	269.9942259788513	0.4252629280090332
60	171.7657310962677	response	0	2		58.0	2.5	/experiments/knapen_aot/videos/S_ILSVRC2015_train_00379000.mp4	0.0	270.4110429286957	
60	171.77417707443237	movie	1		301.0	58.0	2.5	/experiments/knapen_aot/videos/S_ILSVRC2015_train_00379000.mp4	0.0	270.41948890686035	2.507905960083008
60	174.28208303451538	fix_post	2		12.0	58.0	2.5	/experiments/knapen_aot/videos/S_ILSVRC2015_train_00379000.mp4	0.0	272.92739486694336	0.10015201568603516
61	174.38223505020142	fix_pre	0		51.0	59.0	2.5	/experiments/knapen_aot/videos/R_S_yt-yXJr3FR2xrM_27.mp4	0.0	273.0275468826294	0.42496609687805176
61	174.79901909828186	response	0	2		59.0	2.5	/experiments/knapen_aot/videos/R_S_yt-yXJr3FR2xrM_27.mp4	0.0	273.44433093070984	
61	174.80720114707947	movie	1		300.0	59.0	2.5	/experiments/knapen_aot/videos/R_S_yt-yXJr3FR2xrM_27.mp4	0.0	273.45251297950745	2.5083229541778564
61	177.31552410125732	fix_post	2		12.0	59.0	2.5	/experiments/knapen_aot/videos/R_S_yt-yXJr3FR2xrM_27.mp4	0.0	275.9608359336853	0.0999441146850586
62	177.41546821594238	fix_pre	0		72.0	60.0	2.5	/experiments/knapen_aot/videos/S_pexels-ekaterina-bolovtsova-7669220.mp4	0.0	276.06078004837036	0.5999839305877686
62	178.00732707977295	response	0	2		60.0	2.5	/experiments/knapen_aot/videos/S_pexels-ekaterina-bolovtsova-7669220.mp4	0.0	276.6526389122009	
62	178.01545214653015	movie	1		163.0	60.0	2.5	/experiments/knapen_aot/videos/S_pexels-ekaterina-bolovtsova-7669220.mp4	0.0	276.66076397895813	2.5083539485931396
62	180.5238060951233	fix_post	2		12.0	60.0	2.5	/experiments/knapen_aot/videos/S_pexels-ekaterina-bolovtsova-7669220.mp4	0.0	279.16911792755127	0.10007905960083008
63	180.62388515472412	fix_pre	0		33.0	61.0	2.5	blank	1.0	279.2691969871521	0.2752408981323242
63	180.89063215255737	response	0	2		61.0	2.5	blank	1.0	279.53594398498535	
63	180.89912605285645	movie	1		301.0	61.0	2.5	blank	1.0	279.5444378852844	2.5080010890960693
63	183.40712714195251	fix_post	2		12.0	61.0	2.5	blank	1.0	282.0524389743805	0.10004687309265137
64	183.50717401504517	fix_pre	0		32.0	62.0	2.5	/experiments/knapen_aot/videos/S_yt-PK-Eip9wFr0_24.mp4	0.0	282.15248584747314	0.2668781280517578
64	183.76559901237488	response	0	2		62.0	2.5	/experiments/knapen_aot/videos/S_yt-PK-Eip9wFr0_24.mp4	0.0	282.41091084480286	
64	183.77405214309692	movie	1		301.0	62.0	2.5	/experiments/knapen_aot/videos/S_yt-PK-Eip9wFr0_24.mp4	0.0	282.4193639755249	2.5080530643463135
64	186.28210520744324	fix_post	2		12.0	62.0	2.5	/experiments/knapen_aot/videos/S_yt-PK-Eip9wFr0_24.mp4	0.0	284.9274170398712	0.10004281997680664
65	186.38214802742004	fix_pre	0		34.0	63.0	2.5	/experiments/knapen_aot/videos/R_S_yt-fLNDhX22diw_98.mp4	0.0	285.027459859848	0.2833101749420166
65	186.65721917152405	response	0	2		63.0	2.5	/experiments/knapen_aot/videos/R_S_yt-fLNDhX22diw_98.mp4	0.0	285.302531003952	
65	186.66545820236206	movie	1		301.0	63.0	2.5	/experiments/knapen_aot/videos/R_S_yt-fLNDhX22diw_98.mp4	0.0	285.31077003479004	2.508380889892578
65	189.17383909225464	fix_post	2		12.0	63.0	2.5	/experiments/knapen_aot/videos/R_S_yt-fLNDhX22diw_98.mp4	0.0	287.8191509246826	0.1001899242401123
66	189.27402901649475	fix_pre	0		31.0	64.0	2.5	/experiments/knapen_aot/videos/R_S_yt-H3EadcgKySM_58.mp4	0.0	287.91934084892273	0.2579951286315918
66	189.52403116226196	response	0	2		64.0	2.5	/experiments/knapen_aot/videos/R_S_yt-H3EadcgKySM_58.mp4	0.0	288.16934299468994	
66	189.53202414512634	movie	1		301.0	64.0	2.5	/experiments/knapen_aot/videos/R_S_yt-H3EadcgKySM_58.mp4	0.0	288.1773359775543	2.5084099769592285
66	192.04043412208557	fix_post	2		12.0	64.0	2.5	/experiments/knapen_aot/videos/R_S_yt-H3EadcgKySM_58.mp4	0.0	290.68574595451355	0.10000109672546387
67	192.14043521881104	fix_pre	0		34.0	65.0	2.5	/experiments/knapen_aot/videos/R_S_yt-AbJBxqEYoMg_27.mp4	0.0	290.785747051239	0.2833998203277588
67	192.41559410095215	response	0	2		65.0	2.5	/experiments/knapen_aot/videos/R_S_yt-AbJBxqEYoMg_27.mp4	0.0	291.0609059333801	
67	192.4238350391388	movie	1		301.0	65.0	2.5	/experiments/knapen_aot/videos/R_S_yt-AbJBxqEYoMg_27.mp4	0.0	291.0691468715668	2.50832200050354
67	194.93215703964233	fix_post	2		12.0	65.0	2.5	/experiments/knapen_aot/videos/R_S_yt-AbJBxqEYoMg_27.mp4	0.0	293.5774688720703	0.09987616539001465
68	195.03203320503235	fix_pre	0		24.0	66.0	2.5	/experiments/knapen_aot/videos/R_S_yt-9T99N7Cvi_o_112.mp4	0.0	293.6773450374603	0.20026278495788574
68	195.22386121749878	response	0	2		66.0	2.5	/experiments/knapen_aot/videos/R_S_yt-9T99N7Cvi_o_112.mp4	0.0	293.86917304992676	
68	195.23229598999023	movie	1		301.0	66.0	2.5	/experiments/knapen_aot/videos/R_S_yt-9T99N7Cvi_o_112.mp4	0.0	293.8776078224182	2.5080771446228027
68	197.74037313461304	fix_post	2		12.0	66.0	2.5	/experiments/knapen_aot/videos/R_S_yt-9T99N7Cvi_o_112.mp4	0.0	296.385684967041	0.10005497932434082
69	197.84042811393738	fix_pre	0		18.0	67.0	2.5	/experiments/knapen_aot/videos/R_S_yt-GOgS--rzmKQ_51.mp4	0.0	296.48573994636536	0.14993786811828613
69	197.982253074646	response	0	2		67.0	2.5	/experiments/knapen_aot/videos/R_S_yt-GOgS--rzmKQ_51.mp4	0.0	296.627564907074	
69	197.99036598205566	movie	1		301.0	67.0	2.5	/experiments/knapen_aot/videos/R_S_yt-GOgS--rzmKQ_51.mp4	0.0	296.63567781448364	2.5083231925964355
69	200.4986891746521	fix_post	2		12.0	67.0	2.5	/experiments/knapen_aot/videos/R_S_yt-GOgS--rzmKQ_51.mp4	0.0	299.1440010070801	0.09999895095825195
70	200.59868812561035	fix_pre	0		8.0	68.0	2.5	/experiments/knapen_aot/videos/S_yt-J1dw4AznwmQ_7.mp4	0.0	299.24399995803833	0.0667119026184082
70	200.65719509124756	response	0	2		68.0	2.5	/experiments/knapen_aot/videos/S_yt-J1dw4AznwmQ_7.mp4	0.0	299.30250692367554	
70	200.66540002822876	movie	1		301.0	68.0	2.5	/experiments/knapen_aot/videos/S_yt-J1dw4AznwmQ_7.mp4	0.0	299.31071186065674	2.50832200050354
70	203.1737220287323	fix_post	2		12.0	68.0	2.5	/experiments/knapen_aot/videos/S_yt-J1dw4AznwmQ_7.mp4	0.0	301.8190338611603	0.10018301010131836
71	203.27390503883362	fix_pre	0		21.0	69.0	2.5	blank	1.0	301.9192168712616	0.17479610443115234
71	203.44052410125732	response	0	2		69.0	2.5	blank	1.0	302.0858359336853	
71	203.44870114326477	movie	1		301.0	69.0	2.5	blank	1.0	302.09401297569275	2.5084450244903564
71	205.95714616775513	fix_post	2		12.0	69.0	2.5	blank	1.0	304.6024580001831	0.0998690128326416
72	206.05701518058777	fix_pre	0		26.0	70.0	2.5	/experiments/knapen_aot/videos/S_Pexels_Videos_2795171.mp4	0.0	304.70232701301575	0.2167799472808838
72	206.26547503471375	response	0	2		70.0	2.5	/experiments/knapen_aot/videos/S_Pexels_Videos_2795171.mp4	0.0	304.9107868671417	
72	206.27379512786865	movie	1		162.0	70.0	2.5	/experiments/knapen_aot/videos/S_Pexels_Videos_2795171.mp4	0.0	304.91910696029663	2.508265972137451
72	208.7820611000061	fix_post	2		12.0	70.0	2.5	/experiments/knapen_aot/videos/S_Pexels_Videos_2795171.mp4	0.0	307.4273729324341	0.09995198249816895
73	208.88201308250427	fix_pre	0		23.0	71.0	2.5	/experiments/knapen_aot/videos/S_yt-JH6qCYAnX-I_70.mp4	0.0	307.52732491493225	0.1917409896850586
73	209.06547617912292	response	0	2		71.0	2.5	/experiments/knapen_aot/videos/S_yt-JH6qCYAnX-I_70.mp4	0.0	307.7107880115509	
73	209.07375407218933	movie	1		301.0	71.0	2.5	/experiments/knapen_aot/videos/S_yt-JH6qCYAnX-I_70.mp4	0.0	307.7190659046173	2.5083680152893066
73	211.58212208747864	fix_post	2		12.0	71.0	2.5	/experiments/knapen_aot/videos/S_yt-JH6qCYAnX-I_70.mp4	0.0	310.2274339199066	0.09991598129272461
74	211.68203806877136	fix_pre	0		31.0	72.0	2.5	/experiments/knapen_aot/videos/S_yt-jzDaQD-g168_103.mp4	0.0	310.32734990119934	0.2584109306335449
74	211.9321780204773	response	0	2		72.0	2.5	/experiments/knapen_aot/videos/S_yt-jzDaQD-g168_103.mp4	0.0	310.5774898529053	
74	211.9404489994049	movie	1		301.0	72.0	2.5	/experiments/knapen_aot/videos/S_yt-jzDaQD-g168_103.mp4	0.0	310.5857608318329	2.508169174194336
74	214.44861817359924	fix_post	2		12.0	72.0	2.5	/experiments/knapen_aot/videos/S_yt-jzDaQD-g168_103.mp4	0.0	313.0939300060272	0.10009098052978516
75	214.54870915412903	fix_pre	0		46.0	73.0	2.5	/experiments/knapen_aot/videos/S_yt-g_CLzrCYHoc_7.mp4	0.0	313.194020986557	0.38329386711120605
75	214.91633200645447	response	0	2		73.0	2.5	/experiments/knapen_aot/videos/S_yt-g_CLzrCYHoc_7.mp4	0.0	313.56164383888245	
75	214.93200302124023	movie	1		301.0	73.0	2.5	/experiments/knapen_aot/videos/S_yt-g_CLzrCYHoc_7.mp4	0.0	313.5773148536682	2.5084211826324463
75	217.44042420387268	fix_post	2		12.0	73.0	2.5	/experiments/knapen_aot/videos/S_yt-g_CLzrCYHoc_7.mp4	0.0	316.08573603630066	0.09985184669494629
76	217.54027605056763	fix_pre	0		26.0	74.0	2.5	/experiments/knapen_aot/videos/S_yt-wLylWnZs3z0_27.mp4	0.0	316.1855878829956	0.2167670726776123
76	217.74884915351868	response	0	2		74.0	2.5	/experiments/knapen_aot/videos/S_yt-wLylWnZs3z0_27.mp4	0.0	316.39416098594666	
76	217.75704312324524	movie	1		300.0	74.0	2.5	/experiments/knapen_aot/videos/S_yt-wLylWnZs3z0_27.mp4	0.0	316.4023549556732	2.5082969665527344
76	220.26534008979797	fix_post	2		12.0	74.0	2.5	/experiments/knapen_aot/videos/S_yt-wLylWnZs3z0_27.mp4	0.0	318.91065192222595	0.09999299049377441
77	220.36533308029175	fix_pre	0		28.0	75.0	2.5	/experiments/knapen_aot/videos/R_S_yt-o0Hbe7kcPps_70.mp4	0.0	319.0106449127197	0.23327112197875977
77	220.59044814109802	response	0	2		75.0	2.5	/experiments/knapen_aot/videos/R_S_yt-o0Hbe7kcPps_70.mp4	0.0	319.235759973526	
77	220.5986042022705	movie	1		301.0	75.0	2.5	/experiments/knapen_aot/videos/R_S_yt-o0Hbe7kcPps_70.mp4	0.0	319.2439160346985	2.5084688663482666
77	223.10707306861877	fix_post	2		12.0	75.0	2.5	/experiments/knapen_aot/videos/R_S_yt-o0Hbe7kcPps_70.mp4	0.0	321.75238490104675	0.09995913505554199
78	223.20703220367432	fix_pre	0		23.0	76.0	2.5	/experiments/knapen_aot/videos/S_yt-vjed5qyKqZw_1.mp4	0.0	321.8523440361023	0.1916658878326416
78	223.3904640674591	response	0	2		76.0	2.5	/experiments/knapen_aot/videos/S_yt-vjed5qyKqZw_1.mp4	0.0	322.0357758998871	
78	223.39869809150696	movie	1		301.0	76.0	2.5	/experiments/knapen_aot/videos/S_yt-vjed5qyKqZw_1.mp4	0.0	322.04400992393494	2.5082929134368896
78	225.90699100494385	fix_post	2		12.0	76.0	2.5	/experiments/knapen_aot/videos/S_yt-vjed5qyKqZw_1.mp4	0.0	324.5523028373718	0.09992504119873047
79	226.00691604614258	fix_pre	0		31.0	77.0	2.5	blank	1.0	324.65222787857056	0.25838494300842285
79	226.25716400146484	response	0	2		77.0	2.5	blank	1.0	324.9024758338928	
79	226.265300989151	movie	1		301.0	77.0	2.5	blank	1.0	324.910612821579	2.5083110332489014
79	228.7736120223999	fix_post	2		12.0	77.0	2.5	blank	1.0	327.4189238548279	0.10006308555603027
80	228.87367510795593	fix_pre	0		27.0	78.0	2.5	/experiments/knapen_aot/videos/S_yt-rPYBHkUEwwc_10.mp4	0.0	327.5189869403839	0.22501802444458008
80	229.09040021896362	response	0	2		78.0	2.5	/experiments/knapen_aot/videos/S_yt-rPYBHkUEwwc_10.mp4	0.0	327.7357120513916	
80	229.0986931324005	movie	1		301.0	78.0	2.5	/experiments/knapen_aot/videos/S_yt-rPYBHkUEwwc_10.mp4	0.0	327.7440049648285	2.50826096534729
80	231.6069540977478	fix_post	2		12.0	78.0	2.5	/experiments/knapen_aot/videos/S_yt-rPYBHkUEwwc_10.mp4	0.0	330.2522659301758	0.09988594055175781
81	231.70684003829956	fix_pre	0		25.0	79.0	2.5	/experiments/knapen_aot/videos/R_S_yt-HQQws1Lp_rQ_10.mp4	0.0	330.35215187072754	0.20842695236206055
81	231.90707802772522	response	0	2		79.0	2.5	/experiments/knapen_aot/videos/R_S_yt-HQQws1Lp_rQ_10.mp4	0.0	330.5523898601532	
81	231.91526699066162	movie	1		301.0	79.0	2.5	/experiments/knapen_aot/videos/R_S_yt-HQQws1Lp_rQ_10.mp4	0.0	330.5605788230896	2.508303165435791
81	234.4235701560974	fix_post	2		12.0	79.0	2.5	/experiments/knapen_aot/videos/R_S_yt-HQQws1Lp_rQ_10.mp4	0.0	333.0688819885254	0.10003304481506348
82	234.52360320091248	fix_pre	0		26.0	80.0	2.5	/experiments/knapen_aot/videos/R_S_production_ID_3761571.mp4	0.0	333.16891503334045	0.21676278114318848
82	234.73205399513245	response	0	2		80.0	2.5	/experiments/knapen_aot/videos/R_S_production_ID_3761571.mp4	0.0	333.3773658275604	
82	234.74036598205566	movie	1		164.0	80.0	2.5	/experiments/knapen_aot/videos/R_S_production_ID_3761571.mp4	0.0	333.38567781448364	2.5082571506500244
82	237.2486231327057	fix_post	2		12.0	80.0	2.5	/experiments/knapen_aot/videos/R_S_production_ID_3761571.mp4	0.0	335.89393496513367	0.09998106956481934
83	237.3486042022705	fix_pre	0		37.0	81.0	2.5	/experiments/knapen_aot/videos/R_S_yt-J2PiBa1MXI0_210.mp4	0.0	335.9939160346985	0.3083369731903076
83	237.64875602722168	response	0	2		81.0	2.5	/experiments/knapen_aot/videos/R_S_yt-J2PiBa1MXI0_210.mp4	0.0	336.29406785964966	
83	237.65694117546082	movie	1		301.0	81.0	2.5	/experiments/knapen_aot/videos/R_S_yt-J2PiBa1MXI0_210.mp4	0.0	336.3022530078888	2.508380889892578
83	240.1653220653534	fix_post	2		12.0	81.0	2.5	/experiments/knapen_aot/videos/R_S_yt-J2PiBa1MXI0_210.mp4	0.0	338.8106338977814	0.09996914863586426
84	240.26529121398926	fix_pre	0		30.0	82.0	2.5	/experiments/knapen_aot/videos/R_S_yt-jzDaQD-g168_103.mp4	0.0	338.91060304641724	0.25135183334350586
84	240.5071210861206	response	0	2		82.0	2.5	/experiments/knapen_aot/videos/R_S_yt-jzDaQD-g168_103.mp4	0.0	339.1524329185486	
84	240.51664304733276	movie	1		301.0	82.0	2.5	/experiments/knapen_aot/videos/R_S_yt-jzDaQD-g168_103.mp4	0.0	339.16195487976074	2.506963014602661
84	243.02360606193542	fix_post	2		12.0	82.0	2.5	/experiments/knapen_aot/videos/R_S_yt-jzDaQD-g168_103.mp4	0.0	341.6689178943634	0.1000211238861084
85	243.12362718582153	fix_pre	0		45.0	83.0	2.5	blank	1.0	341.7689390182495	0.37499380111694336
85	243.49043798446655	response	0	2		83.0	2.5	blank	1.0	342.13574981689453	
85	243.49862098693848	movie	1		301.0	83.0	2.5	blank	1.0	342.14393281936646	2.508345127105713
85	246.0069661140442	fix_post	2		12.0	83.0	2.5	blank	1.0	344.65227794647217	0.09992408752441406
87	246.1068902015686	stim	0		119.0					344.7522020339966	0.9930419921875
87	247.095064163208	response	0	space						345.740375995636	
