trial_nr	onset	event_type	phase	response	nr_frames	movie_index	movie_duration	movie_file	blank	onset_abs	duration
0	0.136397123336792	stim	0		34.0					97.11597204208374	0.28933095932006836
0	0.4169120788574219	response	0	space						97.39648699760437	
1	0.42572808265686035	stim	0		121.0					97.40530300140381	1.0073668956756592
1	0.8918700218200684	response	0	space						97.87144494056702	
1	1.2917940616607666	response	0	space						98.27136898040771	
1	1.4330949783325195	stim	1		120.0					98.41266989707947	1.000040054321289
1	1.6999080181121826	response	1	space						98.67948293685913	
1	2.0164871215820312	response	1	space						98.99606204032898	
2	2.4331350326538086	fix_pre	0		4.0	0.0	2.5	/experiments/knapen_aot/oldvideos/S_yt-WTxvvlP8xnw_113.mp4	0.0	99.41270995140076	0.034028053283691406
2	2.4582691192626953	response	0	space		0.0	2.5	/experiments/knapen_aot/oldvideos/S_yt-WTxvvlP8xnw_113.mp4	0.0	99.43784403800964	
2	2.4671630859375	movie	1		301.0	0.0	2.5	/experiments/knapen_aot/oldvideos/S_yt-WTxvvlP8xnw_113.mp4	0.0	99.44673800468445	2.507762908935547
2	4.974925994873047	fix_post	2		12.0	0.0	2.5	/experiments/knapen_aot/oldvideos/S_yt-WTxvvlP8xnw_113.mp4	0.0	101.95450091362	0.09982991218566895
3	5.074755907058716	fix_pre	0		11.0	1.0	2.5	/experiments/knapen_aot/oldvideos/R_S_yt-HwEfWfFJhRo_73.mp4	0.0	102.05433082580566	0.09352517127990723
3	5.155348062515259	response	0	2		1.0	2.5	/experiments/knapen_aot/oldvideos/R_S_yt-HwEfWfFJhRo_73.mp4	0.0	102.1349229812622	
3	5.168281078338623	movie	1		300.0	1.0	2.5	/experiments/knapen_aot/oldvideos/R_S_yt-HwEfWfFJhRo_73.mp4	0.0	102.14785599708557	2.5064890384674072
3	7.67477011680603	fix_post	2		12.0	1.0	2.5	/experiments/knapen_aot/oldvideos/R_S_yt-HwEfWfFJhRo_73.mp4	0.0	104.65434503555298	0.09993386268615723
4	7.7747039794921875	fix_pre	0		7.0	2.0	2.5	/experiments/knapen_aot/oldvideos/S_ILSVRC2015_train_00743005.mp4	0.0	104.75427889823914	0.058326005935668945
4	7.824831008911133	response	0	2		2.0	2.5	/experiments/knapen_aot/oldvideos/S_ILSVRC2015_train_00743005.mp4	0.0	104.80440592765808	
4	7.8330299854278564	movie	1		301.0	2.0	2.5	/experiments/knapen_aot/oldvideos/S_ILSVRC2015_train_00743005.mp4	0.0	104.8126049041748	2.508333921432495
4	10.341363906860352	fix_post	2		12.0	2.0	2.5	/experiments/knapen_aot/oldvideos/S_ILSVRC2015_train_00743005.mp4	0.0	107.3209388256073	0.10001015663146973
5	10.441374063491821	fix_pre	0		1.0	3.0	2.5	/experiments/knapen_aot/oldvideos/R_S_yt-r7PeFd-hIp0_378.mp4	0.0	107.42094898223877	0.011568069458007812
5	10.443236112594604	response	0	2		3.0	2.5	/experiments/knapen_aot/oldvideos/R_S_yt-r7PeFd-hIp0_378.mp4	0.0	107.42281103134155	
5	10.452942132949829	movie	1		301.0	3.0	2.5	/experiments/knapen_aot/oldvideos/R_S_yt-r7PeFd-hIp0_378.mp4	0.0	107.43251705169678	2.5051209926605225
5	12.793335914611816	response	1	2		3.0	2.5	/experiments/knapen_aot/oldvideos/R_S_yt-r7PeFd-hIp0_378.mp4	0.0	109.77291083335876	
5	12.958063125610352	fix_post	2		12.0	3.0	2.5	/experiments/knapen_aot/oldvideos/R_S_yt-r7PeFd-hIp0_378.mp4	0.0	109.9376380443573	0.10012698173522949
6	13.058190107345581	fix_pre	0		1.0	4.0	2.5	/experiments/knapen_aot/oldvideos/S_yt-sxZ_ONShI7U_75.mp4	0.0	110.03776502609253	0.008133888244628906
6	13.059830904006958	response	0	2		4.0	2.5	/experiments/knapen_aot/oldvideos/S_yt-sxZ_ONShI7U_75.mp4	0.0	110.0394058227539	
6	13.06632399559021	movie	1		301.0	4.0	2.5	/experiments/knapen_aot/oldvideos/S_yt-sxZ_ONShI7U_75.mp4	0.0	110.04589891433716	2.508350133895874
6	15.209996938705444	response	1	2		4.0	2.5	/experiments/knapen_aot/oldvideos/S_yt-sxZ_ONShI7U_75.mp4	0.0	112.18957185745239	
6	15.574674129486084	fix_post	2		12.0	4.0	2.5	/experiments/knapen_aot/oldvideos/S_yt-sxZ_ONShI7U_75.mp4	0.0	112.55424904823303	0.1000678539276123
7	15.674741983413696	fix_pre	0		15.0	5.0	2.5	/experiments/knapen_aot/oldvideos/S_yt-1ruRqcfBMw0_21.mp4	0.0	112.65431690216064	0.12533807754516602
7	15.79140591621399	response	0	2		5.0	2.5	/experiments/knapen_aot/oldvideos/S_yt-1ruRqcfBMw0_21.mp4	0.0	112.77098083496094	
7	15.800080060958862	movie	1		301.0	5.0	2.5	/experiments/knapen_aot/oldvideos/S_yt-1ruRqcfBMw0_21.mp4	0.0	112.77965497970581	2.5081429481506348
7	18.210176944732666	response	1	2		5.0	2.5	/experiments/knapen_aot/oldvideos/S_yt-1ruRqcfBMw0_21.mp4	0.0	115.18975186347961	
7	18.308223009109497	fix_post	2		12.0	5.0	2.5	/experiments/knapen_aot/oldvideos/S_yt-1ruRqcfBMw0_21.mp4	0.0	115.28779792785645	0.0997779369354248
8	18.408000946044922	fix_pre	0		15.0	6.0	2.5	blank	1.0	115.38757586479187	0.1251850128173828
8	18.524805068969727	response	0	2		6.0	2.5	blank	1.0	115.50437998771667	
8	18.533185958862305	movie	1		301.0	6.0	2.5	blank	1.0	115.51276087760925	2.5081770420074463
8	20.91642999649048	response	1	2		6.0	2.5	blank	1.0	117.89600491523743	
8	21.04136300086975	fix_post	2		12.0	6.0	2.5	blank	1.0	118.0209379196167	0.10001111030578613
9	21.141374111175537	fix_pre	0		18.0	7.0	2.5	/experiments/knapen_aot/oldvideos/R_S_ILSVRC2015_train_00368000.mp4	0.0	118.12094902992249	0.14993000030517578
9	21.283133029937744	response	0	2		7.0	2.5	/experiments/knapen_aot/oldvideos/R_S_ILSVRC2015_train_00368000.mp4	0.0	118.26270794868469	
9	21.291304111480713	movie	1		301.0	7.0	2.5	/experiments/knapen_aot/oldvideos/R_S_ILSVRC2015_train_00368000.mp4	0.0	118.27087903022766	2.5083389282226562
9	23.54412293434143	response	1	2		7.0	2.5	/experiments/knapen_aot/oldvideos/R_S_ILSVRC2015_train_00368000.mp4	0.0	120.52369785308838	
9	23.79964303970337	fix_post	2		12.0	7.0	2.5	/experiments/knapen_aot/oldvideos/R_S_ILSVRC2015_train_00368000.mp4	0.0	120.77921795845032	0.10027289390563965
9	23.874830961227417	response	2	2		7.0	2.5	/experiments/knapen_aot/oldvideos/R_S_ILSVRC2015_train_00368000.mp4	0.0	120.85440587997437	
10	23.89991593360901	fix_pre	0		58.0	8.0	2.5	/experiments/knapen_aot/oldvideos/S_yt-GETRVzxihhM_74.mp4	0.0	120.87949085235596	0.4835851192474365
10	24.374808073043823	response	0	2		8.0	2.5	/experiments/knapen_aot/oldvideos/S_yt-GETRVzxihhM_74.mp4	0.0	121.35438299179077	
10	24.383501052856445	movie	1		301.0	8.0	2.5	/experiments/knapen_aot/oldvideos/S_yt-GETRVzxihhM_74.mp4	0.0	121.3630759716034	2.507883071899414
10	26.751464128494263	response	1	2		8.0	2.5	/experiments/knapen_aot/oldvideos/S_yt-GETRVzxihhM_74.mp4	0.0	123.73103904724121	
10	26.89138412475586	fix_post	2		12.0	8.0	2.5	/experiments/knapen_aot/oldvideos/S_yt-GETRVzxihhM_74.mp4	0.0	123.87095904350281	0.09989500045776367
11	26.991279125213623	fix_pre	0		4.0	9.0	2.5	/experiments/knapen_aot/oldvideos/S_yt-2LCHVTVwJ5E_235.mp4	0.0	123.97085404396057	0.033334970474243164
11	27.01641011238098	response	0	2		9.0	2.5	/experiments/knapen_aot/oldvideos/S_yt-2LCHVTVwJ5E_235.mp4	0.0	123.99598503112793	
11	27.024614095687866	movie	1		301.0	9.0	2.5	/experiments/knapen_aot/oldvideos/S_yt-2LCHVTVwJ5E_235.mp4	0.0	124.00418901443481	2.5083649158477783
11	29.532979011535645	fix_post	2		12.0	9.0	2.5	/experiments/knapen_aot/oldvideos/S_yt-2LCHVTVwJ5E_235.mp4	0.0	126.51255393028259	0.09996390342712402
12	29.63294291496277	fix_pre	0		26.0	10.0	2.5	/experiments/knapen_aot/oldvideos/R_S_yt-BJsMGxfjrZk_59.mp4	0.0	126.61251783370972	0.21664810180664062
12	29.84135603904724	response	0	2		10.0	2.5	/experiments/knapen_aot/oldvideos/R_S_yt-BJsMGxfjrZk_59.mp4	0.0	126.82093095779419	
12	29.84959101676941	movie	1		301.0	10.0	2.5	/experiments/knapen_aot/oldvideos/R_S_yt-BJsMGxfjrZk_59.mp4	0.0	126.82916593551636	2.5083770751953125
12	32.35796809196472	fix_post	2		12.0	10.0	2.5	/experiments/knapen_aot/oldvideos/R_S_yt-BJsMGxfjrZk_59.mp4	0.0	129.33754301071167	0.10001301765441895
13	32.45798110961914	fix_pre	0		12.0	11.0	2.5	/experiments/knapen_aot/oldvideos/S_b2-2.mp4	0.0	129.4375560283661	0.09995889663696289
13	32.549782037734985	response	0	2		11.0	2.5	/experiments/knapen_aot/oldvideos/S_b2-2.mp4	0.0	129.52935695648193	
13	32.5579400062561	movie	1		166.0	11.0	2.5	/experiments/knapen_aot/oldvideos/S_b2-2.mp4	0.0	129.53751492500305	2.5084290504455566
13	35.06636905670166	fix_post	2		12.0	11.0	2.5	/experiments/knapen_aot/oldvideos/S_b2-2.mp4	0.0	132.0459439754486	0.10000491142272949
13	35.09140491485596	response	2	2		11.0	2.5	/experiments/knapen_aot/oldvideos/S_b2-2.mp4	0.0	132.0709798336029	
14	35.16637396812439	fix_pre	0		33.0	12.0	2.5	/experiments/knapen_aot/oldvideos/S_pexels-c-technical-6753390_2.mp4	0.0	132.14594888687134	0.2748849391937256
14	35.43309211730957	response	0	2		12.0	2.5	/experiments/knapen_aot/oldvideos/S_pexels-c-technical-6753390_2.mp4	0.0	132.41266703605652	
14	35.441258907318115	movie	1		199.0	12.0	2.5	/experiments/knapen_aot/oldvideos/S_pexels-c-technical-6753390_2.mp4	0.0	132.42083382606506	2.508331060409546
14	37.94958996772766	fix_post	2		12.0	12.0	2.5	/experiments/knapen_aot/oldvideos/S_pexels-c-technical-6753390_2.mp4	0.0	134.9291648864746	0.10047006607055664
14	38.01639103889465	response	2	2		12.0	2.5	/experiments/knapen_aot/oldvideos/S_pexels-c-technical-6753390_2.mp4	0.0	134.9959659576416	
15	38.05006003379822	fix_pre	0		34.0	13.0	2.5	/experiments/knapen_aot/oldvideos/S_yt-YTQXM5ZjRgg_116.mp4	0.0	135.02963495254517	0.28282809257507324
15	38.32466697692871	response	0	2		13.0	2.5	/experiments/knapen_aot/oldvideos/S_yt-YTQXM5ZjRgg_116.mp4	0.0	135.30424189567566	
15	38.33288812637329	movie	1		301.0	13.0	2.5	/experiments/knapen_aot/oldvideos/S_yt-YTQXM5ZjRgg_116.mp4	0.0	135.31246304512024	2.5087389945983887
15	40.84162712097168	fix_post	2		12.0	13.0	2.5	/experiments/knapen_aot/oldvideos/S_yt-YTQXM5ZjRgg_116.mp4	0.0	137.82120203971863	0.0996708869934082
16	40.94129800796509	fix_pre	0		17.0	14.0	2.5	blank	1.0	137.92087292671204	0.14161109924316406
16	41.07489013671875	response	0	2		14.0	2.5	blank	1.0	138.0544650554657	
16	41.08290910720825	movie	1		301.0	14.0	2.5	blank	1.0	138.0624840259552	2.5083088874816895
16	43.59121799468994	fix_post	2		12.0	14.0	2.5	blank	1.0	140.5707929134369	0.10015511512756348
17	43.691373109817505	fix_pre	0		25.0	15.0	2.5	/experiments/knapen_aot/oldvideos/S_yt-zQnaVApUPH0_14.mp4	0.0	140.67094802856445	0.2081899642944336
17	43.89137411117554	response	0	2		15.0	2.5	/experiments/knapen_aot/oldvideos/S_yt-zQnaVApUPH0_14.mp4	0.0	140.87094902992249	
17	43.89956307411194	movie	1		301.0	15.0	2.5	/experiments/knapen_aot/oldvideos/S_yt-zQnaVApUPH0_14.mp4	0.0	140.8791379928589	2.5083930492401123
17	46.40795612335205	fix_post	2		12.0	15.0	2.5	/experiments/knapen_aot/oldvideos/S_yt-zQnaVApUPH0_14.mp4	0.0	143.387531042099	0.10044384002685547
18	46.508399963378906	fix_pre	0		36.0	16.0	2.5	/experiments/knapen_aot/oldvideos/R_S_yt-Pc1ZlCvsPpc_5.mp4	0.0	143.48797488212585	0.2994980812072754
18	46.799644947052	response	0	2		16.0	2.5	/experiments/knapen_aot/oldvideos/R_S_yt-Pc1ZlCvsPpc_5.mp4	0.0	143.77921986579895	
18	46.80789804458618	movie	1		301.0	16.0	2.5	/experiments/knapen_aot/oldvideos/R_S_yt-Pc1ZlCvsPpc_5.mp4	0.0	143.78747296333313	2.5083658695220947
18	49.316263914108276	fix_post	2		12.0	16.0	2.5	/experiments/knapen_aot/oldvideos/R_S_yt-Pc1ZlCvsPpc_5.mp4	0.0	146.29583883285522	0.10009503364562988
19	49.416358947753906	fix_pre	0		13.0	17.0	2.5	/experiments/knapen_aot/oldvideos/R_S_yt-QOnORDmVMyU_10.mp4	0.0	146.39593386650085	0.10820698738098145
19	49.51635408401489	response	0	2		17.0	2.5	/experiments/knapen_aot/oldvideos/R_S_yt-QOnORDmVMyU_10.mp4	0.0	146.49592900276184	
19	49.52456593513489	movie	1		301.0	17.0	2.5	/experiments/knapen_aot/oldvideos/R_S_yt-QOnORDmVMyU_10.mp4	0.0	146.50414085388184	2.5083069801330566
19	52.032872915267944	fix_post	2		12.0	17.0	2.5	/experiments/knapen_aot/oldvideos/R_S_yt-QOnORDmVMyU_10.mp4	0.0	149.0124478340149	0.09998321533203125
20	52.132856130599976	fix_pre	0		25.0	18.0	2.5	/experiments/knapen_aot/oldvideos/S_yt-cM5PvgE7aJs_243.mp4	0.0	149.11243104934692	0.2086019515991211
20	52.332844972610474	response	0	2		18.0	2.5	/experiments/knapen_aot/oldvideos/S_yt-cM5PvgE7aJs_243.mp4	0.0	149.31241989135742	
20	52.3414580821991	movie	1		301.0	18.0	2.5	/experiments/knapen_aot/oldvideos/S_yt-cM5PvgE7aJs_243.mp4	0.0	149.32103300094604	2.5080859661102295
20	54.849544048309326	fix_post	2		12.0	18.0	2.5	/experiments/knapen_aot/oldvideos/S_yt-cM5PvgE7aJs_243.mp4	0.0	151.82911896705627	0.10006308555603027
21	54.949607133865356	fix_pre	0		31.0	19.0	2.5	blank	1.0	151.9291820526123	0.25826382637023926
21	55.19966793060303	response	0	2		19.0	2.5	blank	1.0	152.17924284934998	
21	55.207870960235596	movie	1		301.0	19.0	2.5	blank	1.0	152.18744587898254	2.508610963821411
21	57.71648192405701	fix_post	2		12.0	19.0	2.5	blank	1.0	154.69605684280396	0.09983706474304199
22	57.81631898880005	fix_pre	0		29.0	20.0	2.5	/experiments/knapen_aot/oldvideos/S_yt-xrWo3lnbshw_80.mp4	0.0	154.795893907547	0.24151992797851562
22	58.04962706565857	response	0	2		20.0	2.5	/experiments/knapen_aot/oldvideos/S_yt-xrWo3lnbshw_80.mp4	0.0	155.02920198440552	
22	58.057838916778564	movie	1		301.0	20.0	2.5	/experiments/knapen_aot/oldvideos/S_yt-xrWo3lnbshw_80.mp4	0.0	155.0374138355255	2.508289098739624
22	60.56612801551819	fix_post	2		12.0	20.0	2.5	/experiments/knapen_aot/oldvideos/S_yt-xrWo3lnbshw_80.mp4	0.0	157.54570293426514	0.10002994537353516
23	60.666157960891724	fix_pre	0		33.0	21.0	2.5	/experiments/knapen_aot/oldvideos/R_S_g201_AK_A003_C014_SDR_20191113_SDR_2K_AVC.mp4	0.0	157.64573287963867	0.2749950885772705
23	60.93289303779602	response	0	2		21.0	2.5	/experiments/knapen_aot/oldvideos/R_S_g201_AK_A003_C014_SDR_20191113_SDR_2K_AVC.mp4	0.0	157.91246795654297	
23	60.941153049468994	movie	1		175.0	21.0	2.5	/experiments/knapen_aot/oldvideos/R_S_g201_AK_A003_C014_SDR_20191113_SDR_2K_AVC.mp4	0.0	157.92072796821594	2.508410930633545
23	63.44956398010254	fix_post	2		12.0	21.0	2.5	/experiments/knapen_aot/oldvideos/R_S_g201_AK_A003_C014_SDR_20191113_SDR_2K_AVC.mp4	0.0	160.4291388988495	0.10014200210571289
24	63.54970598220825	fix_pre	0		4.0	22.0	2.5	/experiments/knapen_aot/oldvideos/S_yt-2ZsK7zSCJ2w_67.mp4	0.0	160.5292809009552	0.03309297561645508
24	63.574674129486084	response	0	2		22.0	2.5	/experiments/knapen_aot/oldvideos/S_yt-2ZsK7zSCJ2w_67.mp4	0.0	160.55424904823303	
24	63.58279895782471	movie	1		300.0	22.0	2.5	/experiments/knapen_aot/oldvideos/S_yt-2ZsK7zSCJ2w_67.mp4	0.0	160.56237387657166	2.5088391304016113
24	66.09163808822632	fix_post	2		12.0	22.0	2.5	/experiments/knapen_aot/oldvideos/S_yt-2ZsK7zSCJ2w_67.mp4	0.0	163.07121300697327	0.09948897361755371
25	66.19112706184387	fix_pre	0		28.0	23.0	2.5	/experiments/knapen_aot/oldvideos/R_S_yt-v9WGfC67DPk_50.mp4	0.0	163.17070198059082	0.23351287841796875
25	66.41621494293213	response	0	2		23.0	2.5	/experiments/knapen_aot/oldvideos/R_S_yt-v9WGfC67DPk_50.mp4	0.0	163.39578986167908	
25	66.42463994026184	movie	1		301.0	23.0	2.5	/experiments/knapen_aot/oldvideos/R_S_yt-v9WGfC67DPk_50.mp4	0.0	163.4042148590088	2.5081870555877686
25	68.93282699584961	fix_post	2		12.0	23.0	2.5	/experiments/knapen_aot/oldvideos/R_S_yt-v9WGfC67DPk_50.mp4	0.0	165.91240191459656	0.09994792938232422
26	69.03277492523193	fix_pre	0		2.0	24.0	2.5	/experiments/knapen_aot/oldvideos/R_S_yt-EKPrSw5xF7k_112.mp4	0.0	166.01234984397888	0.01710820198059082
26	69.04296708106995	response	0	2		24.0	2.5	/experiments/knapen_aot/oldvideos/R_S_yt-EKPrSw5xF7k_112.mp4	0.0	166.0225419998169	
26	69.04988312721252	movie	1		301.0	24.0	2.5	/experiments/knapen_aot/oldvideos/R_S_yt-EKPrSw5xF7k_112.mp4	0.0	166.02945804595947	2.5079259872436523
26	71.55780911445618	fix_post	2		12.0	24.0	2.5	/experiments/knapen_aot/oldvideos/R_S_yt-EKPrSw5xF7k_112.mp4	0.0	168.53738403320312	0.0999608039855957
27	71.65776991844177	fix_pre	0		12.0	25.0	2.5	/experiments/knapen_aot/oldvideos/S_yt-l_pvPAznG1A_20.mp4	0.0	168.63734483718872	0.1002810001373291
27	71.74959111213684	response	0	2		25.0	2.5	/experiments/knapen_aot/oldvideos/S_yt-l_pvPAznG1A_20.mp4	0.0	168.7291660308838	
27	71.7580509185791	movie	1		301.0	25.0	2.5	/experiments/knapen_aot/oldvideos/S_yt-l_pvPAznG1A_20.mp4	0.0	168.73762583732605	2.5080461502075195
27	74.26609706878662	fix_post	2		12.0	25.0	2.5	/experiments/knapen_aot/oldvideos/S_yt-l_pvPAznG1A_20.mp4	0.0	171.24567198753357	0.10016894340515137
28	74.36626601219177	fix_pre	0		23.0	26.0	2.5	blank	1.0	171.34584093093872	0.1914820671081543
28	74.54951906204224	response	0	2		26.0	2.5	blank	1.0	171.52909398078918	
28	74.55774807929993	movie	1		301.0	26.0	2.5	blank	1.0	171.53732299804688	2.5083930492401123
28	77.06614112854004	fix_post	2		12.0	26.0	2.5	blank	1.0	174.045716047287	0.09996986389160156
29	77.16611099243164	fix_pre	0		17.0	27.0	2.5	/experiments/knapen_aot/oldvideos/S_yt-6KJ_yZR-Jco_14.mp4	0.0	174.1456859111786	0.14159202575683594
29	77.29950594902039	response	0	2		27.0	2.5	/experiments/knapen_aot/oldvideos/S_yt-6KJ_yZR-Jco_14.mp4	0.0	174.27908086776733	
29	77.30770301818848	movie	1		301.0	27.0	2.5	/experiments/knapen_aot/oldvideos/S_yt-6KJ_yZR-Jco_14.mp4	0.0	174.28727793693542	2.508610963821411
29	79.81631398200989	fix_post	2		12.0	27.0	2.5	/experiments/knapen_aot/oldvideos/S_yt-6KJ_yZR-Jco_14.mp4	0.0	176.79588890075684	0.09984207153320312
30	79.91615605354309	fix_pre	0		26.0	28.0	2.5	/experiments/knapen_aot/oldvideos/S_yt-v8e_DlCsP4w_10.mp4	0.0	176.89573097229004	0.2166130542755127
30	80.1244900226593	response	0	2		28.0	2.5	/experiments/knapen_aot/oldvideos/S_yt-v8e_DlCsP4w_10.mp4	0.0	177.10406494140625	
30	80.1327691078186	movie	1		301.0	28.0	2.5	/experiments/knapen_aot/oldvideos/S_yt-v8e_DlCsP4w_10.mp4	0.0	177.11234402656555	2.5083420276641846
30	82.64111113548279	fix_post	2		12.0	28.0	2.5	/experiments/knapen_aot/oldvideos/S_yt-v8e_DlCsP4w_10.mp4	0.0	179.62068605422974	0.10016989707946777
31	82.74128103256226	fix_pre	0		25.0	29.0	2.5	/experiments/knapen_aot/oldvideos/R_S_yt-jUGt_Byqczw_599.mp4	0.0	179.7208559513092	0.2080540657043457
31	82.94120907783508	response	0	2		29.0	2.5	/experiments/knapen_aot/oldvideos/R_S_yt-jUGt_Byqczw_599.mp4	0.0	179.92078399658203	
31	82.9493350982666	movie	1		301.0	29.0	2.5	/experiments/knapen_aot/oldvideos/R_S_yt-jUGt_Byqczw_599.mp4	0.0	179.92891001701355	2.5084400177001953
31	83.48281192779541	response	1	2		29.0	2.5	/experiments/knapen_aot/oldvideos/R_S_yt-jUGt_Byqczw_599.mp4	0.0	180.46238684654236	
31	85.16757202148438	response	1	2		29.0	2.5	/experiments/knapen_aot/oldvideos/R_S_yt-jUGt_Byqczw_599.mp4	0.0	182.14714694023132	
31	85.4577751159668	fix_post	2		12.0	29.0	2.5	/experiments/knapen_aot/oldvideos/R_S_yt-jUGt_Byqczw_599.mp4	0.0	182.43735003471375	0.0999448299407959
32	85.55771994590759	fix_pre	0		4.0	30.0	2.5	/experiments/knapen_aot/oldvideos/S_yt-pOCEuqVE7ro_61.mp4	0.0	182.53729486465454	0.033904075622558594
32	85.58278703689575	response	0	2		30.0	2.5	/experiments/knapen_aot/oldvideos/S_yt-pOCEuqVE7ro_61.mp4	0.0	182.5623619556427	
32	85.59162402153015	movie	1		301.0	30.0	2.5	/experiments/knapen_aot/oldvideos/S_yt-pOCEuqVE7ro_61.mp4	0.0	182.5711989402771	2.507694959640503
32	88.09931898117065	fix_post	2		12.0	30.0	2.5	/experiments/knapen_aot/oldvideos/S_yt-pOCEuqVE7ro_61.mp4	0.0	185.0788938999176	0.1000361442565918
33	88.19935512542725	fix_pre	0		11.0	31.0	2.5	/experiments/knapen_aot/oldvideos/R_S_ILSVRC2015_train_00318000.mp4	0.0	185.1789300441742	0.09166383743286133
33	88.28288102149963	response	0	2		31.0	2.5	/experiments/knapen_aot/oldvideos/R_S_ILSVRC2015_train_00318000.mp4	0.0	185.26245594024658	
33	88.29101896286011	movie	1		301.0	31.0	2.5	/experiments/knapen_aot/oldvideos/R_S_ILSVRC2015_train_00318000.mp4	0.0	185.27059388160706	2.5084240436553955
33	90.7994430065155	fix_post	2		12.0	31.0	2.5	/experiments/knapen_aot/oldvideos/R_S_ILSVRC2015_train_00318000.mp4	0.0	187.77901792526245	0.0998849868774414
34	90.89932799339294	fix_pre	0		5.0	32.0	2.5	/experiments/knapen_aot/oldvideos/S_yt-XBAU3cq0rZs_150.mp4	0.0	187.8789029121399	0.04167604446411133
34	90.93284511566162	response	0	4		32.0	2.5	/experiments/knapen_aot/oldvideos/S_yt-XBAU3cq0rZs_150.mp4	0.0	187.91242003440857	
34	90.94100403785706	movie	1		301.0	32.0	2.5	/experiments/knapen_aot/oldvideos/S_yt-XBAU3cq0rZs_150.mp4	0.0	187.920578956604	2.508410930633545
34	93.4494149684906	fix_post	2		12.0	32.0	2.5	/experiments/knapen_aot/oldvideos/S_yt-XBAU3cq0rZs_150.mp4	0.0	190.42898988723755	0.10002493858337402
35	93.54943990707397	fix_pre	0		6.0	33.0	2.5	/experiments/knapen_aot/oldvideos/R_S_yt-28ODBE9bVh0_44.mp4	0.0	190.52901482582092	0.04990410804748535
35	93.59119009971619	response	0	4		33.0	2.5	/experiments/knapen_aot/oldvideos/R_S_yt-28ODBE9bVh0_44.mp4	0.0	190.57076501846313	
35	93.59934401512146	movie	1		301.0	33.0	2.5	/experiments/knapen_aot/oldvideos/R_S_yt-28ODBE9bVh0_44.mp4	0.0	190.5789189338684	2.5084340572357178
35	96.10777807235718	fix_post	2		12.0	33.0	2.5	/experiments/knapen_aot/oldvideos/R_S_yt-28ODBE9bVh0_44.mp4	0.0	193.08735299110413	0.09987092018127441
36	96.20764899253845	fix_pre	0		3.0	34.0	2.5	blank	1.0	193.1872239112854	0.02506113052368164
36	96.21730899810791	response	0	4		34.0	2.5	blank	1.0	193.19688391685486	
36	96.23271012306213	movie	1		301.0	34.0	2.5	blank	1.0	193.21228504180908	2.5084149837493896
36	98.74112510681152	fix_post	2		12.0	34.0	2.5	blank	1.0	195.72070002555847	0.09997892379760742
37	98.84110403060913	fix_pre	0		22.0	35.0	2.5	/experiments/knapen_aot/oldvideos/R_S_DV6V38rplag_215.mp4	0.0	195.82067894935608	0.18322300910949707
37	99.0160870552063	response	0	4		35.0	2.5	/experiments/knapen_aot/oldvideos/R_S_DV6V38rplag_215.mp4	0.0	195.99566197395325	
37	99.02432703971863	movie	1		301.0	35.0	2.5	/experiments/knapen_aot/oldvideos/R_S_DV6V38rplag_215.mp4	0.0	196.00390195846558	2.508349895477295
37	101.53267693519592	fix_post	2		12.0	35.0	2.5	/experiments/knapen_aot/oldvideos/R_S_DV6V38rplag_215.mp4	0.0	198.51225185394287	0.10004210472106934
38	101.63271903991699	fix_pre	0		10.0	36.0	2.5	/experiments/knapen_aot/oldvideos/S_yt-wEbfIR14zZ8_7.mp4	0.0	198.61229395866394	0.08331799507141113
38	101.70770907402039	response	0	4		36.0	2.5	/experiments/knapen_aot/oldvideos/S_yt-wEbfIR14zZ8_7.mp4	0.0	198.68728399276733	
38	101.7160370349884	movie	1		301.0	36.0	2.5	/experiments/knapen_aot/oldvideos/S_yt-wEbfIR14zZ8_7.mp4	0.0	198.69561195373535	2.5082879066467285
38	104.22432494163513	fix_post	2		12.0	36.0	2.5	/experiments/knapen_aot/oldvideos/S_yt-wEbfIR14zZ8_7.mp4	0.0	201.20389986038208	0.09997010231018066
39	104.32429504394531	fix_pre	0		25.0	37.0	2.5	/experiments/knapen_aot/oldvideos/S_yt-FLMdajcbjcg_35.mp4	0.0	201.30386996269226	0.2083299160003662
39	104.52430200576782	response	0	4		37.0	2.5	/experiments/knapen_aot/oldvideos/S_yt-FLMdajcbjcg_35.mp4	0.0	201.50387692451477	
39	104.53262495994568	movie	1		301.0	37.0	2.5	/experiments/knapen_aot/oldvideos/S_yt-FLMdajcbjcg_35.mp4	0.0	201.51219987869263	2.5083529949188232
39	107.0409779548645	fix_post	2		12.0	37.0	2.5	/experiments/knapen_aot/oldvideos/S_yt-FLMdajcbjcg_35.mp4	0.0	204.02055287361145	0.10003018379211426
40	107.14100813865662	fix_pre	0		23.0	38.0	2.5	/experiments/knapen_aot/oldvideos/R_S_yt-0MB_IYX1fgo_44.mp4	0.0	204.12058305740356	0.1930229663848877
40	107.32438898086548	response	0	4		38.0	2.5	/experiments/knapen_aot/oldvideos/R_S_yt-0MB_IYX1fgo_44.mp4	0.0	204.30396389961243	
40	107.3340311050415	movie	1		301.0	38.0	2.5	/experiments/knapen_aot/oldvideos/R_S_yt-0MB_IYX1fgo_44.mp4	0.0	204.31360602378845	2.5069098472595215
40	109.84094095230103	fix_post	2		12.0	38.0	2.5	/experiments/knapen_aot/oldvideos/R_S_yt-0MB_IYX1fgo_44.mp4	0.0	206.82051587104797	0.100128173828125
41	109.94106912612915	fix_pre	0		9.0	39.0	2.5	/experiments/knapen_aot/oldvideos/S_ILSVRC2015_train_00354001.mp4	0.0	206.9206440448761	0.07487797737121582
41	110.00769996643066	response	0	4		39.0	2.5	/experiments/knapen_aot/oldvideos/S_ILSVRC2015_train_00354001.mp4	0.0	206.9872748851776	
41	110.01594710350037	movie	1		301.0	39.0	2.5	/experiments/knapen_aot/oldvideos/S_ILSVRC2015_train_00354001.mp4	0.0	206.99552202224731	2.508330821990967
41	112.52427792549133	fix_post	2		12.0	39.0	2.5	/experiments/knapen_aot/oldvideos/S_ILSVRC2015_train_00354001.mp4	0.0	209.50385284423828	0.09996318817138672
42	112.62424111366272	fix_pre	0		6.0	40.0	2.5	/experiments/knapen_aot/oldvideos/R_S_ILSVRC2015_train_00756000.mp4	0.0	209.60381603240967	0.04996800422668457
42	112.66600513458252	response	0	4		40.0	2.5	/experiments/knapen_aot/oldvideos/R_S_ILSVRC2015_train_00756000.mp4	0.0	209.64558005332947	
42	112.6742091178894	movie	1		301.0	40.0	2.5	/experiments/knapen_aot/oldvideos/R_S_ILSVRC2015_train_00756000.mp4	0.0	209.65378403663635	2.5083508491516113
42	115.18255996704102	fix_post	2		12.0	40.0	2.5	/experiments/knapen_aot/oldvideos/R_S_ILSVRC2015_train_00756000.mp4	0.0	212.16213488578796	0.10002803802490234
43	115.28258800506592	fix_pre	0		6.0	41.0	2.5	blank	1.0	212.26216292381287	0.04999208450317383
43	115.32441091537476	response	0	4		41.0	2.5	blank	1.0	212.3039858341217	
43	115.33258008956909	movie	1		301.0	41.0	2.5	blank	1.0	212.31215500831604	2.508309841156006
43	117.8408899307251	fix_post	2		12.0	41.0	2.5	blank	1.0	214.82046484947205	0.10007405281066895
44	117.94096398353577	fix_pre	0		33.0	42.0	2.5	/experiments/knapen_aot/oldvideos/R_S_cST9H3zu3zQ_126.mp4	0.0	214.92053890228271	0.274914026260376
44	118.20759892463684	response	0	4		42.0	2.5	/experiments/knapen_aot/oldvideos/R_S_cST9H3zu3zQ_126.mp4	0.0	215.1871738433838	
44	118.21587800979614	movie	1		301.0	42.0	2.5	/experiments/knapen_aot/oldvideos/R_S_cST9H3zu3zQ_126.mp4	0.0	215.1954529285431	2.508371114730835
44	120.72424912452698	fix_post	2		12.0	42.0	2.5	/experiments/knapen_aot/oldvideos/R_S_cST9H3zu3zQ_126.mp4	0.0	217.70382404327393	0.10000801086425781
45	120.82425713539124	fix_pre	0		13.0	43.0	2.5	/experiments/knapen_aot/oldvideos/S_comp_DB_D001_C005_COMP_PSNK_v12_SDR_PS_20180912_SDR_2K_AVC.mp4	0.0	217.80383205413818	0.10831093788146973
45	120.92431211471558	response	0	4		43.0	2.5	/experiments/knapen_aot/oldvideos/S_comp_DB_D001_C005_COMP_PSNK_v12_SDR_PS_20180912_SDR_2K_AVC.mp4	0.0	217.90388703346252	
45	120.9325680732727	movie	1		169.0	43.0	2.5	/experiments/knapen_aot/oldvideos/S_comp_DB_D001_C005_COMP_PSNK_v12_SDR_PS_20180912_SDR_2K_AVC.mp4	0.0	217.91214299201965	2.5083889961242676
45	123.44095706939697	fix_post	2		12.0	43.0	2.5	/experiments/knapen_aot/oldvideos/S_comp_DB_D001_C005_COMP_PSNK_v12_SDR_PS_20180912_SDR_2K_AVC.mp4	0.0	220.42053198814392	0.09992504119873047
46	123.5408821105957	fix_pre	0		58.0	44.0	2.5	/experiments/knapen_aot/oldvideos/S_yt-rbJOb1spY9M_16.mp4	0.0	220.52045702934265	0.4833528995513916
46	124.01604104042053	response	0	4		44.0	2.5	/experiments/knapen_aot/oldvideos/S_yt-rbJOb1spY9M_16.mp4	0.0	220.99561595916748	
46	124.0242350101471	movie	1		301.0	44.0	2.5	/experiments/knapen_aot/oldvideos/S_yt-rbJOb1spY9M_16.mp4	0.0	221.00380992889404	2.508323907852173
46	126.53255891799927	fix_post	2		12.0	44.0	2.5	/experiments/knapen_aot/oldvideos/S_yt-rbJOb1spY9M_16.mp4	0.0	223.51213383674622	0.10004019737243652
47	126.6325991153717	fix_pre	0		14.0	45.0	2.5	/experiments/knapen_aot/oldvideos/S_yt-xBwq6sHHF5M_21.mp4	0.0	223.61217403411865	0.11663389205932617
47	126.73348712921143	response	0	4		45.0	2.5	/experiments/knapen_aot/oldvideos/S_yt-xBwq6sHHF5M_21.mp4	0.0	223.71306204795837	
47	126.74923300743103	movie	1		301.0	45.0	2.5	/experiments/knapen_aot/oldvideos/S_yt-xBwq6sHHF5M_21.mp4	0.0	223.72880792617798	2.5083329677581787
47	129.2575659751892	fix_post	2		12.0	45.0	2.5	/experiments/knapen_aot/oldvideos/S_yt-xBwq6sHHF5M_21.mp4	0.0	226.23714089393616	0.10004806518554688
48	129.35761404037476	fix_pre	0		27.0	46.0	2.5	/experiments/knapen_aot/oldvideos/S_yt-jYSri2JVUqo_1036.mp4	0.0	226.3371889591217	0.2262129783630371
48	129.57438206672668	response	0	4		46.0	2.5	/experiments/knapen_aot/oldvideos/S_yt-jYSri2JVUqo_1036.mp4	0.0	226.55395698547363	
48	129.5838270187378	movie	1		301.0	46.0	2.5	/experiments/knapen_aot/oldvideos/S_yt-jYSri2JVUqo_1036.mp4	0.0	226.56340193748474	2.5070669651031494
48	132.09089398384094	fix_post	2		12.0	46.0	2.5	/experiments/knapen_aot/oldvideos/S_yt-jYSri2JVUqo_1036.mp4	0.0	229.0704689025879	0.09998703002929688
49	132.19088101387024	fix_pre	0		34.0	47.0	2.5	blank	1.0	229.1704559326172	0.28331995010375977
49	132.465980052948	response	0	4		47.0	2.5	blank	1.0	229.44555497169495	
49	132.474200963974	movie	1		301.0	47.0	2.5	blank	1.0	229.45377588272095	2.5083041191101074
49	134.9825050830841	fix_post	2		12.0	47.0	2.5	blank	1.0	231.96208000183105	0.10001993179321289
50	135.08252501487732	fix_pre	0		35.0	48.0	2.5	/experiments/knapen_aot/oldvideos/S_yt-28ODBE9bVh0_44.mp4	0.0	232.06209993362427	0.29157209396362305
50	135.3659200668335	response	0	4		48.0	2.5	/experiments/knapen_aot/oldvideos/S_yt-28ODBE9bVh0_44.mp4	0.0	232.34549498558044	
50	135.37409710884094	movie	1		301.0	48.0	2.5	/experiments/knapen_aot/oldvideos/S_yt-28ODBE9bVh0_44.mp4	0.0	232.3536720275879	2.508445978164673
50	137.88254308700562	fix_post	2		12.0	48.0	2.5	/experiments/knapen_aot/oldvideos/S_yt-28ODBE9bVh0_44.mp4	0.0	234.86211800575256	0.09995603561401367
51	137.98249912261963	fix_pre	0		26.0	49.0	2.5	/experiments/knapen_aot/oldvideos/R_S_yt-NuZy8Rjk4d0_156.mp4	0.0	234.96207404136658	0.21662688255310059
51	138.1909339427948	response	0	4		49.0	2.5	/experiments/knapen_aot/oldvideos/R_S_yt-NuZy8Rjk4d0_156.mp4	0.0	235.17050886154175	
51	138.19912600517273	movie	1		301.0	49.0	2.5	/experiments/knapen_aot/oldvideos/R_S_yt-NuZy8Rjk4d0_156.mp4	0.0	235.17870092391968	2.508286952972412
51	140.70741295814514	fix_post	2		12.0	49.0	2.5	/experiments/knapen_aot/oldvideos/R_S_yt-NuZy8Rjk4d0_156.mp4	0.0	237.6869878768921	0.10009598731994629
52	140.8075089454651	fix_pre	0		12.0	50.0	2.5	/experiments/knapen_aot/oldvideos/S_comp_DB_D001_C005_COMP_PSNK_v12_SDR_PS_20180912_SDR_2K_AVC.mp4	0.0	237.78708386421204	0.09991908073425293
52	140.89922094345093	response	0	4		50.0	2.5	/experiments/knapen_aot/oldvideos/S_comp_DB_D001_C005_COMP_PSNK_v12_SDR_PS_20180912_SDR_2K_AVC.mp4	0.0	237.87879586219788	
52	140.90742802619934	movie	1		174.0	50.0	2.5	/experiments/knapen_aot/oldvideos/S_comp_DB_D001_C005_COMP_PSNK_v12_SDR_PS_20180912_SDR_2K_AVC.mp4	0.0	237.8870029449463	2.508466958999634
52	143.41589498519897	fix_post	2		12.0	50.0	2.5	/experiments/knapen_aot/oldvideos/S_comp_DB_D001_C005_COMP_PSNK_v12_SDR_PS_20180912_SDR_2K_AVC.mp4	0.0	240.39546990394592	0.0999150276184082
53	143.51581001281738	fix_pre	0		11.0	51.0	2.5	/experiments/knapen_aot/oldvideos/R_S_yt-lCb_efvJcdE_5.mp4	0.0	240.49538493156433	0.09165501594543457
53	143.59929203987122	response	0	4		51.0	2.5	/experiments/knapen_aot/oldvideos/R_S_yt-lCb_efvJcdE_5.mp4	0.0	240.57886695861816	
53	143.60746502876282	movie	1		301.0	51.0	2.5	/experiments/knapen_aot/oldvideos/R_S_yt-lCb_efvJcdE_5.mp4	0.0	240.58703994750977	2.508418083190918
53	146.11588311195374	fix_post	2		12.0	51.0	2.5	/experiments/knapen_aot/oldvideos/R_S_yt-lCb_efvJcdE_5.mp4	0.0	243.09545803070068	0.09994292259216309
53	146.20751690864563	response	2	4		51.0	2.5	/experiments/knapen_aot/oldvideos/R_S_yt-lCb_efvJcdE_5.mp4	0.0	243.18709182739258	
54	146.2158260345459	fix_pre	0		45.0	52.0	2.5	/experiments/knapen_aot/oldvideos/R_S_yt-VfASxEzDrvc_145.mp4	0.0	243.19540095329285	0.37505102157592773
54	146.57500791549683	response	0	4		52.0	2.5	/experiments/knapen_aot/oldvideos/R_S_yt-VfASxEzDrvc_145.mp4	0.0	243.55458283424377	
54	146.59087705612183	movie	1		301.0	52.0	2.5	/experiments/knapen_aot/oldvideos/R_S_yt-VfASxEzDrvc_145.mp4	0.0	243.57045197486877	2.5082778930664062
54	149.09915494918823	fix_post	2		12.0	52.0	2.5	/experiments/knapen_aot/oldvideos/R_S_yt-VfASxEzDrvc_145.mp4	0.0	246.07872986793518	0.09998798370361328
55	149.19914293289185	fix_pre	0		18.0	53.0	2.5	/experiments/knapen_aot/oldvideos/R_S_yt-r2jZ0zZrqzQ_45.mp4	0.0	246.1787178516388	0.14998817443847656
55	149.34088110923767	response	0	4		53.0	2.5	/experiments/knapen_aot/oldvideos/R_S_yt-r2jZ0zZrqzQ_45.mp4	0.0	246.32045602798462	
55	149.34913110733032	movie	1		301.0	53.0	2.5	/experiments/knapen_aot/oldvideos/R_S_yt-r2jZ0zZrqzQ_45.mp4	0.0	246.32870602607727	2.5083398818969727
55	151.8574709892273	fix_post	2		12.0	53.0	2.5	/experiments/knapen_aot/oldvideos/R_S_yt-r2jZ0zZrqzQ_45.mp4	0.0	248.83704590797424	0.10003995895385742
56	151.95751094818115	fix_pre	0		3.0	54.0	2.5	/experiments/knapen_aot/oldvideos/S_yt-SRozDkhwx28_1463.mp4	0.0	248.9370858669281	0.02490997314453125
56	151.9743390083313	response	0	4		54.0	2.5	/experiments/knapen_aot/oldvideos/S_yt-SRozDkhwx28_1463.mp4	0.0	248.95391392707825	
56	151.98242092132568	movie	1		301.0	54.0	2.5	/experiments/knapen_aot/oldvideos/S_yt-SRozDkhwx28_1463.mp4	0.0	248.96199584007263	2.508333206176758
56	154.49075412750244	fix_post	2		12.0	54.0	2.5	/experiments/knapen_aot/oldvideos/S_yt-SRozDkhwx28_1463.mp4	0.0	251.4703290462494	0.10003185272216797
57	154.5907859802246	fix_pre	0		19.0	55.0	2.5	/experiments/knapen_aot/oldvideos/R_S_yt-FsylDeYfcxU_24.mp4	0.0	251.57036089897156	0.1594841480255127
57	154.74086213111877	response	0	4		55.0	2.5	/experiments/knapen_aot/oldvideos/R_S_yt-FsylDeYfcxU_24.mp4	0.0	251.72043704986572	
57	154.75027012825012	movie	1		301.0	55.0	2.5	/experiments/knapen_aot/oldvideos/R_S_yt-FsylDeYfcxU_24.mp4	0.0	251.72984504699707	2.5071709156036377
57	157.25744104385376	fix_post	2		12.0	55.0	2.5	/experiments/knapen_aot/oldvideos/R_S_yt-FsylDeYfcxU_24.mp4	0.0	254.2370159626007	0.10013389587402344
58	157.35757493972778	fix_pre	0		31.0	56.0	2.5	blank	1.0	254.33714985847473	0.25820398330688477
58	157.60758113861084	response	0	4		56.0	2.5	blank	1.0	254.5871560573578	
58	157.61577892303467	movie	1		301.0	56.0	2.5	blank	1.0	254.59535384178162	2.508327007293701
58	160.12410593032837	fix_post	2		12.0	56.0	2.5	blank	1.0	257.1036808490753	0.10013818740844727
59	160.22424411773682	fix_pre	0		16.0	57.0	2.5	/experiments/knapen_aot/oldvideos/R_S_yt-fqbi4rGc9dk_65.mp4	0.0	257.20381903648376	0.13314580917358398
59	160.34923100471497	response	0	4		57.0	2.5	/experiments/knapen_aot/oldvideos/R_S_yt-fqbi4rGc9dk_65.mp4	0.0	257.3288059234619	
59	160.3573899269104	movie	1		301.0	57.0	2.5	/experiments/knapen_aot/oldvideos/R_S_yt-fqbi4rGc9dk_65.mp4	0.0	257.33696484565735	2.5083789825439453
59	162.86576890945435	fix_post	2		12.0	57.0	2.5	/experiments/knapen_aot/oldvideos/R_S_yt-fqbi4rGc9dk_65.mp4	0.0	259.8453438282013	0.0999910831451416
60	162.9657599925995	fix_pre	0		4.0	58.0	2.5	/experiments/knapen_aot/oldvideos/R_S_yt-aqrdb6BiFx4_12.mp4	0.0	259.94533491134644	0.034420013427734375
60	162.9909119606018	response	0	4		58.0	2.5	/experiments/knapen_aot/oldvideos/R_S_yt-aqrdb6BiFx4_12.mp4	0.0	259.97048687934875	
60	163.00018000602722	movie	1		301.0	58.0	2.5	/experiments/knapen_aot/oldvideos/R_S_yt-aqrdb6BiFx4_12.mp4	0.0	259.97975492477417	2.507282018661499
60	165.50746202468872	fix_post	2		12.0	58.0	2.5	/experiments/knapen_aot/oldvideos/R_S_yt-aqrdb6BiFx4_12.mp4	0.0	262.48703694343567	0.09991097450256348
61	165.60737299919128	fix_pre	0		21.0	59.0	2.5	/experiments/knapen_aot/oldvideos/R_S_yt-Q5Mfl5NdT7g_3.mp4	0.0	262.58694791793823	0.17501211166381836
61	165.77415800094604	response	0	4		59.0	2.5	/experiments/knapen_aot/oldvideos/R_S_yt-Q5Mfl5NdT7g_3.mp4	0.0	262.753732919693	
61	165.7823851108551	movie	1		301.0	59.0	2.5	/experiments/knapen_aot/oldvideos/R_S_yt-Q5Mfl5NdT7g_3.mp4	0.0	262.76196002960205	2.5083439350128174
61	168.29072904586792	fix_post	2		12.0	59.0	2.5	/experiments/knapen_aot/oldvideos/R_S_yt-Q5Mfl5NdT7g_3.mp4	0.0	265.27030396461487	0.1000680923461914
61	168.37498807907104	response	2	4		59.0	2.5	/experiments/knapen_aot/oldvideos/R_S_yt-Q5Mfl5NdT7g_3.mp4	0.0	265.354562997818	
62	168.3907971382141	fix_pre	0		36.0	60.0	2.5	/experiments/knapen_aot/oldvideos/S_yt-Nnt51ug6NF8_53.mp4	0.0	265.37037205696106	0.29991698265075684
62	168.6824769973755	response	0	4		60.0	2.5	/experiments/knapen_aot/oldvideos/S_yt-Nnt51ug6NF8_53.mp4	0.0	265.66205191612244	
62	168.69071412086487	movie	1		301.0	60.0	2.5	/experiments/knapen_aot/oldvideos/S_yt-Nnt51ug6NF8_53.mp4	0.0	265.6702890396118	2.508312940597534
62	171.1990270614624	fix_post	2		12.0	60.0	2.5	/experiments/knapen_aot/oldvideos/S_yt-Nnt51ug6NF8_53.mp4	0.0	268.17860198020935	0.10004591941833496
63	171.29907298088074	fix_pre	0		22.0	61.0	2.5	/experiments/knapen_aot/oldvideos/R_S_yt-4GDusA21cEA_170.mp4	0.0	268.2786478996277	0.18329596519470215
63	171.47414994239807	response	0	4		61.0	2.5	/experiments/knapen_aot/oldvideos/R_S_yt-4GDusA21cEA_170.mp4	0.0	268.453724861145	
63	171.48236894607544	movie	1		301.0	61.0	2.5	/experiments/knapen_aot/oldvideos/R_S_yt-4GDusA21cEA_170.mp4	0.0	268.4619438648224	2.508394956588745
63	173.99076390266418	fix_post	2		12.0	61.0	2.5	/experiments/knapen_aot/oldvideos/R_S_yt-4GDusA21cEA_170.mp4	0.0	270.97033882141113	0.09994220733642578
64	174.0907061100006	fix_pre	0		38.0	62.0	2.5	/experiments/knapen_aot/oldvideos/S_yt-2IxVZeiSv3g_28.mp4	0.0	271.07028102874756	0.3166379928588867
64	174.39926195144653	response	0	4		62.0	2.5	/experiments/knapen_aot/oldvideos/S_yt-2IxVZeiSv3g_28.mp4	0.0	271.3788368701935	
64	174.4073441028595	movie	1		301.0	62.0	2.5	/experiments/knapen_aot/oldvideos/S_yt-2IxVZeiSv3g_28.mp4	0.0	271.38691902160645	2.5083208084106445
64	176.91566491127014	fix_post	2		12.0	62.0	2.5	/experiments/knapen_aot/oldvideos/S_yt-2IxVZeiSv3g_28.mp4	0.0	273.8952398300171	0.10008120536804199
65	177.01574611663818	fix_pre	0		8.0	63.0	2.5	blank	1.0	273.99532103538513	0.066680908203125
65	177.07411408424377	response	0	4		63.0	2.5	blank	1.0	274.0536890029907	
65	177.0824270248413	movie	1		301.0	63.0	2.5	blank	1.0	274.06200194358826	2.5082221031188965
65	179.5906491279602	fix_post	2		12.0	63.0	2.5	blank	1.0	276.57022404670715	0.10003781318664551
66	179.69068694114685	fix_pre	0		16.0	64.0	2.5	/experiments/knapen_aot/oldvideos/R_S_yt-l_pvPAznG1A_20.mp4	0.0	276.6702618598938	0.13329219818115234
66	179.8157730102539	response	0	4		64.0	2.5	/experiments/knapen_aot/oldvideos/R_S_yt-l_pvPAznG1A_20.mp4	0.0	276.79534792900085	
66	179.823979139328	movie	1		301.0	64.0	2.5	/experiments/knapen_aot/oldvideos/R_S_yt-l_pvPAznG1A_20.mp4	0.0	276.80355405807495	2.5084238052368164
66	182.33240294456482	fix_post	2		12.0	64.0	2.5	/experiments/knapen_aot/oldvideos/R_S_yt-l_pvPAznG1A_20.mp4	0.0	279.31197786331177	0.1000511646270752
67	182.4324541091919	fix_pre	0		2.0	65.0	2.5	/experiments/knapen_aot/oldvideos/R_S_b2-2.mp4	0.0	279.41202902793884	0.016546964645385742
67	182.4407639503479	response	0	4		65.0	2.5	/experiments/knapen_aot/oldvideos/R_S_b2-2.mp4	0.0	279.42033886909485	
67	182.44900107383728	movie	1		177.0	65.0	2.5	/experiments/knapen_aot/oldvideos/R_S_b2-2.mp4	0.0	279.42857599258423	2.5083110332489014
67	184.95731210708618	fix_post	2		12.0	65.0	2.5	/experiments/knapen_aot/oldvideos/R_S_b2-2.mp4	0.0	281.93688702583313	0.10000085830688477
68	185.05731296539307	fix_pre	0		31.0	66.0	2.5	/experiments/knapen_aot/oldvideos/R_S_yt-r7PeFd-hIp0_378.mp4	0.0	282.03688788414	0.25832414627075195
68	185.3074939250946	response	0	4		66.0	2.5	/experiments/knapen_aot/oldvideos/R_S_yt-r7PeFd-hIp0_378.mp4	0.0	282.28706884384155	
68	185.31563711166382	movie	1		301.0	66.0	2.5	/experiments/knapen_aot/oldvideos/R_S_yt-r7PeFd-hIp0_378.mp4	0.0	282.29521203041077	2.5083768367767334
68	187.82401394844055	fix_post	2		12.0	66.0	2.5	/experiments/knapen_aot/oldvideos/R_S_yt-r7PeFd-hIp0_378.mp4	0.0	284.8035888671875	0.09997797012329102
69	187.92399191856384	fix_pre	0		17.0	67.0	2.5	/experiments/knapen_aot/oldvideos/R_S_yt-5ws2gxbcjs4_381.mp4	0.0	284.9035668373108	0.1416151523590088
69	188.04987502098083	response	0	4		67.0	2.5	/experiments/knapen_aot/oldvideos/R_S_yt-5ws2gxbcjs4_381.mp4	0.0	285.0294499397278	
69	188.06560707092285	movie	1		301.0	67.0	2.5	/experiments/knapen_aot/oldvideos/R_S_yt-5ws2gxbcjs4_381.mp4	0.0	285.0451819896698	2.5083329677581787
69	190.57394003868103	fix_post	2		12.0	67.0	2.5	/experiments/knapen_aot/oldvideos/R_S_yt-5ws2gxbcjs4_381.mp4	0.0	287.553514957428	0.10002303123474121
70	190.67396306991577	fix_pre	0		12.0	68.0	2.5	/experiments/knapen_aot/oldvideos/S_ILSVRC2015_train_00251004.mp4	0.0	287.6535379886627	0.09994983673095703
70	190.76572394371033	response	0	4		68.0	2.5	/experiments/knapen_aot/oldvideos/S_ILSVRC2015_train_00251004.mp4	0.0	287.7452988624573	
70	190.77391290664673	movie	1		301.0	68.0	2.5	/experiments/knapen_aot/oldvideos/S_ILSVRC2015_train_00251004.mp4	0.0	287.7534878253937	2.5083670616149902
70	193.28227996826172	fix_post	2		12.0	68.0	2.5	/experiments/knapen_aot/oldvideos/S_ILSVRC2015_train_00251004.mp4	0.0	290.26185488700867	0.09997105598449707
71	193.38225102424622	fix_pre	0		436.0	69.0	2.5	blank	1.0	290.36182594299316	3.6332619190216064
71	197.0073549747467	response	0	4		69.0	2.5	blank	1.0	293.98692989349365	
71	197.01551294326782	movie	1		301.0	69.0	2.5	blank	1.0	293.99508786201477	2.508355140686035
71	199.52386808395386	fix_post	2		12.0	69.0	2.5	blank	1.0	296.5034430027008	0.10005688667297363
72	199.62392497062683	fix_pre	0		22.0	70.0	2.5	/experiments/knapen_aot/oldvideos/S_yt-BJsMGxfjrZk_59.mp4	0.0	296.6034998893738	0.18328499794006348
72	199.79145002365112	response	0	4		70.0	2.5	/experiments/knapen_aot/oldvideos/S_yt-BJsMGxfjrZk_59.mp4	0.0	296.77102494239807	
72	199.8072099685669	movie	1		301.0	70.0	2.5	/experiments/knapen_aot/oldvideos/S_yt-BJsMGxfjrZk_59.mp4	0.0	296.78678488731384	2.5083250999450684
72	202.31553506851196	fix_post	2		12.0	70.0	2.5	/experiments/knapen_aot/oldvideos/S_yt-BJsMGxfjrZk_59.mp4	0.0	299.2951099872589	0.10003900527954102
73	202.4155740737915	fix_pre	0		68.0	71.0	2.5	/experiments/knapen_aot/oldvideos/S_yt-r2jZ0zZrqzQ_45.mp4	0.0	299.39514899253845	0.5665969848632812
73	202.9739921092987	response	0	4		71.0	2.5	/experiments/knapen_aot/oldvideos/S_yt-r2jZ0zZrqzQ_45.mp4	0.0	299.95356702804565	
73	202.98217105865479	movie	1		301.0	71.0	2.5	/experiments/knapen_aot/oldvideos/S_yt-r2jZ0zZrqzQ_45.mp4	0.0	299.96174597740173	2.5084328651428223
73	205.4906039237976	fix_post	2		12.0	71.0	2.5	/experiments/knapen_aot/oldvideos/S_yt-r2jZ0zZrqzQ_45.mp4	0.0	302.47017884254456	0.09986305236816406
74	205.59046697616577	fix_pre	0		9.0	72.0	2.5	/experiments/knapen_aot/oldvideos/S_yt-XpM1Jtwlvvk_42.mp4	0.0	302.5700418949127	0.07588005065917969
74	205.65734696388245	response	0	4		72.0	2.5	/experiments/knapen_aot/oldvideos/S_yt-XpM1Jtwlvvk_42.mp4	0.0	302.6369218826294	
74	205.66634702682495	movie	1		301.0	72.0	2.5	/experiments/knapen_aot/oldvideos/S_yt-XpM1Jtwlvvk_42.mp4	0.0	302.6459219455719	2.5074660778045654
74	208.17381310462952	fix_post	2		12.0	72.0	2.5	/experiments/knapen_aot/oldvideos/S_yt-XpM1Jtwlvvk_42.mp4	0.0	305.15338802337646	0.10006093978881836
75	208.27387404441833	fix_pre	0		16.0	73.0	2.5	/experiments/knapen_aot/oldvideos/S_yt-Pc1ZlCvsPpc_5.mp4	0.0	305.2534489631653	0.1332850456237793
75	208.39895701408386	response	0	4		73.0	2.5	/experiments/knapen_aot/oldvideos/S_yt-Pc1ZlCvsPpc_5.mp4	0.0	305.3785319328308	
75	208.40715909004211	movie	1		301.0	73.0	2.5	/experiments/knapen_aot/oldvideos/S_yt-Pc1ZlCvsPpc_5.mp4	0.0	305.38673400878906	2.5083730220794678
75	210.91553211212158	fix_post	2		12.0	73.0	2.5	/experiments/knapen_aot/oldvideos/S_yt-Pc1ZlCvsPpc_5.mp4	0.0	307.89510703086853	0.0999748706817627
76	211.01550698280334	fix_pre	0		4.0	74.0	2.5	/experiments/knapen_aot/oldvideos/R_S_Pexels_Videos_2795737.mp4	0.0	307.9950819015503	0.033334970474243164
76	211.03313302993774	response	0	4		74.0	2.5	/experiments/knapen_aot/oldvideos/R_S_Pexels_Videos_2795737.mp4	0.0	308.0127079486847	
76	211.0488419532776	movie	1		163.0	74.0	2.5	/experiments/knapen_aot/oldvideos/R_S_Pexels_Videos_2795737.mp4	0.0	308.02841687202454	2.508341073989868
76	213.55718302726746	fix_post	2		12.0	74.0	2.5	/experiments/knapen_aot/oldvideos/R_S_Pexels_Videos_2795737.mp4	0.0	310.5367579460144	0.10023093223571777
77	213.65741395950317	fix_pre	0		10.0	75.0	2.5	/experiments/knapen_aot/oldvideos/R_S_yt-mWlx1SIXl5M_850.mp4	0.0	310.6369888782501	0.08303594589233398
77	213.73229312896729	response	0	4		75.0	2.5	/experiments/knapen_aot/oldvideos/R_S_yt-mWlx1SIXl5M_850.mp4	0.0	310.71186804771423	
77	213.7404499053955	movie	1		301.0	75.0	2.5	/experiments/knapen_aot/oldvideos/R_S_yt-mWlx1SIXl5M_850.mp4	0.0	310.72002482414246	2.5084331035614014
77	216.2488830089569	fix_post	2		12.0	75.0	2.5	/experiments/knapen_aot/oldvideos/R_S_yt-mWlx1SIXl5M_850.mp4	0.0	313.22845792770386	0.09995198249816895
78	216.34883499145508	fix_pre	0		10.0	76.0	2.5	blank	1.0	313.328409910202	0.08333992958068848
78	216.4239411354065	response	0	4		76.0	2.5	blank	1.0	313.40351605415344	
78	216.43217492103577	movie	1		301.0	76.0	2.5	blank	1.0	313.4117498397827	2.508338212966919
78	218.94051313400269	fix_post	2		12.0	76.0	2.5	blank	1.0	315.92008805274963	0.09988999366760254
79	219.0404031276703	fix_pre	0		20.0	77.0	2.5	/experiments/knapen_aot/oldvideos/R_S_production_ID_4820868.mp4	0.0	316.01997804641724	0.16760683059692383
79	219.19891595840454	response	0	4		77.0	2.5	/experiments/knapen_aot/oldvideos/R_S_production_ID_4820868.mp4	0.0	316.1784908771515	
79	219.2080099582672	movie	1		168.0	77.0	2.5	/experiments/knapen_aot/oldvideos/R_S_production_ID_4820868.mp4	0.0	316.18758487701416	2.5074479579925537
79	221.71545791625977	fix_post	2		12.0	77.0	2.5	/experiments/knapen_aot/oldvideos/R_S_production_ID_4820868.mp4	0.0	318.6950328350067	0.10001111030578613
80	221.81546902656555	fix_pre	0		9.0	78.0	2.5	/experiments/knapen_aot/oldvideos/S_yt-JG2OY_7B-gI_537.mp4	0.0	318.7950439453125	0.07493305206298828
80	221.88223505020142	response	0	4		78.0	2.5	/experiments/knapen_aot/oldvideos/S_yt-JG2OY_7B-gI_537.mp4	0.0	318.86180996894836	
80	221.89040207862854	movie	1		301.0	78.0	2.5	/experiments/knapen_aot/oldvideos/S_yt-JG2OY_7B-gI_537.mp4	0.0	318.8699769973755	2.508781909942627
80	224.39918398857117	fix_post	2		12.0	78.0	2.5	/experiments/knapen_aot/oldvideos/S_yt-JG2OY_7B-gI_537.mp4	0.0	321.3787589073181	0.0996699333190918
81	224.49885392189026	fix_pre	0		26.0	79.0	2.5	/experiments/knapen_aot/oldvideos/S_yt-cokedWwwYYs_136.mp4	0.0	321.4784288406372	0.2167491912841797
81	224.70720601081848	response	0	4		79.0	2.5	/experiments/knapen_aot/oldvideos/S_yt-cokedWwwYYs_136.mp4	0.0	321.68678092956543	
81	224.71560311317444	movie	1		301.0	79.0	2.5	/experiments/knapen_aot/oldvideos/S_yt-cokedWwwYYs_136.mp4	0.0	321.6951780319214	2.508237838745117
81	227.22384095191956	fix_post	2		12.0	79.0	2.5	/experiments/knapen_aot/oldvideos/S_yt-cokedWwwYYs_136.mp4	0.0	324.2034158706665	0.10003995895385742
82	227.3238809108734	fix_pre	0		9.0	80.0	2.5	/experiments/knapen_aot/oldvideos/S_yt-s2PWkCdT-TM_258.mp4	0.0	324.30345582962036	0.07490420341491699
82	227.39060997962952	response	0	4		80.0	2.5	/experiments/knapen_aot/oldvideos/S_yt-s2PWkCdT-TM_258.mp4	0.0	324.37018489837646	
82	227.39878511428833	movie	1		301.0	80.0	2.5	/experiments/knapen_aot/oldvideos/S_yt-s2PWkCdT-TM_258.mp4	0.0	324.3783600330353	2.508718967437744
82	229.90750408172607	fix_post	2		12.0	80.0	2.5	/experiments/knapen_aot/oldvideos/S_yt-s2PWkCdT-TM_258.mp4	0.0	326.887079000473	0.09957289695739746
83	230.00707697868347	fix_pre	0		39.0	81.0	2.5	/experiments/knapen_aot/oldvideos/S_yt-fqbi4rGc9dk_65.mp4	0.0	326.9866518974304	0.32581400871276855
83	230.32392406463623	response	0	4		81.0	2.5	/experiments/knapen_aot/oldvideos/S_yt-fqbi4rGc9dk_65.mp4	0.0	327.3034989833832	
83	230.33289098739624	movie	1		301.0	81.0	2.5	/experiments/knapen_aot/oldvideos/S_yt-fqbi4rGc9dk_65.mp4	0.0	327.3124659061432	2.507542133331299
83	232.84043312072754	fix_post	2		12.0	81.0	2.5	/experiments/knapen_aot/oldvideos/S_yt-fqbi4rGc9dk_65.mp4	0.0	329.8200080394745	0.10008096694946289
84	232.940514087677	fix_pre	0		26.0	82.0	2.5	/experiments/knapen_aot/oldvideos/R_S_pexels-c-technical-5771610.mp4	0.0	329.92008900642395	0.21657204627990723
84	233.14889812469482	response	0	4		82.0	2.5	/experiments/knapen_aot/oldvideos/R_S_pexels-c-technical-5771610.mp4	0.0	330.1284730434418	
84	233.1570861339569	movie	1		206.0	82.0	2.5	/experiments/knapen_aot/oldvideos/R_S_pexels-c-technical-5771610.mp4	0.0	330.13666105270386	2.508375883102417
84	235.66546201705933	fix_post	2		12.0	82.0	2.5	/experiments/knapen_aot/oldvideos/R_S_pexels-c-technical-5771610.mp4	0.0	332.6450369358063	0.1002039909362793
85	235.7656660079956	fix_pre	0		17.0	83.0	2.5	blank	1.0	332.74524092674255	0.14139604568481445
85	235.89140105247498	response	0	4		83.0	2.5	blank	1.0	332.8709759712219	
85	235.90706205368042	movie	1		301.0	83.0	2.5	blank	1.0	332.88663697242737	2.5084450244903564
85	238.41550707817078	fix_post	2		12.0	83.0	2.5	blank	1.0	335.3950819969177	0.0999138355255127
87	238.5154209136963	stim	0		401.0					335.49499583244324	3.34507417678833
87	238.74047708511353	response	0	4						335.7200520038605	
87	241.85119605064392	response	0	space						338.83077096939087	
