trial_nr	onset	event_type	phase	response	nr_frames	movie_index	movie_duration	movie_file	blank	onset_abs	duration
0	0.12837696075439453	stim	0		56.0					53.45903015136719	0.46254396438598633
0	0.5754799842834473	response	0	space						53.90613317489624	
1	0.5909209251403809	stim	0		121.0					53.921574115753174	1.0083918571472168
1	1.0077250003814697	response	0	space						54.33837819099426	
1	1.3673889636993408	response	0	space						54.698042154312134	
1	1.5993127822875977	stim	1		120.0					54.92996597290039	0.99989914894104
1	1.8160789012908936	response	1	space						55.14673209190369	
2	2.5992119312286377	fix_pre	0		14.0	0.0	2.5	/experiments/knapen_aot/videos/S_yt-5AI_SyK5sg8_112.mp4	0.0	55.92986512184143	0.11673402786254883
2	2.707749843597412	response	0	space		0.0	2.5	/experiments/knapen_aot/videos/S_yt-5AI_SyK5sg8_112.mp4	0.0	56.038403034210205	
2	2.7159459590911865	movie	1		301.0	0.0	2.5	/experiments/knapen_aot/videos/S_yt-5AI_SyK5sg8_112.mp4	0.0	56.04659914970398	2.509497880935669
2	5.2254438400268555	fix_post	2		12.0	0.0	2.5	/experiments/knapen_aot/videos/S_yt-5AI_SyK5sg8_112.mp4	0.0	58.55609703063965	0.09885692596435547
3	5.324300765991211	fix_pre	0		64.0	1.0	2.5	/experiments/knapen_aot/videos/S_Y011_C008_SDR_2K_AVC.mp4	0.0	58.654953956604004	0.5332920551300049
3	5.852860927581787	response	0	2		1.0	2.5	/experiments/knapen_aot/videos/S_Y011_C008_SDR_2K_AVC.mp4	0.0	59.18351411819458	
3	5.857592821121216	movie	1		168.0	1.0	2.5	/experiments/knapen_aot/videos/S_Y011_C008_SDR_2K_AVC.mp4	0.0	59.18824601173401	2.5083789825439453
3	8.365971803665161	fix_post	2		12.0	1.0	2.5	/experiments/knapen_aot/videos/S_Y011_C008_SDR_2K_AVC.mp4	0.0	61.696624994277954	0.09997916221618652
4	8.465950965881348	fix_pre	0		142.0	2.0	2.5	/experiments/knapen_aot/videos/S_pexels-rodnae-productions-5993237.mp4	0.0	61.79660415649414	1.1833078861236572
4	9.641075849533081	response	0	2		2.0	2.5	/experiments/knapen_aot/videos/S_pexels-rodnae-productions-5993237.mp4	0.0	62.971729040145874	
4	9.649258852005005	movie	1		179.0	2.0	2.5	/experiments/knapen_aot/videos/S_pexels-rodnae-productions-5993237.mp4	0.0	62.9799120426178	2.508319139480591
4	12.157577991485596	fix_post	2		12.0	2.0	2.5	/experiments/knapen_aot/videos/S_pexels-rodnae-productions-5993237.mp4	0.0	65.48823118209839	0.09997677803039551
5	12.257554769515991	fix_pre	0		42.0	3.0	2.5	/experiments/knapen_aot/videos/R_S_yt-d5jBQ-LOW2I_17.mp4	0.0	65.58820796012878	0.34998416900634766
5	12.591931819915771	response	0	2		3.0	2.5	/experiments/knapen_aot/videos/R_S_yt-d5jBQ-LOW2I_17.mp4	0.0	65.92258501052856	
5	12.607538938522339	movie	1		301.0	3.0	2.5	/experiments/knapen_aot/videos/R_S_yt-d5jBQ-LOW2I_17.mp4	0.0	65.93819212913513	2.5083398818969727
5	15.115878820419312	fix_post	2		12.0	3.0	2.5	/experiments/knapen_aot/videos/R_S_yt-d5jBQ-LOW2I_17.mp4	0.0	68.4465320110321	0.0999760627746582
6	15.21585488319397	fix_pre	0		33.0	4.0	2.5	/experiments/knapen_aot/videos/R_S_yt-gDZnJCR2uXI_18.mp4	0.0	68.54650807380676	0.2750370502471924
6	15.482832908630371	response	0	2		4.0	2.5	/experiments/knapen_aot/videos/R_S_yt-gDZnJCR2uXI_18.mp4	0.0	68.81348609924316	
6	15.490891933441162	movie	1		301.0	4.0	2.5	/experiments/knapen_aot/videos/R_S_yt-gDZnJCR2uXI_18.mp4	0.0	68.82154512405396	2.5083329677581787
6	17.99922490119934	fix_post	2		12.0	4.0	2.5	/experiments/knapen_aot/videos/R_S_yt-gDZnJCR2uXI_18.mp4	0.0	71.32987809181213	0.09996891021728516
7	18.099193811416626	fix_pre	0		26.0	5.0	2.5	blank	1.0	71.42984700202942	0.2167050838470459
7	18.30770492553711	response	0	2		5.0	2.5	blank	1.0	71.6383581161499	
7	18.315898895263672	movie	1		301.0	5.0	2.5	blank	1.0	71.64655208587646	2.50833797454834
7	20.82423686981201	fix_post	2		12.0	5.0	2.5	blank	1.0	74.1548900604248	0.10000991821289062
8	20.924246788024902	fix_pre	0		28.0	6.0	2.5	/experiments/knapen_aot/videos/R_S_b3TCugtX0h0_108.mp4	0.0	74.2548999786377	0.23329806327819824
8	21.149252891540527	response	0	2		6.0	2.5	/experiments/knapen_aot/videos/R_S_b3TCugtX0h0_108.mp4	0.0	74.47990608215332	
8	21.1575448513031	movie	1		301.0	6.0	2.5	/experiments/knapen_aot/videos/R_S_b3TCugtX0h0_108.mp4	0.0	74.4881980419159	2.508328914642334
8	23.665873765945435	fix_post	2		12.0	6.0	2.5	/experiments/knapen_aot/videos/R_S_b3TCugtX0h0_108.mp4	0.0	76.99652695655823	0.09998607635498047
9	23.765859842300415	fix_pre	0		68.0	7.0	2.5	/experiments/knapen_aot/videos/S_yt-qYuLW5vSotM_160.mp4	0.0	77.09651303291321	0.5666730403900146
9	24.324355840682983	response	0	2		7.0	2.5	/experiments/knapen_aot/videos/S_yt-qYuLW5vSotM_160.mp4	0.0	77.65500903129578	
9	24.33253288269043	movie	1		301.0	7.0	2.5	/experiments/knapen_aot/videos/S_yt-qYuLW5vSotM_160.mp4	0.0	77.66318607330322	2.5083200931549072
9	26.840852975845337	fix_post	2		12.0	7.0	2.5	/experiments/knapen_aot/videos/S_yt-qYuLW5vSotM_160.mp4	0.0	80.17150616645813	0.10001492500305176
10	26.94086790084839	fix_pre	0		42.0	8.0	2.5	/experiments/knapen_aot/videos/S_yt-OrTpetjDNKs_31.mp4	0.0	80.27152109146118	0.34995293617248535
10	27.27515482902527	response	0	2		8.0	2.5	/experiments/knapen_aot/videos/S_yt-OrTpetjDNKs_31.mp4	0.0	80.60580801963806	
10	27.290820837020874	movie	1		301.0	8.0	2.5	/experiments/knapen_aot/videos/S_yt-OrTpetjDNKs_31.mp4	0.0	80.62147402763367	2.508331060409546
10	29.79915189743042	fix_post	2		12.0	8.0	2.5	/experiments/knapen_aot/videos/S_yt-OrTpetjDNKs_31.mp4	0.0	83.12980508804321	0.10000300407409668
11	29.899154901504517	fix_pre	0		48.0	9.0	2.5	/experiments/knapen_aot/videos/R_S_yt-uXDyvrm0Tw0_17.mp4	0.0	83.22980809211731	0.39997005462646484
11	30.290987968444824	response	0	2		9.0	2.5	/experiments/knapen_aot/videos/R_S_yt-uXDyvrm0Tw0_17.mp4	0.0	83.62164115905762	
11	30.29912495613098	movie	1		301.0	9.0	2.5	/experiments/knapen_aot/videos/R_S_yt-uXDyvrm0Tw0_17.mp4	0.0	83.62977814674377	2.508358955383301
11	32.80748391151428	fix_post	2		12.0	9.0	2.5	/experiments/knapen_aot/videos/R_S_yt-uXDyvrm0Tw0_17.mp4	0.0	86.13813710212708	0.10002708435058594
12	32.90751099586487	fix_pre	0		40.0	10.0	2.5	/experiments/knapen_aot/videos/R_S_yt-cG2qDR5ka5w_119.mp4	0.0	86.23816418647766	0.3333249092102051
12	33.23260188102722	response	0	2		10.0	2.5	/experiments/knapen_aot/videos/R_S_yt-cG2qDR5ka5w_119.mp4	0.0	86.56325507164001	
12	33.24083590507507	movie	1		301.0	10.0	2.5	/experiments/knapen_aot/videos/R_S_yt-cG2qDR5ka5w_119.mp4	0.0	86.57148909568787	2.5082919597625732
12	35.74912786483765	fix_post	2		12.0	10.0	2.5	/experiments/knapen_aot/videos/R_S_yt-cG2qDR5ka5w_119.mp4	0.0	89.07978105545044	0.09992504119873047
13	35.84905290603638	fix_pre	0		69.0	11.0	2.5	/experiments/knapen_aot/videos/S_ILSVRC2015_train_00689000.mp4	0.0	89.17970609664917	0.5750679969787598
13	36.41594195365906	response	0	2		11.0	2.5	/experiments/knapen_aot/videos/S_ILSVRC2015_train_00689000.mp4	0.0	89.74659514427185	
13	36.42412090301514	movie	1		301.0	11.0	2.5	/experiments/knapen_aot/videos/S_ILSVRC2015_train_00689000.mp4	0.0	89.75477409362793	2.5083470344543457
13	38.93246793746948	fix_post	2		12.0	11.0	2.5	/experiments/knapen_aot/videos/S_ILSVRC2015_train_00689000.mp4	0.0	92.26312112808228	0.10004687309265137
14	39.032514810562134	fix_pre	0		45.0	12.0	2.5	/experiments/knapen_aot/videos/S_yt-8gCfc-o3pyk_85.mp4	0.0	92.36316800117493	0.3748910427093506
14	39.39938688278198	response	0	2		12.0	2.5	/experiments/knapen_aot/videos/S_yt-8gCfc-o3pyk_85.mp4	0.0	92.73004007339478	
14	39.407405853271484	movie	1		300.0	12.0	2.5	/experiments/knapen_aot/videos/S_yt-8gCfc-o3pyk_85.mp4	0.0	92.73805904388428	2.5083630084991455
14	41.91576886177063	fix_post	2		12.0	12.0	2.5	/experiments/knapen_aot/videos/S_yt-8gCfc-o3pyk_85.mp4	0.0	95.24642205238342	0.10000801086425781
15	42.01577687263489	fix_pre	0		48.0	13.0	2.5	blank	1.0	95.34643006324768	0.3999950885772705
15	42.407511949539185	response	0	2		13.0	2.5	blank	1.0	95.73816514015198	
15	42.41577196121216	movie	1		301.0	13.0	2.5	blank	1.0	95.74642515182495	2.5083889961242676
15	44.924160957336426	fix_post	2		12.0	13.0	2.5	blank	1.0	98.25481414794922	0.09999704360961914
16	45.024158000946045	fix_pre	0		72.0	14.0	2.5	/experiments/knapen_aot/videos/S_yt-ObT9gF8E_tU_250.mp4	0.0	98.35481119155884	0.599923849105835
16	45.615898847579956	response	0	2		14.0	2.5	/experiments/knapen_aot/videos/S_yt-ObT9gF8E_tU_250.mp4	0.0	98.94655203819275	
16	45.62408185005188	movie	1		301.0	14.0	2.5	/experiments/knapen_aot/videos/S_yt-ObT9gF8E_tU_250.mp4	0.0	98.95473504066467	2.5083110332489014
16	48.13239288330078	fix_post	2		12.0	14.0	2.5	/experiments/knapen_aot/videos/S_yt-ObT9gF8E_tU_250.mp4	0.0	101.46304607391357	0.0999751091003418
17	48.23236799240112	fix_pre	0		47.0	15.0	2.5	/experiments/knapen_aot/videos/R_S_yt-7v3kHYBe7-E_8.mp4	0.0	101.56302118301392	0.39168500900268555
17	48.61587977409363	response	0	2		15.0	2.5	/experiments/knapen_aot/videos/R_S_yt-7v3kHYBe7-E_8.mp4	0.0	101.94653296470642	
17	48.62405300140381	movie	1		301.0	15.0	2.5	/experiments/knapen_aot/videos/R_S_yt-7v3kHYBe7-E_8.mp4	0.0	101.9547061920166	2.508358955383301
17	51.13241195678711	fix_post	2		12.0	15.0	2.5	/experiments/knapen_aot/videos/R_S_yt-7v3kHYBe7-E_8.mp4	0.0	104.4630651473999	0.10007381439208984
18	51.2324857711792	fix_pre	0		56.0	16.0	2.5	/experiments/knapen_aot/videos/S_yt-BW6jWEVbxxk_4.mp4	0.0	104.56313896179199	0.46655917167663574
18	51.69088578224182	response	0	2		16.0	2.5	/experiments/knapen_aot/videos/S_yt-BW6jWEVbxxk_4.mp4	0.0	105.02153897285461	
18	51.699044942855835	movie	1		301.0	16.0	2.5	/experiments/knapen_aot/videos/S_yt-BW6jWEVbxxk_4.mp4	0.0	105.02969813346863	2.508262872695923
18	54.20730781555176	fix_post	2		12.0	16.0	2.5	/experiments/knapen_aot/videos/S_yt-BW6jWEVbxxk_4.mp4	0.0	107.53796100616455	0.1000521183013916
19	54.30735993385315	fix_pre	0		53.0	17.0	2.5	/experiments/knapen_aot/videos/S_yt--jzScB82vKI_212.mp4	0.0	107.63801312446594	0.441633939743042
19	54.74087190628052	response	0	2		17.0	2.5	/experiments/knapen_aot/videos/S_yt--jzScB82vKI_212.mp4	0.0	108.07152509689331	
19	54.74899387359619	movie	1		301.0	17.0	2.5	/experiments/knapen_aot/videos/S_yt--jzScB82vKI_212.mp4	0.0	108.07964706420898	2.508378028869629
19	57.25737190246582	fix_post	2		12.0	17.0	2.5	/experiments/knapen_aot/videos/S_yt--jzScB82vKI_212.mp4	0.0	110.58802509307861	0.09993100166320801
20	57.35730290412903	fix_pre	0		35.0	18.0	2.5	/experiments/knapen_aot/videos/S_ILSVRC2015_train_00708000.mp4	0.0	110.68795609474182	0.30005693435668945
20	57.64913892745972	response	0	2		18.0	2.5	/experiments/knapen_aot/videos/S_ILSVRC2015_train_00708000.mp4	0.0	110.97979211807251	
20	57.65735983848572	movie	1		301.0	18.0	2.5	/experiments/knapen_aot/videos/S_ILSVRC2015_train_00708000.mp4	0.0	110.98801302909851	2.5083439350128174
20	60.165703773498535	fix_post	2		12.0	18.0	2.5	/experiments/knapen_aot/videos/S_ILSVRC2015_train_00708000.mp4	0.0	113.49635696411133	0.10004305839538574
21	60.26574683189392	fix_pre	0		104.0	19.0	2.5	blank	1.0	113.59640002250671	0.8667769432067871
21	61.12419390678406	response	0	2		19.0	2.5	blank	1.0	114.45484709739685	
21	61.13252377510071	movie	1		301.0	19.0	2.5	blank	1.0	114.4631769657135	2.5082030296325684
21	63.640726804733276	fix_post	2		12.0	19.0	2.5	blank	1.0	116.97137999534607	0.09999799728393555
22	63.74072480201721	fix_pre	0		72.0	20.0	2.5	/experiments/knapen_aot/videos/S_I005_C008_CROP_SDR_2K_AVC.mp4	0.0	117.07137799263	0.5999510288238525
22	64.33246994018555	response	0	2		20.0	2.5	/experiments/knapen_aot/videos/S_I005_C008_CROP_SDR_2K_AVC.mp4	0.0	117.66312313079834	
22	64.34067583084106	movie	1		168.0	20.0	2.5	/experiments/knapen_aot/videos/S_I005_C008_CROP_SDR_2K_AVC.mp4	0.0	117.67132902145386	2.5083630084991455
22	66.84903883934021	fix_post	2		12.0	20.0	2.5	/experiments/knapen_aot/videos/S_I005_C008_CROP_SDR_2K_AVC.mp4	0.0	120.179692029953	0.09996700286865234
23	66.94900584220886	fix_pre	0		68.0	21.0	2.5	/experiments/knapen_aot/videos/S_comp_A108_C001_v09_SDR_FINAL_22062018_SDR_2K_AVC.mp4	0.0	120.27965903282166	0.5672659873962402
23	67.50749397277832	response	0	2		21.0	2.5	/experiments/knapen_aot/videos/S_comp_A108_C001_v09_SDR_FINAL_22062018_SDR_2K_AVC.mp4	0.0	120.83814716339111	
23	67.5162718296051	movie	1		165.0	21.0	2.5	/experiments/knapen_aot/videos/S_comp_A108_C001_v09_SDR_FINAL_22062018_SDR_2K_AVC.mp4	0.0	120.8469250202179	2.5076780319213867
23	70.02394986152649	fix_post	2		12.0	21.0	2.5	/experiments/knapen_aot/videos/S_comp_A108_C001_v09_SDR_FINAL_22062018_SDR_2K_AVC.mp4	0.0	123.35460305213928	0.10005998611450195
24	70.12400984764099	fix_pre	0		47.0	22.0	2.5	/experiments/knapen_aot/videos/R_S_ILSVRC2015_train_00689000.mp4	0.0	123.45466303825378	0.39219093322753906
24	70.50744581222534	response	0	2		22.0	2.5	/experiments/knapen_aot/videos/R_S_ILSVRC2015_train_00689000.mp4	0.0	123.83809900283813	
24	70.51620078086853	movie	1		301.0	22.0	2.5	/experiments/knapen_aot/videos/R_S_ILSVRC2015_train_00689000.mp4	0.0	123.84685397148132	2.5077221393585205
24	73.02392292022705	fix_post	2		12.0	22.0	2.5	/experiments/knapen_aot/videos/R_S_ILSVRC2015_train_00689000.mp4	0.0	126.35457611083984	0.10000491142272949
25	73.12392783164978	fix_pre	0		45.0	23.0	2.5	/experiments/knapen_aot/videos/S_yt-H45g6700wbc_159.mp4	0.0	126.45458102226257	0.37497711181640625
25	73.49073886871338	response	0	2		23.0	2.5	/experiments/knapen_aot/videos/S_yt-H45g6700wbc_159.mp4	0.0	126.82139205932617	
25	73.49890494346619	movie	1		301.0	23.0	2.5	/experiments/knapen_aot/videos/S_yt-H45g6700wbc_159.mp4	0.0	126.82955813407898	2.5083470344543457
25	76.00725197792053	fix_post	2		12.0	23.0	2.5	/experiments/knapen_aot/videos/S_yt-H45g6700wbc_159.mp4	0.0	129.33790516853333	0.09998798370361328
26	76.10723996162415	fix_pre	0		46.0	24.0	2.5	/experiments/knapen_aot/videos/S_yt-uXDyvrm0Tw0_17.mp4	0.0	129.43789315223694	0.3916468620300293
26	76.49073195457458	response	0	2		24.0	2.5	/experiments/knapen_aot/videos/S_yt-uXDyvrm0Tw0_17.mp4	0.0	129.82138514518738	
26	76.49888682365417	movie	1		301.0	24.0	2.5	/experiments/knapen_aot/videos/S_yt-uXDyvrm0Tw0_17.mp4	0.0	129.82954001426697	2.5083580017089844
26	79.00724482536316	fix_post	2		12.0	24.0	2.5	/experiments/knapen_aot/videos/S_yt-uXDyvrm0Tw0_17.mp4	0.0	132.33789801597595	0.10005712509155273
27	79.10730195045471	fix_pre	0		83.0	25.0	2.5	/experiments/knapen_aot/videos/S_pexels-kampus-production-6022792.mp4	0.0	132.4379551410675	0.6917059421539307
27	79.79068684577942	response	0	2		25.0	2.5	/experiments/knapen_aot/videos/S_pexels-kampus-production-6022792.mp4	0.0	133.1213400363922	
27	79.79900789260864	movie	1		166.0	25.0	2.5	/experiments/knapen_aot/videos/S_pexels-kampus-production-6022792.mp4	0.0	133.12966108322144	2.508228063583374
27	82.30723595619202	fix_post	2		12.0	25.0	2.5	/experiments/knapen_aot/videos/S_pexels-kampus-production-6022792.mp4	0.0	135.6378891468048	0.09999990463256836
28	82.40723586082458	fix_pre	0		69.0	26.0	2.5	/experiments/knapen_aot/videos/R_S_yt-26obL-Z5obg_131.mp4	0.0	135.73788905143738	0.574958086013794
28	82.97544980049133	response	0	2		26.0	2.5	/experiments/knapen_aot/videos/R_S_yt-26obL-Z5obg_131.mp4	0.0	136.30610299110413	
28	82.98219394683838	movie	1		301.0	26.0	2.5	/experiments/knapen_aot/videos/R_S_yt-26obL-Z5obg_131.mp4	0.0	136.31284713745117	2.508357048034668
28	85.49055099487305	fix_post	2		12.0	26.0	2.5	/experiments/knapen_aot/videos/R_S_yt-26obL-Z5obg_131.mp4	0.0	138.82120418548584	0.09999489784240723
29	85.59054589271545	fix_pre	0		37.0	27.0	2.5	blank	1.0	138.92119908332825	0.30834102630615234
29	85.89076089859009	response	0	2		27.0	2.5	blank	1.0	139.22141408920288	
29	85.8988869190216	movie	1		301.0	27.0	2.5	blank	1.0	139.2295401096344	2.508296012878418
29	88.40718293190002	fix_post	2		12.0	27.0	2.5	blank	1.0	141.73783612251282	0.10003304481506348
30	88.50721597671509	fix_pre	0		46.0	28.0	2.5	/experiments/knapen_aot/videos/S_ILSVRC2015_train_00318000.mp4	0.0	141.83786916732788	0.383807897567749
30	88.8823127746582	response	0	2		28.0	2.5	/experiments/knapen_aot/videos/S_ILSVRC2015_train_00318000.mp4	0.0	142.212965965271	
30	88.89102387428284	movie	1		301.0	28.0	2.5	/experiments/knapen_aot/videos/S_ILSVRC2015_train_00318000.mp4	0.0	142.22167706489563	2.507812976837158
30	91.39883685112	fix_post	2		12.0	28.0	2.5	/experiments/knapen_aot/videos/S_ILSVRC2015_train_00318000.mp4	0.0	144.7294900417328	0.09993410110473633
31	91.49877095222473	fix_pre	0		38.0	29.0	2.5	/experiments/knapen_aot/videos/S_flickr-slruok-8006772217_6.mp4	0.0	144.82942414283752	0.31667399406433105
31	91.80725288391113	response	0	2		29.0	2.5	/experiments/knapen_aot/videos/S_flickr-slruok-8006772217_6.mp4	0.0	145.13790607452393	
31	91.81544494628906	movie	1		301.0	29.0	2.5	/experiments/knapen_aot/videos/S_flickr-slruok-8006772217_6.mp4	0.0	145.14609813690186	2.5083789825439453
31	94.32382392883301	fix_post	2		12.0	29.0	2.5	/experiments/knapen_aot/videos/S_flickr-slruok-8006772217_6.mp4	0.0	147.6544771194458	0.09999203681945801
32	94.42381596565247	fix_pre	0		46.0	30.0	2.5	/experiments/knapen_aot/videos/R_S_yt-JDHApyT5ngs_128.mp4	0.0	147.75446915626526	0.3838059902191162
32	94.79894995689392	response	0	2		30.0	2.5	/experiments/knapen_aot/videos/R_S_yt-JDHApyT5ngs_128.mp4	0.0	148.1296031475067	
32	94.80762195587158	movie	1		301.0	30.0	2.5	/experiments/knapen_aot/videos/R_S_yt-JDHApyT5ngs_128.mp4	0.0	148.13827514648438	2.5078768730163574
32	97.31549882888794	fix_post	2		12.0	30.0	2.5	/experiments/knapen_aot/videos/R_S_yt-JDHApyT5ngs_128.mp4	0.0	150.64615201950073	0.0998990535736084
33	97.41539788246155	fix_pre	0		42.0	31.0	2.5	/experiments/knapen_aot/videos/S_yt-Y7-umyL036c_507.mp4	0.0	150.74605107307434	0.35050511360168457
33	97.75726389884949	response	0	2		31.0	2.5	/experiments/knapen_aot/videos/S_yt-Y7-umyL036c_507.mp4	0.0	151.08791708946228	
33	97.76590299606323	movie	1		301.0	31.0	2.5	/experiments/knapen_aot/videos/S_yt-Y7-umyL036c_507.mp4	0.0	151.09655618667603	2.507784843444824
33	100.27368783950806	fix_post	2		12.0	31.0	2.5	/experiments/knapen_aot/videos/S_yt-Y7-umyL036c_507.mp4	0.0	153.60434103012085	0.1001119613647461
34	100.3737998008728	fix_pre	0		53.0	32.0	2.5	/experiments/knapen_aot/videos/R_S_production_ID_5139371.mp4	0.0	153.7044529914856	0.44159603118896484
34	100.80724477767944	response	0	2		32.0	2.5	/experiments/knapen_aot/videos/R_S_production_ID_5139371.mp4	0.0	154.13789796829224	
34	100.81539583206177	movie	1		163.0	32.0	2.5	/experiments/knapen_aot/videos/R_S_production_ID_5139371.mp4	0.0	154.14604902267456	2.508373975753784
34	103.32376980781555	fix_post	2		12.0	32.0	2.5	/experiments/knapen_aot/videos/R_S_production_ID_5139371.mp4	0.0	156.65442299842834	0.10001397132873535
35	103.42378377914429	fix_pre	0		46.0	33.0	2.5	blank	1.0	156.75443696975708	0.38375115394592285
35	103.79891586303711	response	0	2		33.0	2.5	blank	1.0	157.1295690536499	
35	103.80753493309021	movie	1		301.0	33.0	2.5	blank	1.0	157.138188123703	2.507878065109253
35	106.31541299819946	fix_post	2		12.0	33.0	2.5	blank	1.0	159.64606618881226	0.09996294975280762
36	106.41537594795227	fix_pre	0		91.0	34.0	2.5	/experiments/knapen_aot/videos/R_S_wc-eJe3wXMgTLRV_20.mp4	0.0	159.74602913856506	0.7583479881286621
36	107.16547179222107	response	0	2		34.0	2.5	/experiments/knapen_aot/videos/R_S_wc-eJe3wXMgTLRV_20.mp4	0.0	160.49612498283386	
36	107.17372393608093	movie	1		162.0	34.0	2.5	/experiments/knapen_aot/videos/R_S_wc-eJe3wXMgTLRV_20.mp4	0.0	160.50437712669373	2.5083789825439453
36	109.68210291862488	fix_post	2		12.0	34.0	2.5	/experiments/knapen_aot/videos/R_S_wc-eJe3wXMgTLRV_20.mp4	0.0	163.01275610923767	0.10013198852539062
37	109.78223490715027	fix_pre	0		63.0	35.0	2.5	/experiments/knapen_aot/videos/R_S_yt-E8EDQCPbBeI_196.mp4	0.0	163.11288809776306	0.5252680778503418
37	110.29887294769287	response	0	2		35.0	2.5	/experiments/knapen_aot/videos/R_S_yt-E8EDQCPbBeI_196.mp4	0.0	163.62952613830566	
37	110.30750298500061	movie	1		301.0	35.0	2.5	/experiments/knapen_aot/videos/R_S_yt-E8EDQCPbBeI_196.mp4	0.0	163.6381561756134	2.507856845855713
37	112.81535983085632	fix_post	2		12.0	35.0	2.5	/experiments/knapen_aot/videos/R_S_yt-E8EDQCPbBeI_196.mp4	0.0	166.14601302146912	0.10001301765441895
38	112.91537284851074	fix_pre	0		69.0	36.0	2.5	/experiments/knapen_aot/videos/S_yt-3EZOeAbiMQE_10.mp4	0.0	166.24602603912354	0.5833659172058105
38	113.49048280715942	response	0	2		36.0	2.5	/experiments/knapen_aot/videos/S_yt-3EZOeAbiMQE_10.mp4	0.0	166.82113599777222	
38	113.49873876571655	movie	1		301.0	36.0	2.5	/experiments/knapen_aot/videos/S_yt-3EZOeAbiMQE_10.mp4	0.0	166.82939195632935	2.5082671642303467
38	116.0070059299469	fix_post	2		12.0	36.0	2.5	/experiments/knapen_aot/videos/S_yt-3EZOeAbiMQE_10.mp4	0.0	169.3376591205597	0.09996199607849121
39	116.10696792602539	fix_pre	0		47.0	37.0	2.5	/experiments/knapen_aot/videos/S_yt-K0CzoUy_uIA_22.mp4	0.0	169.43762111663818	0.39170098304748535
39	116.49047684669495	response	0	2		37.0	2.5	/experiments/knapen_aot/videos/S_yt-K0CzoUy_uIA_22.mp4	0.0	169.82113003730774	
39	116.49866890907288	movie	1		300.0	37.0	2.5	/experiments/knapen_aot/videos/S_yt-K0CzoUy_uIA_22.mp4	0.0	169.82932209968567	2.5083019733428955
39	119.00697088241577	fix_post	2		12.0	37.0	2.5	/experiments/knapen_aot/videos/S_yt-K0CzoUy_uIA_22.mp4	0.0	172.33762407302856	0.10002493858337402
40	119.10699582099915	fix_pre	0		48.0	38.0	2.5	/experiments/knapen_aot/videos/S_ILSVRC2015_train_00042002.mp4	0.0	172.43764901161194	0.3999669551849365
40	119.49887990951538	response	0	2		38.0	2.5	/experiments/knapen_aot/videos/S_ILSVRC2015_train_00042002.mp4	0.0	172.82953310012817	
40	119.50696277618408	movie	1		301.0	38.0	2.5	/experiments/knapen_aot/videos/S_ILSVRC2015_train_00042002.mp4	0.0	172.83761596679688	2.50838303565979
40	122.01534581184387	fix_post	2		12.0	38.0	2.5	/experiments/knapen_aot/videos/S_ILSVRC2015_train_00042002.mp4	0.0	175.34599900245667	0.0999300479888916
41	122.11527585983276	fix_pre	0		67.0	39.0	2.5	/experiments/knapen_aot/videos/R_S_ILSVRC2015_train_00318000.mp4	0.0	175.44592905044556	0.5583710670471191
41	122.66542077064514	response	0	2		39.0	2.5	/experiments/knapen_aot/videos/R_S_ILSVRC2015_train_00318000.mp4	0.0	175.99607396125793	
41	122.67364692687988	movie	1		301.0	39.0	2.5	/experiments/knapen_aot/videos/R_S_ILSVRC2015_train_00318000.mp4	0.0	176.00430011749268	2.5083069801330566
41	125.18195390701294	fix_post	2		12.0	39.0	2.5	/experiments/knapen_aot/videos/R_S_ILSVRC2015_train_00318000.mp4	0.0	178.51260709762573	0.10002589225769043
42	125.28197979927063	fix_pre	0		45.0	40.0	2.5	blank	1.0	178.61263298988342	0.3749570846557617
42	125.64874982833862	response	0	2		40.0	2.5	blank	1.0	178.97940301895142	
42	125.65693688392639	movie	1		301.0	40.0	2.5	blank	1.0	178.98759007453918	2.508357048034668
42	128.16529393196106	fix_post	2		12.0	40.0	2.5	blank	1.0	181.49594712257385	0.10040497779846191
43	128.26569890975952	fix_pre	0		64.0	41.0	2.5	/experiments/knapen_aot/videos/S_yt-cBCeq1NQgj0_1129.mp4	0.0	181.59635210037231	0.5328750610351562
43	128.7828769683838	response	0	2		41.0	2.5	/experiments/knapen_aot/videos/S_yt-cBCeq1NQgj0_1129.mp4	0.0	182.11353015899658	
43	128.79857397079468	movie	1		301.0	41.0	2.5	/experiments/knapen_aot/videos/S_yt-cBCeq1NQgj0_1129.mp4	0.0	182.12922716140747	2.508380889892578
43	131.30695486068726	fix_post	2		12.0	41.0	2.5	/experiments/knapen_aot/videos/S_yt-cBCeq1NQgj0_1129.mp4	0.0	184.63760805130005	0.0999751091003418
44	131.4069299697876	fix_pre	0		60.0	42.0	2.5	/experiments/knapen_aot/videos/R_S_yt-E8EDQCPbBeI_196.mp4	0.0	184.7375831604004	0.4999539852142334
44	131.89867281913757	response	0	2		42.0	2.5	/experiments/knapen_aot/videos/R_S_yt-E8EDQCPbBeI_196.mp4	0.0	185.22932600975037	
44	131.90688395500183	movie	1		297.0	42.0	2.5	/experiments/knapen_aot/videos/R_S_yt-E8EDQCPbBeI_196.mp4	0.0	185.23753714561462	2.508394956588745
44	134.41527891159058	fix_post	2		12.0	42.0	2.5	/experiments/knapen_aot/videos/R_S_yt-E8EDQCPbBeI_196.mp4	0.0	187.74593210220337	0.10035300254821777
45	134.5156319141388	fix_pre	0		63.0	43.0	2.5	/experiments/knapen_aot/videos/S_yt-NuJbedGLcQY_112.mp4	0.0	187.8462851047516	0.5245890617370605
45	135.03198981285095	response	0	2		43.0	2.5	/experiments/knapen_aot/videos/S_yt-NuJbedGLcQY_112.mp4	0.0	188.36264300346375	
45	135.04022097587585	movie	1		301.0	43.0	2.5	/experiments/knapen_aot/videos/S_yt-NuJbedGLcQY_112.mp4	0.0	188.37087416648865	2.5084168910980225
45	137.54863786697388	fix_post	2		12.0	43.0	2.5	/experiments/knapen_aot/videos/S_yt-NuJbedGLcQY_112.mp4	0.0	190.87929105758667	0.09990811347961426
46	137.6485459804535	fix_pre	0		43.0	44.0	2.5	/experiments/knapen_aot/videos/R_S_yt-BW6jWEVbxxk_4.mp4	0.0	190.97919917106628	0.35837483406066895
46	137.99869585037231	response	0	2		44.0	2.5	/experiments/knapen_aot/videos/R_S_yt-BW6jWEVbxxk_4.mp4	0.0	191.3293490409851	
46	138.00692081451416	movie	1		301.0	44.0	2.5	/experiments/knapen_aot/videos/R_S_yt-BW6jWEVbxxk_4.mp4	0.0	191.33757400512695	2.5083229541778564
46	140.51524376869202	fix_post	2		12.0	44.0	2.5	/experiments/knapen_aot/videos/R_S_yt-BW6jWEVbxxk_4.mp4	0.0	193.8458969593048	0.09995412826538086
47	140.6151978969574	fix_pre	0		51.0	45.0	2.5	/experiments/knapen_aot/videos/R_S_ILSVRC2015_train_00408000.mp4	0.0	193.9458510875702	0.42498302459716797
47	141.03198981285095	response	0	2		45.0	2.5	/experiments/knapen_aot/videos/R_S_ILSVRC2015_train_00408000.mp4	0.0	194.36264300346375	
47	141.04018092155457	movie	1		301.0	45.0	2.5	/experiments/knapen_aot/videos/R_S_ILSVRC2015_train_00408000.mp4	0.0	194.37083411216736	2.508314847946167
47	143.54849576950073	fix_post	2		12.0	45.0	2.5	/experiments/knapen_aot/videos/R_S_ILSVRC2015_train_00408000.mp4	0.0	196.87914896011353	0.10003304481506348
48	143.6485288143158	fix_pre	0		30.0	46.0	2.5	/experiments/knapen_aot/videos/R_S_pexels-rodnae-productions-5993237.mp4	0.0	196.9791820049286	0.24994206428527832
48	143.89034986495972	response	0	2		46.0	2.5	/experiments/knapen_aot/videos/R_S_pexels-rodnae-productions-5993237.mp4	0.0	197.2210030555725	
48	143.89847087860107	movie	1		163.0	46.0	2.5	/experiments/knapen_aot/videos/R_S_pexels-rodnae-productions-5993237.mp4	0.0	197.22912406921387	2.508371114730835
48	146.4068419933319	fix_post	2		12.0	46.0	2.5	/experiments/knapen_aot/videos/R_S_pexels-rodnae-productions-5993237.mp4	0.0	199.7374951839447	0.10003995895385742
49	146.50688195228577	fix_pre	0		40.0	47.0	2.5	blank	1.0	199.83753514289856	0.33329081535339355
49	146.83193683624268	response	0	2		47.0	2.5	blank	1.0	200.16259002685547	
49	146.84017276763916	movie	1		301.0	47.0	2.5	blank	1.0	200.17082595825195	2.508549213409424
49	149.34872198104858	fix_post	2		12.0	47.0	2.5	blank	1.0	202.67937517166138	0.09985995292663574
50	149.44858193397522	fix_pre	0		36.0	48.0	2.5	/experiments/knapen_aot/videos/S_ILSVRC2015_train_00411000.mp4	0.0	202.779235124588	0.29990100860595703
50	149.74028992652893	response	0	2		48.0	2.5	/experiments/knapen_aot/videos/S_ILSVRC2015_train_00411000.mp4	0.0	203.07094311714172	
50	149.74848294258118	movie	1		301.0	48.0	2.5	/experiments/knapen_aot/videos/S_ILSVRC2015_train_00411000.mp4	0.0	203.07913613319397	2.5083279609680176
50	152.2568109035492	fix_post	2		12.0	48.0	2.5	/experiments/knapen_aot/videos/S_ILSVRC2015_train_00411000.mp4	0.0	205.587464094162	0.09996986389160156
51	152.3567807674408	fix_pre	0		47.0	49.0	2.5	/experiments/knapen_aot/videos/R_S_yt-gPhlnZG-pRY_4.mp4	0.0	205.6874339580536	0.39165806770324707
51	152.74030900001526	response	0	2		49.0	2.5	/experiments/knapen_aot/videos/R_S_yt-gPhlnZG-pRY_4.mp4	0.0	206.07096219062805	
51	152.74843883514404	movie	1		301.0	49.0	2.5	/experiments/knapen_aot/videos/R_S_yt-gPhlnZG-pRY_4.mp4	0.0	206.07909202575684	2.5083839893341064
51	155.25682282447815	fix_post	2		12.0	49.0	2.5	/experiments/knapen_aot/videos/R_S_yt-gPhlnZG-pRY_4.mp4	0.0	208.58747601509094	0.0999901294708252
52	155.35681295394897	fix_pre	0		35.0	50.0	2.5	/experiments/knapen_aot/videos/R_S_video_inspire_california_vineyard_sierra-mar_sunrise_110.1080-h264.mp4	0.0	208.68746614456177	0.2916419506072998
52	155.64027500152588	response	0	2		50.0	2.5	/experiments/knapen_aot/videos/R_S_video_inspire_california_vineyard_sierra-mar_sunrise_110.1080-h264.mp4	0.0	208.97092819213867	
52	155.64845490455627	movie	1		169.0	50.0	2.5	/experiments/knapen_aot/videos/R_S_video_inspire_california_vineyard_sierra-mar_sunrise_110.1080-h264.mp4	0.0	208.97910809516907	2.5083298683166504
52	158.15678477287292	fix_post	2		12.0	50.0	2.5	/experiments/knapen_aot/videos/R_S_video_inspire_california_vineyard_sierra-mar_sunrise_110.1080-h264.mp4	0.0	211.48743796348572	0.10003900527954102
53	158.25682377815247	fix_pre	0		69.0	51.0	2.5	/experiments/knapen_aot/videos/R_S_yt-wz2opOBqClo_14.mp4	0.0	211.58747696876526	0.5749871730804443
53	158.82363986968994	response	0	2		51.0	2.5	/experiments/knapen_aot/videos/R_S_yt-wz2opOBqClo_14.mp4	0.0	212.15429306030273	
53	158.8318109512329	movie	1		301.0	51.0	2.5	/experiments/knapen_aot/videos/R_S_yt-wz2opOBqClo_14.mp4	0.0	212.1624641418457	2.508389949798584
53	161.3402009010315	fix_post	2		12.0	51.0	2.5	/experiments/knapen_aot/videos/R_S_yt-wz2opOBqClo_14.mp4	0.0	214.6708540916443	0.0999290943145752
54	161.44012999534607	fix_pre	0		39.0	52.0	2.5	/experiments/knapen_aot/videos/R_S_yt-3DM_SqT4RII_10.mp4	0.0	214.77078318595886	0.32513880729675293
54	161.7569658756256	response	0	2		52.0	2.5	/experiments/knapen_aot/videos/R_S_yt-3DM_SqT4RII_10.mp4	0.0	215.0876190662384	
54	161.76526880264282	movie	1		301.0	52.0	2.5	/experiments/knapen_aot/videos/R_S_yt-3DM_SqT4RII_10.mp4	0.0	215.09592199325562	2.5082039833068848
54	164.2734727859497	fix_post	2		12.0	52.0	2.5	/experiments/knapen_aot/videos/R_S_yt-3DM_SqT4RII_10.mp4	0.0	217.6041259765625	0.10000205039978027
55	164.3734748363495	fix_pre	0		25.0	53.0	2.5	/experiments/knapen_aot/videos/S_yt-jYSri2JVUqo_1036.mp4	0.0	217.70412802696228	0.20838093757629395
55	164.57359385490417	response	0	2		53.0	2.5	/experiments/knapen_aot/videos/S_yt-jYSri2JVUqo_1036.mp4	0.0	217.90424704551697	
55	164.58185577392578	movie	1		301.0	53.0	2.5	/experiments/knapen_aot/videos/S_yt-jYSri2JVUqo_1036.mp4	0.0	217.91250896453857	2.508303165435791
55	167.09015893936157	fix_post	2		12.0	53.0	2.5	/experiments/knapen_aot/videos/S_yt-jYSri2JVUqo_1036.mp4	0.0	220.42081212997437	0.09992790222167969
56	167.19008684158325	fix_pre	0		45.0	54.0	2.5	/experiments/knapen_aot/videos/R_S_yt-ObT9gF8E_tU_250.mp4	0.0	220.52074003219604	0.37502193450927734
56	167.556902885437	response	0	2		54.0	2.5	/experiments/knapen_aot/videos/R_S_yt-ObT9gF8E_tU_250.mp4	0.0	220.8875560760498	
56	167.56510877609253	movie	1		301.0	54.0	2.5	/experiments/knapen_aot/videos/R_S_yt-ObT9gF8E_tU_250.mp4	0.0	220.89576196670532	2.508369207382202
56	170.07347798347473	fix_post	2		12.0	54.0	2.5	/experiments/knapen_aot/videos/R_S_yt-ObT9gF8E_tU_250.mp4	0.0	223.40413117408752	0.10003900527954102
57	170.17351698875427	fix_pre	0		27.0	55.0	2.5	blank	1.0	223.50417017936707	0.22489380836486816
57	170.39024186134338	response	0	2		55.0	2.5	blank	1.0	223.72089505195618	
57	170.39841079711914	movie	1		301.0	55.0	2.5	blank	1.0	223.72906398773193	2.508308172225952
57	172.9067189693451	fix_post	2		12.0	55.0	2.5	blank	1.0	226.23737215995789	0.10004281997680664
58	173.0067617893219	fix_pre	0		51.0	56.0	2.5	/experiments/knapen_aot/videos/S_yt-gmiyqQDGN78_7.mp4	0.0	226.3374149799347	0.4251902103424072
58	173.423583984375	response	0	2		56.0	2.5	/experiments/knapen_aot/videos/S_yt-gmiyqQDGN78_7.mp4	0.0	226.7542371749878	
58	173.4319519996643	movie	1		301.0	56.0	2.5	/experiments/knapen_aot/videos/S_yt-gmiyqQDGN78_7.mp4	0.0	226.7626051902771	2.5081398487091064
58	175.9400918483734	fix_post	2		12.0	56.0	2.5	/experiments/knapen_aot/videos/S_yt-gmiyqQDGN78_7.mp4	0.0	229.2707450389862	0.09996700286865234
59	176.04005885124207	fix_pre	0		51.0	57.0	2.5	/experiments/knapen_aot/videos/S_yt-NuJbedGLcQY_112.mp4	0.0	229.37071204185486	0.4250190258026123
59	176.4568908214569	response	0	2		57.0	2.5	/experiments/knapen_aot/videos/S_yt-NuJbedGLcQY_112.mp4	0.0	229.7875440120697	
59	176.46507787704468	movie	1		301.0	57.0	2.5	/experiments/knapen_aot/videos/S_yt-NuJbedGLcQY_112.mp4	0.0	229.79573106765747	2.508397102355957
59	178.97347497940063	fix_post	2		12.0	57.0	2.5	/experiments/knapen_aot/videos/S_yt-NuJbedGLcQY_112.mp4	0.0	232.30412817001343	0.0999298095703125
60	179.07340478897095	fix_pre	0		58.0	58.0	2.5	/experiments/knapen_aot/videos/R_S_G008_C015_UHD_SDR_2K_AVC.mp4	0.0	232.40405797958374	0.4833261966705322
60	179.54850888252258	response	0	2		58.0	2.5	/experiments/knapen_aot/videos/R_S_G008_C015_UHD_SDR_2K_AVC.mp4	0.0	232.87916207313538	
60	179.55673098564148	movie	1		175.0	58.0	2.5	/experiments/knapen_aot/videos/R_S_G008_C015_UHD_SDR_2K_AVC.mp4	0.0	232.88738417625427	2.508283853530884
60	182.06501483917236	fix_post	2		12.0	58.0	2.5	/experiments/knapen_aot/videos/R_S_G008_C015_UHD_SDR_2K_AVC.mp4	0.0	235.39566802978516	0.09989595413208008
61	182.16491079330444	fix_pre	0		50.0	59.0	2.5	/experiments/knapen_aot/videos/S_ILSVRC2015_train_00697001.mp4	0.0	235.49556398391724	0.4167630672454834
61	182.5734739303589	response	0	2		59.0	2.5	/experiments/knapen_aot/videos/S_ILSVRC2015_train_00697001.mp4	0.0	235.90412712097168	
61	182.58167386054993	movie	1		301.0	59.0	2.5	/experiments/knapen_aot/videos/S_ILSVRC2015_train_00697001.mp4	0.0	235.91232705116272	2.508319139480591
61	185.08999300003052	fix_post	2		12.0	59.0	2.5	/experiments/knapen_aot/videos/S_ILSVRC2015_train_00697001.mp4	0.0	238.4206461906433	0.09994888305664062
62	185.18994188308716	fix_pre	0		65.0	60.0	2.5	/experiments/knapen_aot/videos/S_yt-y2RUPYKfBZs_12.mp4	0.0	238.52059507369995	0.5417070388793945
62	185.72348594665527	response	0	2		60.0	2.5	/experiments/knapen_aot/videos/S_yt-y2RUPYKfBZs_12.mp4	0.0	239.05413913726807	
62	185.73164892196655	movie	1		301.0	60.0	2.5	/experiments/knapen_aot/videos/S_yt-y2RUPYKfBZs_12.mp4	0.0	239.06230211257935	2.5083420276641846
62	188.23999094963074	fix_post	2		12.0	60.0	2.5	/experiments/knapen_aot/videos/S_yt-y2RUPYKfBZs_12.mp4	0.0	241.57064414024353	0.09994792938232422
63	188.33993887901306	fix_pre	0		75.0	61.0	2.5	blank	1.0	241.67059206962585	0.6250400543212891
63	188.95684099197388	response	0	2		61.0	2.5	blank	1.0	242.28749418258667	
63	188.96497893333435	movie	1		301.0	61.0	2.5	blank	1.0	242.29563212394714	2.5083229541778564
63	191.4733018875122	fix_post	2		12.0	61.0	2.5	blank	1.0	244.803955078125	0.10001301765441895
64	191.57331490516663	fix_pre	0		70.0	62.0	2.5	/experiments/knapen_aot/videos/R_S_ILSVRC2015_train_00067003.mp4	0.0	244.90396809577942	0.5833299160003662
64	192.14832377433777	response	0	2		62.0	2.5	/experiments/knapen_aot/videos/R_S_ILSVRC2015_train_00067003.mp4	0.0	245.47897696495056	
64	192.156644821167	movie	1		301.0	62.0	2.5	/experiments/knapen_aot/videos/R_S_ILSVRC2015_train_00067003.mp4	0.0	245.48729801177979	2.508331060409546
64	194.66497588157654	fix_post	2		12.0	62.0	2.5	/experiments/knapen_aot/videos/R_S_ILSVRC2015_train_00067003.mp4	0.0	247.99562907218933	0.10000896453857422
65	194.7649848461151	fix_pre	0		66.0	63.0	2.5	/experiments/knapen_aot/videos/R_S_G008_C015_UHD_SDR_2K_AVC.mp4	0.0	248.0956380367279	0.5499720573425293
65	195.2992799282074	response	0	2		63.0	2.5	/experiments/knapen_aot/videos/R_S_G008_C015_UHD_SDR_2K_AVC.mp4	0.0	248.6299331188202	
65	195.31495690345764	movie	1		185.0	63.0	2.5	/experiments/knapen_aot/videos/R_S_G008_C015_UHD_SDR_2K_AVC.mp4	0.0	248.64561009407043	2.508342981338501
65	197.82329988479614	fix_post	2		12.0	63.0	2.5	/experiments/knapen_aot/videos/R_S_G008_C015_UHD_SDR_2K_AVC.mp4	0.0	251.15395307540894	0.09996604919433594
66	197.92326593399048	fix_pre	0		48.0	64.0	2.5	/experiments/knapen_aot/videos/R_S_yt-z68VLDDCFdw_93.mp4	0.0	251.25391912460327	0.40001702308654785
66	198.3151397705078	response	0	2		64.0	2.5	/experiments/knapen_aot/videos/R_S_yt-z68VLDDCFdw_93.mp4	0.0	251.6457929611206	
66	198.32328295707703	movie	1		301.0	64.0	2.5	/experiments/knapen_aot/videos/R_S_yt-z68VLDDCFdw_93.mp4	0.0	251.65393614768982	2.5083630084991455
66	200.83164596557617	fix_post	2		12.0	64.0	2.5	/experiments/knapen_aot/videos/R_S_yt-z68VLDDCFdw_93.mp4	0.0	254.16229915618896	0.10000300407409668
67	200.93164896965027	fix_pre	0		45.0	65.0	2.5	/experiments/knapen_aot/videos/S_video_inspire_california_vineyard_sierra-mar_sunrise_110.1080-h264.mp4	0.0	254.26230216026306	0.3749430179595947
67	201.2984459400177	response	0	2		65.0	2.5	/experiments/knapen_aot/videos/S_video_inspire_california_vineyard_sierra-mar_sunrise_110.1080-h264.mp4	0.0	254.6290991306305	
67	201.30659198760986	movie	1		165.0	65.0	2.5	/experiments/knapen_aot/videos/S_video_inspire_california_vineyard_sierra-mar_sunrise_110.1080-h264.mp4	0.0	254.63724517822266	2.508356809616089
67	203.81494879722595	fix_post	2		12.0	65.0	2.5	/experiments/knapen_aot/videos/S_video_inspire_california_vineyard_sierra-mar_sunrise_110.1080-h264.mp4	0.0	257.14560198783875	0.10000014305114746
68	203.9149489402771	fix_pre	0		78.0	66.0	2.5	/experiments/knapen_aot/videos/S_yt-mWlx1SIXl5M_850.mp4	0.0	257.2456021308899	0.6499419212341309
68	204.55671381950378	response	0	2		66.0	2.5	/experiments/knapen_aot/videos/S_yt-mWlx1SIXl5M_850.mp4	0.0	257.8873670101166	
68	204.56489086151123	movie	1		297.0	66.0	2.5	/experiments/knapen_aot/videos/S_yt-mWlx1SIXl5M_850.mp4	0.0	257.895544052124	2.5083229541778564
68	207.0732138156891	fix_post	2		12.0	66.0	2.5	/experiments/knapen_aot/videos/S_yt-mWlx1SIXl5M_850.mp4	0.0	260.4038670063019	0.10013198852539062
69	207.17334580421448	fix_pre	0		70.0	67.0	2.5	/experiments/knapen_aot/videos/R_S_yt-0MB_IYX1fgo_44.mp4	0.0	260.50399899482727	0.583172082901001
69	207.74834084510803	response	0	2		67.0	2.5	/experiments/knapen_aot/videos/R_S_yt-0MB_IYX1fgo_44.mp4	0.0	261.0789940357208	
69	207.75651788711548	movie	1		301.0	67.0	2.5	/experiments/knapen_aot/videos/R_S_yt-0MB_IYX1fgo_44.mp4	0.0	261.08717107772827	2.5083999633789062
69	210.26491785049438	fix_post	2		12.0	67.0	2.5	/experiments/knapen_aot/videos/R_S_yt-0MB_IYX1fgo_44.mp4	0.0	263.5955710411072	0.09998703002929688
70	210.36490488052368	fix_pre	0		66.0	68.0	2.5	blank	1.0	263.6955580711365	0.549915075302124
70	210.9066457748413	response	0	2		68.0	2.5	blank	1.0	264.2372989654541	
70	210.9148199558258	movie	1		301.0	68.0	2.5	blank	1.0	264.2454731464386	2.5083839893341064
70	213.4232039451599	fix_post	2		12.0	68.0	2.5	blank	1.0	266.7538571357727	0.10001683235168457
71	213.5232207775116	fix_pre	0		33.0	69.0	2.5	/experiments/knapen_aot/videos/S_yt-dESxu60Cl10_24.mp4	0.0	266.8538739681244	0.2832942008972168
71	213.79831099510193	response	0	2		69.0	2.5	/experiments/knapen_aot/videos/S_yt-dESxu60Cl10_24.mp4	0.0	267.1289641857147	
71	213.8065149784088	movie	1		301.0	69.0	2.5	/experiments/knapen_aot/videos/S_yt-dESxu60Cl10_24.mp4	0.0	267.1371681690216	2.5083417892456055
71	216.31485676765442	fix_post	2		12.0	69.0	2.5	/experiments/knapen_aot/videos/S_yt-dESxu60Cl10_24.mp4	0.0	269.6455099582672	0.09992504119873047
72	216.41478180885315	fix_pre	0		39.0	70.0	2.5	/experiments/knapen_aot/videos/R_S_yt-jy7rAnpu0u8_128.mp4	0.0	269.74543499946594	0.32510900497436523
72	216.73167490959167	response	0	2		70.0	2.5	/experiments/knapen_aot/videos/R_S_yt-jy7rAnpu0u8_128.mp4	0.0	270.06232810020447	
72	216.73989081382751	movie	1		300.0	70.0	2.5	/experiments/knapen_aot/videos/R_S_yt-jy7rAnpu0u8_128.mp4	0.0	270.0705440044403	2.5083110332489014
72	219.24820184707642	fix_post	2		12.0	70.0	2.5	/experiments/knapen_aot/videos/R_S_yt-jy7rAnpu0u8_128.mp4	0.0	272.5788550376892	0.09997701644897461
73	219.3481788635254	fix_pre	0		50.0	71.0	2.5	/experiments/knapen_aot/videos/R_S_yt-dESxu60Cl10_24.mp4	0.0	272.6788320541382	0.41655898094177246
73	219.75669598579407	response	0	2		71.0	2.5	/experiments/knapen_aot/videos/R_S_yt-dESxu60Cl10_24.mp4	0.0	273.08734917640686	
73	219.76473784446716	movie	1		301.0	71.0	2.5	/experiments/knapen_aot/videos/R_S_yt-dESxu60Cl10_24.mp4	0.0	273.09539103507996	2.5085110664367676
73	222.27324891090393	fix_post	2		12.0	71.0	2.5	/experiments/knapen_aot/videos/R_S_yt-dESxu60Cl10_24.mp4	0.0	275.6039021015167	0.0999760627746582
74	222.3732249736786	fix_pre	0		111.0	72.0	2.5	/experiments/knapen_aot/videos/S_yt-pB9w3AA-woE_37.mp4	0.0	275.7038781642914	0.9261248111724854
74	223.28988790512085	response	0	2		72.0	2.5	/experiments/knapen_aot/videos/S_yt-pB9w3AA-woE_37.mp4	0.0	276.62054109573364	
74	223.29934978485107	movie	1		301.0	72.0	2.5	/experiments/knapen_aot/videos/S_yt-pB9w3AA-woE_37.mp4	0.0	276.63000297546387	2.5070981979370117
74	225.8064479827881	fix_post	2		12.0	72.0	2.5	/experiments/knapen_aot/videos/S_yt-pB9w3AA-woE_37.mp4	0.0	279.1371011734009	0.10000085830688477
75	225.90644884109497	fix_pre	0		61.0	73.0	2.5	/experiments/knapen_aot/videos/S_yt-dESxu60Cl10_24.mp4	0.0	279.23710203170776	0.5082650184631348
75	226.4065899848938	response	0	2		73.0	2.5	/experiments/knapen_aot/videos/S_yt-dESxu60Cl10_24.mp4	0.0	279.7372431755066	
75	226.4147138595581	movie	1		301.0	73.0	2.5	/experiments/knapen_aot/videos/S_yt-dESxu60Cl10_24.mp4	0.0	279.7453670501709	2.5084121227264404
75	228.92312598228455	fix_post	2		12.0	73.0	2.5	/experiments/knapen_aot/videos/S_yt-dESxu60Cl10_24.mp4	0.0	282.25377917289734	0.09999394416809082
76	229.02311992645264	fix_pre	0		121.0	74.0	2.5	/experiments/knapen_aot/videos/R_S_yt-pB9w3AA-woE_37.mp4	0.0	282.35377311706543	1.0083069801330566
76	230.0233268737793	response	0	2		74.0	2.5	/experiments/knapen_aot/videos/R_S_yt-pB9w3AA-woE_37.mp4	0.0	283.3539800643921	
76	230.0314269065857	movie	1		301.0	74.0	2.5	/experiments/knapen_aot/videos/R_S_yt-pB9w3AA-woE_37.mp4	0.0	283.3620800971985	2.508405923843384
76	232.53983283042908	fix_post	2		12.0	74.0	2.5	/experiments/knapen_aot/videos/R_S_yt-pB9w3AA-woE_37.mp4	0.0	285.87048602104187	0.09998297691345215
77	232.63981580734253	fix_pre	0		42.0	75.0	2.5	/experiments/knapen_aot/videos/S_g201_TH_804_A001_8_SDR_20191031_SDR_2K_AVC.mp4	0.0	285.9704689979553	0.3500089645385742
77	232.9816598892212	response	0	2		75.0	2.5	/experiments/knapen_aot/videos/S_g201_TH_804_A001_8_SDR_20191031_SDR_2K_AVC.mp4	0.0	286.312313079834	
77	232.9898247718811	movie	1		163.0	75.0	2.5	/experiments/knapen_aot/videos/S_g201_TH_804_A001_8_SDR_20191031_SDR_2K_AVC.mp4	0.0	286.3204779624939	2.508352041244507
77	235.4981768131256	fix_post	2		12.0	75.0	2.5	/experiments/knapen_aot/videos/S_g201_TH_804_A001_8_SDR_20191031_SDR_2K_AVC.mp4	0.0	288.8288300037384	0.09995913505554199
78	235.59813594818115	fix_pre	0		96.0	76.0	2.5	blank	1.0	288.92878913879395	0.7999119758605957
78	236.3898937702179	response	0	2		76.0	2.5	blank	1.0	289.7205469608307	
78	236.39804792404175	movie	1		301.0	76.0	2.5	blank	1.0	289.72870111465454	2.508441925048828
78	238.90648984909058	fix_post	2		12.0	76.0	2.5	blank	1.0	292.23714303970337	0.09991192817687988
79	239.00640177726746	fix_pre	0		64.0	77.0	2.5	/experiments/knapen_aot/videos/R_S_flickr-53807584@N00-5565833509_7.mp4	0.0	292.33705496788025	0.5333671569824219
79	239.53160095214844	response	0	2		77.0	2.5	/experiments/knapen_aot/videos/R_S_flickr-53807584@N00-5565833509_7.mp4	0.0	292.86225414276123	
79	239.53976893424988	movie	1		301.0	77.0	2.5	/experiments/knapen_aot/videos/R_S_flickr-53807584@N00-5565833509_7.mp4	0.0	292.87042212486267	2.5083210468292236
79	242.0480899810791	fix_post	2		12.0	77.0	2.5	/experiments/knapen_aot/videos/R_S_flickr-53807584@N00-5565833509_7.mp4	0.0	295.3787431716919	0.10001397132873535
80	242.14810395240784	fix_pre	0		75.0	78.0	2.5	/experiments/knapen_aot/videos/R_S_yt-oVS_k_9upmo_205.mp4	0.0	295.47875714302063	0.6249678134918213
80	242.76495480537415	response	0	2		78.0	2.5	/experiments/knapen_aot/videos/R_S_yt-oVS_k_9upmo_205.mp4	0.0	296.09560799598694	
80	242.77307176589966	movie	1		301.0	78.0	2.5	/experiments/knapen_aot/videos/R_S_yt-oVS_k_9upmo_205.mp4	0.0	296.10372495651245	2.5083460807800293
80	245.2814178466797	fix_post	2		12.0	78.0	2.5	/experiments/knapen_aot/videos/R_S_yt-oVS_k_9upmo_205.mp4	0.0	298.6120710372925	0.09997105598449707
81	245.38138890266418	fix_pre	0		40.0	79.0	2.5	/experiments/knapen_aot/videos/R_S_yt-jYSri2JVUqo_1036.mp4	0.0	298.712042093277	0.33440494537353516
81	245.70647978782654	response	0	2		79.0	2.5	/experiments/knapen_aot/videos/R_S_yt-jYSri2JVUqo_1036.mp4	0.0	299.03713297843933	
81	245.71579384803772	movie	1		301.0	79.0	2.5	/experiments/knapen_aot/videos/R_S_yt-jYSri2JVUqo_1036.mp4	0.0	299.0464470386505	2.5072600841522217
81	248.22305393218994	fix_post	2		12.0	79.0	2.5	/experiments/knapen_aot/videos/R_S_yt-jYSri2JVUqo_1036.mp4	0.0	301.55370712280273	0.09994387626647949
82	248.32299780845642	fix_pre	0		55.0	80.0	2.5	/experiments/knapen_aot/videos/S_yt-sWJc_Do8EaI_32.mp4	0.0	301.6536509990692	0.4583780765533447
82	248.77316689491272	response	0	2		80.0	2.5	/experiments/knapen_aot/videos/S_yt-sWJc_Do8EaI_32.mp4	0.0	302.1038200855255	
82	248.78137588500977	movie	1		301.0	80.0	2.5	/experiments/knapen_aot/videos/S_yt-sWJc_Do8EaI_32.mp4	0.0	302.11202907562256	2.5083460807800293
82	251.2897219657898	fix_post	2		12.0	80.0	2.5	/experiments/knapen_aot/videos/S_yt-sWJc_Do8EaI_32.mp4	0.0	304.6203751564026	0.09995102882385254
83	251.38967299461365	fix_pre	0		44.0	81.0	2.5	/experiments/knapen_aot/videos/R_S_59eT4XDXNno_25.mp4	0.0	304.72032618522644	0.3677048683166504
83	251.74822092056274	response	0	2		81.0	2.5	/experiments/knapen_aot/videos/R_S_59eT4XDXNno_25.mp4	0.0	305.07887411117554	
83	251.7573778629303	movie	1		301.0	81.0	2.5	/experiments/knapen_aot/videos/R_S_59eT4XDXNno_25.mp4	0.0	305.0880310535431	2.5073180198669434
83	254.26469588279724	fix_post	2		12.0	81.0	2.5	/experiments/knapen_aot/videos/R_S_59eT4XDXNno_25.mp4	0.0	307.59534907341003	0.10003089904785156
84	254.3647267818451	fix_pre	0		88.0	82.0	2.5	/experiments/knapen_aot/videos/S_yt-25xuzTBhwPk_109.mp4	0.0	307.6953799724579	0.7332921028137207
84	255.0898368358612	response	0	2		82.0	2.5	/experiments/knapen_aot/videos/S_yt-25xuzTBhwPk_109.mp4	0.0	308.420490026474	
84	255.0980188846588	movie	1		301.0	82.0	2.5	/experiments/knapen_aot/videos/S_yt-25xuzTBhwPk_109.mp4	0.0	308.4286720752716	2.50838303565979
84	257.6064019203186	fix_post	2		12.0	82.0	2.5	/experiments/knapen_aot/videos/S_yt-25xuzTBhwPk_109.mp4	0.0	310.9370551109314	0.09998202323913574
85	257.70638394355774	fix_pre	0		81.0	83.0	2.5	blank	1.0	311.03703713417053	0.6749818325042725
85	258.3731908798218	response	0	2		83.0	2.5	blank	1.0	311.70384407043457	
85	258.381365776062	movie	1		301.0	83.0	2.5	blank	1.0	311.7120189666748	2.5083260536193848
85	260.8896918296814	fix_post	2		12.0	83.0	2.5	blank	1.0	314.2203450202942	0.09998512268066406
87	260.98967695236206	stim	0		80.0					314.32033014297485	0.6704440116882324
87	261.6525719165802	response	0	space						314.983225107193	
