trial_nr	onset	event_type	phase	response	nr_frames	movie_index	movie_duration	movie_file	blank	onset_abs	duration
0	0.1569199562072754	stim	0		58.0					64.52981901168823	0.48342394828796387
0	0.6321310997009277	response	0	space						65.00503015518188	
1	0.6403439044952393	stim	0		121.0					65.0132429599762	1.008105993270874
1	1.2817809581756592	response	0	space						65.65468001365662	
1	1.6484498977661133	stim	1		120.0					66.02134895324707	0.9996621608734131
1	1.8316071033477783	response	1	space						66.20450615882874	
1	2.323183059692383	response	1	space						66.69608211517334	
2	2.6481120586395264	fix_pre	0		20.0	0.0	2.5	/experiments/knapen_aot/videos/S_yt-s73Xqkcq9Js_285.mp4	0.0	67.02101111412048	0.16666889190673828
2	2.806602954864502	response	0	space		0.0	2.5	/experiments/knapen_aot/videos/S_yt-s73Xqkcq9Js_285.mp4	0.0	67.17950201034546	
2	2.8147809505462646	movie	1		301.0	0.0	2.5	/experiments/knapen_aot/videos/S_yt-s73Xqkcq9Js_285.mp4	0.0	67.18768000602722	2.5082099437713623
2	5.322990894317627	fix_post	2		12.0	0.0	2.5	/experiments/knapen_aot/videos/S_yt-s73Xqkcq9Js_285.mp4	0.0	69.69588994979858	0.10021305084228516
3	5.423203945159912	fix_pre	0		30.0	1.0	2.5	/experiments/knapen_aot/videos/S_yt-k-MRlbCOzZU_163.mp4	0.0	69.79610300064087	0.24999713897705078
3	5.666562080383301	response	0	2		1.0	2.5	/experiments/knapen_aot/videos/S_yt-k-MRlbCOzZU_163.mp4	0.0	70.03946113586426	
3	5.673201084136963	movie	1		301.0	1.0	2.5	/experiments/knapen_aot/videos/S_yt-k-MRlbCOzZU_163.mp4	0.0	70.04610013961792	2.508162021636963
3	8.181363105773926	fix_post	2		12.0	1.0	2.5	/experiments/knapen_aot/videos/S_yt-k-MRlbCOzZU_163.mp4	0.0	72.55426216125488	0.10007286071777344
4	8.2814359664917	fix_pre	0		9.0	2.0	2.5	/experiments/knapen_aot/videos/S_ILSVRC2015_train_00322000.mp4	0.0	72.65433502197266	0.0750129222869873
4	8.34819507598877	response	0	2		2.0	2.5	/experiments/knapen_aot/videos/S_ILSVRC2015_train_00322000.mp4	0.0	72.72109413146973	
4	8.356448888778687	movie	1		301.0	2.0	2.5	/experiments/knapen_aot/videos/S_ILSVRC2015_train_00322000.mp4	0.0	72.72934794425964	2.5083072185516357
4	10.864756107330322	fix_post	2		12.0	2.0	2.5	/experiments/knapen_aot/videos/S_ILSVRC2015_train_00322000.mp4	0.0	75.23765516281128	0.10007500648498535
5	10.964831113815308	fix_pre	0		2.0	3.0	2.5	/experiments/knapen_aot/videos/S_yt-ebzrQh5ErI4_3.mp4	0.0	75.33773016929626	0.016830921173095703
5	10.967360019683838	response	0	2		3.0	2.5	/experiments/knapen_aot/videos/S_yt-ebzrQh5ErI4_3.mp4	0.0	75.3402590751648	
5	10.981662034988403	movie	1		301.0	3.0	2.5	/experiments/knapen_aot/videos/S_yt-ebzrQh5ErI4_3.mp4	0.0	75.35456109046936	2.5080759525299072
5	13.48973798751831	fix_post	2		12.0	3.0	2.5	/experiments/knapen_aot/videos/S_yt-ebzrQh5ErI4_3.mp4	0.0	77.86263704299927	0.10020995140075684
6	13.589947938919067	fix_pre	0		3.0	4.0	2.5	/experiments/knapen_aot/videos/R_S_yt-aTEGTeQuDWM_93.mp4	0.0	77.96284699440002	0.024729013442993164
6	13.60650897026062	response	0	2		4.0	2.5	/experiments/knapen_aot/videos/R_S_yt-aTEGTeQuDWM_93.mp4	0.0	77.97940802574158	
6	13.61467695236206	movie	1		300.0	4.0	2.5	/experiments/knapen_aot/videos/R_S_yt-aTEGTeQuDWM_93.mp4	0.0	77.98757600784302	2.508303165435791
6	16.12298011779785	fix_post	2		12.0	4.0	2.5	/experiments/knapen_aot/videos/R_S_yt-aTEGTeQuDWM_93.mp4	0.0	80.49587917327881	0.10004377365112305
7	16.223023891448975	fix_pre	0		17.0	5.0	2.5	/experiments/knapen_aot/videos/S_ILSVRC2015_train_00405001.mp4	0.0	80.59592294692993	0.1416490077972412
7	16.356547117233276	response	0	2		5.0	2.5	/experiments/knapen_aot/videos/S_ILSVRC2015_train_00405001.mp4	0.0	80.72944617271423	
7	16.364672899246216	movie	1		301.0	5.0	2.5	/experiments/knapen_aot/videos/S_ILSVRC2015_train_00405001.mp4	0.0	80.73757195472717	2.5083301067352295
7	18.873003005981445	fix_post	2		12.0	5.0	2.5	/experiments/knapen_aot/videos/S_ILSVRC2015_train_00405001.mp4	0.0	83.2459020614624	0.09998106956481934
8	18.972984075546265	fix_pre	0		10.0	6.0	2.5	blank	1.0	83.34588313102722	0.08334088325500488
8	19.048157930374146	response	0	2		6.0	2.5	blank	1.0	83.4210569858551	
8	19.05632495880127	movie	1		301.0	6.0	2.5	blank	1.0	83.42922401428223	2.5083961486816406
8	21.56472110748291	fix_post	2		12.0	6.0	2.5	blank	1.0	85.93762016296387	0.09999799728393555
9	21.664719104766846	fix_pre	0		12.0	7.0	2.5	/experiments/knapen_aot/videos/S_ILSVRC2015_train_00378000.mp4	0.0	86.0376181602478	0.10000395774841309
9	21.749138116836548	response	0	2		7.0	2.5	/experiments/knapen_aot/videos/S_ILSVRC2015_train_00378000.mp4	0.0	86.1220371723175	
9	21.76472306251526	movie	1		300.0	7.0	2.5	/experiments/knapen_aot/videos/S_ILSVRC2015_train_00378000.mp4	0.0	86.13762211799622	2.5082499980926514
9	24.27297306060791	fix_post	2		12.0	7.0	2.5	/experiments/knapen_aot/videos/S_ILSVRC2015_train_00378000.mp4	0.0	88.64587211608887	0.09999704360961914
9	24.34810209274292	response	2	2		7.0	2.5	/experiments/knapen_aot/videos/S_ILSVRC2015_train_00378000.mp4	0.0	88.72100114822388	
10	24.37297010421753	fix_pre	0		41.0	8.0	2.5	/experiments/knapen_aot/videos/R_S_yt-J_FnFAl1uL0_143.mp4	0.0	88.74586915969849	0.3417229652404785
10	24.706439971923828	response	0	2		8.0	2.5	/experiments/knapen_aot/videos/R_S_yt-J_FnFAl1uL0_143.mp4	0.0	89.07933902740479	
10	24.714693069458008	movie	1		301.0	8.0	2.5	/experiments/knapen_aot/videos/R_S_yt-J_FnFAl1uL0_143.mp4	0.0	89.08759212493896	2.5085248947143555
10	27.223217964172363	fix_post	2		12.0	8.0	2.5	/experiments/knapen_aot/videos/R_S_yt-J_FnFAl1uL0_143.mp4	0.0	91.59611701965332	0.0998079776763916
11	27.323025941848755	fix_pre	0		9.0	9.0	2.5	/experiments/knapen_aot/videos/R_S_yt-R-SETZtYWaA_336.mp4	0.0	91.69592499732971	0.07496309280395508
11	27.38981604576111	response	0	2		9.0	2.5	/experiments/knapen_aot/videos/R_S_yt-R-SETZtYWaA_336.mp4	0.0	91.76271510124207	
11	27.39798903465271	movie	1		301.0	9.0	2.5	/experiments/knapen_aot/videos/R_S_yt-R-SETZtYWaA_336.mp4	0.0	91.77088809013367	2.5082900524139404
11	29.492595911026	response	1	2		9.0	2.5	/experiments/knapen_aot/videos/R_S_yt-R-SETZtYWaA_336.mp4	0.0	93.86549496650696	
11	29.79803705215454	response	1	2		9.0	2.5	/experiments/knapen_aot/videos/R_S_yt-R-SETZtYWaA_336.mp4	0.0	94.1709361076355	
11	29.90627908706665	fix_post	2		12.0	9.0	2.5	/experiments/knapen_aot/videos/R_S_yt-R-SETZtYWaA_336.mp4	0.0	94.27917814254761	0.10004281997680664
12	30.006321907043457	fix_pre	0		7.0	10.0	2.5	/experiments/knapen_aot/videos/R_S_yt-CLX1rmSf2Rs_194.mp4	0.0	94.37922096252441	0.05832099914550781
12	30.056493997573853	response	0	2		10.0	2.5	/experiments/knapen_aot/videos/R_S_yt-CLX1rmSf2Rs_194.mp4	0.0	94.42939305305481	
12	30.064642906188965	movie	1		301.0	10.0	2.5	/experiments/knapen_aot/videos/R_S_yt-CLX1rmSf2Rs_194.mp4	0.0	94.43754196166992	2.508352041244507
12	32.57299494743347	fix_post	2		12.0	10.0	2.5	/experiments/knapen_aot/videos/R_S_yt-CLX1rmSf2Rs_194.mp4	0.0	96.94589400291443	0.0999441146850586
13	32.67293906211853	fix_pre	0		9.0	11.0	2.5	/experiments/knapen_aot/videos/S_WCwb-DeQOSg_85.mp4	0.0	97.04583811759949	0.076416015625
13	32.74012804031372	response	0	2		11.0	2.5	/experiments/knapen_aot/videos/S_WCwb-DeQOSg_85.mp4	0.0	97.11302709579468	
13	32.74935507774353	movie	1		301.0	11.0	2.5	/experiments/knapen_aot/videos/S_WCwb-DeQOSg_85.mp4	0.0	97.12225413322449	2.5069010257720947
13	35.256256103515625	fix_post	2		12.0	11.0	2.5	/experiments/knapen_aot/videos/S_WCwb-DeQOSg_85.mp4	0.0	99.62915515899658	0.10005998611450195
14	35.35631608963013	fix_pre	0		18.0	12.0	2.5	blank	1.0	99.72921514511108	0.14996886253356934
14	35.498116970062256	response	0	2		12.0	2.5	blank	1.0	99.87101602554321	
14	35.506284952163696	movie	1		301.0	12.0	2.5	blank	1.0	99.87918400764465	2.5083160400390625
14	38.01460099220276	fix_post	2		12.0	12.0	2.5	blank	1.0	102.38750004768372	0.10002899169921875
15	38.11462998390198	fix_pre	0		18.0	13.0	2.5	/experiments/knapen_aot/videos/S_ILSVRC2015_train_00569002.mp4	0.0	102.48752903938293	0.14988207817077637
15	38.25640106201172	response	0	2		13.0	2.5	/experiments/knapen_aot/videos/S_ILSVRC2015_train_00569002.mp4	0.0	102.62930011749268	
15	38.264512062072754	movie	1		301.0	13.0	2.5	/experiments/knapen_aot/videos/S_ILSVRC2015_train_00569002.mp4	0.0	102.63741111755371	2.508453845977783
15	40.77296590805054	fix_post	2		12.0	13.0	2.5	/experiments/knapen_aot/videos/S_ILSVRC2015_train_00569002.mp4	0.0	105.1458649635315	0.09997320175170898
16	40.872939109802246	fix_pre	0		9.0	14.0	2.5	/experiments/knapen_aot/videos/R_S_production_ID_5144824.mp4	0.0	105.2458381652832	0.07514691352844238
16	40.93301200866699	response	0	2		14.0	2.5	/experiments/knapen_aot/videos/R_S_production_ID_5144824.mp4	0.0	105.30591106414795	
16	40.94808602333069	movie	1		169.0	14.0	2.5	/experiments/knapen_aot/videos/R_S_production_ID_5144824.mp4	0.0	105.32098507881165	2.5081450939178467
16	43.456231117248535	fix_post	2		12.0	14.0	2.5	/experiments/knapen_aot/videos/R_S_production_ID_5144824.mp4	0.0	107.82913017272949	0.10003089904785156
17	43.55626201629639	fix_pre	0		10.0	15.0	2.5	/experiments/knapen_aot/videos/S_wc-ujHd_fPVcSlX_10.mp4	0.0	107.92916107177734	0.08327507972717285
17	43.631432056427	response	0	2		15.0	2.5	/experiments/knapen_aot/videos/S_wc-ujHd_fPVcSlX_10.mp4	0.0	108.00433111190796	
17	43.63953709602356	movie	1		164.0	15.0	2.5	/experiments/knapen_aot/videos/S_wc-ujHd_fPVcSlX_10.mp4	0.0	108.01243615150452	2.508392810821533
17	46.14792990684509	fix_post	2		12.0	15.0	2.5	/experiments/knapen_aot/videos/S_wc-ujHd_fPVcSlX_10.mp4	0.0	110.52082896232605	0.09990119934082031
18	46.24783110618591	fix_pre	0		12.0	16.0	2.5	/experiments/knapen_aot/videos/R_S_ILSVRC2015_train_00371006.mp4	0.0	110.62073016166687	0.10008382797241211
18	46.339701890945435	response	0	2		16.0	2.5	/experiments/knapen_aot/videos/R_S_ILSVRC2015_train_00371006.mp4	0.0	110.71260094642639	
18	46.347914934158325	movie	1		301.0	16.0	2.5	/experiments/knapen_aot/videos/R_S_ILSVRC2015_train_00371006.mp4	0.0	110.72081398963928	2.508352041244507
18	48.85626697540283	fix_post	2		12.0	16.0	2.5	/experiments/knapen_aot/videos/R_S_ILSVRC2015_train_00371006.mp4	0.0	113.22916603088379	0.09990096092224121
19	48.95616793632507	fix_pre	0		3.0	17.0	2.5	/experiments/knapen_aot/videos/S_ILSVRC2015_train_00471000.mp4	0.0	113.32906699180603	0.02507495880126953
19	48.9730339050293	response	0	2		17.0	2.5	/experiments/knapen_aot/videos/S_ILSVRC2015_train_00471000.mp4	0.0	113.34593296051025	
19	48.98124289512634	movie	1		299.0	17.0	2.5	/experiments/knapen_aot/videos/S_ILSVRC2015_train_00471000.mp4	0.0	113.3541419506073	2.5083401203155518
19	51.489583015441895	fix_post	2		12.0	17.0	2.5	/experiments/knapen_aot/videos/S_ILSVRC2015_train_00471000.mp4	0.0	115.86248207092285	0.0999760627746582
20	51.58955907821655	fix_pre	0		19.0	18.0	2.5	/experiments/knapen_aot/videos/S_pexels-laker-5793000.mp4	0.0	115.96245813369751	0.15959692001342773
20	51.73975992202759	response	0	2		18.0	2.5	/experiments/knapen_aot/videos/S_pexels-laker-5793000.mp4	0.0	116.11265897750854	
20	51.74915599822998	movie	1		167.0	18.0	2.5	/experiments/knapen_aot/videos/S_pexels-laker-5793000.mp4	0.0	116.12205505371094	2.5070230960845947
20	54.256179094314575	fix_post	2		12.0	18.0	2.5	/experiments/knapen_aot/videos/S_pexels-laker-5793000.mp4	0.0	118.62907814979553	0.10001397132873535
21	54.35619306564331	fix_pre	0		12.0	19.0	2.5	/experiments/knapen_aot/videos/S_BO_A014_C008_SDR_20190719_SDR_2K_AVC.mp4	0.0	118.72909212112427	0.10124683380126953
21	54.448009967803955	response	0	2		19.0	2.5	/experiments/knapen_aot/videos/S_BO_A014_C008_SDR_20190719_SDR_2K_AVC.mp4	0.0	118.82090902328491	
21	54.45743989944458	movie	1		177.0	19.0	2.5	/experiments/knapen_aot/videos/S_BO_A014_C008_SDR_20190719_SDR_2K_AVC.mp4	0.0	118.83033895492554	2.5070650577545166
21	56.9645049571991	fix_post	2		12.0	19.0	2.5	/experiments/knapen_aot/videos/S_BO_A014_C008_SDR_20190719_SDR_2K_AVC.mp4	0.0	121.33740401268005	0.09999704360961914
22	57.064502000808716	fix_pre	0		1.0	20.0	2.5	/experiments/knapen_aot/videos/S_yt-k-MRlbCOzZU_163.mp4	0.0	121.43740105628967	0.008357048034667969
22	57.066205978393555	response	0	2		20.0	2.5	/experiments/knapen_aot/videos/S_yt-k-MRlbCOzZU_163.mp4	0.0	121.43910503387451	
22	57.072859048843384	movie	1		301.0	20.0	2.5	/experiments/knapen_aot/videos/S_yt-k-MRlbCOzZU_163.mp4	0.0	121.44575810432434	2.508358955383301
22	59.581218004226685	fix_post	2		12.0	20.0	2.5	/experiments/knapen_aot/videos/S_yt-k-MRlbCOzZU_163.mp4	0.0	123.95411705970764	0.10008788108825684
23	59.68130588531494	fix_pre	0		11.0	21.0	2.5	blank	1.0	124.0542049407959	0.09158515930175781
23	59.76461601257324	response	0	2		21.0	2.5	blank	1.0	124.1375150680542	
23	59.7728910446167	movie	1		301.0	21.0	2.5	blank	1.0	124.14579010009766	2.508319854736328
23	62.28121089935303	fix_post	2		12.0	21.0	2.5	blank	1.0	126.65410995483398	0.09999513626098633
24	62.381206035614014	fix_pre	0		14.0	22.0	2.5	/experiments/knapen_aot/videos/R_S_yt-xrPrnzvWUkY_7.mp4	0.0	126.75410509109497	0.11786389350891113
24	62.489628076553345	response	0	2		22.0	2.5	/experiments/knapen_aot/videos/R_S_yt-xrPrnzvWUkY_7.mp4	0.0	126.8625271320343	
24	62.499069929122925	movie	1		300.0	22.0	2.5	/experiments/knapen_aot/videos/R_S_yt-xrPrnzvWUkY_7.mp4	0.0	126.87196898460388	2.507089138031006
24	65.00615906715393	fix_post	2		12.0	22.0	2.5	/experiments/knapen_aot/videos/R_S_yt-xrPrnzvWUkY_7.mp4	0.0	129.3790581226349	0.10000205039978027
25	65.10616111755371	fix_pre	0		14.0	23.0	2.5	/experiments/knapen_aot/videos/R_S_wc-sd8_iKx0t7s7_9.mp4	0.0	129.47906017303467	0.12497496604919434
25	65.21459889411926	response	0	2		23.0	2.5	/experiments/knapen_aot/videos/R_S_wc-sd8_iKx0t7s7_9.mp4	0.0	129.58749794960022	
25	65.2311360836029	movie	1		170.0	23.0	2.5	/experiments/knapen_aot/videos/R_S_wc-sd8_iKx0t7s7_9.mp4	0.0	129.60403513908386	2.499948024749756
25	67.73108410835266	fix_post	2		12.0	23.0	2.5	/experiments/knapen_aot/videos/R_S_wc-sd8_iKx0t7s7_9.mp4	0.0	132.10398316383362	0.10005998611450195
25	67.76462411880493	response	2	2		23.0	2.5	/experiments/knapen_aot/videos/R_S_wc-sd8_iKx0t7s7_9.mp4	0.0	132.1375231742859	
26	67.83114409446716	fix_pre	0		33.0	24.0	2.5	/experiments/knapen_aot/videos/S_production_ID_5119260.mp4	0.0	132.20404314994812	0.27501893043518066
26	68.09787201881409	response	0	2		24.0	2.5	/experiments/knapen_aot/videos/S_production_ID_5119260.mp4	0.0	132.47077107429504	
26	68.10616302490234	movie	1		164.0	24.0	2.5	/experiments/knapen_aot/videos/S_production_ID_5119260.mp4	0.0	132.4790620803833	2.5083460807800293
26	70.61450910568237	fix_post	2		12.0	24.0	2.5	/experiments/knapen_aot/videos/S_production_ID_5119260.mp4	0.0	134.98740816116333	0.09998488426208496
27	70.71449398994446	fix_pre	0		12.0	25.0	2.5	/experiments/knapen_aot/videos/R_S_yt-LsCCAQ8BRO8_7.mp4	0.0	135.08739304542542	0.09990501403808594
27	70.80630588531494	response	0	2		25.0	2.5	/experiments/knapen_aot/videos/R_S_yt-LsCCAQ8BRO8_7.mp4	0.0	135.1792049407959	
27	70.81439900398254	movie	1		301.0	25.0	2.5	/experiments/knapen_aot/videos/R_S_yt-LsCCAQ8BRO8_7.mp4	0.0	135.1872980594635	2.5084049701690674
27	73.32280397415161	fix_post	2		12.0	25.0	2.5	/experiments/knapen_aot/videos/R_S_yt-LsCCAQ8BRO8_7.mp4	0.0	137.69570302963257	0.10002803802490234
28	73.42283201217651	fix_pre	0		19.0	26.0	2.5	/experiments/knapen_aot/videos/S_ILSVRC2015_train_00303005.mp4	0.0	137.79573106765747	0.15949296951293945
28	73.57291793823242	response	0	2		26.0	2.5	/experiments/knapen_aot/videos/S_ILSVRC2015_train_00303005.mp4	0.0	137.94581699371338	
28	73.58232498168945	movie	1		301.0	26.0	2.5	/experiments/knapen_aot/videos/S_ILSVRC2015_train_00303005.mp4	0.0	137.9552240371704	2.507162094116211
28	76.08948707580566	fix_post	2		12.0	26.0	2.5	/experiments/knapen_aot/videos/S_ILSVRC2015_train_00303005.mp4	0.0	140.46238613128662	0.09994888305664062
29	76.1894359588623	fix_pre	0		12.0	27.0	2.5	blank	1.0	140.56233501434326	0.1000220775604248
29	76.28130888938904	response	0	2		27.0	2.5	blank	1.0	140.65420794487	
29	76.28945803642273	movie	1		301.0	27.0	2.5	blank	1.0	140.6623570919037	2.5083699226379395
29	78.79782795906067	fix_post	2		12.0	27.0	2.5	blank	1.0	143.17072701454163	0.09996414184570312
30	78.89779210090637	fix_pre	0		12.0	28.0	2.5	/experiments/knapen_aot/videos/S_production_ID_5020960.mp4	0.0	143.27069115638733	0.10110592842102051
30	78.98949193954468	response	0	2		28.0	2.5	/experiments/knapen_aot/videos/S_production_ID_5020960.mp4	0.0	143.36239099502563	
30	78.99889802932739	movie	1		195.0	28.0	2.5	/experiments/knapen_aot/videos/S_production_ID_5020960.mp4	0.0	143.37179708480835	2.5072150230407715
30	81.50611305236816	fix_post	2		12.0	28.0	2.5	/experiments/knapen_aot/videos/S_production_ID_5020960.mp4	0.0	145.87901210784912	0.10000896453857422
31	81.60612201690674	fix_pre	0		11.0	29.0	2.5	/experiments/knapen_aot/videos/S_yt-5rIpe3xc5rQ_18.mp4	0.0	145.9790210723877	0.09166908264160156
31	81.68960690498352	response	0	2		29.0	2.5	/experiments/knapen_aot/videos/S_yt-5rIpe3xc5rQ_18.mp4	0.0	146.06250596046448	
31	81.69779109954834	movie	1		300.0	29.0	2.5	/experiments/knapen_aot/videos/S_yt-5rIpe3xc5rQ_18.mp4	0.0	146.0706901550293	2.508286952972412
31	84.20607805252075	fix_post	2		12.0	29.0	2.5	/experiments/knapen_aot/videos/S_yt-5rIpe3xc5rQ_18.mp4	0.0	148.5789771080017	0.0999908447265625
32	84.30606889724731	fix_pre	0		17.0	30.0	2.5	/experiments/knapen_aot/videos/S_pexels-ekaterina-bolovtsova-7669220.mp4	0.0	148.67896795272827	0.1417391300201416
32	84.4395399093628	response	0	2		30.0	2.5	/experiments/knapen_aot/videos/S_pexels-ekaterina-bolovtsova-7669220.mp4	0.0	148.81243896484375	
32	84.44780802726746	movie	1		164.0	30.0	2.5	/experiments/knapen_aot/videos/S_pexels-ekaterina-bolovtsova-7669220.mp4	0.0	148.8207070827484	2.508246898651123
32	86.95605492591858	fix_post	2		12.0	30.0	2.5	/experiments/knapen_aot/videos/S_pexels-ekaterina-bolovtsova-7669220.mp4	0.0	151.32895398139954	0.10001897811889648
33	87.05607390403748	fix_pre	0		21.0	31.0	2.5	/experiments/knapen_aot/videos/R_S_yt-vDjj0EWFdIU_49.mp4	0.0	151.42897295951843	0.17500019073486328
33	87.22282099723816	response	0	2		31.0	2.5	/experiments/knapen_aot/videos/R_S_yt-vDjj0EWFdIU_49.mp4	0.0	151.59572005271912	
33	87.23107409477234	movie	1		301.0	31.0	2.5	/experiments/knapen_aot/videos/R_S_yt-vDjj0EWFdIU_49.mp4	0.0	151.6039731502533	2.5082929134368896
33	89.73936700820923	fix_post	2		12.0	31.0	2.5	/experiments/knapen_aot/videos/R_S_yt-vDjj0EWFdIU_49.mp4	0.0	154.11226606369019	0.10006093978881836
34	89.83942794799805	fix_pre	0		29.0	32.0	2.5	/experiments/knapen_aot/videos/R_S_yt-D9uD7yM6bxQ_269.mp4	0.0	154.212327003479	0.24268007278442383
34	90.07295298576355	response	0	2		32.0	2.5	/experiments/knapen_aot/videos/R_S_yt-D9uD7yM6bxQ_269.mp4	0.0	154.4458520412445	
34	90.08210802078247	movie	1		301.0	32.0	2.5	/experiments/knapen_aot/videos/R_S_yt-D9uD7yM6bxQ_269.mp4	0.0	154.45500707626343	2.5072898864746094
34	92.58939790725708	fix_post	2		12.0	32.0	2.5	/experiments/knapen_aot/videos/R_S_yt-D9uD7yM6bxQ_269.mp4	0.0	156.96229696273804	0.09996318817138672
35	92.68936109542847	fix_pre	0		8.0	33.0	2.5	/experiments/knapen_aot/videos/R_S_FZ0hLmjCR0s_26.mp4	0.0	157.06226015090942	0.06672787666320801
35	92.74786400794983	response	0	2		33.0	2.5	/experiments/knapen_aot/videos/R_S_FZ0hLmjCR0s_26.mp4	0.0	157.1207630634308	
35	92.75608897209167	movie	1		301.0	33.0	2.5	/experiments/knapen_aot/videos/R_S_FZ0hLmjCR0s_26.mp4	0.0	157.12898802757263	2.508305072784424
35	95.2643940448761	fix_post	2		12.0	33.0	2.5	/experiments/knapen_aot/videos/R_S_FZ0hLmjCR0s_26.mp4	0.0	159.63729310035706	0.09994006156921387
36	95.36433410644531	fix_pre	0		9.0	34.0	2.5	/experiments/knapen_aot/videos/R_S_PA_A004_C003_SDR_20190719_SDR_2K_AVC.mp4	0.0	159.73723316192627	0.07500886917114258
36	95.43130493164062	response	0	2		34.0	2.5	/experiments/knapen_aot/videos/R_S_PA_A004_C003_SDR_20190719_SDR_2K_AVC.mp4	0.0	159.80420398712158	
36	95.43934297561646	movie	1		169.0	34.0	2.5	/experiments/knapen_aot/videos/R_S_PA_A004_C003_SDR_20190719_SDR_2K_AVC.mp4	0.0	159.8122420310974	2.508439064025879
36	97.94778203964233	fix_post	2		12.0	34.0	2.5	/experiments/knapen_aot/videos/R_S_PA_A004_C003_SDR_20190719_SDR_2K_AVC.mp4	0.0	162.3206810951233	0.09995293617248535
36	98.00609493255615	response	2	2		34.0	2.5	/experiments/knapen_aot/videos/R_S_PA_A004_C003_SDR_20190719_SDR_2K_AVC.mp4	0.0	162.3789939880371	
37	98.04773497581482	fix_pre	0		34.0	35.0	2.5	blank	1.0	162.42063403129578	0.28333210945129395
37	98.32282996177673	response	0	2		35.0	2.5	blank	1.0	162.6957290172577	
37	98.33106708526611	movie	1		301.0	35.0	2.5	blank	1.0	162.70396614074707	2.5083088874816895
37	100.8393759727478	fix_post	2		12.0	35.0	2.5	blank	1.0	165.21227502822876	0.09995198249816895
38	100.93932795524597	fix_pre	0		23.0	36.0	2.5	/experiments/knapen_aot/videos/S_yt-738MRS0yI6g_177.mp4	0.0	165.31222701072693	0.19170403480529785
38	101.12279891967773	response	0	2		36.0	2.5	/experiments/knapen_aot/videos/S_yt-738MRS0yI6g_177.mp4	0.0	165.4956979751587	
38	101.13103199005127	movie	1		301.0	36.0	2.5	/experiments/knapen_aot/videos/S_yt-738MRS0yI6g_177.mp4	0.0	165.50393104553223	2.5083320140838623
38	103.63936400413513	fix_post	2		12.0	36.0	2.5	/experiments/knapen_aot/videos/S_yt-738MRS0yI6g_177.mp4	0.0	168.0122630596161	0.09999799728393555
39	103.73936200141907	fix_pre	0		50.0	37.0	2.5	/experiments/knapen_aot/videos/S_yt-IX6uxR5DSKk_2.mp4	0.0	168.11226105690002	0.41663193702697754
39	104.14024806022644	response	0	2		37.0	2.5	/experiments/knapen_aot/videos/S_yt-IX6uxR5DSKk_2.mp4	0.0	168.5131471157074	
39	104.15599393844604	movie	1		301.0	37.0	2.5	/experiments/knapen_aot/videos/S_yt-IX6uxR5DSKk_2.mp4	0.0	168.528892993927	2.508371114730835
39	106.66436505317688	fix_post	2		12.0	37.0	2.5	/experiments/knapen_aot/videos/S_yt-IX6uxR5DSKk_2.mp4	0.0	171.03726410865784	0.09997987747192383
40	106.7643449306488	fix_pre	0		10.0	38.0	2.5	/experiments/knapen_aot/videos/R_S_yt-rB3YVZvA78w_20.mp4	0.0	171.13724398612976	0.08346104621887207
40	106.83949995040894	response	0	2		38.0	2.5	/experiments/knapen_aot/videos/R_S_yt-rB3YVZvA78w_20.mp4	0.0	171.2123990058899	
40	106.84780597686768	movie	1		301.0	38.0	2.5	/experiments/knapen_aot/videos/R_S_yt-rB3YVZvA78w_20.mp4	0.0	171.22070503234863	2.508181095123291
40	109.35598707199097	fix_post	2		12.0	38.0	2.5	/experiments/knapen_aot/videos/R_S_yt-rB3YVZvA78w_20.mp4	0.0	173.72888612747192	0.09998488426208496
41	109.45597195625305	fix_pre	0		11.0	39.0	2.5	/experiments/knapen_aot/videos/R_S_yt-q9kT_c9QjbQ_34.mp4	0.0	173.828871011734	0.09161901473999023
41	109.53948307037354	response	0	2		39.0	2.5	/experiments/knapen_aot/videos/R_S_yt-q9kT_c9QjbQ_34.mp4	0.0	173.9123821258545	
41	109.54759097099304	movie	1		300.0	39.0	2.5	/experiments/knapen_aot/videos/R_S_yt-q9kT_c9QjbQ_34.mp4	0.0	173.920490026474	2.5083999633789062
41	112.05599093437195	fix_post	2		12.0	39.0	2.5	/experiments/knapen_aot/videos/R_S_yt-q9kT_c9QjbQ_34.mp4	0.0	176.4288899898529	0.09995317459106445
42	112.15594410896301	fix_pre	0		9.0	40.0	2.5	/experiments/knapen_aot/videos/S_yt-NuZy8Rjk4d0_156.mp4	0.0	176.52884316444397	0.07497501373291016
42	112.2227509021759	response	0	2		40.0	2.5	/experiments/knapen_aot/videos/S_yt-NuZy8Rjk4d0_156.mp4	0.0	176.59564995765686	
42	112.23091912269592	movie	1		301.0	40.0	2.5	/experiments/knapen_aot/videos/S_yt-NuZy8Rjk4d0_156.mp4	0.0	176.60381817817688	2.5084598064422607
42	114.73937892913818	fix_post	2		12.0	40.0	2.5	/experiments/knapen_aot/videos/S_yt-NuZy8Rjk4d0_156.mp4	0.0	179.11227798461914	0.09993910789489746
43	114.83931803703308	fix_pre	0		34.0	41.0	2.5	/experiments/knapen_aot/videos/R_S_yt-26009GpQuUg_3.mp4	0.0	179.21221709251404	0.2842369079589844
43	115.11440801620483	response	0	2		41.0	2.5	/experiments/knapen_aot/videos/R_S_yt-26009GpQuUg_3.mp4	0.0	179.4873070716858	
43	115.12355494499207	movie	1		301.0	41.0	2.5	/experiments/knapen_aot/videos/R_S_yt-26009GpQuUg_3.mp4	0.0	179.49645400047302	2.5074360370635986
43	117.63099098205566	fix_post	2		12.0	41.0	2.5	/experiments/knapen_aot/videos/R_S_yt-26009GpQuUg_3.mp4	0.0	182.00389003753662	0.09995913505554199
44	117.7309501171112	fix_pre	0		15.0	42.0	2.5	blank	1.0	182.10384917259216	0.12491297721862793
44	117.84775900840759	response	0	2		42.0	2.5	blank	1.0	182.22065806388855	
44	117.85586309432983	movie	1		301.0	42.0	2.5	blank	1.0	182.2287621498108	2.508375883102417
44	120.36423897743225	fix_post	2		12.0	42.0	2.5	blank	1.0	184.7371380329132	0.10002708435058594
45	120.46426606178284	fix_pre	0		17.0	43.0	2.5	/experiments/knapen_aot/videos/S_Y004_C015_SDR_2K_AVC.mp4	0.0	184.8371651172638	0.1416318416595459
45	120.59771609306335	response	0	2		43.0	2.5	/experiments/knapen_aot/videos/S_Y004_C015_SDR_2K_AVC.mp4	0.0	184.9706151485443	
45	120.60589790344238	movie	1		165.0	43.0	2.5	/experiments/knapen_aot/videos/S_Y004_C015_SDR_2K_AVC.mp4	0.0	184.97879695892334	2.5083091259002686
45	123.11420702934265	fix_post	2		12.0	43.0	2.5	/experiments/knapen_aot/videos/S_Y004_C015_SDR_2K_AVC.mp4	0.0	187.4871060848236	0.0999460220336914
46	123.21415305137634	fix_pre	0		22.0	44.0	2.5	/experiments/knapen_aot/videos/R_S_8amznWxLS04_212.mp4	0.0	187.5870521068573	0.18342089653015137
46	123.38971900939941	response	0	2		44.0	2.5	/experiments/knapen_aot/videos/R_S_8amznWxLS04_212.mp4	0.0	187.76261806488037	
46	123.3975739479065	movie	1		301.0	44.0	2.5	/experiments/knapen_aot/videos/R_S_8amznWxLS04_212.mp4	0.0	187.77047300338745	2.508255958557129
46	125.90582990646362	fix_post	2		12.0	44.0	2.5	/experiments/knapen_aot/videos/R_S_8amznWxLS04_212.mp4	0.0	190.27872896194458	0.10002613067626953
47	126.00585603713989	fix_pre	0		17.0	45.0	2.5	/experiments/knapen_aot/videos/S_yt-s73Xqkcq9Js_285.mp4	0.0	190.37875509262085	0.14166808128356934
47	126.1394031047821	response	0	2		45.0	2.5	/experiments/knapen_aot/videos/S_yt-s73Xqkcq9Js_285.mp4	0.0	190.51230216026306	
47	126.14752411842346	movie	1		301.0	45.0	2.5	/experiments/knapen_aot/videos/S_yt-s73Xqkcq9Js_285.mp4	0.0	190.52042317390442	2.508297920227051
47	128.6558220386505	fix_post	2		12.0	45.0	2.5	/experiments/knapen_aot/videos/S_yt-s73Xqkcq9Js_285.mp4	0.0	193.02872109413147	0.10006403923034668
48	128.75588607788086	fix_pre	0		17.0	46.0	2.5	/experiments/knapen_aot/videos/S_yt-BG-G7m5wLZ4_94.mp4	0.0	193.12878513336182	0.14165282249450684
48	128.88937091827393	response	0	2		46.0	2.5	/experiments/knapen_aot/videos/S_yt-BG-G7m5wLZ4_94.mp4	0.0	193.26226997375488	
48	128.89753890037537	movie	1		300.0	46.0	2.5	/experiments/knapen_aot/videos/S_yt-BG-G7m5wLZ4_94.mp4	0.0	193.27043795585632	2.5084080696105957
48	131.40594696998596	fix_post	2		12.0	46.0	2.5	/experiments/knapen_aot/videos/S_yt-BG-G7m5wLZ4_94.mp4	0.0	195.77884602546692	0.0999000072479248
49	131.5058469772339	fix_pre	0		21.0	47.0	2.5	blank	1.0	195.87874603271484	0.17501211166381836
49	131.6653699874878	response	0	2		47.0	2.5	blank	1.0	196.03826904296875	
49	131.6808590888977	movie	1		301.0	47.0	2.5	blank	1.0	196.05375814437866	2.5082719326019287
49	134.18913102149963	fix_post	2		12.0	47.0	2.5	blank	1.0	198.5620300769806	0.10006499290466309
50	134.2891960144043	fix_pre	0		17.0	48.0	2.5	/experiments/knapen_aot/videos/S_pexels-anna-tarazevich-6189268.mp4	0.0	198.66209506988525	0.14165687561035156
50	134.4226779937744	response	0	2		48.0	2.5	/experiments/knapen_aot/videos/S_pexels-anna-tarazevich-6189268.mp4	0.0	198.79557704925537	
50	134.43085289001465	movie	1		213.0	48.0	2.5	/experiments/knapen_aot/videos/S_pexels-anna-tarazevich-6189268.mp4	0.0	198.8037519454956	2.5083601474761963
50	136.93921303749084	fix_post	2		12.0	48.0	2.5	/experiments/knapen_aot/videos/S_pexels-anna-tarazevich-6189268.mp4	0.0	201.3121120929718	0.1000058650970459
51	137.0392189025879	fix_pre	0		30.0	49.0	2.5	/experiments/knapen_aot/videos/S_comp_HK_B005_C011_PSNK_v16_SDR_PS_20180914_SDR_2K_AVC.mp4	0.0	201.41211795806885	0.2507650852203369
51	137.280916929245	response	0	2		49.0	2.5	/experiments/knapen_aot/videos/S_comp_HK_B005_C011_PSNK_v16_SDR_PS_20180914_SDR_2K_AVC.mp4	0.0	201.65381598472595	
51	137.28998398780823	movie	1		164.0	49.0	2.5	/experiments/knapen_aot/videos/S_comp_HK_B005_C011_PSNK_v16_SDR_PS_20180914_SDR_2K_AVC.mp4	0.0	201.66288304328918	2.50752592086792
51	139.79750990867615	fix_post	2		12.0	49.0	2.5	/experiments/knapen_aot/videos/S_comp_HK_B005_C011_PSNK_v16_SDR_PS_20180914_SDR_2K_AVC.mp4	0.0	204.1704089641571	0.0999760627746582
52	139.8974859714508	fix_pre	0		10.0	50.0	2.5	/experiments/knapen_aot/videos/S_wc-PsidKmkEV7Km_14.mp4	0.0	204.27038502693176	0.08337998390197754
52	139.97269105911255	response	0	2		50.0	2.5	/experiments/knapen_aot/videos/S_wc-PsidKmkEV7Km_14.mp4	0.0	204.3455901145935	
52	139.98086595535278	movie	1		164.0	50.0	2.5	/experiments/knapen_aot/videos/S_wc-PsidKmkEV7Km_14.mp4	0.0	204.35376501083374	2.508312940597534
52	142.48917889595032	fix_post	2		12.0	50.0	2.5	/experiments/knapen_aot/videos/S_wc-PsidKmkEV7Km_14.mp4	0.0	206.86207795143127	0.09998917579650879
53	142.58916807174683	fix_pre	0		7.0	51.0	2.5	/experiments/knapen_aot/videos/S_ILSVRC2015_train_00404003.mp4	0.0	206.96206712722778	0.058241844177246094
53	142.6392788887024	response	0	2		51.0	2.5	/experiments/knapen_aot/videos/S_ILSVRC2015_train_00404003.mp4	0.0	207.01217794418335	
53	142.64740991592407	movie	1		301.0	51.0	2.5	/experiments/knapen_aot/videos/S_ILSVRC2015_train_00404003.mp4	0.0	207.02030897140503	2.5084521770477295
53	145.1558620929718	fix_post	2		12.0	51.0	2.5	/experiments/knapen_aot/videos/S_ILSVRC2015_train_00404003.mp4	0.0	209.52876114845276	0.10000896453857422
54	145.25587105751038	fix_pre	0		20.0	52.0	2.5	/experiments/knapen_aot/videos/S_yt-wVMhACNFF-M_154.mp4	0.0	209.62877011299133	0.16663193702697754
54	145.4142689704895	response	0	2		52.0	2.5	/experiments/knapen_aot/videos/S_yt-wVMhACNFF-M_154.mp4	0.0	209.78716802597046	
54	145.42250299453735	movie	1		301.0	52.0	2.5	/experiments/knapen_aot/videos/S_yt-wVMhACNFF-M_154.mp4	0.0	209.7954020500183	2.508366107940674
54	147.93086910247803	fix_post	2		12.0	52.0	2.5	/experiments/knapen_aot/videos/S_yt-wVMhACNFF-M_154.mp4	0.0	212.30376815795898	0.09991097450256348
55	148.0307800769806	fix_pre	0		27.0	53.0	2.5	/experiments/knapen_aot/videos/S_yt-6aqg1P9YqR8_38.mp4	0.0	212.40367913246155	0.22502684593200684
55	148.24769401550293	response	0	2		53.0	2.5	/experiments/knapen_aot/videos/S_yt-6aqg1P9YqR8_38.mp4	0.0	212.6205930709839	
55	148.2558069229126	movie	1		299.0	53.0	2.5	/experiments/knapen_aot/videos/S_yt-6aqg1P9YqR8_38.mp4	0.0	212.62870597839355	2.5083091259002686
55	150.76411604881287	fix_post	2		12.0	53.0	2.5	/experiments/knapen_aot/videos/S_yt-6aqg1P9YqR8_38.mp4	0.0	215.13701510429382	0.10005903244018555
56	150.86417508125305	fix_pre	0		22.0	54.0	2.5	blank	1.0	215.237074136734	0.18331503868103027
56	151.03925395011902	response	0	2		54.0	2.5	blank	1.0	215.41215300559998	
56	151.04749011993408	movie	1		301.0	54.0	2.5	blank	1.0	215.42038917541504	2.508248805999756
56	153.55573892593384	fix_post	2		12.0	54.0	2.5	blank	1.0	217.9286379814148	0.10007119178771973
57	153.65581011772156	fix_pre	0		26.0	55.0	2.5	/experiments/knapen_aot/videos/R_S_Person_Going_Through_A_Bible.mp4	0.0	218.02870917320251	0.21740484237670898
57	153.86422204971313	response	0	2		55.0	2.5	/experiments/knapen_aot/videos/R_S_Person_Going_Through_A_Bible.mp4	0.0	218.2371211051941	
57	153.87321496009827	movie	1		165.0	55.0	2.5	/experiments/knapen_aot/videos/R_S_Person_Going_Through_A_Bible.mp4	0.0	218.24611401557922	2.5075740814208984
57	156.38078904151917	fix_post	2		12.0	55.0	2.5	/experiments/knapen_aot/videos/R_S_Person_Going_Through_A_Bible.mp4	0.0	220.75368809700012	0.09998703002929688
58	156.48077607154846	fix_pre	0		11.0	56.0	2.5	/experiments/knapen_aot/videos/R_S_production_ID_5119260.mp4	0.0	220.85367512702942	0.09166502952575684
58	156.56422305107117	response	0	2		56.0	2.5	/experiments/knapen_aot/videos/R_S_production_ID_5119260.mp4	0.0	220.93712210655212	
58	156.57244110107422	movie	1		164.0	56.0	2.5	/experiments/knapen_aot/videos/R_S_production_ID_5119260.mp4	0.0	220.94534015655518	2.5083189010620117
58	159.08076000213623	fix_post	2		12.0	56.0	2.5	/experiments/knapen_aot/videos/R_S_production_ID_5119260.mp4	0.0	223.4536590576172	0.09993600845336914
59	159.1806960105896	fix_pre	0		13.0	57.0	2.5	/experiments/knapen_aot/videos/S_yt-LsCCAQ8BRO8_7.mp4	0.0	223.55359506607056	0.10910511016845703
59	159.28095507621765	response	0	2		57.0	2.5	/experiments/knapen_aot/videos/S_yt-LsCCAQ8BRO8_7.mp4	0.0	223.6538541316986	
59	159.28980112075806	movie	1		301.0	57.0	2.5	/experiments/knapen_aot/videos/S_yt-LsCCAQ8BRO8_7.mp4	0.0	223.662700176239	2.5076189041137695
59	161.79742002487183	fix_post	2		12.0	57.0	2.5	/experiments/knapen_aot/videos/S_yt-LsCCAQ8BRO8_7.mp4	0.0	226.17031908035278	0.0999760627746582
60	161.89739608764648	fix_pre	0		14.0	58.0	2.5	/experiments/knapen_aot/videos/S_yt-aTEGTeQuDWM_93.mp4	0.0	226.27029514312744	0.11670398712158203
60	162.00585007667542	response	0	2		58.0	2.5	/experiments/knapen_aot/videos/S_yt-aTEGTeQuDWM_93.mp4	0.0	226.37874913215637	
60	162.01410007476807	movie	1		301.0	58.0	2.5	/experiments/knapen_aot/videos/S_yt-aTEGTeQuDWM_93.mp4	0.0	226.38699913024902	2.5083048343658447
60	164.5224049091339	fix_post	2		12.0	58.0	2.5	/experiments/knapen_aot/videos/S_yt-aTEGTeQuDWM_93.mp4	0.0	228.89530396461487	0.1000220775604248
61	164.62242698669434	fix_pre	0		21.0	59.0	2.5	/experiments/knapen_aot/videos/R_S_pexels-c-technical-6809719.mp4	0.0	228.9953260421753	0.17501091957092285
61	164.78911590576172	response	0	2		59.0	2.5	/experiments/knapen_aot/videos/R_S_pexels-c-technical-6809719.mp4	0.0	229.16201496124268	
61	164.79743790626526	movie	1		192.0	59.0	2.5	/experiments/knapen_aot/videos/R_S_pexels-c-technical-6809719.mp4	0.0	229.17033696174622	2.5082039833068848
61	167.30564188957214	fix_post	2		12.0	59.0	2.5	/experiments/knapen_aot/videos/R_S_pexels-c-technical-6809719.mp4	0.0	231.6785409450531	0.10003399848937988
62	167.40567588806152	fix_pre	0		3.0	60.0	2.5	/experiments/knapen_aot/videos/S_wc-0SAXOWjdNVGC_8.mp4	0.0	231.77857494354248	0.025025129318237305
62	167.42254400253296	response	0	2		60.0	2.5	/experiments/knapen_aot/videos/S_wc-0SAXOWjdNVGC_8.mp4	0.0	231.79544305801392	
62	167.43070101737976	movie	1		164.0	60.0	2.5	/experiments/knapen_aot/videos/S_wc-0SAXOWjdNVGC_8.mp4	0.0	231.80360007286072	2.508323907852173
62	169.93902492523193	fix_post	2		12.0	60.0	2.5	/experiments/knapen_aot/videos/S_wc-0SAXOWjdNVGC_8.mp4	0.0	234.3119239807129	0.10066509246826172
63	170.0396900177002	fix_pre	0		5.0	61.0	2.5	/experiments/knapen_aot/videos/S_yt-7lULOC_rSE0_747.mp4	0.0	234.41258907318115	0.041996002197265625
63	170.0725109577179	response	0	2		61.0	2.5	/experiments/knapen_aot/videos/S_yt-7lULOC_rSE0_747.mp4	0.0	234.44541001319885	
63	170.08168601989746	movie	1		301.0	61.0	2.5	/experiments/knapen_aot/videos/S_yt-7lULOC_rSE0_747.mp4	0.0	234.45458507537842	2.50734806060791
63	172.58903408050537	fix_post	2		12.0	61.0	2.5	/experiments/knapen_aot/videos/S_yt-7lULOC_rSE0_747.mp4	0.0	236.96193313598633	0.10002684593200684
64	172.68906092643738	fix_pre	0		13.0	62.0	2.5	/experiments/knapen_aot/videos/S_production_ID_5199636.mp4	0.0	237.06195998191833	0.10828614234924316
64	172.7891480922699	response	0	2		62.0	2.5	/experiments/knapen_aot/videos/S_production_ID_5199636.mp4	0.0	237.16204714775085	
64	172.79734706878662	movie	1		165.0	62.0	2.5	/experiments/knapen_aot/videos/S_production_ID_5199636.mp4	0.0	237.17024612426758	2.508327007293701
64	175.30567407608032	fix_post	2		12.0	62.0	2.5	/experiments/knapen_aot/videos/S_production_ID_5199636.mp4	0.0	239.67857313156128	0.0999758243560791
64	175.38076210021973	response	2	2		62.0	2.5	/experiments/knapen_aot/videos/S_production_ID_5199636.mp4	0.0	239.75366115570068	
65	175.4056499004364	fix_pre	0		31.0	63.0	2.5	blank	1.0	239.77854895591736	0.25913000106811523
65	175.6558051109314	response	0	2		63.0	2.5	blank	1.0	240.02870416641235	
65	175.66477990150452	movie	1		301.0	63.0	2.5	blank	1.0	240.03767895698547	2.5075631141662598
65	178.17234301567078	fix_post	2		12.0	63.0	2.5	blank	1.0	242.54524207115173	0.09997797012329102
66	178.27232098579407	fix_pre	0		16.0	64.0	2.5	/experiments/knapen_aot/videos/S_wc-sd8_iKx0t7s7_9.mp4	0.0	242.64522004127502	0.13332009315490723
66	178.39745497703552	response	0	2		64.0	2.5	/experiments/knapen_aot/videos/S_wc-sd8_iKx0t7s7_9.mp4	0.0	242.77035403251648	
66	178.40564107894897	movie	1		174.0	64.0	2.5	/experiments/knapen_aot/videos/S_wc-sd8_iKx0t7s7_9.mp4	0.0	242.77854013442993	2.5084338188171387
66	180.9140748977661	fix_post	2		12.0	64.0	2.5	/experiments/knapen_aot/videos/S_wc-sd8_iKx0t7s7_9.mp4	0.0	245.28697395324707	0.09994316101074219
67	181.01401805877686	fix_pre	0		9.0	65.0	2.5	/experiments/knapen_aot/videos/R_S_ILSVRC2015_train_00471000.mp4	0.0	245.3869171142578	0.07496094703674316
67	181.08086800575256	response	0	2		65.0	2.5	/experiments/knapen_aot/videos/R_S_ILSVRC2015_train_00471000.mp4	0.0	245.45376706123352	
67	181.0889790058136	movie	1		301.0	65.0	2.5	/experiments/knapen_aot/videos/R_S_ILSVRC2015_train_00471000.mp4	0.0	245.46187806129456	2.508327007293701
67	183.5973060131073	fix_post	2		12.0	65.0	2.5	/experiments/knapen_aot/videos/R_S_ILSVRC2015_train_00471000.mp4	0.0	247.97020506858826	0.10005402565002441
68	183.69736003875732	fix_pre	0		9.0	66.0	2.5	/experiments/knapen_aot/videos/S_yt-AiXq1oDrEXI_123.mp4	0.0	248.07025909423828	0.07487702369689941
68	183.76417088508606	response	0	2		66.0	2.5	/experiments/knapen_aot/videos/S_yt-AiXq1oDrEXI_123.mp4	0.0	248.13706994056702	
68	183.77223706245422	movie	1		300.0	66.0	2.5	/experiments/knapen_aot/videos/S_yt-AiXq1oDrEXI_123.mp4	0.0	248.14513611793518	2.5084359645843506
68	186.28067302703857	fix_post	2		12.0	66.0	2.5	/experiments/knapen_aot/videos/S_yt-AiXq1oDrEXI_123.mp4	0.0	250.65357208251953	0.09998607635498047
69	186.38065910339355	fix_pre	0		11.0	67.0	2.5	/experiments/knapen_aot/videos/R_S_yt-BG-G7m5wLZ4_94.mp4	0.0	250.7535581588745	0.09164190292358398
69	186.464124917984	response	0	2		67.0	2.5	/experiments/knapen_aot/videos/R_S_yt-BG-G7m5wLZ4_94.mp4	0.0	250.83702397346497	
69	186.47230100631714	movie	1		301.0	67.0	2.5	/experiments/knapen_aot/videos/R_S_yt-BG-G7m5wLZ4_94.mp4	0.0	250.8452000617981	2.508275032043457
69	188.9805760383606	fix_post	2		12.0	67.0	2.5	/experiments/knapen_aot/videos/R_S_yt-BG-G7m5wLZ4_94.mp4	0.0	253.35347509384155	0.10004496574401855
70	189.08062100410461	fix_pre	0		12.0	68.0	2.5	/experiments/knapen_aot/videos/S_PA_A004_C003_SDR_20190719_SDR_2K_AVC.mp4	0.0	253.45352005958557	0.09994101524353027
70	189.17241311073303	response	0	2		68.0	2.5	/experiments/knapen_aot/videos/S_PA_A004_C003_SDR_20190719_SDR_2K_AVC.mp4	0.0	253.545312166214	
70	189.18056201934814	movie	1		166.0	68.0	2.5	/experiments/knapen_aot/videos/S_PA_A004_C003_SDR_20190719_SDR_2K_AVC.mp4	0.0	253.5534610748291	2.5085320472717285
70	191.68909406661987	fix_post	2		12.0	68.0	2.5	/experiments/knapen_aot/videos/S_PA_A004_C003_SDR_20190719_SDR_2K_AVC.mp4	0.0	256.06199312210083	0.09983181953430176
71	191.78892588615417	fix_pre	0		14.0	69.0	2.5	/experiments/knapen_aot/videos/S_yt-LsCCAQ8BRO8_7.mp4	0.0	256.16182494163513	0.11671710014343262
71	191.89740991592407	response	0	2		69.0	2.5	/experiments/knapen_aot/videos/S_yt-LsCCAQ8BRO8_7.mp4	0.0	256.27030897140503	
71	191.9056429862976	movie	1		301.0	69.0	2.5	/experiments/knapen_aot/videos/S_yt-LsCCAQ8BRO8_7.mp4	0.0	256.27854204177856	2.508345127105713
71	194.41398811340332	fix_post	2		12.0	69.0	2.5	/experiments/knapen_aot/videos/S_yt-LsCCAQ8BRO8_7.mp4	0.0	258.7868871688843	0.09997677803039551
72	194.51396489143372	fix_pre	0		15.0	70.0	2.5	blank	1.0	258.8868639469147	0.12499308586120605
72	194.63070797920227	response	0	2		70.0	2.5	blank	1.0	259.0036070346832	
72	194.63895797729492	movie	1		301.0	70.0	2.5	blank	1.0	259.0118570327759	2.5083510875701904
72	197.1473090648651	fix_post	2		12.0	70.0	2.5	blank	1.0	261.52020812034607	0.09984493255615234
73	197.24715399742126	fix_pre	0		18.0	71.0	2.5	/experiments/knapen_aot/videos/S_yt-R-SETZtYWaA_336.mp4	0.0	261.6200530529022	0.1500859260559082
73	197.38151001930237	response	0	2		71.0	2.5	/experiments/knapen_aot/videos/S_yt-R-SETZtYWaA_336.mp4	0.0	261.7544090747833	
73	197.39723992347717	movie	1		301.0	71.0	2.5	/experiments/knapen_aot/videos/S_yt-R-SETZtYWaA_336.mp4	0.0	261.77013897895813	2.5083329677581787
73	199.90557289123535	fix_post	2		12.0	71.0	2.5	/experiments/knapen_aot/videos/S_yt-R-SETZtYWaA_336.mp4	0.0	264.2784719467163	0.10001921653747559
74	200.00559210777283	fix_pre	0		19.0	72.0	2.5	/experiments/knapen_aot/videos/R_S_yt-z16pdVTZK1o_3.mp4	0.0	264.3784911632538	0.15883779525756836
74	200.15565609931946	response	0	2		72.0	2.5	/experiments/knapen_aot/videos/R_S_yt-z16pdVTZK1o_3.mp4	0.0	264.5285551548004	
74	200.1644299030304	movie	1		301.0	72.0	2.5	/experiments/knapen_aot/videos/R_S_yt-z16pdVTZK1o_3.mp4	0.0	264.53732895851135	2.507777214050293
74	202.6722071170807	fix_post	2		12.0	72.0	2.5	/experiments/knapen_aot/videos/R_S_yt-z16pdVTZK1o_3.mp4	0.0	267.04510617256165	0.10004878044128418
75	202.77225589752197	fix_pre	0		14.0	73.0	2.5	/experiments/knapen_aot/videos/R_S_yt-kNZUFy3cbjQ_9.mp4	0.0	267.14515495300293	0.11661314964294434
75	202.88070607185364	response	0	2		73.0	2.5	/experiments/knapen_aot/videos/R_S_yt-kNZUFy3cbjQ_9.mp4	0.0	267.2536051273346	
75	202.88886904716492	movie	1		299.0	73.0	2.5	/experiments/knapen_aot/videos/R_S_yt-kNZUFy3cbjQ_9.mp4	0.0	267.2617681026459	2.5084228515625
75	205.39729189872742	fix_post	2		12.0	73.0	2.5	/experiments/knapen_aot/videos/R_S_yt-kNZUFy3cbjQ_9.mp4	0.0	269.7701909542084	0.10001516342163086
76	205.49730706214905	fix_pre	0		19.0	74.0	2.5	/experiments/knapen_aot/videos/R_S_yt-Ev39pXXfr1Y_152.mp4	0.0	269.87020611763	0.15828990936279297
76	205.64742803573608	response	0	2		74.0	2.5	/experiments/knapen_aot/videos/R_S_yt-Ev39pXXfr1Y_152.mp4	0.0	270.02032709121704	
76	205.65559697151184	movie	1		301.0	74.0	2.5	/experiments/knapen_aot/videos/R_S_yt-Ev39pXXfr1Y_152.mp4	0.0	270.0284960269928	2.5083510875701904
76	208.16394805908203	fix_post	2		12.0	74.0	2.5	/experiments/knapen_aot/videos/R_S_yt-Ev39pXXfr1Y_152.mp4	0.0	272.536847114563	0.10000085830688477
77	208.26394891738892	fix_pre	0		13.0	75.0	2.5	/experiments/knapen_aot/videos/R_S_pexels-c-technical-6809719.mp4	0.0	272.6368479728699	0.10871100425720215
77	208.3640239238739	response	0	2		75.0	2.5	/experiments/knapen_aot/videos/R_S_pexels-c-technical-6809719.mp4	0.0	272.73692297935486	
77	208.37265992164612	movie	1		188.0	75.0	2.5	/experiments/knapen_aot/videos/R_S_pexels-c-technical-6809719.mp4	0.0	272.7455589771271	2.507920026779175
77	210.8805799484253	fix_post	2		12.0	75.0	2.5	/experiments/knapen_aot/videos/R_S_pexels-c-technical-6809719.mp4	0.0	275.25347900390625	0.10003805160522461
78	210.98061800003052	fix_pre	0		5.0	76.0	2.5	blank	1.0	275.3535170555115	0.041687965393066406
78	211.01423501968384	response	0	2		76.0	2.5	blank	1.0	275.3871340751648	
78	211.02230596542358	movie	1		301.0	76.0	2.5	blank	1.0	275.39520502090454	2.508168935775757
78	213.53047490119934	fix_post	2		12.0	76.0	2.5	blank	1.0	277.9033739566803	0.09999704360961914
79	213.63047194480896	fix_pre	0		26.0	77.0	2.5	/experiments/knapen_aot/videos/S_yt-JkKOG9Fxykc_94.mp4	0.0	278.0033710002899	0.21671414375305176
79	213.8389449119568	response	0	2		77.0	2.5	/experiments/knapen_aot/videos/S_yt-JkKOG9Fxykc_94.mp4	0.0	278.21184396743774	
79	213.847186088562	movie	1		301.0	77.0	2.5	/experiments/knapen_aot/videos/S_yt-JkKOG9Fxykc_94.mp4	0.0	278.22008514404297	2.5083258152008057
79	216.35551190376282	fix_post	2		12.0	77.0	2.5	/experiments/knapen_aot/videos/S_yt-JkKOG9Fxykc_94.mp4	0.0	280.7284109592438	0.10045504570007324
80	216.4559669494629	fix_pre	0		15.0	78.0	2.5	/experiments/knapen_aot/videos/S_yt-VfASxEzDrvc_145.mp4	0.0	280.82886600494385	0.12498807907104492
80	216.57232308387756	response	0	2		78.0	2.5	/experiments/knapen_aot/videos/S_yt-VfASxEzDrvc_145.mp4	0.0	280.9452221393585	
80	216.58095502853394	movie	1		301.0	78.0	2.5	/experiments/knapen_aot/videos/S_yt-VfASxEzDrvc_145.mp4	0.0	280.9538540840149	2.50785493850708
80	219.08880996704102	fix_post	2		12.0	78.0	2.5	/experiments/knapen_aot/videos/S_yt-VfASxEzDrvc_145.mp4	0.0	283.461709022522	0.10001206398010254
81	219.18882203102112	fix_pre	0		22.0	79.0	2.5	/experiments/knapen_aot/videos/R_S_comp_GMT312_162NC_139M_1041_AFRICA_NIGHT_v14_SDR_FINAL_20180706_SDR_2K_AVC.mp4	0.0	283.5617210865021	0.18372201919555664
81	219.36397790908813	response	0	2		79.0	2.5	/experiments/knapen_aot/videos/R_S_comp_GMT312_162NC_139M_1041_AFRICA_NIGHT_v14_SDR_FINAL_20180706_SDR_2K_AVC.mp4	0.0	283.7368769645691	
81	219.37254405021667	movie	1		166.0	79.0	2.5	/experiments/knapen_aot/videos/R_S_comp_GMT312_162NC_139M_1041_AFRICA_NIGHT_v14_SDR_FINAL_20180706_SDR_2K_AVC.mp4	0.0	283.74544310569763	2.5079569816589355
81	221.8805010318756	fix_post	2		12.0	79.0	2.5	/experiments/knapen_aot/videos/R_S_comp_GMT312_162NC_139M_1041_AFRICA_NIGHT_v14_SDR_FINAL_20180706_SDR_2K_AVC.mp4	0.0	286.25340008735657	0.09998488426208496
81	221.97233605384827	response	2	2		79.0	2.5	/experiments/knapen_aot/videos/R_S_comp_GMT312_162NC_139M_1041_AFRICA_NIGHT_v14_SDR_FINAL_20180706_SDR_2K_AVC.mp4	0.0	286.3452351093292	
82	221.9804859161377	fix_pre	0		39.0	80.0	2.5	/experiments/knapen_aot/videos/R_S_yt-4NjyKFnwHBo_13.mp4	0.0	286.35338497161865	0.3249361515045166
82	222.29724407196045	response	0	2		80.0	2.5	/experiments/knapen_aot/videos/R_S_yt-4NjyKFnwHBo_13.mp4	0.0	286.6701431274414	
82	222.3054220676422	movie	1		300.0	80.0	2.5	/experiments/knapen_aot/videos/R_S_yt-4NjyKFnwHBo_13.mp4	0.0	286.67832112312317	2.5084309577941895
82	224.8138530254364	fix_post	2		12.0	80.0	2.5	/experiments/knapen_aot/videos/R_S_yt-4NjyKFnwHBo_13.mp4	0.0	289.18675208091736	0.10040807723999023
83	224.9142611026764	fix_pre	0		4.0	81.0	2.5	/experiments/knapen_aot/videos/S_yt-NFb0SUCeiro_158.mp4	0.0	289.28716015815735	0.03291678428649902
83	224.93906593322754	response	0	2		81.0	2.5	/experiments/knapen_aot/videos/S_yt-NFb0SUCeiro_158.mp4	0.0	289.3119649887085	
83	224.9471778869629	movie	1		301.0	81.0	2.5	/experiments/knapen_aot/videos/S_yt-NFb0SUCeiro_158.mp4	0.0	289.32007694244385	2.5083630084991455
83	227.45554089546204	fix_post	2		12.0	81.0	2.5	/experiments/knapen_aot/videos/S_yt-NFb0SUCeiro_158.mp4	0.0	291.828439950943	0.0999910831451416
84	227.55553197860718	fix_pre	0		17.0	82.0	2.5	/experiments/knapen_aot/videos/R_S_yt-4oT-2eGhmUo_102.mp4	0.0	291.92843103408813	0.14160704612731934
84	227.6889579296112	response	0	2		82.0	2.5	/experiments/knapen_aot/videos/R_S_yt-4oT-2eGhmUo_102.mp4	0.0	292.06185698509216	
84	227.6971390247345	movie	1		301.0	82.0	2.5	/experiments/knapen_aot/videos/R_S_yt-4oT-2eGhmUo_102.mp4	0.0	292.07003808021545	2.5083189010620117
84	230.2054579257965	fix_post	2		12.0	82.0	2.5	/experiments/knapen_aot/videos/R_S_yt-4oT-2eGhmUo_102.mp4	0.0	294.57835698127747	0.10004615783691406
85	230.30550408363342	fix_pre	0		2.0	83.0	2.5	blank	1.0	294.6784031391144	0.016708850860595703
85	230.31399011611938	response	0	2		83.0	2.5	blank	1.0	294.68688917160034	
85	230.32221293449402	movie	1		301.0	83.0	2.5	blank	1.0	294.695111989975	2.5082991123199463
85	232.83051204681396	fix_post	2		12.0	83.0	2.5	blank	1.0	297.2034111022949	0.09999990463256836
87	232.93051195144653	stim	0		127.0					297.3034110069275	1.0583219528198242
87	233.9807848930359	response	0	space						298.35368394851685	
