trial_nr	onset	event_type	phase	response	nr_frames	movie_index	movie_duration	movie_file	blank	onset_abs	duration
0	0.12485003471374512	stim	0		21.0					61.70450806617737	0.17501306533813477
0	0.291780948638916	response	0	space						61.87143898010254	
1	0.2998631000518799	stim	0		121.0					61.8795211315155	1.0085008144378662
1	1.0177950859069824	response	0	space						62.597453117370605	
1	1.308363914489746	stim	1		120.0					62.88802194595337	0.9995861053466797
1	1.4091761112213135	response	1	space						62.98883414268494	
1	2.0414159297943115	response	1	space						63.621073961257935	
2	2.307950019836426	fix_pre	0		15.0	0.0	2.5	/experiments/knapen_aot/videos/R_S_yt-ZBhTpmrAlUY_70.mp4	0.0	63.88760805130005	0.12494492530822754
2	2.4173009395599365	response	0	space		0.0	2.5	/experiments/knapen_aot/videos/R_S_yt-ZBhTpmrAlUY_70.mp4	0.0	63.99695897102356	
2	2.4328949451446533	movie	1		301.0	0.0	2.5	/experiments/knapen_aot/videos/R_S_yt-ZBhTpmrAlUY_70.mp4	0.0	64.01255297660828	2.50846004486084
2	4.941354990005493	fix_post	2		12.0	0.0	2.5	/experiments/knapen_aot/videos/R_S_yt-ZBhTpmrAlUY_70.mp4	0.0	66.52101302146912	0.09996294975280762
3	5.041317939758301	fix_pre	0		38.0	1.0	2.5	/experiments/knapen_aot/videos/S_yt-lGQ3wMI5-Yg_140.mp4	0.0	66.62097597122192	0.3190000057220459
3	5.346517086029053	response	0	2		1.0	2.5	/experiments/knapen_aot/videos/S_yt-lGQ3wMI5-Yg_140.mp4	0.0	66.92617511749268	
3	5.360317945480347	movie	1		293.0	1.0	2.5	/experiments/knapen_aot/videos/S_yt-lGQ3wMI5-Yg_140.mp4	0.0	66.93997597694397	2.506162166595459
3	7.866480112075806	fix_post	2		12.0	1.0	2.5	/experiments/knapen_aot/videos/S_yt-lGQ3wMI5-Yg_140.mp4	0.0	69.44613814353943	0.09979391098022461
4	7.96627402305603	fix_pre	0		132.0	2.0	2.5	/experiments/knapen_aot/videos/S_yt-K0CzoUy_uIA_22.mp4	0.0	69.54593205451965	1.0999469757080078
4	9.057991981506348	response	0	2		2.0	2.5	/experiments/knapen_aot/videos/S_yt-K0CzoUy_uIA_22.mp4	0.0	70.63765001296997	
4	9.066220998764038	movie	1		301.0	2.0	2.5	/experiments/knapen_aot/videos/S_yt-K0CzoUy_uIA_22.mp4	0.0	70.64587903022766	2.508463144302368
4	11.574684143066406	fix_post	2		12.0	2.0	2.5	/experiments/knapen_aot/videos/S_yt-K0CzoUy_uIA_22.mp4	0.0	73.15434217453003	0.0999298095703125
5	11.674613952636719	fix_pre	0		41.0	3.0	2.5	/experiments/knapen_aot/videos/R_S_yt-y3tyx6cZjmA_412.mp4	0.0	73.25427198410034	0.34160614013671875
5	12.008005142211914	response	0	2		3.0	2.5	/experiments/knapen_aot/videos/R_S_yt-y3tyx6cZjmA_412.mp4	0.0	73.58766317367554	
5	12.016220092773438	movie	1		301.0	3.0	2.5	/experiments/knapen_aot/videos/R_S_yt-y3tyx6cZjmA_412.mp4	0.0	73.59587812423706	2.508352041244507
5	14.524572134017944	fix_post	2		12.0	3.0	2.5	/experiments/knapen_aot/videos/R_S_yt-y3tyx6cZjmA_412.mp4	0.0	76.10423016548157	0.10001683235168457
6	14.624588966369629	fix_pre	0		25.0	4.0	2.5	/experiments/knapen_aot/videos/R_S_ILSVRC2015_train_00595000.mp4	0.0	76.20424699783325	0.2082509994506836
6	14.82470703125	response	0	2		4.0	2.5	/experiments/knapen_aot/videos/R_S_ILSVRC2015_train_00595000.mp4	0.0	76.40436506271362	
6	14.832839965820312	movie	1		301.0	4.0	2.5	/experiments/knapen_aot/videos/R_S_ILSVRC2015_train_00595000.mp4	0.0	76.41249799728394	2.5083839893341064
6	17.34122395515442	fix_post	2		12.0	4.0	2.5	/experiments/knapen_aot/videos/R_S_ILSVRC2015_train_00595000.mp4	0.0	78.92088198661804	0.10009503364562988
7	17.44131898880005	fix_pre	0		42.0	5.0	2.5	/experiments/knapen_aot/videos/S_ILSVRC2015_train_00155004.mp4	0.0	79.02097702026367	0.3499021530151367
7	17.783025979995728	response	0	2		5.0	2.5	/experiments/knapen_aot/videos/S_ILSVRC2015_train_00155004.mp4	0.0	79.36268401145935	
7	17.791221141815186	movie	1		301.0	5.0	2.5	/experiments/knapen_aot/videos/S_ILSVRC2015_train_00155004.mp4	0.0	79.37087917327881	2.5083467960357666
7	20.299567937850952	fix_post	2		12.0	5.0	2.5	/experiments/knapen_aot/videos/S_ILSVRC2015_train_00155004.mp4	0.0	81.87922596931458	0.09993910789489746
8	20.39950704574585	fix_pre	0		50.0	6.0	2.5	blank	1.0	81.97916507720947	0.4167029857635498
8	20.80050802230835	response	0	2		6.0	2.5	blank	1.0	82.38016605377197	
8	20.8162100315094	movie	1		301.0	6.0	2.5	blank	1.0	82.39586806297302	2.508331060409546
8	22.524637937545776	response	1	2		6.0	2.5	blank	1.0	84.1042959690094	
8	23.324541091918945	fix_post	2		12.0	6.0	2.5	blank	1.0	84.90419912338257	0.1000070571899414
9	23.424548149108887	fix_pre	0		49.0	7.0	2.5	/experiments/knapen_aot/videos/R_S_pexels-anna-tarazevich-6189268.mp4	0.0	85.00420618057251	0.4082508087158203
9	23.817129135131836	response	0	2		7.0	2.5	/experiments/knapen_aot/videos/R_S_pexels-anna-tarazevich-6189268.mp4	0.0	85.39678716659546	
9	23.832798957824707	movie	1		212.0	7.0	2.5	/experiments/knapen_aot/videos/R_S_pexels-anna-tarazevich-6189268.mp4	0.0	85.41245698928833	2.5084280967712402
9	26.341227054595947	fix_post	2		12.0	7.0	2.5	/experiments/knapen_aot/videos/R_S_pexels-anna-tarazevich-6189268.mp4	0.0	87.92088508605957	0.0999910831451416
10	26.44121813774109	fix_pre	0		25.0	8.0	2.5	/experiments/knapen_aot/videos/R_S_yt--DXkjCUzThU_413.mp4	0.0	88.02087616920471	0.2083148956298828
10	26.641353130340576	response	0	2		8.0	2.5	/experiments/knapen_aot/videos/R_S_yt--DXkjCUzThU_413.mp4	0.0	88.2210111618042	
10	26.64953303337097	movie	1		301.0	8.0	2.5	/experiments/knapen_aot/videos/R_S_yt--DXkjCUzThU_413.mp4	0.0	88.2291910648346	2.5083060264587402
10	29.157839059829712	fix_post	2		12.0	8.0	2.5	/experiments/knapen_aot/videos/R_S_yt--DXkjCUzThU_413.mp4	0.0	90.73749709129333	0.10003805160522461
11	29.257877111434937	fix_pre	0		43.0	9.0	2.5	/experiments/knapen_aot/videos/S_ILSVRC2015_train_00165008.mp4	0.0	90.83753514289856	0.35929203033447266
11	29.60800814628601	response	0	2		9.0	2.5	/experiments/knapen_aot/videos/S_ILSVRC2015_train_00165008.mp4	0.0	91.18766617774963	
11	29.61716914176941	movie	1		301.0	9.0	2.5	/experiments/knapen_aot/videos/S_ILSVRC2015_train_00165008.mp4	0.0	91.19682717323303	2.507272958755493
11	32.1244421005249	fix_post	2		12.0	9.0	2.5	/experiments/knapen_aot/videos/S_ILSVRC2015_train_00165008.mp4	0.0	93.70410013198853	0.10007786750793457
12	32.22451996803284	fix_pre	0		172.0	10.0	2.5	/experiments/knapen_aot/videos/S_b1-3.mp4	0.0	93.80417799949646	1.4341850280761719
12	33.649625062942505	response	0	2		10.0	2.5	/experiments/knapen_aot/videos/S_b1-3.mp4	0.0	95.22928309440613	
12	33.65870499610901	movie	1		164.0	10.0	2.5	/experiments/knapen_aot/videos/S_b1-3.mp4	0.0	95.23836302757263	2.507488965988159
12	36.16619396209717	fix_post	2		12.0	10.0	2.5	/experiments/knapen_aot/videos/S_b1-3.mp4	0.0	97.74585199356079	0.10014700889587402
13	36.26634097099304	fix_pre	0		112.0	11.0	2.5	/experiments/knapen_aot/videos/S_yt-aD-EAuBdpUo_163.mp4	0.0	97.84599900245667	0.9341089725494385
13	37.1913321018219	response	0	2		11.0	2.5	/experiments/knapen_aot/videos/S_yt-aD-EAuBdpUo_163.mp4	0.0	98.77099013328552	
13	37.20044994354248	movie	1		301.0	11.0	2.5	/experiments/knapen_aot/videos/S_yt-aD-EAuBdpUo_163.mp4	0.0	98.7801079750061	2.5073330402374268
13	39.70778298377991	fix_post	2		12.0	11.0	2.5	/experiments/knapen_aot/videos/S_yt-aD-EAuBdpUo_163.mp4	0.0	101.28744101524353	0.09995603561401367
14	39.80773901939392	fix_pre	0		33.0	12.0	2.5	/experiments/knapen_aot/videos/R_S_yt-NOnR6C2sjpI_97.mp4	0.0	101.38739705085754	0.27507805824279785
14	40.07457709312439	response	0	2		12.0	2.5	/experiments/knapen_aot/videos/R_S_yt-NOnR6C2sjpI_97.mp4	0.0	101.65423512458801	
14	40.08281707763672	movie	1		301.0	12.0	2.5	/experiments/knapen_aot/videos/R_S_yt-NOnR6C2sjpI_97.mp4	0.0	101.66247510910034	2.508349895477295
14	42.591166973114014	fix_post	2		12.0	12.0	2.5	/experiments/knapen_aot/videos/R_S_yt-NOnR6C2sjpI_97.mp4	0.0	104.17082500457764	0.09998011589050293
15	42.69114708900452	fix_pre	0		32.0	13.0	2.5	/experiments/knapen_aot/videos/S_video-12.mp4	0.0	104.27080512046814	0.2666130065917969
15	42.94956707954407	response	0	2		13.0	2.5	/experiments/knapen_aot/videos/S_video-12.mp4	0.0	104.52922511100769	
15	42.95776009559631	movie	1		164.0	13.0	2.5	/experiments/knapen_aot/videos/S_video-12.mp4	0.0	104.53741812705994	2.5084309577941895
15	45.4661910533905	fix_post	2		12.0	13.0	2.5	/experiments/knapen_aot/videos/S_video-12.mp4	0.0	107.04584908485413	0.0999300479888916
16	45.566121101379395	fix_pre	0		25.0	14.0	2.5	blank	1.0	107.14577913284302	0.20830893516540527
16	45.76625394821167	response	0	2		14.0	2.5	blank	1.0	107.3459119796753	
16	45.7744300365448	movie	1		301.0	14.0	2.5	blank	1.0	107.35408806800842	2.508344888687134
16	48.282774925231934	fix_post	2		12.0	14.0	2.5	blank	1.0	109.86243295669556	0.09993314743041992
17	48.38270807266235	fix_pre	0		70.0	15.0	2.5	/experiments/knapen_aot/videos/R_S_yt-4Qz0m5IYh10_167.mp4	0.0	109.96236610412598	0.5833408832550049
17	48.95787811279297	response	0	2		15.0	2.5	/experiments/knapen_aot/videos/R_S_yt-4Qz0m5IYh10_167.mp4	0.0	110.53753614425659	
17	48.96604895591736	movie	1		301.0	15.0	2.5	/experiments/knapen_aot/videos/R_S_yt-4Qz0m5IYh10_167.mp4	0.0	110.54570698738098	2.5084500312805176
17	51.474498987197876	fix_post	2		12.0	15.0	2.5	/experiments/knapen_aot/videos/R_S_yt-4Qz0m5IYh10_167.mp4	0.0	113.0541570186615	0.10090804100036621
18	51.57540702819824	fix_pre	0		73.0	16.0	2.5	/experiments/knapen_aot/videos/R_S_yt-y3tyx6cZjmA_412.mp4	0.0	113.15506505966187	0.6074459552764893
18	52.17459511756897	response	0	2		16.0	2.5	/experiments/knapen_aot/videos/R_S_yt-y3tyx6cZjmA_412.mp4	0.0	113.75425314903259	
18	52.18285298347473	movie	1		301.0	16.0	2.5	/experiments/knapen_aot/videos/R_S_yt-y3tyx6cZjmA_412.mp4	0.0	113.76251101493835	2.5082521438598633
18	54.691105127334595	fix_post	2		12.0	16.0	2.5	/experiments/knapen_aot/videos/R_S_yt-y3tyx6cZjmA_412.mp4	0.0	116.27076315879822	0.0999917984008789
19	54.791096925735474	fix_pre	0		50.0	17.0	2.5	/experiments/knapen_aot/videos/S_yt-ZBhTpmrAlUY_70.mp4	0.0	116.3707549571991	0.416640043258667
19	55.199512004852295	response	0	2		17.0	2.5	/experiments/knapen_aot/videos/S_yt-ZBhTpmrAlUY_70.mp4	0.0	116.77917003631592	
19	55.20773696899414	movie	1		301.0	17.0	2.5	/experiments/knapen_aot/videos/S_yt-ZBhTpmrAlUY_70.mp4	0.0	116.78739500045776	2.5084171295166016
19	57.71615409851074	fix_post	2		12.0	17.0	2.5	/experiments/knapen_aot/videos/S_yt-ZBhTpmrAlUY_70.mp4	0.0	119.29581212997437	0.09992790222167969
20	57.81608200073242	fix_pre	0		33.0	18.0	2.5	/experiments/knapen_aot/videos/S_comp_A050_C004_1027V8_v16_SDR_FINAL_20180706_SDR_2K_AVC.mp4	0.0	119.39574003219604	0.27500414848327637
20	58.08289909362793	response	0	2		18.0	2.5	/experiments/knapen_aot/videos/S_comp_A050_C004_1027V8_v16_SDR_FINAL_20180706_SDR_2K_AVC.mp4	0.0	119.66255712509155	
20	58.0910861492157	movie	1		168.0	18.0	2.5	/experiments/knapen_aot/videos/S_comp_A050_C004_1027V8_v16_SDR_FINAL_20180706_SDR_2K_AVC.mp4	0.0	119.67074418067932	2.5083580017089844
20	60.516165018081665	response	1	2		18.0	2.5	/experiments/knapen_aot/videos/S_comp_A050_C004_1027V8_v16_SDR_FINAL_20180706_SDR_2K_AVC.mp4	0.0	122.09582304954529	
20	60.59944415092468	fix_post	2		12.0	18.0	2.5	/experiments/knapen_aot/videos/S_comp_A050_C004_1027V8_v16_SDR_FINAL_20180706_SDR_2K_AVC.mp4	0.0	122.1791021823883	0.09996986389160156
21	60.699414014816284	fix_pre	0		50.0	19.0	2.5	/experiments/knapen_aot/videos/S_yt-MTo50ReVNmU_2.mp4	0.0	122.27907204627991	0.4175140857696533
21	61.10783004760742	response	0	2		19.0	2.5	/experiments/knapen_aot/videos/S_yt-MTo50ReVNmU_2.mp4	0.0	122.68748807907104	
21	61.11692810058594	movie	1		301.0	19.0	2.5	/experiments/knapen_aot/videos/S_yt-MTo50ReVNmU_2.mp4	0.0	122.69658613204956	2.5074989795684814
21	62.34947991371155	response	1	2		19.0	2.5	/experiments/knapen_aot/videos/S_yt-MTo50ReVNmU_2.mp4	0.0	123.92913794517517	
21	63.62442708015442	fix_post	2		12.0	19.0	2.5	/experiments/knapen_aot/videos/S_yt-MTo50ReVNmU_2.mp4	0.0	125.20408511161804	0.0999598503112793
22	63.7243869304657	fix_pre	0		44.0	20.0	2.5	blank	1.0	125.30404496192932	0.3666040897369385
22	64.08278203010559	response	0	2		20.0	2.5	blank	1.0	125.66244006156921	
22	64.09099102020264	movie	1		301.0	20.0	2.5	blank	1.0	125.67064905166626	2.5084609985351562
22	66.5994520187378	fix_post	2		12.0	20.0	2.5	blank	1.0	128.17911005020142	0.09993505477905273
23	66.69938707351685	fix_pre	0		46.0	21.0	2.5	/experiments/knapen_aot/videos/R_S_yt-44ip3uFe4YM_30.mp4	0.0	128.27904510498047	0.3832850456237793
23	67.07443904876709	response	0	2		21.0	2.5	/experiments/knapen_aot/videos/R_S_yt-44ip3uFe4YM_30.mp4	0.0	128.6540970802307	
23	67.08267211914062	movie	1		301.0	21.0	2.5	/experiments/knapen_aot/videos/R_S_yt-44ip3uFe4YM_30.mp4	0.0	128.66233015060425	2.508333921432495
23	69.59100604057312	fix_post	2		12.0	21.0	2.5	/experiments/knapen_aot/videos/R_S_yt-44ip3uFe4YM_30.mp4	0.0	131.17066407203674	0.0999600887298584
24	69.69096612930298	fix_pre	0		38.0	22.0	2.5	/experiments/knapen_aot/videos/R_S_yt-K0CzoUy_uIA_22.mp4	0.0	131.2706241607666	0.31665802001953125
24	69.99947595596313	response	0	2		22.0	2.5	/experiments/knapen_aot/videos/R_S_yt-K0CzoUy_uIA_22.mp4	0.0	131.57913398742676	
24	70.00762414932251	movie	1		300.0	22.0	2.5	/experiments/knapen_aot/videos/R_S_yt-K0CzoUy_uIA_22.mp4	0.0	131.58728218078613	2.508389949798584
24	72.44948196411133	response	1	2		22.0	2.5	/experiments/knapen_aot/videos/R_S_yt-K0CzoUy_uIA_22.mp4	0.0	134.02913999557495	
24	72.5160140991211	fix_post	2		12.0	22.0	2.5	/experiments/knapen_aot/videos/R_S_yt-K0CzoUy_uIA_22.mp4	0.0	134.09567213058472	0.10002493858337402
25	72.61603903770447	fix_pre	0		403.0	23.0	2.5	/experiments/knapen_aot/videos/R_S_I004_C014_SDR_2K_AVC.mp4	0.0	134.1956970691681	3.3581531047821045
25	75.96608996391296	response	0	2		23.0	2.5	/experiments/knapen_aot/videos/R_S_I004_C014_SDR_2K_AVC.mp4	0.0	137.5457479953766	
25	75.97419214248657	movie	1		171.0	23.0	2.5	/experiments/knapen_aot/videos/R_S_I004_C014_SDR_2K_AVC.mp4	0.0	137.5538501739502	2.5085067749023438
25	78.48269891738892	fix_post	2		12.0	23.0	2.5	/experiments/knapen_aot/videos/R_S_I004_C014_SDR_2K_AVC.mp4	0.0	140.06235694885254	0.09996509552001953
26	78.58266401290894	fix_pre	0		46.0	24.0	2.5	/experiments/knapen_aot/videos/R_S_yt-R5wOWRtRmrI_36.mp4	0.0	140.16232204437256	0.3833010196685791
26	78.95778894424438	response	0	2		24.0	2.5	/experiments/knapen_aot/videos/R_S_yt-R5wOWRtRmrI_36.mp4	0.0	140.537446975708	
26	78.96596503257751	movie	1		301.0	24.0	2.5	/experiments/knapen_aot/videos/R_S_yt-R5wOWRtRmrI_36.mp4	0.0	140.54562306404114	2.50832200050354
26	81.47428703308105	fix_post	2		12.0	24.0	2.5	/experiments/knapen_aot/videos/R_S_yt-R5wOWRtRmrI_36.mp4	0.0	143.05394506454468	0.10001611709594727
27	81.574303150177	fix_pre	0		15.0	25.0	2.5	/experiments/knapen_aot/videos/R_S_wc-ZGCMbPfXQ71L_31.mp4	0.0	143.15396118164062	0.12571477890014648
27	81.69107413291931	response	0	2		25.0	2.5	/experiments/knapen_aot/videos/R_S_wc-ZGCMbPfXQ71L_31.mp4	0.0	143.27073216438293	
27	81.70001792907715	movie	1		164.0	25.0	2.5	/experiments/knapen_aot/videos/R_S_wc-ZGCMbPfXQ71L_31.mp4	0.0	143.27967596054077	2.5076119899749756
27	84.20762991905212	fix_post	2		12.0	25.0	2.5	/experiments/knapen_aot/videos/R_S_wc-ZGCMbPfXQ71L_31.mp4	0.0	145.78728795051575	0.10002303123474121
28	84.30765295028687	fix_pre	0		73.0	26.0	2.5	/experiments/knapen_aot/videos/S_g201_TH_804_A001_8_SDR_20191031_SDR_2K_AVC.mp4	0.0	145.8873109817505	0.6097609996795654
28	84.90778398513794	response	0	2		26.0	2.5	/experiments/knapen_aot/videos/S_g201_TH_804_A001_8_SDR_20191031_SDR_2K_AVC.mp4	0.0	146.48744201660156	
28	84.91741394996643	movie	1		165.0	26.0	2.5	/experiments/knapen_aot/videos/S_g201_TH_804_A001_8_SDR_20191031_SDR_2K_AVC.mp4	0.0	146.49707198143005	2.5068860054016113
28	87.42429995536804	fix_post	2		12.0	26.0	2.5	/experiments/knapen_aot/videos/S_g201_TH_804_A001_8_SDR_20191031_SDR_2K_AVC.mp4	0.0	149.00395798683167	0.10004210472106934
29	87.52434206008911	fix_pre	0		102.0	27.0	2.5	blank	1.0	149.10400009155273	0.8498308658599854
29	88.36607599258423	response	0	2		27.0	2.5	blank	1.0	149.94573402404785	
29	88.3741729259491	movie	1		301.0	27.0	2.5	blank	1.0	149.95383095741272	2.508347988128662
29	90.88252091407776	fix_post	2		12.0	27.0	2.5	blank	1.0	152.46217894554138	0.10025715827941895
30	90.98277807235718	fix_pre	0		72.0	28.0	2.5	/experiments/knapen_aot/videos/R_S_ILSVRC2015_train_00708000.mp4	0.0	152.5624361038208	0.599747896194458
30	91.57434296607971	response	0	2		28.0	2.5	/experiments/knapen_aot/videos/R_S_ILSVRC2015_train_00708000.mp4	0.0	153.15400099754333	
30	91.58252596855164	movie	1		301.0	28.0	2.5	/experiments/knapen_aot/videos/R_S_ILSVRC2015_train_00708000.mp4	0.0	153.16218400001526	2.5083730220794678
30	94.0908989906311	fix_post	2		12.0	28.0	2.5	/experiments/knapen_aot/videos/R_S_ILSVRC2015_train_00708000.mp4	0.0	155.67055702209473	0.0999910831451416
31	94.19089007377625	fix_pre	0		168.0	29.0	2.5	/experiments/knapen_aot/videos/R_S_yt-Y7-umyL036c_507.mp4	0.0	155.77054810523987	1.4000139236450195
31	95.58280897140503	response	0	2		29.0	2.5	/experiments/knapen_aot/videos/R_S_yt-Y7-umyL036c_507.mp4	0.0	157.16246700286865	
31	95.59090399742126	movie	1		301.0	29.0	2.5	/experiments/knapen_aot/videos/R_S_yt-Y7-umyL036c_507.mp4	0.0	157.1705620288849	2.5082900524139404
31	97.31794309616089	response	1	2		29.0	2.5	/experiments/knapen_aot/videos/R_S_yt-Y7-umyL036c_507.mp4	0.0	158.8976011276245	
31	98.0242531299591	response	1	2		29.0	2.5	/experiments/knapen_aot/videos/R_S_yt-Y7-umyL036c_507.mp4	0.0	159.60391116142273	
31	98.0991940498352	fix_post	2		12.0	29.0	2.5	/experiments/knapen_aot/videos/R_S_yt-Y7-umyL036c_507.mp4	0.0	159.67885208129883	0.10003089904785156
32	98.19922494888306	fix_pre	0		117.0	30.0	2.5	/experiments/knapen_aot/videos/R_S_yt-1n1jTroiwJs_163.mp4	0.0	159.77888298034668	0.9749701023101807
32	99.16595792770386	response	0	2		30.0	2.5	/experiments/knapen_aot/videos/R_S_yt-1n1jTroiwJs_163.mp4	0.0	160.74561595916748	
32	99.17419505119324	movie	1		301.0	30.0	2.5	/experiments/knapen_aot/videos/R_S_yt-1n1jTroiwJs_163.mp4	0.0	160.75385308265686	2.5083489418029785
32	99.82483005523682	response	1	2		30.0	2.5	/experiments/knapen_aot/videos/R_S_yt-1n1jTroiwJs_163.mp4	0.0	161.40448808670044	
32	101.68254399299622	fix_post	2		12.0	30.0	2.5	/experiments/knapen_aot/videos/R_S_yt-1n1jTroiwJs_163.mp4	0.0	163.26220202445984	0.09990215301513672
33	101.78244614601135	fix_pre	0		60.0	31.0	2.5	/experiments/knapen_aot/videos/R_S_yt--_ZMybcaUOw_254.mp4	0.0	163.36210417747498	0.5006029605865479
33	102.27428007125854	response	0	2		31.0	2.5	/experiments/knapen_aot/videos/R_S_yt--_ZMybcaUOw_254.mp4	0.0	163.85393810272217	
33	102.2830491065979	movie	1		301.0	31.0	2.5	/experiments/knapen_aot/videos/R_S_yt--_ZMybcaUOw_254.mp4	0.0	163.86270713806152	2.50780987739563
33	103.11644411087036	response	1	2		31.0	2.5	/experiments/knapen_aot/videos/R_S_yt--_ZMybcaUOw_254.mp4	0.0	164.69610214233398	
33	104.74928402900696	response	1	2		31.0	2.5	/experiments/knapen_aot/videos/R_S_yt--_ZMybcaUOw_254.mp4	0.0	166.32894206047058	
33	104.79085898399353	fix_post	2		12.0	31.0	2.5	/experiments/knapen_aot/videos/R_S_yt--_ZMybcaUOw_254.mp4	0.0	166.37051701545715	0.10022497177124023
34	104.89108395576477	fix_pre	0		149.0	32.0	2.5	/experiments/knapen_aot/videos/S_pexels-koolshooters-7327401_1.mp4	0.0	166.4707419872284	1.2414369583129883
34	106.12430810928345	response	0	2		32.0	2.5	/experiments/knapen_aot/videos/S_pexels-koolshooters-7327401_1.mp4	0.0	167.70396614074707	
34	106.13252091407776	movie	1		164.0	32.0	2.5	/experiments/knapen_aot/videos/S_pexels-koolshooters-7327401_1.mp4	0.0	167.71217894554138	2.508319139480591
34	108.64084005355835	fix_post	2		12.0	32.0	2.5	/experiments/knapen_aot/videos/S_pexels-koolshooters-7327401_1.mp4	0.0	170.22049808502197	0.1000070571899414
35	108.74084711074829	fix_pre	0		97.0	33.0	2.5	/experiments/knapen_aot/videos/S_ILSVRC2015_train_00708000.mp4	0.0	170.3205051422119	0.8083019256591797
35	109.54097199440002	response	0	2		33.0	2.5	/experiments/knapen_aot/videos/S_ILSVRC2015_train_00708000.mp4	0.0	171.12063002586365	
35	109.54914903640747	movie	1		301.0	33.0	2.5	/experiments/knapen_aot/videos/S_ILSVRC2015_train_00708000.mp4	0.0	171.1288070678711	2.5083649158477783
35	112.05751395225525	fix_post	2		12.0	33.0	2.5	/experiments/knapen_aot/videos/S_ILSVRC2015_train_00708000.mp4	0.0	173.63717198371887	0.09997797012329102
36	112.15749192237854	fix_pre	0		17.0	34.0	2.5	blank	1.0	173.73714995384216	0.141693115234375
36	112.29089593887329	response	0	2		34.0	2.5	blank	1.0	173.8705539703369	
36	112.29918503761292	movie	1		301.0	34.0	2.5	blank	1.0	173.87884306907654	2.508310079574585
36	114.8074951171875	fix_post	2		12.0	34.0	2.5	blank	1.0	176.38715314865112	0.09999489784240723
37	114.90749001502991	fix_pre	0		22.0	35.0	2.5	/experiments/knapen_aot/videos/S_wc-ZGCMbPfXQ71L_31.mp4	0.0	176.48714804649353	0.18330097198486328
37	115.08258605003357	response	0	2		35.0	2.5	/experiments/knapen_aot/videos/S_wc-ZGCMbPfXQ71L_31.mp4	0.0	176.6622440814972	
37	115.09079098701477	movie	1		164.0	35.0	2.5	/experiments/knapen_aot/videos/S_wc-ZGCMbPfXQ71L_31.mp4	0.0	176.6704490184784	2.508394956588745
37	117.59918594360352	fix_post	2		12.0	35.0	2.5	/experiments/knapen_aot/videos/S_wc-ZGCMbPfXQ71L_31.mp4	0.0	179.17884397506714	0.09995818138122559
38	117.69914412498474	fix_pre	0		120.0	36.0	2.5	/experiments/knapen_aot/videos/S_ILSVRC2015_train_00219003.mp4	0.0	179.27880215644836	1.0003769397735596
38	118.69090008735657	response	0	2		36.0	2.5	/experiments/knapen_aot/videos/S_ILSVRC2015_train_00219003.mp4	0.0	180.2705581188202	
38	118.6995210647583	movie	1		301.0	36.0	2.5	/experiments/knapen_aot/videos/S_ILSVRC2015_train_00219003.mp4	0.0	180.27917909622192	2.507969856262207
38	121.20749092102051	fix_post	2		12.0	36.0	2.5	/experiments/knapen_aot/videos/S_ILSVRC2015_train_00219003.mp4	0.0	182.78714895248413	0.0999610424041748
39	121.30745196342468	fix_pre	0		56.0	37.0	2.5	/experiments/knapen_aot/videos/R_S_yt-w_e3sxIzepA_115.mp4	0.0	182.8871099948883	0.4665660858154297
39	121.76590895652771	response	0	2		37.0	2.5	/experiments/knapen_aot/videos/R_S_yt-w_e3sxIzepA_115.mp4	0.0	183.34556698799133	
39	121.77401804924011	movie	1		301.0	37.0	2.5	/experiments/knapen_aot/videos/R_S_yt-w_e3sxIzepA_115.mp4	0.0	183.35367608070374	2.508384943008423
39	124.28240299224854	fix_post	2		12.0	37.0	2.5	/experiments/knapen_aot/videos/R_S_yt-w_e3sxIzepA_115.mp4	0.0	185.86206102371216	0.1000509262084961
40	124.38245391845703	fix_pre	0		126.0	38.0	2.5	/experiments/knapen_aot/videos/R_S_ILSVRC2015_train_00549001.mp4	0.0	185.96211194992065	1.0499351024627686
40	125.42421412467957	response	0	2		38.0	2.5	/experiments/knapen_aot/videos/R_S_ILSVRC2015_train_00549001.mp4	0.0	187.0038721561432	
40	125.4323890209198	movie	1		301.0	38.0	2.5	/experiments/knapen_aot/videos/R_S_ILSVRC2015_train_00549001.mp4	0.0	187.01204705238342	2.508404016494751
40	127.94079303741455	fix_post	2		12.0	38.0	2.5	/experiments/knapen_aot/videos/R_S_ILSVRC2015_train_00549001.mp4	0.0	189.52045106887817	0.09991192817687988
41	128.04070496559143	fix_pre	0		56.0	39.0	2.5	/experiments/knapen_aot/videos/S_ILSVRC2015_train_00689000.mp4	0.0	189.62036299705505	0.4666931629180908
41	128.49923610687256	response	0	2		39.0	2.5	/experiments/knapen_aot/videos/S_ILSVRC2015_train_00689000.mp4	0.0	190.07889413833618	
41	128.50739812850952	movie	1		301.0	39.0	2.5	/experiments/knapen_aot/videos/S_ILSVRC2015_train_00689000.mp4	0.0	190.08705615997314	2.508471965789795
41	131.01587009429932	fix_post	2		12.0	39.0	2.5	/experiments/knapen_aot/videos/S_ILSVRC2015_train_00689000.mp4	0.0	192.59552812576294	0.09987497329711914
42	131.11574506759644	fix_pre	0		13.0	40.0	2.5	blank	1.0	192.69540309906006	0.10838007926940918
42	131.21596002578735	response	0	2		40.0	2.5	blank	1.0	192.79561805725098	
42	131.22412514686584	movie	1		301.0	40.0	2.5	blank	1.0	192.80378317832947	2.508354902267456
42	132.61587595939636	response	1	2		40.0	2.5	blank	1.0	194.19553399085999	
42	133.624165058136	response	1	2		40.0	2.5	blank	1.0	195.2038230895996	
42	133.7324800491333	fix_post	2		12.0	40.0	2.5	blank	1.0	195.31213808059692	0.09998798370361328
43	133.8324680328369	fix_pre	0		50.0	41.0	2.5	/experiments/knapen_aot/videos/S_BsNCrwV7d8Q_9.mp4	0.0	195.41212606430054	0.4166131019592285
43	134.24084997177124	response	0	2		41.0	2.5	/experiments/knapen_aot/videos/S_BsNCrwV7d8Q_9.mp4	0.0	195.82050800323486	
43	134.24908113479614	movie	1		301.0	41.0	2.5	/experiments/knapen_aot/videos/S_BsNCrwV7d8Q_9.mp4	0.0	195.82873916625977	2.5083529949188232
43	136.75743412971497	fix_post	2		12.0	41.0	2.5	/experiments/knapen_aot/videos/S_BsNCrwV7d8Q_9.mp4	0.0	198.3370921611786	0.09999895095825195
44	136.85743308067322	fix_pre	0		31.0	42.0	2.5	/experiments/knapen_aot/videos/R_S_pexels-cottonbro-9063801_1.mp4	0.0	198.43709111213684	0.2587239742279053
44	137.1075611114502	response	0	2		42.0	2.5	/experiments/knapen_aot/videos/R_S_pexels-cottonbro-9063801_1.mp4	0.0	198.68721914291382	
44	137.11615705490112	movie	1		199.0	42.0	2.5	/experiments/knapen_aot/videos/R_S_pexels-cottonbro-9063801_1.mp4	0.0	198.69581508636475	2.50785493850708
44	139.6240119934082	fix_post	2		12.0	42.0	2.5	/experiments/knapen_aot/videos/R_S_pexels-cottonbro-9063801_1.mp4	0.0	201.20367002487183	0.10003209114074707
45	139.72404408454895	fix_pre	0		27.0	43.0	2.5	/experiments/knapen_aot/videos/R_S_comp_C001_C005_PS_v01_SDR_PS_20180925_SDR_2K_AVC.mp4	0.0	201.30370211601257	0.22532892227172852
45	139.93327403068542	response	0	2		43.0	2.5	/experiments/knapen_aot/videos/R_S_comp_C001_C005_PS_v01_SDR_PS_20180925_SDR_2K_AVC.mp4	0.0	201.51293206214905	
45	139.94937300682068	movie	1		176.0	43.0	2.5	/experiments/knapen_aot/videos/R_S_comp_C001_C005_PS_v01_SDR_PS_20180925_SDR_2K_AVC.mp4	0.0	201.5290310382843	2.5080130100250244
45	142.4573860168457	fix_post	2		12.0	43.0	2.5	/experiments/knapen_aot/videos/R_S_comp_C001_C005_PS_v01_SDR_PS_20180925_SDR_2K_AVC.mp4	0.0	204.03704404830933	0.09990406036376953
46	142.55729007720947	fix_pre	0		45.0	44.0	2.5	/experiments/knapen_aot/videos/R_S_yt-YLcmfyfIokU_64.mp4	0.0	204.1369481086731	0.37502098083496094
46	142.92409801483154	response	0	2		44.0	2.5	/experiments/knapen_aot/videos/R_S_yt-YLcmfyfIokU_64.mp4	0.0	204.50375604629517	
46	142.93231105804443	movie	1		301.0	44.0	2.5	/experiments/knapen_aot/videos/R_S_yt-YLcmfyfIokU_64.mp4	0.0	204.51196908950806	2.508502960205078
46	145.4408140182495	fix_post	2		12.0	44.0	2.5	/experiments/knapen_aot/videos/R_S_yt-YLcmfyfIokU_64.mp4	0.0	207.02047204971313	0.10007691383361816
47	145.54089093208313	fix_pre	0		23.0	45.0	2.5	/experiments/knapen_aot/videos/R_S_ILSVRC2015_train_00578001.mp4	0.0	207.12054896354675	0.19143104553222656
47	145.7241621017456	response	0	2		45.0	2.5	/experiments/knapen_aot/videos/R_S_ILSVRC2015_train_00578001.mp4	0.0	207.30382013320923	
47	145.73232197761536	movie	1		301.0	45.0	2.5	/experiments/knapen_aot/videos/R_S_ILSVRC2015_train_00578001.mp4	0.0	207.31198000907898	2.508402109146118
47	148.24072408676147	fix_post	2		12.0	45.0	2.5	/experiments/knapen_aot/videos/R_S_ILSVRC2015_train_00578001.mp4	0.0	209.8203821182251	0.09993386268615723
48	148.34065794944763	fix_pre	0		23.0	46.0	2.5	/experiments/knapen_aot/videos/S_yt-fryIS5Itzig_124.mp4	0.0	209.92031598091125	0.1919260025024414
48	148.5241150856018	response	0	2		46.0	2.5	/experiments/knapen_aot/videos/S_yt-fryIS5Itzig_124.mp4	0.0	210.10377311706543	
48	148.53258395195007	movie	1		301.0	46.0	2.5	/experiments/knapen_aot/videos/S_yt-fryIS5Itzig_124.mp4	0.0	210.1122419834137	2.5080270767211914
48	151.04061102867126	fix_post	2		12.0	46.0	2.5	/experiments/knapen_aot/videos/S_yt-fryIS5Itzig_124.mp4	0.0	212.6202690601349	0.10000896453857422
49	151.14061999320984	fix_pre	0		70.0	47.0	2.5	/experiments/knapen_aot/videos/R_S_ILSVRC2015_train_00369002.mp4	0.0	212.72027802467346	0.5834009647369385
49	151.71579504013062	response	0	2		47.0	2.5	/experiments/knapen_aot/videos/R_S_ILSVRC2015_train_00369002.mp4	0.0	213.29545307159424	
49	151.72402095794678	movie	1		301.0	47.0	2.5	/experiments/knapen_aot/videos/R_S_ILSVRC2015_train_00369002.mp4	0.0	213.3036789894104	2.50833797454834
49	154.23235893249512	fix_post	2		12.0	47.0	2.5	/experiments/knapen_aot/videos/R_S_ILSVRC2015_train_00369002.mp4	0.0	215.81201696395874	0.09999418258666992
50	154.3323531150818	fix_pre	0		498.0	48.0	2.5	blank	1.0	215.9120111465454	4.149883985519409
50	158.47410202026367	response	0	2		48.0	2.5	blank	1.0	220.0537600517273	
50	158.4822371006012	movie	1		301.0	48.0	2.5	blank	1.0	220.06189513206482	2.508949041366577
50	160.99118614196777	fix_post	2		12.0	48.0	2.5	blank	1.0	222.5708441734314	0.09950399398803711
51	161.0906901359558	fix_pre	0		42.0	49.0	2.5	/experiments/knapen_aot/videos/S_yt-GBt59U0KUR0_6.mp4	0.0	222.67034816741943	0.34992289543151855
51	161.43244004249573	response	0	2		49.0	2.5	/experiments/knapen_aot/videos/S_yt-GBt59U0KUR0_6.mp4	0.0	223.01209807395935	
51	161.44061303138733	movie	1		301.0	49.0	2.5	/experiments/knapen_aot/videos/S_yt-GBt59U0KUR0_6.mp4	0.0	223.02027106285095	2.5086300373077393
51	163.94924306869507	fix_post	2		12.0	49.0	2.5	/experiments/knapen_aot/videos/S_yt-GBt59U0KUR0_6.mp4	0.0	225.5289011001587	0.09974789619445801
52	164.04899096488953	fix_pre	0		29.0	50.0	2.5	/experiments/knapen_aot/videos/S_ILSVRC2015_train_00689000.mp4	0.0	225.62864899635315	0.24163818359375
52	164.28240299224854	response	0	2		50.0	2.5	/experiments/knapen_aot/videos/S_ILSVRC2015_train_00689000.mp4	0.0	225.86206102371216	
52	164.29062914848328	movie	1		301.0	50.0	2.5	/experiments/knapen_aot/videos/S_ILSVRC2015_train_00689000.mp4	0.0	225.8702871799469	2.508403778076172
52	166.79903292655945	fix_post	2		12.0	50.0	2.5	/experiments/knapen_aot/videos/S_ILSVRC2015_train_00689000.mp4	0.0	228.37869095802307	0.09993219375610352
53	166.89896512031555	fix_pre	0		1.0	51.0	2.5	/experiments/knapen_aot/videos/S_yt--_ZMybcaUOw_254.mp4	0.0	228.47862315177917	0.008891820907592773
53	166.9006371498108	response	0	2		51.0	2.5	/experiments/knapen_aot/videos/S_yt--_ZMybcaUOw_254.mp4	0.0	228.4802951812744	
53	166.90785694122314	movie	1		301.0	51.0	2.5	/experiments/knapen_aot/videos/S_yt--_ZMybcaUOw_254.mp4	0.0	228.48751497268677	2.5077831745147705
53	169.41564011573792	fix_post	2		12.0	51.0	2.5	/experiments/knapen_aot/videos/S_yt--_ZMybcaUOw_254.mp4	0.0	230.99529814720154	0.0999908447265625
54	169.51563096046448	fix_pre	0		27.0	52.0	2.5	/experiments/knapen_aot/videos/S_TYs22gin-EU_57.mp4	0.0	231.0952889919281	0.225114107131958
54	169.73242497444153	response	0	2		52.0	2.5	/experiments/knapen_aot/videos/S_TYs22gin-EU_57.mp4	0.0	231.31208300590515	
54	169.74074506759644	movie	1		301.0	52.0	2.5	/experiments/knapen_aot/videos/S_TYs22gin-EU_57.mp4	0.0	231.32040309906006	2.5081679821014404
54	172.24891304969788	fix_post	2		12.0	52.0	2.5	/experiments/knapen_aot/videos/S_TYs22gin-EU_57.mp4	0.0	233.8285710811615	0.10002994537353516
55	172.3489429950714	fix_pre	0		162.0	53.0	2.5	/experiments/knapen_aot/videos/R_S_yt-9yxWUrtQJnw_11.mp4	0.0	233.92860102653503	1.3501560688018799
55	173.68322801589966	response	0	2		53.0	2.5	/experiments/knapen_aot/videos/R_S_yt-9yxWUrtQJnw_11.mp4	0.0	235.26288604736328	
55	173.6990990638733	movie	1		301.0	53.0	2.5	/experiments/knapen_aot/videos/R_S_yt-9yxWUrtQJnw_11.mp4	0.0	235.2787570953369	2.508180856704712
55	176.207279920578	fix_post	2		12.0	53.0	2.5	/experiments/knapen_aot/videos/R_S_yt-9yxWUrtQJnw_11.mp4	0.0	237.78693795204163	0.10001015663146973
56	176.30729007720947	fix_pre	0		427.0	54.0	2.5	/experiments/knapen_aot/videos/R_S_yt-PreGL81PEP4_61.mp4	0.0	237.8869481086731	3.5583548545837402
56	179.85734605789185	response	0	2		54.0	2.5	/experiments/knapen_aot/videos/R_S_yt-PreGL81PEP4_61.mp4	0.0	241.43700408935547	
56	179.8656449317932	movie	1		301.0	54.0	2.5	/experiments/knapen_aot/videos/R_S_yt-PreGL81PEP4_61.mp4	0.0	241.44530296325684	2.5082650184631348
56	182.37390995025635	fix_post	2		12.0	54.0	2.5	/experiments/knapen_aot/videos/R_S_yt-PreGL81PEP4_61.mp4	0.0	243.95356798171997	0.09993410110473633
57	182.47384405136108	fix_pre	0		33.0	55.0	2.5	/experiments/knapen_aot/videos/S_yt-9yxWUrtQJnw_11.mp4	0.0	244.0535020828247	0.2750070095062256
57	182.74069809913635	response	0	2		55.0	2.5	/experiments/knapen_aot/videos/S_yt-9yxWUrtQJnw_11.mp4	0.0	244.32035613059998	
57	182.7488510608673	movie	1		301.0	55.0	2.5	/experiments/knapen_aot/videos/S_yt-9yxWUrtQJnw_11.mp4	0.0	244.32850909233093	2.5083959102630615
57	185.25724697113037	fix_post	2		12.0	55.0	2.5	/experiments/knapen_aot/videos/S_yt-9yxWUrtQJnw_11.mp4	0.0	246.836905002594	0.10020208358764648
58	185.35744905471802	fix_pre	0		28.0	56.0	2.5	blank	1.0	246.93710708618164	0.23307299613952637
58	185.58236002922058	response	0	2		56.0	2.5	blank	1.0	247.1620180606842	
58	185.59052205085754	movie	1		301.0	56.0	2.5	blank	1.0	247.17018008232117	2.5083930492401123
58	188.09891510009766	fix_post	2		12.0	56.0	2.5	blank	1.0	249.67857313156128	0.10030698776245117
59	188.1992220878601	fix_pre	0		48.0	57.0	2.5	/experiments/knapen_aot/videos/R_S_yt-jQrMcUCmAaM_44.mp4	0.0	249.77888011932373	0.39963197708129883
59	188.59068608283997	response	0	2		57.0	2.5	/experiments/knapen_aot/videos/R_S_yt-jQrMcUCmAaM_44.mp4	0.0	250.1703441143036	
59	188.5988540649414	movie	1		301.0	57.0	2.5	/experiments/knapen_aot/videos/R_S_yt-jQrMcUCmAaM_44.mp4	0.0	250.17851209640503	2.508375883102417
59	191.10722994804382	fix_post	2		12.0	57.0	2.5	/experiments/knapen_aot/videos/R_S_yt-jQrMcUCmAaM_44.mp4	0.0	252.68688797950745	0.10002613067626953
60	191.2072560787201	fix_pre	0		25.0	58.0	2.5	/experiments/knapen_aot/videos/S_yt-8RmEimCI80g_35.mp4	0.0	252.78691411018372	0.20821285247802734
60	191.40733003616333	response	0	2		58.0	2.5	/experiments/knapen_aot/videos/S_yt-8RmEimCI80g_35.mp4	0.0	252.98698806762695	
60	191.41546893119812	movie	1		301.0	58.0	2.5	/experiments/knapen_aot/videos/S_yt-8RmEimCI80g_35.mp4	0.0	252.99512696266174	2.508419990539551
60	193.92388892173767	fix_post	2		12.0	58.0	2.5	/experiments/knapen_aot/videos/S_yt-8RmEimCI80g_35.mp4	0.0	255.5035469532013	0.10018014907836914
61	194.02406907081604	fix_pre	0		26.0	59.0	2.5	/experiments/knapen_aot/videos/R_S_yt-1CV2cYtUlxE_57.mp4	0.0	255.60372710227966	0.21642303466796875
61	194.23228907585144	response	0	2		59.0	2.5	/experiments/knapen_aot/videos/R_S_yt-1CV2cYtUlxE_57.mp4	0.0	255.81194710731506	
61	194.240492105484	movie	1		301.0	59.0	2.5	/experiments/knapen_aot/videos/R_S_yt-1CV2cYtUlxE_57.mp4	0.0	255.82015013694763	2.508316993713379
61	196.7488090991974	fix_post	2		12.0	59.0	2.5	/experiments/knapen_aot/videos/R_S_yt-1CV2cYtUlxE_57.mp4	0.0	258.328467130661	0.10001802444458008
62	196.84882712364197	fix_pre	0		18.0	60.0	2.5	/experiments/knapen_aot/videos/S_ILSVRC2015_train_00595000.mp4	0.0	258.4284851551056	0.15001296997070312
62	196.99067497253418	response	0	2		60.0	2.5	/experiments/knapen_aot/videos/S_ILSVRC2015_train_00595000.mp4	0.0	258.5703330039978	
62	196.99884009361267	movie	1		301.0	60.0	2.5	/experiments/knapen_aot/videos/S_ILSVRC2015_train_00595000.mp4	0.0	258.5784981250763	2.5084228515625
62	199.50726294517517	fix_post	2		12.0	60.0	2.5	/experiments/knapen_aot/videos/S_ILSVRC2015_train_00595000.mp4	0.0	261.0869209766388	0.09987711906433105
63	199.6071400642395	fix_pre	0		129.0	61.0	2.5	/experiments/knapen_aot/videos/R_S_video_inspire_uk_edinburgh_arthursseat_010.1080-h264.mp4	0.0	261.1867980957031	1.0749900341033936
63	200.67391109466553	response	0	2		61.0	2.5	/experiments/knapen_aot/videos/R_S_video_inspire_uk_edinburgh_arthursseat_010.1080-h264.mp4	0.0	262.25356912612915	
63	200.6821300983429	movie	1		171.0	61.0	2.5	/experiments/knapen_aot/videos/R_S_video_inspire_uk_edinburgh_arthursseat_010.1080-h264.mp4	0.0	262.2617881298065	2.50836181640625
63	203.19049191474915	fix_post	2		12.0	61.0	2.5	/experiments/knapen_aot/videos/R_S_video_inspire_uk_edinburgh_arthursseat_010.1080-h264.mp4	0.0	264.77014994621277	0.09999608993530273
64	203.29048800468445	fix_pre	0		17.0	62.0	2.5	/experiments/knapen_aot/videos/R_S_yt-zhQ32_OayBQ_39.mp4	0.0	264.87014603614807	0.14162206649780273
64	203.42387104034424	response	0	2		62.0	2.5	/experiments/knapen_aot/videos/R_S_yt-zhQ32_OayBQ_39.mp4	0.0	265.00352907180786	
64	203.43211007118225	movie	1		301.0	62.0	2.5	/experiments/knapen_aot/videos/R_S_yt-zhQ32_OayBQ_39.mp4	0.0	265.0117681026459	2.5083868503570557
64	205.9404969215393	fix_post	2		12.0	62.0	2.5	/experiments/knapen_aot/videos/R_S_yt-zhQ32_OayBQ_39.mp4	0.0	267.52015495300293	0.09999608993530273
65	206.0404930114746	fix_pre	0		21.0	63.0	2.5	blank	1.0	267.62015104293823	0.17503094673156738
65	206.19969391822815	response	0	2		63.0	2.5	blank	1.0	267.7793519496918	
65	206.21552395820618	movie	1		301.0	63.0	2.5	blank	1.0	267.7951819896698	2.5082430839538574
65	208.72376704216003	fix_post	2		12.0	63.0	2.5	blank	1.0	270.30342507362366	0.10004997253417969
65	208.79050207138062	response	2	2		63.0	2.5	blank	1.0	270.37016010284424	
66	208.8238170146942	fix_pre	0		60.0	64.0	2.5	/experiments/knapen_aot/videos/S_ILSVRC2015_train_00165008.mp4	0.0	270.40347504615784	0.49990296363830566
66	209.3155379295349	response	0	2		64.0	2.5	/experiments/knapen_aot/videos/S_ILSVRC2015_train_00165008.mp4	0.0	270.89519596099854	
66	209.32371997833252	movie	1		301.0	64.0	2.5	/experiments/knapen_aot/videos/S_ILSVRC2015_train_00165008.mp4	0.0	270.90337800979614	2.5084099769592285
66	211.83212995529175	fix_post	2		12.0	64.0	2.5	/experiments/knapen_aot/videos/S_ILSVRC2015_train_00165008.mp4	0.0	273.41178798675537	0.09998917579650879
67	211.93211913108826	fix_pre	0		11.0	65.0	2.5	/experiments/knapen_aot/videos/S_fHdEaNT0gA0_35.mp4	0.0	273.5117771625519	0.09161496162414551
67	212.01553201675415	response	0	2		65.0	2.5	/experiments/knapen_aot/videos/S_fHdEaNT0gA0_35.mp4	0.0	273.5951900482178	
67	212.0237340927124	movie	1		301.0	65.0	2.5	/experiments/knapen_aot/videos/S_fHdEaNT0gA0_35.mp4	0.0	273.603392124176	2.508357048034668
67	214.53209114074707	fix_post	2		12.0	65.0	2.5	/experiments/knapen_aot/videos/S_fHdEaNT0gA0_35.mp4	0.0	276.1117491722107	0.09998083114624023
68	214.6320719718933	fix_pre	0		40.0	66.0	2.5	/experiments/knapen_aot/videos/R_S_yt-UBqUhu-GEVg_6.mp4	0.0	276.21173000335693	0.3332841396331787
68	214.95719814300537	response	0	2		66.0	2.5	/experiments/knapen_aot/videos/R_S_yt-UBqUhu-GEVg_6.mp4	0.0	276.536856174469	
68	214.9653561115265	movie	1		301.0	66.0	2.5	/experiments/knapen_aot/videos/R_S_yt-UBqUhu-GEVg_6.mp4	0.0	276.5450141429901	2.508749008178711
68	217.4741051197052	fix_post	2		12.0	66.0	2.5	/experiments/knapen_aot/videos/R_S_yt-UBqUhu-GEVg_6.mp4	0.0	279.0537631511688	0.09962987899780273
69	217.573734998703	fix_pre	0		35.0	67.0	2.5	/experiments/knapen_aot/videos/R_S_yt-hvuC_2YXsTQ_159.mp4	0.0	279.1533930301666	0.2916100025177002
69	217.8571479320526	response	0	2		67.0	2.5	/experiments/knapen_aot/videos/R_S_yt-hvuC_2YXsTQ_159.mp4	0.0	279.43680596351624	
69	217.8653450012207	movie	1		301.0	67.0	2.5	/experiments/knapen_aot/videos/R_S_yt-hvuC_2YXsTQ_159.mp4	0.0	279.4450030326843	2.5083811283111572
69	220.37372612953186	fix_post	2		12.0	67.0	2.5	/experiments/knapen_aot/videos/R_S_yt-hvuC_2YXsTQ_159.mp4	0.0	281.9533841609955	0.10001182556152344
70	220.47373795509338	fix_pre	0		36.0	68.0	2.5	/experiments/knapen_aot/videos/S_yt-ybH6uAiFbjc_273.mp4	0.0	282.053395986557	0.29995298385620117
70	220.7579140663147	response	0	2		68.0	2.5	/experiments/knapen_aot/videos/S_yt-ybH6uAiFbjc_273.mp4	0.0	282.3375720977783	
70	220.77369093894958	movie	1		301.0	68.0	2.5	/experiments/knapen_aot/videos/S_yt-ybH6uAiFbjc_273.mp4	0.0	282.3533489704132	2.50835919380188
70	223.28205013275146	fix_post	2		12.0	68.0	2.5	/experiments/knapen_aot/videos/S_yt-ybH6uAiFbjc_273.mp4	0.0	284.8617081642151	0.09996199607849121
71	223.38201212882996	fix_pre	0		30.0	69.0	2.5	blank	1.0	284.9616701602936	0.250032901763916
71	223.6238260269165	response	0	2		69.0	2.5	blank	1.0	285.2034840583801	
71	223.63204503059387	movie	1		301.0	69.0	2.5	blank	1.0	285.2117030620575	2.508265972137451
71	225.56549096107483	response	1	2		69.0	2.5	blank	1.0	287.14514899253845	
71	226.14031100273132	fix_post	2		12.0	69.0	2.5	blank	1.0	287.71996903419495	0.10004806518554688
72	226.24035906791687	fix_pre	0		53.0	70.0	2.5	/experiments/knapen_aot/videos/R_S_-vPHq-7BJ70_15.mp4	0.0	287.8200170993805	0.44159507751464844
72	226.67372798919678	response	0	2		70.0	2.5	/experiments/knapen_aot/videos/R_S_-vPHq-7BJ70_15.mp4	0.0	288.2533860206604	
72	226.68195414543152	movie	1		301.0	70.0	2.5	/experiments/knapen_aot/videos/R_S_-vPHq-7BJ70_15.mp4	0.0	288.26161217689514	2.5083677768707275
72	229.19032192230225	fix_post	2		12.0	70.0	2.5	/experiments/knapen_aot/videos/R_S_-vPHq-7BJ70_15.mp4	0.0	290.76997995376587	0.09996914863586426
73	229.2902910709381	fix_pre	0		185.0	71.0	2.5	/experiments/knapen_aot/videos/R_S_ILSVRC2015_train_00515001.mp4	0.0	290.86994910240173	1.5416629314422607
73	230.8237841129303	response	0	2		71.0	2.5	/experiments/knapen_aot/videos/R_S_ILSVRC2015_train_00515001.mp4	0.0	292.4034421443939	
73	230.83195400238037	movie	1		301.0	71.0	2.5	/experiments/knapen_aot/videos/R_S_ILSVRC2015_train_00515001.mp4	0.0	292.411612033844	2.508419990539551
73	233.34037399291992	fix_post	2		12.0	71.0	2.5	/experiments/knapen_aot/videos/R_S_ILSVRC2015_train_00515001.mp4	0.0	294.92003202438354	0.09999799728393555
74	233.44037199020386	fix_pre	0		48.0	72.0	2.5	/experiments/knapen_aot/videos/R_S_ILSVRC2015_train_00518001.mp4	0.0	295.0200300216675	0.3998730182647705
74	233.83200693130493	response	0	2		72.0	2.5	/experiments/knapen_aot/videos/R_S_ILSVRC2015_train_00518001.mp4	0.0	295.41166496276855	
74	233.84024500846863	movie	1		301.0	72.0	2.5	/experiments/knapen_aot/videos/R_S_ILSVRC2015_train_00518001.mp4	0.0	295.41990303993225	2.5084049701690674
74	236.3486499786377	fix_post	2		12.0	72.0	2.5	/experiments/knapen_aot/videos/R_S_ILSVRC2015_train_00518001.mp4	0.0	297.9283080101013	0.10030198097229004
75	236.44895195960999	fix_pre	0		16.0	73.0	2.5	/experiments/knapen_aot/videos/S_yt-xQPKYWDRy2A_491.mp4	0.0	298.0286099910736	0.1329970359802246
75	236.57378697395325	response	0	2		73.0	2.5	/experiments/knapen_aot/videos/S_yt-xQPKYWDRy2A_491.mp4	0.0	298.15344500541687	
75	236.5819489955902	movie	1		301.0	73.0	2.5	/experiments/knapen_aot/videos/S_yt-xQPKYWDRy2A_491.mp4	0.0	298.16160702705383	2.5082850456237793
75	238.9417209625244	response	1	2		73.0	2.5	/experiments/knapen_aot/videos/S_yt-xQPKYWDRy2A_491.mp4	0.0	300.52137899398804	
75	239.090234041214	fix_post	2		12.0	73.0	2.5	/experiments/knapen_aot/videos/S_yt-xQPKYWDRy2A_491.mp4	0.0	300.6698920726776	0.10005688667297363
76	239.19029092788696	fix_pre	0		47.0	74.0	2.5	/experiments/knapen_aot/videos/R_S_WO9z7lBUvOs_151.mp4	0.0	300.7699489593506	0.3916501998901367
76	239.56621098518372	response	0	2		74.0	2.5	/experiments/knapen_aot/videos/R_S_WO9z7lBUvOs_151.mp4	0.0	301.14586901664734	
76	239.5819411277771	movie	1		301.0	74.0	2.5	/experiments/knapen_aot/videos/R_S_WO9z7lBUvOs_151.mp4	0.0	301.1615991592407	2.5083348751068115
76	241.91532707214355	response	1	2		74.0	2.5	/experiments/knapen_aot/videos/R_S_WO9z7lBUvOs_151.mp4	0.0	303.4949851036072	
76	242.0902760028839	fix_post	2		12.0	74.0	2.5	/experiments/knapen_aot/videos/R_S_WO9z7lBUvOs_151.mp4	0.0	303.66993403434753	0.10001397132873535
77	242.19028997421265	fix_pre	0		64.0	75.0	2.5	/experiments/knapen_aot/videos/S_ILSVRC2015_train_00067003.mp4	0.0	303.76994800567627	0.533297061920166
77	242.71541810035706	response	0	2		75.0	2.5	/experiments/knapen_aot/videos/S_ILSVRC2015_train_00067003.mp4	0.0	304.2950761318207	
77	242.7235870361328	movie	1		301.0	75.0	2.5	/experiments/knapen_aot/videos/S_ILSVRC2015_train_00067003.mp4	0.0	304.30324506759644	2.5083699226379395
77	245.23195695877075	fix_post	2		12.0	75.0	2.5	/experiments/knapen_aot/videos/S_ILSVRC2015_train_00067003.mp4	0.0	306.8116149902344	0.10008716583251953
78	245.33204412460327	fix_pre	0		131.0	76.0	2.5	/experiments/knapen_aot/videos/R_S_yt-hdZEAsVBEEM_19.mp4	0.0	306.9117021560669	1.0915238857269287
78	246.41535711288452	response	0	2		76.0	2.5	/experiments/knapen_aot/videos/R_S_yt-hdZEAsVBEEM_19.mp4	0.0	307.99501514434814	
78	246.4235680103302	movie	1		301.0	76.0	2.5	/experiments/knapen_aot/videos/R_S_yt-hdZEAsVBEEM_19.mp4	0.0	308.0032260417938	2.5083510875701904
78	248.9319190979004	fix_post	2		12.0	76.0	2.5	/experiments/knapen_aot/videos/R_S_yt-hdZEAsVBEEM_19.mp4	0.0	310.511577129364	0.10001301765441895
79	249.0319321155548	fix_pre	0		85.0	77.0	2.5	blank	1.0	310.61159014701843	0.7083559036254883
79	249.73199701309204	response	0	2		77.0	2.5	blank	1.0	311.31165504455566	
79	249.7402880191803	movie	1		301.0	77.0	2.5	blank	1.0	311.3199460506439	2.5082509517669678
79	252.24853897094727	fix_post	2		12.0	77.0	2.5	blank	1.0	313.8281970024109	0.10002613067626953
80	252.34856510162354	fix_pre	0		49.0	78.0	2.5	/experiments/knapen_aot/videos/S_yt-1n1jTroiwJs_163.mp4	0.0	313.92822313308716	0.4083080291748047
80	252.74111008644104	response	0	2		78.0	2.5	/experiments/knapen_aot/videos/S_yt-1n1jTroiwJs_163.mp4	0.0	314.32076811790466	
80	252.75687313079834	movie	1		301.0	78.0	2.5	/experiments/knapen_aot/videos/S_yt-1n1jTroiwJs_163.mp4	0.0	314.33653116226196	2.508375883102417
80	255.26524901390076	fix_post	2		12.0	78.0	2.5	/experiments/knapen_aot/videos/S_yt-1n1jTroiwJs_163.mp4	0.0	316.8449070453644	0.09997391700744629
81	255.3652229309082	fix_pre	0		63.0	79.0	2.5	/experiments/knapen_aot/videos/R_S_yt-fryIS5Itzig_124.mp4	0.0	316.9448809623718	0.5249860286712646
81	255.88199305534363	response	0	2		79.0	2.5	/experiments/knapen_aot/videos/R_S_yt-fryIS5Itzig_124.mp4	0.0	317.46165108680725	
81	255.89020895957947	movie	1		301.0	79.0	2.5	/experiments/knapen_aot/videos/R_S_yt-fryIS5Itzig_124.mp4	0.0	317.4698669910431	2.508331060409546
81	258.398540019989	fix_post	2		12.0	79.0	2.5	/experiments/knapen_aot/videos/R_S_yt-fryIS5Itzig_124.mp4	0.0	319.97819805145264	0.10006999969482422
82	258.49861001968384	fix_pre	0		37.0	80.0	2.5	/experiments/knapen_aot/videos/R_S_ILSVRC2015_train_00371006.mp4	0.0	320.07826805114746	0.30835795402526855
82	258.7986030578613	response	0	2		80.0	2.5	/experiments/knapen_aot/videos/R_S_ILSVRC2015_train_00371006.mp4	0.0	320.37826108932495	
82	258.8069679737091	movie	1		301.0	80.0	2.5	/experiments/knapen_aot/videos/R_S_ILSVRC2015_train_00371006.mp4	0.0	320.38662600517273	2.508254051208496
82	261.3152220249176	fix_post	2		12.0	80.0	2.5	/experiments/knapen_aot/videos/R_S_ILSVRC2015_train_00371006.mp4	0.0	322.8948800563812	0.10000205039978027
83	261.4152240753174	fix_pre	0		49.0	81.0	2.5	/experiments/knapen_aot/videos/R_S_yt-MhW2fU45JK8_544.mp4	0.0	322.994882106781	0.40828800201416016
83	261.8152940273285	response	0	2		81.0	2.5	/experiments/knapen_aot/videos/R_S_yt-MhW2fU45JK8_544.mp4	0.0	323.3949520587921	
83	261.82351207733154	movie	1		301.0	81.0	2.5	/experiments/knapen_aot/videos/R_S_yt-MhW2fU45JK8_544.mp4	0.0	323.40317010879517	2.508450984954834
83	264.3319630622864	fix_post	2		12.0	81.0	2.5	/experiments/knapen_aot/videos/R_S_yt-MhW2fU45JK8_544.mp4	0.0	325.91162109375	0.09984898567199707
84	264.4318120479584	fix_pre	0		40.0	82.0	2.5	blank	1.0	326.011470079422	0.3333768844604492
84	264.75688195228577	response	0	2		82.0	2.5	blank	1.0	326.3365399837494	
84	264.7651889324188	movie	1		301.0	82.0	2.5	blank	1.0	326.34484696388245	2.5084540843963623
84	267.2736430168152	fix_post	2		12.0	82.0	2.5	blank	1.0	328.8533010482788	0.09989309310913086
85	267.3735361099243	fix_pre	0		51.0	83.0	2.5	/experiments/knapen_aot/videos/S_yt-4NjyKFnwHBo_13.mp4	0.0	328.95319414138794	0.4248769283294678
85	267.78278708457947	response	0	2		83.0	2.5	/experiments/knapen_aot/videos/S_yt-4NjyKFnwHBo_13.mp4	0.0	329.3624451160431	
85	267.7984130382538	movie	1		301.0	83.0	2.5	/experiments/knapen_aot/videos/S_yt-4NjyKFnwHBo_13.mp4	0.0	329.3780710697174	2.5084500312805176
85	270.3068630695343	fix_post	2		12.0	83.0	2.5	/experiments/knapen_aot/videos/S_yt-4NjyKFnwHBo_13.mp4	0.0	331.8865211009979	0.09997987747192383
87	270.4068429470062	stim	0		296.0					331.98650097846985	2.466593027114868
87	270.69127011299133	response	0	2						332.27092814445496	
87	272.8659019470215	response	0	space						334.4455599784851	
