trial_nr	onset	event_type	phase	response	nr_frames	movie_index	movie_duration	movie_file	blank	onset_abs	duration
0	0.15279293060302734	stim	0		61.0					59.15904903411865	0.5109829902648926
0	0.6554179191589355	response	0	space						59.66167402267456	
1	0.6637759208679199	stim	0		121.0					59.670032024383545	1.0077929496765137
1	1.2564849853515625	response	0	space						60.26274108886719	
1	1.6299707889556885	response	0	space						60.63622689247131	
1	1.6715688705444336	stim	1		120.0					60.67782497406006	0.9999010562896729
2	2.6714699268341064	fix_pre	0		37.0	0.0	2.5	/experiments/knapen_aot/videos/R_S_yt-tX3slAQb9yY_13.mp4	0.0	61.67772603034973	0.30840492248535156
2	2.971674919128418	response	0	space		0.0	2.5	/experiments/knapen_aot/videos/R_S_yt-tX3slAQb9yY_13.mp4	0.0	61.97793102264404	
2	2.979874849319458	movie	1		300.0	0.0	2.5	/experiments/knapen_aot/videos/R_S_yt-tX3slAQb9yY_13.mp4	0.0	61.98613095283508	2.508334159851074
2	5.488209009170532	fix_post	2		12.0	0.0	2.5	/experiments/knapen_aot/videos/R_S_yt-tX3slAQb9yY_13.mp4	0.0	64.49446511268616	0.10004186630249023
3	5.5882508754730225	fix_pre	0		126.0	1.0	2.5	/experiments/knapen_aot/videos/S_G008_C015_UHD_SDR_2K_AVC.mp4	0.0	64.59450697898865	1.0502269268035889
3	6.62765097618103	response	0	2		1.0	2.5	/experiments/knapen_aot/videos/S_G008_C015_UHD_SDR_2K_AVC.mp4	0.0	65.63390707969666	
3	6.638477802276611	movie	1		171.0	1.0	2.5	/experiments/knapen_aot/videos/S_G008_C015_UHD_SDR_2K_AVC.mp4	0.0	65.64473390579224	2.508023977279663
3	9.146501779556274	fix_post	2		12.0	1.0	2.5	/experiments/knapen_aot/videos/S_G008_C015_UHD_SDR_2K_AVC.mp4	0.0	68.1527578830719	0.09995818138122559
4	9.2464599609375	fix_pre	0		28.0	2.0	2.5	/experiments/knapen_aot/videos/R_S_yt-JH6qCYAnX-I_70.mp4	0.0	68.25271606445312	0.23335599899291992
4	9.471668004989624	response	0	2		2.0	2.5	/experiments/knapen_aot/videos/R_S_yt-JH6qCYAnX-I_70.mp4	0.0	68.47792410850525	
4	9.47981595993042	movie	1		301.0	2.0	2.5	/experiments/knapen_aot/videos/R_S_yt-JH6qCYAnX-I_70.mp4	0.0	68.48607206344604	2.508431911468506
4	11.988247871398926	fix_post	2		12.0	2.0	2.5	/experiments/knapen_aot/videos/R_S_yt-JH6qCYAnX-I_70.mp4	0.0	70.99450397491455	0.0999000072479248
5	12.08814787864685	fix_pre	0		39.0	3.0	2.5	/experiments/knapen_aot/videos/R_S_ILSVRC2015_train_00654000.mp4	0.0	71.09440398216248	0.32497096061706543
5	12.40500783920288	response	0	2		3.0	2.5	/experiments/knapen_aot/videos/R_S_ILSVRC2015_train_00654000.mp4	0.0	71.4112639427185	
5	12.413118839263916	movie	1		301.0	3.0	2.5	/experiments/knapen_aot/videos/R_S_ILSVRC2015_train_00654000.mp4	0.0	71.41937494277954	2.508388042449951
5	14.921506881713867	fix_post	2		12.0	3.0	2.5	/experiments/knapen_aot/videos/R_S_ILSVRC2015_train_00654000.mp4	0.0	73.92776298522949	0.09998512268066406
6	15.021492004394531	fix_pre	0		30.0	4.0	2.5	/experiments/knapen_aot/videos/S_yt-AiXq1oDrEXI_123.mp4	0.0	74.02774810791016	0.24994587898254395
6	15.26331090927124	response	0	2		4.0	2.5	/experiments/knapen_aot/videos/S_yt-AiXq1oDrEXI_123.mp4	0.0	74.26956701278687	
6	15.271437883377075	movie	1		301.0	4.0	2.5	/experiments/knapen_aot/videos/S_yt-AiXq1oDrEXI_123.mp4	0.0	74.2776939868927	2.5084540843963623
6	17.779891967773438	fix_post	2		12.0	4.0	2.5	/experiments/knapen_aot/videos/S_yt-AiXq1oDrEXI_123.mp4	0.0	76.78614807128906	0.09996795654296875
7	17.879859924316406	fix_pre	0		50.0	5.0	2.5	blank	1.0	76.88611602783203	0.4166269302368164
7	18.288301944732666	response	0	2		5.0	2.5	blank	1.0	77.29455804824829	
7	18.296486854553223	movie	1		301.0	5.0	2.5	blank	1.0	77.30274295806885	2.5083279609680176
7	20.80481481552124	fix_post	2		12.0	5.0	2.5	blank	1.0	79.81107091903687	0.09996914863586426
8	20.904783964157104	fix_pre	0		30.0	6.0	2.5	/experiments/knapen_aot/videos/R_S_yt-7v3kHYBe7-E_8.mp4	0.0	79.91104006767273	0.2499539852142334
8	21.14656090736389	response	0	2		6.0	2.5	/experiments/knapen_aot/videos/R_S_yt-7v3kHYBe7-E_8.mp4	0.0	80.15281701087952	
8	21.154737949371338	movie	1		301.0	6.0	2.5	/experiments/knapen_aot/videos/R_S_yt-7v3kHYBe7-E_8.mp4	0.0	80.16099405288696	2.5084798336029053
8	23.663217782974243	fix_post	2		12.0	6.0	2.5	/experiments/knapen_aot/videos/R_S_yt-7v3kHYBe7-E_8.mp4	0.0	82.66947388648987	0.10009312629699707
9	23.76331090927124	fix_pre	0		32.0	7.0	2.5	/experiments/knapen_aot/videos/R_S_yt-Jo6PxivsTOg_247.mp4	0.0	82.76956701278687	0.2664458751678467
9	24.021578788757324	response	0	2		7.0	2.5	/experiments/knapen_aot/videos/R_S_yt-Jo6PxivsTOg_247.mp4	0.0	83.02783489227295	
9	24.029756784439087	movie	1		301.0	7.0	2.5	/experiments/knapen_aot/videos/R_S_yt-Jo6PxivsTOg_247.mp4	0.0	83.03601288795471	2.508315086364746
9	26.538071870803833	fix_post	2		12.0	7.0	2.5	/experiments/knapen_aot/videos/R_S_yt-Jo6PxivsTOg_247.mp4	0.0	85.54432797431946	0.10023903846740723
10	26.63831090927124	fix_pre	0		32.0	8.0	2.5	/experiments/knapen_aot/videos/S_yt-BDCyXL5e9S4_223.mp4	0.0	85.64456701278687	0.2664339542388916
10	26.896533012390137	response	0	2		8.0	2.5	/experiments/knapen_aot/videos/S_yt-BDCyXL5e9S4_223.mp4	0.0	85.90278911590576	
10	26.904744863510132	movie	1		301.0	8.0	2.5	/experiments/knapen_aot/videos/S_yt-BDCyXL5e9S4_223.mp4	0.0	85.91100096702576	2.50839900970459
10	29.41314387321472	fix_post	2		12.0	8.0	2.5	/experiments/knapen_aot/videos/S_yt-BDCyXL5e9S4_223.mp4	0.0	88.41939997673035	0.10012507438659668
11	29.51326894760132	fix_pre	0		45.0	9.0	2.5	/experiments/knapen_aot/videos/S_yt-J_FnFAl1uL0_143.mp4	0.0	88.51952505111694	0.37503695487976074
11	29.879921913146973	response	0	2		9.0	2.5	/experiments/knapen_aot/videos/S_yt-J_FnFAl1uL0_143.mp4	0.0	88.8861780166626	
11	29.88830590248108	movie	1		301.0	9.0	2.5	/experiments/knapen_aot/videos/S_yt-J_FnFAl1uL0_143.mp4	0.0	88.8945620059967	2.5081729888916016
11	32.39647889137268	fix_post	2		12.0	9.0	2.5	/experiments/knapen_aot/videos/S_yt-J_FnFAl1uL0_143.mp4	0.0	91.4027349948883	0.09995508193969727
12	32.49643397331238	fix_pre	0		28.0	10.0	2.5	/experiments/knapen_aot/videos/S_yt-yXJr3FR2xrM_27.mp4	0.0	91.502690076828	0.23333287239074707
12	32.721596002578735	response	0	2		10.0	2.5	/experiments/knapen_aot/videos/S_yt-yXJr3FR2xrM_27.mp4	0.0	91.72785210609436	
12	32.729766845703125	movie	1		301.0	10.0	2.5	/experiments/knapen_aot/videos/S_yt-yXJr3FR2xrM_27.mp4	0.0	91.73602294921875	2.508336067199707
12	35.23810291290283	fix_post	2		12.0	10.0	2.5	/experiments/knapen_aot/videos/S_yt-yXJr3FR2xrM_27.mp4	0.0	94.24435901641846	0.1000058650970459
13	35.33810877799988	fix_pre	0		35.0	11.0	2.5	/experiments/knapen_aot/videos/S_yt-Ja7d2a6e5xE_279.mp4	0.0	94.3443648815155	0.29162120819091797
13	35.62154579162598	response	0	2		11.0	2.5	/experiments/knapen_aot/videos/S_yt-Ja7d2a6e5xE_279.mp4	0.0	94.6278018951416	
13	35.629729986190796	movie	1		301.0	11.0	2.5	/experiments/knapen_aot/videos/S_yt-Ja7d2a6e5xE_279.mp4	0.0	94.63598608970642	2.508436918258667
13	38.13816690444946	fix_post	2		12.0	11.0	2.5	/experiments/knapen_aot/videos/S_yt-Ja7d2a6e5xE_279.mp4	0.0	97.14442300796509	0.0998539924621582
14	38.23802089691162	fix_pre	0		36.0	12.0	2.5	/experiments/knapen_aot/videos/R_S_yt-4W224-RSCnM_15.mp4	0.0	97.24427700042725	0.2999899387359619
14	38.52986192703247	response	0	2		12.0	2.5	/experiments/knapen_aot/videos/R_S_yt-4W224-RSCnM_15.mp4	0.0	97.5361180305481	
14	38.53801083564758	movie	1		301.0	12.0	2.5	/experiments/knapen_aot/videos/R_S_yt-4W224-RSCnM_15.mp4	0.0	97.54426693916321	2.508363962173462
14	41.046374797821045	fix_post	2		12.0	12.0	2.5	/experiments/knapen_aot/videos/R_S_yt-4W224-RSCnM_15.mp4	0.0	100.05263090133667	0.10004115104675293
15	41.1464159488678	fix_pre	0		35.0	13.0	2.5	/experiments/knapen_aot/videos/S_ILSVRC2015_train_00682007.mp4	0.0	100.15267205238342	0.29160094261169434
15	41.42987585067749	response	0	2		13.0	2.5	/experiments/knapen_aot/videos/S_ILSVRC2015_train_00682007.mp4	0.0	100.43613195419312	
15	41.43801689147949	movie	1		301.0	13.0	2.5	/experiments/knapen_aot/videos/S_ILSVRC2015_train_00682007.mp4	0.0	100.44427299499512	2.508331060409546
15	43.94634795188904	fix_post	2		12.0	13.0	2.5	/experiments/knapen_aot/videos/S_ILSVRC2015_train_00682007.mp4	0.0	102.95260405540466	0.10005593299865723
16	44.046403884887695	fix_pre	0		23.0	14.0	2.5	blank	1.0	103.05265998840332	0.19158101081848145
16	44.2298629283905	response	0	2		14.0	2.5	blank	1.0	103.23611903190613	
16	44.23798489570618	movie	1		301.0	14.0	2.5	blank	1.0	103.2442409992218	2.508418083190918
16	46.746402978897095	fix_post	2		12.0	14.0	2.5	blank	1.0	105.75265908241272	0.10006093978881836
17	46.84646391868591	fix_pre	0		32.0	15.0	2.5	/experiments/knapen_aot/videos/S_yt-9qXwehMoX7o_50.mp4	0.0	105.85272002220154	0.2666149139404297
17	47.097304821014404	response	0	2		15.0	2.5	/experiments/knapen_aot/videos/S_yt-9qXwehMoX7o_50.mp4	0.0	106.10356092453003	
17	47.11307883262634	movie	1		300.0	15.0	2.5	/experiments/knapen_aot/videos/S_yt-9qXwehMoX7o_50.mp4	0.0	106.11933493614197	2.5083260536193848
17	49.62140488624573	fix_post	2		12.0	15.0	2.5	/experiments/knapen_aot/videos/S_yt-9qXwehMoX7o_50.mp4	0.0	108.62766098976135	0.10004401206970215
18	49.72144889831543	fix_pre	0		28.0	16.0	2.5	/experiments/knapen_aot/videos/S_video-2_copy.mp4	0.0	108.72770500183105	0.2332780361175537
18	49.94650077819824	response	0	2		16.0	2.5	/experiments/knapen_aot/videos/S_video-2_copy.mp4	0.0	108.95275688171387	
18	49.95472693443298	movie	1		164.0	16.0	2.5	/experiments/knapen_aot/videos/S_video-2_copy.mp4	0.0	108.96098303794861	2.508239984512329
18	52.46296691894531	fix_post	2		12.0	16.0	2.5	/experiments/knapen_aot/videos/S_video-2_copy.mp4	0.0	111.46922302246094	0.1000208854675293
19	52.56298780441284	fix_pre	0		29.0	17.0	2.5	/experiments/knapen_aot/videos/S_pexels-cottonbro-6789228.mp4	0.0	111.56924390792847	0.24179506301879883
19	52.79650378227234	response	0	2		17.0	2.5	/experiments/knapen_aot/videos/S_pexels-cottonbro-6789228.mp4	0.0	111.80275988578796	
19	52.80478286743164	movie	1		213.0	17.0	2.5	/experiments/knapen_aot/videos/S_pexels-cottonbro-6789228.mp4	0.0	111.81103897094727	2.5082430839538574
19	55.3130259513855	fix_post	2		12.0	17.0	2.5	/experiments/knapen_aot/videos/S_pexels-cottonbro-6789228.mp4	0.0	114.31928205490112	0.09996390342712402
20	55.41298985481262	fix_pre	0		22.0	18.0	2.5	/experiments/knapen_aot/videos/R_S_yt-RXqc3JAmmPM_72.mp4	0.0	114.41924595832825	0.1833641529083252
20	55.58812093734741	response	0	2		18.0	2.5	/experiments/knapen_aot/videos/R_S_yt-RXqc3JAmmPM_72.mp4	0.0	114.59437704086304	
20	55.59635400772095	movie	1		301.0	18.0	2.5	/experiments/knapen_aot/videos/R_S_yt-RXqc3JAmmPM_72.mp4	0.0	114.60261011123657	2.508344888687134
20	58.10469889640808	fix_post	2		12.0	18.0	2.5	/experiments/knapen_aot/videos/R_S_yt-RXqc3JAmmPM_72.mp4	0.0	117.1109549999237	0.09999299049377441
21	58.204691886901855	fix_pre	0		34.0	19.0	2.5	/experiments/knapen_aot/videos/R_S_yt-V4Oosy-ZtGY_193.mp4	0.0	117.21094799041748	0.28331589698791504
21	58.47982597351074	response	0	2		19.0	2.5	/experiments/knapen_aot/videos/R_S_yt-V4Oosy-ZtGY_193.mp4	0.0	117.48608207702637	
21	58.48800778388977	movie	1		301.0	19.0	2.5	/experiments/knapen_aot/videos/R_S_yt-V4Oosy-ZtGY_193.mp4	0.0	117.4942638874054	2.5083470344543457
21	60.996354818344116	fix_post	2		12.0	19.0	2.5	/experiments/knapen_aot/videos/R_S_yt-V4Oosy-ZtGY_193.mp4	0.0	120.00261092185974	0.099945068359375
22	61.09629988670349	fix_pre	0		31.0	20.0	2.5	blank	1.0	120.10255599021912	0.25838208198547363
22	61.346534967422485	response	0	2		20.0	2.5	blank	1.0	120.35279107093811	
22	61.354681968688965	movie	1		301.0	20.0	2.5	blank	1.0	120.36093807220459	2.5082788467407227
22	63.86296081542969	fix_post	2		12.0	20.0	2.5	blank	1.0	122.86921691894531	0.10004210472106934
23	63.96300292015076	fix_pre	0		53.0	21.0	2.5	/experiments/knapen_aot/videos/R_S_yt-8LO59eN9om4_16.mp4	0.0	122.96925902366638	0.4416539669036865
23	64.39645791053772	response	0	2		21.0	2.5	/experiments/knapen_aot/videos/R_S_yt-8LO59eN9om4_16.mp4	0.0	123.40271401405334	
23	64.40465688705444	movie	1		301.0	21.0	2.5	/experiments/knapen_aot/videos/R_S_yt-8LO59eN9om4_16.mp4	0.0	123.41091299057007	2.5083301067352295
23	66.91298699378967	fix_post	2		12.0	21.0	2.5	/experiments/knapen_aot/videos/R_S_yt-8LO59eN9om4_16.mp4	0.0	125.9192430973053	0.1000058650970459
24	67.01299285888672	fix_pre	0		19.0	22.0	2.5	/experiments/knapen_aot/videos/S_yt-Jo6PxivsTOg_247.mp4	0.0	126.01924896240234	0.15830206871032715
24	67.16308999061584	response	0	2		22.0	2.5	/experiments/knapen_aot/videos/S_yt-Jo6PxivsTOg_247.mp4	0.0	126.16934609413147	
24	67.17129492759705	movie	1		300.0	22.0	2.5	/experiments/knapen_aot/videos/S_yt-Jo6PxivsTOg_247.mp4	0.0	126.17755103111267	2.5083730220794678
24	69.67966794967651	fix_post	2		12.0	22.0	2.5	/experiments/knapen_aot/videos/S_yt-Jo6PxivsTOg_247.mp4	0.0	128.68592405319214	0.09998083114624023
25	69.77964878082275	fix_pre	0		52.0	23.0	2.5	/experiments/knapen_aot/videos/S_yt-8LO59eN9om4_16.mp4	0.0	128.78590488433838	0.4346601963043213
25	70.20481491088867	response	0	2		23.0	2.5	/experiments/knapen_aot/videos/S_yt-8LO59eN9om4_16.mp4	0.0	129.2110710144043	
25	70.21430897712708	movie	1		301.0	23.0	2.5	/experiments/knapen_aot/videos/S_yt-8LO59eN9om4_16.mp4	0.0	129.2205650806427	2.5069940090179443
25	72.72130298614502	fix_post	2		12.0	23.0	2.5	/experiments/knapen_aot/videos/S_yt-8LO59eN9om4_16.mp4	0.0	131.72755908966064	0.09994888305664062
26	72.82125186920166	fix_pre	0		40.0	24.0	2.5	/experiments/knapen_aot/videos/R_S_video_inspire_california_big-sur_landscape_054.1080-h264.mp4	0.0	131.82750797271729	0.3333570957183838
26	73.13891386985779	response	0	2		24.0	2.5	/experiments/knapen_aot/videos/R_S_video_inspire_california_big-sur_landscape_054.1080-h264.mp4	0.0	132.1451699733734	
26	73.15460896492004	movie	1		170.0	24.0	2.5	/experiments/knapen_aot/videos/R_S_video_inspire_california_big-sur_landscape_054.1080-h264.mp4	0.0	132.16086506843567	2.508335828781128
26	75.66294479370117	fix_post	2		12.0	24.0	2.5	/experiments/knapen_aot/videos/R_S_video_inspire_california_big-sur_landscape_054.1080-h264.mp4	0.0	134.6692008972168	0.10002017021179199
27	75.76296496391296	fix_pre	0		22.0	25.0	2.5	/experiments/knapen_aot/videos/S_I003_C004_SDR_2K_AVC.mp4	0.0	134.7692210674286	0.18331098556518555
27	75.93804097175598	response	0	2		25.0	2.5	/experiments/knapen_aot/videos/S_I003_C004_SDR_2K_AVC.mp4	0.0	134.9442970752716	
27	75.94627594947815	movie	1		167.0	25.0	2.5	/experiments/knapen_aot/videos/S_I003_C004_SDR_2K_AVC.mp4	0.0	134.95253205299377	2.5083420276641846
27	78.45461797714233	fix_post	2		12.0	25.0	2.5	/experiments/knapen_aot/videos/S_I003_C004_SDR_2K_AVC.mp4	0.0	137.46087408065796	0.10002803802490234
28	78.55464601516724	fix_pre	0		26.0	26.0	2.5	blank	1.0	137.56090211868286	0.21662688255310059
28	78.76311087608337	response	0	2		26.0	2.5	blank	1.0	137.769366979599	
28	78.77127289772034	movie	1		301.0	26.0	2.5	blank	1.0	137.77752900123596	2.508316993713379
28	81.27958989143372	fix_post	2		12.0	26.0	2.5	blank	1.0	140.28584599494934	0.09993910789489746
29	81.37952899932861	fix_pre	0		39.0	27.0	2.5	/experiments/knapen_aot/videos/R_S_Y011_C001_SDR_2K_AVC.mp4	0.0	140.38578510284424	0.3250758647918701
29	81.69633078575134	response	0	4		27.0	2.5	/experiments/knapen_aot/videos/R_S_Y011_C001_SDR_2K_AVC.mp4	0.0	140.70258688926697	
29	81.70460486412048	movie	1		172.0	27.0	2.5	/experiments/knapen_aot/videos/R_S_Y011_C001_SDR_2K_AVC.mp4	0.0	140.7108609676361	2.5083210468292236
29	84.2129259109497	fix_post	2		12.0	27.0	2.5	/experiments/knapen_aot/videos/R_S_Y011_C001_SDR_2K_AVC.mp4	0.0	143.21918201446533	0.09999394416809082
30	84.3129198551178	fix_pre	0		38.0	28.0	2.5	/experiments/knapen_aot/videos/S_yt-4i1b6NQ9NKs_5.mp4	0.0	143.31917595863342	0.3166520595550537
30	84.62126994132996	response	0	4		28.0	2.5	/experiments/knapen_aot/videos/S_yt-4i1b6NQ9NKs_5.mp4	0.0	143.62752604484558	
30	84.62957191467285	movie	1		301.0	28.0	2.5	/experiments/knapen_aot/videos/S_yt-4i1b6NQ9NKs_5.mp4	0.0	143.63582801818848	2.5083539485931396
30	87.13792586326599	fix_post	2		12.0	28.0	2.5	/experiments/knapen_aot/videos/S_yt-4i1b6NQ9NKs_5.mp4	0.0	146.14418196678162	0.09999203681945801
31	87.23791790008545	fix_pre	0		39.0	29.0	2.5	/experiments/knapen_aot/videos/R_S_Pexels_Videos_2795731_1.mp4	0.0	146.24417400360107	0.32492494583129883
31	87.55467391014099	response	0	4		29.0	2.5	/experiments/knapen_aot/videos/R_S_Pexels_Videos_2795731_1.mp4	0.0	146.56093001365662	
31	87.56284284591675	movie	1		165.0	29.0	2.5	/experiments/knapen_aot/videos/R_S_Pexels_Videos_2795731_1.mp4	0.0	146.56909894943237	2.508247137069702
31	90.07108998298645	fix_post	2		12.0	29.0	2.5	/experiments/knapen_aot/videos/R_S_Pexels_Videos_2795731_1.mp4	0.0	149.07734608650208	0.10004186630249023
32	90.17113184928894	fix_pre	0		30.0	30.0	2.5	/experiments/knapen_aot/videos/S_yt-9qXwehMoX7o_50.mp4	0.0	149.17738795280457	0.25127410888671875
32	90.41303396224976	response	0	4		30.0	2.5	/experiments/knapen_aot/videos/S_yt-9qXwehMoX7o_50.mp4	0.0	149.41929006576538	
32	90.42240595817566	movie	1		301.0	30.0	2.5	/experiments/knapen_aot/videos/S_yt-9qXwehMoX7o_50.mp4	0.0	149.42866206169128	2.5070698261260986
32	92.92947578430176	fix_post	2		12.0	30.0	2.5	/experiments/knapen_aot/videos/S_yt-9qXwehMoX7o_50.mp4	0.0	151.93573188781738	0.10004520416259766
33	93.02952098846436	fix_pre	0		41.0	31.0	2.5	/experiments/knapen_aot/videos/S_ILSVRC2015_train_00743001.mp4	0.0	152.03577709197998	0.34155893325805664
33	93.36304497718811	response	0	4		31.0	2.5	/experiments/knapen_aot/videos/S_ILSVRC2015_train_00743001.mp4	0.0	152.36930108070374	
33	93.37107992172241	movie	1		301.0	31.0	2.5	/experiments/knapen_aot/videos/S_ILSVRC2015_train_00743001.mp4	0.0	152.37733602523804	2.508455991744995
33	95.87953591346741	fix_post	2		12.0	31.0	2.5	/experiments/knapen_aot/videos/S_ILSVRC2015_train_00743001.mp4	0.0	154.88579201698303	0.09995293617248535
34	95.97948884963989	fix_pre	0		26.0	32.0	2.5	/experiments/knapen_aot/videos/S_production_ID_4802716.mp4	0.0	154.98574495315552	0.2166430950164795
34	96.18788385391235	response	0	4		32.0	2.5	/experiments/knapen_aot/videos/S_production_ID_4802716.mp4	0.0	155.19413995742798	
34	96.19613194465637	movie	1		167.0	32.0	2.5	/experiments/knapen_aot/videos/S_production_ID_4802716.mp4	0.0	155.202388048172	2.508342981338501
34	98.70447492599487	fix_post	2		12.0	32.0	2.5	/experiments/knapen_aot/videos/S_production_ID_4802716.mp4	0.0	157.7107310295105	0.10001897811889648
35	98.80449390411377	fix_pre	0		22.0	33.0	2.5	blank	1.0	157.8107500076294	0.1833040714263916
35	98.97957396507263	response	0	4		33.0	2.5	blank	1.0	157.98583006858826	
35	98.98779797554016	movie	1		301.0	33.0	2.5	blank	1.0	157.9940540790558	2.50834584236145
35	101.49614381790161	fix_post	2		12.0	33.0	2.5	blank	1.0	160.50239992141724	0.09999918937683105
36	101.59614300727844	fix_pre	0		28.0	34.0	2.5	/experiments/knapen_aot/videos/R_S_yt-c6kLumgTX54_7.mp4	0.0	160.60239911079407	0.23335981369018555
36	101.82117080688477	response	0	4		34.0	2.5	/experiments/knapen_aot/videos/R_S_yt-c6kLumgTX54_7.mp4	0.0	160.8274269104004	
36	101.82950282096863	movie	1		301.0	34.0	2.5	/experiments/knapen_aot/videos/R_S_yt-c6kLumgTX54_7.mp4	0.0	160.83575892448425	2.508229970932007
36	104.33773279190063	fix_post	2		12.0	34.0	2.5	/experiments/knapen_aot/videos/R_S_yt-c6kLumgTX54_7.mp4	0.0	163.34398889541626	0.1000680923461914
37	104.43780088424683	fix_pre	0		32.0	35.0	2.5	/experiments/knapen_aot/videos/R_S_production_ID_4325509.mp4	0.0	163.44405698776245	0.266632080078125
37	104.69621396064758	response	0	4		35.0	2.5	/experiments/knapen_aot/videos/R_S_production_ID_4325509.mp4	0.0	163.7024700641632	
37	104.70443296432495	movie	1		200.0	35.0	2.5	/experiments/knapen_aot/videos/R_S_production_ID_4325509.mp4	0.0	163.71068906784058	2.508359909057617
37	107.21279287338257	fix_post	2		12.0	35.0	2.5	/experiments/knapen_aot/videos/R_S_production_ID_4325509.mp4	0.0	166.2190489768982	0.09999895095825195
38	107.31279182434082	fix_pre	0		11.0	36.0	2.5	/experiments/knapen_aot/videos/R_S_yt-RXqc3JAmmPM_72.mp4	0.0	166.31904792785645	0.0916750431060791
38	107.39629292488098	response	0	4		36.0	2.5	/experiments/knapen_aot/videos/R_S_yt-RXqc3JAmmPM_72.mp4	0.0	166.4025490283966	
38	107.4044668674469	movie	1		301.0	36.0	2.5	/experiments/knapen_aot/videos/R_S_yt-RXqc3JAmmPM_72.mp4	0.0	166.41072297096252	2.5083229541778564
38	109.91278982162476	fix_post	2		12.0	36.0	2.5	/experiments/knapen_aot/videos/R_S_yt-RXqc3JAmmPM_72.mp4	0.0	168.91904592514038	0.09998512268066406
39	110.01277494430542	fix_pre	0		33.0	37.0	2.5	/experiments/knapen_aot/videos/R_S_Y011_C001_SDR_2K_AVC.mp4	0.0	169.01903104782104	0.2749168872833252
39	110.27956891059875	response	0	4		37.0	2.5	/experiments/knapen_aot/videos/R_S_Y011_C001_SDR_2K_AVC.mp4	0.0	169.28582501411438	
39	110.28769183158875	movie	1		172.0	37.0	2.5	/experiments/knapen_aot/videos/R_S_Y011_C001_SDR_2K_AVC.mp4	0.0	169.29394793510437	2.508394956588745
39	112.79608678817749	fix_post	2		12.0	37.0	2.5	/experiments/knapen_aot/videos/R_S_Y011_C001_SDR_2K_AVC.mp4	0.0	171.80234289169312	0.09999704360961914
40	112.89608383178711	fix_pre	0		12.0	38.0	2.5	/experiments/knapen_aot/videos/R_S_yt--Ra34zJ69AU_68.mp4	0.0	171.90233993530273	0.09996914863586426
40	112.9878888130188	response	0	4		38.0	2.5	/experiments/knapen_aot/videos/R_S_yt--Ra34zJ69AU_68.mp4	0.0	171.99414491653442	
40	112.99605298042297	movie	1		301.0	38.0	2.5	/experiments/knapen_aot/videos/R_S_yt--Ra34zJ69AU_68.mp4	0.0	172.0023090839386	2.5083858966827393
40	115.50443887710571	fix_post	2		12.0	38.0	2.5	/experiments/knapen_aot/videos/R_S_yt--Ra34zJ69AU_68.mp4	0.0	174.51069498062134	0.09990811347961426
41	115.60434699058533	fix_pre	0		30.0	39.0	2.5	/experiments/knapen_aot/videos/R_S_yt-V4Oosy-ZtGY_193.mp4	0.0	174.61060309410095	0.25005292892456055
41	115.84623980522156	response	0	4		39.0	2.5	/experiments/knapen_aot/videos/R_S_yt-V4Oosy-ZtGY_193.mp4	0.0	174.85249590873718	
41	115.85439991950989	movie	1		301.0	39.0	2.5	/experiments/knapen_aot/videos/R_S_yt-V4Oosy-ZtGY_193.mp4	0.0	174.8606560230255	2.508336067199707
41	118.3627359867096	fix_post	2		12.0	39.0	2.5	/experiments/knapen_aot/videos/R_S_yt-V4Oosy-ZtGY_193.mp4	0.0	177.36899209022522	0.09995198249816895
42	118.46268796920776	fix_pre	0		20.0	40.0	2.5	/experiments/knapen_aot/videos/R_S_yt-R6a0Jzo_u1Y_254.mp4	0.0	177.4689440727234	0.16779589653015137
42	118.62124800682068	response	0	4		40.0	2.5	/experiments/knapen_aot/videos/R_S_yt-R6a0Jzo_u1Y_254.mp4	0.0	177.6275041103363	
42	118.63048386573792	movie	1		300.0	40.0	2.5	/experiments/knapen_aot/videos/R_S_yt-R6a0Jzo_u1Y_254.mp4	0.0	177.63673996925354	2.5071990489959717
42	121.13768291473389	fix_post	2		12.0	40.0	2.5	/experiments/knapen_aot/videos/R_S_yt-R6a0Jzo_u1Y_254.mp4	0.0	180.1439390182495	0.10001492500305176
43	121.23769783973694	fix_pre	0		39.0	41.0	2.5	blank	1.0	180.24395394325256	0.32506799697875977
43	121.54697394371033	response	0	4		41.0	2.5	blank	1.0	180.55323004722595	
43	121.5627658367157	movie	1		301.0	41.0	2.5	blank	1.0	180.56902194023132	2.508319139480591
43	124.07108497619629	fix_post	2		12.0	41.0	2.5	blank	1.0	183.0773410797119	0.1000359058380127
44	124.1711208820343	fix_pre	0		31.0	42.0	2.5	/experiments/knapen_aot/videos/S_yt-tfHCqgH1guY_235.mp4	0.0	183.17737698554993	0.25829195976257324
44	124.42122077941895	response	0	4		42.0	2.5	/experiments/knapen_aot/videos/S_yt-tfHCqgH1guY_235.mp4	0.0	183.42747688293457	
44	124.42941284179688	movie	1		301.0	42.0	2.5	/experiments/knapen_aot/videos/S_yt-tfHCqgH1guY_235.mp4	0.0	183.4356689453125	2.5082781314849854
44	126.93769097328186	fix_post	2		12.0	42.0	2.5	/experiments/knapen_aot/videos/S_yt-tfHCqgH1guY_235.mp4	0.0	185.94394707679749	0.1000368595123291
45	127.03772783279419	fix_pre	0		23.0	43.0	2.5	/experiments/knapen_aot/videos/S_ILSVRC2015_train_00017007.mp4	0.0	186.04398393630981	0.19169116020202637
45	127.22117781639099	response	0	4		43.0	2.5	/experiments/knapen_aot/videos/S_ILSVRC2015_train_00017007.mp4	0.0	186.22743391990662	
45	127.22941899299622	movie	1		300.0	43.0	2.5	/experiments/knapen_aot/videos/S_ILSVRC2015_train_00017007.mp4	0.0	186.23567509651184	2.5083179473876953
45	129.7377369403839	fix_post	2		12.0	43.0	2.5	/experiments/knapen_aot/videos/S_ILSVRC2015_train_00017007.mp4	0.0	188.74399304389954	0.09988999366760254
46	129.8376269340515	fix_pre	0		30.0	44.0	2.5	/experiments/knapen_aot/videos/R_S_comp_L012_c002_PS_v01_SDR_PS_20180925_SDR_2K_AVC.mp4	0.0	188.84388303756714	0.251147985458374
46	130.07951378822327	response	0	4		44.0	2.5	/experiments/knapen_aot/videos/R_S_comp_L012_c002_PS_v01_SDR_PS_20180925_SDR_2K_AVC.mp4	0.0	189.0857698917389	
46	130.0887749195099	movie	1		165.0	44.0	2.5	/experiments/knapen_aot/videos/R_S_comp_L012_c002_PS_v01_SDR_PS_20180925_SDR_2K_AVC.mp4	0.0	189.0950310230255	2.5072720050811768
46	132.59604692459106	fix_post	2		12.0	44.0	2.5	/experiments/knapen_aot/videos/R_S_comp_L012_c002_PS_v01_SDR_PS_20180925_SDR_2K_AVC.mp4	0.0	191.6023030281067	0.09995388984680176
47	132.69600081443787	fix_pre	0		17.0	45.0	2.5	/experiments/knapen_aot/videos/S_yt-b0IfGcoHfD0_83.mp4	0.0	191.7022569179535	0.14268803596496582
47	132.82955288887024	response	0	4		45.0	2.5	/experiments/knapen_aot/videos/S_yt-b0IfGcoHfD0_83.mp4	0.0	191.83580899238586	
47	132.83868885040283	movie	1		301.0	45.0	2.5	/experiments/knapen_aot/videos/S_yt-b0IfGcoHfD0_83.mp4	0.0	191.84494495391846	2.5073161125183105
47	135.34600496292114	fix_post	2		12.0	45.0	2.5	/experiments/knapen_aot/videos/S_yt-b0IfGcoHfD0_83.mp4	0.0	194.35226106643677	0.09996795654296875
48	135.4459729194641	fix_pre	0		43.0	46.0	2.5	/experiments/knapen_aot/videos/R_S_yt-Ja7d2a6e5xE_279.mp4	0.0	194.45222902297974	0.3583559989929199
48	135.79608297348022	response	0	4		46.0	2.5	/experiments/knapen_aot/videos/R_S_yt-Ja7d2a6e5xE_279.mp4	0.0	194.80233907699585	
48	135.80432891845703	movie	1		301.0	46.0	2.5	/experiments/knapen_aot/videos/R_S_yt-Ja7d2a6e5xE_279.mp4	0.0	194.81058502197266	2.508280038833618
48	138.31260895729065	fix_post	2		12.0	46.0	2.5	/experiments/knapen_aot/videos/R_S_yt-Ja7d2a6e5xE_279.mp4	0.0	197.31886506080627	0.10004496574401855
49	138.41265392303467	fix_pre	0		28.0	47.0	2.5	/experiments/knapen_aot/videos/R_S_yt-Ja7d2a6e5xE_279.mp4	0.0	197.4189100265503	0.2333219051361084
49	138.63779592514038	response	0	4		47.0	2.5	/experiments/knapen_aot/videos/R_S_yt-Ja7d2a6e5xE_279.mp4	0.0	197.644052028656	
49	138.64597582817078	movie	1		301.0	47.0	2.5	/experiments/knapen_aot/videos/R_S_yt-Ja7d2a6e5xE_279.mp4	0.0	197.6522319316864	2.5084221363067627
49	141.15439796447754	fix_post	2		12.0	47.0	2.5	/experiments/knapen_aot/videos/R_S_yt-Ja7d2a6e5xE_279.mp4	0.0	200.16065406799316	0.09983086585998535
50	141.25422883033752	fix_pre	0		44.0	48.0	2.5	/experiments/knapen_aot/videos/S_yt--vHa85DHvLU_31.mp4	0.0	200.26048493385315	0.3667590618133545
50	141.6128327846527	response	0	4		48.0	2.5	/experiments/knapen_aot/videos/S_yt--vHa85DHvLU_31.mp4	0.0	200.61908888816833	
50	141.62098789215088	movie	1		301.0	48.0	2.5	/experiments/knapen_aot/videos/S_yt--vHa85DHvLU_31.mp4	0.0	200.6272439956665	2.508212089538574
50	144.12919998168945	fix_post	2		12.0	48.0	2.5	/experiments/knapen_aot/videos/S_yt--vHa85DHvLU_31.mp4	0.0	203.13545608520508	0.10009503364562988
51	144.22929501533508	fix_pre	0		94.0	49.0	2.5	blank	1.0	203.2355511188507	0.783362865447998
51	145.00448489189148	response	0	4		49.0	2.5	blank	1.0	204.0107409954071	
51	145.01265788078308	movie	1		301.0	49.0	2.5	blank	1.0	204.0189139842987	2.5083260536193848
51	147.52098393440247	fix_post	2		12.0	49.0	2.5	blank	1.0	206.5272400379181	0.09997105598449707
52	147.62095499038696	fix_pre	0		31.0	50.0	2.5	/experiments/knapen_aot/videos/S_yt-JGKdBO2Ldzo_93.mp4	0.0	206.6272110939026	0.2592909336090088
52	147.87108182907104	response	0	4		50.0	2.5	/experiments/knapen_aot/videos/S_yt-JGKdBO2Ldzo_93.mp4	0.0	206.87733793258667	
52	147.88024592399597	movie	1		301.0	50.0	2.5	/experiments/knapen_aot/videos/S_yt-JGKdBO2Ldzo_93.mp4	0.0	206.8865020275116	2.507417917251587
52	150.38766384124756	fix_post	2		12.0	50.0	2.5	/experiments/knapen_aot/videos/S_yt-JGKdBO2Ldzo_93.mp4	0.0	209.39391994476318	0.09995913505554199
53	150.4876229763031	fix_pre	0		47.0	51.0	2.5	/experiments/knapen_aot/videos/R_S_ILSVRC2015_train_00411000.mp4	0.0	209.49387907981873	0.3925788402557373
53	150.87101984024048	response	0	4		51.0	2.5	/experiments/knapen_aot/videos/R_S_ILSVRC2015_train_00411000.mp4	0.0	209.8772759437561	
53	150.88020181655884	movie	1		301.0	51.0	2.5	/experiments/knapen_aot/videos/R_S_ILSVRC2015_train_00411000.mp4	0.0	209.88645792007446	2.507491111755371
53	153.3876929283142	fix_post	2		12.0	51.0	2.5	/experiments/knapen_aot/videos/R_S_ILSVRC2015_train_00411000.mp4	0.0	212.39394903182983	0.09991192817687988
54	153.4876048564911	fix_pre	0		38.0	52.0	2.5	/experiments/knapen_aot/videos/S_ILnEDG_aP1A_35.mp4	0.0	212.4938609600067	0.3166389465332031
54	153.7960720062256	response	0	4		52.0	2.5	/experiments/knapen_aot/videos/S_ILnEDG_aP1A_35.mp4	0.0	212.8023281097412	
54	153.8042438030243	movie	1		301.0	52.0	2.5	/experiments/knapen_aot/videos/S_ILnEDG_aP1A_35.mp4	0.0	212.81049990653992	2.5083119869232178
54	156.3125557899475	fix_post	2		12.0	52.0	2.5	/experiments/knapen_aot/videos/S_ILnEDG_aP1A_35.mp4	0.0	215.31881189346313	0.10008811950683594
55	156.41264390945435	fix_pre	0		28.0	53.0	2.5	/experiments/knapen_aot/videos/R_S_yt-7v3kHYBe7-E_8.mp4	0.0	215.41890001296997	0.23330092430114746
55	156.63779377937317	response	0	4		53.0	2.5	/experiments/knapen_aot/videos/R_S_yt-7v3kHYBe7-E_8.mp4	0.0	215.6440498828888	
55	156.6459448337555	movie	1		301.0	53.0	2.5	/experiments/knapen_aot/videos/R_S_yt-7v3kHYBe7-E_8.mp4	0.0	215.65220093727112	2.5083611011505127
55	159.154305934906	fix_post	2		12.0	53.0	2.5	/experiments/knapen_aot/videos/R_S_yt-7v3kHYBe7-E_8.mp4	0.0	218.16056203842163	0.10009288787841797
56	159.25439882278442	fix_pre	0		30.0	54.0	2.5	blank	1.0	218.26065492630005	0.25071215629577637
56	159.49606800079346	response	0	4		54.0	2.5	blank	1.0	218.50232410430908	
56	159.5051109790802	movie	1		301.0	54.0	2.5	blank	1.0	218.51136708259583	2.5074708461761475
56	162.01258182525635	fix_post	2		12.0	54.0	2.5	blank	1.0	221.01883792877197	0.10002803802490234
57	162.11260986328125	fix_pre	0		23.0	55.0	2.5	/experiments/knapen_aot/videos/S_comp_L012_c002_PS_v01_SDR_PS_20180925_SDR_2K_AVC.mp4	0.0	221.11886596679688	0.1915891170501709
57	162.2960557937622	response	0	4		55.0	2.5	/experiments/knapen_aot/videos/S_comp_L012_c002_PS_v01_SDR_PS_20180925_SDR_2K_AVC.mp4	0.0	221.30231189727783	
57	162.30419898033142	movie	1		167.0	55.0	2.5	/experiments/knapen_aot/videos/S_comp_L012_c002_PS_v01_SDR_PS_20180925_SDR_2K_AVC.mp4	0.0	221.31045508384705	2.5084140300750732
57	164.8126130104065	fix_post	2		12.0	55.0	2.5	/experiments/knapen_aot/videos/S_comp_L012_c002_PS_v01_SDR_PS_20180925_SDR_2K_AVC.mp4	0.0	223.81886911392212	0.09998488426208496
58	164.91259789466858	fix_pre	0		21.0	56.0	2.5	/experiments/knapen_aot/videos/S_ILSVRC2015_train_00324002.mp4	0.0	223.9188539981842	0.1758251190185547
58	165.07940196990967	response	0	4		56.0	2.5	/experiments/knapen_aot/videos/S_ILSVRC2015_train_00324002.mp4	0.0	224.0856580734253	
58	165.08842301368713	movie	1		301.0	56.0	2.5	/experiments/knapen_aot/videos/S_ILSVRC2015_train_00324002.mp4	0.0	224.09467911720276	2.5075249671936035
58	167.59594798088074	fix_post	2		12.0	56.0	2.5	/experiments/knapen_aot/videos/S_ILSVRC2015_train_00324002.mp4	0.0	226.60220408439636	0.09999585151672363
59	167.69594383239746	fix_pre	0		31.0	57.0	2.5	/experiments/knapen_aot/videos/R_S_pexels-kelly-lacy-6756531.mp4	0.0	226.7021999359131	0.25828003883361816
59	167.94599986076355	response	0	4		57.0	2.5	/experiments/knapen_aot/videos/R_S_pexels-kelly-lacy-6756531.mp4	0.0	226.95225596427917	
59	167.95422387123108	movie	1		175.0	57.0	2.5	/experiments/knapen_aot/videos/R_S_pexels-kelly-lacy-6756531.mp4	0.0	226.9604799747467	2.508307933807373
59	170.46253180503845	fix_post	2		12.0	57.0	2.5	/experiments/knapen_aot/videos/R_S_pexels-kelly-lacy-6756531.mp4	0.0	229.46878790855408	0.1000370979309082
60	170.56256890296936	fix_pre	0		21.0	58.0	2.5	/experiments/knapen_aot/videos/R_S_yt-fymgyhmYnMI_557.mp4	0.0	229.56882500648499	0.17497897148132324
60	170.7293918132782	response	0	4		58.0	2.5	/experiments/knapen_aot/videos/R_S_yt-fymgyhmYnMI_557.mp4	0.0	229.73564791679382	
60	170.73754787445068	movie	1		301.0	58.0	2.5	/experiments/knapen_aot/videos/R_S_yt-fymgyhmYnMI_557.mp4	0.0	229.7438039779663	2.508362054824829
60	173.2459099292755	fix_post	2		12.0	58.0	2.5	/experiments/knapen_aot/videos/R_S_yt-fymgyhmYnMI_557.mp4	0.0	232.25216603279114	0.10000991821289062
61	173.3459198474884	fix_pre	0		20.0	59.0	2.5	/experiments/knapen_aot/videos/S_yt-KpOAdMtPGFs_17.mp4	0.0	232.35217595100403	0.1666419506072998
61	173.504390001297	response	0	4		59.0	2.5	/experiments/knapen_aot/videos/S_yt-KpOAdMtPGFs_17.mp4	0.0	232.51064610481262	
61	173.5125617980957	movie	1		301.0	59.0	2.5	/experiments/knapen_aot/videos/S_yt-KpOAdMtPGFs_17.mp4	0.0	232.51881790161133	2.508371114730835
61	176.02093291282654	fix_post	2		12.0	59.0	2.5	/experiments/knapen_aot/videos/S_yt-KpOAdMtPGFs_17.mp4	0.0	235.02718901634216	0.09990596771240234
62	176.12083888053894	fix_pre	0		77.0	60.0	2.5	/experiments/knapen_aot/videos/S_yt-RqWnxg1wT-0_41.mp4	0.0	235.12709498405457	0.6416559219360352
62	176.75435185432434	response	0	4		60.0	2.5	/experiments/knapen_aot/videos/S_yt-RqWnxg1wT-0_41.mp4	0.0	235.76060795783997	
62	176.76249480247498	movie	1		300.0	60.0	2.5	/experiments/knapen_aot/videos/S_yt-RqWnxg1wT-0_41.mp4	0.0	235.7687509059906	2.508395195007324
62	179.2708899974823	fix_post	2		12.0	60.0	2.5	/experiments/knapen_aot/videos/S_yt-RqWnxg1wT-0_41.mp4	0.0	238.27714610099792	0.09999489784240723
63	179.3708848953247	fix_pre	0		33.0	61.0	2.5	/experiments/knapen_aot/videos/S_yt-kA0ybjmoiMc_284.mp4	0.0	238.37714099884033	0.2749760150909424
63	179.63768100738525	response	0	4		61.0	2.5	/experiments/knapen_aot/videos/S_yt-kA0ybjmoiMc_284.mp4	0.0	238.64393711090088	
63	179.64586091041565	movie	1		301.0	61.0	2.5	/experiments/knapen_aot/videos/S_yt-kA0ybjmoiMc_284.mp4	0.0	238.65211701393127	2.5083370208740234
63	182.15419793128967	fix_post	2		12.0	61.0	2.5	/experiments/knapen_aot/videos/S_yt-kA0ybjmoiMc_284.mp4	0.0	241.1604540348053	0.09999299049377441
64	182.25419092178345	fix_pre	0		30.0	62.0	2.5	/experiments/knapen_aot/videos/R_S_yt-R6a0Jzo_u1Y_254.mp4	0.0	241.26044702529907	0.2507810592651367
64	182.4960479736328	response	0	4		62.0	2.5	/experiments/knapen_aot/videos/R_S_yt-R6a0Jzo_u1Y_254.mp4	0.0	241.50230407714844	
64	182.50497198104858	movie	1		301.0	62.0	2.5	/experiments/knapen_aot/videos/R_S_yt-R6a0Jzo_u1Y_254.mp4	0.0	241.5112280845642	2.5075929164886475
64	185.01256489753723	fix_post	2		12.0	62.0	2.5	/experiments/knapen_aot/videos/R_S_yt-R6a0Jzo_u1Y_254.mp4	0.0	244.01882100105286	0.09995007514953613
65	185.11251497268677	fix_pre	0		17.0	63.0	2.5	blank	1.0	244.1187710762024	0.142441987991333
65	185.2459897994995	response	0	4		63.0	2.5	blank	1.0	244.25224590301514	
65	185.2549569606781	movie	1		301.0	63.0	2.5	blank	1.0	244.26121306419373	2.507478952407837
65	187.76243591308594	fix_post	2		12.0	63.0	2.5	blank	1.0	246.76869201660156	0.10007905960083008
66	187.86251497268677	fix_pre	0		102.0	64.0	2.5	/experiments/knapen_aot/videos/R_S_yt-KpOAdMtPGFs_17.mp4	0.0	246.8687710762024	0.8507158756256104
66	188.7042989730835	response	0	4		64.0	2.5	/experiments/knapen_aot/videos/R_S_yt-KpOAdMtPGFs_17.mp4	0.0	247.71055507659912	
66	188.71323084831238	movie	1		301.0	64.0	2.5	/experiments/knapen_aot/videos/R_S_yt-KpOAdMtPGFs_17.mp4	0.0	247.719486951828	2.507591962814331
66	191.2208228111267	fix_post	2		12.0	64.0	2.5	/experiments/knapen_aot/videos/R_S_yt-KpOAdMtPGFs_17.mp4	0.0	250.22707891464233	0.10005712509155273
67	191.32087993621826	fix_pre	0		33.0	65.0	2.5	/experiments/knapen_aot/videos/R_S_Pexels_Videos_2795731_1.mp4	0.0	250.3271360397339	0.27495789527893066
67	191.5800278186798	response	0	4		65.0	2.5	/experiments/knapen_aot/videos/R_S_Pexels_Videos_2795731_1.mp4	0.0	250.58628392219543	
67	191.5958378314972	movie	1		163.0	65.0	2.5	/experiments/knapen_aot/videos/R_S_Pexels_Videos_2795731_1.mp4	0.0	250.60209393501282	2.508316993713379
67	194.10415482521057	fix_post	2		12.0	65.0	2.5	/experiments/knapen_aot/videos/R_S_Pexels_Videos_2795731_1.mp4	0.0	253.1104109287262	0.10000896453857422
68	194.20416378974915	fix_pre	0		52.0	66.0	2.5	/experiments/knapen_aot/videos/R_S_yt--vHa85DHvLU_31.mp4	0.0	253.21041989326477	0.4333040714263916
68	194.62930297851562	response	0	4		66.0	2.5	/experiments/knapen_aot/videos/R_S_yt--vHa85DHvLU_31.mp4	0.0	253.63555908203125	
68	194.63746786117554	movie	1		301.0	66.0	2.5	/experiments/knapen_aot/videos/R_S_yt--vHa85DHvLU_31.mp4	0.0	253.64372396469116	2.5083470344543457
68	197.14581489562988	fix_post	2		12.0	66.0	2.5	/experiments/knapen_aot/videos/R_S_yt--vHa85DHvLU_31.mp4	0.0	256.1520709991455	0.0999898910522461
69	197.24580478668213	fix_pre	0		15.0	67.0	2.5	/experiments/knapen_aot/videos/R_S_yt-5MyvZYFlc9g_125.mp4	0.0	256.25206089019775	0.12491822242736816
69	197.35503792762756	response	0	4		67.0	2.5	/experiments/knapen_aot/videos/R_S_yt-5MyvZYFlc9g_125.mp4	0.0	256.3612940311432	
69	197.3707230091095	movie	1		300.0	67.0	2.5	/experiments/knapen_aot/videos/R_S_yt-5MyvZYFlc9g_125.mp4	0.0	256.3769791126251	2.5084049701690674
69	199.87912797927856	fix_post	2		12.0	67.0	2.5	/experiments/knapen_aot/videos/R_S_yt-5MyvZYFlc9g_125.mp4	0.0	258.8853840827942	0.10000896453857422
70	199.97913694381714	fix_pre	0		247.0	68.0	2.5	/experiments/knapen_aot/videos/S_yt-9T99N7Cvi_o_112.mp4	0.0	258.98539304733276	2.0582940578460693
70	202.0292558670044	response	0	4		68.0	2.5	/experiments/knapen_aot/videos/S_yt-9T99N7Cvi_o_112.mp4	0.0	261.03551197052	
70	202.0374310016632	movie	1		301.0	68.0	2.5	/experiments/knapen_aot/videos/S_yt-9T99N7Cvi_o_112.mp4	0.0	261.04368710517883	2.5083818435668945
70	204.5458128452301	fix_post	2		12.0	68.0	2.5	/experiments/knapen_aot/videos/S_yt-9T99N7Cvi_o_112.mp4	0.0	263.5520689487457	0.09992814064025879
71	204.64574098587036	fix_pre	0		48.0	69.0	2.5	blank	1.0	263.651997089386	0.4006638526916504
71	205.03757691383362	response	0	4		69.0	2.5	blank	1.0	264.04383301734924	
71	205.046404838562	movie	1		301.0	69.0	2.5	blank	1.0	264.05266094207764	2.5075860023498535
71	207.55399084091187	fix_post	2		12.0	69.0	2.5	blank	1.0	266.5602469444275	0.10007309913635254
72	207.65406394004822	fix_pre	0		23.0	70.0	2.5	/experiments/knapen_aot/videos/R_S_yt-3NMDWrZr1Z4_255.mp4	0.0	266.66032004356384	0.19166088104248047
72	207.83751893043518	response	0	4		70.0	2.5	/experiments/knapen_aot/videos/R_S_yt-3NMDWrZr1Z4_255.mp4	0.0	266.8437750339508	
72	207.8457248210907	movie	1		301.0	70.0	2.5	/experiments/knapen_aot/videos/R_S_yt-3NMDWrZr1Z4_255.mp4	0.0	266.8519809246063	2.5083820819854736
72	210.35410690307617	fix_post	2		12.0	70.0	2.5	/experiments/knapen_aot/videos/R_S_yt-3NMDWrZr1Z4_255.mp4	0.0	269.3603630065918	0.09994792938232422
73	210.4540548324585	fix_pre	0		35.0	71.0	2.5	/experiments/knapen_aot/videos/S_yt-4wjGeLyvfjY_223.mp4	0.0	269.4603109359741	0.2916390895843506
73	210.73748397827148	response	0	4		71.0	2.5	/experiments/knapen_aot/videos/S_yt-4wjGeLyvfjY_223.mp4	0.0	269.7437400817871	
73	210.74569392204285	movie	1		301.0	71.0	2.5	/experiments/knapen_aot/videos/S_yt-4wjGeLyvfjY_223.mp4	0.0	269.7519500255585	2.508344888687134
73	213.25403881072998	fix_post	2		12.0	71.0	2.5	/experiments/knapen_aot/videos/S_yt-4wjGeLyvfjY_223.mp4	0.0	272.2602949142456	0.09996819496154785
74	213.35400700569153	fix_pre	0		30.0	72.0	2.5	/experiments/knapen_aot/videos/R_S_ILSVRC2015_train_00165008.mp4	0.0	272.36026310920715	0.25001978874206543
74	213.59580993652344	response	0	4		72.0	2.5	/experiments/knapen_aot/videos/R_S_ILSVRC2015_train_00165008.mp4	0.0	272.60206604003906	
74	213.6040267944336	movie	1		301.0	72.0	2.5	/experiments/knapen_aot/videos/R_S_ILSVRC2015_train_00165008.mp4	0.0	272.6102828979492	2.508369207382202
74	216.1123960018158	fix_post	2		12.0	72.0	2.5	/experiments/knapen_aot/videos/R_S_ILSVRC2015_train_00165008.mp4	0.0	275.1186521053314	0.0999758243560791
75	216.21237182617188	fix_pre	0		30.0	73.0	2.5	/experiments/knapen_aot/videos/S_ILSVRC2015_train_00572000.mp4	0.0	275.2186279296875	0.2505149841308594
75	216.45419192314148	response	0	4		73.0	2.5	/experiments/knapen_aot/videos/S_ILSVRC2015_train_00572000.mp4	0.0	275.4604480266571	
75	216.46288681030273	movie	1		301.0	73.0	2.5	/experiments/knapen_aot/videos/S_ILSVRC2015_train_00572000.mp4	0.0	275.46914291381836	2.5077810287475586
75	218.9706678390503	fix_post	2		12.0	73.0	2.5	/experiments/knapen_aot/videos/S_ILSVRC2015_train_00572000.mp4	0.0	277.9769239425659	0.09996914863586426
76	219.07063698768616	fix_pre	0		23.0	74.0	2.5	/experiments/knapen_aot/videos/R_S_xq822dX6DDM_1.mp4	0.0	278.0768930912018	0.1916818618774414
76	219.2541148662567	response	0	4		74.0	2.5	/experiments/knapen_aot/videos/R_S_xq822dX6DDM_1.mp4	0.0	278.26037096977234	
76	219.2623188495636	movie	1		301.0	74.0	2.5	/experiments/knapen_aot/videos/R_S_xq822dX6DDM_1.mp4	0.0	278.2685749530792	2.50839900970459
76	221.7707178592682	fix_post	2		12.0	74.0	2.5	/experiments/knapen_aot/videos/R_S_xq822dX6DDM_1.mp4	0.0	280.7769739627838	0.09998607635498047
77	221.87070393562317	fix_pre	0		31.0	75.0	2.5	/experiments/knapen_aot/videos/S_yt-7v3kHYBe7-E_8.mp4	0.0	280.8769600391388	0.2588639259338379
77	222.12085390090942	response	0	4		75.0	2.5	/experiments/knapen_aot/videos/S_yt-7v3kHYBe7-E_8.mp4	0.0	281.12711000442505	
77	222.129567861557	movie	1		301.0	75.0	2.5	/experiments/knapen_aot/videos/S_yt-7v3kHYBe7-E_8.mp4	0.0	281.13582396507263	2.5077760219573975
77	224.6373438835144	fix_post	2		12.0	75.0	2.5	/experiments/knapen_aot/videos/S_yt-7v3kHYBe7-E_8.mp4	0.0	283.64359998703003	0.09995293617248535
78	224.7372968196869	fix_pre	0		36.0	76.0	2.5	/experiments/knapen_aot/videos/R_S_yt-EuyfT0PuOoQ_91.mp4	0.0	283.7435529232025	0.30000901222229004
78	225.02910900115967	response	0	4		76.0	2.5	/experiments/knapen_aot/videos/R_S_yt-EuyfT0PuOoQ_91.mp4	0.0	284.0353651046753	
78	225.03730583190918	movie	1		301.0	76.0	2.5	/experiments/knapen_aot/videos/R_S_yt-EuyfT0PuOoQ_91.mp4	0.0	284.0435619354248	2.5083301067352295
78	227.5456359386444	fix_post	2		12.0	76.0	2.5	/experiments/knapen_aot/videos/R_S_yt-EuyfT0PuOoQ_91.mp4	0.0	286.55189204216003	0.09994387626647949
79	227.6455798149109	fix_pre	0		21.0	77.0	2.5	blank	1.0	286.6518359184265	0.1750180721282959
79	227.81241989135742	response	0	4		77.0	2.5	blank	1.0	286.81867599487305	
79	227.82059788703918	movie	1		301.0	77.0	2.5	blank	1.0	286.8268539905548	2.5083580017089844
79	230.32895588874817	fix_post	2		12.0	77.0	2.5	blank	1.0	289.3352119922638	0.09992003440856934
80	230.42887592315674	fix_pre	0		93.0	78.0	2.5	/experiments/knapen_aot/videos/R_S_yt-W00vtWnXgIk_73.mp4	0.0	289.43513202667236	0.7750370502471924
80	231.18814778327942	response	0	4		78.0	2.5	/experiments/knapen_aot/videos/R_S_yt-W00vtWnXgIk_73.mp4	0.0	290.19440388679504	
80	231.20391297340393	movie	1		301.0	78.0	2.5	/experiments/knapen_aot/videos/R_S_yt-W00vtWnXgIk_73.mp4	0.0	290.21016907691956	2.5083019733428955
80	233.71221494674683	fix_post	2		12.0	78.0	2.5	/experiments/knapen_aot/videos/R_S_yt-W00vtWnXgIk_73.mp4	0.0	292.71847105026245	0.10007500648498535
81	233.8122899532318	fix_pre	0		119.0	79.0	2.5	/experiments/knapen_aot/videos/R_S_comp_GMT110_112NC_364D_1054_AURORA_ANTARTICA__COMP_FINAL_v34_PS_SDR_20181107_SDR_2K_AVC.mp4	0.0	292.81854605674744	0.9916789531707764
81	234.78817582130432	response	0	4		79.0	2.5	/experiments/knapen_aot/videos/R_S_comp_GMT110_112NC_364D_1054_AURORA_ANTARTICA__COMP_FINAL_v34_PS_SDR_20181107_SDR_2K_AVC.mp4	0.0	293.79443192481995	
81	234.8039689064026	movie	1		163.0	79.0	2.5	/experiments/knapen_aot/videos/R_S_comp_GMT110_112NC_364D_1054_AURORA_ANTARTICA__COMP_FINAL_v34_PS_SDR_20181107_SDR_2K_AVC.mp4	0.0	293.8102250099182	2.508289098739624
81	237.3122580051422	fix_post	2		12.0	79.0	2.5	/experiments/knapen_aot/videos/R_S_comp_GMT110_112NC_364D_1054_AURORA_ANTARTICA__COMP_FINAL_v34_PS_SDR_20181107_SDR_2K_AVC.mp4	0.0	296.31851410865784	0.09995698928833008
82	237.41221499443054	fix_pre	0		64.0	80.0	2.5	/experiments/knapen_aot/videos/R_S_production_ID_4101225.mp4	0.0	296.41847109794617	0.5332789421081543
82	237.93744897842407	response	0	4		80.0	2.5	/experiments/knapen_aot/videos/R_S_production_ID_4101225.mp4	0.0	296.9437050819397	
82	237.9454939365387	movie	1		198.0	80.0	2.5	/experiments/knapen_aot/videos/R_S_production_ID_4101225.mp4	0.0	296.9517500400543	2.50846791267395
82	240.45396184921265	fix_post	2		12.0	80.0	2.5	/experiments/knapen_aot/videos/R_S_production_ID_4101225.mp4	0.0	299.46021795272827	0.10001993179321289
83	240.55398178100586	fix_pre	0		20.0	81.0	2.5	/experiments/knapen_aot/videos/S_yt-zKnjBBYWe90_369.mp4	0.0	299.5602378845215	0.1666710376739502
83	240.7124149799347	response	0	4		81.0	2.5	/experiments/knapen_aot/videos/S_yt-zKnjBBYWe90_369.mp4	0.0	299.7186710834503	
83	240.7206528186798	movie	1		301.0	81.0	2.5	/experiments/knapen_aot/videos/S_yt-zKnjBBYWe90_369.mp4	0.0	299.72690892219543	2.508331060409546
83	243.22898387908936	fix_post	2		12.0	81.0	2.5	/experiments/knapen_aot/videos/S_yt-zKnjBBYWe90_369.mp4	0.0	302.235239982605	0.10000491142272949
84	243.32898879051208	fix_pre	0		40.0	82.0	2.5	/experiments/knapen_aot/videos/S_yt-BDCyXL5e9S4_223.mp4	0.0	302.3352448940277	0.34204912185668945
84	243.66237592697144	response	0	4		82.0	2.5	/experiments/knapen_aot/videos/S_yt-BDCyXL5e9S4_223.mp4	0.0	302.66863203048706	
84	243.67103791236877	movie	1		301.0	82.0	2.5	/experiments/knapen_aot/videos/S_yt-BDCyXL5e9S4_223.mp4	0.0	302.6772940158844	2.5079360008239746
84	246.17897391319275	fix_post	2		12.0	82.0	2.5	/experiments/knapen_aot/videos/S_yt-BDCyXL5e9S4_223.mp4	0.0	305.1852300167084	0.10004401206970215
85	246.27901792526245	fix_pre	0		34.0	83.0	2.5	blank	1.0	305.2852740287781	0.28324389457702637
85	246.55416893959045	response	0	4		83.0	2.5	blank	1.0	305.5604250431061	
85	246.56226181983948	movie	1		301.0	83.0	2.5	blank	1.0	305.5685179233551	2.5083160400390625
85	249.07057785987854	fix_post	2		12.0	83.0	2.5	blank	1.0	308.07683396339417	0.10045194625854492
87	249.17102980613708	stim	0		194.0					308.1772859096527	1.6179430484771729
87	250.78231692314148	response	0	space						309.7885730266571	
