trial_nr	onset	event_type	phase	response	nr_frames	movie_index	movie_duration	movie_file	blank	onset_abs	duration
0	0.1363670825958252	stim	0		15.0					54.190727949142456	0.12198686599731445
0	0.2501051425933838	response	0	space						54.304466009140015	
1	0.25835394859313965	stim	0		121.0					54.31271481513977	1.0082850456237793
1	1.1834650039672852	response	0	space						55.237825870513916	
1	1.266638994216919	stim	1		120.0					55.32099986076355	0.9996020793914795
1	1.5500609874725342	response	1	space						55.604421854019165	
2	2.2662410736083984	fix_pre	0		9.0	0.0	2.5	/experiments/knapen_aot/videos/S_yt-RWN5qOIgqec_25.mp4	0.0	56.32060194015503	0.07502889633178711
2	2.333111047744751	response	0	space		0.0	2.5	/experiments/knapen_aot/videos/S_yt-RWN5qOIgqec_25.mp4	0.0	56.38747191429138	
2	2.3412699699401855	movie	1		301.0	0.0	2.5	/experiments/knapen_aot/videos/S_yt-RWN5qOIgqec_25.mp4	0.0	56.395630836486816	2.5084030628204346
2	4.84967303276062	fix_post	2		12.0	0.0	2.5	/experiments/knapen_aot/videos/S_yt-RWN5qOIgqec_25.mp4	0.0	58.90403389930725	0.09987401962280273
3	4.949547052383423	fix_pre	0		12.0	1.0	2.5	/experiments/knapen_aot/videos/S_wc-AyT9mzwZsu0T_14.mp4	0.0	59.003907918930054	0.10307502746582031
3	5.043507099151611	response	0	2		1.0	2.5	/experiments/knapen_aot/videos/S_wc-AyT9mzwZsu0T_14.mp4	0.0	59.09786796569824	
3	5.052622079849243	movie	1		161.0	1.0	2.5	/experiments/knapen_aot/videos/S_wc-AyT9mzwZsu0T_14.mp4	0.0	59.106982946395874	2.505236864089966
3	7.557858943939209	fix_post	2		12.0	1.0	2.5	/experiments/knapen_aot/videos/S_wc-AyT9mzwZsu0T_14.mp4	0.0	61.61221981048584	0.10007119178771973
4	7.657930135726929	fix_pre	0		8.0	2.0	2.5	/experiments/knapen_aot/videos/S_yt-uX7qYKQm_pg_277.mp4	0.0	61.71229100227356	0.06831502914428711
4	7.709609031677246	response	0	2		2.0	2.5	/experiments/knapen_aot/videos/S_yt-uX7qYKQm_pg_277.mp4	0.0	61.76396989822388	
4	7.726245164871216	movie	1		301.0	2.0	2.5	/experiments/knapen_aot/videos/S_yt-uX7qYKQm_pg_277.mp4	0.0	61.78060603141785	2.5065999031066895
4	10.232845067977905	fix_post	2		12.0	2.0	2.5	/experiments/knapen_aot/videos/S_yt-uX7qYKQm_pg_277.mp4	0.0	64.28720593452454	0.10005402565002441
5	10.33289909362793	fix_pre	0		9.0	3.0	2.5	/experiments/knapen_aot/videos/S_yt-RWN5qOIgqec_25.mp4	0.0	64.38725996017456	0.07498502731323242
5	10.399708986282349	response	0	2		3.0	2.5	/experiments/knapen_aot/videos/S_yt-RWN5qOIgqec_25.mp4	0.0	64.45406985282898	
5	10.407884120941162	movie	1		301.0	3.0	2.5	/experiments/knapen_aot/videos/S_yt-RWN5qOIgqec_25.mp4	0.0	64.4622449874878	2.5083298683166504
5	12.916213989257812	fix_post	2		12.0	3.0	2.5	/experiments/knapen_aot/videos/S_yt-RWN5qOIgqec_25.mp4	0.0	66.97057485580444	0.10006213188171387
6	13.016276121139526	fix_pre	0		5.0	4.0	2.5	/experiments/knapen_aot/videos/S_yt-SRozDkhwx28_1463.mp4	0.0	67.07063698768616	0.04158592224121094
6	13.049782037734985	response	0	2		4.0	2.5	/experiments/knapen_aot/videos/S_yt-SRozDkhwx28_1463.mp4	0.0	67.10414290428162	
6	13.057862043380737	movie	1		301.0	4.0	2.5	/experiments/knapen_aot/videos/S_yt-SRozDkhwx28_1463.mp4	0.0	67.11222290992737	2.5085511207580566
6	15.566413164138794	fix_post	2		12.0	4.0	2.5	/experiments/knapen_aot/videos/S_yt-SRozDkhwx28_1463.mp4	0.0	69.62077403068542	0.09982490539550781
6	15.641360998153687	response	2	2		4.0	2.5	/experiments/knapen_aot/videos/S_yt-SRozDkhwx28_1463.mp4	0.0	69.69572186470032	
7	15.666238069534302	fix_pre	0		35.0	5.0	2.5	/experiments/knapen_aot/videos/S_yt-gPhlnZG-pRY_4.mp4	0.0	69.72059893608093	0.2916409969329834
7	15.949632167816162	response	0	2		5.0	2.5	/experiments/knapen_aot/videos/S_yt-gPhlnZG-pRY_4.mp4	0.0	70.0039930343628	
7	15.957879066467285	movie	1		301.0	5.0	2.5	/experiments/knapen_aot/videos/S_yt-gPhlnZG-pRY_4.mp4	0.0	70.01223993301392	2.5082900524139404
7	18.466169118881226	fix_post	2		12.0	5.0	2.5	/experiments/knapen_aot/videos/S_yt-gPhlnZG-pRY_4.mp4	0.0	72.52052998542786	0.10026001930236816
8	18.566429138183594	fix_pre	0		6.0	6.0	2.5	blank	1.0	72.62079000473022	0.049768924713134766
8	18.608664989471436	response	0	2		6.0	2.5	blank	1.0	72.66302585601807	
8	18.61619806289673	movie	1		301.0	6.0	2.5	blank	1.0	72.67055892944336	2.5082590579986572
8	21.124457120895386	fix_post	2		12.0	6.0	2.5	blank	1.0	75.17881798744202	0.10007500648498535
9	21.22453212738037	fix_pre	0		27.0	7.0	2.5	/experiments/knapen_aot/videos/S_yt-Ev39pXXfr1Y_152.mp4	0.0	75.278892993927	0.22501182556152344
9	21.44130802154541	response	0	2		7.0	2.5	/experiments/knapen_aot/videos/S_yt-Ev39pXXfr1Y_152.mp4	0.0	75.49566888809204	
9	21.449543952941895	movie	1		301.0	7.0	2.5	/experiments/knapen_aot/videos/S_yt-Ev39pXXfr1Y_152.mp4	0.0	75.50390481948853	2.508305072784424
9	23.95784902572632	fix_post	2		12.0	7.0	2.5	/experiments/knapen_aot/videos/S_yt-Ev39pXXfr1Y_152.mp4	0.0	78.01220989227295	0.09993791580200195
10	24.05778694152832	fix_pre	0		2.0	8.0	2.5	/experiments/knapen_aot/videos/R_S_yt-6xXEMHBQ08A_28.mp4	0.0	78.11214780807495	0.01669907569885254
10	24.06647515296936	response	0	2		8.0	2.5	/experiments/knapen_aot/videos/R_S_yt-6xXEMHBQ08A_28.mp4	0.0	78.12083601951599	
10	24.074486017227173	movie	1		301.0	8.0	2.5	/experiments/knapen_aot/videos/R_S_yt-6xXEMHBQ08A_28.mp4	0.0	78.1288468837738	2.5083539485931396
10	26.582839965820312	fix_post	2		12.0	8.0	2.5	/experiments/knapen_aot/videos/R_S_yt-6xXEMHBQ08A_28.mp4	0.0	80.63720083236694	0.09998607635498047
11	26.682826042175293	fix_pre	0		2.0	9.0	2.5	/experiments/knapen_aot/videos/S_FZ0hLmjCR0s_26.mp4	0.0	80.73718690872192	0.01676011085510254
11	26.685225009918213	response	0	2		9.0	2.5	/experiments/knapen_aot/videos/S_FZ0hLmjCR0s_26.mp4	0.0	80.73958587646484	
11	26.699586153030396	movie	1		300.0	9.0	2.5	/experiments/knapen_aot/videos/S_FZ0hLmjCR0s_26.mp4	0.0	80.75394701957703	2.508157968521118
11	29.207744121551514	fix_post	2		12.0	9.0	2.5	/experiments/knapen_aot/videos/S_FZ0hLmjCR0s_26.mp4	0.0	83.26210498809814	0.10005998611450195
12	29.307804107666016	fix_pre	0		7.0	10.0	2.5	/experiments/knapen_aot/videos/S_X-D3lUv-atE_376.mp4	0.0	83.36216497421265	0.058328866958618164
12	29.35801100730896	response	0	2		10.0	2.5	/experiments/knapen_aot/videos/S_X-D3lUv-atE_376.mp4	0.0	83.41237187385559	
12	29.366132974624634	movie	1		301.0	10.0	2.5	/experiments/knapen_aot/videos/S_X-D3lUv-atE_376.mp4	0.0	83.42049384117126	2.5083470344543457
12	31.87448000907898	fix_post	2		12.0	10.0	2.5	/experiments/knapen_aot/videos/S_X-D3lUv-atE_376.mp4	0.0	85.92884087562561	0.09995007514953613
13	31.974430084228516	fix_pre	0		4.0	11.0	2.5	/experiments/knapen_aot/videos/S_yt-LYnwnfi1JJ4_120.mp4	0.0	86.02879095077515	0.03342103958129883
13	31.99954915046692	response	0	2		11.0	2.5	/experiments/knapen_aot/videos/S_yt-LYnwnfi1JJ4_120.mp4	0.0	86.05391001701355	
13	32.007851123809814	movie	1		301.0	11.0	2.5	/experiments/knapen_aot/videos/S_yt-LYnwnfi1JJ4_120.mp4	0.0	86.06221199035645	2.50832200050354
13	34.516173124313354	fix_post	2		12.0	11.0	2.5	/experiments/knapen_aot/videos/S_yt-LYnwnfi1JJ4_120.mp4	0.0	88.57053399085999	0.09999799728393555
14	34.61617112159729	fix_pre	0		7.0	12.0	2.5	/experiments/knapen_aot/videos/S_yt-LYnwnfi1JJ4_120.mp4	0.0	88.67053198814392	0.05832791328430176
14	34.666428089141846	response	0	2		12.0	2.5	/experiments/knapen_aot/videos/S_yt-LYnwnfi1JJ4_120.mp4	0.0	88.72078895568848	
14	34.67449903488159	movie	1		301.0	12.0	2.5	/experiments/knapen_aot/videos/S_yt-LYnwnfi1JJ4_120.mp4	0.0	88.72885990142822	2.5083019733428955
14	37.18280100822449	fix_post	2		12.0	12.0	2.5	/experiments/knapen_aot/videos/S_yt-LYnwnfi1JJ4_120.mp4	0.0	91.23716187477112	0.10007405281066895
15	37.282875061035156	fix_pre	0		13.0	13.0	2.5	/experiments/knapen_aot/videos/R_S_S003_C020_SDR_2K_AVC.mp4	0.0	91.33723592758179	0.10829997062683105
15	37.37535905838013	response	0	2		13.0	2.5	/experiments/knapen_aot/videos/R_S_S003_C020_SDR_2K_AVC.mp4	0.0	91.42971992492676	
15	37.39117503166199	movie	1		185.0	13.0	2.5	/experiments/knapen_aot/videos/R_S_S003_C020_SDR_2K_AVC.mp4	0.0	91.44553589820862	2.508341073989868
15	39.899516105651855	fix_post	2		12.0	13.0	2.5	/experiments/knapen_aot/videos/R_S_S003_C020_SDR_2K_AVC.mp4	0.0	93.95387697219849	0.09992289543151855
15	39.90122413635254	response	2	2		13.0	2.5	/experiments/knapen_aot/videos/R_S_S003_C020_SDR_2K_AVC.mp4	0.0	93.95558500289917	
15	39.97453713417053	response	2	2		13.0	2.5	/experiments/knapen_aot/videos/R_S_S003_C020_SDR_2K_AVC.mp4	0.0	94.02889800071716	
16	39.999439001083374	fix_pre	0		30.0	14.0	2.5	blank	1.0	94.05379986763	0.25000715255737305
16	40.23365116119385	response	0	2		14.0	2.5	blank	1.0	94.28801202774048	
16	40.24944615364075	movie	1		301.0	14.0	2.5	blank	1.0	94.30380702018738	2.5083179473876953
16	42.75776410102844	fix_post	2		12.0	14.0	2.5	blank	1.0	96.81212496757507	0.10009384155273438
17	42.85785794258118	fix_pre	0		19.0	15.0	2.5	/experiments/knapen_aot/videos/S_ILSVRC2015_train_00405000.mp4	0.0	96.91221880912781	0.15819907188415527
17	43.00786900520325	response	0	2		15.0	2.5	/experiments/knapen_aot/videos/S_ILSVRC2015_train_00405000.mp4	0.0	97.06222987174988	
17	43.01605701446533	movie	1		301.0	15.0	2.5	/experiments/knapen_aot/videos/S_ILSVRC2015_train_00405000.mp4	0.0	97.07041788101196	2.5083799362182617
17	45.524436950683594	fix_post	2		12.0	15.0	2.5	/experiments/knapen_aot/videos/S_ILSVRC2015_train_00405000.mp4	0.0	99.57879781723022	0.09997701644897461
18	45.62441396713257	fix_pre	0		11.0	16.0	2.5	/experiments/knapen_aot/videos/R_S_pexels-rodnae-productions-5617905.mp4	0.0	99.6787748336792	0.09170818328857422
18	45.70808696746826	response	0	2		16.0	2.5	/experiments/knapen_aot/videos/R_S_pexels-rodnae-productions-5617905.mp4	0.0	99.76244783401489	
18	45.71612215042114	movie	1		171.0	16.0	2.5	/experiments/knapen_aot/videos/R_S_pexels-rodnae-productions-5617905.mp4	0.0	99.77048301696777	2.508272886276245
18	48.22439503669739	fix_post	2		12.0	16.0	2.5	/experiments/knapen_aot/videos/R_S_pexels-rodnae-productions-5617905.mp4	0.0	102.27875590324402	0.09998607635498047
19	48.32438111305237	fix_pre	0		6.0	17.0	2.5	/experiments/knapen_aot/videos/S_yt-bOgChEHiroI_20.mp4	0.0	102.378741979599	0.05000901222229004
19	48.36619806289673	response	0	2		17.0	2.5	/experiments/knapen_aot/videos/S_yt-bOgChEHiroI_20.mp4	0.0	102.42055892944336	
19	48.37439012527466	movie	1		301.0	17.0	2.5	/experiments/knapen_aot/videos/S_yt-bOgChEHiroI_20.mp4	0.0	102.42875099182129	2.508316993713379
19	50.88270711898804	fix_post	2		12.0	17.0	2.5	/experiments/knapen_aot/videos/S_yt-bOgChEHiroI_20.mp4	0.0	104.93706798553467	0.10005593299865723
20	50.982763051986694	fix_pre	0		9.0	18.0	2.5	/experiments/knapen_aot/videos/R_S_pexels-rodnae-productions-7467585.mp4	0.0	105.03712391853333	0.07500505447387695
20	51.04949903488159	response	0	2		18.0	2.5	/experiments/knapen_aot/videos/R_S_pexels-rodnae-productions-7467585.mp4	0.0	105.10385990142822	
20	51.05776810646057	movie	1		167.0	18.0	2.5	/experiments/knapen_aot/videos/R_S_pexels-rodnae-productions-7467585.mp4	0.0	105.1121289730072	2.508305072784424
20	53.566073179244995	fix_post	2		12.0	18.0	2.5	/experiments/knapen_aot/videos/R_S_pexels-rodnae-productions-7467585.mp4	0.0	107.62043404579163	0.09992694854736328
21	53.66600012779236	fix_pre	0		7.0	19.0	2.5	/experiments/knapen_aot/videos/R_S_pexels-cottonbro-9063801.mp4	0.0	107.72036099433899	0.059741973876953125
21	53.716222047805786	response	0	2		19.0	2.5	/experiments/knapen_aot/videos/R_S_pexels-cottonbro-9063801.mp4	0.0	107.77058291435242	
21	53.72574210166931	movie	1		198.0	19.0	2.5	/experiments/knapen_aot/videos/R_S_pexels-cottonbro-9063801.mp4	0.0	107.78010296821594	2.506995916366577
21	56.23273801803589	fix_post	2		12.0	19.0	2.5	/experiments/knapen_aot/videos/R_S_pexels-cottonbro-9063801.mp4	0.0	110.28709888458252	0.0999901294708252
22	56.332728147506714	fix_pre	0		7.0	20.0	2.5	blank	1.0	110.38708901405334	0.05981802940368652
22	56.383015155792236	response	0	2		20.0	2.5	blank	1.0	110.43737602233887	
22	56.3925461769104	movie	1		301.0	20.0	2.5	blank	1.0	110.44690704345703	2.506847858428955
22	58.899394035339355	fix_post	2		12.0	20.0	2.5	blank	1.0	112.95375490188599	0.09992194175720215
23	58.99931597709656	fix_pre	0		21.0	21.0	2.5	/experiments/knapen_aot/videos/R_S_pexels-c-technical-6809719.mp4	0.0	113.05367684364319	0.17502903938293457
23	59.16615915298462	response	0	2		21.0	2.5	/experiments/knapen_aot/videos/R_S_pexels-c-technical-6809719.mp4	0.0	113.22052001953125	
23	59.17434501647949	movie	1		190.0	21.0	2.5	/experiments/knapen_aot/videos/R_S_pexels-c-technical-6809719.mp4	0.0	113.22870588302612	2.50832200050354
23	61.68266701698303	fix_post	2		12.0	21.0	2.5	/experiments/knapen_aot/videos/R_S_pexels-c-technical-6809719.mp4	0.0	115.73702788352966	0.10001111030578613
24	61.78267812728882	fix_pre	0		1.0	22.0	2.5	/experiments/knapen_aot/videos/S_comp_H005_C012_PS_v01_SDR_PS_20180925_SDR_2K_AVC.mp4	0.0	115.83703899383545	0.008424997329711914
24	61.77584910392761	response	0	2		22.0	2.5	/experiments/knapen_aot/videos/S_comp_H005_C012_PS_v01_SDR_PS_20180925_SDR_2K_AVC.mp4	0.0	115.83020997047424	
24	61.79110312461853	movie	1		169.0	22.0	2.5	/experiments/knapen_aot/videos/S_comp_H005_C012_PS_v01_SDR_PS_20180925_SDR_2K_AVC.mp4	0.0	115.84546399116516	2.508236885070801
24	64.29934000968933	fix_post	2		12.0	22.0	2.5	/experiments/knapen_aot/videos/S_comp_H005_C012_PS_v01_SDR_PS_20180925_SDR_2K_AVC.mp4	0.0	118.35370087623596	0.10008001327514648
25	64.39942002296448	fix_pre	0		5.0	23.0	2.5	/experiments/knapen_aot/videos/R_S_yt-zydTlQGCUjQ_277.mp4	0.0	118.45378088951111	0.04155993461608887
25	64.43288111686707	response	0	2		23.0	2.5	/experiments/knapen_aot/videos/R_S_yt-zydTlQGCUjQ_277.mp4	0.0	118.4872419834137	
25	64.44097995758057	movie	1		301.0	23.0	2.5	/experiments/knapen_aot/videos/R_S_yt-zydTlQGCUjQ_277.mp4	0.0	118.4953408241272	2.5082759857177734
25	66.94925594329834	fix_post	2		12.0	23.0	2.5	/experiments/knapen_aot/videos/R_S_yt-zydTlQGCUjQ_277.mp4	0.0	121.00361680984497	0.10009503364562988
26	67.04935097694397	fix_pre	0		7.0	24.0	2.5	/experiments/knapen_aot/videos/S_yt-n1snPiGfg0A_45.mp4	0.0	121.1037118434906	0.05840015411376953
26	67.09960794448853	response	0	2		24.0	2.5	/experiments/knapen_aot/videos/S_yt-n1snPiGfg0A_45.mp4	0.0	121.15396881103516	
26	67.10775113105774	movie	1		301.0	24.0	2.5	/experiments/knapen_aot/videos/S_yt-n1snPiGfg0A_45.mp4	0.0	121.16211199760437	2.5082948207855225
26	69.61604595184326	fix_post	2		12.0	24.0	2.5	/experiments/knapen_aot/videos/S_yt-n1snPiGfg0A_45.mp4	0.0	123.67040681838989	0.10001707077026367
27	69.71606302261353	fix_pre	0		20.0	25.0	2.5	/experiments/knapen_aot/videos/R_S_yt-Q5wYs9vSzlA_30.mp4	0.0	123.77042388916016	0.16649508476257324
27	69.87443494796753	response	0	2		25.0	2.5	/experiments/knapen_aot/videos/R_S_yt-Q5wYs9vSzlA_30.mp4	0.0	123.92879581451416	
27	69.8825581073761	movie	1		301.0	25.0	2.5	/experiments/knapen_aot/videos/R_S_yt-Q5wYs9vSzlA_30.mp4	0.0	123.93691897392273	2.5083558559417725
27	72.39091396331787	fix_post	2		12.0	25.0	2.5	/experiments/knapen_aot/videos/R_S_yt-Q5wYs9vSzlA_30.mp4	0.0	126.4452748298645	0.10002398490905762
28	72.49093794822693	fix_pre	0		19.0	26.0	2.5	/experiments/knapen_aot/videos/S_video_inspire_oregon_lone-ranch-beach_00001.1080-h264.mp4	0.0	126.54529881477356	0.15828609466552734
28	72.64110803604126	response	0	2		26.0	2.5	/experiments/knapen_aot/videos/S_video_inspire_oregon_lone-ranch-beach_00001.1080-h264.mp4	0.0	126.69546890258789	
28	72.64922404289246	movie	1		160.0	26.0	2.5	/experiments/knapen_aot/videos/S_video_inspire_oregon_lone-ranch-beach_00001.1080-h264.mp4	0.0	126.70358490943909	2.5083870887756348
28	75.15761113166809	fix_post	2		12.0	26.0	2.5	/experiments/knapen_aot/videos/S_video_inspire_oregon_lone-ranch-beach_00001.1080-h264.mp4	0.0	129.21197199821472	0.09998393058776855
29	75.25759506225586	fix_pre	0		16.0	27.0	2.5	/experiments/knapen_aot/videos/S_ILSVRC2015_train_00654000.mp4	0.0	129.3119559288025	0.13337302207946777
29	75.38270711898804	response	0	2		27.0	2.5	/experiments/knapen_aot/videos/S_ILSVRC2015_train_00654000.mp4	0.0	129.43706798553467	
29	75.39096808433533	movie	1		301.0	27.0	2.5	/experiments/knapen_aot/videos/S_ILSVRC2015_train_00654000.mp4	0.0	129.44532895088196	2.5083138942718506
29	77.89928197860718	fix_post	2		12.0	27.0	2.5	/experiments/knapen_aot/videos/S_ILSVRC2015_train_00654000.mp4	0.0	131.9536428451538	0.09997105598449707
30	77.99925303459167	fix_pre	0		4.0	28.0	2.5	blank	1.0	132.0536139011383	0.03340005874633789
30	78.02445697784424	response	0	2		28.0	2.5	blank	1.0	132.07881784439087	
30	78.03265309333801	movie	1		301.0	28.0	2.5	blank	1.0	132.08701395988464	2.50826096534729
30	80.5409140586853	fix_post	2		12.0	28.0	2.5	blank	1.0	134.59527492523193	0.10130906105041504
31	80.64222311973572	fix_pre	0		37.0	29.0	2.5	/experiments/knapen_aot/videos/S_flickr-53807584@N00-5565833509_7.mp4	0.0	134.69658398628235	0.3070080280303955
31	80.94104504585266	response	0	2		29.0	2.5	/experiments/knapen_aot/videos/S_flickr-53807584@N00-5565833509_7.mp4	0.0	134.9954059123993	
31	80.94923114776611	movie	1		301.0	29.0	2.5	/experiments/knapen_aot/videos/S_flickr-53807584@N00-5565833509_7.mp4	0.0	135.00359201431274	2.5083539485931396
31	83.45758509635925	fix_post	2		12.0	29.0	2.5	/experiments/knapen_aot/videos/S_flickr-53807584@N00-5565833509_7.mp4	0.0	137.51194596290588	0.09996199607849121
32	83.55754709243774	fix_pre	0		8.0	30.0	2.5	/experiments/knapen_aot/videos/S_yt-2cwARrUMj40_67.mp4	0.0	137.61190795898438	0.06668591499328613
32	83.6160020828247	response	0	2		30.0	2.5	/experiments/knapen_aot/videos/S_yt-2cwARrUMj40_67.mp4	0.0	137.67036294937134	
32	83.62423300743103	movie	1		301.0	30.0	2.5	/experiments/knapen_aot/videos/S_yt-2cwARrUMj40_67.mp4	0.0	137.67859387397766	2.508411169052124
32	85.70772814750671	response	1	2		30.0	2.5	/experiments/knapen_aot/videos/S_yt-2cwARrUMj40_67.mp4	0.0	139.76208901405334	
32	86.09105205535889	response	1	2		30.0	2.5	/experiments/knapen_aot/videos/S_yt-2cwARrUMj40_67.mp4	0.0	140.14541292190552	
32	86.13264417648315	fix_post	2		12.0	30.0	2.5	/experiments/knapen_aot/videos/S_yt-2cwARrUMj40_67.mp4	0.0	140.18700504302979	0.09993696212768555
33	86.23258113861084	fix_pre	0		22.0	31.0	2.5	/experiments/knapen_aot/videos/S_yt-316ecr1BT84_44.mp4	0.0	140.28694200515747	0.18329787254333496
33	86.4077639579773	response	0	2		31.0	2.5	/experiments/knapen_aot/videos/S_yt-316ecr1BT84_44.mp4	0.0	140.46212482452393	
33	86.41587901115417	movie	1		301.0	31.0	2.5	/experiments/knapen_aot/videos/S_yt-316ecr1BT84_44.mp4	0.0	140.4702398777008	2.5083580017089844
33	88.92423701286316	fix_post	2		12.0	31.0	2.5	/experiments/knapen_aot/videos/S_yt-316ecr1BT84_44.mp4	0.0	142.9785978794098	0.10004806518554688
34	89.0242850780487	fix_pre	0		13.0	32.0	2.5	/experiments/knapen_aot/videos/S_ILSVRC2015_train_00743002.mp4	0.0	143.07864594459534	0.10833096504211426
34	89.12439799308777	response	0	2		32.0	2.5	/experiments/knapen_aot/videos/S_ILSVRC2015_train_00743002.mp4	0.0	143.1787588596344	
34	89.13261604309082	movie	1		301.0	32.0	2.5	/experiments/knapen_aot/videos/S_ILSVRC2015_train_00743002.mp4	0.0	143.18697690963745	2.5083119869232178
34	91.64092803001404	fix_post	2		12.0	32.0	2.5	/experiments/knapen_aot/videos/S_ILSVRC2015_train_00743002.mp4	0.0	145.69528889656067	0.10001206398010254
35	91.74094009399414	fix_pre	0		11.0	33.0	2.5	/experiments/knapen_aot/videos/R_S_yt-dkBlyE3igk0_44.mp4	0.0	145.79530096054077	0.09163904190063477
35	91.82436108589172	response	0	2		33.0	2.5	/experiments/knapen_aot/videos/R_S_yt-dkBlyE3igk0_44.mp4	0.0	145.87872195243835	
35	91.83257913589478	movie	1		301.0	33.0	2.5	/experiments/knapen_aot/videos/R_S_yt-dkBlyE3igk0_44.mp4	0.0	145.8869400024414	2.5083060264587402
35	94.34088516235352	fix_post	2		12.0	33.0	2.5	/experiments/knapen_aot/videos/R_S_yt-dkBlyE3igk0_44.mp4	0.0	148.39524602890015	0.10003185272216797
36	94.44091701507568	fix_pre	0		19.0	34.0	2.5	blank	1.0	148.49527788162231	0.15825104713439941
36	94.59095597267151	response	0	2		34.0	2.5	blank	1.0	148.64531683921814	
36	94.59916806221008	movie	1		301.0	34.0	2.5	blank	1.0	148.6535289287567	2.5083630084991455
36	97.10753107070923	fix_post	2		12.0	34.0	2.5	blank	1.0	151.16189193725586	0.10002493858337402
37	97.2075560092926	fix_pre	0		15.0	35.0	2.5	/experiments/knapen_aot/videos/R_S_ILSVRC2015_train_00761000.mp4	0.0	151.26191687583923	0.12498116493225098
37	97.32432794570923	response	0	2		35.0	2.5	/experiments/knapen_aot/videos/R_S_ILSVRC2015_train_00761000.mp4	0.0	151.37868881225586	
37	97.33253717422485	movie	1		301.0	35.0	2.5	/experiments/knapen_aot/videos/R_S_ILSVRC2015_train_00761000.mp4	0.0	151.38689804077148	2.508281946182251
37	99.8408191204071	fix_post	2		12.0	35.0	2.5	/experiments/knapen_aot/videos/R_S_ILSVRC2015_train_00761000.mp4	0.0	153.89517998695374	0.09997701644897461
38	99.94079613685608	fix_pre	0		20.0	36.0	2.5	/experiments/knapen_aot/videos/R_S_pexels-anthony-shkraba-7569650.mp4	0.0	153.9951570034027	0.16665887832641602
38	100.09931111335754	response	0	2		36.0	2.5	/experiments/knapen_aot/videos/R_S_pexels-anthony-shkraba-7569650.mp4	0.0	154.15367197990417	
38	100.1074550151825	movie	1		197.0	36.0	2.5	/experiments/knapen_aot/videos/R_S_pexels-anthony-shkraba-7569650.mp4	0.0	154.16181588172913	2.508424997329712
38	102.6158800125122	fix_post	2		12.0	36.0	2.5	/experiments/knapen_aot/videos/R_S_pexels-anthony-shkraba-7569650.mp4	0.0	156.67024087905884	0.09998893737792969
39	102.71586894989014	fix_pre	0		4.0	37.0	2.5	/experiments/knapen_aot/videos/S_yt-pPIHiIYSjW8_653.mp4	0.0	156.77022981643677	0.033262014389038086
39	102.74094796180725	response	0	2		37.0	2.5	/experiments/knapen_aot/videos/S_yt-pPIHiIYSjW8_653.mp4	0.0	156.79530882835388	
39	102.74913096427917	movie	1		300.0	37.0	2.5	/experiments/knapen_aot/videos/S_yt-pPIHiIYSjW8_653.mp4	0.0	156.8034918308258	2.508435010910034
39	105.25756597518921	fix_post	2		12.0	37.0	2.5	/experiments/knapen_aot/videos/S_yt-pPIHiIYSjW8_653.mp4	0.0	159.31192684173584	0.09997797012329102
40	105.3575439453125	fix_pre	0		22.0	38.0	2.5	/experiments/knapen_aot/videos/S_ILSVRC2015_train_00743002.mp4	0.0	159.41190481185913	0.1833491325378418
40	105.53263401985168	response	0	2		38.0	2.5	/experiments/knapen_aot/videos/S_ILSVRC2015_train_00743002.mp4	0.0	159.58699488639832	
40	105.54089307785034	movie	1		301.0	38.0	2.5	/experiments/knapen_aot/videos/S_ILSVRC2015_train_00743002.mp4	0.0	159.59525394439697	2.5083179473876953
40	108.04921102523804	fix_post	2		12.0	38.0	2.5	/experiments/knapen_aot/videos/S_ILSVRC2015_train_00743002.mp4	0.0	162.10357189178467	0.10001707077026367
41	108.1492280960083	fix_pre	0		16.0	39.0	2.5	/experiments/knapen_aot/videos/S_yt-aqrdb6BiFx4_12.mp4	0.0	162.20358896255493	0.13326001167297363
41	108.27433395385742	response	0	2		39.0	2.5	/experiments/knapen_aot/videos/S_yt-aqrdb6BiFx4_12.mp4	0.0	162.32869482040405	
41	108.28248810768127	movie	1		301.0	39.0	2.5	/experiments/knapen_aot/videos/S_yt-aqrdb6BiFx4_12.mp4	0.0	162.3368489742279	2.508254051208496
41	110.79074215888977	fix_post	2		12.0	39.0	2.5	/experiments/knapen_aot/videos/S_yt-aqrdb6BiFx4_12.mp4	0.0	164.8451030254364	0.10007381439208984
42	110.89081597328186	fix_pre	0		29.0	40.0	2.5	/experiments/knapen_aot/videos/R_S_ILSVRC2015_train_00441000.mp4	0.0	164.9451768398285	0.24166107177734375
42	111.12428307533264	response	0	2		40.0	2.5	/experiments/knapen_aot/videos/R_S_ILSVRC2015_train_00441000.mp4	0.0	165.17864394187927	
42	111.1324770450592	movie	1		300.0	40.0	2.5	/experiments/knapen_aot/videos/R_S_ILSVRC2015_train_00441000.mp4	0.0	165.18683791160583	2.5083320140838623
42	113.64080905914307	fix_post	2		12.0	40.0	2.5	/experiments/knapen_aot/videos/R_S_ILSVRC2015_train_00441000.mp4	0.0	167.6951699256897	0.09999799728393555
43	113.740807056427	fix_pre	0		9.0	41.0	2.5	blank	1.0	167.79516792297363	0.0749359130859375
43	113.80762100219727	response	0	2		41.0	2.5	blank	1.0	167.8619818687439	
43	113.81574296951294	movie	1		301.0	41.0	2.5	blank	1.0	167.87010383605957	2.508392095565796
43	116.32413506507874	fix_post	2		12.0	41.0	2.5	blank	1.0	170.37849593162537	0.0999898910522461
44	116.42412495613098	fix_pre	0		21.0	42.0	2.5	/experiments/knapen_aot/videos/R_S_yt-hOtj2y9VWrc_354.mp4	0.0	170.4784858226776	0.17605209350585938
44	116.59090399742126	response	0	2		42.0	2.5	/experiments/knapen_aot/videos/R_S_yt-hOtj2y9VWrc_354.mp4	0.0	170.6452648639679	
44	116.60017704963684	movie	1		301.0	42.0	2.5	/experiments/knapen_aot/videos/R_S_yt-hOtj2y9VWrc_354.mp4	0.0	170.65453791618347	2.507240056991577
44	119.10741710662842	fix_post	2		12.0	42.0	2.5	/experiments/knapen_aot/videos/R_S_yt-hOtj2y9VWrc_354.mp4	0.0	173.16177797317505	0.09996294975280762
45	119.20738005638123	fix_pre	0		8.0	43.0	2.5	/experiments/knapen_aot/videos/S_yt-h8wy6x6oytA_25.mp4	0.0	173.26174092292786	0.06671595573425293
45	119.26618695259094	response	0	2		43.0	2.5	/experiments/knapen_aot/videos/S_yt-h8wy6x6oytA_25.mp4	0.0	173.32054781913757	
45	119.27409601211548	movie	1		301.0	43.0	2.5	/experiments/knapen_aot/videos/S_yt-h8wy6x6oytA_25.mp4	0.0	173.3284568786621	2.508355140686035
45	121.78245115280151	fix_post	2		12.0	43.0	2.5	/experiments/knapen_aot/videos/S_yt-h8wy6x6oytA_25.mp4	0.0	175.83681201934814	0.09991788864135742
46	121.88236904144287	fix_pre	0		35.0	44.0	2.5	/experiments/knapen_aot/videos/R_S_yt-7Ya-rGPO8cM_159.mp4	0.0	175.9367299079895	0.29165005683898926
46	122.16606402397156	response	0	2		44.0	2.5	/experiments/knapen_aot/videos/R_S_yt-7Ya-rGPO8cM_159.mp4	0.0	176.2204248905182	
46	122.17401909828186	movie	1		300.0	44.0	2.5	/experiments/knapen_aot/videos/R_S_yt-7Ya-rGPO8cM_159.mp4	0.0	176.2283799648285	2.508394956588745
46	124.6824140548706	fix_post	2		12.0	44.0	2.5	/experiments/knapen_aot/videos/R_S_yt-7Ya-rGPO8cM_159.mp4	0.0	178.73677492141724	0.09998202323913574
47	124.78239607810974	fix_pre	0		14.0	45.0	2.5	/experiments/knapen_aot/videos/S_pexels-sora-shimazaki-5925295.mp4	0.0	178.83675694465637	0.11667108535766602
47	124.89080595970154	response	0	2		45.0	2.5	/experiments/knapen_aot/videos/S_pexels-sora-shimazaki-5925295.mp4	0.0	178.94516682624817	
47	124.89906716346741	movie	1		162.0	45.0	2.5	/experiments/knapen_aot/videos/S_pexels-sora-shimazaki-5925295.mp4	0.0	178.95342803001404	2.5083248615264893
47	127.4073920249939	fix_post	2		12.0	45.0	2.5	/experiments/knapen_aot/videos/S_pexels-sora-shimazaki-5925295.mp4	0.0	181.46175289154053	0.10000395774841309
47	127.49921202659607	response	2	2		45.0	2.5	/experiments/knapen_aot/videos/S_pexels-sora-shimazaki-5925295.mp4	0.0	181.5535728931427	
48	127.50739598274231	fix_pre	0		35.0	46.0	2.5	/experiments/knapen_aot/videos/R_S_pexels-c-technical-6809719.mp4	0.0	181.56175684928894	0.29165101051330566
48	127.79071617126465	response	0	2		46.0	2.5	/experiments/knapen_aot/videos/R_S_pexels-c-technical-6809719.mp4	0.0	181.84507703781128	
48	127.79904699325562	movie	1		210.0	46.0	2.5	/experiments/knapen_aot/videos/R_S_pexels-c-technical-6809719.mp4	0.0	181.85340785980225	2.5083510875701904
48	130.3073980808258	fix_post	2		12.0	46.0	2.5	/experiments/knapen_aot/videos/R_S_pexels-c-technical-6809719.mp4	0.0	184.36175894737244	0.09998893737792969
49	130.40738701820374	fix_pre	0		10.0	47.0	2.5	/experiments/knapen_aot/videos/S_pexels-cottonbro-9063801_1.mp4	0.0	184.46174788475037	0.08332300186157227
49	130.48250102996826	response	0	2		47.0	2.5	/experiments/knapen_aot/videos/S_pexels-cottonbro-9063801_1.mp4	0.0	184.5368618965149	
49	130.4907100200653	movie	1		194.0	47.0	2.5	/experiments/knapen_aot/videos/S_pexels-cottonbro-9063801_1.mp4	0.0	184.54507088661194	2.508305072784424
49	132.99901509284973	fix_post	2		12.0	47.0	2.5	/experiments/knapen_aot/videos/S_pexels-cottonbro-9063801_1.mp4	0.0	187.05337595939636	0.09999704360961914
50	133.09901213645935	fix_pre	0		12.0	48.0	2.5	/experiments/knapen_aot/videos/R_S_yt-BJsMGxfjrZk_59.mp4	0.0	187.15337300300598	0.10003185272216797
50	133.1908700466156	response	0	2		48.0	2.5	/experiments/knapen_aot/videos/R_S_yt-BJsMGxfjrZk_59.mp4	0.0	187.24523091316223	
50	133.19904398918152	movie	1		301.0	48.0	2.5	/experiments/knapen_aot/videos/R_S_yt-BJsMGxfjrZk_59.mp4	0.0	187.25340485572815	2.508336067199707
50	135.70738005638123	fix_post	2		12.0	48.0	2.5	/experiments/knapen_aot/videos/R_S_yt-BJsMGxfjrZk_59.mp4	0.0	189.76174092292786	0.09998893737792969
51	135.80736899375916	fix_pre	0		24.0	49.0	2.5	blank	1.0	189.8617298603058	0.20002007484436035
51	135.99924397468567	response	0	2		49.0	2.5	blank	1.0	190.0536048412323	
51	136.00738906860352	movie	1		301.0	49.0	2.5	blank	1.0	190.06174993515015	2.5082859992980957
51	138.5156750679016	fix_post	2		12.0	49.0	2.5	blank	1.0	192.57003593444824	0.10004591941833496
52	138.61572098731995	fix_pre	0		48.0	50.0	2.5	/experiments/knapen_aot/videos/R_S_wc-16LozRfhUGea_49.mp4	0.0	192.67008185386658	0.4009120464324951
52	139.00746417045593	response	0	2		50.0	2.5	/experiments/knapen_aot/videos/R_S_wc-16LozRfhUGea_49.mp4	0.0	193.06182503700256	
52	139.01663303375244	movie	1		301.0	50.0	2.5	/experiments/knapen_aot/videos/R_S_wc-16LozRfhUGea_49.mp4	0.0	193.07099390029907	2.5074000358581543
52	141.5240330696106	fix_post	2		12.0	50.0	2.5	/experiments/knapen_aot/videos/R_S_wc-16LozRfhUGea_49.mp4	0.0	195.57839393615723	0.10003209114074707
53	141.62406516075134	fix_pre	0		50.0	51.0	2.5	/experiments/knapen_aot/videos/S_ILSVRC2015_train_00682009.mp4	0.0	195.67842602729797	0.41658878326416016
53	142.03247904777527	response	0	2		51.0	2.5	/experiments/knapen_aot/videos/S_ILSVRC2015_train_00682009.mp4	0.0	196.0868399143219	
53	142.0406539440155	movie	1		300.0	51.0	2.5	/experiments/knapen_aot/videos/S_ILSVRC2015_train_00682009.mp4	0.0	196.09501481056213	2.5083630084991455
53	144.54901695251465	fix_post	2		12.0	51.0	2.5	/experiments/knapen_aot/videos/S_ILSVRC2015_train_00682009.mp4	0.0	198.60337781906128	0.1000361442565918
54	144.64905309677124	fix_pre	0		6.0	52.0	2.5	/experiments/knapen_aot/videos/R_S_yt-kuzdrmHa-W0_39.mp4	0.0	198.70341396331787	0.049983978271484375
54	144.69083404541016	response	0	2		52.0	2.5	/experiments/knapen_aot/videos/R_S_yt-kuzdrmHa-W0_39.mp4	0.0	198.7451949119568	
54	144.69903707504272	movie	1		301.0	52.0	2.5	/experiments/knapen_aot/videos/R_S_yt-kuzdrmHa-W0_39.mp4	0.0	198.75339794158936	2.508296012878418
54	147.20733308792114	fix_post	2		12.0	52.0	2.5	/experiments/knapen_aot/videos/R_S_yt-kuzdrmHa-W0_39.mp4	0.0	201.26169395446777	0.09996485710144043
55	147.30729794502258	fix_pre	0		10.0	53.0	2.5	/experiments/knapen_aot/videos/R_S_yt-wrfAMDCg93Y_8.mp4	0.0	201.3616588115692	0.08426213264465332
55	147.38235807418823	response	0	2		53.0	2.5	/experiments/knapen_aot/videos/R_S_yt-wrfAMDCg93Y_8.mp4	0.0	201.43671894073486	
55	147.39156007766724	movie	1		301.0	53.0	2.5	/experiments/knapen_aot/videos/R_S_yt-wrfAMDCg93Y_8.mp4	0.0	201.44592094421387	2.507478952407837
55	149.89903903007507	fix_post	2		12.0	53.0	2.5	/experiments/knapen_aot/videos/R_S_yt-wrfAMDCg93Y_8.mp4	0.0	203.9533998966217	0.09998703002929688
56	149.99902606010437	fix_pre	0		16.0	54.0	2.5	/experiments/knapen_aot/videos/R_S_yt-KK6fVRAMm-c_476.mp4	0.0	204.053386926651	0.13328003883361816
56	150.124183177948	response	0	2		54.0	2.5	/experiments/knapen_aot/videos/R_S_yt-KK6fVRAMm-c_476.mp4	0.0	204.17854404449463	
56	150.132306098938	movie	1		301.0	54.0	2.5	/experiments/knapen_aot/videos/R_S_yt-KK6fVRAMm-c_476.mp4	0.0	204.18666696548462	2.508389949798584
56	152.64069604873657	fix_post	2		12.0	54.0	2.5	/experiments/knapen_aot/videos/R_S_yt-KK6fVRAMm-c_476.mp4	0.0	206.6950569152832	0.09997892379760742
57	152.74067497253418	fix_pre	0		17.0	55.0	2.5	/experiments/knapen_aot/videos/R_S_yt-xNKgc8sFYvU_35.mp4	0.0	206.7950358390808	0.14159011840820312
57	152.874125957489	response	0	2		55.0	2.5	/experiments/knapen_aot/videos/R_S_yt-xNKgc8sFYvU_35.mp4	0.0	206.92848682403564	
57	152.88226509094238	movie	1		301.0	55.0	2.5	/experiments/knapen_aot/videos/R_S_yt-xNKgc8sFYvU_35.mp4	0.0	206.936625957489	2.508362054824829
57	155.3906271457672	fix_post	2		12.0	55.0	2.5	/experiments/knapen_aot/videos/R_S_yt-xNKgc8sFYvU_35.mp4	0.0	209.44498801231384	0.09998202323913574
58	155.49060916900635	fix_pre	0		8.0	56.0	2.5	blank	1.0	209.54497003555298	0.06758499145507812
58	155.54906797409058	response	0	2		56.0	2.5	blank	1.0	209.6034288406372	
58	155.55819416046143	movie	1		301.0	56.0	2.5	blank	1.0	209.61255502700806	2.507450819015503
58	158.06564497947693	fix_post	2		12.0	56.0	2.5	blank	1.0	212.12000584602356	0.09997701644897461
59	158.1656219959259	fix_pre	0		31.0	57.0	2.5	/experiments/knapen_aot/videos/R_S_yt-kRR0CluqaX4_130.mp4	0.0	212.21998286247253	0.25830817222595215
59	158.40813994407654	response	0	2		57.0	2.5	/experiments/knapen_aot/videos/R_S_yt-kRR0CluqaX4_130.mp4	0.0	212.46250081062317	
59	158.42393016815186	movie	1		301.0	57.0	2.5	/experiments/knapen_aot/videos/R_S_yt-kRR0CluqaX4_130.mp4	0.0	212.4782910346985	2.5083179473876953
59	160.93224811553955	fix_post	2		12.0	57.0	2.5	/experiments/knapen_aot/videos/R_S_yt-kRR0CluqaX4_130.mp4	0.0	214.98660898208618	0.09998703002929688
60	161.03223514556885	fix_pre	0		21.0	58.0	2.5	/experiments/knapen_aot/videos/S_yt-wrfAMDCg93Y_8.mp4	0.0	215.08659601211548	0.1749868392944336
60	161.19909811019897	response	0	2		58.0	2.5	/experiments/knapen_aot/videos/S_yt-wrfAMDCg93Y_8.mp4	0.0	215.2534589767456	
60	161.20722198486328	movie	1		301.0	58.0	2.5	/experiments/knapen_aot/videos/S_yt-wrfAMDCg93Y_8.mp4	0.0	215.2615828514099	2.508355140686035
60	163.71557712554932	fix_post	2		12.0	58.0	2.5	/experiments/knapen_aot/videos/S_yt-wrfAMDCg93Y_8.mp4	0.0	217.76993799209595	0.10000085830688477
61	163.8155779838562	fix_pre	0		24.0	59.0	2.5	/experiments/knapen_aot/videos/R_S_video_inspire_oregon_lone-ranch-beach_00001.1080-h264.mp4	0.0	217.86993885040283	0.20084500312805176
61	164.00735116004944	response	0	2		59.0	2.5	/experiments/knapen_aot/videos/R_S_video_inspire_oregon_lone-ranch-beach_00001.1080-h264.mp4	0.0	218.06171202659607	
61	164.01642298698425	movie	1		164.0	59.0	2.5	/experiments/knapen_aot/videos/R_S_video_inspire_oregon_lone-ranch-beach_00001.1080-h264.mp4	0.0	218.07078385353088	2.5075080394744873
61	166.52393102645874	fix_post	2		12.0	59.0	2.5	/experiments/knapen_aot/videos/R_S_video_inspire_oregon_lone-ranch-beach_00001.1080-h264.mp4	0.0	220.57829189300537	0.10006093978881836
62	166.62399196624756	fix_pre	0		23.0	60.0	2.5	/experiments/knapen_aot/videos/S_yt-HFiRYTnMZxE_338.mp4	0.0	220.6783528327942	0.19161701202392578
62	166.80738401412964	response	0	2		60.0	2.5	/experiments/knapen_aot/videos/S_yt-HFiRYTnMZxE_338.mp4	0.0	220.86174488067627	
62	166.81560897827148	movie	1		301.0	60.0	2.5	/experiments/knapen_aot/videos/S_yt-HFiRYTnMZxE_338.mp4	0.0	220.86996984481812	2.5082790851593018
62	169.3238880634308	fix_post	2		12.0	60.0	2.5	/experiments/knapen_aot/videos/S_yt-HFiRYTnMZxE_338.mp4	0.0	223.37824892997742	0.10003995895385742
63	169.42392802238464	fix_pre	0		29.0	61.0	2.5	blank	1.0	223.47828888893127	0.2416820526123047
63	169.64990997314453	response	0	2		61.0	2.5	blank	1.0	223.70427083969116	
63	169.66561007499695	movie	1		301.0	61.0	2.5	blank	1.0	223.71997094154358	2.5082099437713623
63	172.1738200187683	fix_post	2		12.0	61.0	2.5	blank	1.0	226.22818088531494	0.10005307197570801
64	172.27387309074402	fix_pre	0		44.0	62.0	2.5	/experiments/knapen_aot/videos/S_yt-ebylvieB_4g_16.mp4	0.0	226.32823395729065	0.36753106117248535
64	172.63240814208984	response	0	2		62.0	2.5	/experiments/knapen_aot/videos/S_yt-ebylvieB_4g_16.mp4	0.0	226.68676900863647	
64	172.6414041519165	movie	1		301.0	62.0	2.5	/experiments/knapen_aot/videos/S_yt-ebylvieB_4g_16.mp4	0.0	226.69576501846313	2.5074479579925537
64	175.14885210990906	fix_post	2		12.0	62.0	2.5	/experiments/knapen_aot/videos/S_yt-ebylvieB_4g_16.mp4	0.0	229.2032129764557	0.10008096694946289
65	175.24893307685852	fix_pre	0		28.0	63.0	2.5	/experiments/knapen_aot/videos/S_yt-khmJAQuCRRE_119.mp4	0.0	229.30329394340515	0.23318099975585938
65	175.47396206855774	response	0	2		63.0	2.5	/experiments/knapen_aot/videos/S_yt-khmJAQuCRRE_119.mp4	0.0	229.52832293510437	
65	175.48211407661438	movie	1		300.0	63.0	2.5	/experiments/knapen_aot/videos/S_yt-khmJAQuCRRE_119.mp4	0.0	229.536474943161	2.5083470344543457
65	177.99046111106873	fix_post	2		12.0	63.0	2.5	/experiments/knapen_aot/videos/S_yt-khmJAQuCRRE_119.mp4	0.0	232.04482197761536	0.1000359058380127
66	178.09049701690674	fix_pre	0		16.0	64.0	2.5	/experiments/knapen_aot/videos/S_yt-Q4edV5qiqu0_578.mp4	0.0	232.14485788345337	0.1342000961303711
66	178.2156720161438	response	0	2		64.0	2.5	/experiments/knapen_aot/videos/S_yt-Q4edV5qiqu0_578.mp4	0.0	232.27003288269043	
66	178.2246971130371	movie	1		301.0	64.0	2.5	/experiments/knapen_aot/videos/S_yt-Q4edV5qiqu0_578.mp4	0.0	232.27905797958374	2.507472038269043
66	180.73216915130615	fix_post	2		12.0	64.0	2.5	/experiments/knapen_aot/videos/S_yt-Q4edV5qiqu0_578.mp4	0.0	234.78653001785278	0.09992384910583496
67	180.832093000412	fix_pre	0		26.0	65.0	2.5	/experiments/knapen_aot/videos/R_S_pexels-mikhail-nilov-8410084_1.mp4	0.0	234.88645386695862	0.21673011779785156
67	181.0406470298767	response	0	2		65.0	2.5	/experiments/knapen_aot/videos/R_S_pexels-mikhail-nilov-8410084_1.mp4	0.0	235.09500789642334	
67	181.04882311820984	movie	1		165.0	65.0	2.5	/experiments/knapen_aot/videos/R_S_pexels-mikhail-nilov-8410084_1.mp4	0.0	235.10318398475647	2.5083539485931396
67	183.55717706680298	fix_post	2		12.0	65.0	2.5	/experiments/knapen_aot/videos/R_S_pexels-mikhail-nilov-8410084_1.mp4	0.0	237.6115379333496	0.1000359058380127
68	183.657212972641	fix_pre	0		9.0	66.0	2.5	/experiments/knapen_aot/videos/R_S_ILSVRC2015_train_00682009.mp4	0.0	237.71157383918762	0.07492709159851074
68	183.71723413467407	response	0	2		66.0	2.5	/experiments/knapen_aot/videos/R_S_ILSVRC2015_train_00682009.mp4	0.0	237.7715950012207	
68	183.7321400642395	movie	1		301.0	66.0	2.5	/experiments/knapen_aot/videos/R_S_ILSVRC2015_train_00682009.mp4	0.0	237.78650093078613	2.5083699226379395
68	186.24050998687744	fix_post	2		12.0	66.0	2.5	/experiments/knapen_aot/videos/R_S_ILSVRC2015_train_00682009.mp4	0.0	240.29487085342407	0.09995412826538086
69	186.34046411514282	fix_pre	0		19.0	67.0	2.5	/experiments/knapen_aot/videos/S_yt-IyxCMODHSSE_29.mp4	0.0	240.39482498168945	0.15828704833984375
69	186.49062204360962	response	0	2		67.0	2.5	/experiments/knapen_aot/videos/S_yt-IyxCMODHSSE_29.mp4	0.0	240.54498291015625	
69	186.49875116348267	movie	1		301.0	67.0	2.5	/experiments/knapen_aot/videos/S_yt-IyxCMODHSSE_29.mp4	0.0	240.5531120300293	2.5084729194641113
69	189.00722408294678	fix_post	2		12.0	67.0	2.5	/experiments/knapen_aot/videos/S_yt-IyxCMODHSSE_29.mp4	0.0	243.0615849494934	0.09994196891784668
70	189.10716605186462	fix_pre	0		36.0	68.0	2.5	blank	1.0	243.16152691841125	0.2999260425567627
70	189.39888715744019	response	0	2		68.0	2.5	blank	1.0	243.45324802398682	
70	189.4070920944214	movie	1		301.0	68.0	2.5	blank	1.0	243.46145296096802	2.508358955383301
70	191.9154510498047	fix_post	2		12.0	68.0	2.5	blank	1.0	245.96981191635132	0.10002398490905762
71	192.01547503471375	fix_pre	0		25.0	69.0	2.5	/experiments/knapen_aot/videos/S_ILSVRC2015_train_00001009.mp4	0.0	246.06983590126038	0.20902109146118164
71	192.21551895141602	response	0	2		69.0	2.5	/experiments/knapen_aot/videos/S_ILSVRC2015_train_00001009.mp4	0.0	246.26987981796265	
71	192.22449612617493	movie	1		301.0	69.0	2.5	/experiments/knapen_aot/videos/S_ILSVRC2015_train_00001009.mp4	0.0	246.27885699272156	2.507568836212158
71	194.73206496238708	fix_post	2		12.0	69.0	2.5	/experiments/knapen_aot/videos/S_ILSVRC2015_train_00001009.mp4	0.0	248.78642582893372	0.10011720657348633
72	194.83218216896057	fix_pre	0		32.0	70.0	2.5	/experiments/knapen_aot/videos/S_ILSVRC2015_train_00417000.mp4	0.0	248.8865430355072	0.267291784286499
72	195.09055399894714	response	0	2		70.0	2.5	/experiments/knapen_aot/videos/S_ILSVRC2015_train_00417000.mp4	0.0	249.14491486549377	
72	195.09947395324707	movie	1		300.0	70.0	2.5	/experiments/knapen_aot/videos/S_ILSVRC2015_train_00417000.mp4	0.0	249.1538348197937	2.5075700283050537
72	197.60704398155212	fix_post	2		12.0	70.0	2.5	/experiments/knapen_aot/videos/S_ILSVRC2015_train_00417000.mp4	0.0	251.66140484809875	0.10001897811889648
72	197.68223214149475	response	2	2		70.0	2.5	/experiments/knapen_aot/videos/S_ILSVRC2015_train_00417000.mp4	0.0	251.73659300804138	
73	197.70706295967102	fix_pre	0		38.0	71.0	2.5	/experiments/knapen_aot/videos/S_yt-thmqgEV-sYY_91.mp4	0.0	251.76142382621765	0.3166990280151367
73	198.01553201675415	response	0	2		71.0	2.5	/experiments/knapen_aot/videos/S_yt-thmqgEV-sYY_91.mp4	0.0	252.06989288330078	
73	198.02376198768616	movie	1		301.0	71.0	2.5	/experiments/knapen_aot/videos/S_yt-thmqgEV-sYY_91.mp4	0.0	252.0781228542328	2.508352041244507
73	200.53211402893066	fix_post	2		12.0	71.0	2.5	/experiments/knapen_aot/videos/S_yt-thmqgEV-sYY_91.mp4	0.0	254.5864748954773	0.09998798370361328
74	200.63210201263428	fix_pre	0		9.0	72.0	2.5	/experiments/knapen_aot/videos/S_yt-_HuBzj8EPBc_62.mp4	0.0	254.6864628791809	0.07497000694274902
74	200.69891905784607	response	0	2		72.0	2.5	/experiments/knapen_aot/videos/S_yt-_HuBzj8EPBc_62.mp4	0.0	254.7532799243927	
74	200.70707201957703	movie	1		301.0	72.0	2.5	/experiments/knapen_aot/videos/S_yt-_HuBzj8EPBc_62.mp4	0.0	254.76143288612366	2.508378028869629
74	203.21545004844666	fix_post	2		12.0	72.0	2.5	/experiments/knapen_aot/videos/S_yt-_HuBzj8EPBc_62.mp4	0.0	257.2698109149933	0.09999489784240723
75	203.31544494628906	fix_pre	0		9.0	73.0	2.5	/experiments/knapen_aot/videos/S_yt-7lULOC_rSE0_747.mp4	0.0	257.3698058128357	0.07562708854675293
75	203.38219094276428	response	0	2		73.0	2.5	/experiments/knapen_aot/videos/S_yt-7lULOC_rSE0_747.mp4	0.0	257.4365518093109	
75	203.39107203483582	movie	1		301.0	73.0	2.5	/experiments/knapen_aot/videos/S_yt-7lULOC_rSE0_747.mp4	0.0	257.44543290138245	2.5076870918273926
75	205.8987591266632	fix_post	2		12.0	73.0	2.5	/experiments/knapen_aot/videos/S_yt-7lULOC_rSE0_747.mp4	0.0	259.95311999320984	0.09999489784240723
76	205.99875402450562	fix_pre	0		18.0	74.0	2.5	/experiments/knapen_aot/videos/R_S_yt-r4st6Mt4EE8_85.mp4	0.0	260.05311489105225	0.14995408058166504
76	206.14046216011047	response	0	2		74.0	2.5	/experiments/knapen_aot/videos/R_S_yt-r4st6Mt4EE8_85.mp4	0.0	260.1948230266571	
76	206.14870810508728	movie	1		301.0	74.0	2.5	/experiments/knapen_aot/videos/R_S_yt-r4st6Mt4EE8_85.mp4	0.0	260.2030689716339	2.508370876312256
76	208.65707898139954	fix_post	2		12.0	74.0	2.5	/experiments/knapen_aot/videos/R_S_yt-r4st6Mt4EE8_85.mp4	0.0	262.71143984794617	0.0999910831451416
77	208.75707006454468	fix_pre	0		190.0	75.0	2.5	/experiments/knapen_aot/videos/S_flickr-slruok-8006772217_6.mp4	0.0	262.8114309310913	1.5832688808441162
77	210.32463097572327	response	0	2		75.0	2.5	/experiments/knapen_aot/videos/S_flickr-slruok-8006772217_6.mp4	0.0	264.3789918422699	
77	210.3403389453888	movie	1		301.0	75.0	2.5	/experiments/knapen_aot/videos/S_flickr-slruok-8006772217_6.mp4	0.0	264.3946998119354	2.508376121520996
77	212.8487150669098	fix_post	2		12.0	75.0	2.5	/experiments/knapen_aot/videos/S_flickr-slruok-8006772217_6.mp4	0.0	266.9030759334564	0.10000300407409668
78	212.9487180709839	fix_pre	0		11.0	76.0	2.5	blank	1.0	267.0030789375305	0.09169197082519531
78	213.03225207328796	response	0	2		76.0	2.5	blank	1.0	267.0866129398346	
78	213.04041004180908	movie	1		301.0	76.0	2.5	blank	1.0	267.0947709083557	2.5082740783691406
78	215.54868412017822	fix_post	2		12.0	76.0	2.5	blank	1.0	269.60304498672485	0.10000085830688477
79	215.6486849784851	fix_pre	0		25.0	77.0	2.5	/experiments/knapen_aot/videos/S_yt-Iu2ZPHLqXuY_32.mp4	0.0	269.70304584503174	0.20828819274902344
79	215.84880304336548	response	0	2		77.0	2.5	/experiments/knapen_aot/videos/S_yt-Iu2ZPHLqXuY_32.mp4	0.0	269.9031639099121	
79	215.85697317123413	movie	1		301.0	77.0	2.5	/experiments/knapen_aot/videos/S_yt-Iu2ZPHLqXuY_32.mp4	0.0	269.91133403778076	2.5083439350128174
79	218.36531710624695	fix_post	2		12.0	77.0	2.5	/experiments/knapen_aot/videos/S_yt-Iu2ZPHLqXuY_32.mp4	0.0	272.4196779727936	0.09998798370361328
80	218.46530508995056	fix_pre	0		14.0	78.0	2.5	/experiments/knapen_aot/videos/S_yt-aqrdb6BiFx4_12.mp4	0.0	272.5196659564972	0.11670804023742676
80	218.5739390850067	response	0	2		78.0	2.5	/experiments/knapen_aot/videos/S_yt-aqrdb6BiFx4_12.mp4	0.0	272.62829995155334	
80	218.582013130188	movie	1		301.0	78.0	2.5	/experiments/knapen_aot/videos/S_yt-aqrdb6BiFx4_12.mp4	0.0	272.6363739967346	2.5082788467407227
80	221.0902919769287	fix_post	2		12.0	78.0	2.5	/experiments/knapen_aot/videos/S_yt-aqrdb6BiFx4_12.mp4	0.0	275.14465284347534	0.10007214546203613
81	221.19036412239075	fix_pre	0		23.0	79.0	2.5	/experiments/knapen_aot/videos/R_S_yt-54kx8P3L1ns_6.mp4	0.0	275.2447249889374	0.19158482551574707
81	221.37373614311218	response	0	2		79.0	2.5	/experiments/knapen_aot/videos/R_S_yt-54kx8P3L1ns_6.mp4	0.0	275.4280970096588	
81	221.3819489479065	movie	1		301.0	79.0	2.5	/experiments/knapen_aot/videos/R_S_yt-54kx8P3L1ns_6.mp4	0.0	275.4363098144531	2.5083720684051514
81	223.89032101631165	fix_post	2		12.0	79.0	2.5	/experiments/knapen_aot/videos/R_S_yt-54kx8P3L1ns_6.mp4	0.0	277.9446818828583	0.1000370979309082
82	223.99035811424255	fix_pre	0		18.0	80.0	2.5	/experiments/knapen_aot/videos/R_S_yt-bOgChEHiroI_20.mp4	0.0	278.0447189807892	0.15052103996276855
82	224.1321041584015	response	0	2		80.0	2.5	/experiments/knapen_aot/videos/R_S_yt-bOgChEHiroI_20.mp4	0.0	278.1864650249481	
82	224.14087915420532	movie	1		301.0	80.0	2.5	/experiments/knapen_aot/videos/R_S_yt-bOgChEHiroI_20.mp4	0.0	278.19524002075195	2.5078139305114746
82	226.6486930847168	fix_post	2		12.0	80.0	2.5	/experiments/knapen_aot/videos/R_S_yt-bOgChEHiroI_20.mp4	0.0	280.7030539512634	0.0999760627746582
83	226.74866914749146	fix_pre	0		17.0	81.0	2.5	/experiments/knapen_aot/videos/R_S_yt-r4st6Mt4EE8_85.mp4	0.0	280.8030300140381	0.14215397834777832
83	226.88208603858948	response	0	2		81.0	2.5	/experiments/knapen_aot/videos/R_S_yt-r4st6Mt4EE8_85.mp4	0.0	280.9364469051361	
83	226.89082312583923	movie	1		301.0	81.0	2.5	/experiments/knapen_aot/videos/R_S_yt-r4st6Mt4EE8_85.mp4	0.0	280.94518399238586	2.507817029953003
83	229.39864015579224	fix_post	2		12.0	81.0	2.5	/experiments/knapen_aot/videos/R_S_yt-r4st6Mt4EE8_85.mp4	0.0	283.45300102233887	0.10001087188720703
84	229.49865102767944	fix_pre	0		31.0	82.0	2.5	/experiments/knapen_aot/videos/R_S_ILSVRC2015_train_00415003.mp4	0.0	283.5530118942261	0.2582221031188965
84	229.74876499176025	response	0	2		82.0	2.5	/experiments/knapen_aot/videos/R_S_ILSVRC2015_train_00415003.mp4	0.0	283.8031258583069	
84	229.75687313079834	movie	1		301.0	82.0	2.5	/experiments/knapen_aot/videos/R_S_ILSVRC2015_train_00415003.mp4	0.0	283.81123399734497	2.5083868503570557
84	232.2652599811554	fix_post	2		12.0	82.0	2.5	/experiments/knapen_aot/videos/R_S_ILSVRC2015_train_00415003.mp4	0.0	286.319620847702	0.10001015663146973
85	232.36527013778687	fix_pre	0		122.0	83.0	2.5	blank	1.0	286.4196310043335	1.01670503616333
85	233.3737759590149	response	0	2		83.0	2.5	blank	1.0	287.4281368255615	
85	233.3819751739502	movie	1		301.0	83.0	2.5	blank	1.0	287.4363360404968	2.508331775665283
85	235.89030694961548	fix_post	2		12.0	83.0	2.5	blank	1.0	289.9446678161621	0.09993815422058105
87	235.99024510383606	stim	0		173.0					290.0446059703827	1.442234992980957
87	237.4282500743866	response	0	space						291.4826109409332	
