trial_nr	onset	event_type	phase	response	nr_frames	movie_index	movie_duration	movie_file	blank	onset_abs	duration
0	0.12508296966552734	stim	0		29.0					75.07265496253967	0.24152207374572754
0	0.35852503776550293	response	0	space						75.30609703063965	
1	0.3666050434112549	stim	0		121.0					75.3141770362854	1.0080928802490234
1	1.3746979236602783	stim	1		120.0					76.32226991653442	0.9999921321868896
1	1.7247469425201416	response	1	space						76.67231893539429	
2	2.374690055847168	fix_pre	0		17.0	0.0	2.5	/experiments/knapen_aot/videos/S_video_inspire_oregon_lone-ranch-beach_00001.1080-h264.mp4	0.0	77.32226204872131	0.14201784133911133
2	2.508155107498169	response	0	space		0.0	2.5	/experiments/knapen_aot/videos/S_video_inspire_oregon_lone-ranch-beach_00001.1080-h264.mp4	0.0	77.45572710037231	
2	2.5167078971862793	movie	1		163.0	0.0	2.5	/experiments/knapen_aot/videos/S_video_inspire_oregon_lone-ranch-beach_00001.1080-h264.mp4	0.0	77.46427989006042	2.507956027984619
2	5.024663925170898	fix_post	2		12.0	0.0	2.5	/experiments/knapen_aot/videos/S_video_inspire_oregon_lone-ranch-beach_00001.1080-h264.mp4	0.0	79.97223591804504	0.10000395774841309
3	5.1246678829193115	fix_pre	0		105.0	1.0	2.5	/experiments/knapen_aot/videos/R_S_yt-nqRBIR8dFYc_328.mp4	0.0	80.07223987579346	0.8781640529632568
3	5.993617057800293	response	0	2		1.0	2.5	/experiments/knapen_aot/videos/R_S_yt-nqRBIR8dFYc_328.mp4	0.0	80.94118905067444	
3	6.002831935882568	movie	1		294.0	1.0	2.5	/experiments/knapen_aot/videos/R_S_yt-nqRBIR8dFYc_328.mp4	0.0	80.95040392875671	2.5050740242004395
3	8.507905960083008	fix_post	2		12.0	1.0	2.5	/experiments/knapen_aot/videos/R_S_yt-nqRBIR8dFYc_328.mp4	0.0	83.45547795295715	0.10008001327514648
4	8.607985973358154	fix_pre	0		133.0	2.0	2.5	/experiments/knapen_aot/videos/R_S_yt-cvwUZbYSd4Q_35.mp4	0.0	83.5555579662323	1.1082379817962646
4	9.708087921142578	response	0	2		2.0	2.5	/experiments/knapen_aot/videos/R_S_yt-cvwUZbYSd4Q_35.mp4	0.0	84.65565991401672	
4	9.716223955154419	movie	1		301.0	2.0	2.5	/experiments/knapen_aot/videos/R_S_yt-cvwUZbYSd4Q_35.mp4	0.0	84.66379594802856	2.5084609985351562
4	12.224684953689575	fix_post	2		12.0	2.0	2.5	/experiments/knapen_aot/videos/R_S_yt-cvwUZbYSd4Q_35.mp4	0.0	87.17225694656372	0.09993910789489746
5	12.324624061584473	fix_pre	0		91.0	3.0	2.5	/experiments/knapen_aot/videos/R_S_comp_A114_C001_0305OT_v10_SDR_FINAL_22062018_SDR_2K_AVC.mp4	0.0	87.27219605445862	0.7583019733428955
5	13.0747709274292	response	0	2		3.0	2.5	/experiments/knapen_aot/videos/R_S_comp_A114_C001_0305OT_v10_SDR_FINAL_22062018_SDR_2K_AVC.mp4	0.0	88.02234292030334	
5	13.082926034927368	movie	1		166.0	3.0	2.5	/experiments/knapen_aot/videos/R_S_comp_A114_C001_0305OT_v10_SDR_FINAL_22062018_SDR_2K_AVC.mp4	0.0	88.03049802780151	2.508302927017212
5	15.59122896194458	fix_post	2		12.0	3.0	2.5	/experiments/knapen_aot/videos/R_S_comp_A114_C001_0305OT_v10_SDR_FINAL_22062018_SDR_2K_AVC.mp4	0.0	90.53880095481873	0.0999901294708252
6	15.691219091415405	fix_pre	0		90.0	4.0	2.5	/experiments/knapen_aot/videos/S_yt-cgwHIb9LAFc_336.mp4	0.0	90.63879108428955	0.7499959468841553
6	16.43303608894348	response	0	2		4.0	2.5	/experiments/knapen_aot/videos/S_yt-cgwHIb9LAFc_336.mp4	0.0	91.38060808181763	
6	16.44121503829956	movie	1		301.0	4.0	2.5	/experiments/knapen_aot/videos/S_yt-cgwHIb9LAFc_336.mp4	0.0	91.3887870311737	2.508445978164673
6	18.949661016464233	fix_post	2		12.0	4.0	2.5	/experiments/knapen_aot/videos/S_yt-cgwHIb9LAFc_336.mp4	0.0	93.89723300933838	0.09991192817687988
7	19.049572944641113	fix_pre	0		105.0	5.0	2.5	/experiments/knapen_aot/videos/R_S_yt-CZ2qiY-kS7Y_105.mp4	0.0	93.99714493751526	0.8749861717224121
7	19.9163761138916	response	0	2		5.0	2.5	/experiments/knapen_aot/videos/R_S_yt-CZ2qiY-kS7Y_105.mp4	0.0	94.86394810676575	
7	19.924559116363525	movie	1		301.0	5.0	2.5	/experiments/knapen_aot/videos/R_S_yt-CZ2qiY-kS7Y_105.mp4	0.0	94.87213110923767	2.5083367824554443
7	22.43289589881897	fix_post	2		12.0	5.0	2.5	/experiments/knapen_aot/videos/R_S_yt-CZ2qiY-kS7Y_105.mp4	0.0	97.38046789169312	0.09995317459106445
8	22.532849073410034	fix_pre	0		79.0	6.0	2.5	blank	1.0	97.48042106628418	0.6583390235900879
8	23.18303894996643	response	0	2		6.0	2.5	blank	1.0	98.13061094284058	
8	23.191188097000122	movie	1		301.0	6.0	2.5	blank	1.0	98.13876008987427	2.508305788040161
8	25.699493885040283	fix_post	2		12.0	6.0	2.5	blank	1.0	100.64706587791443	0.10003113746643066
9	25.799525022506714	fix_pre	0		91.0	7.0	2.5	/experiments/knapen_aot/videos/S_ILSVRC2015_train_00497001.mp4	0.0	100.74709701538086	0.7586350440979004
9	26.549663066864014	response	0	2		7.0	2.5	/experiments/knapen_aot/videos/S_ILSVRC2015_train_00497001.mp4	0.0	101.49723505973816	
9	26.558160066604614	movie	1		298.0	7.0	2.5	/experiments/knapen_aot/videos/S_ILSVRC2015_train_00497001.mp4	0.0	101.50573205947876	2.507990837097168
9	29.066150903701782	fix_post	2		12.0	7.0	2.5	/experiments/knapen_aot/videos/S_ILSVRC2015_train_00497001.mp4	0.0	104.01372289657593	0.10002708435058594
10	29.166177988052368	fix_pre	0		84.0	8.0	2.5	/experiments/knapen_aot/videos/R_S_pexels-pavel-danilyuk-8057714.mp4	0.0	104.11374998092651	0.6999890804290771
10	29.857955932617188	response	0	2		8.0	2.5	/experiments/knapen_aot/videos/R_S_pexels-pavel-danilyuk-8057714.mp4	0.0	104.80552792549133	
10	29.866167068481445	movie	1		166.0	8.0	2.5	/experiments/knapen_aot/videos/R_S_pexels-pavel-danilyuk-8057714.mp4	0.0	104.81373906135559	2.5083580017089844
10	32.37452507019043	fix_post	2		12.0	8.0	2.5	/experiments/knapen_aot/videos/R_S_pexels-pavel-danilyuk-8057714.mp4	0.0	107.32209706306458	0.1002960205078125
11	32.47482109069824	fix_pre	0		88.0	9.0	2.5	/experiments/knapen_aot/videos/S_yt-FoO02U39gy4_398.mp4	0.0	107.42239308357239	0.7329998016357422
11	33.19975304603577	response	0	2		9.0	2.5	/experiments/knapen_aot/videos/S_yt-FoO02U39gy4_398.mp4	0.0	108.14732503890991	
11	33.207820892333984	movie	1		301.0	9.0	2.5	/experiments/knapen_aot/videos/S_yt-FoO02U39gy4_398.mp4	0.0	108.15539288520813	2.50829815864563
11	35.716119050979614	fix_post	2		12.0	9.0	2.5	/experiments/knapen_aot/videos/S_yt-FoO02U39gy4_398.mp4	0.0	110.66369104385376	0.09995794296264648
12	35.81607699394226	fix_pre	0		85.0	10.0	2.5	/experiments/knapen_aot/videos/R_S_yt-i-1Gou9SA5U_3.mp4	0.0	110.7636489868164	0.7084009647369385
12	36.51631999015808	response	0	2		10.0	2.5	/experiments/knapen_aot/videos/R_S_yt-i-1Gou9SA5U_3.mp4	0.0	111.46389198303223	
12	36.5244779586792	movie	1		301.0	10.0	2.5	/experiments/knapen_aot/videos/R_S_yt-i-1Gou9SA5U_3.mp4	0.0	111.47204995155334	2.508342981338501
12	39.0328209400177	fix_post	2		12.0	10.0	2.5	/experiments/knapen_aot/videos/R_S_yt-i-1Gou9SA5U_3.mp4	0.0	113.98039293289185	0.09990715980529785
13	39.132728099823	fix_pre	0		73.0	11.0	2.5	/experiments/knapen_aot/videos/R_S_ILSVRC2015_train_00044004.mp4	0.0	114.08030009269714	0.6084020137786865
13	39.7330060005188	response	0	2		11.0	2.5	/experiments/knapen_aot/videos/R_S_ILSVRC2015_train_00044004.mp4	0.0	114.68057799339294	
13	39.741130113601685	movie	1		301.0	11.0	2.5	/experiments/knapen_aot/videos/R_S_ILSVRC2015_train_00044004.mp4	0.0	114.68870210647583	2.508358955383301
13	42.249489068984985	fix_post	2		12.0	11.0	2.5	/experiments/knapen_aot/videos/R_S_ILSVRC2015_train_00044004.mp4	0.0	117.19706106185913	0.10037493705749512
14	42.34986400604248	fix_pre	0		116.0	12.0	2.5	/experiments/knapen_aot/videos/S_ILSVRC2015_train_00434000.mp4	0.0	117.29743599891663	0.9662299156188965
14	43.300565004348755	response	0	2		12.0	2.5	/experiments/knapen_aot/videos/S_ILSVRC2015_train_00434000.mp4	0.0	118.2481369972229	
14	43.31609392166138	movie	1		301.0	12.0	2.5	/experiments/knapen_aot/videos/S_ILSVRC2015_train_00434000.mp4	0.0	118.26366591453552	2.5084099769592285
14	45.824503898620605	fix_post	2		12.0	12.0	2.5	/experiments/knapen_aot/videos/S_ILSVRC2015_train_00434000.mp4	0.0	120.77207589149475	0.09996819496154785
15	45.92447209358215	fix_pre	0		113.0	13.0	2.5	blank	1.0	120.8720440864563	0.941648006439209
15	46.858055114746094	response	0	2		13.0	2.5	blank	1.0	121.80562710762024	
15	46.86612010002136	movie	1		301.0	13.0	2.5	blank	1.0	121.81369209289551	2.508283853530884
15	49.374403953552246	fix_post	2		12.0	13.0	2.5	blank	1.0	124.32197594642639	0.1001901626586914
16	49.47459411621094	fix_pre	0		107.0	14.0	2.5	/experiments/knapen_aot/videos/R_S_yt-M5qZo3CUXYE_27.mp4	0.0	124.42216610908508	0.8914787769317627
16	50.35792589187622	response	0	2		14.0	2.5	/experiments/knapen_aot/videos/R_S_yt-M5qZo3CUXYE_27.mp4	0.0	125.30549788475037	
16	50.3660728931427	movie	1		301.0	14.0	2.5	/experiments/knapen_aot/videos/R_S_yt-M5qZo3CUXYE_27.mp4	0.0	125.31364488601685	2.5084171295166016
16	52.8744900226593	fix_post	2		12.0	14.0	2.5	/experiments/knapen_aot/videos/R_S_yt-M5qZo3CUXYE_27.mp4	0.0	127.82206201553345	0.10010409355163574
17	52.97459411621094	fix_pre	0		109.0	15.0	2.5	/experiments/knapen_aot/videos/R_S_yt-ZYrQIw9VUok_111.mp4	0.0	127.92216610908508	0.9081108570098877
17	53.87452697753906	response	0	2		15.0	2.5	/experiments/knapen_aot/videos/R_S_yt-ZYrQIw9VUok_111.mp4	0.0	128.8220989704132	
17	53.882704973220825	movie	1		301.0	15.0	2.5	/experiments/knapen_aot/videos/R_S_yt-ZYrQIw9VUok_111.mp4	0.0	128.83027696609497	2.5084431171417236
17	56.39114809036255	fix_post	2		12.0	15.0	2.5	/experiments/knapen_aot/videos/R_S_yt-ZYrQIw9VUok_111.mp4	0.0	131.3387200832367	0.09989500045776367
18	56.49104309082031	fix_pre	0		85.0	16.0	2.5	/experiments/knapen_aot/videos/R_S_xTlFOCRvy68_1564.mp4	0.0	131.43861508369446	0.7083888053894043
18	57.19125699996948	response	0	2		16.0	2.5	/experiments/knapen_aot/videos/R_S_xTlFOCRvy68_1564.mp4	0.0	132.13882899284363	
18	57.19943189620972	movie	1		300.0	16.0	2.5	/experiments/knapen_aot/videos/R_S_xTlFOCRvy68_1564.mp4	0.0	132.14700388908386	2.5083000659942627
18	59.70773196220398	fix_post	2		12.0	16.0	2.5	/experiments/knapen_aot/videos/R_S_xTlFOCRvy68_1564.mp4	0.0	134.65530395507812	0.10009002685546875
19	59.80782198905945	fix_pre	0		81.0	17.0	2.5	/experiments/knapen_aot/videos/R_S_yt-ZYrQIw9VUok_111.mp4	0.0	134.7553939819336	0.6748759746551514
19	60.47446298599243	response	0	2		17.0	2.5	/experiments/knapen_aot/videos/R_S_yt-ZYrQIw9VUok_111.mp4	0.0	135.42203497886658	
19	60.4826979637146	movie	1		301.0	17.0	2.5	/experiments/knapen_aot/videos/R_S_yt-ZYrQIw9VUok_111.mp4	0.0	135.43026995658875	2.5083770751953125
19	62.99107503890991	fix_post	2		12.0	17.0	2.5	/experiments/knapen_aot/videos/R_S_yt-ZYrQIw9VUok_111.mp4	0.0	137.93864703178406	0.09996390342712402
20	63.091038942337036	fix_pre	0		92.0	18.0	2.5	/experiments/knapen_aot/videos/S_yt-BIDHmbneB10_998.mp4	0.0	138.03861093521118	0.7667050361633301
20	63.849472999572754	response	0	2		18.0	2.5	/experiments/knapen_aot/videos/S_yt-BIDHmbneB10_998.mp4	0.0	138.7970449924469	
20	63.857743978500366	movie	1		301.0	18.0	2.5	/experiments/knapen_aot/videos/S_yt-BIDHmbneB10_998.mp4	0.0	138.8053159713745	2.508294105529785
20	66.36603808403015	fix_post	2		12.0	18.0	2.5	/experiments/knapen_aot/videos/S_yt-BIDHmbneB10_998.mp4	0.0	141.3136100769043	0.0999288558959961
21	66.46596693992615	fix_pre	0		107.0	19.0	2.5	blank	1.0	141.4135389328003	0.8917491436004639
21	67.34944605827332	response	0	2		19.0	2.5	blank	1.0	142.29701805114746	
21	67.35771608352661	movie	1		301.0	19.0	2.5	blank	1.0	142.30528807640076	2.5083439350128174
21	69.86606001853943	fix_post	2		12.0	19.0	2.5	blank	1.0	144.81363201141357	0.09984993934631348
22	69.96590995788574	fix_pre	0		64.0	20.0	2.5	/experiments/knapen_aot/videos/S_yt-waWM9vAfsIw_116.mp4	0.0	144.9134819507599	0.5333859920501709
22	70.48353290557861	response	0	2		20.0	2.5	/experiments/knapen_aot/videos/S_yt-waWM9vAfsIw_116.mp4	0.0	145.43110489845276	
22	70.49929594993591	movie	1		301.0	20.0	2.5	/experiments/knapen_aot/videos/S_yt-waWM9vAfsIw_116.mp4	0.0	145.44686794281006	2.5083560943603516
22	73.00765204429626	fix_post	2		12.0	20.0	2.5	/experiments/knapen_aot/videos/S_yt-waWM9vAfsIw_116.mp4	0.0	147.9552240371704	0.09999585151672363
23	73.10764789581299	fix_pre	0		88.0	21.0	2.5	/experiments/knapen_aot/videos/S_yt-LB9LoYfH_EA_15.mp4	0.0	148.05521988868713	0.7416400909423828
23	73.83274006843567	response	0	2		21.0	2.5	/experiments/knapen_aot/videos/S_yt-LB9LoYfH_EA_15.mp4	0.0	148.78031206130981	
23	73.84928798675537	movie	1		300.0	21.0	2.5	/experiments/knapen_aot/videos/S_yt-LB9LoYfH_EA_15.mp4	0.0	148.79685997962952	2.500046968460083
23	76.34933495521545	fix_post	2		12.0	21.0	2.5	/experiments/knapen_aot/videos/S_yt-LB9LoYfH_EA_15.mp4	0.0	151.2969069480896	0.09994101524353027
24	76.44927597045898	fix_pre	0		114.0	22.0	2.5	/experiments/knapen_aot/videos/R_S_yt-SS7pSyb0_d0_32.mp4	0.0	151.39684796333313	0.9501659870147705
24	77.3911349773407	response	0	2		22.0	2.5	/experiments/knapen_aot/videos/R_S_yt-SS7pSyb0_d0_32.mp4	0.0	152.33870697021484	
24	77.39944195747375	movie	1		301.0	22.0	2.5	/experiments/knapen_aot/videos/R_S_yt-SS7pSyb0_d0_32.mp4	0.0	152.3470139503479	2.508178949356079
24	79.90762090682983	fix_post	2		12.0	22.0	2.5	/experiments/knapen_aot/videos/R_S_yt-SS7pSyb0_d0_32.mp4	0.0	154.85519289970398	0.09996700286865234
25	80.00758790969849	fix_pre	0		91.0	23.0	2.5	/experiments/knapen_aot/videos/S_ILSVRC2015_train_00292005.mp4	0.0	154.95515990257263	0.7583491802215576
25	80.75776410102844	response	0	2		23.0	2.5	/experiments/knapen_aot/videos/S_ILSVRC2015_train_00292005.mp4	0.0	155.7053360939026	
25	80.76593708992004	movie	1		301.0	23.0	2.5	/experiments/knapen_aot/videos/S_ILSVRC2015_train_00292005.mp4	0.0	155.7135090827942	2.508298873901367
25	83.27423596382141	fix_post	2		12.0	23.0	2.5	/experiments/knapen_aot/videos/S_ILSVRC2015_train_00292005.mp4	0.0	158.22180795669556	0.09998607635498047
26	83.37422204017639	fix_pre	0		80.0	24.0	2.5	/experiments/knapen_aot/videos/R_S_comp_DB_D011_D009_SIGNCMP_v15_6Mbps.mp4	0.0	158.32179403305054	0.6666910648345947
26	84.03282904624939	response	0	2		24.0	2.5	/experiments/knapen_aot/videos/R_S_comp_DB_D011_D009_SIGNCMP_v15_6Mbps.mp4	0.0	158.98040103912354	
26	84.04091310501099	movie	1		164.0	24.0	2.5	/experiments/knapen_aot/videos/R_S_comp_DB_D011_D009_SIGNCMP_v15_6Mbps.mp4	0.0	158.98848509788513	2.50832200050354
26	86.54923510551453	fix_post	2		12.0	24.0	2.5	/experiments/knapen_aot/videos/R_S_comp_DB_D011_D009_SIGNCMP_v15_6Mbps.mp4	0.0	161.49680709838867	0.10001277923583984
27	86.64924788475037	fix_pre	0		97.0	25.0	2.5	/experiments/knapen_aot/videos/R_S_yt-JTuopUgmg1w_101.mp4	0.0	161.5968198776245	0.8083209991455078
27	87.44939589500427	response	0	2		25.0	2.5	/experiments/knapen_aot/videos/R_S_yt-JTuopUgmg1w_101.mp4	0.0	162.39696788787842	
27	87.45756888389587	movie	1		301.0	25.0	2.5	/experiments/knapen_aot/videos/R_S_yt-JTuopUgmg1w_101.mp4	0.0	162.40514087677002	2.508357048034668
27	89.96592593193054	fix_post	2		12.0	25.0	2.5	/experiments/knapen_aot/videos/R_S_yt-JTuopUgmg1w_101.mp4	0.0	164.9134979248047	0.1000051498413086
28	90.06593108177185	fix_pre	0		128.0	26.0	2.5	/experiments/knapen_aot/videos/S_yt-nlfwzxlwRfk_12.mp4	0.0	165.013503074646	1.0679728984832764
28	91.124342918396	response	0	2		26.0	2.5	/experiments/knapen_aot/videos/S_yt-nlfwzxlwRfk_12.mp4	0.0	166.07191491127014	
28	91.13390398025513	movie	1		301.0	26.0	2.5	/experiments/knapen_aot/videos/S_yt-nlfwzxlwRfk_12.mp4	0.0	166.08147597312927	2.5070300102233887
28	93.64093399047852	fix_post	2		12.0	26.0	2.5	/experiments/knapen_aot/videos/S_yt-nlfwzxlwRfk_12.mp4	0.0	168.58850598335266	0.09995698928833008
29	93.74089097976685	fix_pre	0		96.0	27.0	2.5	/experiments/knapen_aot/videos/S_yt-G65z8p1YNhw_16.mp4	0.0	168.688462972641	0.7999429702758789
29	94.53273797035217	response	0	2		27.0	2.5	/experiments/knapen_aot/videos/S_yt-G65z8p1YNhw_16.mp4	0.0	169.48030996322632	
29	94.54083395004272	movie	1		299.0	27.0	2.5	/experiments/knapen_aot/videos/S_yt-G65z8p1YNhw_16.mp4	0.0	169.48840594291687	2.508341073989868
29	97.04917502403259	fix_post	2		12.0	27.0	2.5	/experiments/knapen_aot/videos/S_yt-G65z8p1YNhw_16.mp4	0.0	171.99674701690674	0.1000359058380127
30	97.1492109298706	fix_pre	0		98.0	28.0	2.5	blank	1.0	172.09678292274475	0.8167040348052979
30	97.95775103569031	response	0	2		28.0	2.5	blank	1.0	172.90532302856445	
30	97.9659149646759	movie	1		301.0	28.0	2.5	blank	1.0	172.91348695755005	2.5082530975341797
30	100.47416806221008	fix_post	2		12.0	28.0	2.5	blank	1.0	175.42174005508423	0.10000896453857422
31	100.57417702674866	fix_pre	0		121.0	29.0	2.5	/experiments/knapen_aot/videos/R_S_yt-FLMdajcbjcg_35.mp4	0.0	175.5217490196228	1.0083370208740234
31	101.57432103157043	response	0	2		29.0	2.5	/experiments/knapen_aot/videos/R_S_yt-FLMdajcbjcg_35.mp4	0.0	176.52189302444458	
31	101.58251404762268	movie	1		301.0	29.0	2.5	/experiments/knapen_aot/videos/R_S_yt-FLMdajcbjcg_35.mp4	0.0	176.53008604049683	2.5082428455352783
31	104.09075689315796	fix_post	2		12.0	29.0	2.5	/experiments/knapen_aot/videos/R_S_yt-FLMdajcbjcg_35.mp4	0.0	179.0383288860321	0.10009622573852539
32	104.19085311889648	fix_pre	0		143.0	30.0	2.5	/experiments/knapen_aot/videos/S_yt-jy7rAnpu0u8_128.mp4	0.0	179.13842511177063	1.1916577816009521
32	105.36677098274231	response	0	2		30.0	2.5	/experiments/knapen_aot/videos/S_yt-jy7rAnpu0u8_128.mp4	0.0	180.31434297561646	
32	105.38251090049744	movie	1		300.0	30.0	2.5	/experiments/knapen_aot/videos/S_yt-jy7rAnpu0u8_128.mp4	0.0	180.33008289337158	2.5083580017089844
32	107.89086890220642	fix_post	2		12.0	30.0	2.5	/experiments/knapen_aot/videos/S_yt-jy7rAnpu0u8_128.mp4	0.0	182.83844089508057	0.09999418258666992
33	107.99086308479309	fix_pre	0		111.0	31.0	2.5	/experiments/knapen_aot/videos/R_S_yt-NqyG4Ar2JWo_10.mp4	0.0	182.93843507766724	0.9249179363250732
33	108.90757298469543	response	0	2		31.0	2.5	/experiments/knapen_aot/videos/R_S_yt-NqyG4Ar2JWo_10.mp4	0.0	183.85514497756958	
33	108.91578102111816	movie	1		301.0	31.0	2.5	/experiments/knapen_aot/videos/R_S_yt-NqyG4Ar2JWo_10.mp4	0.0	183.8633530139923	2.508316993713379
33	111.42409801483154	fix_post	2		12.0	31.0	2.5	/experiments/knapen_aot/videos/R_S_yt-NqyG4Ar2JWo_10.mp4	0.0	186.3716700077057	0.1001439094543457
34	111.52424192428589	fix_pre	0		127.0	32.0	2.5	/experiments/knapen_aot/videos/R_S_yt-waWM9vAfsIw_116.mp4	0.0	186.47181391716003	1.0582871437072754
34	112.5742928981781	response	0	2		32.0	2.5	/experiments/knapen_aot/videos/R_S_yt-waWM9vAfsIw_116.mp4	0.0	187.52186489105225	
34	112.58252906799316	movie	1		301.0	32.0	2.5	/experiments/knapen_aot/videos/R_S_yt-waWM9vAfsIw_116.mp4	0.0	187.5301010608673	2.5082619190216064
34	115.09079098701477	fix_post	2		12.0	32.0	2.5	/experiments/knapen_aot/videos/R_S_yt-waWM9vAfsIw_116.mp4	0.0	190.03836297988892	0.09993100166320801
35	115.19072198867798	fix_pre	0		94.0	33.0	2.5	/experiments/knapen_aot/videos/R_S_yt-2i53vKte7SA_117.mp4	0.0	190.13829398155212	0.7833740711212158
35	115.96597790718079	response	0	2		33.0	2.5	/experiments/knapen_aot/videos/R_S_yt-2i53vKte7SA_117.mp4	0.0	190.91354990005493	
35	115.9740960597992	movie	1		301.0	33.0	2.5	/experiments/knapen_aot/videos/R_S_yt-2i53vKte7SA_117.mp4	0.0	190.92166805267334	2.5084428787231445
35	118.48253893852234	fix_post	2		12.0	33.0	2.5	/experiments/knapen_aot/videos/R_S_yt-2i53vKte7SA_117.mp4	0.0	193.43011093139648	0.09990501403808594
36	118.58244395256042	fix_pre	0		126.0	34.0	2.5	blank	1.0	193.53001594543457	1.049950122833252
36	119.62422204017639	response	0	2		34.0	2.5	blank	1.0	194.57179403305054	
36	119.63239407539368	movie	1		301.0	34.0	2.5	blank	1.0	194.57996606826782	2.5083818435668945
36	122.14077591896057	fix_post	2		12.0	34.0	2.5	blank	1.0	197.08834791183472	0.10003018379211426
37	122.24080610275269	fix_pre	0		201.0	35.0	2.5	/experiments/knapen_aot/videos/R_S_yt-XY1n_Oze1kQ_9.mp4	0.0	197.18837809562683	1.6749329566955566
37	123.90758609771729	response	0	2		35.0	2.5	/experiments/knapen_aot/videos/R_S_yt-XY1n_Oze1kQ_9.mp4	0.0	198.85515809059143	
37	123.91573905944824	movie	1		301.0	35.0	2.5	/experiments/knapen_aot/videos/R_S_yt-XY1n_Oze1kQ_9.mp4	0.0	198.8633110523224	2.5083389282226562
37	126.4240779876709	fix_post	2		12.0	35.0	2.5	/experiments/knapen_aot/videos/R_S_yt-XY1n_Oze1kQ_9.mp4	0.0	201.37164998054504	0.10001611709594727
38	126.52409410476685	fix_pre	0		103.0	36.0	2.5	/experiments/knapen_aot/videos/S_ILSVRC2015_train_00497001.mp4	0.0	201.471666097641	0.8594918251037598
38	127.37430691719055	response	0	2		36.0	2.5	/experiments/knapen_aot/videos/S_ILSVRC2015_train_00497001.mp4	0.0	202.3218789100647	
38	127.3835859298706	movie	1		299.0	36.0	2.5	/experiments/knapen_aot/videos/S_ILSVRC2015_train_00497001.mp4	0.0	202.33115792274475	2.5071170330047607
38	129.89070296287537	fix_post	2		12.0	36.0	2.5	/experiments/knapen_aot/videos/S_ILSVRC2015_train_00497001.mp4	0.0	204.8382749557495	0.10004711151123047
39	129.9907500743866	fix_pre	0		88.0	37.0	2.5	/experiments/knapen_aot/videos/R_S_yt-XYULt48onn4_6.mp4	0.0	204.93832206726074	0.7333018779754639
39	130.7083399295807	response	0	2		37.0	2.5	/experiments/knapen_aot/videos/R_S_yt-XYULt48onn4_6.mp4	0.0	205.65591192245483	
39	130.72405195236206	movie	1		301.0	37.0	2.5	/experiments/knapen_aot/videos/R_S_yt-XYULt48onn4_6.mp4	0.0	205.6716239452362	2.5083260536193848
39	133.23237800598145	fix_post	2		11.0	37.0	2.5	/experiments/knapen_aot/videos/R_S_yt-XYULt48onn4_6.mp4	0.0	208.1799499988556	0.10000300407409668
40	133.33238101005554	fix_pre	0		91.0	38.0	2.5	/experiments/knapen_aot/videos/S_yt-3JApfnMu5cU_378.mp4	0.0	208.2799530029297	0.7594470977783203
40	134.08264899253845	response	0	2		38.0	2.5	/experiments/knapen_aot/videos/S_yt-3JApfnMu5cU_378.mp4	0.0	209.0302209854126	
40	134.09182810783386	movie	1		301.0	38.0	2.5	/experiments/knapen_aot/videos/S_yt-3JApfnMu5cU_378.mp4	0.0	209.039400100708	2.5072288513183594
40	136.59905695915222	fix_post	2		12.0	38.0	2.5	/experiments/knapen_aot/videos/S_yt-3JApfnMu5cU_378.mp4	0.0	211.54662895202637	0.10000300407409668
41	136.69905996322632	fix_pre	0		96.0	39.0	2.5	/experiments/knapen_aot/videos/S_yt-mL3MuCfKtdY_79.mp4	0.0	211.64663195610046	0.7999889850616455
41	137.4908299446106	response	0	2		39.0	2.5	/experiments/knapen_aot/videos/S_yt-mL3MuCfKtdY_79.mp4	0.0	212.43840193748474	
41	137.49904894828796	movie	1		301.0	39.0	2.5	/experiments/knapen_aot/videos/S_yt-mL3MuCfKtdY_79.mp4	0.0	212.4466209411621	2.5082759857177734
41	140.00732493400574	fix_post	2		12.0	39.0	2.5	/experiments/knapen_aot/videos/S_yt-mL3MuCfKtdY_79.mp4	0.0	214.95489692687988	0.1001729965209961
42	140.10749793052673	fix_pre	0		88.0	40.0	2.5	/experiments/knapen_aot/videos/R_S_video_inspire_texas_pecos_foggy-landscape_00018.1080-h264.mp4	0.0	215.05506992340088	0.7342550754547119
42	140.83250904083252	response	0	2		40.0	2.5	/experiments/knapen_aot/videos/R_S_video_inspire_texas_pecos_foggy-landscape_00018.1080-h264.mp4	0.0	215.78008103370667	
42	140.84175300598145	movie	1		168.0	40.0	2.5	/experiments/knapen_aot/videos/R_S_video_inspire_texas_pecos_foggy-landscape_00018.1080-h264.mp4	0.0	215.7893249988556	2.507280111312866
42	143.3490331172943	fix_post	2		12.0	40.0	2.5	/experiments/knapen_aot/videos/R_S_video_inspire_texas_pecos_foggy-landscape_00018.1080-h264.mp4	0.0	218.29660511016846	0.10000395774841309
43	143.44903707504272	fix_pre	0		76.0	41.0	2.5	blank	1.0	218.39660906791687	0.6332600116729736
43	144.07407593727112	response	0	2		41.0	2.5	blank	1.0	219.02164793014526	
43	144.0822970867157	movie	1		301.0	41.0	2.5	blank	1.0	219.02986907958984	2.508359909057617
43	146.59065699577332	fix_post	2		12.0	41.0	2.5	blank	1.0	221.53822898864746	0.09995698928833008
44	146.69061398506165	fix_pre	0		59.0	42.0	2.5	/experiments/knapen_aot/videos/R_S_yt-aiwDdJm1ek8_90.mp4	0.0	221.6381859779358	0.4916410446166992
44	147.17411589622498	response	0	2		42.0	2.5	/experiments/knapen_aot/videos/R_S_yt-aiwDdJm1ek8_90.mp4	0.0	222.12168788909912	
44	147.18225502967834	movie	1		300.0	42.0	2.5	/experiments/knapen_aot/videos/R_S_yt-aiwDdJm1ek8_90.mp4	0.0	222.1298270225525	2.50844407081604
44	149.69069910049438	fix_post	2		12.0	42.0	2.5	/experiments/knapen_aot/videos/R_S_yt-aiwDdJm1ek8_90.mp4	0.0	224.63827109336853	0.10001587867736816
45	149.79071497917175	fix_pre	0		105.0	43.0	2.5	/experiments/knapen_aot/videos/R_S_yt-o0Hbe7kcPps_70.mp4	0.0	224.7382869720459	0.8748960494995117
45	150.65746808052063	response	0	2		43.0	2.5	/experiments/knapen_aot/videos/R_S_yt-o0Hbe7kcPps_70.mp4	0.0	225.60504007339478	
45	150.66561102867126	movie	1		301.0	43.0	2.5	/experiments/knapen_aot/videos/R_S_yt-o0Hbe7kcPps_70.mp4	0.0	225.6131830215454	2.508380889892578
45	153.17399191856384	fix_post	2		12.0	43.0	2.5	/experiments/knapen_aot/videos/R_S_yt-o0Hbe7kcPps_70.mp4	0.0	228.121563911438	0.10001516342163086
46	153.27400708198547	fix_pre	0		79.0	44.0	2.5	/experiments/knapen_aot/videos/R_S_yt-j-ifVbxZePQ_70.mp4	0.0	228.22157907485962	0.6582868099212646
46	153.92412996292114	response	0	2		44.0	2.5	/experiments/knapen_aot/videos/R_S_yt-j-ifVbxZePQ_70.mp4	0.0	228.8717019557953	
46	153.93229389190674	movie	1		301.0	44.0	2.5	/experiments/knapen_aot/videos/R_S_yt-j-ifVbxZePQ_70.mp4	0.0	228.87986588478088	2.5083460807800293
46	156.44063997268677	fix_post	2		12.0	44.0	2.5	/experiments/knapen_aot/videos/R_S_yt-j-ifVbxZePQ_70.mp4	0.0	231.3882119655609	0.0999910831451416
47	156.5406310558319	fix_pre	0		114.0	45.0	2.5	/experiments/knapen_aot/videos/S_yt-5rC42egLl5E_387.mp4	0.0	231.48820304870605	0.949955940246582
47	157.4823660850525	response	0	2		45.0	2.5	/experiments/knapen_aot/videos/S_yt-5rC42egLl5E_387.mp4	0.0	232.42993807792664	
47	157.4905869960785	movie	1		301.0	45.0	2.5	/experiments/knapen_aot/videos/S_yt-5rC42egLl5E_387.mp4	0.0	232.43815898895264	2.508388042449951
47	159.99897503852844	fix_post	2		12.0	45.0	2.5	/experiments/knapen_aot/videos/S_yt-5rC42egLl5E_387.mp4	0.0	234.9465470314026	0.09991693496704102
48	160.09889197349548	fix_pre	0		98.0	46.0	2.5	/experiments/knapen_aot/videos/S_yt-D9uD7yM6bxQ_269.mp4	0.0	235.04646396636963	0.8166699409484863
48	160.9073510169983	response	0	2		46.0	2.5	/experiments/knapen_aot/videos/S_yt-D9uD7yM6bxQ_269.mp4	0.0	235.85492300987244	
48	160.91556191444397	movie	1		301.0	46.0	2.5	/experiments/knapen_aot/videos/S_yt-D9uD7yM6bxQ_269.mp4	0.0	235.86313390731812	2.5084171295166016
48	163.42397904396057	fix_post	2		12.0	46.0	2.5	/experiments/knapen_aot/videos/S_yt-D9uD7yM6bxQ_269.mp4	0.0	238.37155103683472	0.09998607635498047
49	163.52396512031555	fix_pre	0		116.0	47.0	2.5	/experiments/knapen_aot/videos/S_yt-4wYTkhggZNM_90.mp4	0.0	238.4715371131897	0.96661376953125
49	164.48238492012024	response	0	2		47.0	2.5	/experiments/knapen_aot/videos/S_yt-4wYTkhggZNM_90.mp4	0.0	239.42995691299438	
49	164.4905788898468	movie	1		301.0	47.0	2.5	/experiments/knapen_aot/videos/S_yt-4wYTkhggZNM_90.mp4	0.0	239.43815088272095	2.508345127105713
49	166.99892401695251	fix_post	2		12.0	47.0	2.5	/experiments/knapen_aot/videos/S_yt-4wYTkhggZNM_90.mp4	0.0	241.94649600982666	0.09991288185119629
50	167.0988368988037	fix_pre	0		101.0	48.0	2.5	blank	1.0	242.04640889167786	0.8417291641235352
50	167.93238496780396	response	0	2		48.0	2.5	blank	1.0	242.8799569606781	
50	167.94056606292725	movie	1		301.0	48.0	2.5	blank	1.0	242.8881380558014	2.508298873901367
50	170.4488649368286	fix_post	2		12.0	48.0	2.5	blank	1.0	245.39643692970276	0.10002517700195312
51	170.54889011383057	fix_pre	0		43.0	49.0	2.5	/experiments/knapen_aot/videos/S_yt-NqyG4Ar2JWo_10.mp4	0.0	245.4964621067047	0.35831689834594727
51	170.89898800849915	response	0	2		49.0	2.5	/experiments/knapen_aot/videos/S_yt-NqyG4Ar2JWo_10.mp4	0.0	245.8465600013733	
51	170.9072070121765	movie	1		301.0	49.0	2.5	/experiments/knapen_aot/videos/S_yt-NqyG4Ar2JWo_10.mp4	0.0	245.85477900505066	2.5083398818969727
51	173.4155468940735	fix_post	2		12.0	49.0	2.5	/experiments/knapen_aot/videos/S_yt-NqyG4Ar2JWo_10.mp4	0.0	248.36311888694763	0.09991717338562012
52	173.5154640674591	fix_pre	0		105.0	50.0	2.5	/experiments/knapen_aot/videos/R_S_production_ID_4269182.mp4	0.0	248.46303606033325	0.8750829696655273
52	174.382385969162	response	0	2		50.0	2.5	/experiments/knapen_aot/videos/R_S_production_ID_4269182.mp4	0.0	249.32995796203613	
52	174.39054703712463	movie	1		205.0	50.0	2.5	/experiments/knapen_aot/videos/R_S_production_ID_4269182.mp4	0.0	249.33811902999878	2.508288860321045
52	176.89883589744568	fix_post	2		12.0	50.0	2.5	/experiments/knapen_aot/videos/R_S_production_ID_4269182.mp4	0.0	251.84640789031982	0.09996509552001953
53	176.9988009929657	fix_pre	0		90.0	51.0	2.5	/experiments/knapen_aot/videos/R_S_pexels-cottonbro-9063801_1.mp4	0.0	251.94637298583984	0.7499620914459229
53	177.73308610916138	response	0	2		51.0	2.5	/experiments/knapen_aot/videos/R_S_pexels-cottonbro-9063801_1.mp4	0.0	252.68065810203552	
53	177.74876308441162	movie	1		209.0	51.0	2.5	/experiments/knapen_aot/videos/R_S_pexels-cottonbro-9063801_1.mp4	0.0	252.69633507728577	2.508455991744995
53	180.25721907615662	fix_post	2		12.0	51.0	2.5	/experiments/knapen_aot/videos/R_S_pexels-cottonbro-9063801_1.mp4	0.0	255.20479106903076	0.09993886947631836
54	180.35715794563293	fix_pre	0		101.0	52.0	2.5	/experiments/knapen_aot/videos/R_S_yt-ZTAaH5XbtfE_3.mp4	0.0	255.30472993850708	0.8416609764099121
54	181.19065594673157	response	0	2		52.0	2.5	/experiments/knapen_aot/videos/R_S_yt-ZTAaH5XbtfE_3.mp4	0.0	256.1382279396057	
54	181.19881892204285	movie	1		301.0	52.0	2.5	/experiments/knapen_aot/videos/R_S_yt-ZTAaH5XbtfE_3.mp4	0.0	256.146390914917	2.508270025253296
54	183.70708894729614	fix_post	2		12.0	52.0	2.5	/experiments/knapen_aot/videos/R_S_yt-ZTAaH5XbtfE_3.mp4	0.0	258.6546609401703	0.10003209114074707
55	183.8071210384369	fix_pre	0		131.0	53.0	2.5	/experiments/knapen_aot/videos/R_S_yt-9CY7rDYBYUI_40.mp4	0.0	258.75469303131104	1.0916550159454346
55	184.89057993888855	response	0	2		53.0	2.5	/experiments/knapen_aot/videos/R_S_yt-9CY7rDYBYUI_40.mp4	0.0	259.8381519317627	
55	184.89877605438232	movie	1		301.0	53.0	2.5	/experiments/knapen_aot/videos/R_S_yt-9CY7rDYBYUI_40.mp4	0.0	259.84634804725647	2.5082859992980957
55	187.40706205368042	fix_post	2		12.0	53.0	2.5	/experiments/knapen_aot/videos/R_S_yt-9CY7rDYBYUI_40.mp4	0.0	262.35463404655457	0.10007596015930176
56	187.50713801383972	fix_pre	0		220.0	54.0	2.5	/experiments/knapen_aot/videos/S_yt-ujTY1igjc3E_2.mp4	0.0	262.45471000671387	1.8341259956359863
56	189.3322160243988	response	0	2		54.0	2.5	/experiments/knapen_aot/videos/S_yt-ujTY1igjc3E_2.mp4	0.0	264.27978801727295	
56	189.3412640094757	movie	1		299.0	54.0	2.5	/experiments/knapen_aot/videos/S_yt-ujTY1igjc3E_2.mp4	0.0	264.28883600234985	2.507530927658081
56	191.8487949371338	fix_post	2		12.0	54.0	2.5	/experiments/knapen_aot/videos/S_yt-ujTY1igjc3E_2.mp4	0.0	266.79636693000793	0.10003304481506348
57	191.94882798194885	fix_pre	0		111.0	55.0	2.5	blank	1.0	266.896399974823	0.9249660968780518
57	192.86566996574402	response	0	2		55.0	2.5	blank	1.0	267.81324195861816	
57	192.8737940788269	movie	1		301.0	55.0	2.5	blank	1.0	267.82136607170105	2.5083348751068115
57	195.38212895393372	fix_post	2		12.0	55.0	2.5	blank	1.0	270.32970094680786	0.1000070571899414
58	195.48213601112366	fix_pre	0		78.0	56.0	2.5	/experiments/knapen_aot/videos/S_yt-fIEGqReekCM_10.mp4	0.0	270.4297080039978	0.6508219242095947
58	196.12403392791748	response	0	2		56.0	2.5	/experiments/knapen_aot/videos/S_yt-fIEGqReekCM_10.mp4	0.0	271.0716059207916	
58	196.13295793533325	movie	1		301.0	56.0	2.5	/experiments/knapen_aot/videos/S_yt-fIEGqReekCM_10.mp4	0.0	271.0805299282074	2.507416009902954
58	198.6403739452362	fix_post	2		12.0	56.0	2.5	/experiments/knapen_aot/videos/S_yt-fIEGqReekCM_10.mp4	0.0	273.58794593811035	0.10003209114074707
59	198.74040603637695	fix_pre	0		128.0	57.0	2.5	/experiments/knapen_aot/videos/S_yt-WCT9dyz0-gQ_36.mp4	0.0	273.6879780292511	1.0666930675506592
59	199.79891204833984	response	0	2		57.0	2.5	/experiments/knapen_aot/videos/S_yt-WCT9dyz0-gQ_36.mp4	0.0	274.746484041214	
59	199.8070991039276	movie	1		301.0	57.0	2.5	/experiments/knapen_aot/videos/S_yt-WCT9dyz0-gQ_36.mp4	0.0	274.75467109680176	2.5082809925079346
59	202.31538009643555	fix_post	2		12.0	57.0	2.5	/experiments/knapen_aot/videos/S_yt-WCT9dyz0-gQ_36.mp4	0.0	277.2629520893097	0.09998583793640137
60	202.41536593437195	fix_pre	0		121.0	58.0	2.5	/experiments/knapen_aot/videos/R_S_ILSVRC2015_train_00497001.mp4	0.0	277.3629379272461	1.0090739727020264
60	203.4155490398407	response	0	2		58.0	2.5	/experiments/knapen_aot/videos/R_S_ILSVRC2015_train_00497001.mp4	0.0	278.36312103271484	
60	203.42443990707397	movie	1		301.0	58.0	2.5	/experiments/knapen_aot/videos/R_S_ILSVRC2015_train_00497001.mp4	0.0	278.3720118999481	2.5076210498809814
60	205.93206095695496	fix_post	2		12.0	58.0	2.5	/experiments/knapen_aot/videos/R_S_ILSVRC2015_train_00497001.mp4	0.0	280.8796329498291	0.10002303123474121
61	206.0320839881897	fix_pre	0		119.0	59.0	2.5	/experiments/knapen_aot/videos/S_2RTDFkjD6vI_93.mp4	0.0	280.97965598106384	0.9916150569915771
61	207.01542210578918	response	0	2		59.0	2.5	/experiments/knapen_aot/videos/S_2RTDFkjD6vI_93.mp4	0.0	281.96299409866333	
61	207.02369904518127	movie	1		301.0	59.0	2.5	/experiments/knapen_aot/videos/S_2RTDFkjD6vI_93.mp4	0.0	281.9712710380554	2.5083529949188232
61	209.5320520401001	fix_post	2		12.0	59.0	2.5	/experiments/knapen_aot/videos/S_2RTDFkjD6vI_93.mp4	0.0	284.47962403297424	0.09998607635498047
62	209.63203811645508	fix_pre	0		96.0	60.0	2.5	/experiments/knapen_aot/videos/R_S_yt--jzScB82vKI_90.mp4	0.0	284.5796101093292	0.7999827861785889
62	210.42380094528198	response	0	2		60.0	2.5	/experiments/knapen_aot/videos/R_S_yt--jzScB82vKI_90.mp4	0.0	285.3713729381561	
62	210.43202090263367	movie	1		301.0	60.0	2.5	/experiments/knapen_aot/videos/R_S_yt--jzScB82vKI_90.mp4	0.0	285.3795928955078	2.5083110332489014
62	212.94033193588257	fix_post	2		12.0	60.0	2.5	/experiments/knapen_aot/videos/R_S_yt--jzScB82vKI_90.mp4	0.0	287.8879039287567	0.10001707077026367
63	213.04034900665283	fix_pre	0		104.0	61.0	2.5	/experiments/knapen_aot/videos/S_yt-he_RSdeVinA_68.mp4	0.0	287.987920999527	0.8666539192199707
63	213.89878296852112	response	0	2		61.0	2.5	/experiments/knapen_aot/videos/S_yt-he_RSdeVinA_68.mp4	0.0	288.84635496139526	
63	213.9070029258728	movie	1		301.0	61.0	2.5	/experiments/knapen_aot/videos/S_yt-he_RSdeVinA_68.mp4	0.0	288.85457491874695	2.508362054824829
63	216.41536498069763	fix_post	2		12.0	61.0	2.5	/experiments/knapen_aot/videos/S_yt-he_RSdeVinA_68.mp4	0.0	291.3629369735718	0.09996604919433594
64	216.51533102989197	fix_pre	0		83.0	62.0	2.5	blank	1.0	291.4629030227661	0.6916818618774414
64	217.19879293441772	response	0	2		62.0	2.5	blank	1.0	292.14636492729187	
64	217.2070128917694	movie	1		301.0	62.0	2.5	blank	1.0	292.15458488464355	2.508263111114502
64	219.7152760028839	fix_post	2		12.0	62.0	2.5	blank	1.0	294.66284799575806	0.10005807876586914
65	219.81533408164978	fix_pre	0		110.0	63.0	2.5	/experiments/knapen_aot/videos/S_yt-QJHe-CoK4iI_170.mp4	0.0	294.7629060745239	0.9166569709777832
65	220.7237091064453	response	0	2		63.0	2.5	/experiments/knapen_aot/videos/S_yt-QJHe-CoK4iI_170.mp4	0.0	295.67128109931946	
65	220.73199105262756	movie	1		301.0	63.0	2.5	/experiments/knapen_aot/videos/S_yt-QJHe-CoK4iI_170.mp4	0.0	295.6795630455017	2.5083799362182617
65	223.24037098884583	fix_post	2		12.0	63.0	2.5	/experiments/knapen_aot/videos/S_yt-QJHe-CoK4iI_170.mp4	0.0	298.18794298171997	0.09993791580200195
66	223.34030890464783	fix_pre	0		102.0	64.0	2.5	/experiments/knapen_aot/videos/R_S_yt-FoO02U39gy4_398.mp4	0.0	298.287880897522	0.849951982498169
66	224.17464804649353	response	0	2		64.0	2.5	/experiments/knapen_aot/videos/R_S_yt-FoO02U39gy4_398.mp4	0.0	299.1222200393677	
66	224.190260887146	movie	1		301.0	64.0	2.5	/experiments/knapen_aot/videos/R_S_yt-FoO02U39gy4_398.mp4	0.0	299.13783288002014	2.508348226547241
66	226.69860911369324	fix_post	2		12.0	64.0	2.5	/experiments/knapen_aot/videos/R_S_yt-FoO02U39gy4_398.mp4	0.0	301.6461811065674	0.09998798370361328
67	226.79859709739685	fix_pre	0		65.0	65.0	2.5	/experiments/knapen_aot/videos/S_yt-T_qmGKyeKNU_32.mp4	0.0	301.746169090271	0.5423269271850586
67	227.32455205917358	response	0	2		65.0	2.5	/experiments/knapen_aot/videos/S_yt-T_qmGKyeKNU_32.mp4	0.0	302.27212405204773	
67	227.3409240245819	movie	1		300.0	65.0	2.5	/experiments/knapen_aot/videos/S_yt-T_qmGKyeKNU_32.mp4	0.0	302.28849601745605	2.5076639652252197
67	229.84858798980713	fix_post	2		12.0	65.0	2.5	/experiments/knapen_aot/videos/S_yt-T_qmGKyeKNU_32.mp4	0.0	304.7961599826813	0.1000211238861084
68	229.94860911369324	fix_pre	0		77.0	66.0	2.5	/experiments/knapen_aot/videos/S_yt-n6aLw10f2Yw_317.mp4	0.0	304.8961811065674	0.6422758102416992
68	230.58210802078247	response	0	2		66.0	2.5	/experiments/knapen_aot/videos/S_yt-n6aLw10f2Yw_317.mp4	0.0	305.5296800136566	
68	230.59088492393494	movie	1		301.0	66.0	2.5	/experiments/knapen_aot/videos/S_yt-n6aLw10f2Yw_317.mp4	0.0	305.5384569168091	2.507733106613159
68	233.0986180305481	fix_post	2		12.0	66.0	2.5	/experiments/knapen_aot/videos/S_yt-n6aLw10f2Yw_317.mp4	0.0	308.04619002342224	0.09994888305664062
69	233.19856691360474	fix_pre	0		82.0	67.0	2.5	/experiments/knapen_aot/videos/S_yt-cvwUZbYSd4Q_35.mp4	0.0	308.1461389064789	0.6839640140533447
69	233.86630010604858	response	0	2		67.0	2.5	/experiments/knapen_aot/videos/S_yt-cvwUZbYSd4Q_35.mp4	0.0	308.81387209892273	
69	233.88253092765808	movie	1		301.0	67.0	2.5	/experiments/knapen_aot/videos/S_yt-cvwUZbYSd4Q_35.mp4	0.0	308.8301029205322	2.50763201713562
69	236.3901629447937	fix_post	2		12.0	67.0	2.5	/experiments/knapen_aot/videos/S_yt-cvwUZbYSd4Q_35.mp4	0.0	311.33773493766785	0.10004615783691406
70	236.49020910263062	fix_pre	0		98.0	68.0	2.5	/experiments/knapen_aot/videos/R_S_yt-T_qmGKyeKNU_32.mp4	0.0	311.43778109550476	0.8166778087615967
70	237.29112696647644	response	0	2		68.0	2.5	/experiments/knapen_aot/videos/R_S_yt-T_qmGKyeKNU_32.mp4	0.0	312.2386989593506	
70	237.3068869113922	movie	1		301.0	68.0	2.5	/experiments/knapen_aot/videos/R_S_yt-T_qmGKyeKNU_32.mp4	0.0	312.25445890426636	2.508294105529785
70	239.815181016922	fix_post	2		12.0	68.0	2.5	/experiments/knapen_aot/videos/R_S_yt-T_qmGKyeKNU_32.mp4	0.0	314.76275300979614	0.10004591941833496
71	239.91522693634033	fix_pre	0		72.0	69.0	2.5	blank	1.0	314.8627989292145	0.5999910831451416
71	240.50706601142883	response	0	2		69.0	2.5	blank	1.0	315.454638004303	
71	240.51521801948547	movie	1		301.0	69.0	2.5	blank	1.0	315.4627900123596	2.5082709789276123
71	243.0234889984131	fix_post	2		12.0	69.0	2.5	blank	1.0	317.97106099128723	0.10002589225769043
72	243.12351489067078	fix_pre	0		94.0	70.0	2.5	/experiments/knapen_aot/videos/R_S_yt-gikcYT6ZLzA_7.mp4	0.0	318.0710868835449	0.7833430767059326
72	243.89870810508728	response	0	2		70.0	2.5	/experiments/knapen_aot/videos/R_S_yt-gikcYT6ZLzA_7.mp4	0.0	318.8462800979614	
72	243.9068579673767	movie	1		300.0	70.0	2.5	/experiments/knapen_aot/videos/R_S_yt-gikcYT6ZLzA_7.mp4	0.0	318.85442996025085	2.5083000659942627
72	246.41515803337097	fix_post	2		12.0	70.0	2.5	/experiments/knapen_aot/videos/R_S_yt-gikcYT6ZLzA_7.mp4	0.0	321.3627300262451	0.1000669002532959
73	246.51522493362427	fix_pre	0		100.0	71.0	2.5	/experiments/knapen_aot/videos/R_S_yt-Y3pi1bgUwIg_78.mp4	0.0	321.4627969264984	0.8332979679107666
73	247.3403389453888	response	0	2		71.0	2.5	/experiments/knapen_aot/videos/R_S_yt-Y3pi1bgUwIg_78.mp4	0.0	322.28791093826294	
73	247.34852290153503	movie	1		301.0	71.0	2.5	/experiments/knapen_aot/videos/R_S_yt-Y3pi1bgUwIg_78.mp4	0.0	322.2960948944092	2.5082991123199463
73	249.85682201385498	fix_post	2		12.0	71.0	2.5	/experiments/knapen_aot/videos/R_S_yt-Y3pi1bgUwIg_78.mp4	0.0	324.8043940067291	0.09999299049377441
74	249.95681500434875	fix_pre	0		79.0	72.0	2.5	/experiments/knapen_aot/videos/S_2RTDFkjD6vI_93.mp4	0.0	324.9043869972229	0.6583390235900879
74	250.60695695877075	response	0	2		72.0	2.5	/experiments/knapen_aot/videos/S_2RTDFkjD6vI_93.mp4	0.0	325.5545289516449	
74	250.61515402793884	movie	1		301.0	72.0	2.5	/experiments/knapen_aot/videos/S_2RTDFkjD6vI_93.mp4	0.0	325.562726020813	2.5084068775177
74	253.12356090545654	fix_post	2		12.0	72.0	2.5	/experiments/knapen_aot/videos/S_2RTDFkjD6vI_93.mp4	0.0	328.0711328983307	0.0999760627746582
75	253.2235369682312	fix_pre	0		91.0	73.0	2.5	/experiments/knapen_aot/videos/R_S_yt-nqRBIR8dFYc_328.mp4	0.0	328.17110896110535	0.7582149505615234
75	253.97368907928467	response	0	2		73.0	2.5	/experiments/knapen_aot/videos/R_S_yt-nqRBIR8dFYc_328.mp4	0.0	328.9212610721588	
75	253.98175191879272	movie	1		300.0	73.0	2.5	/experiments/knapen_aot/videos/R_S_yt-nqRBIR8dFYc_328.mp4	0.0	328.92932391166687	2.5084331035614014
75	256.4901850223541	fix_post	2		12.0	73.0	2.5	/experiments/knapen_aot/videos/R_S_yt-nqRBIR8dFYc_328.mp4	0.0	331.43775701522827	0.09994697570800781
76	256.59013199806213	fix_pre	0		96.0	74.0	2.5	/experiments/knapen_aot/videos/S_yt-SS7pSyb0_d0_32.mp4	0.0	331.5377039909363	0.7999329566955566
76	257.37444591522217	response	0	2		74.0	2.5	/experiments/knapen_aot/videos/S_yt-SS7pSyb0_d0_32.mp4	0.0	332.3220179080963	
76	257.3900649547577	movie	1		301.0	74.0	2.5	/experiments/knapen_aot/videos/S_yt-SS7pSyb0_d0_32.mp4	0.0	332.33763694763184	2.5084400177001953
76	259.8985049724579	fix_post	2		12.0	74.0	2.5	/experiments/knapen_aot/videos/S_yt-SS7pSyb0_d0_32.mp4	0.0	334.84607696533203	0.10005402565002441
77	259.9985589981079	fix_pre	0		128.0	75.0	2.5	/experiments/knapen_aot/videos/R_S_yt-cvwUZbYSd4Q_35.mp4	0.0	334.94613099098206	1.0665559768676758
77	261.05695390701294	response	0	2		75.0	2.5	/experiments/knapen_aot/videos/R_S_yt-cvwUZbYSd4Q_35.mp4	0.0	336.0045258998871	
77	261.0651149749756	movie	1		301.0	75.0	2.5	/experiments/knapen_aot/videos/R_S_yt-cvwUZbYSd4Q_35.mp4	0.0	336.01268696784973	2.5083820819854736
77	263.57349705696106	fix_post	2		12.0	75.0	2.5	/experiments/knapen_aot/videos/R_S_yt-cvwUZbYSd4Q_35.mp4	0.0	338.5210690498352	0.09990692138671875
78	263.6734039783478	fix_pre	0		100.0	76.0	2.5	/experiments/knapen_aot/videos/S_yt-Xkx53mjgj2E_30.mp4	0.0	338.6209759712219	0.8338091373443604
78	264.4985649585724	response	0	2		76.0	2.5	/experiments/knapen_aot/videos/S_yt-Xkx53mjgj2E_30.mp4	0.0	339.44613695144653	
78	264.50721311569214	movie	1		298.0	76.0	2.5	/experiments/knapen_aot/videos/S_yt-Xkx53mjgj2E_30.mp4	0.0	339.4547851085663	2.507967948913574
78	267.0151810646057	fix_post	2		12.0	76.0	2.5	/experiments/knapen_aot/videos/S_yt-Xkx53mjgj2E_30.mp4	0.0	341.96275305747986	0.09999990463256836
79	267.1151809692383	fix_pre	0		97.0	77.0	2.5	blank	1.0	342.0627529621124	0.8087019920349121
79	267.9153480529785	response	0	2		77.0	2.5	blank	1.0	342.86292004585266	
79	267.9238829612732	movie	1		301.0	77.0	2.5	blank	1.0	342.87145495414734	2.5078799724578857
79	270.4317629337311	fix_post	2		12.0	77.0	2.5	blank	1.0	345.3793349266052	0.10007905960083008
80	270.5318419933319	fix_pre	0		98.0	78.0	2.5	/experiments/knapen_aot/videos/R_S_ILSVRC2015_test_00004002.mp4	0.0	345.47941398620605	0.8165669441223145
80	271.34035205841064	response	0	2		78.0	2.5	/experiments/knapen_aot/videos/R_S_ILSVRC2015_test_00004002.mp4	0.0	346.2879240512848	
80	271.3484089374542	movie	1		301.0	78.0	2.5	/experiments/knapen_aot/videos/R_S_ILSVRC2015_test_00004002.mp4	0.0	346.29598093032837	2.508358955383301
80	273.8567678928375	fix_post	2		12.0	78.0	2.5	/experiments/knapen_aot/videos/R_S_ILSVRC2015_test_00004002.mp4	0.0	348.80433988571167	0.10004210472106934
81	273.9568099975586	fix_pre	0		107.0	79.0	2.5	/experiments/knapen_aot/videos/S_xTlFOCRvy68_1564.mp4	0.0	348.90438199043274	0.8916640281677246
81	274.8402769565582	response	0	2		79.0	2.5	/experiments/knapen_aot/videos/S_xTlFOCRvy68_1564.mp4	0.0	349.7878489494324	
81	274.8484740257263	movie	1		301.0	79.0	2.5	/experiments/knapen_aot/videos/S_xTlFOCRvy68_1564.mp4	0.0	349.79604601860046	2.5083210468292236
81	277.35679507255554	fix_post	2		12.0	79.0	2.5	/experiments/knapen_aot/videos/S_xTlFOCRvy68_1564.mp4	0.0	352.3043670654297	0.10001897811889648
82	277.45681405067444	fix_pre	0		133.0	80.0	2.5	/experiments/knapen_aot/videos/R_S__6qAy77ODUI_175.mp4	0.0	352.4043860435486	1.1082429885864258
82	278.54936504364014	response	0	2		80.0	2.5	/experiments/knapen_aot/videos/R_S__6qAy77ODUI_175.mp4	0.0	353.4969370365143	
82	278.56505703926086	movie	1		301.0	80.0	2.5	/experiments/knapen_aot/videos/R_S__6qAy77ODUI_175.mp4	0.0	353.512629032135	2.5083930492401123
82	281.073450088501	fix_post	2		12.0	80.0	2.5	/experiments/knapen_aot/videos/R_S__6qAy77ODUI_175.mp4	0.0	356.0210220813751	0.09997987747192383
83	281.1734299659729	fix_pre	0		153.0	81.0	2.5	/experiments/knapen_aot/videos/S_yt-s2tZ2NIQrxg_175.mp4	0.0	356.12100195884705	1.2748711109161377
83	282.44016098976135	response	0	2		81.0	2.5	/experiments/knapen_aot/videos/S_yt-s2tZ2NIQrxg_175.mp4	0.0	357.3877329826355	
83	282.44830107688904	movie	1		301.0	81.0	2.5	/experiments/knapen_aot/videos/S_yt-s2tZ2NIQrxg_175.mp4	0.0	357.3958730697632	2.5083799362182617
83	284.9566810131073	fix_post	2		12.0	81.0	2.5	/experiments/knapen_aot/videos/S_yt-s2tZ2NIQrxg_175.mp4	0.0	359.90425300598145	0.10002303123474121
84	285.05670404434204	fix_pre	0		125.0	82.0	2.5	/experiments/knapen_aot/videos/S_yt-4x2eUikn9rw_212.mp4	0.0	360.0042760372162	1.0416450500488281
84	286.0902359485626	response	0	2		82.0	2.5	/experiments/knapen_aot/videos/S_yt-4x2eUikn9rw_212.mp4	0.0	361.03780794143677	
84	286.09834909439087	movie	1		301.0	82.0	2.5	/experiments/knapen_aot/videos/S_yt-4x2eUikn9rw_212.mp4	0.0	361.045921087265	2.5083208084106445
84	288.6066699028015	fix_post	2		12.0	82.0	2.5	/experiments/knapen_aot/videos/S_yt-4x2eUikn9rw_212.mp4	0.0	363.55424189567566	0.10007715225219727
85	288.7067470550537	fix_pre	0		130.0	83.0	2.5	blank	1.0	363.65431904792786	1.083319902420044
85	289.7818100452423	response	0	2		83.0	2.5	blank	1.0	364.72938203811646	
85	289.79006695747375	movie	1		301.0	83.0	2.5	blank	1.0	364.7376389503479	2.5083041191101074
85	292.29837107658386	fix_post	2		12.0	83.0	2.5	blank	1.0	367.245943069458	0.0999610424041748
87	292.39833211898804	stim	0		145.0					367.3459041118622	1.212873935699463
87	293.60302209854126	response	0	space						368.5505940914154	
