trial_nr	onset	event_type	phase	response	nr_frames	movie_index	movie_duration	movie_file	blank	onset_abs	duration
0	0.1594090461730957	stim	0		74.0					131.03447318077087	0.6179401874542236
0	0.7668581008911133	response	0	space						131.6419222354889	
1	0.7773492336273193	stim	0		121.0					131.6524133682251	1.005692958831787
1	1.7830421924591064	stim	1		120.0					132.65810632705688	0.9999840259552002
1	2.724802017211914	response	1	space						133.5998661518097	
2	2.7830262184143066	fix_pre	0		90.0	0.0	2.5	/experiments/knapen_aot/videos/R_S_comp_1223LV_FLARE_v21_SDR_PS_FINAL_20180709_F0F5700_SDR_2K_AVC.mp4	0.0	133.65809035301208	0.7509739398956299
2	3.52475905418396	response	0	space		0.0	2.5	/experiments/knapen_aot/videos/R_S_comp_1223LV_FLARE_v21_SDR_PS_FINAL_20180709_F0F5700_SDR_2K_AVC.mp4	0.0	134.39982318878174	
2	3.5340001583099365	movie	1		165.0	0.0	2.5	/experiments/knapen_aot/videos/R_S_comp_1223LV_FLARE_v21_SDR_PS_FINAL_20180709_F0F5700_SDR_2K_AVC.mp4	0.0	134.40906429290771	2.5072648525238037
2	6.04126501083374	fix_post	2		12.0	0.0	2.5	/experiments/knapen_aot/videos/R_S_comp_1223LV_FLARE_v21_SDR_PS_FINAL_20180709_F0F5700_SDR_2K_AVC.mp4	0.0	136.91632914543152	0.1000831127166748
3	6.141348123550415	fix_pre	0		112.0	1.0	2.5	/experiments/knapen_aot/videos/S_yt-qE70lj3-A78_228.mp4	0.0	137.0164122581482	0.9342648983001709
3	7.06997013092041	response	0	2		1.0	2.5	/experiments/knapen_aot/videos/S_yt-qE70lj3-A78_228.mp4	0.0	137.9450342655182	
3	7.075613021850586	movie	1		297.0	1.0	2.5	/experiments/knapen_aot/videos/S_yt-qE70lj3-A78_228.mp4	0.0	137.95067715644836	2.5074100494384766
3	9.583023071289062	fix_post	2		12.0	1.0	2.5	/experiments/knapen_aot/videos/S_yt-qE70lj3-A78_228.mp4	0.0	140.45808720588684	0.09989500045776367
4	9.682918071746826	fix_pre	0		19.0	2.0	2.5	/experiments/knapen_aot/videos/S_yt-QxNuo4ojvz4_420.mp4	0.0	140.5579822063446	0.1583421230316162
4	9.833123207092285	response	0	2		2.0	2.5	/experiments/knapen_aot/videos/S_yt-QxNuo4ojvz4_420.mp4	0.0	140.70818734169006	
4	9.841260194778442	movie	1		301.0	2.0	2.5	/experiments/knapen_aot/videos/S_yt-QxNuo4ojvz4_420.mp4	0.0	140.71632432937622	2.5084550380706787
4	12.349715232849121	fix_post	2		12.0	2.0	2.5	/experiments/knapen_aot/videos/S_yt-QxNuo4ojvz4_420.mp4	0.0	143.2247793674469	0.09989690780639648
5	12.449612140655518	fix_pre	0		15.0	3.0	2.5	/experiments/knapen_aot/videos/S_wc-b4Oquu3WQPRz_45.mp4	0.0	143.3246762752533	0.12596988677978516
5	12.566411018371582	response	0	2		3.0	2.5	/experiments/knapen_aot/videos/S_wc-b4Oquu3WQPRz_45.mp4	0.0	143.44147515296936	
5	12.575582027435303	movie	1		165.0	3.0	2.5	/experiments/knapen_aot/videos/S_wc-b4Oquu3WQPRz_45.mp4	0.0	143.45064616203308	2.507388114929199
5	15.082970142364502	fix_post	2		12.0	3.0	2.5	/experiments/knapen_aot/videos/S_wc-b4Oquu3WQPRz_45.mp4	0.0	145.95803427696228	0.10009098052978516
6	15.183061122894287	fix_pre	0		25.0	4.0	2.5	/experiments/knapen_aot/videos/S_82eJpVKGnC0_188.mp4	0.0	146.05812525749207	0.2082080841064453
6	15.382983207702637	response	0	2		4.0	2.5	/experiments/knapen_aot/videos/S_82eJpVKGnC0_188.mp4	0.0	146.25804734230042	
6	15.391269207000732	movie	1		301.0	4.0	2.5	/experiments/knapen_aot/videos/S_82eJpVKGnC0_188.mp4	0.0	146.2663333415985	2.5083389282226562
6	17.89960813522339	fix_post	2		12.0	4.0	2.5	/experiments/knapen_aot/videos/S_82eJpVKGnC0_188.mp4	0.0	148.77467226982117	0.10010409355163574
7	17.999712228775024	fix_pre	0		32.0	5.0	2.5	blank	1.0	148.8747763633728	0.26648688316345215
7	18.25799012184143	response	0	2		5.0	2.5	blank	1.0	149.1330542564392	
7	18.266199111938477	movie	1		301.0	5.0	2.5	blank	1.0	149.14126324653625	2.508368968963623
7	20.7745680809021	fix_post	2		12.0	5.0	2.5	blank	1.0	151.64963221549988	0.1000831127166748
8	20.874651193618774	fix_pre	0		22.0	6.0	2.5	/experiments/knapen_aot/videos/R_S_ILSVRC2015_train_00599000.mp4	0.0	151.74971532821655	0.18329596519470215
8	21.049703121185303	response	0	2		6.0	2.5	/experiments/knapen_aot/videos/R_S_ILSVRC2015_train_00599000.mp4	0.0	151.92476725578308	
8	21.057947158813477	movie	1		297.0	6.0	2.5	/experiments/knapen_aot/videos/R_S_ILSVRC2015_train_00599000.mp4	0.0	151.93301129341125	2.5082788467407227
8	23.5662260055542	fix_post	2		12.0	6.0	2.5	/experiments/knapen_aot/videos/R_S_ILSVRC2015_train_00599000.mp4	0.0	154.44129014015198	0.09993219375610352
9	23.666158199310303	fix_pre	0		21.0	7.0	2.5	/experiments/knapen_aot/videos/R_S_yt-Fm97IY0Z2LU_79.mp4	0.0	154.54122233390808	0.17505693435668945
9	23.825507164001465	response	0	2		7.0	2.5	/experiments/knapen_aot/videos/R_S_yt-Fm97IY0Z2LU_79.mp4	0.0	154.70057129859924	
9	23.841215133666992	movie	1		300.0	7.0	2.5	/experiments/knapen_aot/videos/R_S_yt-Fm97IY0Z2LU_79.mp4	0.0	154.71627926826477	2.5083420276641846
9	26.349557161331177	fix_post	2		12.0	7.0	2.5	/experiments/knapen_aot/videos/R_S_yt-Fm97IY0Z2LU_79.mp4	0.0	157.22462129592896	0.10000300407409668
10	26.449560165405273	fix_pre	0		11.0	8.0	2.5	/experiments/knapen_aot/videos/R_S_yt-fq7m668hqZo_39.mp4	0.0	157.32462430000305	0.09162402153015137
10	26.532947063446045	response	0	2		8.0	2.5	/experiments/knapen_aot/videos/R_S_yt-fq7m668hqZo_39.mp4	0.0	157.40801119804382	
10	26.541184186935425	movie	1		301.0	8.0	2.5	/experiments/knapen_aot/videos/R_S_yt-fq7m668hqZo_39.mp4	0.0	157.4162483215332	2.5084500312805176
10	29.049634218215942	fix_post	2		12.0	8.0	2.5	/experiments/knapen_aot/videos/R_S_yt-fq7m668hqZo_39.mp4	0.0	159.92469835281372	0.09992694854736328
11	29.149561166763306	fix_pre	0		15.0	9.0	2.5	/experiments/knapen_aot/videos/S_yt-7bSTxOajpjc_58.mp4	0.0	160.02462530136108	0.12493491172790527
11	29.266366004943848	response	0	2		9.0	2.5	/experiments/knapen_aot/videos/S_yt-7bSTxOajpjc_58.mp4	0.0	160.14143013954163	
11	29.27449607849121	movie	1		301.0	9.0	2.5	/experiments/knapen_aot/videos/S_yt-7bSTxOajpjc_58.mp4	0.0	160.149560213089	2.5083091259002686
11	31.78280520439148	fix_post	2		12.0	9.0	2.5	/experiments/knapen_aot/videos/S_yt-7bSTxOajpjc_58.mp4	0.0	162.65786933898926	0.10003089904785156
12	31.88283610343933	fix_pre	0		16.0	10.0	2.5	/experiments/knapen_aot/videos/R_S_b6-4.mp4	0.0	162.7579002380371	0.1333150863647461
12	32.00798320770264	response	0	2		10.0	2.5	/experiments/knapen_aot/videos/R_S_b6-4.mp4	0.0	162.88304734230042	
12	32.01615118980408	movie	1		167.0	10.0	2.5	/experiments/knapen_aot/videos/R_S_b6-4.mp4	0.0	162.89121532440186	2.508366823196411
12	34.52451801300049	fix_post	2		12.0	10.0	2.5	/experiments/knapen_aot/videos/R_S_b6-4.mp4	0.0	165.39958214759827	0.09996509552001953
13	34.62448310852051	fix_pre	0		1.0	11.0	2.5	/experiments/knapen_aot/videos/S_ILSVRC2015_train_00371012.mp4	0.0	165.4995472431183	0.00834798812866211
13	34.6261100769043	response	0	2		11.0	2.5	/experiments/knapen_aot/videos/S_ILSVRC2015_train_00371012.mp4	0.0	165.50117421150208	
13	34.63283109664917	movie	1		301.0	11.0	2.5	/experiments/knapen_aot/videos/S_ILSVRC2015_train_00371012.mp4	0.0	165.50789523124695	2.5082809925079346
13	37.141112089157104	fix_post	2		12.0	11.0	2.5	/experiments/knapen_aot/videos/S_ILSVRC2015_train_00371012.mp4	0.0	168.01617622375488	0.09998106956481934
14	37.241093158721924	fix_pre	0		23.0	12.0	2.5	blank	1.0	168.1161572933197	0.19172096252441406
14	37.42462921142578	response	0	2		12.0	2.5	blank	1.0	168.29969334602356	
14	37.43281412124634	movie	1		301.0	12.0	2.5	blank	1.0	168.30787825584412	2.5082919597625732
14	39.94110608100891	fix_post	2		12.0	12.0	2.5	blank	1.0	170.8161702156067	0.100006103515625
15	40.041112184524536	fix_pre	0		53.0	13.0	2.5	/experiments/knapen_aot/videos/R_S_yt-3ohvpS42xug_184.mp4	0.0	170.91617631912231	0.4417099952697754
15	40.474587202072144	response	0	2		13.0	2.5	/experiments/knapen_aot/videos/R_S_yt-3ohvpS42xug_184.mp4	0.0	171.34965133666992	
15	40.48282217979431	movie	1		301.0	13.0	2.5	/experiments/knapen_aot/videos/R_S_yt-3ohvpS42xug_184.mp4	0.0	171.3578863143921	2.50826096534729
15	42.9910831451416	fix_post	2		12.0	13.0	2.5	/experiments/knapen_aot/videos/R_S_yt-3ohvpS42xug_184.mp4	0.0	173.86614727973938	0.10004496574401855
16	43.09112811088562	fix_pre	0		4.0	14.0	2.5	/experiments/knapen_aot/videos/R_S_yt-6aqg1P9YqR8_38.mp4	0.0	173.9661922454834	0.03338193893432617
16	43.11633110046387	response	0	2		14.0	2.5	/experiments/knapen_aot/videos/R_S_yt-6aqg1P9YqR8_38.mp4	0.0	173.99139523506165	
16	43.124510049819946	movie	1		300.0	14.0	2.5	/experiments/knapen_aot/videos/R_S_yt-6aqg1P9YqR8_38.mp4	0.0	173.99957418441772	2.5081980228424072
16	45.63270807266235	fix_post	2		12.0	14.0	2.5	/experiments/knapen_aot/videos/R_S_yt-6aqg1P9YqR8_38.mp4	0.0	176.50777220726013	0.10006999969482422
17	45.73277807235718	fix_pre	0		11.0	15.0	2.5	/experiments/knapen_aot/videos/S_yt-nMWqezngycw_10.mp4	0.0	176.60784220695496	0.09240913391113281
17	45.81621503829956	response	0	2		15.0	2.5	/experiments/knapen_aot/videos/S_yt-nMWqezngycw_10.mp4	0.0	176.69127917289734	
17	45.82518720626831	movie	1		301.0	15.0	2.5	/experiments/knapen_aot/videos/S_yt-nMWqezngycw_10.mp4	0.0	176.7002513408661	2.5075290203094482
17	48.33271622657776	fix_post	2		12.0	15.0	2.5	/experiments/knapen_aot/videos/S_yt-nMWqezngycw_10.mp4	0.0	179.20778036117554	0.0999908447265625
17	48.408865213394165	response	2	2		15.0	2.5	/experiments/knapen_aot/videos/S_yt-nMWqezngycw_10.mp4	0.0	179.28392934799194	
18	48.43270707130432	fix_pre	0		46.0	16.0	2.5	/experiments/knapen_aot/videos/S_yt-JTBXPfbkjsA_11.mp4	0.0	179.3077712059021	0.3833651542663574
18	48.80779218673706	response	0	2		16.0	2.5	/experiments/knapen_aot/videos/S_yt-JTBXPfbkjsA_11.mp4	0.0	179.68285632133484	
18	48.81607222557068	movie	1		299.0	16.0	2.5	/experiments/knapen_aot/videos/S_yt-JTBXPfbkjsA_11.mp4	0.0	179.69113636016846	2.5082688331604004
18	51.32434105873108	fix_post	2		12.0	16.0	2.5	/experiments/knapen_aot/videos/S_yt-JTBXPfbkjsA_11.mp4	0.0	182.19940519332886	0.10001397132873535
19	51.424355030059814	fix_pre	0		14.0	17.0	2.5	/experiments/knapen_aot/videos/R_S_yt-OdTWn1U1mO4_68.mp4	0.0	182.2994191646576	0.11671710014343262
19	51.53277111053467	response	0	2		17.0	2.5	/experiments/knapen_aot/videos/R_S_yt-OdTWn1U1mO4_68.mp4	0.0	182.40783524513245	
19	51.54107213020325	movie	1		301.0	17.0	2.5	/experiments/knapen_aot/videos/R_S_yt-OdTWn1U1mO4_68.mp4	0.0	182.41613626480103	2.50827693939209
19	54.04934906959534	fix_post	2		12.0	17.0	2.5	/experiments/knapen_aot/videos/R_S_yt-OdTWn1U1mO4_68.mp4	0.0	184.92441320419312	0.09999799728393555
20	54.14934706687927	fix_pre	0		16.0	18.0	2.5	/experiments/knapen_aot/videos/S_yt-CNq5mTA8oXY_176.mp4	0.0	185.02441120147705	0.13407111167907715
20	54.274484157562256	response	0	2		18.0	2.5	/experiments/knapen_aot/videos/S_yt-CNq5mTA8oXY_176.mp4	0.0	185.14954829216003	
20	54.28341817855835	movie	1		301.0	18.0	2.5	/experiments/knapen_aot/videos/S_yt-CNq5mTA8oXY_176.mp4	0.0	185.15848231315613	2.5076329708099365
20	56.791051149368286	fix_post	2		12.0	18.0	2.5	/experiments/knapen_aot/videos/S_yt-CNq5mTA8oXY_176.mp4	0.0	187.66611528396606	0.09999895095825195
21	56.89105010032654	fix_pre	0		23.0	19.0	2.5	/experiments/knapen_aot/videos/S_yt-b0IfGcoHfD0_83.mp4	0.0	187.76611423492432	0.19159412384033203
21	57.06684422492981	response	0	2		19.0	2.5	/experiments/knapen_aot/videos/S_yt-b0IfGcoHfD0_83.mp4	0.0	187.9419083595276	
21	57.08264422416687	movie	1		301.0	19.0	2.5	/experiments/knapen_aot/videos/S_yt-b0IfGcoHfD0_83.mp4	0.0	187.95770835876465	2.5083699226379395
21	59.59101414680481	fix_post	2		12.0	19.0	2.5	/experiments/knapen_aot/videos/S_yt-b0IfGcoHfD0_83.mp4	0.0	190.4660782814026	0.09995889663696289
22	59.69097304344177	fix_pre	0		35.0	20.0	2.5	blank	1.0	190.56603717803955	0.2916710376739502
22	59.974568128585815	response	0	2		20.0	2.5	blank	1.0	190.8496322631836	
22	59.98264408111572	movie	1		301.0	20.0	2.5	blank	1.0	190.8577082157135	2.5083961486816406
22	62.49104022979736	fix_post	2		12.0	20.0	2.5	blank	1.0	193.36610436439514	0.09997391700744629
23	62.59101414680481	fix_pre	0		65.0	21.0	2.5	/experiments/knapen_aot/videos/S_yt-bhiGMKSAz2g_370.mp4	0.0	193.4660782814026	0.5416159629821777
23	63.12463712692261	response	0	2		21.0	2.5	/experiments/knapen_aot/videos/S_yt-bhiGMKSAz2g_370.mp4	0.0	193.99970126152039	
23	63.13263010978699	movie	1		300.0	21.0	2.5	/experiments/knapen_aot/videos/S_yt-bhiGMKSAz2g_370.mp4	0.0	194.00769424438477	2.508397102355957
23	65.64102721214294	fix_post	2		12.0	21.0	2.5	/experiments/knapen_aot/videos/S_yt-bhiGMKSAz2g_370.mp4	0.0	196.51609134674072	0.10004901885986328
24	65.74107623100281	fix_pre	0		10.0	22.0	2.5	/experiments/knapen_aot/videos/S_pexels-rodnae-productions-5993237.mp4	0.0	196.6161403656006	0.08393096923828125
24	65.81614303588867	response	0	2		22.0	2.5	/experiments/knapen_aot/videos/S_pexels-rodnae-productions-5993237.mp4	0.0	196.69120717048645	
24	65.82500720024109	movie	1		164.0	22.0	2.5	/experiments/knapen_aot/videos/S_pexels-rodnae-productions-5993237.mp4	0.0	196.70007133483887	2.5075368881225586
24	68.33254408836365	fix_post	2		12.0	22.0	2.5	/experiments/knapen_aot/videos/S_pexels-rodnae-productions-5993237.mp4	0.0	199.20760822296143	0.10008502006530762
25	68.43262910842896	fix_pre	0		15.0	23.0	2.5	/experiments/knapen_aot/videos/R_S_yt-kawmL3oVw8c_2.mp4	0.0	199.30769324302673	0.12497591972351074
25	68.54949808120728	response	0	2		23.0	2.5	/experiments/knapen_aot/videos/R_S_yt-kawmL3oVw8c_2.mp4	0.0	199.42456221580505	
25	68.55760502815247	movie	1		301.0	23.0	2.5	/experiments/knapen_aot/videos/R_S_yt-kawmL3oVw8c_2.mp4	0.0	199.43266916275024	2.5084290504455566
25	71.06603407859802	fix_post	2		12.0	23.0	2.5	/experiments/knapen_aot/videos/R_S_yt-kawmL3oVw8c_2.mp4	0.0	201.9410982131958	0.09997200965881348
26	71.16600608825684	fix_pre	0		8.0	24.0	2.5	/experiments/knapen_aot/videos/R_S_yt-mDil5vGZb14_4049.mp4	0.0	202.04107022285461	0.06663799285888672
26	71.22444701194763	response	0	2		24.0	2.5	/experiments/knapen_aot/videos/R_S_yt-mDil5vGZb14_4049.mp4	0.0	202.0995111465454	
26	71.23264408111572	movie	1		301.0	24.0	2.5	/experiments/knapen_aot/videos/R_S_yt-mDil5vGZb14_4049.mp4	0.0	202.1077082157135	2.508371114730835
26	73.74101519584656	fix_post	2		12.0	24.0	2.5	/experiments/knapen_aot/videos/R_S_yt-mDil5vGZb14_4049.mp4	0.0	204.61607933044434	0.0999288558959961
27	73.84094405174255	fix_pre	0		36.0	25.0	2.5	/experiments/knapen_aot/videos/S_yt-Ek1jcvett9E_33.mp4	0.0	204.71600818634033	0.2999141216278076
27	74.13278102874756	response	0	2		25.0	2.5	/experiments/knapen_aot/videos/S_yt-Ek1jcvett9E_33.mp4	0.0	205.00784516334534	
27	74.14085817337036	movie	1		301.0	25.0	2.5	/experiments/knapen_aot/videos/S_yt-Ek1jcvett9E_33.mp4	0.0	205.01592230796814	2.508357048034668
27	76.64921522140503	fix_post	2		12.0	25.0	2.5	/experiments/knapen_aot/videos/S_yt-Ek1jcvett9E_33.mp4	0.0	207.5242793560028	0.10006499290466309
28	76.74928021430969	fix_pre	0		18.0	26.0	2.5	/experiments/knapen_aot/videos/S_ILSVRC2015_train_00067005.mp4	0.0	207.62434434890747	0.14998888969421387
28	76.89106106758118	response	0	2		26.0	2.5	/experiments/knapen_aot/videos/S_ILSVRC2015_train_00067005.mp4	0.0	207.76612520217896	
28	76.8992691040039	movie	1		301.0	26.0	2.5	/experiments/knapen_aot/videos/S_ILSVRC2015_train_00067005.mp4	0.0	207.77433323860168	2.508331060409546
28	79.40760016441345	fix_post	2		12.0	26.0	2.5	/experiments/knapen_aot/videos/S_ILSVRC2015_train_00067005.mp4	0.0	210.28266429901123	0.09997391700744629
29	79.5075740814209	fix_pre	0		15.0	27.0	2.5	blank	1.0	210.38263821601868	0.12502408027648926
29	79.61675715446472	response	0	2		27.0	2.5	blank	1.0	210.4918212890625	
29	79.63259816169739	movie	1		301.0	27.0	2.5	blank	1.0	210.50766229629517	2.5082719326019287
29	82.14087009429932	fix_post	2		12.0	27.0	2.5	blank	1.0	213.0159342288971	0.09998703002929688
30	82.24085712432861	fix_pre	0		49.0	28.0	2.5	/experiments/knapen_aot/videos/S_comp_N003_C006_PS_v01_SDR_PS_20180925_SDR_2K_AVC.mp4	0.0	213.1159212589264	0.40833497047424316
30	82.64094805717468	response	0	2		28.0	2.5	/experiments/knapen_aot/videos/S_comp_N003_C006_PS_v01_SDR_PS_20180925_SDR_2K_AVC.mp4	0.0	213.51601219177246	
30	82.64919209480286	movie	1		171.0	28.0	2.5	/experiments/knapen_aot/videos/S_comp_N003_C006_PS_v01_SDR_PS_20180925_SDR_2K_AVC.mp4	0.0	213.52425622940063	2.508389949798584
30	85.15758204460144	fix_post	2		12.0	28.0	2.5	/experiments/knapen_aot/videos/S_comp_N003_C006_PS_v01_SDR_PS_20180925_SDR_2K_AVC.mp4	0.0	216.03264617919922	0.0999910831451416
31	85.25757312774658	fix_pre	0		29.0	29.0	2.5	/experiments/knapen_aot/videos/S_yt-oVrkSsEpuvk_118.mp4	0.0	216.13263726234436	0.24154996871948242
31	85.49101519584656	response	0	2		29.0	2.5	/experiments/knapen_aot/videos/S_yt-oVrkSsEpuvk_118.mp4	0.0	216.36607933044434	
31	85.49912309646606	movie	1		301.0	29.0	2.5	/experiments/knapen_aot/videos/S_yt-oVrkSsEpuvk_118.mp4	0.0	216.37418723106384	2.508368968963623
31	88.00749206542969	fix_post	2		12.0	29.0	2.5	/experiments/knapen_aot/videos/S_yt-oVrkSsEpuvk_118.mp4	0.0	218.88255620002747	0.1000521183013916
32	88.10754418373108	fix_pre	0		10.0	30.0	2.5	/experiments/knapen_aot/videos/R_S_yt-c6kLumgTX54_7.mp4	0.0	218.98260831832886	0.08331799507141113
32	88.1827142238617	response	0	2		30.0	2.5	/experiments/knapen_aot/videos/R_S_yt-c6kLumgTX54_7.mp4	0.0	219.05777835845947	
32	88.19086217880249	movie	1		301.0	30.0	2.5	/experiments/knapen_aot/videos/R_S_yt-c6kLumgTX54_7.mp4	0.0	219.06592631340027	2.5083508491516113
32	90.6992130279541	fix_post	2		12.0	30.0	2.5	/experiments/knapen_aot/videos/R_S_yt-c6kLumgTX54_7.mp4	0.0	221.57427716255188	0.10001707077026367
33	90.79923009872437	fix_pre	0		11.0	31.0	2.5	/experiments/knapen_aot/videos/R_S_yt-Fm97IY0Z2LU_79.mp4	0.0	221.67429423332214	0.0915989875793457
33	90.88264918327332	response	0	2		31.0	2.5	/experiments/knapen_aot/videos/R_S_yt-Fm97IY0Z2LU_79.mp4	0.0	221.7577133178711	
33	90.89082908630371	movie	1		301.0	31.0	2.5	/experiments/knapen_aot/videos/R_S_yt-Fm97IY0Z2LU_79.mp4	0.0	221.7658932209015	2.508327007293701
33	93.39915609359741	fix_post	2		12.0	31.0	2.5	/experiments/knapen_aot/videos/R_S_yt-Fm97IY0Z2LU_79.mp4	0.0	224.2742202281952	0.09998703002929688
34	93.49914312362671	fix_pre	0		23.0	32.0	2.5	/experiments/knapen_aot/videos/R_S_pexels-tima-miroshnichenko-5717005.mp4	0.0	224.3742072582245	0.19170594215393066
34	93.68264818191528	response	0	2		32.0	2.5	/experiments/knapen_aot/videos/R_S_pexels-tima-miroshnichenko-5717005.mp4	0.0	224.55771231651306	
34	93.69084906578064	movie	1		166.0	32.0	2.5	/experiments/knapen_aot/videos/R_S_pexels-tima-miroshnichenko-5717005.mp4	0.0	224.56591320037842	2.5082759857177734
34	96.19912505149841	fix_post	2		12.0	32.0	2.5	/experiments/knapen_aot/videos/R_S_pexels-tima-miroshnichenko-5717005.mp4	0.0	227.0741891860962	0.09999394416809082
35	96.2991189956665	fix_pre	0		9.0	33.0	2.5	/experiments/knapen_aot/videos/R_S_yt-3V8US8ZD3NU_229.mp4	0.0	227.17418313026428	0.07503819465637207
35	96.3659131526947	response	0	2		33.0	2.5	/experiments/knapen_aot/videos/R_S_yt-3V8US8ZD3NU_229.mp4	0.0	227.24097728729248	
35	96.37415719032288	movie	1		301.0	33.0	2.5	/experiments/knapen_aot/videos/R_S_yt-3V8US8ZD3NU_229.mp4	0.0	227.24922132492065	2.5083630084991455
35	98.88252019882202	fix_post	2		12.0	33.0	2.5	/experiments/knapen_aot/videos/R_S_yt-3V8US8ZD3NU_229.mp4	0.0	229.7575843334198	0.09999680519104004
36	98.98251700401306	fix_pre	0		7.0	34.0	2.5	blank	1.0	229.85758113861084	0.05832314491271973
36	99.03324723243713	response	0	2		34.0	2.5	blank	1.0	229.9083113670349	
36	99.04084014892578	movie	1		301.0	34.0	2.5	blank	1.0	229.91590428352356	2.5082640647888184
36	101.5491042137146	fix_post	2		12.0	34.0	2.5	blank	1.0	232.42416834831238	0.10000300407409668
37	101.6491072177887	fix_pre	0		33.0	35.0	2.5	/experiments/knapen_aot/videos/S_yt-r7brAHgxZSU_248.mp4	0.0	232.52417135238647	0.27498483657836914
37	101.91589403152466	response	0	2		35.0	2.5	/experiments/knapen_aot/videos/S_yt-r7brAHgxZSU_248.mp4	0.0	232.79095816612244	
37	101.92409205436707	movie	1		301.0	35.0	2.5	/experiments/knapen_aot/videos/S_yt-r7brAHgxZSU_248.mp4	0.0	232.79915618896484	2.50832200050354
37	104.4324140548706	fix_post	2		12.0	35.0	2.5	/experiments/knapen_aot/videos/S_yt-r7brAHgxZSU_248.mp4	0.0	235.30747818946838	0.10011911392211914
38	104.53253316879272	fix_pre	0		9.0	36.0	2.5	/experiments/knapen_aot/videos/S_yt-uY5xsUKn8zU_17.mp4	0.0	235.4075973033905	0.07493996620178223
38	104.59923601150513	response	0	2		36.0	2.5	/experiments/knapen_aot/videos/S_yt-uY5xsUKn8zU_17.mp4	0.0	235.4743001461029	
38	104.6074731349945	movie	1		301.0	36.0	2.5	/experiments/knapen_aot/videos/S_yt-uY5xsUKn8zU_17.mp4	0.0	235.48253726959229	2.5082828998565674
38	107.11575603485107	fix_post	2		12.0	36.0	2.5	/experiments/knapen_aot/videos/S_yt-uY5xsUKn8zU_17.mp4	0.0	237.99082016944885	0.1000051498413086
39	107.21576118469238	fix_pre	0		3.0	37.0	2.5	/experiments/knapen_aot/videos/S_ILSVRC2015_train_00364000.mp4	0.0	238.09082531929016	0.025676965713500977
39	107.23260307312012	response	0	2		37.0	2.5	/experiments/knapen_aot/videos/S_ILSVRC2015_train_00364000.mp4	0.0	238.1076672077179	
39	107.24143815040588	movie	1		300.0	37.0	2.5	/experiments/knapen_aot/videos/S_ILSVRC2015_train_00364000.mp4	0.0	238.11650228500366	2.5076210498809814
39	109.74905920028687	fix_post	2		12.0	37.0	2.5	/experiments/knapen_aot/videos/S_ILSVRC2015_train_00364000.mp4	0.0	240.62412333488464	0.10001683235168457
40	109.84907603263855	fix_pre	0		12.0	38.0	2.5	/experiments/knapen_aot/videos/R_S_yt-FsXOl6JjzSY_15.mp4	0.0	240.72414016723633	0.10048913955688477
40	109.94109320640564	response	0	2		38.0	2.5	/experiments/knapen_aot/videos/R_S_yt-FsXOl6JjzSY_15.mp4	0.0	240.81615734100342	
40	109.94956517219543	movie	1		299.0	38.0	2.5	/experiments/knapen_aot/videos/R_S_yt-FsXOl6JjzSY_15.mp4	0.0	240.8246293067932	2.507765054702759
40	112.4573302268982	fix_post	2		12.0	38.0	2.5	/experiments/knapen_aot/videos/R_S_yt-FsXOl6JjzSY_15.mp4	0.0	243.33239436149597	0.10009098052978516
41	112.55742120742798	fix_pre	0		21.0	39.0	2.5	/experiments/knapen_aot/videos/R_S_yt-gaXgXGEanCk_140.mp4	0.0	243.43248534202576	0.17491793632507324
41	112.72421717643738	response	0	2		39.0	2.5	/experiments/knapen_aot/videos/R_S_yt-gaXgXGEanCk_140.mp4	0.0	243.59928131103516	
41	112.73233914375305	movie	1		301.0	39.0	2.5	/experiments/knapen_aot/videos/R_S_yt-gaXgXGEanCk_140.mp4	0.0	243.60740327835083	2.5083110332489014
41	115.24065017700195	fix_post	2		12.0	39.0	2.5	/experiments/knapen_aot/videos/R_S_yt-gaXgXGEanCk_140.mp4	0.0	246.11571431159973	0.10008597373962402
41	115.29924321174622	response	2	2		39.0	2.5	/experiments/knapen_aot/videos/R_S_yt-gaXgXGEanCk_140.mp4	0.0	246.174307346344	
42	115.34073615074158	fix_pre	0		53.0	40.0	2.5	/experiments/knapen_aot/videos/R_S_yt-hZxbKZ1WCVg_24.mp4	0.0	246.21580028533936	0.4420609474182129
42	115.7741310596466	response	0	2		40.0	2.5	/experiments/knapen_aot/videos/R_S_yt-hZxbKZ1WCVg_24.mp4	0.0	246.64919519424438	
42	115.78279709815979	movie	1		301.0	40.0	2.5	/experiments/knapen_aot/videos/R_S_yt-hZxbKZ1WCVg_24.mp4	0.0	246.65786123275757	2.507952928543091
42	118.29075002670288	fix_post	2		12.0	40.0	2.5	/experiments/knapen_aot/videos/R_S_yt-hZxbKZ1WCVg_24.mp4	0.0	249.16581416130066	0.09990811347961426
43	118.3906581401825	fix_pre	0		8.0	41.0	2.5	blank	1.0	249.26572227478027	0.06668305397033691
43	118.4492461681366	response	0	2		41.0	2.5	blank	1.0	249.32431030273438	
43	118.45734119415283	movie	1		301.0	41.0	2.5	blank	1.0	249.3324053287506	2.508373975753784
43	120.96571516990662	fix_post	2		12.0	41.0	2.5	blank	1.0	251.8407793045044	0.0999610424041748
44	121.06567621231079	fix_pre	0		31.0	42.0	2.5	/experiments/knapen_aot/videos/R_S_yt-tqxZlasEvZA_43.mp4	0.0	251.94074034690857	0.25876593589782715
44	121.31576204299927	response	0	2		42.0	2.5	/experiments/knapen_aot/videos/R_S_yt-tqxZlasEvZA_43.mp4	0.0	252.19082617759705	
44	121.32444214820862	movie	1		301.0	42.0	2.5	/experiments/knapen_aot/videos/R_S_yt-tqxZlasEvZA_43.mp4	0.0	252.1995062828064	2.5079569816589355
44	123.83239912986755	fix_post	2		12.0	42.0	2.5	/experiments/knapen_aot/videos/R_S_yt-tqxZlasEvZA_43.mp4	0.0	254.70746326446533	0.09997892379760742
45	123.93237805366516	fix_pre	0		4.0	43.0	2.5	/experiments/knapen_aot/videos/R_S_wc-TAGpcap1KdAS_212.mp4	0.0	254.80744218826294	0.033332109451293945
45	123.95755004882812	response	0	2		43.0	2.5	/experiments/knapen_aot/videos/R_S_wc-TAGpcap1KdAS_212.mp4	0.0	254.8326141834259	
45	123.96571016311646	movie	1		301.0	43.0	2.5	/experiments/knapen_aot/videos/R_S_wc-TAGpcap1KdAS_212.mp4	0.0	254.84077429771423	2.5083179473876953
45	126.47402811050415	fix_post	2		12.0	43.0	2.5	/experiments/knapen_aot/videos/R_S_wc-TAGpcap1KdAS_212.mp4	0.0	257.34909224510193	0.10039401054382324
46	126.57442212104797	fix_pre	0		14.0	44.0	2.5	/experiments/knapen_aot/videos/R_S_yt-VJ65ukWmdxQ_193.mp4	0.0	257.44948625564575	0.11626195907592773
46	126.68249607086182	response	0	2		44.0	2.5	/experiments/knapen_aot/videos/R_S_yt-VJ65ukWmdxQ_193.mp4	0.0	257.5575602054596	
46	126.6906840801239	movie	1		301.0	44.0	2.5	/experiments/knapen_aot/videos/R_S_yt-VJ65ukWmdxQ_193.mp4	0.0	257.5657482147217	2.5083279609680176
46	129.19901204109192	fix_post	2		12.0	44.0	2.5	/experiments/knapen_aot/videos/R_S_yt-VJ65ukWmdxQ_193.mp4	0.0	260.0740761756897	0.10001015663146973
47	129.2990221977234	fix_pre	0		10.0	45.0	2.5	/experiments/knapen_aot/videos/R_S_comp_DB_D011_D009_SIGNCMP_v15_6Mbps.mp4	0.0	260.17408633232117	0.08331584930419922
47	129.37418222427368	response	0	2		45.0	2.5	/experiments/knapen_aot/videos/R_S_comp_DB_D011_D009_SIGNCMP_v15_6Mbps.mp4	0.0	260.24924635887146	
47	129.3823380470276	movie	1		169.0	45.0	2.5	/experiments/knapen_aot/videos/R_S_comp_DB_D011_D009_SIGNCMP_v15_6Mbps.mp4	0.0	260.25740218162537	2.5082321166992188
47	131.8905701637268	fix_post	2		12.0	45.0	2.5	/experiments/knapen_aot/videos/R_S_comp_DB_D011_D009_SIGNCMP_v15_6Mbps.mp4	0.0	262.7656342983246	0.10047483444213867
48	131.99104499816895	fix_pre	0		11.0	46.0	2.5	/experiments/knapen_aot/videos/R_S_I004_C014_SDR_2K_AVC.mp4	0.0	262.8661091327667	0.09130215644836426
48	132.07482409477234	response	0	2		46.0	2.5	/experiments/knapen_aot/videos/R_S_I004_C014_SDR_2K_AVC.mp4	0.0	262.9498882293701	
48	132.0823471546173	movie	1		173.0	46.0	2.5	/experiments/knapen_aot/videos/R_S_I004_C014_SDR_2K_AVC.mp4	0.0	262.9574112892151	2.508333921432495
48	134.5906810760498	fix_post	2		12.0	46.0	2.5	/experiments/knapen_aot/videos/R_S_I004_C014_SDR_2K_AVC.mp4	0.0	265.4657452106476	0.10000109672546387
49	134.69068217277527	fix_pre	0		8.0	47.0	2.5	blank	1.0	265.56574630737305	0.06666898727416992
49	134.74915504455566	response	0	2		47.0	2.5	blank	1.0	265.62421917915344	
49	134.75735116004944	movie	1		301.0	47.0	2.5	blank	1.0	265.6324152946472	2.5083470344543457
49	137.26569819450378	fix_post	2		12.0	47.0	2.5	blank	1.0	268.14076232910156	0.10033392906188965
50	137.36603212356567	fix_pre	0		20.0	48.0	2.5	/experiments/knapen_aot/videos/S_yt-Pc1ZlCvsPpc_5.mp4	0.0	268.24109625816345	0.16658687591552734
50	137.52411603927612	response	0	2		48.0	2.5	/experiments/knapen_aot/videos/S_yt-Pc1ZlCvsPpc_5.mp4	0.0	268.3991801738739	
50	137.5326189994812	movie	1		301.0	48.0	2.5	/experiments/knapen_aot/videos/S_yt-Pc1ZlCvsPpc_5.mp4	0.0	268.407683134079	2.508012056350708
50	140.0406310558319	fix_post	2		12.0	48.0	2.5	/experiments/knapen_aot/videos/S_yt-Pc1ZlCvsPpc_5.mp4	0.0	270.9156951904297	0.10001111030578613
51	140.1406421661377	fix_pre	0		8.0	49.0	2.5	/experiments/knapen_aot/videos/S_wc-TAGpcap1KdAS_212.mp4	0.0	271.0157063007355	0.06662392616271973
51	140.19171118736267	response	0	2		49.0	2.5	/experiments/knapen_aot/videos/S_wc-TAGpcap1KdAS_212.mp4	0.0	271.06677532196045	
51	140.20726609230042	movie	1		301.0	49.0	2.5	/experiments/knapen_aot/videos/S_wc-TAGpcap1KdAS_212.mp4	0.0	271.0823302268982	2.5083699226379395
51	142.71563601493835	fix_post	2		12.0	49.0	2.5	/experiments/knapen_aot/videos/S_wc-TAGpcap1KdAS_212.mp4	0.0	273.59070014953613	0.10000109672546387
52	142.81563711166382	fix_pre	0		8.0	50.0	2.5	/experiments/knapen_aot/videos/S_ILSVRC2015_test_00012005.mp4	0.0	273.6907012462616	0.06655001640319824
52	142.87400102615356	response	0	2		50.0	2.5	/experiments/knapen_aot/videos/S_ILSVRC2015_test_00012005.mp4	0.0	273.74906516075134	
52	142.88218712806702	movie	1		301.0	50.0	2.5	/experiments/knapen_aot/videos/S_ILSVRC2015_test_00012005.mp4	0.0	273.7572512626648	2.5083658695220947
52	145.3905529975891	fix_post	2		12.0	50.0	2.5	/experiments/knapen_aot/videos/S_ILSVRC2015_test_00012005.mp4	0.0	276.2656171321869	0.10004115104675293
53	145.49059414863586	fix_pre	0		15.0	51.0	2.5	/experiments/knapen_aot/videos/R_S_yt-_6j2NXrB-zE_28.mp4	0.0	276.36565828323364	0.1252589225769043
53	145.6073980331421	response	0	2		51.0	2.5	/experiments/knapen_aot/videos/R_S_yt-_6j2NXrB-zE_28.mp4	0.0	276.48246216773987	
53	145.61585307121277	movie	1		300.0	51.0	2.5	/experiments/knapen_aot/videos/R_S_yt-_6j2NXrB-zE_28.mp4	0.0	276.49091720581055	2.5080931186676025
53	148.12394618988037	fix_post	2		12.0	51.0	2.5	/experiments/knapen_aot/videos/R_S_yt-_6j2NXrB-zE_28.mp4	0.0	278.99901032447815	0.10012602806091309
54	148.22407221794128	fix_pre	0		124.0	52.0	2.5	/experiments/knapen_aot/videos/S_g201_TH_803_A001_8_SDR_20191031_SDR_2K_AVC.mp4	0.0	279.09913635253906	1.0331528186798096
54	149.24157118797302	response	0	2		52.0	2.5	/experiments/knapen_aot/videos/S_g201_TH_803_A001_8_SDR_20191031_SDR_2K_AVC.mp4	0.0	280.1166353225708	
54	149.2572250366211	movie	1		164.0	52.0	2.5	/experiments/knapen_aot/videos/S_g201_TH_803_A001_8_SDR_20191031_SDR_2K_AVC.mp4	0.0	280.1322891712189	2.5083751678466797
54	151.76560020446777	fix_post	2		12.0	52.0	2.5	/experiments/knapen_aot/videos/S_g201_TH_803_A001_8_SDR_20191031_SDR_2K_AVC.mp4	0.0	282.64066433906555	0.10019302368164062
55	151.8657932281494	fix_pre	0		8.0	53.0	2.5	/experiments/knapen_aot/videos/S_yt-R6a0Jzo_u1Y_254.mp4	0.0	282.7408573627472	0.06643486022949219
55	151.91658115386963	response	0	2		53.0	2.5	/experiments/knapen_aot/videos/S_yt-R6a0Jzo_u1Y_254.mp4	0.0	282.7916452884674	
55	151.9322280883789	movie	1		301.0	53.0	2.5	/experiments/knapen_aot/videos/S_yt-R6a0Jzo_u1Y_254.mp4	0.0	282.8072922229767	2.5083630084991455
55	154.44059109687805	fix_post	2		12.0	53.0	2.5	/experiments/knapen_aot/videos/S_yt-R6a0Jzo_u1Y_254.mp4	0.0	285.31565523147583	0.09998798370361328
56	154.54057908058167	fix_pre	0		5.0	54.0	2.5	/experiments/knapen_aot/videos/R_S_yt-zgimmOcW5Mc_127.mp4	0.0	285.41564321517944	0.04163408279418945
56	154.57403016090393	response	0	2		54.0	2.5	/experiments/knapen_aot/videos/R_S_yt-zgimmOcW5Mc_127.mp4	0.0	285.4490942955017	
56	154.58221316337585	movie	1		301.0	54.0	2.5	/experiments/knapen_aot/videos/R_S_yt-zgimmOcW5Mc_127.mp4	0.0	285.45727729797363	2.5083279609680176
56	157.09054112434387	fix_post	2		12.0	54.0	2.5	/experiments/knapen_aot/videos/R_S_yt-zgimmOcW5Mc_127.mp4	0.0	287.96560525894165	0.100006103515625
57	157.1905472278595	fix_pre	0		7.0	55.0	2.5	/experiments/knapen_aot/videos/R_S_yt-GI8BEHw2Lq8_3.mp4	0.0	288.0656113624573	0.05836081504821777
57	157.24111008644104	response	0	2		55.0	2.5	/experiments/knapen_aot/videos/R_S_yt-GI8BEHw2Lq8_3.mp4	0.0	288.1161742210388	
57	157.24890804290771	movie	1		301.0	55.0	2.5	/experiments/knapen_aot/videos/R_S_yt-GI8BEHw2Lq8_3.mp4	0.0	288.1239721775055	2.508286952972412
57	159.75719499588013	fix_post	2		12.0	55.0	2.5	/experiments/knapen_aot/videos/R_S_yt-GI8BEHw2Lq8_3.mp4	0.0	290.6322591304779	0.09990406036376953
58	159.8570990562439	fix_pre	0		10.0	56.0	2.5	blank	1.0	290.7321631908417	0.0834970474243164
58	159.93246006965637	response	0	2		56.0	2.5	blank	1.0	290.80752420425415	
58	159.9405961036682	movie	1		301.0	56.0	2.5	blank	1.0	290.815660238266	2.5084259510040283
58	162.44902205467224	fix_post	2		12.0	56.0	2.5	blank	1.0	293.32408618927	0.09972500801086426
59	162.5487470626831	fix_pre	0		34.0	57.0	2.5	/experiments/knapen_aot/videos/R_S_production_ID_4124475.mp4	0.0	293.4238111972809	0.28341102600097656
59	162.8238480091095	response	0	2		57.0	2.5	/experiments/knapen_aot/videos/R_S_production_ID_4124475.mp4	0.0	293.6989121437073	
59	162.83215808868408	movie	1		176.0	57.0	2.5	/experiments/knapen_aot/videos/R_S_production_ID_4124475.mp4	0.0	293.70722222328186	2.5083470344543457
59	165.34050512313843	fix_post	2		12.0	57.0	2.5	/experiments/knapen_aot/videos/R_S_production_ID_4124475.mp4	0.0	296.2155692577362	0.09994006156921387
59	165.3739311695099	response	2	2		57.0	2.5	/experiments/knapen_aot/videos/R_S_production_ID_4124475.mp4	0.0	296.24899530410767	
60	165.44044518470764	fix_pre	0		38.0	58.0	2.5	/experiments/knapen_aot/videos/R_S_yt-NqyG4Ar2JWo_10.mp4	0.0	296.3155093193054	0.3166689872741699
60	165.74892401695251	response	0	2		58.0	2.5	/experiments/knapen_aot/videos/R_S_yt-NqyG4Ar2JWo_10.mp4	0.0	296.6239881515503	
60	165.7571141719818	movie	1		300.0	58.0	2.5	/experiments/knapen_aot/videos/R_S_yt-NqyG4Ar2JWo_10.mp4	0.0	296.6321783065796	2.5084269046783447
60	168.26554107666016	fix_post	2		12.0	58.0	2.5	/experiments/knapen_aot/videos/R_S_yt-NqyG4Ar2JWo_10.mp4	0.0	299.14060521125793	0.10013103485107422
61	168.36567211151123	fix_pre	0		23.0	59.0	2.5	/experiments/knapen_aot/videos/R_S_yt-BCFGCganiuE_8.mp4	0.0	299.240736246109	0.1914811134338379
61	168.54893016815186	response	0	2		59.0	2.5	/experiments/knapen_aot/videos/R_S_yt-BCFGCganiuE_8.mp4	0.0	299.42399430274963	
61	168.55715322494507	movie	1		301.0	59.0	2.5	/experiments/knapen_aot/videos/R_S_yt-BCFGCganiuE_8.mp4	0.0	299.43221735954285	2.508251905441284
61	171.06540513038635	fix_post	2		12.0	59.0	2.5	/experiments/knapen_aot/videos/R_S_yt-BCFGCganiuE_8.mp4	0.0	301.94046926498413	0.10014986991882324
62	171.16555500030518	fix_pre	0		42.0	60.0	2.5	/experiments/knapen_aot/videos/R_S_yt-uY5xsUKn8zU_17.mp4	0.0	302.04061913490295	0.34987306594848633
62	171.50726413726807	response	0	2		60.0	2.5	/experiments/knapen_aot/videos/R_S_yt-uY5xsUKn8zU_17.mp4	0.0	302.38232827186584	
62	171.51542806625366	movie	1		301.0	60.0	2.5	/experiments/knapen_aot/videos/R_S_yt-uY5xsUKn8zU_17.mp4	0.0	302.39049220085144	2.508392095565796
62	174.02382016181946	fix_post	2		12.0	60.0	2.5	/experiments/knapen_aot/videos/R_S_yt-uY5xsUKn8zU_17.mp4	0.0	304.89888429641724	0.09993696212768555
63	174.12375712394714	fix_pre	0		20.0	61.0	2.5	/experiments/knapen_aot/videos/R_S_yt-KLInd-KrK_w_19.mp4	0.0	304.9988212585449	0.16661906242370605
63	174.28227305412292	response	0	2		61.0	2.5	/experiments/knapen_aot/videos/R_S_yt-KLInd-KrK_w_19.mp4	0.0	305.1573371887207	
63	174.29037618637085	movie	1		301.0	61.0	2.5	/experiments/knapen_aot/videos/R_S_yt-KLInd-KrK_w_19.mp4	0.0	305.1654403209686	2.5084428787231445
63	176.798819065094	fix_post	2		12.0	61.0	2.5	/experiments/knapen_aot/videos/R_S_yt-KLInd-KrK_w_19.mp4	0.0	307.6738831996918	0.09998703002929688
64	176.8988060951233	fix_pre	0		16.0	62.0	2.5	/experiments/knapen_aot/videos/S_yt-_6j2NXrB-zE_28.mp4	0.0	307.77387022972107	0.13336992263793945
64	177.02382802963257	response	0	2		62.0	2.5	/experiments/knapen_aot/videos/S_yt-_6j2NXrB-zE_28.mp4	0.0	307.89889216423035	
64	177.03217601776123	movie	1		301.0	62.0	2.5	/experiments/knapen_aot/videos/S_yt-_6j2NXrB-zE_28.mp4	0.0	307.907240152359	2.5083370208740234
64	179.54051303863525	fix_post	2		12.0	62.0	2.5	/experiments/knapen_aot/videos/S_yt-_6j2NXrB-zE_28.mp4	0.0	310.41557717323303	0.0999300479888916
65	179.64044308662415	fix_pre	0		28.0	63.0	2.5	blank	1.0	310.5155072212219	0.23337912559509277
65	179.86564111709595	response	0	2		63.0	2.5	blank	1.0	310.7407052516937	
65	179.87382221221924	movie	1		301.0	63.0	2.5	blank	1.0	310.748886346817	2.5083119869232178
65	182.38213419914246	fix_post	2		12.0	63.0	2.5	blank	1.0	313.25719833374023	0.09999895095825195
66	182.4821331501007	fix_pre	0		32.0	64.0	2.5	/experiments/knapen_aot/videos/S_yt-6DJulOrg2-8_122.mp4	0.0	313.3571972846985	0.26665496826171875
66	182.73301720619202	response	0	2		64.0	2.5	/experiments/knapen_aot/videos/S_yt-6DJulOrg2-8_122.mp4	0.0	313.6080813407898	
66	182.74878811836243	movie	1		301.0	64.0	2.5	/experiments/knapen_aot/videos/S_yt-6DJulOrg2-8_122.mp4	0.0	313.6238522529602	2.508281946182251
66	185.22391605377197	response	1	2		64.0	2.5	/experiments/knapen_aot/videos/S_yt-6DJulOrg2-8_122.mp4	0.0	316.09898018836975	
66	185.25707006454468	fix_post	2		12.0	64.0	2.5	/experiments/knapen_aot/videos/S_yt-6DJulOrg2-8_122.mp4	0.0	316.13213419914246	0.1000361442565918
67	185.35710620880127	fix_pre	0		32.0	65.0	2.5	/experiments/knapen_aot/videos/R_S_ILSVRC2015_train_00408000.mp4	0.0	316.23217034339905	0.2666130065917969
67	185.61555004119873	response	0	2		65.0	2.5	/experiments/knapen_aot/videos/R_S_ILSVRC2015_train_00408000.mp4	0.0	316.4906141757965	
67	185.62371921539307	movie	1		299.0	65.0	2.5	/experiments/knapen_aot/videos/R_S_ILSVRC2015_train_00408000.mp4	0.0	316.49878334999084	2.508236885070801
67	188.13195610046387	fix_post	2		12.0	65.0	2.5	/experiments/knapen_aot/videos/R_S_ILSVRC2015_train_00408000.mp4	0.0	319.00702023506165	0.10014510154724121
68	188.2321012020111	fix_pre	0		15.0	66.0	2.5	/experiments/knapen_aot/videos/S_ILSVRC2015_train_00484001.mp4	0.0	319.1071653366089	0.12497997283935547
68	188.34890913963318	response	0	2		66.0	2.5	/experiments/knapen_aot/videos/S_ILSVRC2015_train_00484001.mp4	0.0	319.22397327423096	
68	188.35708117485046	movie	1		301.0	66.0	2.5	/experiments/knapen_aot/videos/S_ILSVRC2015_train_00484001.mp4	0.0	319.23214530944824	2.5083229541778564
68	190.86540412902832	fix_post	2		12.0	66.0	2.5	/experiments/knapen_aot/videos/S_ILSVRC2015_train_00484001.mp4	0.0	321.7404682636261	0.09996604919433594
69	190.96537017822266	fix_pre	0		16.0	67.0	2.5	/experiments/knapen_aot/videos/S_yt-zSSnQYeO_DE_338.mp4	0.0	321.84043431282043	0.13329100608825684
69	191.09048414230347	response	0	2		67.0	2.5	/experiments/knapen_aot/videos/S_yt-zSSnQYeO_DE_338.mp4	0.0	321.96554827690125	
69	191.0986611843109	movie	1		301.0	67.0	2.5	/experiments/knapen_aot/videos/S_yt-zSSnQYeO_DE_338.mp4	0.0	321.9737253189087	2.508340835571289
69	193.6070020198822	fix_post	2		12.0	67.0	2.5	/experiments/knapen_aot/videos/S_yt-zSSnQYeO_DE_338.mp4	0.0	324.48206615448	0.10001301765441895
70	193.70701503753662	fix_pre	0		61.0	68.0	2.5	blank	1.0	324.5820791721344	0.5082540512084961
70	194.2071840763092	response	0	2		68.0	2.5	blank	1.0	325.082248210907	
70	194.21526908874512	movie	1		301.0	68.0	2.5	blank	1.0	325.0903332233429	2.5083630084991455
70	196.72363209724426	fix_post	2		12.0	68.0	2.5	blank	1.0	327.59869623184204	0.10004496574401855
71	196.82367706298828	fix_pre	0		34.0	69.0	2.5	/experiments/knapen_aot/videos/R_S_yt-28ODBE9bVh0_44.mp4	0.0	327.69874119758606	0.283311128616333
71	197.09877109527588	response	0	2		69.0	2.5	/experiments/knapen_aot/videos/R_S_yt-28ODBE9bVh0_44.mp4	0.0	327.97383522987366	
71	197.10698819160461	movie	1		301.0	69.0	2.5	/experiments/knapen_aot/videos/R_S_yt-28ODBE9bVh0_44.mp4	0.0	327.9820523262024	2.5083470344543457
71	199.61533522605896	fix_post	2		12.0	69.0	2.5	/experiments/knapen_aot/videos/R_S_yt-28ODBE9bVh0_44.mp4	0.0	330.49039936065674	0.10002589225769043
72	199.71536111831665	fix_pre	0		21.0	70.0	2.5	/experiments/knapen_aot/videos/R_S_yt-JG2OY_7B-gI_537.mp4	0.0	330.59042525291443	0.1749260425567627
72	199.88215804100037	response	0	2		70.0	2.5	/experiments/knapen_aot/videos/R_S_yt-JG2OY_7B-gI_537.mp4	0.0	330.75722217559814	
72	199.8902871608734	movie	1		301.0	70.0	2.5	/experiments/knapen_aot/videos/R_S_yt-JG2OY_7B-gI_537.mp4	0.0	330.7653512954712	2.508396863937378
72	202.3986840248108	fix_post	2		12.0	70.0	2.5	/experiments/knapen_aot/videos/R_S_yt-JG2OY_7B-gI_537.mp4	0.0	333.27374815940857	0.0999000072479248
73	202.49858403205872	fix_pre	0		5.0	71.0	2.5	/experiments/knapen_aot/videos/S_ILSVRC2015_train_00463000.mp4	0.0	333.3736481666565	0.04174304008483887
73	202.5322620868683	response	0	2		71.0	2.5	/experiments/knapen_aot/videos/S_ILSVRC2015_train_00463000.mp4	0.0	333.40732622146606	
73	202.54032707214355	movie	1		301.0	71.0	2.5	/experiments/knapen_aot/videos/S_ILSVRC2015_train_00463000.mp4	0.0	333.41539120674133	2.5083141326904297
73	205.04864120483398	fix_post	2		12.0	71.0	2.5	/experiments/knapen_aot/videos/S_ILSVRC2015_train_00463000.mp4	0.0	335.92370533943176	0.10000896453857422
74	205.14865016937256	fix_pre	0		48.0	72.0	2.5	/experiments/knapen_aot/videos/S_pexels-tima-miroshnichenko-5717005.mp4	0.0	336.02371430397034	0.4000668525695801
74	205.54043102264404	response	0	2		72.0	2.5	/experiments/knapen_aot/videos/S_pexels-tima-miroshnichenko-5717005.mp4	0.0	336.4154951572418	
74	205.54871702194214	movie	1		191.0	72.0	2.5	/experiments/knapen_aot/videos/S_pexels-tima-miroshnichenko-5717005.mp4	0.0	336.4237811565399	2.5082361698150635
74	208.0569531917572	fix_post	2		12.0	72.0	2.5	/experiments/knapen_aot/videos/S_pexels-tima-miroshnichenko-5717005.mp4	0.0	338.932017326355	0.09995102882385254
75	208.15690422058105	fix_pre	0		37.0	73.0	2.5	/experiments/knapen_aot/videos/S_pexels-anthony-shkraba-7569650.mp4	0.0	339.03196835517883	0.3083479404449463
75	208.45705819129944	response	0	2		73.0	2.5	/experiments/knapen_aot/videos/S_pexels-anthony-shkraba-7569650.mp4	0.0	339.3321223258972	
75	208.465252161026	movie	1		186.0	73.0	2.5	/experiments/knapen_aot/videos/S_pexels-anthony-shkraba-7569650.mp4	0.0	339.3403162956238	2.508368968963623
75	210.97362112998962	fix_post	2		12.0	73.0	2.5	/experiments/knapen_aot/videos/S_pexels-anthony-shkraba-7569650.mp4	0.0	341.8486852645874	0.09997701644897461
76	211.0735981464386	fix_pre	0		36.0	74.0	2.5	/experiments/knapen_aot/videos/R_S_yt-zSSnQYeO_DE_338.mp4	0.0	341.9486622810364	0.2999858856201172
76	211.36534214019775	response	0	2		74.0	2.5	/experiments/knapen_aot/videos/R_S_yt-zSSnQYeO_DE_338.mp4	0.0	342.24040627479553	
76	211.37358403205872	movie	1		301.0	74.0	2.5	/experiments/knapen_aot/videos/R_S_yt-zSSnQYeO_DE_338.mp4	0.0	342.2486481666565	2.5083751678466797
76	213.8819591999054	fix_post	2		12.0	74.0	2.5	/experiments/knapen_aot/videos/R_S_yt-zSSnQYeO_DE_338.mp4	0.0	344.7570233345032	0.0999448299407959
77	213.9819040298462	fix_pre	0		36.0	75.0	2.5	blank	1.0	344.85696816444397	0.2999989986419678
77	214.27375316619873	response	0	2		75.0	2.5	blank	1.0	345.1488173007965	
77	214.28190302848816	movie	1		301.0	75.0	2.5	blank	1.0	345.15696716308594	2.5082600116729736
77	216.79016304016113	fix_post	2		12.0	75.0	2.5	blank	1.0	347.6652271747589	0.10007905960083008
78	216.89024209976196	fix_pre	0		17.0	76.0	2.5	/experiments/knapen_aot/videos/R_S_3WAnGcPubBY_179.mp4	0.0	347.76530623435974	0.14164304733276367
78	217.02372312545776	response	0	2		76.0	2.5	/experiments/knapen_aot/videos/R_S_3WAnGcPubBY_179.mp4	0.0	347.89878726005554	
78	217.03188514709473	movie	1		299.0	76.0	2.5	/experiments/knapen_aot/videos/R_S_3WAnGcPubBY_179.mp4	0.0	347.9069492816925	2.5083820819854736
78	219.5402672290802	fix_post	2		12.0	76.0	2.5	/experiments/knapen_aot/videos/R_S_3WAnGcPubBY_179.mp4	0.0	350.415331363678	0.09993386268615723
79	219.64020109176636	fix_pre	0		36.0	77.0	2.5	/experiments/knapen_aot/videos/R_S_yt-zam74qlzGtQ_122.mp4	0.0	350.51526522636414	0.3012981414794922
79	219.9320831298828	response	0	2		77.0	2.5	/experiments/knapen_aot/videos/R_S_yt-zam74qlzGtQ_122.mp4	0.0	350.8071472644806	
79	219.94149923324585	movie	1		301.0	77.0	2.5	/experiments/knapen_aot/videos/R_S_yt-zam74qlzGtQ_122.mp4	0.0	350.8165633678436	2.50704288482666
79	222.4485421180725	fix_post	2		12.0	77.0	2.5	/experiments/knapen_aot/videos/R_S_yt-zam74qlzGtQ_122.mp4	0.0	353.3236062526703	0.1000370979309082
80	222.54857921600342	fix_pre	0		9.0	78.0	2.5	/experiments/knapen_aot/videos/S_production_ID_3927047.mp4	0.0	353.4236433506012	0.07494378089904785
80	222.6153061389923	response	0	2		78.0	2.5	/experiments/knapen_aot/videos/S_production_ID_3927047.mp4	0.0	353.4903702735901	
80	222.62352299690247	movie	1		199.0	78.0	2.5	/experiments/knapen_aot/videos/S_production_ID_3927047.mp4	0.0	353.49858713150024	2.5083281993865967
80	225.13185119628906	fix_post	2		12.0	78.0	2.5	/experiments/knapen_aot/videos/S_production_ID_3927047.mp4	0.0	356.00691533088684	0.10007190704345703
81	225.23192310333252	fix_pre	0		14.0	79.0	2.5	/experiments/knapen_aot/videos/S_yt-7e6Z9QQieAk_183.mp4	0.0	356.1069872379303	0.11661410331726074
81	225.3403000831604	response	0	2		79.0	2.5	/experiments/knapen_aot/videos/S_yt-7e6Z9QQieAk_183.mp4	0.0	356.2153642177582	
81	225.34853720664978	movie	1		301.0	79.0	2.5	/experiments/knapen_aot/videos/S_yt-7e6Z9QQieAk_183.mp4	0.0	356.22360134124756	2.508356809616089
81	227.85689401626587	fix_post	2		12.0	79.0	2.5	/experiments/knapen_aot/videos/S_yt-7e6Z9QQieAk_183.mp4	0.0	358.73195815086365	0.09993600845336914
82	227.95683002471924	fix_pre	0		30.0	80.0	2.5	/experiments/knapen_aot/videos/S_yt-2pRKCSgdXXU_30.mp4	0.0	358.831894159317	0.250028133392334
82	228.19869422912598	response	0	2		80.0	2.5	/experiments/knapen_aot/videos/S_yt-2pRKCSgdXXU_30.mp4	0.0	359.07375836372375	
82	228.20685815811157	movie	1		301.0	80.0	2.5	/experiments/knapen_aot/videos/S_yt-2pRKCSgdXXU_30.mp4	0.0	359.08192229270935	2.5082879066467285
82	230.7151460647583	fix_post	2		12.0	80.0	2.5	/experiments/knapen_aot/videos/S_yt-2pRKCSgdXXU_30.mp4	0.0	361.5902101993561	0.10015511512756348
83	230.81530117988586	fix_pre	0		57.0	81.0	2.5	/experiments/knapen_aot/videos/S_82eJpVKGnC0_188.mp4	0.0	361.69036531448364	0.4748530387878418
83	231.28198719024658	response	0	2		81.0	2.5	/experiments/knapen_aot/videos/S_82eJpVKGnC0_188.mp4	0.0	362.15705132484436	
83	231.2901542186737	movie	1		301.0	81.0	2.5	/experiments/knapen_aot/videos/S_82eJpVKGnC0_188.mp4	0.0	362.1652183532715	2.508340835571289
83	233.798495054245	fix_post	2		12.0	81.0	2.5	/experiments/knapen_aot/videos/S_82eJpVKGnC0_188.mp4	0.0	364.6735591888428	0.10002613067626953
84	233.89852118492126	fix_pre	0		39.0	82.0	2.5	/experiments/knapen_aot/videos/R_S_yt-Dwgpjoikt84_122.mp4	0.0	364.77358531951904	0.32495594024658203
84	234.21531414985657	response	0	2		82.0	2.5	/experiments/knapen_aot/videos/R_S_yt-Dwgpjoikt84_122.mp4	0.0	365.09037828445435	
84	234.22347712516785	movie	1		301.0	82.0	2.5	/experiments/knapen_aot/videos/R_S_yt-Dwgpjoikt84_122.mp4	0.0	365.0985412597656	2.5083069801330566
84	236.7317841053009	fix_post	2		12.0	82.0	2.5	/experiments/knapen_aot/videos/R_S_yt-Dwgpjoikt84_122.mp4	0.0	367.6068482398987	0.09998297691345215
85	236.83176708221436	fix_pre	0		26.0	83.0	2.5	blank	1.0	367.70683121681213	0.2167060375213623
85	237.04044699668884	response	0	2		83.0	2.5	blank	1.0	367.9155111312866	
85	237.04847311973572	movie	1		301.0	83.0	2.5	blank	1.0	367.9235372543335	2.5083138942718506
85	239.55678701400757	fix_post	2		12.0	83.0	2.5	blank	1.0	370.43185114860535	0.10001707077026367
87	239.65680408477783	stim	0		399.0					370.5318682193756	3.326184034347534
87	239.87459301948547	response	0	2						370.74965715408325	
87	242.97469806671143	response	0	space						373.8497622013092	
