trial_nr	onset	event_type	phase	response	nr_frames	movie_index	movie_duration	movie_file	blank	onset_abs	duration
0	0.1582050323486328	stim	0		42.0					65.33528709411621	0.3518960475921631
0	0.4927380084991455	response	0	space						65.66982007026672	
1	0.5101010799407959	stim	0		121.0					65.68718314170837	1.0061569213867188
1	1.5162580013275146	stim	1		120.0					66.69334006309509	1.000365972518921
1	2.1246609687805176	response	1	space						67.3017430305481	
2	2.5166239738464355	fix_pre	0		14.0	0.0	2.5	/experiments/knapen_aot/videos/S_pexels-koolshooters-7327412_1.mp4	0.0	67.69370603561401	0.11629390716552734
2	2.624706983566284	response	0	space		0.0	2.5	/experiments/knapen_aot/videos/S_pexels-koolshooters-7327412_1.mp4	0.0	67.80178904533386	
2	2.632917881011963	movie	1		165.0	0.0	2.5	/experiments/knapen_aot/videos/S_pexels-koolshooters-7327412_1.mp4	0.0	67.80999994277954	2.5083131790161133
2	5.141231060028076	fix_post	2		12.0	0.0	2.5	/experiments/knapen_aot/videos/S_pexels-koolshooters-7327412_1.mp4	0.0	70.31831312179565	0.09995794296264648
2	5.187618017196655	response	2	2		0.0	2.5	/experiments/knapen_aot/videos/S_pexels-koolshooters-7327412_1.mp4	0.0	70.36470007896423	
3	5.241189002990723	fix_pre	0		31.0	1.0	2.5	/experiments/knapen_aot/videos/R_S_yt-QxNuo4ojvz4_420.mp4	0.0	70.4182710647583	0.2583189010620117
3	5.491370916366577	response	0	2		1.0	2.5	/experiments/knapen_aot/videos/R_S_yt-QxNuo4ojvz4_420.mp4	0.0	70.66845297813416	
3	5.499507904052734	movie	1		301.0	1.0	2.5	/experiments/knapen_aot/videos/R_S_yt-QxNuo4ojvz4_420.mp4	0.0	70.67658996582031	2.5083370208740234
3	8.007844924926758	fix_post	2		12.0	1.0	2.5	/experiments/knapen_aot/videos/R_S_yt-QxNuo4ojvz4_420.mp4	0.0	73.18492698669434	0.09994006156921387
3	8.06636905670166	response	2	2		1.0	2.5	/experiments/knapen_aot/videos/R_S_yt-QxNuo4ojvz4_420.mp4	0.0	73.24345111846924	
4	8.107784986495972	fix_pre	0		28.0	2.0	2.5	/experiments/knapen_aot/videos/S_pexels-yaroslav-shuraev-8091356.mp4	0.0	73.28486704826355	0.2334439754486084
4	8.332962989807129	response	0	2		2.0	2.5	/experiments/knapen_aot/videos/S_pexels-yaroslav-shuraev-8091356.mp4	0.0	73.5100450515747	
4	8.34122896194458	movie	1		196.0	2.0	2.5	/experiments/knapen_aot/videos/S_pexels-yaroslav-shuraev-8091356.mp4	0.0	73.51831102371216	2.5082969665527344
4	10.849525928497314	fix_post	2		12.0	2.0	2.5	/experiments/knapen_aot/videos/S_pexels-yaroslav-shuraev-8091356.mp4	0.0	76.02660799026489	0.09998798370361328
5	10.949513912200928	fix_pre	0		12.0	3.0	2.5	/experiments/knapen_aot/videos/S_yt-uY5xsUKn8zU_17.mp4	0.0	76.1265959739685	0.10000896453857422
5	11.041322946548462	response	0	2		3.0	2.5	/experiments/knapen_aot/videos/S_yt-uY5xsUKn8zU_17.mp4	0.0	76.21840500831604	
5	11.049522876739502	movie	1		301.0	3.0	2.5	/experiments/knapen_aot/videos/S_yt-uY5xsUKn8zU_17.mp4	0.0	76.22660493850708	2.508315086364746
5	13.557837963104248	fix_post	2		12.0	3.0	2.5	/experiments/knapen_aot/videos/S_yt-uY5xsUKn8zU_17.mp4	0.0	78.73492002487183	0.1000070571899414
6	13.65784502029419	fix_pre	0		27.0	4.0	2.5	/experiments/knapen_aot/videos/R_S_Pexels_Videos_2795731.mp4	0.0	78.83492708206177	0.2249159812927246
6	13.874685049057007	response	0	2		4.0	2.5	/experiments/knapen_aot/videos/R_S_Pexels_Videos_2795731.mp4	0.0	79.05176711082458	
6	13.882761001586914	movie	1		165.0	4.0	2.5	/experiments/knapen_aot/videos/R_S_Pexels_Videos_2795731.mp4	0.0	79.05984306335449	2.508413076400757
6	16.39117407798767	fix_post	2		12.0	4.0	2.5	/experiments/knapen_aot/videos/R_S_Pexels_Videos_2795731.mp4	0.0	81.56825613975525	0.09997797012329102
6	16.483025074005127	response	2	2		4.0	2.5	/experiments/knapen_aot/videos/R_S_Pexels_Videos_2795731.mp4	0.0	81.6601071357727	
7	16.491152048110962	fix_pre	0		32.0	5.0	2.5	/experiments/knapen_aot/videos/R_S_production_ID_4540332.mp4	0.0	81.66823410987854	0.266664981842041
7	16.74962592124939	response	0	2		5.0	2.5	/experiments/knapen_aot/videos/R_S_production_ID_4540332.mp4	0.0	81.92670798301697	
7	16.757817029953003	movie	1		179.0	5.0	2.5	/experiments/knapen_aot/videos/R_S_production_ID_4540332.mp4	0.0	81.93489909172058	2.5083889961242676
7	19.26620602607727	fix_post	2		12.0	5.0	2.5	/experiments/knapen_aot/videos/R_S_production_ID_4540332.mp4	0.0	84.44328808784485	0.09997105598449707
7	19.32540798187256	response	2	2		5.0	2.5	/experiments/knapen_aot/videos/R_S_production_ID_4540332.mp4	0.0	84.50249004364014	
8	19.366177082061768	fix_pre	0		27.0	6.0	2.5	/experiments/knapen_aot/videos/S_pexels-artem-podrez-5457692.mp4	0.0	84.54325914382935	0.22495794296264648
8	19.58285689353943	response	0	2		6.0	2.5	/experiments/knapen_aot/videos/S_pexels-artem-podrez-5457692.mp4	0.0	84.759938955307	
8	19.591135025024414	movie	1		170.0	6.0	2.5	/experiments/knapen_aot/videos/S_pexels-artem-podrez-5457692.mp4	0.0	84.76821708679199	2.5085408687591553
8	22.09967589378357	fix_post	2		12.0	6.0	2.5	/experiments/knapen_aot/videos/S_pexels-artem-podrez-5457692.mp4	0.0	87.27675795555115	0.09981298446655273
8	22.149760961532593	response	2	2		6.0	2.5	/experiments/knapen_aot/videos/S_pexels-artem-podrez-5457692.mp4	0.0	87.32684302330017	
9	22.199488878250122	fix_pre	0		33.0	7.0	2.5	blank	1.0	87.3765709400177	0.27535319328308105
9	22.46625304222107	response	0	2		7.0	2.5	blank	1.0	87.64333510398865	
9	22.474842071533203	movie	1		301.0	7.0	2.5	blank	1.0	87.65192413330078	2.5081160068511963
9	24.9829580783844	fix_post	2		12.0	7.0	2.5	blank	1.0	90.16004014015198	0.09987592697143555
10	25.082834005355835	fix_pre	0		34.0	8.0	2.5	/experiments/knapen_aot/videos/S_yt-3eQHOLBzOqA_100.mp4	0.0	90.25991606712341	0.28325986862182617
10	25.357897996902466	response	0	2		8.0	2.5	/experiments/knapen_aot/videos/S_yt-3eQHOLBzOqA_100.mp4	0.0	90.53498005867004	
10	25.36609387397766	movie	1		298.0	8.0	2.5	/experiments/knapen_aot/videos/S_yt-3eQHOLBzOqA_100.mp4	0.0	90.54317593574524	2.5083141326904297
10	27.87440800666809	fix_post	2		12.0	8.0	2.5	/experiments/knapen_aot/videos/S_yt-3eQHOLBzOqA_100.mp4	0.0	93.05149006843567	0.1002349853515625
11	27.974642992019653	fix_pre	0		6.0	9.0	2.5	/experiments/knapen_aot/videos/R_S_yt-GFcuvjHJmS4_86.mp4	0.0	93.15172505378723	0.04979205131530762
11	28.01629400253296	response	0	2		9.0	2.5	/experiments/knapen_aot/videos/R_S_yt-GFcuvjHJmS4_86.mp4	0.0	93.19337606430054	
11	28.02443504333496	movie	1		301.0	9.0	2.5	/experiments/knapen_aot/videos/R_S_yt-GFcuvjHJmS4_86.mp4	0.0	93.20151710510254	2.508301019668579
11	30.53273606300354	fix_post	2		12.0	9.0	2.5	/experiments/knapen_aot/videos/R_S_yt-GFcuvjHJmS4_86.mp4	0.0	95.70981812477112	0.10003495216369629
12	30.632771015167236	fix_pre	0		9.0	10.0	2.5	/experiments/knapen_aot/videos/R_S_yt-7lULOC_rSE0_747.mp4	0.0	95.80985307693481	0.07510495185852051
12	30.69284987449646	response	0	2		10.0	2.5	/experiments/knapen_aot/videos/R_S_yt-7lULOC_rSE0_747.mp4	0.0	95.86993193626404	
12	30.707875967025757	movie	1		301.0	10.0	2.5	/experiments/knapen_aot/videos/R_S_yt-7lULOC_rSE0_747.mp4	0.0	95.88495802879333	2.508258104324341
12	33.2161340713501	fix_post	2		12.0	10.0	2.5	/experiments/knapen_aot/videos/R_S_yt-7lULOC_rSE0_747.mp4	0.0	98.39321613311768	0.0999138355255127
13	33.31604790687561	fix_pre	0		11.0	11.0	2.5	/experiments/knapen_aot/videos/S_pexels-anthony-shkraba-production-8135459.mp4	0.0	98.49312996864319	0.0917971134185791
13	33.399566888809204	response	0	2		11.0	2.5	/experiments/knapen_aot/videos/S_pexels-anthony-shkraba-production-8135459.mp4	0.0	98.57664895057678	
13	33.40784502029419	movie	1		167.0	11.0	2.5	/experiments/knapen_aot/videos/S_pexels-anthony-shkraba-production-8135459.mp4	0.0	98.58492708206177	2.508241891860962
13	35.91608691215515	fix_post	2		12.0	11.0	2.5	/experiments/knapen_aot/videos/S_pexels-anthony-shkraba-production-8135459.mp4	0.0	101.09316897392273	0.10010409355163574
14	36.01619100570679	fix_pre	0		8.0	12.0	2.5	/experiments/knapen_aot/videos/R_S__6qAy77ODUI_175.mp4	0.0	101.19327306747437	0.06662702560424805
14	36.074512004852295	response	0	2		12.0	2.5	/experiments/knapen_aot/videos/R_S__6qAy77ODUI_175.mp4	0.0	101.25159406661987	
14	36.082818031311035	movie	1		301.0	12.0	2.5	/experiments/knapen_aot/videos/R_S__6qAy77ODUI_175.mp4	0.0	101.25990009307861	2.508213996887207
14	38.59103202819824	fix_post	2		12.0	12.0	2.5	/experiments/knapen_aot/videos/R_S__6qAy77ODUI_175.mp4	0.0	103.76811408996582	0.09997797012329102
15	38.69100999832153	fix_pre	0		1.0	13.0	2.5	/experiments/knapen_aot/videos/R_S_yt--vHa85DHvLU_31.mp4	0.0	103.86809206008911	0.008437871932983398
15	38.6927649974823	response	0	2		13.0	2.5	/experiments/knapen_aot/videos/R_S_yt--vHa85DHvLU_31.mp4	0.0	103.86984705924988	
15	38.69944787025452	movie	1		301.0	13.0	2.5	/experiments/knapen_aot/videos/R_S_yt--vHa85DHvLU_31.mp4	0.0	103.8765299320221	2.5083060264587402
15	41.20775389671326	fix_post	2		12.0	13.0	2.5	/experiments/knapen_aot/videos/R_S_yt--vHa85DHvLU_31.mp4	0.0	106.38483595848083	0.10009503364562988
16	41.30784893035889	fix_pre	0		14.0	14.0	2.5	blank	1.0	106.48493099212646	0.11651802062988281
16	41.416178941726685	response	0	2		14.0	2.5	blank	1.0	106.59326100349426	
16	41.42436695098877	movie	1		301.0	14.0	2.5	blank	1.0	106.60144901275635	2.5084280967712402
16	43.93279504776001	fix_post	2		12.0	14.0	2.5	blank	1.0	109.10987710952759	0.09995293617248535
17	44.032747983932495	fix_pre	0		33.0	15.0	2.5	/experiments/knapen_aot/videos/R_S_ILSVRC2015_train_00682000.mp4	0.0	109.20983004570007	0.275022029876709
17	44.2994818687439	response	0	2		15.0	2.5	/experiments/knapen_aot/videos/R_S_ILSVRC2015_train_00682000.mp4	0.0	109.47656393051147	
17	44.307770013809204	movie	1		301.0	15.0	2.5	/experiments/knapen_aot/videos/R_S_ILSVRC2015_train_00682000.mp4	0.0	109.48485207557678	2.5083279609680176
17	46.81609797477722	fix_post	2		12.0	15.0	2.5	/experiments/knapen_aot/videos/R_S_ILSVRC2015_train_00682000.mp4	0.0	111.9931800365448	0.09995603561401367
18	46.916054010391235	fix_pre	0		14.0	16.0	2.5	/experiments/knapen_aot/videos/S_yt-zh2yLr-o_8A_953.mp4	0.0	112.09313607215881	0.11668896675109863
18	47.02445101737976	response	0	2		16.0	2.5	/experiments/knapen_aot/videos/S_yt-zh2yLr-o_8A_953.mp4	0.0	112.20153307914734	
18	47.032742977142334	movie	1		301.0	16.0	2.5	/experiments/knapen_aot/videos/S_yt-zh2yLr-o_8A_953.mp4	0.0	112.20982503890991	2.5083119869232178
18	49.44116497039795	response	1	2		16.0	2.5	/experiments/knapen_aot/videos/S_yt-zh2yLr-o_8A_953.mp4	0.0	114.61824703216553	
18	49.54105496406555	fix_post	2		12.0	16.0	2.5	/experiments/knapen_aot/videos/S_yt-zh2yLr-o_8A_953.mp4	0.0	114.71813702583313	0.10002589225769043
19	49.64108085632324	fix_pre	0		23.0	17.0	2.5	/experiments/knapen_aot/videos/R_S_X-D3lUv-atE_376.mp4	0.0	114.81816291809082	0.19158220291137695
19	49.82447004318237	response	0	2		17.0	2.5	/experiments/knapen_aot/videos/R_S_X-D3lUv-atE_376.mp4	0.0	115.00155210494995	
19	49.83266305923462	movie	1		301.0	17.0	2.5	/experiments/knapen_aot/videos/R_S_X-D3lUv-atE_376.mp4	0.0	115.0097451210022	2.5083279609680176
19	52.34099102020264	fix_post	2		12.0	17.0	2.5	/experiments/knapen_aot/videos/R_S_X-D3lUv-atE_376.mp4	0.0	117.51807308197021	0.10004901885986328
20	52.4410400390625	fix_pre	0		24.0	18.0	2.5	/experiments/knapen_aot/videos/R_S_3WAnGcPubBY_143.mp4	0.0	117.61812210083008	0.1999959945678711
20	52.632781982421875	response	0	2		18.0	2.5	/experiments/knapen_aot/videos/R_S_3WAnGcPubBY_143.mp4	0.0	117.80986404418945	
20	52.64103603363037	movie	1		301.0	18.0	2.5	/experiments/knapen_aot/videos/R_S_3WAnGcPubBY_143.mp4	0.0	117.81811809539795	2.5082859992980957
20	55.14932203292847	fix_post	2		12.0	18.0	2.5	/experiments/knapen_aot/videos/R_S_3WAnGcPubBY_143.mp4	0.0	120.32640409469604	0.10005784034729004
21	55.24937987327576	fix_pre	0		20.0	19.0	2.5	blank	1.0	120.42646193504333	0.16664910316467285
21	55.40780305862427	response	0	2		19.0	2.5	blank	1.0	120.58488512039185	
21	55.41602897644043	movie	1		301.0	19.0	2.5	blank	1.0	120.59311103820801	2.508302927017212
21	57.92433190345764	fix_post	2		12.0	19.0	2.5	blank	1.0	123.10141396522522	0.09998106956481934
22	58.02431297302246	fix_pre	0		44.0	20.0	2.5	/experiments/knapen_aot/videos/R_S_pexels-anthony-shkraba-production-8135459.mp4	0.0	123.20139503479004	0.36668896675109863
22	58.38274908065796	response	0	2		20.0	2.5	/experiments/knapen_aot/videos/R_S_pexels-anthony-shkraba-production-8135459.mp4	0.0	123.55983114242554	
22	58.39100193977356	movie	1		166.0	20.0	2.5	/experiments/knapen_aot/videos/R_S_pexels-anthony-shkraba-production-8135459.mp4	0.0	123.56808400154114	2.508228063583374
22	60.899230003356934	fix_post	2		12.0	20.0	2.5	/experiments/knapen_aot/videos/R_S_pexels-anthony-shkraba-production-8135459.mp4	0.0	126.07631206512451	0.10004186630249023
23	60.999271869659424	fix_pre	0		5.0	21.0	2.5	/experiments/knapen_aot/videos/R_S_comp_CH_C007_C004_PSNK_v02_SDR_PS_FINAL_20180709_SDR_2K_AVC.mp4	0.0	126.176353931427	0.04181504249572754
23	61.032954931259155	response	0	2		21.0	2.5	/experiments/knapen_aot/videos/R_S_comp_CH_C007_C004_PSNK_v02_SDR_PS_FINAL_20180709_SDR_2K_AVC.mp4	0.0	126.21003699302673	
23	61.04108691215515	movie	1		178.0	21.0	2.5	/experiments/knapen_aot/videos/R_S_comp_CH_C007_C004_PSNK_v02_SDR_PS_FINAL_20180709_SDR_2K_AVC.mp4	0.0	126.21816897392273	2.5081629753112793
23	63.45782804489136	response	1	2		21.0	2.5	/experiments/knapen_aot/videos/R_S_comp_CH_C007_C004_PSNK_v02_SDR_PS_FINAL_20180709_SDR_2K_AVC.mp4	0.0	128.63491010665894	
23	63.54924988746643	fix_post	2		12.0	21.0	2.5	/experiments/knapen_aot/videos/R_S_comp_CH_C007_C004_PSNK_v02_SDR_PS_FINAL_20180709_SDR_2K_AVC.mp4	0.0	128.726331949234	0.09998106956481934
24	63.64923095703125	fix_pre	0		56.0	22.0	2.5	/experiments/knapen_aot/videos/R_S_yt-JTuopUgmg1w_101.mp4	0.0	128.82631301879883	0.4667630195617676
24	64.10772490501404	response	0	2		22.0	2.5	/experiments/knapen_aot/videos/R_S_yt-JTuopUgmg1w_101.mp4	0.0	129.28480696678162	
24	64.11599397659302	movie	1		298.0	22.0	2.5	/experiments/knapen_aot/videos/R_S_yt-JTuopUgmg1w_101.mp4	0.0	129.2930760383606	2.499959945678711
24	66.27445697784424	response	1	2		22.0	2.5	/experiments/knapen_aot/videos/R_S_yt-JTuopUgmg1w_101.mp4	0.0	131.45153903961182	
24	66.60778594017029	response	1	2		22.0	2.5	/experiments/knapen_aot/videos/R_S_yt-JTuopUgmg1w_101.mp4	0.0	131.78486800193787	
24	66.61595392227173	fix_post	2		13.0	22.0	2.5	/experiments/knapen_aot/videos/R_S_yt-JTuopUgmg1w_101.mp4	0.0	131.7930359840393	0.10837507247924805
25	66.72432899475098	fix_pre	0		16.0	23.0	2.5	/experiments/knapen_aot/videos/S_Ds4EKTLx_RI_51.mp4	0.0	131.90141105651855	0.1332859992980957
25	66.8493800163269	response	0	2		23.0	2.5	/experiments/knapen_aot/videos/S_Ds4EKTLx_RI_51.mp4	0.0	132.02646207809448	
25	66.85761499404907	movie	1		301.0	23.0	2.5	/experiments/knapen_aot/videos/S_Ds4EKTLx_RI_51.mp4	0.0	132.03469705581665	2.5083420276641846
25	69.36595702171326	fix_post	2		12.0	23.0	2.5	/experiments/knapen_aot/videos/S_Ds4EKTLx_RI_51.mp4	0.0	134.54303908348083	0.09995484352111816
26	69.46591186523438	fix_pre	0		22.0	24.0	2.5	/experiments/knapen_aot/videos/S_SPNvf6JCjGw_123.mp4	0.0	134.64299392700195	0.1833500862121582
26	69.64114093780518	response	0	2		24.0	2.5	/experiments/knapen_aot/videos/S_SPNvf6JCjGw_123.mp4	0.0	134.81822299957275	
26	69.64926195144653	movie	1		301.0	24.0	2.5	/experiments/knapen_aot/videos/S_SPNvf6JCjGw_123.mp4	0.0	134.8263440132141	2.5124731063842773
26	72.16173505783081	fix_post	2		12.0	24.0	2.5	/experiments/knapen_aot/videos/S_SPNvf6JCjGw_123.mp4	0.0	137.3388171195984	0.09588980674743652
27	72.25762486457825	fix_pre	0		9.0	25.0	2.5	/experiments/knapen_aot/videos/R_S_yt-O4wUEZwHLyI_114.mp4	0.0	137.43470692634583	0.07506513595581055
27	72.32462787628174	response	0	2		25.0	2.5	/experiments/knapen_aot/videos/R_S_yt-O4wUEZwHLyI_114.mp4	0.0	137.50170993804932	
27	72.33269000053406	movie	1		301.0	25.0	2.5	/experiments/knapen_aot/videos/R_S_yt-O4wUEZwHLyI_114.mp4	0.0	137.50977206230164	2.5082380771636963
27	74.84092807769775	fix_post	2		12.0	25.0	2.5	/experiments/knapen_aot/videos/R_S_yt-O4wUEZwHLyI_114.mp4	0.0	140.01801013946533	0.09991788864135742
28	74.94084596633911	fix_pre	0		32.0	26.0	2.5	/experiments/knapen_aot/videos/S_comp_L012_c002_PS_v01_SDR_PS_20180925_SDR_2K_AVC.mp4	0.0	140.1179280281067	0.26673007011413574
28	75.19937491416931	response	0	2		26.0	2.5	/experiments/knapen_aot/videos/S_comp_L012_c002_PS_v01_SDR_PS_20180925_SDR_2K_AVC.mp4	0.0	140.3764569759369	
28	75.20757603645325	movie	1		166.0	26.0	2.5	/experiments/knapen_aot/videos/S_comp_L012_c002_PS_v01_SDR_PS_20180925_SDR_2K_AVC.mp4	0.0	140.38465809822083	2.5083210468292236
28	77.71589708328247	fix_post	2		12.0	26.0	2.5	/experiments/knapen_aot/videos/S_comp_L012_c002_PS_v01_SDR_PS_20180925_SDR_2K_AVC.mp4	0.0	142.89297914505005	0.10001397132873535
29	77.8159110546112	fix_pre	0		8.0	27.0	2.5	blank	1.0	142.99299311637878	0.06669783592224121
29	77.86693286895752	response	0	2		27.0	2.5	blank	1.0	143.0440149307251	
29	77.88260889053345	movie	1		301.0	27.0	2.5	blank	1.0	143.05969095230103	2.5082530975341797
29	80.39086198806763	fix_post	2		12.0	27.0	2.5	blank	1.0	145.5679440498352	0.10007309913635254
30	80.49093508720398	fix_pre	0		432.0	28.0	2.5	/experiments/knapen_aot/videos/S_yt--DXkjCUzThU_413.mp4	0.0	145.66801714897156	3.5998377799987793
30	84.08266186714172	response	0	2		28.0	2.5	/experiments/knapen_aot/videos/S_yt--DXkjCUzThU_413.mp4	0.0	149.2597439289093	
30	84.09077286720276	movie	1		301.0	28.0	2.5	/experiments/knapen_aot/videos/S_yt--DXkjCUzThU_413.mp4	0.0	149.26785492897034	2.50846004486084
30	86.5992329120636	fix_post	2		12.0	28.0	2.5	/experiments/knapen_aot/videos/S_yt--DXkjCUzThU_413.mp4	0.0	151.77631497383118	0.0999751091003418
31	86.69920802116394	fix_pre	0		28.0	29.0	2.5	/experiments/knapen_aot/videos/R_S_video_inspire_oregon_lone-ranch-beach_00015.1080-h264.mp4	0.0	151.87629008293152	0.23326396942138672
31	86.92430806159973	response	0	2		29.0	2.5	/experiments/knapen_aot/videos/R_S_video_inspire_oregon_lone-ranch-beach_00015.1080-h264.mp4	0.0	152.1013901233673	
31	86.93247199058533	movie	1		169.0	29.0	2.5	/experiments/knapen_aot/videos/R_S_video_inspire_oregon_lone-ranch-beach_00015.1080-h264.mp4	0.0	152.1095540523529	2.5084619522094727
31	89.4409339427948	fix_post	2		12.0	29.0	2.5	/experiments/knapen_aot/videos/R_S_video_inspire_oregon_lone-ranch-beach_00015.1080-h264.mp4	0.0	154.61801600456238	0.09997797012329102
32	89.54091191291809	fix_pre	0		23.0	30.0	2.5	/experiments/knapen_aot/videos/R_S_pexels-mikhail-nilov-8410063.mp4	0.0	154.71799397468567	0.19164299964904785
32	89.7243390083313	response	0	2		30.0	2.5	/experiments/knapen_aot/videos/R_S_pexels-mikhail-nilov-8410063.mp4	0.0	154.90142107009888	
32	89.73255491256714	movie	1		164.0	30.0	2.5	/experiments/knapen_aot/videos/R_S_pexels-mikhail-nilov-8410063.mp4	0.0	154.90963697433472	2.5082969665527344
32	91.86623787879944	response	1	2		30.0	2.5	/experiments/knapen_aot/videos/R_S_pexels-mikhail-nilov-8410063.mp4	0.0	157.04331994056702	
32	92.24085187911987	fix_post	2		12.0	30.0	2.5	/experiments/knapen_aot/videos/R_S_pexels-mikhail-nilov-8410063.mp4	0.0	157.41793394088745	0.09995913505554199
33	92.34081101417542	fix_pre	0		6.0	31.0	2.5	/experiments/knapen_aot/videos/S_yt-bWXohhodbjg_98.mp4	0.0	157.517893075943	0.050039052963256836
33	92.38274788856506	response	0	2		31.0	2.5	/experiments/knapen_aot/videos/S_yt-bWXohhodbjg_98.mp4	0.0	157.55982995033264	
33	92.39085006713867	movie	1		301.0	31.0	2.5	/experiments/knapen_aot/videos/S_yt-bWXohhodbjg_98.mp4	0.0	157.56793212890625	2.5083138942718506
33	94.89916396141052	fix_post	2		12.0	31.0	2.5	/experiments/knapen_aot/videos/S_yt-bWXohhodbjg_98.mp4	0.0	160.0762460231781	0.10004091262817383
34	94.9992048740387	fix_pre	0		12.0	32.0	2.5	/experiments/knapen_aot/videos/R_S_ILSVRC2015_train_00479000.mp4	0.0	160.17628693580627	0.09994220733642578
34	95.09096002578735	response	0	2		32.0	2.5	/experiments/knapen_aot/videos/R_S_ILSVRC2015_train_00479000.mp4	0.0	160.26804208755493	
34	95.09914708137512	movie	1		301.0	32.0	2.5	/experiments/knapen_aot/videos/R_S_ILSVRC2015_train_00479000.mp4	0.0	160.2762291431427	2.50836181640625
34	97.60750889778137	fix_post	2		12.0	32.0	2.5	/experiments/knapen_aot/videos/R_S_ILSVRC2015_train_00479000.mp4	0.0	162.78459095954895	0.09995818138122559
35	97.7074670791626	fix_pre	0		22.0	33.0	2.5	/experiments/knapen_aot/videos/R_S_video_inspire_nevada_lasvegas_northstrip_021.1080-h264.mp4	0.0	162.88454914093018	0.18338394165039062
35	97.88269400596619	response	0	2		33.0	2.5	/experiments/knapen_aot/videos/R_S_video_inspire_nevada_lasvegas_northstrip_021.1080-h264.mp4	0.0	163.05977606773376	
35	97.89085102081299	movie	1		170.0	33.0	2.5	/experiments/knapen_aot/videos/R_S_video_inspire_nevada_lasvegas_northstrip_021.1080-h264.mp4	0.0	163.06793308258057	2.508307933807373
35	100.39915895462036	fix_post	2		12.0	33.0	2.5	/experiments/knapen_aot/videos/R_S_video_inspire_nevada_lasvegas_northstrip_021.1080-h264.mp4	0.0	165.57624101638794	0.09995698928833008
36	100.49911594390869	fix_pre	0		4.0	34.0	2.5	blank	1.0	165.67619800567627	0.033390045166015625
36	100.52428698539734	response	0	2		34.0	2.5	blank	1.0	165.70136904716492	
36	100.5325059890747	movie	1		301.0	34.0	2.5	blank	1.0	165.70958805084229	2.508297920227051
36	103.04080390930176	fix_post	2		12.0	34.0	2.5	blank	1.0	168.21788597106934	0.09998202323913574
37	103.1407859325409	fix_pre	0		83.0	35.0	2.5	/experiments/knapen_aot/videos/S_ILSVRC2015_test_00012005.mp4	0.0	168.31786799430847	0.6916861534118652
37	103.82429099082947	response	0	2		35.0	2.5	/experiments/knapen_aot/videos/S_ILSVRC2015_test_00012005.mp4	0.0	169.00137305259705	
37	103.83247208595276	movie	1		301.0	35.0	2.5	/experiments/knapen_aot/videos/S_ILSVRC2015_test_00012005.mp4	0.0	169.00955414772034	2.5083489418029785
37	106.34082102775574	fix_post	2		12.0	35.0	2.5	/experiments/knapen_aot/videos/S_ILSVRC2015_test_00012005.mp4	0.0	171.51790308952332	0.09996485710144043
38	106.44078588485718	fix_pre	0		13.0	36.0	2.5	/experiments/knapen_aot/videos/R_S_ILSVRC2015_train_00485001.mp4	0.0	171.61786794662476	0.10941720008850098
38	106.5409369468689	response	0	2		36.0	2.5	/experiments/knapen_aot/videos/R_S_ILSVRC2015_train_00485001.mp4	0.0	171.71801900863647	
38	106.55020308494568	movie	1		301.0	36.0	2.5	/experiments/knapen_aot/videos/R_S_ILSVRC2015_train_00485001.mp4	0.0	171.72728514671326	2.5072858333587646
38	109.05748891830444	fix_post	2		12.0	36.0	2.5	/experiments/knapen_aot/videos/R_S_ILSVRC2015_train_00485001.mp4	0.0	174.23457098007202	0.10001802444458008
39	109.15750694274902	fix_pre	0		18.0	37.0	2.5	/experiments/knapen_aot/videos/R_S_bing-www_cnet_com_videos_amazon-wants-to-put-alexa-on-your-pc__50.mp4	0.0	174.3345890045166	0.14990592002868652
39	109.2991669178009	response	0	2		37.0	2.5	/experiments/knapen_aot/videos/R_S_bing-www_cnet_com_videos_amazon-wants-to-put-alexa-on-your-pc__50.mp4	0.0	174.47624897956848	
39	109.30741286277771	movie	1		166.0	37.0	2.5	/experiments/knapen_aot/videos/R_S_bing-www_cnet_com_videos_amazon-wants-to-put-alexa-on-your-pc__50.mp4	0.0	174.4844949245453	2.5083510875701904
39	111.8157639503479	fix_post	2		12.0	37.0	2.5	/experiments/knapen_aot/videos/R_S_bing-www_cnet_com_videos_amazon-wants-to-put-alexa-on-your-pc__50.mp4	0.0	176.99284601211548	0.09998393058776855
40	111.91574788093567	fix_pre	0		6.0	38.0	2.5	/experiments/knapen_aot/videos/R_S_ILSVRC2015_train_00572000.mp4	0.0	177.09282994270325	0.051145076751708984
40	111.95757293701172	response	0	2		38.0	2.5	/experiments/knapen_aot/videos/R_S_ILSVRC2015_train_00572000.mp4	0.0	177.1346549987793	
40	111.96689295768738	movie	1		301.0	38.0	2.5	/experiments/knapen_aot/videos/R_S_ILSVRC2015_train_00572000.mp4	0.0	177.14397501945496	2.507219076156616
40	114.474112033844	fix_post	2		12.0	38.0	2.5	/experiments/knapen_aot/videos/R_S_ILSVRC2015_train_00572000.mp4	0.0	179.65119409561157	0.09999895095825195
41	114.57411098480225	fix_pre	0		5.0	39.0	2.5	/experiments/knapen_aot/videos/S_pexels-rodnae-productions-5544703.mp4	0.0	179.75119304656982	0.041589975357055664
41	114.6075918674469	response	0	2		39.0	2.5	/experiments/knapen_aot/videos/S_pexels-rodnae-productions-5544703.mp4	0.0	179.78467392921448	
41	114.6157009601593	movie	1		172.0	39.0	2.5	/experiments/knapen_aot/videos/S_pexels-rodnae-productions-5544703.mp4	0.0	179.79278302192688	2.5084290504455566
41	117.12413001060486	fix_post	2		12.0	39.0	2.5	/experiments/knapen_aot/videos/S_pexels-rodnae-productions-5544703.mp4	0.0	182.30121207237244	0.09999203681945801
42	117.22412204742432	fix_pre	0		17.0	40.0	2.5	/experiments/knapen_aot/videos/S_yt-4-u4Fw_J_q8_45.mp4	0.0	182.4012041091919	0.14160680770874023
42	117.35763192176819	response	0	2		40.0	2.5	/experiments/knapen_aot/videos/S_yt-4-u4Fw_J_q8_45.mp4	0.0	182.53471398353577	
42	117.36572885513306	movie	1		300.0	40.0	2.5	/experiments/knapen_aot/videos/S_yt-4-u4Fw_J_q8_45.mp4	0.0	182.54281091690063	2.508369207382202
42	119.87409806251526	fix_post	2		12.0	40.0	2.5	/experiments/knapen_aot/videos/S_yt-4-u4Fw_J_q8_45.mp4	0.0	185.05118012428284	0.09996294975280762
43	119.97406101226807	fix_pre	0		15.0	41.0	2.5	blank	1.0	185.15114307403564	0.12499594688415527
43	120.09086203575134	response	0	2		41.0	2.5	blank	1.0	185.26794409751892	
43	120.09905695915222	movie	1		301.0	41.0	2.5	blank	1.0	185.2761390209198	2.5083611011505127
43	122.60741806030273	fix_post	2		12.0	41.0	2.5	blank	1.0	187.7845001220703	0.1000058650970459
44	122.70742392539978	fix_pre	0		41.0	42.0	2.5	/experiments/knapen_aot/videos/R_S_comp_GL_G004_C010_PSNK_v04_SDR_PS_FINAL_20180709_SDR_2K_AVC.mp4	0.0	187.88450598716736	0.34272003173828125
44	123.04088187217712	response	0	2		42.0	2.5	/experiments/knapen_aot/videos/R_S_comp_GL_G004_C010_PSNK_v04_SDR_PS_FINAL_20180709_SDR_2K_AVC.mp4	0.0	188.2179639339447	
44	123.05014395713806	movie	1		169.0	42.0	2.5	/experiments/knapen_aot/videos/R_S_comp_GL_G004_C010_PSNK_v04_SDR_PS_FINAL_20180709_SDR_2K_AVC.mp4	0.0	188.22722601890564	2.5072250366210938
44	125.55736899375916	fix_post	2		12.0	42.0	2.5	/experiments/knapen_aot/videos/R_S_comp_GL_G004_C010_PSNK_v04_SDR_PS_FINAL_20180709_SDR_2K_AVC.mp4	0.0	190.73445105552673	0.09996891021728516
45	125.65733790397644	fix_pre	0		4.0	43.0	2.5	/experiments/knapen_aot/videos/S_yt-ebajhZwlVJM_32.mp4	0.0	190.83441996574402	0.03335404396057129
45	125.68248391151428	response	0	2		43.0	2.5	/experiments/knapen_aot/videos/S_yt-ebajhZwlVJM_32.mp4	0.0	190.85956597328186	
45	125.69069194793701	movie	1		301.0	43.0	2.5	/experiments/knapen_aot/videos/S_yt-ebajhZwlVJM_32.mp4	0.0	190.8677740097046	2.5083389282226562
45	128.19903087615967	fix_post	2		12.0	43.0	2.5	/experiments/knapen_aot/videos/S_yt-ebajhZwlVJM_32.mp4	0.0	193.37611293792725	0.09992599487304688
46	128.29895687103271	fix_pre	0		21.0	44.0	2.5	/experiments/knapen_aot/videos/S_video_inspire_oregon_lone-ranch-beach_00015.1080-h264.mp4	0.0	193.4760389328003	0.17496418952941895
46	128.46574902534485	response	0	2		44.0	2.5	/experiments/knapen_aot/videos/S_video_inspire_oregon_lone-ranch-beach_00015.1080-h264.mp4	0.0	193.64283108711243	
46	128.47392106056213	movie	1		169.0	44.0	2.5	/experiments/knapen_aot/videos/S_video_inspire_oregon_lone-ranch-beach_00015.1080-h264.mp4	0.0	193.6510031223297	2.5084228515625
46	130.98234391212463	fix_post	2		12.0	44.0	2.5	/experiments/knapen_aot/videos/S_video_inspire_oregon_lone-ranch-beach_00015.1080-h264.mp4	0.0	196.1594259738922	0.09995698928833008
47	131.08230090141296	fix_pre	0		9.0	45.0	2.5	/experiments/knapen_aot/videos/R_S_yt-JDHApyT5ngs_128.mp4	0.0	196.25938296318054	0.07503509521484375
47	131.1491470336914	response	0	2		45.0	2.5	/experiments/knapen_aot/videos/R_S_yt-JDHApyT5ngs_128.mp4	0.0	196.32622909545898	
47	131.1573359966278	movie	1		301.0	45.0	2.5	/experiments/knapen_aot/videos/R_S_yt-JDHApyT5ngs_128.mp4	0.0	196.33441805839539	2.5083720684051514
47	133.66570806503296	fix_post	2		12.0	45.0	2.5	/experiments/knapen_aot/videos/R_S_yt-JDHApyT5ngs_128.mp4	0.0	198.84279012680054	0.09995484352111816
48	133.76566290855408	fix_pre	0		23.0	46.0	2.5	/experiments/knapen_aot/videos/R_S_3WAnGcPubBY_143.mp4	0.0	198.94274497032166	0.1916639804840088
48	133.94912886619568	response	0	2		46.0	2.5	/experiments/knapen_aot/videos/R_S_3WAnGcPubBY_143.mp4	0.0	199.12621092796326	
48	133.9573268890381	movie	1		301.0	46.0	2.5	/experiments/knapen_aot/videos/R_S_3WAnGcPubBY_143.mp4	0.0	199.13440895080566	2.508310079574585
48	136.46563696861267	fix_post	2		12.0	46.0	2.5	/experiments/knapen_aot/videos/R_S_3WAnGcPubBY_143.mp4	0.0	201.64271903038025	0.0999290943145752
49	136.56556606292725	fix_pre	0		6.0	47.0	2.5	blank	1.0	201.74264812469482	0.050221920013427734
49	136.60803198814392	response	0	2		47.0	2.5	blank	1.0	201.7851140499115	
49	136.61578798294067	movie	1		301.0	47.0	2.5	blank	1.0	201.79287004470825	2.5081989765167236
49	139.1239869594574	fix_post	2		12.0	47.0	2.5	blank	1.0	204.30106902122498	0.09991693496704102
50	139.22390389442444	fix_pre	0		46.0	48.0	2.5	/experiments/knapen_aot/videos/R_S_yt--Ou506YF3mY_106.mp4	0.0	204.40098595619202	0.3833119869232178
50	139.5990810394287	response	0	2		48.0	2.5	/experiments/knapen_aot/videos/R_S_yt--Ou506YF3mY_106.mp4	0.0	204.7761631011963	
50	139.60721588134766	movie	1		301.0	48.0	2.5	/experiments/knapen_aot/videos/R_S_yt--Ou506YF3mY_106.mp4	0.0	204.78429794311523	2.508424997329712
50	142.11564087867737	fix_post	2		12.0	48.0	2.5	/experiments/knapen_aot/videos/R_S_yt--Ou506YF3mY_106.mp4	0.0	207.29272294044495	0.0999760627746582
51	142.21561694145203	fix_pre	0		14.0	49.0	2.5	/experiments/knapen_aot/videos/R_S_yt-LUIvP_NDWAs_45.mp4	0.0	207.3926990032196	0.11668705940246582
51	142.32411789894104	response	0	2		49.0	2.5	/experiments/knapen_aot/videos/R_S_yt-LUIvP_NDWAs_45.mp4	0.0	207.50119996070862	
51	142.3323040008545	movie	1		301.0	49.0	2.5	/experiments/knapen_aot/videos/R_S_yt-LUIvP_NDWAs_45.mp4	0.0	207.50938606262207	2.5083370208740234
51	144.84064102172852	fix_post	2		12.0	49.0	2.5	/experiments/knapen_aot/videos/R_S_yt-LUIvP_NDWAs_45.mp4	0.0	210.0177230834961	0.09996986389160156
52	144.94061088562012	fix_pre	0		14.0	50.0	2.5	/experiments/knapen_aot/videos/R_S_yt-PK-Eip9wFr0_24.mp4	0.0	210.1176929473877	0.1166219711303711
52	145.04909801483154	response	0	2		50.0	2.5	/experiments/knapen_aot/videos/R_S_yt-PK-Eip9wFr0_24.mp4	0.0	210.22618007659912	
52	145.0572328567505	movie	1		301.0	50.0	2.5	/experiments/knapen_aot/videos/R_S_yt-PK-Eip9wFr0_24.mp4	0.0	210.23431491851807	2.5083861351013184
52	147.5656189918518	fix_post	2		12.0	50.0	2.5	/experiments/knapen_aot/videos/R_S_yt-PK-Eip9wFr0_24.mp4	0.0	212.74270105361938	0.1000058650970459
53	147.66562485694885	fix_pre	0		6.0	51.0	2.5	/experiments/knapen_aot/videos/R_S_yt-n6aLw10f2Yw_317.mp4	0.0	212.84270691871643	0.05088210105895996
53	147.70733904838562	response	0	2		51.0	2.5	/experiments/knapen_aot/videos/R_S_yt-n6aLw10f2Yw_317.mp4	0.0	212.8844211101532	
53	147.7165069580078	movie	1		301.0	51.0	2.5	/experiments/knapen_aot/videos/R_S_yt-n6aLw10f2Yw_317.mp4	0.0	212.8935890197754	2.5074429512023926
53	150.2239499092102	fix_post	2		12.0	51.0	2.5	/experiments/knapen_aot/videos/R_S_yt-n6aLw10f2Yw_317.mp4	0.0	215.40103197097778	0.10002803802490234
54	150.3239779472351	fix_pre	0		3.0	52.0	2.5	/experiments/knapen_aot/videos/R_S_comp_A007_C017_01156B_v02_SDR_PS_20180925_SDR_2K_AVC.mp4	0.0	215.50106000900269	0.02493596076965332
54	150.3407940864563	response	0	2		52.0	2.5	/experiments/knapen_aot/videos/R_S_comp_A007_C017_01156B_v02_SDR_PS_20180925_SDR_2K_AVC.mp4	0.0	215.51787614822388	
54	150.34891390800476	movie	1		166.0	52.0	2.5	/experiments/knapen_aot/videos/R_S_comp_A007_C017_01156B_v02_SDR_PS_20180925_SDR_2K_AVC.mp4	0.0	215.52599596977234	2.5083789825439453
54	152.8572928905487	fix_post	2		12.0	52.0	2.5	/experiments/knapen_aot/videos/R_S_comp_A007_C017_01156B_v02_SDR_PS_20180925_SDR_2K_AVC.mp4	0.0	218.03437495231628	0.10001707077026367
55	152.95730996131897	fix_pre	0		7.0	53.0	2.5	/experiments/knapen_aot/videos/S_FZ0hLmjCR0s_26.mp4	0.0	218.13439202308655	0.058370113372802734
55	153.00847005844116	response	0	2		53.0	2.5	/experiments/knapen_aot/videos/S_FZ0hLmjCR0s_26.mp4	0.0	218.18555212020874	
55	153.01568007469177	movie	1		300.0	53.0	2.5	/experiments/knapen_aot/videos/S_FZ0hLmjCR0s_26.mp4	0.0	218.19276213645935	2.508208990097046
55	155.52388906478882	fix_post	2		12.0	53.0	2.5	/experiments/knapen_aot/videos/S_FZ0hLmjCR0s_26.mp4	0.0	220.7009711265564	0.09999489784240723
56	155.62388396263123	fix_pre	0		4.0	54.0	2.5	blank	1.0	220.8009660243988	0.03339195251464844
56	155.64901304244995	response	0	2		54.0	2.5	blank	1.0	220.82609510421753	
56	155.65727591514587	movie	1		301.0	54.0	2.5	blank	1.0	220.83435797691345	2.5082919597625732
56	158.16556787490845	fix_post	2		12.0	54.0	2.5	blank	1.0	223.34264993667603	0.1000661849975586
57	158.265634059906	fix_pre	0		18.0	55.0	2.5	/experiments/knapen_aot/videos/R_S_yt-2ZsK7zSCJ2w_67.mp4	0.0	223.44271612167358	0.149871826171875
57	158.4073429107666	response	0	2		55.0	2.5	/experiments/knapen_aot/videos/R_S_yt-2ZsK7zSCJ2w_67.mp4	0.0	223.58442497253418	
57	158.41550588607788	movie	1		301.0	55.0	2.5	/experiments/knapen_aot/videos/R_S_yt-2ZsK7zSCJ2w_67.mp4	0.0	223.59258794784546	2.508423089981079
57	160.92392897605896	fix_post	2		12.0	55.0	2.5	/experiments/knapen_aot/videos/R_S_yt-2ZsK7zSCJ2w_67.mp4	0.0	226.10101103782654	0.09996891021728516
58	161.02389788627625	fix_pre	0		41.0	56.0	2.5	/experiments/knapen_aot/videos/S_video-2_copy.mp4	0.0	226.20097994804382	0.3416140079498291
58	161.34992003440857	response	0	2		56.0	2.5	/experiments/knapen_aot/videos/S_video-2_copy.mp4	0.0	226.52700209617615	
58	161.36551189422607	movie	1		167.0	56.0	2.5	/experiments/knapen_aot/videos/S_video-2_copy.mp4	0.0	226.54259395599365	2.5082950592041016
58	163.87380695343018	fix_post	2		12.0	56.0	2.5	/experiments/knapen_aot/videos/S_video-2_copy.mp4	0.0	229.05088901519775	0.10007691383361816
59	163.9738838672638	fix_pre	0		20.0	57.0	2.5	/experiments/knapen_aot/videos/S_yt-XY1n_Oze1kQ_9.mp4	0.0	229.15096592903137	0.16663312911987305
59	164.13231801986694	response	0	2		57.0	2.5	/experiments/knapen_aot/videos/S_yt-XY1n_Oze1kQ_9.mp4	0.0	229.30940008163452	
59	164.14051699638367	movie	1		301.0	57.0	2.5	/experiments/knapen_aot/videos/S_yt-XY1n_Oze1kQ_9.mp4	0.0	229.31759905815125	2.508302927017212
59	166.64881992340088	fix_post	2		12.0	57.0	2.5	/experiments/knapen_aot/videos/S_yt-XY1n_Oze1kQ_9.mp4	0.0	231.82590198516846	0.10000205039978027
60	166.74882197380066	fix_pre	0		11.0	58.0	2.5	/experiments/knapen_aot/videos/S_yt-5hgLXyLw82w_23.mp4	0.0	231.92590403556824	0.09250593185424805
60	166.83230185508728	response	0	2		58.0	2.5	/experiments/knapen_aot/videos/S_yt-5hgLXyLw82w_23.mp4	0.0	232.00938391685486	
60	166.8413279056549	movie	1		301.0	58.0	2.5	/experiments/knapen_aot/videos/S_yt-5hgLXyLw82w_23.mp4	0.0	232.01840996742249	2.5075290203094482
60	169.34885692596436	fix_post	2		12.0	58.0	2.5	/experiments/knapen_aot/videos/S_yt-5hgLXyLw82w_23.mp4	0.0	234.52593898773193	0.10000896453857422
61	169.44886589050293	fix_pre	0		21.0	59.0	2.5	/experiments/knapen_aot/videos/S_FZ0hLmjCR0s_26.mp4	0.0	234.6259479522705	0.1749720573425293
61	169.61569690704346	response	0	2		59.0	2.5	/experiments/knapen_aot/videos/S_FZ0hLmjCR0s_26.mp4	0.0	234.79277896881104	
61	169.62383794784546	movie	1		301.0	59.0	2.5	/experiments/knapen_aot/videos/S_FZ0hLmjCR0s_26.mp4	0.0	234.80092000961304	2.508336067199707
61	172.13217401504517	fix_post	2		12.0	59.0	2.5	/experiments/knapen_aot/videos/S_FZ0hLmjCR0s_26.mp4	0.0	237.30925607681274	0.09999489784240723
62	172.23216891288757	fix_pre	0		2.0	60.0	2.5	/experiments/knapen_aot/videos/S_yt-J2PiBa1MXI0_210.mp4	0.0	237.40925097465515	0.016642093658447266
62	172.23458790779114	response	0	2		60.0	2.5	/experiments/knapen_aot/videos/S_yt-J2PiBa1MXI0_210.mp4	0.0	237.41166996955872	
62	172.24881100654602	movie	1		301.0	60.0	2.5	/experiments/knapen_aot/videos/S_yt-J2PiBa1MXI0_210.mp4	0.0	237.4258930683136	2.508328914642334
62	174.75713992118835	fix_post	2		12.0	60.0	2.5	/experiments/knapen_aot/videos/S_yt-J2PiBa1MXI0_210.mp4	0.0	239.93422198295593	0.0999751091003418
63	174.8571150302887	fix_pre	0		20.0	61.0	2.5	/experiments/knapen_aot/videos/R_S_ILSVRC2015_train_00549000.mp4	0.0	240.03419709205627	0.1667318344116211
63	175.01563501358032	response	0	2		61.0	2.5	/experiments/knapen_aot/videos/R_S_ILSVRC2015_train_00549000.mp4	0.0	240.1927170753479	
63	175.02384686470032	movie	1		301.0	61.0	2.5	/experiments/knapen_aot/videos/R_S_ILSVRC2015_train_00549000.mp4	0.0	240.2009289264679	2.5083141326904297
63	177.53216099739075	fix_post	2		12.0	61.0	2.5	/experiments/knapen_aot/videos/R_S_ILSVRC2015_train_00549000.mp4	0.0	242.70924305915833	0.0999760627746582
64	177.6321370601654	fix_pre	0		7.0	62.0	2.5	/experiments/knapen_aot/videos/S_ILSVRC2015_train_00425000.mp4	0.0	242.80921912193298	0.05827498435974121
64	177.6823170185089	response	0	2		62.0	2.5	/experiments/knapen_aot/videos/S_ILSVRC2015_train_00425000.mp4	0.0	242.8593990802765	
64	177.69041204452515	movie	1		301.0	62.0	2.5	/experiments/knapen_aot/videos/S_ILSVRC2015_train_00425000.mp4	0.0	242.86749410629272	2.508358955383301
64	180.19877099990845	fix_post	2		12.0	62.0	2.5	/experiments/knapen_aot/videos/S_ILSVRC2015_train_00425000.mp4	0.0	245.37585306167603	0.10003995895385742
65	180.2988109588623	fix_pre	0		12.0	63.0	2.5	blank	1.0	245.47589302062988	0.1000070571899414
65	180.390606880188	response	0	2		63.0	2.5	blank	1.0	245.56768894195557	
65	180.39881801605225	movie	1		301.0	63.0	2.5	blank	1.0	245.57590007781982	2.508307933807373
65	182.90712594985962	fix_post	2		12.0	63.0	2.5	blank	1.0	248.0842080116272	0.10002803802490234
66	183.00715398788452	fix_pre	0		23.0	64.0	2.5	/experiments/knapen_aot/videos/R_S_yt-ebylvieB_4g_16.mp4	0.0	248.1842360496521	0.19152402877807617
66	183.1906020641327	response	0	2		64.0	2.5	/experiments/knapen_aot/videos/R_S_yt-ebylvieB_4g_16.mp4	0.0	248.36768412590027	
66	183.1986780166626	movie	1		301.0	64.0	2.5	/experiments/knapen_aot/videos/R_S_yt-ebylvieB_4g_16.mp4	0.0	248.37576007843018	2.5085289478302
66	185.7072069644928	fix_post	2		12.0	64.0	2.5	/experiments/knapen_aot/videos/R_S_yt-ebylvieB_4g_16.mp4	0.0	250.88428902626038	0.09991908073425293
66	185.75728607177734	response	2	2		64.0	2.5	/experiments/knapen_aot/videos/R_S_yt-ebylvieB_4g_16.mp4	0.0	250.93436813354492	
67	185.80712604522705	fix_pre	0		52.0	65.0	2.5	/experiments/knapen_aot/videos/S_pexels-cottonbro-10639398.mp4	0.0	250.98420810699463	0.43332695960998535
67	186.23222708702087	response	0	2		65.0	2.5	/experiments/knapen_aot/videos/S_pexels-cottonbro-10639398.mp4	0.0	251.40930914878845	
67	186.24045300483704	movie	1		193.0	65.0	2.5	/experiments/knapen_aot/videos/S_pexels-cottonbro-10639398.mp4	0.0	251.41753506660461	2.5083000659942627
67	188.7487530708313	fix_post	2		12.0	65.0	2.5	/experiments/knapen_aot/videos/S_pexels-cottonbro-10639398.mp4	0.0	253.92583513259888	0.09994983673095703
68	188.84870290756226	fix_pre	0		2.0	66.0	2.5	/experiments/knapen_aot/videos/S_production_ID_4540332.mp4	0.0	254.02578496932983	0.016715049743652344
68	188.85724091529846	response	0	2		66.0	2.5	/experiments/knapen_aot/videos/S_production_ID_4540332.mp4	0.0	254.03432297706604	
68	188.8654179573059	movie	1		166.0	66.0	2.5	/experiments/knapen_aot/videos/S_production_ID_4540332.mp4	0.0	254.0425000190735	2.508418083190918
68	191.37383604049683	fix_post	2		12.0	66.0	2.5	/experiments/knapen_aot/videos/S_production_ID_4540332.mp4	0.0	256.5509181022644	0.09988903999328613
69	191.4737250804901	fix_pre	0		13.0	67.0	2.5	/experiments/knapen_aot/videos/S_yt-2ZsK7zSCJ2w_67.mp4	0.0	256.6508071422577	0.10836577415466309
69	191.57384395599365	response	0	2		67.0	2.5	/experiments/knapen_aot/videos/S_yt-2ZsK7zSCJ2w_67.mp4	0.0	256.75092601776123	
69	191.58209085464478	movie	1		301.0	67.0	2.5	/experiments/knapen_aot/videos/S_yt-2ZsK7zSCJ2w_67.mp4	0.0	256.75917291641235	2.5082461833953857
69	194.09033703804016	fix_post	2		12.0	67.0	2.5	/experiments/knapen_aot/videos/S_yt-2ZsK7zSCJ2w_67.mp4	0.0	259.26741909980774	0.10004281997680664
70	194.19037985801697	fix_pre	0		20.0	68.0	2.5	/experiments/knapen_aot/videos/S_yt-kiEFK7bDssE_14.mp4	0.0	259.36746191978455	0.16670823097229004
70	194.348895072937	response	0	2		68.0	2.5	/experiments/knapen_aot/videos/S_yt-kiEFK7bDssE_14.mp4	0.0	259.5259771347046	
70	194.35708808898926	movie	1		301.0	68.0	2.5	/experiments/knapen_aot/videos/S_yt-kiEFK7bDssE_14.mp4	0.0	259.53417015075684	2.5083107948303223
70	196.86539888381958	fix_post	2		12.0	68.0	2.5	/experiments/knapen_aot/videos/S_yt-kiEFK7bDssE_14.mp4	0.0	262.04248094558716	0.10065913200378418
71	196.96605801582336	fix_pre	0		7.0	69.0	2.5	blank	1.0	262.14314007759094	0.057652950286865234
71	197.01560807228088	response	0	2		69.0	2.5	blank	1.0	262.19269013404846	
71	197.02371096611023	movie	1		301.0	69.0	2.5	blank	1.0	262.2007930278778	2.5083670616149902
71	199.53207802772522	fix_post	2		12.0	69.0	2.5	blank	1.0	264.7091600894928	0.10063290596008301
72	199.6327109336853	fix_pre	0		27.0	70.0	2.5	/experiments/knapen_aot/videos/R_S_yt-mMnlzv6cfH4_134.mp4	0.0	264.8097929954529	0.22429203987121582
72	199.84880995750427	response	0	2		70.0	2.5	/experiments/knapen_aot/videos/R_S_yt-mMnlzv6cfH4_134.mp4	0.0	265.02589201927185	
72	199.85700297355652	movie	1		301.0	70.0	2.5	/experiments/knapen_aot/videos/R_S_yt-mMnlzv6cfH4_134.mp4	0.0	265.0340850353241	2.5083250999450684
72	202.3653280735016	fix_post	2		12.0	70.0	2.5	/experiments/knapen_aot/videos/R_S_yt-mMnlzv6cfH4_134.mp4	0.0	267.54241013526917	0.10007286071777344
73	202.46540093421936	fix_pre	0		16.0	71.0	2.5	/experiments/knapen_aot/videos/R_S_yt-2l6VKd94eAI_151.mp4	0.0	267.64248299598694	0.13329410552978516
73	202.59046602249146	response	0	2		71.0	2.5	/experiments/knapen_aot/videos/R_S_yt-2l6VKd94eAI_151.mp4	0.0	267.76754808425903	
73	202.59869503974915	movie	1		301.0	71.0	2.5	/experiments/knapen_aot/videos/R_S_yt-2l6VKd94eAI_151.mp4	0.0	267.7757771015167	2.5083529949188232
73	205.10704803466797	fix_post	2		12.0	71.0	2.5	/experiments/knapen_aot/videos/R_S_yt-2l6VKd94eAI_151.mp4	0.0	270.28413009643555	0.09999895095825195
74	205.20704698562622	fix_pre	0		9.0	72.0	2.5	/experiments/knapen_aot/videos/R_S_yt-zh2yLr-o_8A_953.mp4	0.0	270.3841290473938	0.07499194145202637
74	205.27384686470032	response	0	2		72.0	2.5	/experiments/knapen_aot/videos/R_S_yt-zh2yLr-o_8A_953.mp4	0.0	270.4509289264679	
74	205.28203892707825	movie	1		301.0	72.0	2.5	/experiments/knapen_aot/videos/R_S_yt-zh2yLr-o_8A_953.mp4	0.0	270.4591209888458	2.508341073989868
74	207.79038000106812	fix_post	2		12.0	72.0	2.5	/experiments/knapen_aot/videos/R_S_yt-zh2yLr-o_8A_953.mp4	0.0	272.9674620628357	0.10001802444458008
75	207.8903980255127	fix_pre	0		17.0	73.0	2.5	/experiments/knapen_aot/videos/R_S_yt-9pYW_TqVpU4_43.mp4	0.0	273.0674800872803	0.14161896705627441
75	208.02380990982056	response	0	2		73.0	2.5	/experiments/knapen_aot/videos/R_S_yt-9pYW_TqVpU4_43.mp4	0.0	273.20089197158813	
75	208.03201699256897	movie	1		301.0	73.0	2.5	/experiments/knapen_aot/videos/R_S_yt-9pYW_TqVpU4_43.mp4	0.0	273.20909905433655	2.5083389282226562
75	210.54035592079163	fix_post	2		12.0	73.0	2.5	/experiments/knapen_aot/videos/R_S_yt-9pYW_TqVpU4_43.mp4	0.0	275.7174379825592	0.10005497932434082
76	210.64041090011597	fix_pre	0		6.0	74.0	2.5	/experiments/knapen_aot/videos/R_S_yt-78k6vUHDWAI_206.mp4	0.0	275.81749296188354	0.04990696907043457
76	210.68217206001282	response	0	2		74.0	2.5	/experiments/knapen_aot/videos/R_S_yt-78k6vUHDWAI_206.mp4	0.0	275.8592541217804	
76	210.6903178691864	movie	1		301.0	74.0	2.5	/experiments/knapen_aot/videos/R_S_yt-78k6vUHDWAI_206.mp4	0.0	275.867399930954	2.508319139480591
76	213.198637008667	fix_post	2		12.0	74.0	2.5	/experiments/knapen_aot/videos/R_S_yt-78k6vUHDWAI_206.mp4	0.0	278.37571907043457	0.0999598503112793
76	213.21544194221497	response	2	2		74.0	2.5	/experiments/knapen_aot/videos/R_S_yt-78k6vUHDWAI_206.mp4	0.0	278.39252400398254	
77	213.29859685897827	fix_pre	0		48.0	75.0	2.5	/experiments/knapen_aot/videos/S_yt-0Ut9QANGX20_35.mp4	0.0	278.47567892074585	0.4001021385192871
77	213.69042801856995	response	0	2		75.0	2.5	/experiments/knapen_aot/videos/S_yt-0Ut9QANGX20_35.mp4	0.0	278.8675100803375	
77	213.69869899749756	movie	1		301.0	75.0	2.5	/experiments/knapen_aot/videos/S_yt-0Ut9QANGX20_35.mp4	0.0	278.87578105926514	2.5082480907440186
77	216.20694708824158	fix_post	2		12.0	75.0	2.5	/experiments/knapen_aot/videos/S_yt-0Ut9QANGX20_35.mp4	0.0	281.38402915000916	0.10004496574401855
78	216.3069920539856	fix_pre	0		11.0	76.0	2.5	/experiments/knapen_aot/videos/S_yt--vHa85DHvLU_31.mp4	0.0	281.4840741157532	0.09169983863830566
78	216.39040899276733	response	0	2		76.0	2.5	/experiments/knapen_aot/videos/S_yt--vHa85DHvLU_31.mp4	0.0	281.5674910545349	
78	216.3986918926239	movie	1		301.0	76.0	2.5	/experiments/knapen_aot/videos/S_yt--vHa85DHvLU_31.mp4	0.0	281.5757739543915	2.508226156234741
78	218.90691804885864	fix_post	2		12.0	76.0	2.5	/experiments/knapen_aot/videos/S_yt--vHa85DHvLU_31.mp4	0.0	284.0840001106262	0.10006093978881836
79	219.00697898864746	fix_pre	0		6.0	77.0	2.5	blank	1.0	284.18406105041504	0.050024986267089844
79	219.0488350391388	response	0	2		77.0	2.5	blank	1.0	284.2259171009064	
79	219.05700397491455	movie	1		301.0	77.0	2.5	blank	1.0	284.23408603668213	2.5082790851593018
79	221.56528306007385	fix_post	2		12.0	77.0	2.5	blank	1.0	286.74236512184143	0.09994792938232422
80	221.66523098945618	fix_pre	0		25.0	78.0	2.5	/experiments/knapen_aot/videos/R_S_production_ID_4154238.mp4	0.0	286.84231305122375	0.2083280086517334
80	221.8653860092163	response	0	2		78.0	2.5	/experiments/knapen_aot/videos/R_S_production_ID_4154238.mp4	0.0	287.0424680709839	
80	221.8735589981079	movie	1		196.0	78.0	2.5	/experiments/knapen_aot/videos/R_S_production_ID_4154238.mp4	0.0	287.0506410598755	2.5084168910980225
80	224.38197588920593	fix_post	2		12.0	78.0	2.5	/experiments/knapen_aot/videos/R_S_production_ID_4154238.mp4	0.0	289.5590579509735	0.09999203681945801
81	224.4819679260254	fix_pre	0		28.0	79.0	2.5	/experiments/knapen_aot/videos/S_yt-JDHApyT5ngs_128.mp4	0.0	289.65904998779297	0.23378801345825195
81	224.7071418762207	response	0	2		79.0	2.5	/experiments/knapen_aot/videos/S_yt-JDHApyT5ngs_128.mp4	0.0	289.8842239379883	
81	224.71575593948364	movie	1		300.0	79.0	2.5	/experiments/knapen_aot/videos/S_yt-JDHApyT5ngs_128.mp4	0.0	289.8928380012512	2.5078351497650146
81	227.22359108924866	fix_post	2		12.0	79.0	2.5	/experiments/knapen_aot/videos/S_yt-JDHApyT5ngs_128.mp4	0.0	292.40067315101624	0.09998583793640137
82	227.32357692718506	fix_pre	0		28.0	80.0	2.5	/experiments/knapen_aot/videos/S_yt-RWN5qOIgqec_25.mp4	0.0	292.50065898895264	0.23330998420715332
82	227.54873299598694	response	0	2		80.0	2.5	/experiments/knapen_aot/videos/S_yt-RWN5qOIgqec_25.mp4	0.0	292.7258150577545	
82	227.5568869113922	movie	1		301.0	80.0	2.5	/experiments/knapen_aot/videos/S_yt-RWN5qOIgqec_25.mp4	0.0	292.7339689731598	2.5083720684051514
82	230.06525897979736	fix_post	2		12.0	80.0	2.5	/experiments/knapen_aot/videos/S_yt-RWN5qOIgqec_25.mp4	0.0	295.24234104156494	0.09994006156921387
83	230.16519904136658	fix_pre	0		7.0	81.0	2.5	/experiments/knapen_aot/videos/R_S_production_ID_4707837.mp4	0.0	295.34228110313416	0.05838203430175781
83	230.21601796150208	response	0	2		81.0	2.5	/experiments/knapen_aot/videos/R_S_production_ID_4707837.mp4	0.0	295.39310002326965	
83	230.22358107566833	movie	1		170.0	81.0	2.5	/experiments/knapen_aot/videos/R_S_production_ID_4707837.mp4	0.0	295.4006631374359	2.508366823196411
83	232.73194789886475	fix_post	2		12.0	81.0	2.5	/experiments/knapen_aot/videos/R_S_production_ID_4707837.mp4	0.0	297.9090299606323	0.09998202323913574
84	232.83192992210388	fix_pre	0		4.0	82.0	2.5	blank	1.0	298.00901198387146	0.033345937728881836
84	232.85706400871277	response	0	2		82.0	2.5	blank	1.0	298.03414607048035	
84	232.86527585983276	movie	1		301.0	82.0	2.5	blank	1.0	298.04235792160034	2.5082411766052246
84	235.373517036438	fix_post	2		12.0	82.0	2.5	blank	1.0	300.55059909820557	0.10004901885986328
85	235.47356605529785	fix_pre	0		18.0	83.0	2.5	/experiments/knapen_aot/videos/S_yt-yAtHuDsadu8_102.mp4	0.0	300.65064811706543	0.1499488353729248
85	235.61533308029175	response	0	2		83.0	2.5	/experiments/knapen_aot/videos/S_yt-yAtHuDsadu8_102.mp4	0.0	300.7924151420593	
85	235.62351489067078	movie	1		301.0	83.0	2.5	/experiments/knapen_aot/videos/S_yt-yAtHuDsadu8_102.mp4	0.0	300.80059695243835	2.5082969665527344
85	238.1318118572235	fix_post	2		12.0	83.0	2.5	/experiments/knapen_aot/videos/S_yt-yAtHuDsadu8_102.mp4	0.0	303.3088939189911	0.1000821590423584
87	238.23189401626587	stim	0		550.0					303.40897607803345	4.583343029022217
87	238.28404092788696	response	0	2						303.46112298965454	
87	242.80461502075195	response	0	space						307.98169708251953	
