trial_nr	onset	event_type	phase	response	nr_frames	movie_index	movie_duration	movie_file	blank	onset_abs	duration
0	0.1582181453704834	stim	0		23.0					62.81427812576294	0.19437694549560547
0	0.3417191505432129	response	0	space						62.99777913093567	
1	0.35259509086608887	stim	0		121.0					63.008655071258545	1.0052671432495117
1	1.0916931629180908	response	0	space						63.74775314331055	
1	1.3578622341156006	stim	1		120.0					64.01392221450806	1.0000739097595215
2	2.357936143875122	fix_pre	0		35.0	0.0	2.5	/experiments/knapen_aot/videos/S_yt-3TF_RGo9cLs_541.mp4	0.0	65.01399612426758	0.2928900718688965
2	2.64136004447937	response	0	space		0.0	2.5	/experiments/knapen_aot/videos/S_yt-3TF_RGo9cLs_541.mp4	0.0	65.29742002487183	
2	2.6508262157440186	movie	1		301.0	0.0	2.5	/experiments/knapen_aot/videos/S_yt-3TF_RGo9cLs_541.mp4	0.0	65.30688619613647	2.507056951522827
2	5.157883167266846	fix_post	2		12.0	0.0	2.5	/experiments/knapen_aot/videos/S_yt-3TF_RGo9cLs_541.mp4	0.0	67.8139431476593	0.10001206398010254
3	5.257895231246948	fix_pre	0		9.0	1.0	2.5	/experiments/knapen_aot/videos/R_S_yt-uX7qYKQm_pg_277.mp4	0.0	67.9139552116394	0.07498598098754883
3	5.327921152114868	response	0	2		1.0	2.5	/experiments/knapen_aot/videos/R_S_yt-uX7qYKQm_pg_277.mp4	0.0	67.98398113250732	
3	5.332881212234497	movie	1		298.0	1.0	2.5	/experiments/knapen_aot/videos/R_S_yt-uX7qYKQm_pg_277.mp4	0.0	67.98894119262695	2.5083298683166504
3	7.8412110805511475	fix_post	2		12.0	1.0	2.5	/experiments/knapen_aot/videos/R_S_yt-uX7qYKQm_pg_277.mp4	0.0	70.4972710609436	0.10001802444458008
4	7.9412291049957275	fix_pre	0		11.0	2.0	2.5	/experiments/knapen_aot/videos/S_yt-BJsMGxfjrZk_59.mp4	0.0	70.59728908538818	0.09162092208862305
4	8.024717092514038	response	0	2		2.0	2.5	/experiments/knapen_aot/videos/S_yt-BJsMGxfjrZk_59.mp4	0.0	70.6807770729065	
4	8.03285002708435	movie	1		301.0	2.0	2.5	/experiments/knapen_aot/videos/S_yt-BJsMGxfjrZk_59.mp4	0.0	70.6889100074768	2.5083250999450684
4	10.541175127029419	fix_post	2		12.0	2.0	2.5	/experiments/knapen_aot/videos/S_yt-BJsMGxfjrZk_59.mp4	0.0	73.19723510742188	0.09998488426208496
4	10.632938146591187	response	2	2		2.0	2.5	/experiments/knapen_aot/videos/S_yt-BJsMGxfjrZk_59.mp4	0.0	73.28899812698364	
5	10.641160011291504	fix_pre	0		37.0	3.0	2.5	/experiments/knapen_aot/videos/S_yt-etF_WUW5D68_3.mp4	0.0	73.29721999168396	0.308366060256958
5	10.94128704071045	response	0	2		3.0	2.5	/experiments/knapen_aot/videos/S_yt-etF_WUW5D68_3.mp4	0.0	73.5973470211029	
5	10.949526071548462	movie	1		301.0	3.0	2.5	/experiments/knapen_aot/videos/S_yt-etF_WUW5D68_3.mp4	0.0	73.60558605194092	2.508310079574585
5	13.457836151123047	fix_post	2		12.0	3.0	2.5	/experiments/knapen_aot/videos/S_yt-etF_WUW5D68_3.mp4	0.0	76.1138961315155	0.10007095336914062
6	13.557907104492188	fix_pre	0		5.0	4.0	2.5	/experiments/knapen_aot/videos/S_ILSVRC2015_train_00369004.mp4	0.0	76.21396708488464	0.041654109954833984
6	13.591346025466919	response	0	2		4.0	2.5	/experiments/knapen_aot/videos/S_ILSVRC2015_train_00369004.mp4	0.0	76.24740600585938	
6	13.599561214447021	movie	1		301.0	4.0	2.5	/experiments/knapen_aot/videos/S_ILSVRC2015_train_00369004.mp4	0.0	76.25562119483948	2.5082919597625732
6	16.107853174209595	fix_post	2		12.0	4.0	2.5	/experiments/knapen_aot/videos/S_ILSVRC2015_train_00369004.mp4	0.0	78.76391315460205	0.09993290901184082
7	16.207786083221436	fix_pre	0		4.0	5.0	2.5	/experiments/knapen_aot/videos/R_S_comp_H005_C012_PS_v01_SDR_PS_20180925_SDR_2K_AVC.mp4	0.0	78.86384606361389	0.033419132232666016
7	16.233044147491455	response	0	2		5.0	2.5	/experiments/knapen_aot/videos/R_S_comp_H005_C012_PS_v01_SDR_PS_20180925_SDR_2K_AVC.mp4	0.0	78.88910412788391	
7	16.2412052154541	movie	1		166.0	5.0	2.5	/experiments/knapen_aot/videos/R_S_comp_H005_C012_PS_v01_SDR_PS_20180925_SDR_2K_AVC.mp4	0.0	78.89726519584656	2.508312940597534
7	18.749518156051636	fix_post	2		12.0	5.0	2.5	/experiments/knapen_aot/videos/R_S_comp_H005_C012_PS_v01_SDR_PS_20180925_SDR_2K_AVC.mp4	0.0	81.40557813644409	0.09993505477905273
8	18.84945321083069	fix_pre	0		6.0	6.0	2.5	/experiments/knapen_aot/videos/S_9smWynsk6sI_158.mp4	0.0	81.50551319122314	0.05130791664123535
8	18.891284227371216	response	0	2		6.0	2.5	/experiments/knapen_aot/videos/S_9smWynsk6sI_158.mp4	0.0	81.54734420776367	
8	18.900761127471924	movie	1		301.0	6.0	2.5	/experiments/knapen_aot/videos/S_9smWynsk6sI_158.mp4	0.0	81.55682110786438	2.5070879459381104
8	21.407849073410034	fix_post	2		12.0	6.0	2.5	/experiments/knapen_aot/videos/S_9smWynsk6sI_158.mp4	0.0	84.06390905380249	0.09999203681945801
9	21.507841110229492	fix_pre	0		11.0	7.0	2.5	blank	1.0	84.16390109062195	0.09167194366455078
9	21.59135103225708	response	0	2		7.0	2.5	blank	1.0	84.24741101264954	
9	21.599513053894043	movie	1		301.0	7.0	2.5	blank	1.0	84.2555730342865	2.50826096534729
9	24.107774019241333	fix_post	2		12.0	7.0	2.5	blank	1.0	86.76383399963379	0.10007500648498535
10	24.20784902572632	fix_pre	0		27.0	8.0	2.5	/experiments/knapen_aot/videos/S_yt-N7ztk2fa3Ls_137.mp4	0.0	86.86390900611877	0.23450803756713867
10	24.43297505378723	response	0	2		8.0	2.5	/experiments/knapen_aot/videos/S_yt-N7ztk2fa3Ls_137.mp4	0.0	87.08903503417969	
10	24.442357063293457	movie	1		301.0	8.0	2.5	/experiments/knapen_aot/videos/S_yt-N7ztk2fa3Ls_137.mp4	0.0	87.09841704368591	2.507094144821167
10	26.79412817955017	response	1	2		8.0	2.5	/experiments/knapen_aot/videos/S_yt-N7ztk2fa3Ls_137.mp4	0.0	89.45018815994263	
10	26.949451208114624	fix_post	2		12.0	8.0	2.5	/experiments/knapen_aot/videos/S_yt-N7ztk2fa3Ls_137.mp4	0.0	89.60551118850708	0.10004591941833496
11	27.04949712753296	fix_pre	0		14.0	9.0	2.5	/experiments/knapen_aot/videos/S_yt-HwGg4-zeWi8_364.mp4	0.0	89.70555710792542	0.1166079044342041
11	27.158000230789185	response	0	2		9.0	2.5	/experiments/knapen_aot/videos/S_yt-HwGg4-zeWi8_364.mp4	0.0	89.81406021118164	
11	27.166105031967163	movie	1		301.0	9.0	2.5	/experiments/knapen_aot/videos/S_yt-HwGg4-zeWi8_364.mp4	0.0	89.82216501235962	2.5083441734313965
11	29.67444920539856	fix_post	2		12.0	9.0	2.5	/experiments/knapen_aot/videos/S_yt-HwGg4-zeWi8_364.mp4	0.0	92.33050918579102	0.09999799728393555
12	29.774447202682495	fix_pre	0		9.0	10.0	2.5	/experiments/knapen_aot/videos/R_S_ILSVRC2015_train_00441000.mp4	0.0	92.43050718307495	0.07497596740722656
12	29.841275215148926	response	0	2		10.0	2.5	/experiments/knapen_aot/videos/R_S_ILSVRC2015_train_00441000.mp4	0.0	92.49733519554138	
12	29.84942317008972	movie	1		301.0	10.0	2.5	/experiments/knapen_aot/videos/R_S_ILSVRC2015_train_00441000.mp4	0.0	92.50548315048218	2.5083658695220947
12	32.357789039611816	fix_post	2		12.0	10.0	2.5	/experiments/knapen_aot/videos/R_S_ILSVRC2015_train_00441000.mp4	0.0	95.01384902000427	0.09999608993530273
13	32.45778512954712	fix_pre	0		12.0	11.0	2.5	/experiments/knapen_aot/videos/R_S_yt-K-iCphzt_RE_17.mp4	0.0	95.11384510993958	0.0999898910522461
13	32.549522161483765	response	0	2		11.0	2.5	/experiments/knapen_aot/videos/R_S_yt-K-iCphzt_RE_17.mp4	0.0	95.20558214187622	
13	32.557775020599365	movie	1		300.0	11.0	2.5	/experiments/knapen_aot/videos/R_S_yt-K-iCphzt_RE_17.mp4	0.0	95.21383500099182	2.508355140686035
13	35.0661301612854	fix_post	2		12.0	11.0	2.5	/experiments/knapen_aot/videos/R_S_yt-K-iCphzt_RE_17.mp4	0.0	97.72219014167786	0.09994888305664062
14	35.16607904434204	fix_pre	0		14.0	12.0	2.5	/experiments/knapen_aot/videos/R_S_8lrGQK4UBj8_38.mp4	0.0	97.8221390247345	0.11666607856750488
14	35.2745680809021	response	0	2		12.0	2.5	/experiments/knapen_aot/videos/R_S_8lrGQK4UBj8_38.mp4	0.0	97.93062806129456	
14	35.282745122909546	movie	1		301.0	12.0	2.5	/experiments/knapen_aot/videos/R_S_8lrGQK4UBj8_38.mp4	0.0	97.938805103302	2.508347988128662
14	37.79109311103821	fix_post	2		12.0	12.0	2.5	/experiments/knapen_aot/videos/R_S_8lrGQK4UBj8_38.mp4	0.0	100.44715309143066	0.0999760627746582
15	37.891069173812866	fix_pre	0		17.0	13.0	2.5	blank	1.0	100.54712915420532	0.1416490077972412
15	38.02457404136658	response	0	2		13.0	2.5	blank	1.0	100.68063402175903	
15	38.03271818161011	movie	1		301.0	13.0	2.5	blank	1.0	100.68877816200256	2.5083649158477783
15	40.541083097457886	fix_post	2		12.0	13.0	2.5	blank	1.0	103.19714307785034	0.0999460220336914
16	40.64102911949158	fix_pre	0		30.0	14.0	2.5	/experiments/knapen_aot/videos/S_ILSVRC2015_train_00569002.mp4	0.0	103.29708909988403	0.25008296966552734
16	40.88285422325134	response	0	2		14.0	2.5	/experiments/knapen_aot/videos/S_ILSVRC2015_train_00569002.mp4	0.0	103.5389142036438	
16	40.891112089157104	movie	1		301.0	14.0	2.5	/experiments/knapen_aot/videos/S_ILSVRC2015_train_00569002.mp4	0.0	103.54717206954956	2.508297920227051
16	43.399410009384155	fix_post	2		12.0	14.0	2.5	/experiments/knapen_aot/videos/S_ILSVRC2015_train_00569002.mp4	0.0	106.05546998977661	0.09995412826538086
17	43.499364137649536	fix_pre	0		16.0	15.0	2.5	/experiments/knapen_aot/videos/R_S_wc-AyT9mzwZsu0T_14.mp4	0.0	106.15542411804199	0.13334298133850098
17	43.62450909614563	response	0	2		15.0	2.5	/experiments/knapen_aot/videos/R_S_wc-AyT9mzwZsu0T_14.mp4	0.0	106.28056907653809	
17	43.63270711898804	movie	1		163.0	15.0	2.5	/experiments/knapen_aot/videos/R_S_wc-AyT9mzwZsu0T_14.mp4	0.0	106.2887670993805	2.5083279609680176
17	46.141035079956055	fix_post	2		12.0	15.0	2.5	/experiments/knapen_aot/videos/R_S_wc-AyT9mzwZsu0T_14.mp4	0.0	108.79709506034851	0.10005497932434082
18	46.241090059280396	fix_pre	0		24.0	16.0	2.5	/experiments/knapen_aot/videos/S_yt-oVS_k_9upmo_205.mp4	0.0	108.89715003967285	0.20099496841430664
18	46.425424098968506	response	0	2		16.0	2.5	/experiments/knapen_aot/videos/S_yt-oVS_k_9upmo_205.mp4	0.0	109.08148407936096	
18	46.4420850276947	movie	1		301.0	16.0	2.5	/experiments/knapen_aot/videos/S_yt-oVS_k_9upmo_205.mp4	0.0	109.09814500808716	2.5073201656341553
18	48.94940519332886	fix_post	2		12.0	16.0	2.5	/experiments/knapen_aot/videos/S_yt-oVS_k_9upmo_205.mp4	0.0	111.60546517372131	0.10005593299865723
19	49.049461126327515	fix_pre	0		25.0	17.0	2.5	/experiments/knapen_aot/videos/S_yt-tqxZlasEvZA_43.mp4	0.0	111.70552110671997	0.20825505256652832
19	49.249489068984985	response	0	2		17.0	2.5	/experiments/knapen_aot/videos/S_yt-tqxZlasEvZA_43.mp4	0.0	111.90554904937744	
19	49.25771617889404	movie	1		301.0	17.0	2.5	/experiments/knapen_aot/videos/S_yt-tqxZlasEvZA_43.mp4	0.0	111.9137761592865	2.5082509517669678
19	51.76596713066101	fix_post	2		12.0	17.0	2.5	/experiments/knapen_aot/videos/S_yt-tqxZlasEvZA_43.mp4	0.0	114.42202711105347	0.10005903244018555
20	51.866026163101196	fix_pre	0		23.0	18.0	2.5	/experiments/knapen_aot/videos/R_S_comp_GL_G004_C010_PSNK_v04_SDR_PS_FINAL_20180709_SDR_2K_AVC.mp4	0.0	114.52208614349365	0.19163084030151367
20	52.049498081207275	response	0	2		18.0	2.5	/experiments/knapen_aot/videos/R_S_comp_GL_G004_C010_PSNK_v04_SDR_PS_FINAL_20180709_SDR_2K_AVC.mp4	0.0	114.70555806159973	
20	52.05765700340271	movie	1		167.0	18.0	2.5	/experiments/knapen_aot/videos/R_S_comp_GL_G004_C010_PSNK_v04_SDR_PS_FINAL_20180709_SDR_2K_AVC.mp4	0.0	114.71371698379517	2.5083892345428467
20	54.56604623794556	fix_post	2		12.0	18.0	2.5	/experiments/knapen_aot/videos/R_S_comp_GL_G004_C010_PSNK_v04_SDR_PS_FINAL_20180709_SDR_2K_AVC.mp4	0.0	117.22210621833801	0.09998583793640137
21	54.66603207588196	fix_pre	0		33.0	19.0	2.5	/experiments/knapen_aot/videos/R_S_yt-tqxZlasEvZA_43.mp4	0.0	117.32209205627441	0.27592992782592773
21	54.93281602859497	response	0	2		19.0	2.5	/experiments/knapen_aot/videos/R_S_yt-tqxZlasEvZA_43.mp4	0.0	117.58887600898743	
21	54.941962003707886	movie	1		301.0	19.0	2.5	/experiments/knapen_aot/videos/R_S_yt-tqxZlasEvZA_43.mp4	0.0	117.59802198410034	2.507366180419922
21	57.44932818412781	fix_post	2		12.0	19.0	2.5	/experiments/knapen_aot/videos/R_S_yt-tqxZlasEvZA_43.mp4	0.0	120.10538816452026	0.10000991821289062
22	57.5493381023407	fix_pre	0		22.0	20.0	2.5	blank	1.0	120.20539808273315	0.18433094024658203
22	57.724459171295166	response	0	2		20.0	2.5	blank	1.0	120.38051915168762	
22	57.73366904258728	movie	1		301.0	20.0	2.5	blank	1.0	120.38972902297974	2.507328987121582
22	60.24099802970886	fix_post	2		12.0	20.0	2.5	blank	1.0	122.89705801010132	0.09996819496154785
23	60.34096622467041	fix_pre	0		26.0	21.0	2.5	/experiments/knapen_aot/videos/S_pexels-roman-odintsov-8231493.mp4	0.0	122.99702620506287	0.21668481826782227
23	60.549493074417114	response	0	2		21.0	2.5	/experiments/knapen_aot/videos/S_pexels-roman-odintsov-8231493.mp4	0.0	123.20555305480957	
23	60.55765104293823	movie	1		185.0	21.0	2.5	/experiments/knapen_aot/videos/S_pexels-roman-odintsov-8231493.mp4	0.0	123.21371102333069	2.5083460807800293
23	63.06599712371826	fix_post	2		12.0	21.0	2.5	/experiments/knapen_aot/videos/S_pexels-roman-odintsov-8231493.mp4	0.0	125.72205710411072	0.09999203681945801
24	63.16598916053772	fix_pre	0		15.0	22.0	2.5	/experiments/knapen_aot/videos/S_yt-Ev39pXXfr1Y_152.mp4	0.0	125.82204914093018	0.12498903274536133
24	63.28278422355652	response	0	2		22.0	2.5	/experiments/knapen_aot/videos/S_yt-Ev39pXXfr1Y_152.mp4	0.0	125.93884420394897	
24	63.29097819328308	movie	1		301.0	22.0	2.5	/experiments/knapen_aot/videos/S_yt-Ev39pXXfr1Y_152.mp4	0.0	125.94703817367554	2.5083248615264893
24	65.79930305480957	fix_post	2		12.0	22.0	2.5	/experiments/knapen_aot/videos/S_yt-Ev39pXXfr1Y_152.mp4	0.0	128.45536303520203	0.10095596313476562
25	65.90025901794434	fix_pre	0		6.0	23.0	2.5	/experiments/knapen_aot/videos/R_S_ILSVRC2015_train_00473001.mp4	0.0	128.5563189983368	0.04904508590698242
25	65.941162109375	response	0	2		23.0	2.5	/experiments/knapen_aot/videos/R_S_ILSVRC2015_train_00473001.mp4	0.0	128.59722208976746	
25	65.94930410385132	movie	1		299.0	23.0	2.5	/experiments/knapen_aot/videos/R_S_ILSVRC2015_train_00473001.mp4	0.0	128.60536408424377	2.508357048034668
25	68.45766115188599	fix_post	2		12.0	23.0	2.5	/experiments/knapen_aot/videos/R_S_ILSVRC2015_train_00473001.mp4	0.0	131.11372113227844	0.09999990463256836
26	68.55766105651855	fix_pre	0		29.0	24.0	2.5	/experiments/knapen_aot/videos/S_yt-xQPKYWDRy2A_491.mp4	0.0	131.213721036911	0.24153494834899902
26	68.79109311103821	response	0	2		24.0	2.5	/experiments/knapen_aot/videos/S_yt-xQPKYWDRy2A_491.mp4	0.0	131.44715309143066	
26	68.79919600486755	movie	1		301.0	24.0	2.5	/experiments/knapen_aot/videos/S_yt-xQPKYWDRy2A_491.mp4	0.0	131.45525598526	2.508418083190918
26	71.30761408805847	fix_post	2		12.0	24.0	2.5	/experiments/knapen_aot/videos/S_yt-xQPKYWDRy2A_491.mp4	0.0	133.96367406845093	0.1000220775604248
27	71.4076361656189	fix_pre	0		4.0	25.0	2.5	/experiments/knapen_aot/videos/S_yt-SRozDkhwx28_1463.mp4	0.0	134.06369614601135	0.034216880798339844
27	71.43275117874146	response	0	2		25.0	2.5	/experiments/knapen_aot/videos/S_yt-SRozDkhwx28_1463.mp4	0.0	134.0888111591339	
27	71.44185304641724	movie	1		301.0	25.0	2.5	/experiments/knapen_aot/videos/S_yt-SRozDkhwx28_1463.mp4	0.0	134.0979130268097	2.5074081420898438
27	73.94926118850708	fix_post	2		12.0	25.0	2.5	/experiments/knapen_aot/videos/S_yt-SRozDkhwx28_1463.mp4	0.0	136.60532116889954	0.10000085830688477
28	74.04926204681396	fix_pre	0		34.0	26.0	2.5	/experiments/knapen_aot/videos/R_S_yt-316ecr1BT84_44.mp4	0.0	136.70532202720642	0.28325796127319336
28	74.32439303398132	response	0	2		26.0	2.5	/experiments/knapen_aot/videos/R_S_yt-316ecr1BT84_44.mp4	0.0	136.98045301437378	
28	74.33252000808716	movie	1		301.0	26.0	2.5	/experiments/knapen_aot/videos/R_S_yt-316ecr1BT84_44.mp4	0.0	136.98857998847961	2.5084421634674072
28	76.84096217155457	fix_post	2		12.0	26.0	2.5	/experiments/knapen_aot/videos/R_S_yt-316ecr1BT84_44.mp4	0.0	139.49702215194702	0.09994792938232422
29	76.94091010093689	fix_pre	0		20.0	27.0	2.5	/experiments/knapen_aot/videos/S_yt-rY_ra5Tb9XU_51.mp4	0.0	139.59697008132935	0.16758012771606445
29	77.09947204589844	response	0	2		27.0	2.5	/experiments/knapen_aot/videos/S_yt-rY_ra5Tb9XU_51.mp4	0.0	139.7555320262909	
29	77.10849022865295	movie	1		300.0	27.0	2.5	/experiments/knapen_aot/videos/S_yt-rY_ra5Tb9XU_51.mp4	0.0	139.7645502090454	2.5073788166046143
29	79.61586904525757	fix_post	2		12.0	27.0	2.5	/experiments/knapen_aot/videos/S_yt-rY_ra5Tb9XU_51.mp4	0.0	142.27192902565002	0.1000070571899414
30	79.71587610244751	fix_pre	0		11.0	28.0	2.5	blank	1.0	142.37193608283997	0.09173798561096191
30	79.79939818382263	response	0	2		28.0	2.5	blank	1.0	142.4554581642151	
30	79.80761408805847	movie	1		301.0	28.0	2.5	blank	1.0	142.46367406845093	2.5083820819854736
30	82.31599617004395	fix_post	2		12.0	28.0	2.5	blank	1.0	144.9720561504364	0.09989786148071289
31	82.41589403152466	fix_pre	0		30.0	29.0	2.5	/experiments/knapen_aot/videos/R_S_yt-M5qZo3CUXYE_27.mp4	0.0	145.07195401191711	0.2500021457672119
31	82.65765118598938	response	0	2		29.0	2.5	/experiments/knapen_aot/videos/R_S_yt-M5qZo3CUXYE_27.mp4	0.0	145.31371116638184	
31	82.66589617729187	movie	1		301.0	29.0	2.5	/experiments/knapen_aot/videos/R_S_yt-M5qZo3CUXYE_27.mp4	0.0	145.32195615768433	2.508349895477295
31	85.17424607276917	fix_post	2		12.0	29.0	2.5	/experiments/knapen_aot/videos/R_S_yt-M5qZo3CUXYE_27.mp4	0.0	147.83030605316162	0.09989595413208008
32	85.27414202690125	fix_pre	0		44.0	30.0	2.5	/experiments/knapen_aot/videos/S_yt-qsyDLtXcyHc_8.mp4	0.0	147.9302020072937	0.366718053817749
32	85.63272213935852	response	0	2		30.0	2.5	/experiments/knapen_aot/videos/S_yt-qsyDLtXcyHc_8.mp4	0.0	148.28878211975098	
32	85.640860080719	movie	1		301.0	30.0	2.5	/experiments/knapen_aot/videos/S_yt-qsyDLtXcyHc_8.mp4	0.0	148.29692006111145	2.508286952972412
32	88.1491470336914	fix_post	2		12.0	30.0	2.5	/experiments/knapen_aot/videos/S_yt-qsyDLtXcyHc_8.mp4	0.0	150.80520701408386	0.10005807876586914
33	88.24920511245728	fix_pre	0		38.0	31.0	2.5	/experiments/knapen_aot/videos/S_yt-KK6fVRAMm-c_476.mp4	0.0	150.90526509284973	0.317486047744751
33	88.55771613121033	response	0	2		31.0	2.5	/experiments/knapen_aot/videos/S_yt-KK6fVRAMm-c_476.mp4	0.0	151.21377611160278	
33	88.56669116020203	movie	1		301.0	31.0	2.5	/experiments/knapen_aot/videos/S_yt-KK6fVRAMm-c_476.mp4	0.0	151.22275114059448	2.507474899291992
33	91.07416605949402	fix_post	2		12.0	31.0	2.5	/experiments/knapen_aot/videos/S_yt-KK6fVRAMm-c_476.mp4	0.0	153.73022603988647	0.10007095336914062
34	91.17423701286316	fix_pre	0		35.0	32.0	2.5	/experiments/knapen_aot/videos/R_S_yt-urJgH6tpfkU_204.mp4	0.0	153.83029699325562	0.29159116744995117
34	91.45766615867615	response	0	2		32.0	2.5	/experiments/knapen_aot/videos/R_S_yt-urJgH6tpfkU_204.mp4	0.0	154.1137261390686	
34	91.46582818031311	movie	1		301.0	32.0	2.5	/experiments/knapen_aot/videos/R_S_yt-urJgH6tpfkU_204.mp4	0.0	154.12188816070557	2.5083508491516113
34	93.97417902946472	fix_post	2		12.0	32.0	2.5	/experiments/knapen_aot/videos/R_S_yt-urJgH6tpfkU_204.mp4	0.0	156.63023900985718	0.09994006156921387
35	94.07411909103394	fix_pre	0		22.0	33.0	2.5	/experiments/knapen_aot/videos/S_yt-YykKZWKmLnQ_386.mp4	0.0	156.7301790714264	0.1833651065826416
35	94.24948501586914	response	0	2		33.0	2.5	/experiments/knapen_aot/videos/S_yt-YykKZWKmLnQ_386.mp4	0.0	156.9055449962616	
35	94.25748419761658	movie	1		301.0	33.0	2.5	/experiments/knapen_aot/videos/S_yt-YykKZWKmLnQ_386.mp4	0.0	156.91354417800903	2.508283853530884
35	96.76576805114746	fix_post	2		12.0	33.0	2.5	/experiments/knapen_aot/videos/S_yt-YykKZWKmLnQ_386.mp4	0.0	159.42182803153992	0.10007405281066895
36	96.86584210395813	fix_pre	0		32.0	34.0	2.5	/experiments/knapen_aot/videos/S_pexels-koolshooters-7327412.mp4	0.0	159.5219020843506	0.26656413078308105
36	97.12426018714905	response	0	2		34.0	2.5	/experiments/knapen_aot/videos/S_pexels-koolshooters-7327412.mp4	0.0	159.7803201675415	
36	97.13240623474121	movie	1		161.0	34.0	2.5	/experiments/knapen_aot/videos/S_pexels-koolshooters-7327412.mp4	0.0	159.78846621513367	2.5084598064422607
36	99.64086604118347	fix_post	2		12.0	34.0	2.5	/experiments/knapen_aot/videos/S_pexels-koolshooters-7327412.mp4	0.0	162.29692602157593	0.0998990535736084
37	99.74076509475708	fix_pre	0		21.0	35.0	2.5	blank	1.0	162.39682507514954	0.17524194717407227
37	99.9076771736145	response	0	2		35.0	2.5	blank	1.0	162.56373715400696	
37	99.91600704193115	movie	1		301.0	35.0	2.5	blank	1.0	162.5720670223236	2.5080971717834473
37	102.4241042137146	fix_post	2		12.0	35.0	2.5	blank	1.0	165.08016419410706	0.10001683235168457
38	102.52412104606628	fix_pre	0		21.0	36.0	2.5	/experiments/knapen_aot/videos/R_S_yt-kAUL5o7i5mo_116.mp4	0.0	165.18018102645874	0.1750011444091797
38	102.69094514846802	response	0	2		36.0	2.5	/experiments/knapen_aot/videos/R_S_yt-kAUL5o7i5mo_116.mp4	0.0	165.34700512886047	
38	102.69912219047546	movie	1		301.0	36.0	2.5	/experiments/knapen_aot/videos/R_S_yt-kAUL5o7i5mo_116.mp4	0.0	165.35518217086792	2.508342981338501
38	105.20746517181396	fix_post	2		12.0	36.0	2.5	/experiments/knapen_aot/videos/R_S_yt-kAUL5o7i5mo_116.mp4	0.0	167.86352515220642	0.09993696212768555
39	105.30740213394165	fix_pre	0		4.0	37.0	2.5	/experiments/knapen_aot/videos/S_pexels-rodnae-productions-5617905.mp4	0.0	167.9634621143341	0.033384084701538086
39	105.33271622657776	response	0	2		37.0	2.5	/experiments/knapen_aot/videos/S_pexels-rodnae-productions-5617905.mp4	0.0	167.98877620697021	
39	105.34078621864319	movie	1		166.0	37.0	2.5	/experiments/knapen_aot/videos/S_pexels-rodnae-productions-5617905.mp4	0.0	167.99684619903564	2.5084049701690674
39	107.84919118881226	fix_post	2		12.0	37.0	2.5	/experiments/knapen_aot/videos/S_pexels-rodnae-productions-5617905.mp4	0.0	170.5052511692047	0.10000896453857422
40	107.94920015335083	fix_pre	0		1.0	38.0	2.5	/experiments/knapen_aot/videos/R_S_yt-n1snPiGfg0A_45.mp4	0.0	170.6052601337433	0.00830388069152832
40	107.9508740901947	response	0	2		38.0	2.5	/experiments/knapen_aot/videos/R_S_yt-n1snPiGfg0A_45.mp4	0.0	170.60693407058716	
40	107.95750403404236	movie	1		301.0	38.0	2.5	/experiments/knapen_aot/videos/R_S_yt-n1snPiGfg0A_45.mp4	0.0	170.61356401443481	2.5082931518554688
40	110.46579718589783	fix_post	2		12.0	38.0	2.5	/experiments/knapen_aot/videos/R_S_yt-n1snPiGfg0A_45.mp4	0.0	173.12185716629028	0.10006594657897949
41	110.5658631324768	fix_pre	0		12.0	39.0	2.5	/experiments/knapen_aot/videos/S_pexels-cottonbro-9063801.mp4	0.0	173.22192311286926	0.09984707832336426
41	110.65757012367249	response	0	2		39.0	2.5	/experiments/knapen_aot/videos/S_pexels-cottonbro-9063801.mp4	0.0	173.31363010406494	
41	110.66571021080017	movie	1		193.0	39.0	2.5	/experiments/knapen_aot/videos/S_pexels-cottonbro-9063801.mp4	0.0	173.32177019119263	2.5086159706115723
41	113.17432618141174	fix_post	2		12.0	39.0	2.5	/experiments/knapen_aot/videos/S_pexels-cottonbro-9063801.mp4	0.0	175.8303861618042	0.0997769832611084
42	113.27410316467285	fix_pre	0		10.0	40.0	2.5	/experiments/knapen_aot/videos/R_S_yt-54kx8P3L1ns_6.mp4	0.0	175.9301631450653	0.0840308666229248
42	113.34187006950378	response	0	2		40.0	2.5	/experiments/knapen_aot/videos/R_S_yt-54kx8P3L1ns_6.mp4	0.0	175.99793004989624	
42	113.35813403129578	movie	1		300.0	40.0	2.5	/experiments/knapen_aot/videos/R_S_yt-54kx8P3L1ns_6.mp4	0.0	176.01419401168823	2.5076329708099365
42	115.86576700210571	fix_post	2		12.0	40.0	2.5	/experiments/knapen_aot/videos/R_S_yt-54kx8P3L1ns_6.mp4	0.0	178.52182698249817	0.0999760627746582
43	115.96574306488037	fix_pre	0		13.0	41.0	2.5	blank	1.0	178.62180304527283	0.10830998420715332
43	116.06591200828552	response	0	2		41.0	2.5	blank	1.0	178.72197198867798	
43	116.07405304908752	movie	1		301.0	41.0	2.5	blank	1.0	178.73011302947998	2.508362054824829
43	118.58241510391235	fix_post	2		12.0	41.0	2.5	blank	1.0	181.2384750843048	0.10002398490905762
44	118.68243908882141	fix_pre	0		32.0	42.0	2.5	/experiments/knapen_aot/videos/R_S_yt-1RVw8p6Dw2Q_20.mp4	0.0	181.33849906921387	0.2666029930114746
44	118.9408540725708	response	0	2		42.0	2.5	/experiments/knapen_aot/videos/R_S_yt-1RVw8p6Dw2Q_20.mp4	0.0	181.59691405296326	
44	118.94904208183289	movie	1		301.0	42.0	2.5	/experiments/knapen_aot/videos/R_S_yt-1RVw8p6Dw2Q_20.mp4	0.0	181.60510206222534	2.5083861351013184
44	121.4574282169342	fix_post	2		12.0	42.0	2.5	/experiments/knapen_aot/videos/R_S_yt-1RVw8p6Dw2Q_20.mp4	0.0	184.11348819732666	0.10004591941833496
45	121.55747413635254	fix_pre	0		1.0	43.0	2.5	/experiments/knapen_aot/videos/R_S_yt-KK6fVRAMm-c_476.mp4	0.0	184.213534116745	0.008923053741455078
45	121.56013011932373	response	0	2		43.0	2.5	/experiments/knapen_aot/videos/R_S_yt-KK6fVRAMm-c_476.mp4	0.0	184.2161900997162	
45	121.566397190094	movie	1		291.0	43.0	2.5	/experiments/knapen_aot/videos/R_S_yt-KK6fVRAMm-c_476.mp4	0.0	184.22245717048645	2.5077178478240967
45	124.07411503791809	fix_post	2		12.0	43.0	2.5	/experiments/knapen_aot/videos/R_S_yt-KK6fVRAMm-c_476.mp4	0.0	186.73017501831055	0.10001397132873535
46	124.17412900924683	fix_pre	0		14.0	44.0	2.5	/experiments/knapen_aot/videos/R_S_yt-khmJAQuCRRE_119.mp4	0.0	186.83018898963928	0.11664700508117676
46	124.28254818916321	response	0	2		44.0	2.5	/experiments/knapen_aot/videos/R_S_yt-khmJAQuCRRE_119.mp4	0.0	186.93860816955566	
46	124.290776014328	movie	1		301.0	44.0	2.5	/experiments/knapen_aot/videos/R_S_yt-khmJAQuCRRE_119.mp4	0.0	186.94683599472046	2.5082850456237793
46	126.79906105995178	fix_post	2		12.0	44.0	2.5	/experiments/knapen_aot/videos/R_S_yt-khmJAQuCRRE_119.mp4	0.0	189.45512104034424	0.10005402565002441
47	126.8991150856018	fix_pre	0		16.0	45.0	2.5	/experiments/knapen_aot/videos/S_yt-yQrDeFlFmfM_138.mp4	0.0	189.55517506599426	0.1332869529724121
47	127.0242121219635	response	0	2		45.0	2.5	/experiments/knapen_aot/videos/S_yt-yQrDeFlFmfM_138.mp4	0.0	189.68027210235596	
47	127.03240203857422	movie	1		301.0	45.0	2.5	/experiments/knapen_aot/videos/S_yt-yQrDeFlFmfM_138.mp4	0.0	189.68846201896667	2.5083470344543457
47	129.54074907302856	fix_post	2		12.0	45.0	2.5	/experiments/knapen_aot/videos/S_yt-yQrDeFlFmfM_138.mp4	0.0	192.19680905342102	0.09992504119873047
48	129.6406741142273	fix_pre	0		15.0	46.0	2.5	/experiments/knapen_aot/videos/S_yt-ZYrQIw9VUok_111.mp4	0.0	192.29673409461975	0.12496805191040039
48	129.75752305984497	response	0	2		46.0	2.5	/experiments/knapen_aot/videos/S_yt-ZYrQIw9VUok_111.mp4	0.0	192.41358304023743	
48	129.7656421661377	movie	1		301.0	46.0	2.5	/experiments/knapen_aot/videos/S_yt-ZYrQIw9VUok_111.mp4	0.0	192.42170214653015	2.5083999633789062
48	132.2740421295166	fix_post	2		12.0	46.0	2.5	/experiments/knapen_aot/videos/S_yt-ZYrQIw9VUok_111.mp4	0.0	194.93010210990906	0.100006103515625
49	132.37404823303223	fix_pre	0		12.0	47.0	2.5	/experiments/knapen_aot/videos/R_S_yt-qE70lj3-A78_228.mp4	0.0	195.03010821342468	0.10005593299865723
49	132.4658181667328	response	0	2		47.0	2.5	/experiments/knapen_aot/videos/R_S_yt-qE70lj3-A78_228.mp4	0.0	195.12187814712524	
49	132.47410416603088	movie	1		301.0	47.0	2.5	/experiments/knapen_aot/videos/R_S_yt-qE70lj3-A78_228.mp4	0.0	195.13016414642334	2.5082828998565674
49	134.98238706588745	fix_post	2		12.0	47.0	2.5	/experiments/knapen_aot/videos/R_S_yt-qE70lj3-A78_228.mp4	0.0	197.6384470462799	0.09988999366760254
50	135.08227705955505	fix_pre	0		30.0	48.0	2.5	/experiments/knapen_aot/videos/R_S_yt-0Ut9QANGX20_35.mp4	0.0	197.7383370399475	0.2500431537628174
50	135.32413601875305	response	0	2		48.0	2.5	/experiments/knapen_aot/videos/R_S_yt-0Ut9QANGX20_35.mp4	0.0	197.9801959991455	
50	135.33232021331787	movie	1		301.0	48.0	2.5	/experiments/knapen_aot/videos/R_S_yt-0Ut9QANGX20_35.mp4	0.0	197.98838019371033	2.508358955383301
50	137.84067916870117	fix_post	2		12.0	48.0	2.5	/experiments/knapen_aot/videos/R_S_yt-0Ut9QANGX20_35.mp4	0.0	200.49673914909363	0.09995698928833008
51	137.9406361579895	fix_pre	0		16.0	49.0	2.5	blank	1.0	200.59669613838196	0.13333988189697266
51	138.0658631324768	response	0	2		49.0	2.5	blank	1.0	200.72192311286926	
51	138.07397603988647	movie	1		301.0	49.0	2.5	blank	1.0	200.73003602027893	2.5082900524139404
51	140.58226609230042	fix_post	2		12.0	49.0	2.5	blank	1.0	203.23832607269287	0.10004401206970215
52	140.68231010437012	fix_pre	0		33.0	50.0	2.5	/experiments/knapen_aot/videos/R_S_flickr-slruok-8006772217_6.mp4	0.0	203.33837008476257	0.27498698234558105
52	140.9490511417389	response	0	2		50.0	2.5	/experiments/knapen_aot/videos/R_S_flickr-slruok-8006772217_6.mp4	0.0	203.60511112213135	
52	140.9572970867157	movie	1		301.0	50.0	2.5	/experiments/knapen_aot/videos/R_S_flickr-slruok-8006772217_6.mp4	0.0	203.61335706710815	2.508376121520996
52	143.4656732082367	fix_post	2		12.0	50.0	2.5	/experiments/knapen_aot/videos/R_S_flickr-slruok-8006772217_6.mp4	0.0	206.12173318862915	0.09998583793640137
53	143.5656590461731	fix_pre	0		9.0	51.0	2.5	/experiments/knapen_aot/videos/R_S_PA_A004_C003_SDR_20190719_SDR_2K_AVC.mp4	0.0	206.22171902656555	0.07493805885314941
53	143.63244819641113	response	0	2		51.0	2.5	/experiments/knapen_aot/videos/R_S_PA_A004_C003_SDR_20190719_SDR_2K_AVC.mp4	0.0	206.2885081768036	
53	143.64059710502625	movie	1		166.0	51.0	2.5	/experiments/knapen_aot/videos/R_S_PA_A004_C003_SDR_20190719_SDR_2K_AVC.mp4	0.0	206.2966570854187	2.5084240436553955
53	146.14902114868164	fix_post	2		12.0	51.0	2.5	/experiments/knapen_aot/videos/R_S_PA_A004_C003_SDR_20190719_SDR_2K_AVC.mp4	0.0	208.8050811290741	0.0999610424041748
54	146.24898219108582	fix_pre	0		3.0	52.0	2.5	/experiments/knapen_aot/videos/S_ILSVRC2015_train_00524006.mp4	0.0	208.90504217147827	0.025749921798706055
54	146.26577305793762	response	0	2		52.0	2.5	/experiments/knapen_aot/videos/S_ILSVRC2015_train_00524006.mp4	0.0	208.92183303833008	
54	146.27473211288452	movie	1		301.0	52.0	2.5	/experiments/knapen_aot/videos/S_ILSVRC2015_train_00524006.mp4	0.0	208.93079209327698	2.5076370239257812
54	148.7823691368103	fix_post	2		12.0	52.0	2.5	/experiments/knapen_aot/videos/S_ILSVRC2015_train_00524006.mp4	0.0	211.43842911720276	0.09997391700744629
55	148.88234305381775	fix_pre	0		16.0	53.0	2.5	/experiments/knapen_aot/videos/S__9v_wUywaAA_35.mp4	0.0	211.5384030342102	0.13329410552978516
55	149.00750422477722	response	0	2		53.0	2.5	/experiments/knapen_aot/videos/S__9v_wUywaAA_35.mp4	0.0	211.66356420516968	
55	149.01563715934753	movie	1		298.0	53.0	2.5	/experiments/knapen_aot/videos/S__9v_wUywaAA_35.mp4	0.0	211.67169713974	2.5083160400390625
55	151.5239531993866	fix_post	2		12.0	53.0	2.5	/experiments/knapen_aot/videos/S__9v_wUywaAA_35.mp4	0.0	214.18001317977905	0.09998297691345215
56	151.62393617630005	fix_pre	0		10.0	54.0	2.5	blank	1.0	214.2799961566925	0.08331084251403809
56	151.6990520954132	response	0	2		54.0	2.5	blank	1.0	214.35511207580566	
56	151.7072470188141	movie	1		301.0	54.0	2.5	blank	1.0	214.36330699920654	2.5084550380706787
56	154.21570205688477	fix_post	2		12.0	54.0	2.5	blank	1.0	216.87176203727722	0.09991312026977539
57	154.31561517715454	fix_pre	0		281.0	55.0	2.5	/experiments/knapen_aot/videos/S_yt-UojTppgtyCE_121.mp4	0.0	216.971675157547	2.3416898250579834
57	156.6490921974182	response	0	2		55.0	2.5	/experiments/knapen_aot/videos/S_yt-UojTppgtyCE_121.mp4	0.0	219.30515217781067	
57	156.65730500221252	movie	1		300.0	55.0	2.5	/experiments/knapen_aot/videos/S_yt-UojTppgtyCE_121.mp4	0.0	219.31336498260498	2.5082859992980957
57	159.16559100151062	fix_post	2		12.0	55.0	2.5	/experiments/knapen_aot/videos/S_yt-UojTppgtyCE_121.mp4	0.0	221.82165098190308	0.1000361442565918
58	159.2656271457672	fix_pre	0		12.0	56.0	2.5	/experiments/knapen_aot/videos/S_yt-1RVw8p6Dw2Q_20.mp4	0.0	221.92168712615967	0.1000058650970459
58	159.35739922523499	response	0	2		56.0	2.5	/experiments/knapen_aot/videos/S_yt-1RVw8p6Dw2Q_20.mp4	0.0	222.01345920562744	
58	159.36563301086426	movie	1		301.0	56.0	2.5	/experiments/knapen_aot/videos/S_yt-1RVw8p6Dw2Q_20.mp4	0.0	222.0216929912567	2.5083200931549072
58	161.87395310401917	fix_post	2		12.0	56.0	2.5	/experiments/knapen_aot/videos/S_yt-1RVw8p6Dw2Q_20.mp4	0.0	224.53001308441162	0.09995794296264648
59	161.9739110469818	fix_pre	0		9.0	57.0	2.5	/experiments/knapen_aot/videos/S_yt-bOgChEHiroI_20.mp4	0.0	224.62997102737427	0.07500410079956055
59	162.0407841205597	response	0	2		57.0	2.5	/experiments/knapen_aot/videos/S_yt-bOgChEHiroI_20.mp4	0.0	224.69684410095215	
59	162.04891514778137	movie	1		301.0	57.0	2.5	/experiments/knapen_aot/videos/S_yt-bOgChEHiroI_20.mp4	0.0	224.70497512817383	2.5082149505615234
59	164.5571300983429	fix_post	2		12.0	57.0	2.5	/experiments/knapen_aot/videos/S_yt-bOgChEHiroI_20.mp4	0.0	227.21319007873535	0.10010313987731934
60	164.65723323822021	fix_pre	0		12.0	58.0	2.5	/experiments/knapen_aot/videos/R_S_yt-HwGg4-zeWi8_364.mp4	0.0	227.31329321861267	0.0999448299407959
60	164.74902319908142	response	0	2		58.0	2.5	/experiments/knapen_aot/videos/R_S_yt-HwGg4-zeWi8_364.mp4	0.0	227.40508317947388	
60	164.757178068161	movie	1		301.0	58.0	2.5	/experiments/knapen_aot/videos/R_S_yt-HwGg4-zeWi8_364.mp4	0.0	227.41323804855347	2.508373975753784
60	167.2655520439148	fix_post	2		12.0	58.0	2.5	/experiments/knapen_aot/videos/R_S_yt-HwGg4-zeWi8_364.mp4	0.0	229.92161202430725	0.09999608993530273
61	167.3655481338501	fix_pre	0		16.0	59.0	2.5	/experiments/knapen_aot/videos/R_S_ILSVRC2015_train_00632002.mp4	0.0	230.02160811424255	0.13332200050354004
61	167.49069023132324	response	0	2		59.0	2.5	/experiments/knapen_aot/videos/R_S_ILSVRC2015_train_00632002.mp4	0.0	230.1467502117157	
61	167.49887013435364	movie	1		301.0	59.0	2.5	/experiments/knapen_aot/videos/R_S_ILSVRC2015_train_00632002.mp4	0.0	230.1549301147461	2.5083019733428955
61	170.00717210769653	fix_post	2		12.0	59.0	2.5	/experiments/knapen_aot/videos/R_S_ILSVRC2015_train_00632002.mp4	0.0	232.663232088089	0.10004997253417969
62	170.1072220802307	fix_pre	0		7.0	60.0	2.5	/experiments/knapen_aot/videos/R_S_comp_DB_D001_C001_PSNK_v06_SDR_PS_20180824_SDR_2K_AVC.mp4	0.0	232.76328206062317	0.05828213691711426
62	170.1507420539856	response	0	2		60.0	2.5	/experiments/knapen_aot/videos/R_S_comp_DB_D001_C001_PSNK_v06_SDR_PS_20180824_SDR_2K_AVC.mp4	0.0	232.80680203437805	
62	170.16550421714783	movie	1		171.0	60.0	2.5	/experiments/knapen_aot/videos/R_S_comp_DB_D001_C001_PSNK_v06_SDR_PS_20180824_SDR_2K_AVC.mp4	0.0	232.82156419754028	2.508342981338501
62	172.6656892299652	response	1	2		60.0	2.5	/experiments/knapen_aot/videos/R_S_comp_DB_D001_C001_PSNK_v06_SDR_PS_20180824_SDR_2K_AVC.mp4	0.0	235.32174921035767	
62	172.67384719848633	fix_post	2		12.0	60.0	2.5	/experiments/knapen_aot/videos/R_S_comp_DB_D001_C001_PSNK_v06_SDR_PS_20180824_SDR_2K_AVC.mp4	0.0	235.32990717887878	0.09996485710144043
63	172.77381205558777	fix_pre	0		34.0	61.0	2.5	blank	1.0	235.42987203598022	0.28339600563049316
63	173.04890823364258	response	0	2		61.0	2.5	blank	1.0	235.70496821403503	
63	173.05720806121826	movie	1		301.0	61.0	2.5	blank	1.0	235.71326804161072	2.508296012878418
63	175.56550407409668	fix_post	2		12.0	61.0	2.5	blank	1.0	238.22156405448914	0.1000211238861084
64	175.6655251979828	fix_pre	0		37.0	62.0	2.5	/experiments/knapen_aot/videos/R_S_yt-v66td-1WO7w_44.mp4	0.0	238.32158517837524	0.30829381942749023
64	175.9656901359558	response	0	2		62.0	2.5	/experiments/knapen_aot/videos/R_S_yt-v66td-1WO7w_44.mp4	0.0	238.62175011634827	
64	175.97381901741028	movie	1		301.0	62.0	2.5	/experiments/knapen_aot/videos/R_S_yt-v66td-1WO7w_44.mp4	0.0	238.62987899780273	2.5083839893341064
64	178.48220300674438	fix_post	2		12.0	62.0	2.5	/experiments/knapen_aot/videos/R_S_yt-v66td-1WO7w_44.mp4	0.0	241.13826298713684	0.09990119934082031
65	178.5821042060852	fix_pre	0		17.0	63.0	2.5	/experiments/knapen_aot/videos/R_S_yt-fryIS5Itzig_124.mp4	0.0	241.23816418647766	0.14171481132507324
65	178.7156081199646	response	0	2		63.0	2.5	/experiments/knapen_aot/videos/R_S_yt-fryIS5Itzig_124.mp4	0.0	241.37166810035706	
65	178.72381901741028	movie	1		301.0	63.0	2.5	/experiments/knapen_aot/videos/R_S_yt-fryIS5Itzig_124.mp4	0.0	241.37987899780273	2.508316993713379
65	181.23213601112366	fix_post	2		12.0	63.0	2.5	/experiments/knapen_aot/videos/R_S_yt-fryIS5Itzig_124.mp4	0.0	243.8881959915161	0.09992814064025879
66	181.33206415176392	fix_pre	0		5.0	64.0	2.5	/experiments/knapen_aot/videos/S_yt-gPhlnZG-pRY_4.mp4	0.0	243.98812413215637	0.060196876525878906
66	181.38249015808105	response	0	2		64.0	2.5	/experiments/knapen_aot/videos/S_yt-gPhlnZG-pRY_4.mp4	0.0	244.0385501384735	
66	181.3922610282898	movie	1		301.0	64.0	2.5	/experiments/knapen_aot/videos/S_yt-gPhlnZG-pRY_4.mp4	0.0	244.04832100868225	2.506463050842285
66	183.89872407913208	fix_post	2		12.0	64.0	2.5	/experiments/knapen_aot/videos/S_yt-gPhlnZG-pRY_4.mp4	0.0	246.55478405952454	0.10005402565002441
67	183.9987781047821	fix_pre	0		14.0	65.0	2.5	/experiments/knapen_aot/videos/R_S_yt-PP93D7b7Ni4_10.mp4	0.0	246.65483808517456	0.11663293838500977
67	184.10727620124817	response	0	2		65.0	2.5	/experiments/knapen_aot/videos/R_S_yt-PP93D7b7Ni4_10.mp4	0.0	246.76333618164062	
67	184.11541104316711	movie	1		301.0	65.0	2.5	/experiments/knapen_aot/videos/R_S_yt-PP93D7b7Ni4_10.mp4	0.0	246.77147102355957	2.5083491802215576
67	186.62376022338867	fix_post	2		12.0	65.0	2.5	/experiments/knapen_aot/videos/R_S_yt-PP93D7b7Ni4_10.mp4	0.0	249.27982020378113	0.0999898910522461
68	186.72375011444092	fix_pre	0		32.0	66.0	2.5	/experiments/knapen_aot/videos/R_S_comp_H005_C012_PS_v01_SDR_PS_20180925_SDR_2K_AVC.mp4	0.0	249.37981009483337	0.26670002937316895
68	186.982262134552	response	0	2		66.0	2.5	/experiments/knapen_aot/videos/R_S_comp_H005_C012_PS_v01_SDR_PS_20180925_SDR_2K_AVC.mp4	0.0	249.63832211494446	
68	186.9904501438141	movie	1		168.0	66.0	2.5	/experiments/knapen_aot/videos/R_S_comp_H005_C012_PS_v01_SDR_PS_20180925_SDR_2K_AVC.mp4	0.0	249.64651012420654	2.5083489418029785
68	189.49879908561707	fix_post	2		12.0	66.0	2.5	/experiments/knapen_aot/videos/R_S_comp_H005_C012_PS_v01_SDR_PS_20180925_SDR_2K_AVC.mp4	0.0	252.15485906600952	0.09999513626098633
69	189.59879422187805	fix_pre	0		11.0	67.0	2.5	/experiments/knapen_aot/videos/S_yt-CEQnXB0LxQU_278.mp4	0.0	252.2548542022705	0.09201979637145996
69	189.67501616477966	response	0	2		67.0	2.5	/experiments/knapen_aot/videos/S_yt-CEQnXB0LxQU_278.mp4	0.0	252.33107614517212	
69	189.6908140182495	movie	1		301.0	67.0	2.5	/experiments/knapen_aot/videos/S_yt-CEQnXB0LxQU_278.mp4	0.0	252.34687399864197	2.5079619884490967
69	192.1987760066986	fix_post	2		12.0	67.0	2.5	/experiments/knapen_aot/videos/S_yt-CEQnXB0LxQU_278.mp4	0.0	254.85483598709106	0.09999203681945801
70	192.29876804351807	fix_pre	0		23.0	68.0	2.5	/experiments/knapen_aot/videos/R_S_yt-Q4edV5qiqu0_578.mp4	0.0	254.95482802391052	0.19164299964904785
70	192.482173204422	response	0	2		68.0	2.5	/experiments/knapen_aot/videos/R_S_yt-Q4edV5qiqu0_578.mp4	0.0	255.13823318481445	
70	192.49041104316711	movie	1		300.0	68.0	2.5	/experiments/knapen_aot/videos/R_S_yt-Q4edV5qiqu0_578.mp4	0.0	255.14647102355957	2.508350133895874
70	194.998761177063	fix_post	2		12.0	68.0	2.5	/experiments/knapen_aot/videos/R_S_yt-Q4edV5qiqu0_578.mp4	0.0	257.65482115745544	0.10001087188720703
71	195.0987720489502	fix_pre	0		20.0	69.0	2.5	blank	1.0	257.75483202934265	0.1665661334991455
71	195.25730800628662	response	0	2		69.0	2.5	blank	1.0	257.9133679866791	
71	195.26533818244934	movie	1		301.0	69.0	2.5	blank	1.0	257.9213981628418	2.5084378719329834
71	197.77377605438232	fix_post	2		12.0	69.0	2.5	blank	1.0	260.4298360347748	0.09999513626098633
72	197.8737711906433	fix_pre	0		20.0	70.0	2.5	/experiments/knapen_aot/videos/S_yt-Iu2ZPHLqXuY_32.mp4	0.0	260.52983117103577	0.16664791107177734
72	198.032231092453	response	0	2		70.0	2.5	/experiments/knapen_aot/videos/S_yt-Iu2ZPHLqXuY_32.mp4	0.0	260.68829107284546	
72	198.0404191017151	movie	1		300.0	70.0	2.5	/experiments/knapen_aot/videos/S_yt-Iu2ZPHLqXuY_32.mp4	0.0	260.69647908210754	2.5083580017089844
72	200.54877710342407	fix_post	2		12.0	70.0	2.5	/experiments/knapen_aot/videos/S_yt-Iu2ZPHLqXuY_32.mp4	0.0	263.2048370838165	0.10027503967285156
73	200.64905214309692	fix_pre	0		21.0	71.0	2.5	/experiments/knapen_aot/videos/R_S_ILSVRC2015_train_00594001.mp4	0.0	263.3051121234894	0.17473602294921875
73	200.81557416915894	response	0	2		71.0	2.5	/experiments/knapen_aot/videos/R_S_ILSVRC2015_train_00594001.mp4	0.0	263.4716341495514	
73	200.82378816604614	movie	1		301.0	71.0	2.5	/experiments/knapen_aot/videos/R_S_ILSVRC2015_train_00594001.mp4	0.0	263.4798481464386	2.5082099437713623
73	203.3319981098175	fix_post	2		12.0	71.0	2.5	/experiments/knapen_aot/videos/R_S_ILSVRC2015_train_00594001.mp4	0.0	265.98805809020996	0.1000680923461914
74	203.4320662021637	fix_pre	0		16.0	72.0	2.5	/experiments/knapen_aot/videos/R_S_yt-kRR0CluqaX4_130.mp4	0.0	266.08812618255615	0.13353180885314941
74	203.55713200569153	response	0	2		72.0	2.5	/experiments/knapen_aot/videos/R_S_yt-kRR0CluqaX4_130.mp4	0.0	266.213191986084	
74	203.56559801101685	movie	1		301.0	72.0	2.5	/experiments/knapen_aot/videos/R_S_yt-kRR0CluqaX4_130.mp4	0.0	266.2216579914093	2.5081331729888916
74	206.07373118400574	fix_post	2		12.0	72.0	2.5	/experiments/knapen_aot/videos/R_S_yt-kRR0CluqaX4_130.mp4	0.0	268.7297911643982	0.09991788864135742
75	206.1736490726471	fix_pre	0		26.0	73.0	2.5	/experiments/knapen_aot/videos/S_comp_DB_D001_C001_PSNK_v06_SDR_PS_20180824_SDR_2K_AVC.mp4	0.0	268.82970905303955	0.21833014488220215
75	206.38220119476318	response	0	2		73.0	2.5	/experiments/knapen_aot/videos/S_comp_DB_D001_C001_PSNK_v06_SDR_PS_20180824_SDR_2K_AVC.mp4	0.0	269.03826117515564	
75	206.3919792175293	movie	1		167.0	73.0	2.5	/experiments/knapen_aot/videos/S_comp_DB_D001_C001_PSNK_v06_SDR_PS_20180824_SDR_2K_AVC.mp4	0.0	269.04803919792175	2.5069079399108887
75	208.89888715744019	fix_post	2		12.0	73.0	2.5	/experiments/knapen_aot/videos/S_comp_DB_D001_C001_PSNK_v06_SDR_PS_20180824_SDR_2K_AVC.mp4	0.0	271.55494713783264	0.09975290298461914
76	208.9986400604248	fix_pre	0		23.0	74.0	2.5	/experiments/knapen_aot/videos/S_video-7.mp4	0.0	271.65470004081726	0.1919090747833252
76	209.1821370124817	response	0	2		74.0	2.5	/experiments/knapen_aot/videos/S_video-7.mp4	0.0	271.83819699287415	
76	209.19054913520813	movie	1		166.0	74.0	2.5	/experiments/knapen_aot/videos/S_video-7.mp4	0.0	271.8466091156006	2.508104085922241
76	211.69865322113037	fix_post	2		12.0	74.0	2.5	/experiments/knapen_aot/videos/S_video-7.mp4	0.0	274.3547132015228	0.10002398490905762
77	211.79867720603943	fix_pre	0		32.0	75.0	2.5	blank	1.0	274.4547371864319	0.2667980194091797
77	212.0572440624237	response	0	2		75.0	2.5	blank	1.0	274.71330404281616	
77	212.0654752254486	movie	1		301.0	75.0	2.5	blank	1.0	274.72153520584106	2.508237838745117
77	214.57371306419373	fix_post	2		12.0	75.0	2.5	blank	1.0	277.2297730445862	0.09999799728393555
78	214.67371106147766	fix_pre	0		52.0	76.0	2.5	/experiments/knapen_aot/videos/S_yt-316ecr1BT84_44.mp4	0.0	277.3297710418701	0.4334371089935303
78	215.09880208969116	response	0	2		76.0	2.5	/experiments/knapen_aot/videos/S_yt-316ecr1BT84_44.mp4	0.0	277.7548620700836	
78	215.1071481704712	movie	1		300.0	76.0	2.5	/experiments/knapen_aot/videos/S_yt-316ecr1BT84_44.mp4	0.0	277.76320815086365	2.508194923400879
78	217.61534309387207	fix_post	2		12.0	76.0	2.5	/experiments/knapen_aot/videos/S_yt-316ecr1BT84_44.mp4	0.0	280.2714030742645	0.10002613067626953
79	217.71536922454834	fix_pre	0		31.0	77.0	2.5	/experiments/knapen_aot/videos/R_S_yt-N1EsjM9gD5Q_21.mp4	0.0	280.3714292049408	0.25830078125
79	217.9654700756073	response	0	2		77.0	2.5	/experiments/knapen_aot/videos/R_S_yt-N1EsjM9gD5Q_21.mp4	0.0	280.62153005599976	
79	217.97367000579834	movie	1		301.0	77.0	2.5	/experiments/knapen_aot/videos/R_S_yt-N1EsjM9gD5Q_21.mp4	0.0	280.6297299861908	2.5084190368652344
79	220.48208904266357	fix_post	2		12.0	77.0	2.5	/experiments/knapen_aot/videos/R_S_yt-N1EsjM9gD5Q_21.mp4	0.0	283.13814902305603	0.10007810592651367
80	220.5821671485901	fix_pre	0		21.0	78.0	2.5	/experiments/knapen_aot/videos/S_yt-xBwq6sHHF5M_21.mp4	0.0	283.23822712898254	0.17477202415466309
80	220.74876022338867	response	0	2		78.0	2.5	/experiments/knapen_aot/videos/S_yt-xBwq6sHHF5M_21.mp4	0.0	283.4048202037811	
80	220.75693917274475	movie	1		301.0	78.0	2.5	/experiments/knapen_aot/videos/S_yt-xBwq6sHHF5M_21.mp4	0.0	283.4129991531372	2.5083088874816895
80	223.26524806022644	fix_post	2		12.0	78.0	2.5	/experiments/knapen_aot/videos/S_yt-xBwq6sHHF5M_21.mp4	0.0	285.9213080406189	0.1000211238861084
81	223.36526918411255	fix_pre	0		20.0	79.0	2.5	/experiments/knapen_aot/videos/R_S_video_inspire_uk_london_hampstead-heath_003.1080-h264.mp4	0.0	286.021329164505	0.16665387153625488
81	223.51629304885864	response	0	2		79.0	2.5	/experiments/knapen_aot/videos/R_S_video_inspire_uk_london_hampstead-heath_003.1080-h264.mp4	0.0	286.1723530292511	
81	223.5319230556488	movie	1		172.0	79.0	2.5	/experiments/knapen_aot/videos/R_S_video_inspire_uk_london_hampstead-heath_003.1080-h264.mp4	0.0	286.18798303604126	2.5083670616149902
81	226.0402901172638	fix_post	2		12.0	79.0	2.5	/experiments/knapen_aot/videos/R_S_video_inspire_uk_london_hampstead-heath_003.1080-h264.mp4	0.0	288.69635009765625	0.09996891021728516
81	226.08210706710815	response	2	2		79.0	2.5	/experiments/knapen_aot/videos/R_S_video_inspire_uk_london_hampstead-heath_003.1080-h264.mp4	0.0	288.7381670475006	
82	226.14025902748108	fix_pre	0		38.0	80.0	2.5	/experiments/knapen_aot/videos/S_pexels-anthony-shkraba-7569650.mp4	0.0	288.79631900787354	0.3166651725769043
82	226.44875121116638	response	0	2		80.0	2.5	/experiments/knapen_aot/videos/S_pexels-anthony-shkraba-7569650.mp4	0.0	289.10481119155884	
82	226.45692420005798	movie	1		192.0	80.0	2.5	/experiments/knapen_aot/videos/S_pexels-anthony-shkraba-7569650.mp4	0.0	289.11298418045044	2.5083320140838623
82	228.96525621414185	fix_post	2		12.0	80.0	2.5	/experiments/knapen_aot/videos/S_pexels-anthony-shkraba-7569650.mp4	0.0	291.6213161945343	0.10007691383361816
83	229.06533312797546	fix_pre	0		18.0	81.0	2.5	/experiments/knapen_aot/videos/R_S_pexels-mart-production-7698911.mp4	0.0	291.7213931083679	0.14991402626037598
83	229.20707511901855	response	0	2		81.0	2.5	/experiments/knapen_aot/videos/R_S_pexels-mart-production-7698911.mp4	0.0	291.863135099411	
83	229.21524715423584	movie	1		194.0	81.0	2.5	/experiments/knapen_aot/videos/R_S_pexels-mart-production-7698911.mp4	0.0	291.8713071346283	2.508302927017212
83	231.72355008125305	fix_post	2		12.0	81.0	2.5	/experiments/knapen_aot/videos/R_S_pexels-mart-production-7698911.mp4	0.0	294.3796100616455	0.10003209114074707
84	231.8235821723938	fix_pre	0		20.0	82.0	2.5	/experiments/knapen_aot/videos/S_ILSVRC2015_train_00568002.mp4	0.0	294.47964215278625	0.16665291786193848
84	231.98201203346252	response	0	2		82.0	2.5	/experiments/knapen_aot/videos/S_ILSVRC2015_train_00568002.mp4	0.0	294.638072013855	
84	231.99023509025574	movie	1		301.0	82.0	2.5	/experiments/knapen_aot/videos/S_ILSVRC2015_train_00568002.mp4	0.0	294.6462950706482	2.508307933807373
84	234.4985430240631	fix_post	2		12.0	82.0	2.5	/experiments/knapen_aot/videos/S_ILSVRC2015_train_00568002.mp4	0.0	297.15460300445557	0.10006213188171387
85	234.59860515594482	fix_pre	0		5.0	83.0	2.5	blank	1.0	297.2546651363373	0.041671037673950195
85	234.6246030330658	response	0	2		83.0	2.5	blank	1.0	297.28066301345825	
85	234.64027619361877	movie	1		301.0	83.0	2.5	blank	1.0	297.29633617401123	2.508347988128662
85	237.14862418174744	fix_post	2		12.0	83.0	2.5	blank	1.0	299.8046841621399	0.09995603561401367
87	237.24858021736145	stim	0		90.0					299.9046401977539	0.7542939186096191
87	237.4736931324005	response	0	2						300.12975311279297	
87	237.99531316757202	response	0	space						300.6513731479645	
