trial_nr	onset	event_type	phase	response	nr_frames	movie_index	movie_duration	movie_file	blank	onset_abs	duration
0	0.1334230899810791	stim	0		75.0					254.9397211074829	0.6249380111694336
0	0.7501389980316162	response	0	space						255.55643701553345	
1	0.7583611011505127	stim	0		121.0					255.56465911865234	1.0084660053253174
1	1.76682710647583	stim	1		120.0					256.57312512397766	0.9995279312133789
1	2.5414750576019287	response	1	space						257.34777307510376	
2	2.766355037689209	fix_pre	0		65.0	0.0	2.5	/experiments/knapen_aot/videos/S_pexels-cottonbro-5780808.mp4	0.0	257.57265305519104	0.5415680408477783
2	3.2998180389404297	response	0	space		0.0	2.5	/experiments/knapen_aot/videos/S_pexels-cottonbro-5780808.mp4	0.0	258.10611605644226	
2	3.3079230785369873	movie	1		165.0	0.0	2.5	/experiments/knapen_aot/videos/S_pexels-cottonbro-5780808.mp4	0.0	258.1142210960388	2.5083658695220947
2	5.816288948059082	fix_post	2		12.0	0.0	2.5	/experiments/knapen_aot/videos/S_pexels-cottonbro-5780808.mp4	0.0	260.6225869655609	0.09997916221618652
3	5.9162681102752686	fix_pre	0		26.0	1.0	2.5	/experiments/knapen_aot/videos/R_S_yt-Z0nfPTEEOLo_85.mp4	0.0	260.7225661277771	0.2167830467224121
3	6.125594139099121	response	0	2		1.0	2.5	/experiments/knapen_aot/videos/R_S_yt-Z0nfPTEEOLo_85.mp4	0.0	260.93189215660095	
3	6.133051156997681	movie	1		301.0	1.0	2.5	/experiments/knapen_aot/videos/R_S_yt-Z0nfPTEEOLo_85.mp4	0.0	260.9393491744995	2.5082919597625732
3	8.641343116760254	fix_post	2		12.0	1.0	2.5	/experiments/knapen_aot/videos/R_S_yt-Z0nfPTEEOLo_85.mp4	0.0	263.4476411342621	0.09996795654296875
4	8.741311073303223	fix_pre	0		13.0	2.0	2.5	/experiments/knapen_aot/videos/S_production_ID_4154238.mp4	0.0	263.54760909080505	0.10837888717651367
4	8.841413021087646	response	0	2		2.0	2.5	/experiments/knapen_aot/videos/S_production_ID_4154238.mp4	0.0	263.6477110385895	
4	8.849689960479736	movie	1		196.0	2.0	2.5	/experiments/knapen_aot/videos/S_production_ID_4154238.mp4	0.0	263.65598797798157	2.5082290172576904
4	11.357918977737427	fix_post	2		12.0	2.0	2.5	/experiments/knapen_aot/videos/S_production_ID_4154238.mp4	0.0	266.16421699523926	0.10003209114074707
5	11.457951068878174	fix_pre	0		76.0	3.0	2.5	/experiments/knapen_aot/videos/R_S_yt-XRQ_LSGGr3Y_712.mp4	0.0	266.26424908638	0.6332900524139404
5	12.083115100860596	response	0	2		3.0	2.5	/experiments/knapen_aot/videos/R_S_yt-XRQ_LSGGr3Y_712.mp4	0.0	266.8894131183624	
5	12.091241121292114	movie	1		301.0	3.0	2.5	/experiments/knapen_aot/videos/R_S_yt-XRQ_LSGGr3Y_712.mp4	0.0	266.89753913879395	2.5083439350128174
5	14.599585056304932	fix_post	2		12.0	3.0	2.5	/experiments/knapen_aot/videos/R_S_yt-XRQ_LSGGr3Y_712.mp4	0.0	269.40588307380676	0.10003209114074707
6	14.699617147445679	fix_pre	0		5.0	4.0	2.5	/experiments/knapen_aot/videos/S_yt-QI6k6mhpxLo_453.mp4	0.0	269.5059151649475	0.042619943618774414
6	14.733090162277222	response	0	2		4.0	2.5	/experiments/knapen_aot/videos/S_yt-QI6k6mhpxLo_453.mp4	0.0	269.53938817977905	
6	14.742237091064453	movie	1		301.0	4.0	2.5	/experiments/knapen_aot/videos/S_yt-QI6k6mhpxLo_453.mp4	0.0	269.5485351085663	2.5073978900909424
6	17.249634981155396	fix_post	2		12.0	4.0	2.5	/experiments/knapen_aot/videos/S_yt-QI6k6mhpxLo_453.mp4	0.0	272.0559329986572	0.09992814064025879
7	17.349563121795654	fix_pre	0		30.0	5.0	2.5	blank	1.0	272.1558611392975	0.25002503395080566
7	17.59141206741333	response	0	2		5.0	2.5	blank	1.0	272.39771008491516	
7	17.59958815574646	movie	1		301.0	5.0	2.5	blank	1.0	272.4058861732483	2.5083038806915283
7	20.10789203643799	fix_post	2		12.0	5.0	2.5	blank	1.0	274.9141900539398	0.0999441146850586
8	20.207836151123047	fix_pre	0		55.0	6.0	2.5	/experiments/knapen_aot/videos/S_yt-KVB49z48sZU_55.mp4	0.0	275.0141341686249	0.4583449363708496
8	20.658014059066772	response	0	2		6.0	2.5	/experiments/knapen_aot/videos/S_yt-KVB49z48sZU_55.mp4	0.0	275.4643120765686	
8	20.666181087493896	movie	1		301.0	6.0	2.5	/experiments/knapen_aot/videos/S_yt-KVB49z48sZU_55.mp4	0.0	275.4724791049957	2.5083470344543457
8	23.174528121948242	fix_post	2		12.0	6.0	2.5	/experiments/knapen_aot/videos/S_yt-KVB49z48sZU_55.mp4	0.0	277.9808261394501	0.10006403923034668
9	23.27459216117859	fix_pre	0		19.0	7.0	2.5	/experiments/knapen_aot/videos/S_yt-nlfwzxlwRfk_12.mp4	0.0	278.0808901786804	0.15823698043823242
9	23.424739122390747	response	0	2		7.0	2.5	/experiments/knapen_aot/videos/S_yt-nlfwzxlwRfk_12.mp4	0.0	278.2310371398926	
9	23.43282914161682	movie	1		298.0	7.0	2.5	/experiments/knapen_aot/videos/S_yt-nlfwzxlwRfk_12.mp4	0.0	278.23912715911865	2.5083529949188232
9	25.941182136535645	fix_post	2		12.0	7.0	2.5	/experiments/knapen_aot/videos/S_yt-nlfwzxlwRfk_12.mp4	0.0	280.7474801540375	0.10009598731994629
10	26.04127812385559	fix_pre	0		20.0	8.0	2.5	/experiments/knapen_aot/videos/S_yt-ILARvS15SDQ_741.mp4	0.0	280.8475761413574	0.1666250228881836
10	26.19963502883911	response	0	2		8.0	2.5	/experiments/knapen_aot/videos/S_yt-ILARvS15SDQ_741.mp4	0.0	281.00593304634094	
10	26.207903146743774	movie	1		301.0	8.0	2.5	/experiments/knapen_aot/videos/S_yt-ILARvS15SDQ_741.mp4	0.0	281.0142011642456	2.5083749294281006
10	28.716278076171875	fix_post	2		12.0	8.0	2.5	/experiments/knapen_aot/videos/S_yt-ILARvS15SDQ_741.mp4	0.0	283.5225760936737	0.09995794296264648
11	28.81623601913452	fix_pre	0		72.0	9.0	2.5	/experiments/knapen_aot/videos/R_S_ILSVRC2015_train_00594000.mp4	0.0	283.62253403663635	0.6000399589538574
11	29.408087015151978	response	0	2		9.0	2.5	/experiments/knapen_aot/videos/R_S_ILSVRC2015_train_00594000.mp4	0.0	284.2143850326538	
11	29.41627597808838	movie	1		301.0	9.0	2.5	/experiments/knapen_aot/videos/R_S_ILSVRC2015_train_00594000.mp4	0.0	284.2225739955902	2.508334159851074
11	31.924610137939453	fix_post	2		12.0	9.0	2.5	/experiments/knapen_aot/videos/R_S_ILSVRC2015_train_00594000.mp4	0.0	286.7309081554413	0.09993696212768555
12	32.02454710006714	fix_pre	0		126.0	10.0	2.5	/experiments/knapen_aot/videos/R_S_yt-aiDGx4AN8J0_9.mp4	0.0	286.83084511756897	1.050813913345337
12	33.066380977630615	response	0	2		10.0	2.5	/experiments/knapen_aot/videos/R_S_yt-aiDGx4AN8J0_9.mp4	0.0	287.87267899513245	
12	33.075361013412476	movie	1		301.0	10.0	2.5	/experiments/knapen_aot/videos/R_S_yt-aiDGx4AN8J0_9.mp4	0.0	287.8816590309143	2.5075149536132812
12	35.58287596702576	fix_post	2		12.0	10.0	2.5	/experiments/knapen_aot/videos/R_S_yt-aiDGx4AN8J0_9.mp4	0.0	290.3891739845276	0.09992218017578125
13	35.68279814720154	fix_pre	0		15.0	11.0	2.5	/experiments/knapen_aot/videos/R_S_comp_CH_C007_C011_PSNK_v02_SDR_PS_FINAL_20180709_SDR_2K_AVC.mp4	0.0	290.48909616470337	0.12514591217041016
13	35.799657106399536	response	0	2		11.0	2.5	/experiments/knapen_aot/videos/R_S_comp_CH_C007_C011_PSNK_v02_SDR_PS_FINAL_20180709_SDR_2K_AVC.mp4	0.0	290.60595512390137	
13	35.80794405937195	movie	1		175.0	11.0	2.5	/experiments/knapen_aot/videos/R_S_comp_CH_C007_C011_PSNK_v02_SDR_PS_FINAL_20180709_SDR_2K_AVC.mp4	0.0	290.6142420768738	2.508265972137451
13	38.3162100315094	fix_post	2		12.0	11.0	2.5	/experiments/knapen_aot/videos/R_S_comp_CH_C007_C011_PSNK_v02_SDR_PS_FINAL_20180709_SDR_2K_AVC.mp4	0.0	293.12250804901123	0.0998849868774414
14	38.41609501838684	fix_pre	0		2.0	12.0	2.5	blank	1.0	293.2223930358887	0.01721501350402832
14	38.42461705207825	response	0	2		12.0	2.5	blank	1.0	293.2309150695801	
14	38.43331003189087	movie	1		301.0	12.0	2.5	blank	1.0	293.2396080493927	2.50785493850708
14	40.94116497039795	fix_post	2		12.0	12.0	2.5	blank	1.0	295.7474629878998	0.10002899169921875
15	41.04119396209717	fix_pre	0		58.0	13.0	2.5	/experiments/knapen_aot/videos/S_yt-etQaTgGOhR4_69.mp4	0.0	295.847491979599	0.4833540916442871
15	41.51634693145752	response	0	2		13.0	2.5	/experiments/knapen_aot/videos/S_yt-etQaTgGOhR4_69.mp4	0.0	296.32264494895935	
15	41.524548053741455	movie	1		301.0	13.0	2.5	/experiments/knapen_aot/videos/S_yt-etQaTgGOhR4_69.mp4	0.0	296.3308460712433	2.5083138942718506
15	44.032861948013306	fix_post	2		12.0	13.0	2.5	/experiments/knapen_aot/videos/S_yt-etQaTgGOhR4_69.mp4	0.0	298.83915996551514	0.09992408752441406
16	44.13278603553772	fix_pre	0		11.0	14.0	2.5	/experiments/knapen_aot/videos/S_yt-XtzmBXKYEWk_60.mp4	0.0	298.93908405303955	0.09170293807983398
16	44.2164261341095	response	0	2		14.0	2.5	/experiments/knapen_aot/videos/S_yt-XtzmBXKYEWk_60.mp4	0.0	299.0227241516113	
16	44.224488973617554	movie	1		300.0	14.0	2.5	/experiments/knapen_aot/videos/S_yt-XtzmBXKYEWk_60.mp4	0.0	299.0307869911194	2.50833797454834
16	46.37463402748108	response	1	2		14.0	2.5	/experiments/knapen_aot/videos/S_yt-XtzmBXKYEWk_60.mp4	0.0	301.1809320449829	
16	46.732826948165894	fix_post	2		12.0	14.0	2.5	/experiments/knapen_aot/videos/S_yt-XtzmBXKYEWk_60.mp4	0.0	301.5391249656677	0.10002708435058594
16	46.81629705429077	response	2	2		14.0	2.5	/experiments/knapen_aot/videos/S_yt-XtzmBXKYEWk_60.mp4	0.0	301.6225950717926	
17	46.83285403251648	fix_pre	0		42.0	15.0	2.5	/experiments/knapen_aot/videos/S_yt-2pRKCSgdXXU_30.mp4	0.0	301.6391520500183	0.3499469757080078
17	47.17456007003784	response	0	2		15.0	2.5	/experiments/knapen_aot/videos/S_yt-2pRKCSgdXXU_30.mp4	0.0	301.9808580875397	
17	47.18280100822449	movie	1		301.0	15.0	2.5	/experiments/knapen_aot/videos/S_yt-2pRKCSgdXXU_30.mp4	0.0	301.9890990257263	2.5083091259002686
17	49.691110134124756	fix_post	2		12.0	15.0	2.5	/experiments/knapen_aot/videos/S_yt-2pRKCSgdXXU_30.mp4	0.0	304.4974081516266	0.10005879402160645
18	49.79116892814636	fix_pre	0		22.0	16.0	2.5	/experiments/knapen_aot/videos/R_S_pexels-anastasia-shuraeva-6014070.mp4	0.0	304.5974669456482	0.18321919441223145
18	49.95868396759033	response	0	2		16.0	2.5	/experiments/knapen_aot/videos/R_S_pexels-anastasia-shuraeva-6014070.mp4	0.0	304.76498198509216	
18	49.974388122558594	movie	1		192.0	16.0	2.5	/experiments/knapen_aot/videos/R_S_pexels-anastasia-shuraeva-6014070.mp4	0.0	304.7806861400604	2.5084388256073
18	52.482826948165894	fix_post	2		12.0	16.0	2.5	/experiments/knapen_aot/videos/R_S_pexels-anastasia-shuraeva-6014070.mp4	0.0	307.2891249656677	0.1000211238861084
19	52.582848072052	fix_pre	0		7.0	17.0	2.5	/experiments/knapen_aot/videos/R_S_yt-zam74qlzGtQ_122.mp4	0.0	307.38914608955383	0.05827903747558594
19	52.632928133010864	response	0	2		17.0	2.5	/experiments/knapen_aot/videos/R_S_yt-zam74qlzGtQ_122.mp4	0.0	307.4392261505127	
19	52.64112710952759	movie	1		301.0	17.0	2.5	/experiments/knapen_aot/videos/R_S_yt-zam74qlzGtQ_122.mp4	0.0	307.4474251270294	2.5083248615264893
19	55.08295512199402	response	1	2		17.0	2.5	/experiments/knapen_aot/videos/R_S_yt-zam74qlzGtQ_122.mp4	0.0	309.88925313949585	
19	55.14945197105408	fix_post	2		12.0	17.0	2.5	/experiments/knapen_aot/videos/R_S_yt-zam74qlzGtQ_122.mp4	0.0	309.9557499885559	0.10002017021179199
19	55.166255950927734	response	2	2		17.0	2.5	/experiments/knapen_aot/videos/R_S_yt-zam74qlzGtQ_122.mp4	0.0	309.97255396842957	
20	55.24947214126587	fix_pre	0		18.0	18.0	2.5	/experiments/knapen_aot/videos/R_S_yt-ol2u_-gd0-o_13.mp4	0.0	310.0557701587677	0.14996099472045898
20	55.39119505882263	response	0	2		18.0	2.5	/experiments/knapen_aot/videos/R_S_yt-ol2u_-gd0-o_13.mp4	0.0	310.19749307632446	
20	55.39943313598633	movie	1		301.0	18.0	2.5	/experiments/knapen_aot/videos/R_S_yt-ol2u_-gd0-o_13.mp4	0.0	310.20573115348816	2.508523941040039
20	57.90795707702637	fix_post	2		12.0	18.0	2.5	/experiments/knapen_aot/videos/R_S_yt-ol2u_-gd0-o_13.mp4	0.0	312.7142550945282	0.09979701042175293
21	58.00775408744812	fix_pre	0		302.0	19.0	2.5	blank	1.0	312.81405210494995	2.5166919231414795
21	60.51619005203247	response	0	2		19.0	2.5	blank	1.0	315.3224880695343	
21	60.5244460105896	movie	1		301.0	19.0	2.5	blank	1.0	315.33074402809143	2.5082759857177734
21	63.03272199630737	fix_post	2		12.0	19.0	2.5	blank	1.0	317.8390200138092	0.10001897811889648
22	63.13274097442627	fix_pre	0		66.0	20.0	2.5	/experiments/knapen_aot/videos/R_S_yt-pOCEuqVE7ro_61.mp4	0.0	317.9390389919281	0.5500121116638184
22	63.67451214790344	response	0	2		20.0	2.5	/experiments/knapen_aot/videos/R_S_yt-pOCEuqVE7ro_61.mp4	0.0	318.4808101654053	
22	63.68275308609009	movie	1		301.0	20.0	2.5	/experiments/knapen_aot/videos/R_S_yt-pOCEuqVE7ro_61.mp4	0.0	318.4890511035919	2.508331060409546
22	66.19108414649963	fix_post	2		12.0	20.0	2.5	/experiments/knapen_aot/videos/R_S_yt-pOCEuqVE7ro_61.mp4	0.0	320.99738216400146	0.0999608039855957
23	66.29104495048523	fix_pre	0		30.0	21.0	2.5	/experiments/knapen_aot/videos/S_yt-1_xoCNmTn3Y_1.mp4	0.0	321.09734296798706	0.24996399879455566
23	66.53284001350403	response	0	2		21.0	2.5	/experiments/knapen_aot/videos/S_yt-1_xoCNmTn3Y_1.mp4	0.0	321.33913803100586	
23	66.54100894927979	movie	1		298.0	21.0	2.5	/experiments/knapen_aot/videos/S_yt-1_xoCNmTn3Y_1.mp4	0.0	321.3473069667816	2.5083320140838623
23	69.04934096336365	fix_post	2		12.0	21.0	2.5	/experiments/knapen_aot/videos/S_yt-1_xoCNmTn3Y_1.mp4	0.0	323.8556389808655	0.10004210472106934
24	69.14938306808472	fix_pre	0		13.0	22.0	2.5	/experiments/knapen_aot/videos/S_yt-ebylvieB_4g_16.mp4	0.0	323.95568108558655	0.10834789276123047
24	69.24961709976196	response	0	2		22.0	2.5	/experiments/knapen_aot/videos/S_yt-ebylvieB_4g_16.mp4	0.0	324.0559151172638	
24	69.25773096084595	movie	1		301.0	22.0	2.5	/experiments/knapen_aot/videos/S_yt-ebylvieB_4g_16.mp4	0.0	324.0640289783478	2.5083250999450684
24	71.76605606079102	fix_post	2		12.0	22.0	2.5	/experiments/knapen_aot/videos/S_yt-ebylvieB_4g_16.mp4	0.0	326.57235407829285	0.09996891021728516
25	71.8660249710083	fix_pre	0		21.0	23.0	2.5	/experiments/knapen_aot/videos/S_yt-sWJc_Do8EaI_32.mp4	0.0	326.67232298851013	0.17501401901245117
25	72.03283596038818	response	0	2		23.0	2.5	/experiments/knapen_aot/videos/S_yt-sWJc_Do8EaI_32.mp4	0.0	326.83913397789	
25	72.04103899002075	movie	1		300.0	23.0	2.5	/experiments/knapen_aot/videos/S_yt-sWJc_Do8EaI_32.mp4	0.0	326.8473370075226	2.508350133895874
25	74.54938912391663	fix_post	2		12.0	23.0	2.5	/experiments/knapen_aot/videos/S_yt-sWJc_Do8EaI_32.mp4	0.0	329.35568714141846	0.10000181198120117
26	74.64939093589783	fix_pre	0		155.0	24.0	2.5	/experiments/knapen_aot/videos/R_S_ILSVRC2015_train_00723001.mp4	0.0	329.45568895339966	1.2915802001953125
26	75.93283915519714	response	0	2		24.0	2.5	/experiments/knapen_aot/videos/R_S_ILSVRC2015_train_00723001.mp4	0.0	330.739137172699	
26	75.94097113609314	movie	1		301.0	24.0	2.5	/experiments/knapen_aot/videos/R_S_ILSVRC2015_train_00723001.mp4	0.0	330.74726915359497	2.5084068775177
26	78.44937801361084	fix_post	2		12.0	24.0	2.5	/experiments/knapen_aot/videos/R_S_ILSVRC2015_train_00723001.mp4	0.0	333.25567603111267	0.10001611709594727
27	78.54939413070679	fix_pre	0		25.0	25.0	2.5	/experiments/knapen_aot/videos/S_yt-Z0nfPTEEOLo_85.mp4	0.0	333.3556921482086	0.20831298828125
27	78.74952602386475	response	0	2		25.0	2.5	/experiments/knapen_aot/videos/S_yt-Z0nfPTEEOLo_85.mp4	0.0	333.5558240413666	
27	78.75770711898804	movie	1		301.0	25.0	2.5	/experiments/knapen_aot/videos/S_yt-Z0nfPTEEOLo_85.mp4	0.0	333.56400513648987	2.5083329677581787
27	81.26604008674622	fix_post	2		12.0	25.0	2.5	/experiments/knapen_aot/videos/S_yt-Z0nfPTEEOLo_85.mp4	0.0	336.07233810424805	0.1000220775604248
28	81.36606216430664	fix_pre	0		11.0	26.0	2.5	/experiments/knapen_aot/videos/R_S_yt-NuZy8Rjk4d0_156.mp4	0.0	336.1723601818085	0.09167981147766113
28	81.45035409927368	response	0	2		26.0	2.5	/experiments/knapen_aot/videos/R_S_yt-NuZy8Rjk4d0_156.mp4	0.0	336.2566521167755	
28	81.4577419757843	movie	1		301.0	26.0	2.5	/experiments/knapen_aot/videos/R_S_yt-NuZy8Rjk4d0_156.mp4	0.0	336.26403999328613	2.508336067199707
28	83.96607804298401	fix_post	2		12.0	26.0	2.5	/experiments/knapen_aot/videos/R_S_yt-NuZy8Rjk4d0_156.mp4	0.0	338.77237606048584	0.10005497932434082
29	84.06613302230835	fix_pre	0		15.0	27.0	2.5	/experiments/knapen_aot/videos/R_S_yt-ycQy_fHCK-U_8.mp4	0.0	338.8724310398102	0.1248941421508789
29	84.18287515640259	response	0	2		27.0	2.5	/experiments/knapen_aot/videos/R_S_yt-ycQy_fHCK-U_8.mp4	0.0	338.9891731739044	
29	84.19102716445923	movie	1		300.0	27.0	2.5	/experiments/knapen_aot/videos/R_S_yt-ycQy_fHCK-U_8.mp4	0.0	338.99732518196106	2.508314847946167
29	86.6993420124054	fix_post	2		12.0	27.0	2.5	/experiments/knapen_aot/videos/R_S_yt-ycQy_fHCK-U_8.mp4	0.0	341.5056400299072	0.09999608993530273
30	86.7993381023407	fix_pre	0		16.0	28.0	2.5	blank	1.0	341.60563611984253	0.13326692581176758
30	86.92443895339966	response	0	2		28.0	2.5	blank	1.0	341.7307369709015	
30	86.93260502815247	movie	1		301.0	28.0	2.5	blank	1.0	341.7389030456543	2.5083141326904297
30	89.4409191608429	fix_post	2		12.0	28.0	2.5	blank	1.0	344.2472171783447	0.10003495216369629
31	89.54095411300659	fix_pre	0		27.0	29.0	2.5	/experiments/knapen_aot/videos/S_yt-QJ2k6vA8aco_12.mp4	0.0	344.3472521305084	0.2249739170074463
31	89.75774693489075	response	0	2		29.0	2.5	/experiments/knapen_aot/videos/S_yt-QJ2k6vA8aco_12.mp4	0.0	344.5640449523926	
31	89.76592803001404	movie	1		301.0	29.0	2.5	/experiments/knapen_aot/videos/S_yt-QJ2k6vA8aco_12.mp4	0.0	344.57222604751587	2.5083999633789062
31	92.27432799339294	fix_post	2		12.0	29.0	2.5	/experiments/knapen_aot/videos/S_yt-QJ2k6vA8aco_12.mp4	0.0	347.0806260108948	0.09995603561401367
32	92.37428402900696	fix_pre	0		22.0	30.0	2.5	/experiments/knapen_aot/videos/R_S_yt-JG2OY_7B-gI_537.mp4	0.0	347.1805820465088	0.18331503868103027
32	92.54947710037231	response	0	2		30.0	2.5	/experiments/knapen_aot/videos/R_S_yt-JG2OY_7B-gI_537.mp4	0.0	347.35577511787415	
32	92.55759906768799	movie	1		301.0	30.0	2.5	/experiments/knapen_aot/videos/R_S_yt-JG2OY_7B-gI_537.mp4	0.0	347.3638970851898	2.508384943008423
32	95.06598401069641	fix_post	2		12.0	30.0	2.5	/experiments/knapen_aot/videos/R_S_yt-JG2OY_7B-gI_537.mp4	0.0	349.87228202819824	0.0999441146850586
33	95.16592812538147	fix_pre	0		162.0	31.0	2.5	/experiments/knapen_aot/videos/S_yt-eF5J5Kjt6oY_23.mp4	0.0	349.9722261428833	1.3499739170074463
33	96.50777792930603	response	0	2		31.0	2.5	/experiments/knapen_aot/videos/S_yt-eF5J5Kjt6oY_23.mp4	0.0	351.31407594680786	
33	96.51590204238892	movie	1		301.0	31.0	2.5	/experiments/knapen_aot/videos/S_yt-eF5J5Kjt6oY_23.mp4	0.0	351.32220005989075	2.5083439350128174
33	99.02424597740173	fix_post	2		12.0	31.0	2.5	/experiments/knapen_aot/videos/S_yt-eF5J5Kjt6oY_23.mp4	0.0	353.83054399490356	0.10006117820739746
34	99.12430715560913	fix_pre	0		21.0	32.0	2.5	/experiments/knapen_aot/videos/S_yt-Kwfwhd07dVo_2.mp4	0.0	353.93060517311096	0.17496490478515625
34	99.29107809066772	response	0	2		32.0	2.5	/experiments/knapen_aot/videos/S_yt-Kwfwhd07dVo_2.mp4	0.0	354.09737610816956	
34	99.29927206039429	movie	1		301.0	32.0	2.5	/experiments/knapen_aot/videos/S_yt-Kwfwhd07dVo_2.mp4	0.0	354.1055700778961	2.508316993713379
34	101.80758905410767	fix_post	2		12.0	32.0	2.5	/experiments/knapen_aot/videos/S_yt-Kwfwhd07dVo_2.mp4	0.0	356.6138870716095	0.10004305839538574
35	101.90763211250305	fix_pre	0		119.0	33.0	2.5	/experiments/knapen_aot/videos/S_production_ID_4802712.mp4	0.0	356.7139301300049	0.9915719032287598
35	102.88340997695923	response	0	2		33.0	2.5	/experiments/knapen_aot/videos/S_production_ID_4802712.mp4	0.0	357.68970799446106	
35	102.89920401573181	movie	1		165.0	33.0	2.5	/experiments/knapen_aot/videos/S_production_ID_4802712.mp4	0.0	357.70550203323364	2.5084221363067627
35	105.40762615203857	fix_post	2		12.0	33.0	2.5	/experiments/knapen_aot/videos/S_production_ID_4802712.mp4	0.0	360.2139241695404	0.09989094734191895
36	105.5075170993805	fix_pre	0		17.0	34.0	2.5	/experiments/knapen_aot/videos/S_yt-giRwl4yChlw_9.mp4	0.0	360.3138151168823	0.1417398452758789
36	105.64100003242493	response	0	2		34.0	2.5	/experiments/knapen_aot/videos/S_yt-giRwl4yChlw_9.mp4	0.0	360.44729804992676	
36	105.64925694465637	movie	1		301.0	34.0	2.5	/experiments/knapen_aot/videos/S_yt-giRwl4yChlw_9.mp4	0.0	360.4555549621582	2.5083141326904297
36	108.1575710773468	fix_post	2		12.0	34.0	2.5	/experiments/knapen_aot/videos/S_yt-giRwl4yChlw_9.mp4	0.0	362.96386909484863	0.10002493858337402
37	108.25759601593018	fix_pre	0		19.0	35.0	2.5	blank	1.0	363.063894033432	0.15825104713439941
37	108.40776300430298	response	0	2		35.0	2.5	blank	1.0	363.2140610218048	
37	108.41584706306458	movie	1		301.0	35.0	2.5	blank	1.0	363.2221450805664	2.5084049701690674
37	110.92425203323364	fix_post	2		12.0	35.0	2.5	blank	1.0	365.7305500507355	0.10001993179321289
38	111.02427196502686	fix_pre	0		22.0	36.0	2.5	/experiments/knapen_aot/videos/S_yt-ThT8utBaywI_68.mp4	0.0	365.8305699825287	0.183305025100708
38	111.19188594818115	response	0	2		36.0	2.5	/experiments/knapen_aot/videos/S_yt-ThT8utBaywI_68.mp4	0.0	365.998183965683	
38	111.20757699012756	movie	1		301.0	36.0	2.5	/experiments/knapen_aot/videos/S_yt-ThT8utBaywI_68.mp4	0.0	366.0138750076294	2.508312940597534
38	113.7158899307251	fix_post	2		12.0	36.0	2.5	/experiments/knapen_aot/videos/S_yt-ThT8utBaywI_68.mp4	0.0	368.52218794822693	0.10004210472106934
39	113.81593203544617	fix_pre	0		143.0	37.0	2.5	/experiments/knapen_aot/videos/R_S_yt-f9iXELY0EJ0_344.mp4	0.0	368.622230052948	1.1915531158447266
39	114.99934101104736	response	0	2		37.0	2.5	/experiments/knapen_aot/videos/R_S_yt-f9iXELY0EJ0_344.mp4	0.0	369.8056390285492	
39	115.0074851512909	movie	1		301.0	37.0	2.5	/experiments/knapen_aot/videos/R_S_yt-f9iXELY0EJ0_344.mp4	0.0	369.8137831687927	2.5083940029144287
39	117.51587915420532	fix_post	2		12.0	37.0	2.5	/experiments/knapen_aot/videos/R_S_yt-f9iXELY0EJ0_344.mp4	0.0	372.32217717170715	0.09994983673095703
40	117.61582899093628	fix_pre	0		30.0	38.0	2.5	/experiments/knapen_aot/videos/S_ILSVRC2015_train_00369002.mp4	0.0	372.4221270084381	0.25037598609924316
40	117.85762095451355	response	0	2		38.0	2.5	/experiments/knapen_aot/videos/S_ILSVRC2015_train_00369002.mp4	0.0	372.6639189720154	
40	117.86620497703552	movie	1		301.0	38.0	2.5	/experiments/knapen_aot/videos/S_ILSVRC2015_train_00369002.mp4	0.0	372.67250299453735	2.5079541206359863
40	120.37415909767151	fix_post	2		12.0	38.0	2.5	/experiments/knapen_aot/videos/S_ILSVRC2015_train_00369002.mp4	0.0	375.18045711517334	0.10003304481506348
41	120.47419214248657	fix_pre	0		15.0	39.0	2.5	/experiments/knapen_aot/videos/R_S_yt-wrfAMDCg93Y_8.mp4	0.0	375.2804901599884	0.12499284744262695
41	120.5909960269928	response	0	2		39.0	2.5	/experiments/knapen_aot/videos/R_S_yt-wrfAMDCg93Y_8.mp4	0.0	375.39729404449463	
41	120.5991849899292	movie	1		300.0	39.0	2.5	/experiments/knapen_aot/videos/R_S_yt-wrfAMDCg93Y_8.mp4	0.0	375.40548300743103	2.5083470344543457
41	123.10753202438354	fix_post	2		12.0	39.0	2.5	/experiments/knapen_aot/videos/R_S_yt-wrfAMDCg93Y_8.mp4	0.0	377.9138300418854	0.09994196891784668
42	123.20747399330139	fix_pre	0		58.0	40.0	2.5	blank	1.0	378.0137720108032	0.4833829402923584
42	123.6825680732727	response	0	2		40.0	2.5	blank	1.0	378.48886609077454	
42	123.69085693359375	movie	1		301.0	40.0	2.5	blank	1.0	378.4971549510956	2.5083401203155518
42	126.1991970539093	fix_post	2		12.0	40.0	2.5	blank	1.0	381.00549507141113	0.09998798370361328
43	126.29918503761292	fix_pre	0		25.0	41.0	2.5	/experiments/knapen_aot/videos/R_S_yt-316ecr1BT84_44.mp4	0.0	381.10548305511475	0.20825600624084473
43	126.4992949962616	response	0	2		41.0	2.5	/experiments/knapen_aot/videos/R_S_yt-316ecr1BT84_44.mp4	0.0	381.3055930137634	
43	126.50744104385376	movie	1		301.0	41.0	2.5	/experiments/knapen_aot/videos/R_S_yt-316ecr1BT84_44.mp4	0.0	381.3137390613556	2.508384943008423
43	129.01582598686218	fix_post	2		12.0	41.0	2.5	/experiments/knapen_aot/videos/R_S_yt-316ecr1BT84_44.mp4	0.0	383.822124004364	0.100006103515625
44	129.1158320903778	fix_pre	0		26.0	42.0	2.5	/experiments/knapen_aot/videos/R_S_yt-0n0uppNuUus_15.mp4	0.0	383.92213010787964	0.21665000915527344
44	129.32424592971802	response	0	2		42.0	2.5	/experiments/knapen_aot/videos/R_S_yt-0n0uppNuUus_15.mp4	0.0	384.13054394721985	
44	129.33248209953308	movie	1		301.0	42.0	2.5	/experiments/knapen_aot/videos/R_S_yt-0n0uppNuUus_15.mp4	0.0	384.1387801170349	2.50827693939209
44	131.84075903892517	fix_post	2		12.0	42.0	2.5	/experiments/knapen_aot/videos/R_S_yt-0n0uppNuUus_15.mp4	0.0	386.647057056427	0.10003399848937988
45	131.94079303741455	fix_pre	0		103.0	43.0	2.5	/experiments/knapen_aot/videos/R_S_yt-UmLeGNcqouI_718.mp4	0.0	386.7470910549164	0.8583080768585205
45	132.79083704948425	response	0	2		43.0	2.5	/experiments/knapen_aot/videos/R_S_yt-UmLeGNcqouI_718.mp4	0.0	387.5971350669861	
45	132.79910111427307	movie	1		301.0	43.0	2.5	/experiments/knapen_aot/videos/R_S_yt-UmLeGNcqouI_718.mp4	0.0	387.6053991317749	2.508368968963623
45	135.3074700832367	fix_post	2		12.0	43.0	2.5	/experiments/knapen_aot/videos/R_S_yt-UmLeGNcqouI_718.mp4	0.0	390.1137681007385	0.09999895095825195
46	135.40746903419495	fix_pre	0		10.0	44.0	2.5	/experiments/knapen_aot/videos/S_yt-xrWo3lnbshw_80.mp4	0.0	390.2137670516968	0.08359599113464355
46	135.48254203796387	response	0	2		44.0	2.5	/experiments/knapen_aot/videos/S_yt-xrWo3lnbshw_80.mp4	0.0	390.2888400554657	
46	135.4910650253296	movie	1		301.0	44.0	2.5	/experiments/knapen_aot/videos/S_yt-xrWo3lnbshw_80.mp4	0.0	390.2973630428314	2.508060932159424
46	137.999125957489	fix_post	2		12.0	44.0	2.5	/experiments/knapen_aot/videos/S_yt-xrWo3lnbshw_80.mp4	0.0	392.80542397499084	0.10002613067626953
47	138.09915208816528	fix_pre	0		13.0	45.0	2.5	/experiments/knapen_aot/videos/R_S_yt--DXkjCUzThU_413.mp4	0.0	392.9054501056671	0.10832595825195312
47	138.19920301437378	response	0	2		45.0	2.5	/experiments/knapen_aot/videos/R_S_yt--DXkjCUzThU_413.mp4	0.0	393.0055010318756	
47	138.20747804641724	movie	1		298.0	45.0	2.5	/experiments/knapen_aot/videos/R_S_yt--DXkjCUzThU_413.mp4	0.0	393.01377606391907	2.5083110332489014
47	140.71578907966614	fix_post	2		12.0	45.0	2.5	/experiments/knapen_aot/videos/R_S_yt--DXkjCUzThU_413.mp4	0.0	395.52208709716797	0.09992790222167969
48	140.81571698188782	fix_pre	0		27.0	46.0	2.5	/experiments/knapen_aot/videos/R_S_yt-4r-oovk9JWg_85.mp4	0.0	395.62201499938965	0.22504115104675293
48	141.03250694274902	response	0	2		46.0	2.5	/experiments/knapen_aot/videos/R_S_yt-4r-oovk9JWg_85.mp4	0.0	395.83880496025085	
48	141.04075813293457	movie	1		301.0	46.0	2.5	/experiments/knapen_aot/videos/R_S_yt-4r-oovk9JWg_85.mp4	0.0	395.8470561504364	2.5083048343658447
48	143.54906296730042	fix_post	2		12.0	46.0	2.5	/experiments/knapen_aot/videos/R_S_yt-4r-oovk9JWg_85.mp4	0.0	398.35536098480225	0.09996414184570312
49	143.64902710914612	fix_pre	0		11.0	47.0	2.5	/experiments/knapen_aot/videos/S_yt-5fnd__rpWeE_396.mp4	0.0	398.45532512664795	0.09214901924133301
49	143.73254203796387	response	0	2		47.0	2.5	/experiments/knapen_aot/videos/S_yt-5fnd__rpWeE_396.mp4	0.0	398.5388400554657	
49	143.74117612838745	movie	1		301.0	47.0	2.5	/experiments/knapen_aot/videos/S_yt-5fnd__rpWeE_396.mp4	0.0	398.5474741458893	2.5079338550567627
49	146.2491099834442	fix_post	2		12.0	47.0	2.5	/experiments/knapen_aot/videos/S_yt-5fnd__rpWeE_396.mp4	0.0	401.05540800094604	0.09993696212768555
50	146.3490469455719	fix_pre	0		17.0	48.0	2.5	blank	1.0	401.15534496307373	0.14203810691833496
50	146.48255801200867	response	0	2		48.0	2.5	blank	1.0	401.2888560295105	
50	146.49108505249023	movie	1		301.0	48.0	2.5	blank	1.0	401.29738306999207	2.5080180168151855
50	148.99910306930542	fix_post	2		12.0	48.0	2.5	blank	1.0	403.80540108680725	0.09993195533752441
51	149.09903502464294	fix_pre	0		34.0	49.0	2.5	/experiments/knapen_aot/videos/R_S_video_inspire_italy_como_cerano-dintelvi_006.1080-h264.mp4	0.0	403.9053330421448	0.2833399772644043
51	149.37420010566711	response	0	2		49.0	2.5	/experiments/knapen_aot/videos/R_S_video_inspire_italy_como_cerano-dintelvi_006.1080-h264.mp4	0.0	404.18049812316895	
51	149.38237500190735	movie	1		171.0	49.0	2.5	/experiments/knapen_aot/videos/R_S_video_inspire_italy_como_cerano-dintelvi_006.1080-h264.mp4	0.0	404.1886730194092	2.508357048034668
51	151.89073204994202	fix_post	2		12.0	49.0	2.5	/experiments/knapen_aot/videos/R_S_video_inspire_italy_como_cerano-dintelvi_006.1080-h264.mp4	0.0	406.69703006744385	0.10018610954284668
52	151.99091815948486	fix_pre	0		64.0	50.0	2.5	/experiments/knapen_aot/videos/S_yt-XpM1Jtwlvvk_42.mp4	0.0	406.7972161769867	0.5330708026885986
52	152.51584100723267	response	0	2		50.0	2.5	/experiments/knapen_aot/videos/S_yt-XpM1Jtwlvvk_42.mp4	0.0	407.3221390247345	
52	152.52398896217346	movie	1		301.0	50.0	2.5	/experiments/knapen_aot/videos/S_yt-XpM1Jtwlvvk_42.mp4	0.0	407.3302869796753	2.5086050033569336
52	155.0325939655304	fix_post	2		12.0	50.0	2.5	/experiments/knapen_aot/videos/S_yt-XpM1Jtwlvvk_42.mp4	0.0	409.8388919830322	0.09978699684143066
53	155.13238096237183	fix_pre	0		230.0	51.0	2.5	/experiments/knapen_aot/videos/S_yt-ebylvieB_4g_16.mp4	0.0	409.93867897987366	1.9166409969329834
53	157.04083395004272	response	0	2		51.0	2.5	/experiments/knapen_aot/videos/S_yt-ebylvieB_4g_16.mp4	0.0	411.84713196754456	
53	157.0490219593048	movie	1		301.0	51.0	2.5	/experiments/knapen_aot/videos/S_yt-ebylvieB_4g_16.mp4	0.0	411.85531997680664	2.508277177810669
53	159.55729913711548	fix_post	2		12.0	51.0	2.5	/experiments/knapen_aot/videos/S_yt-ebylvieB_4g_16.mp4	0.0	414.3635971546173	0.10024380683898926
54	159.65754294395447	fix_pre	0		55.0	52.0	2.5	/experiments/knapen_aot/videos/R_S_yt-s73Xqkcq9Js_285.mp4	0.0	414.4638409614563	0.45829105377197266
54	160.10754108428955	response	0	2		52.0	2.5	/experiments/knapen_aot/videos/R_S_yt-s73Xqkcq9Js_285.mp4	0.0	414.9138391017914	
54	160.11583399772644	movie	1		301.0	52.0	2.5	/experiments/knapen_aot/videos/R_S_yt-s73Xqkcq9Js_285.mp4	0.0	414.92213201522827	2.508120059967041
54	162.62395405769348	fix_post	2		12.0	52.0	2.5	/experiments/knapen_aot/videos/R_S_yt-s73Xqkcq9Js_285.mp4	0.0	417.4302520751953	0.1000518798828125
55	162.7240059375763	fix_pre	0		24.0	53.0	2.5	/experiments/knapen_aot/videos/R_S_wc-DgBY_btLlgBC_19.mp4	0.0	417.5303039550781	0.20000910758972168
55	162.91573095321655	response	0	2		53.0	2.5	/experiments/knapen_aot/videos/R_S_wc-DgBY_btLlgBC_19.mp4	0.0	417.7220289707184	
55	162.92401504516602	movie	1		163.0	53.0	2.5	/experiments/knapen_aot/videos/R_S_wc-DgBY_btLlgBC_19.mp4	0.0	417.73031306266785	2.5083279609680176
55	165.43234300613403	fix_post	2		12.0	53.0	2.5	/experiments/knapen_aot/videos/R_S_wc-DgBY_btLlgBC_19.mp4	0.0	420.23864102363586	0.10018205642700195
56	165.53252506256104	fix_pre	0		17.0	54.0	2.5	blank	1.0	420.33882308006287	0.14142394065856934
56	165.66576313972473	response	0	2		54.0	2.5	blank	1.0	420.47206115722656	
56	165.6739490032196	movie	1		301.0	54.0	2.5	blank	1.0	420.48024702072144	2.5083420276641846
56	168.1822910308838	fix_post	2		12.0	54.0	2.5	blank	1.0	422.9885890483856	0.1001291275024414
57	168.28242015838623	fix_pre	0		29.0	55.0	2.5	/experiments/knapen_aot/videos/R_S_yt--OkafQ5VFHs_51.mp4	0.0	423.08871817588806	0.24148178100585938
57	168.5157310962677	response	0	2		55.0	2.5	/experiments/knapen_aot/videos/R_S_yt--OkafQ5VFHs_51.mp4	0.0	423.32202911376953	
57	168.5239019393921	movie	1		301.0	55.0	2.5	/experiments/knapen_aot/videos/R_S_yt--OkafQ5VFHs_51.mp4	0.0	423.3301999568939	2.5084660053253174
57	171.0323679447174	fix_post	2		12.0	55.0	2.5	/experiments/knapen_aot/videos/R_S_yt--OkafQ5VFHs_51.mp4	0.0	425.83866596221924	0.09995102882385254
58	171.13231897354126	fix_pre	0		55.0	56.0	2.5	/experiments/knapen_aot/videos/S_ILSVRC2015_train_00463000.mp4	0.0	425.9386169910431	0.45830202102661133
58	171.58231210708618	response	0	2		56.0	2.5	/experiments/knapen_aot/videos/S_ILSVRC2015_train_00463000.mp4	0.0	426.388610124588	
58	171.59062099456787	movie	1		301.0	56.0	2.5	/experiments/knapen_aot/videos/S_ILSVRC2015_train_00463000.mp4	0.0	426.3969190120697	2.5083229541778564
58	174.09894394874573	fix_post	2		12.0	56.0	2.5	/experiments/knapen_aot/videos/S_ILSVRC2015_train_00463000.mp4	0.0	428.90524196624756	0.1000971794128418
59	174.19904112815857	fix_pre	0		31.0	57.0	2.5	/experiments/knapen_aot/videos/S_yt-M_ApPnq00iE_67.mp4	0.0	429.0053391456604	0.25816988945007324
59	174.44906306266785	response	0	2		57.0	2.5	/experiments/knapen_aot/videos/S_yt-M_ApPnq00iE_67.mp4	0.0	429.2553610801697	
59	174.45721101760864	movie	1		300.0	57.0	2.5	/experiments/knapen_aot/videos/S_yt-M_ApPnq00iE_67.mp4	0.0	429.2635090351105	2.5084850788116455
59	176.9656960964203	fix_post	2		12.0	57.0	2.5	/experiments/knapen_aot/videos/S_yt-M_ApPnq00iE_67.mp4	0.0	431.7719941139221	0.09992003440856934
60	177.06561613082886	fix_pre	0		30.0	58.0	2.5	/experiments/knapen_aot/videos/R_S_yt-GWlwb2QsxIA_48.mp4	0.0	431.8719141483307	0.24994301795959473
60	177.30735111236572	response	0	2		58.0	2.5	/experiments/knapen_aot/videos/R_S_yt-GWlwb2QsxIA_48.mp4	0.0	432.11364912986755	
60	177.31555914878845	movie	1		301.0	58.0	2.5	/experiments/knapen_aot/videos/R_S_yt-GWlwb2QsxIA_48.mp4	0.0	432.1218571662903	2.5084497928619385
60	179.8240089416504	fix_post	2		12.0	58.0	2.5	/experiments/knapen_aot/videos/R_S_yt-GWlwb2QsxIA_48.mp4	0.0	434.6303069591522	0.09994912147521973
61	179.9239580631256	fix_pre	0		28.0	59.0	2.5	/experiments/knapen_aot/videos/R_S_yt-ZE8Af60eNsI_15.mp4	0.0	434.73025608062744	0.23334789276123047
61	180.1491961479187	response	0	2		59.0	2.5	/experiments/knapen_aot/videos/R_S_yt-ZE8Af60eNsI_15.mp4	0.0	434.95549416542053	
61	180.15730595588684	movie	1		301.0	59.0	2.5	/experiments/knapen_aot/videos/R_S_yt-ZE8Af60eNsI_15.mp4	0.0	434.9636039733887	2.5082600116729736
61	182.66556596755981	fix_post	2		12.0	59.0	2.5	/experiments/knapen_aot/videos/R_S_yt-ZE8Af60eNsI_15.mp4	0.0	437.47186398506165	0.10003399848937988
62	182.7655999660492	fix_pre	0		97.0	60.0	2.5	/experiments/knapen_aot/videos/R_S_yt-IyxCMODHSSE_29.mp4	0.0	437.571897983551	0.8083300590515137
62	183.56563711166382	response	0	2		60.0	2.5	/experiments/knapen_aot/videos/R_S_yt-IyxCMODHSSE_29.mp4	0.0	438.37193512916565	
62	183.5739300251007	movie	1		301.0	60.0	2.5	/experiments/knapen_aot/videos/R_S_yt-IyxCMODHSSE_29.mp4	0.0	438.38022804260254	2.508302927017212
62	186.08223295211792	fix_post	2		12.0	60.0	2.5	/experiments/knapen_aot/videos/R_S_yt-IyxCMODHSSE_29.mp4	0.0	440.88853096961975	0.10001516342163086
63	186.18224811553955	fix_pre	0		44.0	61.0	2.5	blank	1.0	440.9885461330414	0.3666219711303711
63	186.54071712493896	response	0	2		61.0	2.5	blank	1.0	441.3470151424408	
63	186.54887008666992	movie	1		301.0	61.0	2.5	blank	1.0	441.35516810417175	2.5083839893341064
63	189.05725407600403	fix_post	2		12.0	61.0	2.5	blank	1.0	443.86355209350586	0.10000205039978027
64	189.1572561264038	fix_pre	0		5.0	62.0	2.5	/experiments/knapen_aot/videos/R_S_yt-e9AZJKNv9ow_359.mp4	0.0	443.96355414390564	0.04166293144226074
64	189.19067406654358	response	0	2		62.0	2.5	/experiments/knapen_aot/videos/R_S_yt-e9AZJKNv9ow_359.mp4	0.0	443.9969720840454	
64	189.19891905784607	movie	1		301.0	62.0	2.5	/experiments/knapen_aot/videos/R_S_yt-e9AZJKNv9ow_359.mp4	0.0	444.0052170753479	2.5083138942718506
64	191.70723295211792	fix_post	2		12.0	62.0	2.5	/experiments/knapen_aot/videos/R_S_yt-e9AZJKNv9ow_359.mp4	0.0	446.51353096961975	0.09990406036376953
65	191.8071370124817	fix_pre	0		17.0	63.0	2.5	/experiments/knapen_aot/videos/S_yt-hRAqAwRhmwE_58.mp4	0.0	446.6134350299835	0.14187002182006836
65	191.9406521320343	response	0	2		63.0	2.5	/experiments/knapen_aot/videos/S_yt-hRAqAwRhmwE_58.mp4	0.0	446.74695014953613	
65	191.94900703430176	movie	1		301.0	63.0	2.5	/experiments/knapen_aot/videos/S_yt-hRAqAwRhmwE_58.mp4	0.0	446.7553050518036	2.508165121078491
65	194.45717215538025	fix_post	2		12.0	63.0	2.5	/experiments/knapen_aot/videos/S_yt-hRAqAwRhmwE_58.mp4	0.0	449.2634701728821	0.09993600845336914
66	194.55710816383362	fix_pre	0		27.0	64.0	2.5	/experiments/knapen_aot/videos/S_yt-xnqqB-leeaQ_128.mp4	0.0	449.36340618133545	0.22505998611450195
66	194.77396202087402	response	0	2		64.0	2.5	/experiments/knapen_aot/videos/S_yt-xnqqB-leeaQ_128.mp4	0.0	449.58026003837585	
66	194.78216814994812	movie	1		301.0	64.0	2.5	/experiments/knapen_aot/videos/S_yt-xnqqB-leeaQ_128.mp4	0.0	449.58846616744995	2.508387804031372
66	197.2905559539795	fix_post	2		12.0	64.0	2.5	/experiments/knapen_aot/videos/S_yt-xnqqB-leeaQ_128.mp4	0.0	452.0968539714813	0.09996700286865234
67	197.39052295684814	fix_pre	0		104.0	65.0	2.5	/experiments/knapen_aot/videos/R_S_yt-7XDVHp75fu4_93.mp4	0.0	452.19682097435	0.8665590286254883
67	198.24895000457764	response	0	2		65.0	2.5	/experiments/knapen_aot/videos/R_S_yt-7XDVHp75fu4_93.mp4	0.0	453.05524802207947	
67	198.25708198547363	movie	1		301.0	65.0	2.5	/experiments/knapen_aot/videos/R_S_yt-7XDVHp75fu4_93.mp4	0.0	453.06338000297546	2.5083651542663574
67	200.76544713974	fix_post	2		12.0	65.0	2.5	/experiments/knapen_aot/videos/R_S_yt-7XDVHp75fu4_93.mp4	0.0	455.5717451572418	0.10005378723144531
68	200.86550092697144	fix_pre	0		93.0	66.0	2.5	/experiments/knapen_aot/videos/R_S_4_D1iUb87uE_15.mp4	0.0	455.67179894447327	0.7777271270751953
68	201.6322250366211	response	0	2		66.0	2.5	/experiments/knapen_aot/videos/R_S_4_D1iUb87uE_15.mp4	0.0	456.4385230541229	
68	201.64322805404663	movie	1		301.0	66.0	2.5	/experiments/knapen_aot/videos/R_S_4_D1iUb87uE_15.mp4	0.0	456.44952607154846	2.505574941635132
68	204.14880299568176	fix_post	2		12.0	66.0	2.5	/experiments/knapen_aot/videos/R_S_4_D1iUb87uE_15.mp4	0.0	458.9551010131836	0.0999760627746582
69	204.24877905845642	fix_pre	0		21.0	67.0	2.5	/experiments/knapen_aot/videos/R_S_production_ID_4154238.mp4	0.0	459.05507707595825	0.17504096031188965
69	204.4156141281128	response	0	2		67.0	2.5	/experiments/knapen_aot/videos/R_S_production_ID_4154238.mp4	0.0	459.2219121456146	
69	204.4238200187683	movie	1		199.0	67.0	2.5	/experiments/knapen_aot/videos/R_S_production_ID_4154238.mp4	0.0	459.23011803627014	2.508319139480591
69	206.9321391582489	fix_post	2		12.0	67.0	2.5	/experiments/knapen_aot/videos/R_S_production_ID_4154238.mp4	0.0	461.73843717575073	0.10003280639648438
70	207.03217196464539	fix_pre	0		75.0	68.0	2.5	/experiments/knapen_aot/videos/S_yt-p0buJEEKeuI_61.mp4	0.0	461.8384699821472	0.6332941055297852
70	207.65727400779724	response	0	2		68.0	2.5	/experiments/knapen_aot/videos/S_yt-p0buJEEKeuI_61.mp4	0.0	462.4635720252991	
70	207.66546607017517	movie	1		301.0	68.0	2.5	/experiments/knapen_aot/videos/S_yt-p0buJEEKeuI_61.mp4	0.0	462.471764087677	2.508341073989868
70	210.17380714416504	fix_post	2		12.0	68.0	2.5	/experiments/knapen_aot/videos/S_yt-p0buJEEKeuI_61.mp4	0.0	464.98010516166687	0.09999394416809082
71	210.27380108833313	fix_pre	0		18.0	69.0	2.5	/experiments/knapen_aot/videos/S_yt-4W224-RSCnM_15.mp4	0.0	465.08009910583496	0.14989900588989258
71	210.4155330657959	response	0	2		69.0	2.5	/experiments/knapen_aot/videos/S_yt-4W224-RSCnM_15.mp4	0.0	465.22183108329773	
71	210.42370009422302	movie	1		301.0	69.0	2.5	/experiments/knapen_aot/videos/S_yt-4W224-RSCnM_15.mp4	0.0	465.22999811172485	2.5084569454193115
71	212.93215703964233	fix_post	2		12.0	69.0	2.5	/experiments/knapen_aot/videos/S_yt-4W224-RSCnM_15.mp4	0.0	467.73845505714417	0.09994792938232422
72	213.03210496902466	fix_pre	0		14.0	70.0	2.5	blank	1.0	467.8384029865265	0.11667609214782715
72	213.1405611038208	response	0	2		70.0	2.5	blank	1.0	467.94685912132263	
72	213.14878106117249	movie	1		301.0	70.0	2.5	blank	1.0	467.9550790786743	2.5082919597625732
72	215.65707302093506	fix_post	2		11.0	70.0	2.5	blank	1.0	470.4633710384369	0.09992504119873047
73	215.7569980621338	fix_pre	0		18.0	71.0	2.5	/experiments/knapen_aot/videos/R_S_yt-KVB49z48sZU_55.mp4	0.0	470.5632960796356	0.15006804466247559
73	215.8988709449768	response	0	2		71.0	2.5	/experiments/knapen_aot/videos/R_S_yt-KVB49z48sZU_55.mp4	0.0	470.70516896247864	
73	215.90706610679626	movie	1		301.0	71.0	2.5	/experiments/knapen_aot/videos/R_S_yt-KVB49z48sZU_55.mp4	0.0	470.7133641242981	2.508370876312256
73	218.41543698310852	fix_post	2		12.0	71.0	2.5	/experiments/knapen_aot/videos/R_S_yt-KVB49z48sZU_55.mp4	0.0	473.22173500061035	0.09998416900634766
74	218.51542115211487	fix_pre	0		72.0	72.0	2.5	/experiments/knapen_aot/videos/S_pexels-mart-production-7698693.mp4	0.0	473.3217191696167	0.5999457836151123
74	219.10728907585144	response	0	2		72.0	2.5	/experiments/knapen_aot/videos/S_pexels-mart-production-7698693.mp4	0.0	473.91358709335327	
74	219.11536693572998	movie	1		196.0	72.0	2.5	/experiments/knapen_aot/videos/S_pexels-mart-production-7698693.mp4	0.0	473.9216649532318	2.5083160400390625
74	221.62368297576904	fix_post	2		12.0	72.0	2.5	/experiments/knapen_aot/videos/S_pexels-mart-production-7698693.mp4	0.0	476.4299809932709	0.1000511646270752
75	221.72373414039612	fix_pre	0		16.0	73.0	2.5	/experiments/knapen_aot/videos/R_S_ILSVRC2015_train_00565000.mp4	0.0	476.53003215789795	0.13456988334655762
75	221.84891295433044	response	0	2		73.0	2.5	/experiments/knapen_aot/videos/R_S_ILSVRC2015_train_00565000.mp4	0.0	476.6552109718323	
75	221.85830402374268	movie	1		300.0	73.0	2.5	/experiments/knapen_aot/videos/R_S_ILSVRC2015_train_00565000.mp4	0.0	476.6646020412445	2.5071089267730713
75	224.36541295051575	fix_post	2		12.0	73.0	2.5	/experiments/knapen_aot/videos/R_S_ILSVRC2015_train_00565000.mp4	0.0	479.1717109680176	0.09995317459106445
76	224.4653661251068	fix_pre	0		20.0	74.0	2.5	/experiments/knapen_aot/videos/S_production_ID_4153808.mp4	0.0	479.27166414260864	0.16668987274169922
76	224.62384510040283	response	0	2		74.0	2.5	/experiments/knapen_aot/videos/S_production_ID_4153808.mp4	0.0	479.43014311790466	
76	224.6320559978485	movie	1		191.0	74.0	2.5	/experiments/knapen_aot/videos/S_production_ID_4153808.mp4	0.0	479.43835401535034	2.5082671642303467
76	227.14032316207886	fix_post	2		12.0	74.0	2.5	/experiments/knapen_aot/videos/S_production_ID_4153808.mp4	0.0	481.9466211795807	0.10004091262817383
77	227.24036407470703	fix_pre	0		23.0	75.0	2.5	/experiments/knapen_aot/videos/S_yt-4BAsE47kJNk_88.mp4	0.0	482.04666209220886	0.19165992736816406
77	227.42388010025024	response	0	2		75.0	2.5	/experiments/knapen_aot/videos/S_yt-4BAsE47kJNk_88.mp4	0.0	482.2301781177521	
77	227.4320240020752	movie	1		301.0	75.0	2.5	/experiments/knapen_aot/videos/S_yt-4BAsE47kJNk_88.mp4	0.0	482.238322019577	2.508355140686035
77	229.94037914276123	fix_post	2		12.0	75.0	2.5	/experiments/knapen_aot/videos/S_yt-4BAsE47kJNk_88.mp4	0.0	484.74667716026306	0.10002279281616211
78	230.0404019355774	fix_pre	0		91.0	76.0	2.5	/experiments/knapen_aot/videos/S_yt-HwGg4-zeWi8_364.mp4	0.0	484.8466999530792	0.7582690715789795
78	230.79048013687134	response	0	2		76.0	2.5	/experiments/knapen_aot/videos/S_yt-HwGg4-zeWi8_364.mp4	0.0	485.59677815437317	
78	230.79867100715637	movie	1		301.0	76.0	2.5	/experiments/knapen_aot/videos/S_yt-HwGg4-zeWi8_364.mp4	0.0	485.6049690246582	2.508358955383301
78	233.30702996253967	fix_post	2		12.0	76.0	2.5	/experiments/knapen_aot/videos/S_yt-HwGg4-zeWi8_364.mp4	0.0	488.1133279800415	0.09994101524353027
79	233.4069709777832	fix_pre	0		79.0	77.0	2.5	blank	1.0	488.21326899528503	0.658282995223999
79	234.0571789741516	response	0	2		77.0	2.5	blank	1.0	488.86347699165344	
79	234.0652539730072	movie	1		301.0	77.0	2.5	blank	1.0	488.87155199050903	2.5084750652313232
79	236.57372903823853	fix_post	2		12.0	77.0	2.5	blank	1.0	491.38002705574036	0.09999489784240723
80	236.67372393608093	fix_pre	0		15.0	78.0	2.5	/experiments/knapen_aot/videos/R_S_yt-xrPrnzvWUkY_7.mp4	0.0	491.48002195358276	0.12492108345031738
80	236.7904989719391	response	0	2		78.0	2.5	/experiments/knapen_aot/videos/R_S_yt-xrPrnzvWUkY_7.mp4	0.0	491.5967969894409	
80	236.79864501953125	movie	1		300.0	78.0	2.5	/experiments/knapen_aot/videos/R_S_yt-xrPrnzvWUkY_7.mp4	0.0	491.6049430370331	2.5082969665527344
80	239.30694198608398	fix_post	2		12.0	78.0	2.5	/experiments/knapen_aot/videos/R_S_yt-xrPrnzvWUkY_7.mp4	0.0	494.1132400035858	0.10005807876586914
81	239.40700006484985	fix_pre	0		87.0	79.0	2.5	/experiments/knapen_aot/videos/R_S_pexels-mikael-blomkvist-8689852.mp4	0.0	494.2132980823517	0.7249839305877686
81	240.12396502494812	response	0	2		79.0	2.5	/experiments/knapen_aot/videos/R_S_pexels-mikael-blomkvist-8689852.mp4	0.0	494.93026304244995	
81	240.13198399543762	movie	1		164.0	79.0	2.5	/experiments/knapen_aot/videos/R_S_pexels-mikael-blomkvist-8689852.mp4	0.0	494.93828201293945	2.508331060409546
81	242.64031505584717	fix_post	2		12.0	79.0	2.5	/experiments/knapen_aot/videos/R_S_pexels-mikael-blomkvist-8689852.mp4	0.0	497.446613073349	0.10005688667297363
82	242.74037194252014	fix_pre	0		15.0	80.0	2.5	/experiments/knapen_aot/videos/S_ILSVRC2015_train_00565000.mp4	0.0	497.546669960022	0.12496018409729004
82	242.85719394683838	response	0	2		80.0	2.5	/experiments/knapen_aot/videos/S_ILSVRC2015_train_00565000.mp4	0.0	497.6634919643402	
82	242.86533212661743	movie	1		299.0	80.0	2.5	/experiments/knapen_aot/videos/S_ILSVRC2015_train_00565000.mp4	0.0	497.67163014411926	2.5082199573516846
82	245.37355208396912	fix_post	2		12.0	80.0	2.5	/experiments/knapen_aot/videos/S_ILSVRC2015_train_00565000.mp4	0.0	500.17985010147095	0.10007596015930176
83	245.47362804412842	fix_pre	0		118.0	81.0	2.5	/experiments/knapen_aot/videos/S_video_inspire_sanfrancisco_castro_005.1080-h264.mp4	0.0	500.27992606163025	0.9832980632781982
83	246.44877409934998	response	0	2		81.0	2.5	/experiments/knapen_aot/videos/S_video_inspire_sanfrancisco_castro_005.1080-h264.mp4	0.0	501.2550721168518	
83	246.45692610740662	movie	1		166.0	81.0	2.5	/experiments/knapen_aot/videos/S_video_inspire_sanfrancisco_castro_005.1080-h264.mp4	0.0	501.26322412490845	2.5083649158477783
83	248.9652910232544	fix_post	2		12.0	81.0	2.5	/experiments/knapen_aot/videos/S_video_inspire_sanfrancisco_castro_005.1080-h264.mp4	0.0	503.7715890407562	0.1011199951171875
84	249.06641101837158	fix_pre	0		32.0	82.0	2.5	blank	1.0	503.8727090358734	0.26552796363830566
84	249.3162181377411	response	0	2		82.0	2.5	blank	1.0	504.1225161552429	
84	249.3319389820099	movie	1		301.0	82.0	2.5	blank	1.0	504.1382369995117	2.5083279609680176
84	251.8402669429779	fix_post	2		12.0	82.0	2.5	blank	1.0	506.64656496047974	0.09996604919433594
85	251.94023299217224	fix_pre	0		33.0	83.0	2.5	/experiments/knapen_aot/videos/S_yt-CeOZeB1LXwE_79.mp4	0.0	506.7465310096741	0.2750401496887207
85	252.20695805549622	response	0	2		83.0	2.5	/experiments/knapen_aot/videos/S_yt-CeOZeB1LXwE_79.mp4	0.0	507.01325607299805	
85	252.21527314186096	movie	1		300.0	83.0	2.5	/experiments/knapen_aot/videos/S_yt-CeOZeB1LXwE_79.mp4	0.0	507.0215711593628	2.5083258152008057
85	254.72359895706177	fix_post	2		12.0	83.0	2.5	/experiments/knapen_aot/videos/S_yt-CeOZeB1LXwE_79.mp4	0.0	509.5298969745636	0.10000419616699219
87	254.82360315322876	stim	0		522.0					509.6299011707306	4.349946975708008
87	255.02375411987305	response	0	2						509.8300521373749	
87	259.1656310558319	response	0	space						513.9719290733337	
