trial_nr	onset	event_type	phase	response	nr_frames	movie_index	movie_duration	movie_file	blank	onset_abs	duration
0	0.1583240032196045	stim	0		38.0					107.33458280563354	0.31920599937438965
0	0.4668591022491455	response	0	space						107.64311790466309	
1	0.47753000259399414	stim	0		121.0					107.65378880500793	1.005836009979248
1	1.4833660125732422	stim	1		120.0					108.65962481498718	0.9995651245117188
1	2.024761199951172	response	1	space						109.20102000236511	
2	2.482931137084961	fix_pre	0		62.0	0.0	2.5	/experiments/knapen_aot/videos/R_S_yt-BQixB0mumIk_169.mp4	0.0	109.6591899394989	0.5166840553283691
2	2.9915101528167725	response	0	space		0.0	2.5	/experiments/knapen_aot/videos/R_S_yt-BQixB0mumIk_169.mp4	0.0	110.16776895523071	
2	2.99961519241333	movie	1		300.0	0.0	2.5	/experiments/knapen_aot/videos/R_S_yt-BQixB0mumIk_169.mp4	0.0	110.17587399482727	2.5083789825439453
2	5.507994174957275	fix_post	2		11.0	0.0	2.5	/experiments/knapen_aot/videos/R_S_yt-BQixB0mumIk_169.mp4	0.0	112.68425297737122	0.09996485710144043
3	5.607959032058716	fix_pre	0		180.0	1.0	2.5	/experiments/knapen_aot/videos/R_S_video.mp4	0.0	112.78421783447266	1.5010991096496582
3	7.102814197540283	response	0	4		1.0	2.5	/experiments/knapen_aot/videos/R_S_video.mp4	0.0	114.27907299995422	
3	7.109058141708374	movie	1		168.0	1.0	2.5	/experiments/knapen_aot/videos/R_S_video.mp4	0.0	114.28531694412231	2.5072319507598877
3	9.616290092468262	fix_post	2		12.0	1.0	2.5	/experiments/knapen_aot/videos/R_S_video.mp4	0.0	116.7925488948822	0.09996509552001953
4	9.716255187988281	fix_pre	0		69.0	2.0	2.5	/experiments/knapen_aot/videos/R_S_yt-0bovQBIUZho_15.mp4	0.0	116.89251399040222	0.5749959945678711
4	10.283061981201172	response	0	4		2.0	2.5	/experiments/knapen_aot/videos/R_S_yt-0bovQBIUZho_15.mp4	0.0	117.45932078361511	
4	10.291251182556152	movie	1		298.0	2.0	2.5	/experiments/knapen_aot/videos/R_S_yt-0bovQBIUZho_15.mp4	0.0	117.46750998497009	2.508328914642334
4	12.799580097198486	fix_post	2		12.0	2.0	2.5	/experiments/knapen_aot/videos/R_S_yt-0bovQBIUZho_15.mp4	0.0	119.97583889961243	0.1000518798828125
5	12.899631977081299	fix_pre	0		16.0	3.0	2.5	/experiments/knapen_aot/videos/S_ILSVRC2015_train_00613000.mp4	0.0	120.07589077949524	0.13333821296691895
5	13.024712085723877	response	0	4		3.0	2.5	/experiments/knapen_aot/videos/S_ILSVRC2015_train_00613000.mp4	0.0	120.20097088813782	
5	13.032970190048218	movie	1		301.0	3.0	2.5	/experiments/knapen_aot/videos/S_ILSVRC2015_train_00613000.mp4	0.0	120.20922899246216	2.508335828781128
5	15.541306018829346	fix_post	2		12.0	3.0	2.5	/experiments/knapen_aot/videos/S_ILSVRC2015_train_00613000.mp4	0.0	122.71756482124329	0.10001206398010254
6	15.641318082809448	fix_pre	0		17.0	4.0	2.5	/experiments/knapen_aot/videos/S_yt-pOCEuqVE7ro_61.mp4	0.0	122.81757688522339	0.14160799980163574
6	15.774746179580688	response	0	4		4.0	2.5	/experiments/knapen_aot/videos/S_yt-pOCEuqVE7ro_61.mp4	0.0	122.95100498199463	
6	15.782926082611084	movie	1		299.0	4.0	2.5	/experiments/knapen_aot/videos/S_yt-pOCEuqVE7ro_61.mp4	0.0	122.95918488502502	2.5082778930664062
6	18.29120397567749	fix_post	2		12.0	4.0	2.5	/experiments/knapen_aot/videos/S_yt-pOCEuqVE7ro_61.mp4	0.0	125.46746277809143	0.10005307197570801
7	18.3912570476532	fix_pre	0		215.0	5.0	2.5	blank	1.0	125.56751585006714	1.7916021347045898
7	20.167180061340332	response	0	4		5.0	2.5	blank	1.0	127.34343886375427	
7	20.182859182357788	movie	1		301.0	5.0	2.5	blank	1.0	127.35911798477173	2.508368968963623
7	21.907978057861328	response	1	4		5.0	2.5	blank	1.0	129.08423686027527	
7	22.69122815132141	fix_post	2		12.0	5.0	2.5	blank	1.0	129.86748695373535	0.10001897811889648
8	22.791247129440308	fix_pre	0		174.0	6.0	2.5	/experiments/knapen_aot/videos/S_yt-FhnT_42bV7M_11.mp4	0.0	129.96750593185425	1.4499528408050537
8	24.23312211036682	response	0	4		6.0	2.5	/experiments/knapen_aot/videos/S_yt-FhnT_42bV7M_11.mp4	0.0	131.40938091278076	
8	24.24119997024536	movie	1		301.0	6.0	2.5	/experiments/knapen_aot/videos/S_yt-FhnT_42bV7M_11.mp4	0.0	131.4174587726593	2.5083281993865967
8	26.749528169631958	fix_post	2		12.0	6.0	2.5	/experiments/knapen_aot/videos/S_yt-FhnT_42bV7M_11.mp4	0.0	133.9257869720459	0.09997892379760742
9	26.849507093429565	fix_pre	0		94.0	7.0	2.5	/experiments/knapen_aot/videos/S_yt-OrTpetjDNKs_31.mp4	0.0	134.0257658958435	0.7833089828491211
9	27.62464213371277	response	0	4		7.0	2.5	/experiments/knapen_aot/videos/S_yt-OrTpetjDNKs_31.mp4	0.0	134.8009009361267	
9	27.632816076278687	movie	1		299.0	7.0	2.5	/experiments/knapen_aot/videos/S_yt-OrTpetjDNKs_31.mp4	0.0	134.80907487869263	2.508359909057617
9	30.141175985336304	fix_post	2		12.0	7.0	2.5	/experiments/knapen_aot/videos/S_yt-OrTpetjDNKs_31.mp4	0.0	137.31743478775024	0.10008621215820312
10	30.241262197494507	fix_pre	0		48.0	8.0	2.5	/experiments/knapen_aot/videos/R_S_comp_A001_C004_1207W5_v23_SDR_FINAL_20180706_SDR_2K_AVC.mp4	0.0	137.41752099990845	0.3999347686767578
10	30.63296103477478	response	0	4		8.0	2.5	/experiments/knapen_aot/videos/R_S_comp_A001_C004_1207W5_v23_SDR_FINAL_20180706_SDR_2K_AVC.mp4	0.0	137.80921983718872	
10	30.641196966171265	movie	1		171.0	8.0	2.5	/experiments/knapen_aot/videos/R_S_comp_A001_C004_1207W5_v23_SDR_FINAL_20180706_SDR_2K_AVC.mp4	0.0	137.8174557685852	2.508371114730835
10	33.1495680809021	fix_post	2		12.0	8.0	2.5	/experiments/knapen_aot/videos/R_S_comp_A001_C004_1207W5_v23_SDR_FINAL_20180706_SDR_2K_AVC.mp4	0.0	140.32582688331604	0.09994792938232422
11	33.249516010284424	fix_pre	0		176.0	9.0	2.5	/experiments/knapen_aot/videos/S_ILSVRC2015_train_00155004.mp4	0.0	140.42577481269836	1.4666450023651123
11	34.70801305770874	response	0	4		9.0	2.5	/experiments/knapen_aot/videos/S_ILSVRC2015_train_00155004.mp4	0.0	141.88427186012268	
11	34.716161012649536	movie	1		301.0	9.0	2.5	/experiments/knapen_aot/videos/S_ILSVRC2015_train_00155004.mp4	0.0	141.89241981506348	2.5084011554718018
11	37.22456216812134	fix_post	2		12.0	9.0	2.5	/experiments/knapen_aot/videos/S_ILSVRC2015_train_00155004.mp4	0.0	144.40082097053528	0.10007596015930176
12	37.32463812828064	fix_pre	0		34.0	10.0	2.5	/experiments/knapen_aot/videos/R_S_ILSVRC2015_train_00379000.mp4	0.0	144.50089693069458	0.28417205810546875
12	37.599725008010864	response	0	4		10.0	2.5	/experiments/knapen_aot/videos/R_S_ILSVRC2015_train_00379000.mp4	0.0	144.7759838104248	
12	37.60881018638611	movie	1		301.0	10.0	2.5	/experiments/knapen_aot/videos/R_S_ILSVRC2015_train_00379000.mp4	0.0	144.78506898880005	2.50738787651062
12	40.11619806289673	fix_post	2		12.0	10.0	2.5	/experiments/knapen_aot/videos/R_S_ILSVRC2015_train_00379000.mp4	0.0	147.29245686531067	0.10002994537353516
13	40.216228008270264	fix_pre	0		579.0	11.0	2.5	/experiments/knapen_aot/videos/S_yt-h09NHEfoKb0_8.mp4	0.0	147.3924868106842	4.8249030113220215
13	45.02548408508301	response	0	4		11.0	2.5	/experiments/knapen_aot/videos/S_yt-h09NHEfoKb0_8.mp4	0.0	152.20174288749695	
13	45.041131019592285	movie	1		301.0	11.0	2.5	/experiments/knapen_aot/videos/S_yt-h09NHEfoKb0_8.mp4	0.0	152.21738982200623	2.5084190368652344
13	47.54955005645752	fix_post	2		12.0	11.0	2.5	/experiments/knapen_aot/videos/S_yt-h09NHEfoKb0_8.mp4	0.0	154.72580885887146	0.10085105895996094
14	47.65040111541748	fix_pre	0		81.0	12.0	2.5	/experiments/knapen_aot/videos/R_S_yt-hQ5pge893b4_6.mp4	0.0	154.82665991783142	0.6740429401397705
14	48.31630516052246	response	0	4		12.0	2.5	/experiments/knapen_aot/videos/R_S_yt-hQ5pge893b4_6.mp4	0.0	155.4925639629364	
14	48.32444405555725	movie	1		301.0	12.0	2.5	/experiments/knapen_aot/videos/R_S_yt-hQ5pge893b4_6.mp4	0.0	155.5007028579712	2.5083680152893066
14	50.83281207084656	fix_post	2		12.0	12.0	2.5	/experiments/knapen_aot/videos/R_S_yt-hQ5pge893b4_6.mp4	0.0	158.0090708732605	0.09996604919433594
15	50.932778120040894	fix_pre	0		30.0	13.0	2.5	blank	1.0	158.10903692245483	0.2500040531158447
15	51.17459297180176	response	0	4		13.0	2.5	blank	1.0	158.3508517742157	
15	51.18278217315674	movie	1		301.0	13.0	2.5	blank	1.0	158.35904097557068	2.5082459449768066
15	53.691028118133545	fix_post	2		12.0	13.0	2.5	blank	1.0	160.86728692054749	0.10008907318115234
16	53.7911171913147	fix_pre	0		35.0	14.0	2.5	/experiments/knapen_aot/videos/S_comp_DB_D011_C010_PSNK_DENOISE_v19_SDR_PS_20180914_SDR_2K_AVC.mp4	0.0	160.96737599372864	0.2915968894958496
16	54.074493169784546	response	0	4		14.0	2.5	/experiments/knapen_aot/videos/S_comp_DB_D011_C010_PSNK_DENOISE_v19_SDR_PS_20180914_SDR_2K_AVC.mp4	0.0	161.2507519721985	
16	54.08271408081055	movie	1		165.0	14.0	2.5	/experiments/knapen_aot/videos/S_comp_DB_D011_C010_PSNK_DENOISE_v19_SDR_PS_20180914_SDR_2K_AVC.mp4	0.0	161.2589728832245	2.5083670616149902
16	56.59108114242554	fix_post	2		12.0	14.0	2.5	/experiments/knapen_aot/videos/S_comp_DB_D011_C010_PSNK_DENOISE_v19_SDR_PS_20180914_SDR_2K_AVC.mp4	0.0	163.76733994483948	0.10003805160522461
17	56.69111919403076	fix_pre	0		38.0	15.0	2.5	/experiments/knapen_aot/videos/S_yt-cjndulbUtRc_51.mp4	0.0	163.8673779964447	0.3165898323059082
17	56.99953818321228	response	0	4		15.0	2.5	/experiments/knapen_aot/videos/S_yt-cjndulbUtRc_51.mp4	0.0	164.17579698562622	
17	57.00770902633667	movie	1		301.0	15.0	2.5	/experiments/knapen_aot/videos/S_yt-cjndulbUtRc_51.mp4	0.0	164.1839678287506	2.508384943008423
17	59.51609396934509	fix_post	2		12.0	15.0	2.5	/experiments/knapen_aot/videos/S_yt-cjndulbUtRc_51.mp4	0.0	166.69235277175903	0.09998607635498047
18	59.61608004570007	fix_pre	0		29.0	16.0	2.5	/experiments/knapen_aot/videos/S_pexels-kampus-production-5991896.mp4	0.0	166.792338848114	0.2425079345703125
18	59.849478006362915	response	0	4		16.0	2.5	/experiments/knapen_aot/videos/S_pexels-kampus-production-5991896.mp4	0.0	167.02573680877686	
18	59.858587980270386	movie	1		167.0	16.0	2.5	/experiments/knapen_aot/videos/S_pexels-kampus-production-5991896.mp4	0.0	167.03484678268433	2.5074031352996826
18	62.36599111557007	fix_post	2		12.0	16.0	2.5	/experiments/knapen_aot/videos/S_pexels-kampus-production-5991896.mp4	0.0	169.542249917984	0.10006594657897949
19	62.46605706214905	fix_pre	0		29.0	17.0	2.5	/experiments/knapen_aot/videos/S_yt-5doJmCcFL7s_3.mp4	0.0	169.642315864563	0.2417740821838379
19	62.69955110549927	response	0	4		17.0	2.5	/experiments/knapen_aot/videos/S_yt-5doJmCcFL7s_3.mp4	0.0	169.8758099079132	
19	62.707831144332886	movie	1		300.0	17.0	2.5	/experiments/knapen_aot/videos/S_yt-5doJmCcFL7s_3.mp4	0.0	169.88408994674683	2.5082318782806396
19	65.21606302261353	fix_post	2		12.0	17.0	2.5	/experiments/knapen_aot/videos/S_yt-5doJmCcFL7s_3.mp4	0.0	172.39232182502747	0.09992814064025879
20	65.31599116325378	fix_pre	0		25.0	18.0	2.5	/experiments/knapen_aot/videos/R_S_ILSVRC2015_train_00568002.mp4	0.0	172.49224996566772	0.2092130184173584
20	65.5086841583252	response	0	4		18.0	2.5	/experiments/knapen_aot/videos/R_S_ILSVRC2015_train_00568002.mp4	0.0	172.68494296073914	
20	65.52520418167114	movie	1		301.0	18.0	2.5	/experiments/knapen_aot/videos/R_S_ILSVRC2015_train_00568002.mp4	0.0	172.70146298408508	2.507483959197998
20	68.03268814086914	fix_post	2		12.0	18.0	2.5	/experiments/knapen_aot/videos/R_S_ILSVRC2015_train_00568002.mp4	0.0	175.20894694328308	0.10003185272216797
21	68.13271999359131	fix_pre	0		454.0	19.0	2.5	/experiments/knapen_aot/videos/R_S_yt-UKrWbJEs7pw_74.mp4	0.0	175.30897879600525	3.783277988433838
21	71.907870054245	response	0	4		19.0	2.5	/experiments/knapen_aot/videos/R_S_yt-UKrWbJEs7pw_74.mp4	0.0	179.08412885665894	
21	71.91599798202515	movie	1		301.0	19.0	2.5	/experiments/knapen_aot/videos/R_S_yt-UKrWbJEs7pw_74.mp4	0.0	179.0922567844391	2.508251190185547
21	74.4242491722107	fix_post	2		12.0	19.0	2.5	/experiments/knapen_aot/videos/R_S_yt-UKrWbJEs7pw_74.mp4	0.0	181.60050797462463	0.10004496574401855
22	74.52429413795471	fix_pre	0		22.0	20.0	2.5	/experiments/knapen_aot/videos/S_yt-tOOaOzYvtKE_79.mp4	0.0	181.70055294036865	0.18332791328430176
22	74.6994161605835	response	0	4		20.0	2.5	/experiments/knapen_aot/videos/S_yt-tOOaOzYvtKE_79.mp4	0.0	181.87567496299744	
22	74.70762205123901	movie	1		301.0	20.0	2.5	/experiments/knapen_aot/videos/S_yt-tOOaOzYvtKE_79.mp4	0.0	181.88388085365295	2.5084240436553955
22	77.21604609489441	fix_post	2		12.0	20.0	2.5	/experiments/knapen_aot/videos/S_yt-tOOaOzYvtKE_79.mp4	0.0	184.39230489730835	0.09999394416809082
23	77.3160400390625	fix_pre	0		29.0	21.0	2.5	blank	1.0	184.49229884147644	0.2415931224822998
23	77.54195713996887	response	0	4		21.0	2.5	blank	1.0	184.7182159423828	
23	77.5576331615448	movie	1		301.0	21.0	2.5	blank	1.0	184.73389196395874	2.508309841156006
23	80.0659430027008	fix_post	2		12.0	21.0	2.5	blank	1.0	187.24220180511475	0.10003519058227539
24	80.16597819328308	fix_pre	0		51.0	22.0	2.5	/experiments/knapen_aot/videos/R_S_yt-m8HxO_-RRq0_127.mp4	0.0	187.34223699569702	0.42498278617858887
24	80.58269000053406	response	0	4		22.0	2.5	/experiments/knapen_aot/videos/R_S_yt-m8HxO_-RRq0_127.mp4	0.0	187.758948802948	
24	80.59096097946167	movie	1		301.0	22.0	2.5	/experiments/knapen_aot/videos/R_S_yt-m8HxO_-RRq0_127.mp4	0.0	187.7672197818756	2.5082931518554688
24	83.09925413131714	fix_post	2		12.0	22.0	2.5	/experiments/knapen_aot/videos/R_S_yt-m8HxO_-RRq0_127.mp4	0.0	190.27551293373108	0.1000368595123291
25	83.19929099082947	fix_pre	0		16.0	23.0	2.5	/experiments/knapen_aot/videos/R_S_yt-pOCEuqVE7ro_61.mp4	0.0	190.3755497932434	0.13334107398986816
25	83.31696796417236	response	0	4		23.0	2.5	/experiments/knapen_aot/videos/R_S_yt-pOCEuqVE7ro_61.mp4	0.0	190.4932267665863	
25	83.33263206481934	movie	1		301.0	23.0	2.5	/experiments/knapen_aot/videos/R_S_yt-pOCEuqVE7ro_61.mp4	0.0	190.50889086723328	2.508315086364746
25	85.84094715118408	fix_post	2		12.0	23.0	2.5	/experiments/knapen_aot/videos/R_S_yt-pOCEuqVE7ro_61.mp4	0.0	193.01720595359802	0.09997892379760742
26	85.94092607498169	fix_pre	0		225.0	24.0	2.5	/experiments/knapen_aot/videos/S_yt-f9iXELY0EJ0_344.mp4	0.0	193.11718487739563	1.8756680488586426
26	87.80777311325073	response	0	4		24.0	2.5	/experiments/knapen_aot/videos/S_yt-f9iXELY0EJ0_344.mp4	0.0	194.98403191566467	
26	87.81659412384033	movie	1		301.0	24.0	2.5	/experiments/knapen_aot/videos/S_yt-f9iXELY0EJ0_344.mp4	0.0	194.99285292625427	2.507585048675537
26	90.32417917251587	fix_post	2		12.0	24.0	2.5	/experiments/knapen_aot/videos/S_yt-f9iXELY0EJ0_344.mp4	0.0	197.5004379749298	0.10007786750793457
27	90.4242570400238	fix_pre	0		100.0	25.0	2.5	/experiments/knapen_aot/videos/R_S_yt-35i8UeYXjGw_47.mp4	0.0	197.60051584243774	0.8332960605621338
27	91.24942803382874	response	0	4		25.0	2.5	/experiments/knapen_aot/videos/R_S_yt-35i8UeYXjGw_47.mp4	0.0	198.42568683624268	
27	91.25755310058594	movie	1		301.0	25.0	2.5	/experiments/knapen_aot/videos/R_S_yt-35i8UeYXjGw_47.mp4	0.0	198.43381190299988	2.5083510875701904
27	93.76590418815613	fix_post	2		12.0	25.0	2.5	/experiments/knapen_aot/videos/R_S_yt-35i8UeYXjGw_47.mp4	0.0	200.94216299057007	0.0999917984008789
28	93.865895986557	fix_pre	0		117.0	26.0	2.5	/experiments/knapen_aot/videos/S_yt-n_eO-7KedAE_21.mp4	0.0	201.04215478897095	0.9750220775604248
28	94.8326530456543	response	0	4		26.0	2.5	/experiments/knapen_aot/videos/S_yt-n_eO-7KedAE_21.mp4	0.0	202.00891184806824	
28	94.84091806411743	movie	1		301.0	26.0	2.5	/experiments/knapen_aot/videos/S_yt-n_eO-7KedAE_21.mp4	0.0	202.01717686653137	2.508345127105713
28	97.34926319122314	fix_post	2		11.0	26.0	2.5	/experiments/knapen_aot/videos/S_yt-n_eO-7KedAE_21.mp4	0.0	204.52552199363708	0.09229898452758789
29	97.44156217575073	fix_pre	0		92.0	27.0	2.5	blank	1.0	204.61782097816467	0.765988826751709
29	98.19941401481628	response	0	4		27.0	2.5	blank	1.0	205.37567281723022	
29	98.20755100250244	movie	1		301.0	27.0	2.5	blank	1.0	205.38380980491638	2.5083730220794678
29	100.71592402458191	fix_post	2		12.0	27.0	2.5	blank	1.0	207.89218282699585	0.09995913505554199
30	100.81588315963745	fix_pre	0		43.0	28.0	2.5	/experiments/knapen_aot/videos/R_S_EFR8AteY59I_15.mp4	0.0	207.9921419620514	0.35831594467163086
30	101.16606903076172	response	0	4		28.0	2.5	/experiments/knapen_aot/videos/R_S_EFR8AteY59I_15.mp4	0.0	208.34232783317566	
30	101.17419910430908	movie	1		301.0	28.0	2.5	/experiments/knapen_aot/videos/R_S_EFR8AteY59I_15.mp4	0.0	208.35045790672302	2.5084190368652344
30	103.68261814117432	fix_post	2		12.0	28.0	2.5	/experiments/knapen_aot/videos/R_S_EFR8AteY59I_15.mp4	0.0	210.85887694358826	0.09996294975280762
31	103.78258109092712	fix_pre	0		86.0	29.0	2.5	/experiments/knapen_aot/videos/S_PA_A004_C003_SDR_20190719_SDR_2K_AVC.mp4	0.0	210.95883989334106	0.7166121006011963
31	104.49103713035583	response	0	4		29.0	2.5	/experiments/knapen_aot/videos/S_PA_A004_C003_SDR_20190719_SDR_2K_AVC.mp4	0.0	211.66729593276978	
31	104.49919319152832	movie	1		170.0	29.0	2.5	/experiments/knapen_aot/videos/S_PA_A004_C003_SDR_20190719_SDR_2K_AVC.mp4	0.0	211.67545199394226	2.5083909034729004
31	107.00758409500122	fix_post	2		12.0	29.0	2.5	/experiments/knapen_aot/videos/S_PA_A004_C003_SDR_20190719_SDR_2K_AVC.mp4	0.0	214.18384289741516	0.09999489784240723
32	107.10757899284363	fix_pre	0		19.0	30.0	2.5	/experiments/knapen_aot/videos/S_ILSVRC2015_train_00743005.mp4	0.0	214.28383779525757	0.15834712982177734
32	107.25768208503723	response	0	4		30.0	2.5	/experiments/knapen_aot/videos/S_ILSVRC2015_train_00743005.mp4	0.0	214.43394088745117	
32	107.2659261226654	movie	1		301.0	30.0	2.5	/experiments/knapen_aot/videos/S_ILSVRC2015_train_00743005.mp4	0.0	214.44218492507935	2.5083110332489014
32	109.7742371559143	fix_post	2		12.0	30.0	2.5	/experiments/knapen_aot/videos/S_ILSVRC2015_train_00743005.mp4	0.0	216.95049595832825	0.09998583793640137
33	109.87422299385071	fix_pre	0		248.0	31.0	2.5	/experiments/knapen_aot/videos/R_S_ILSVRC2015_train_00364000.mp4	0.0	217.05048179626465	2.067138195037842
33	111.9326319694519	response	0	4		31.0	2.5	/experiments/knapen_aot/videos/R_S_ILSVRC2015_train_00364000.mp4	0.0	219.10889077186584	
33	111.94136118888855	movie	1		301.0	31.0	2.5	/experiments/knapen_aot/videos/R_S_ILSVRC2015_train_00364000.mp4	0.0	219.1176199913025	2.5078368186950684
33	114.44919800758362	fix_post	2		12.0	31.0	2.5	/experiments/knapen_aot/videos/R_S_ILSVRC2015_train_00364000.mp4	0.0	221.62545680999756	0.09997010231018066
34	114.5491681098938	fix_pre	0		283.0	32.0	2.5	/experiments/knapen_aot/videos/S_yt-UzWRbs9Syf4_7.mp4	0.0	221.72542691230774	2.358222007751465
34	116.89940309524536	response	0	4		32.0	2.5	/experiments/knapen_aot/videos/S_yt-UzWRbs9Syf4_7.mp4	0.0	224.0756618976593	
34	116.90739011764526	movie	1		301.0	32.0	2.5	/experiments/knapen_aot/videos/S_yt-UzWRbs9Syf4_7.mp4	0.0	224.0836489200592	2.5084259510040283
34	119.41581606864929	fix_post	2		12.0	32.0	2.5	/experiments/knapen_aot/videos/S_yt-UzWRbs9Syf4_7.mp4	0.0	226.59207487106323	0.09998393058776855
35	119.51579999923706	fix_pre	0		114.0	33.0	2.5	blank	1.0	226.692058801651	0.9499790668487549
35	120.45008611679077	response	0	4		33.0	2.5	blank	1.0	227.6263449192047	
35	120.46577906608582	movie	1		301.0	33.0	2.5	blank	1.0	227.64203786849976	2.508341073989868
35	122.97412014007568	fix_post	2		12.0	33.0	2.5	blank	1.0	230.15037894248962	0.10003995895385742
36	123.07416009902954	fix_pre	0		61.0	34.0	2.5	/experiments/knapen_aot/videos/S_b8-2.mp4	0.0	230.25041890144348	0.5083010196685791
36	123.57425498962402	response	0	4		34.0	2.5	/experiments/knapen_aot/videos/S_b8-2.mp4	0.0	230.75051379203796	
36	123.58246111869812	movie	1		167.0	34.0	2.5	/experiments/knapen_aot/videos/S_b8-2.mp4	0.0	230.75871992111206	2.508370876312256
36	126.09083199501038	fix_post	2		12.0	34.0	2.5	/experiments/knapen_aot/videos/S_b8-2.mp4	0.0	233.26709079742432	0.09998106956481934
37	126.1908130645752	fix_pre	0		92.0	35.0	2.5	/experiments/knapen_aot/videos/S_yt-icd9UxxxeW0_255.mp4	0.0	233.36707186698914	0.7665829658508301
37	126.94918704032898	response	0	4		35.0	2.5	/experiments/knapen_aot/videos/S_yt-icd9UxxxeW0_255.mp4	0.0	234.12544584274292	
37	126.95739603042603	movie	1		300.0	35.0	2.5	/experiments/knapen_aot/videos/S_yt-icd9UxxxeW0_255.mp4	0.0	234.13365483283997	2.5083489418029785
37	129.465744972229	fix_post	2		12.0	35.0	2.5	/experiments/knapen_aot/videos/S_yt-icd9UxxxeW0_255.mp4	0.0	236.64200377464294	0.09995722770690918
38	129.5657021999359	fix_pre	0		117.0	36.0	2.5	/experiments/knapen_aot/videos/R_S_yt-WrwPgZYBXlA_34.mp4	0.0	236.74196100234985	0.975031852722168
38	130.53262209892273	response	0	4		36.0	2.5	/experiments/knapen_aot/videos/R_S_yt-WrwPgZYBXlA_34.mp4	0.0	237.70888090133667	
38	130.54073405265808	movie	1		301.0	36.0	2.5	/experiments/knapen_aot/videos/R_S_yt-WrwPgZYBXlA_34.mp4	0.0	237.71699285507202	2.508315086364746
38	133.04904913902283	fix_post	2		12.0	36.0	2.5	/experiments/knapen_aot/videos/R_S_yt-WrwPgZYBXlA_34.mp4	0.0	240.22530794143677	0.10049295425415039
39	133.14954209327698	fix_pre	0		107.0	37.0	2.5	/experiments/knapen_aot/videos/R_S_yt-tX3slAQb9yY_13.mp4	0.0	240.32580089569092	0.8911559581756592
39	134.03260803222656	response	0	4		37.0	2.5	/experiments/knapen_aot/videos/R_S_yt-tX3slAQb9yY_13.mp4	0.0	241.2088668346405	
39	134.04069805145264	movie	1		301.0	37.0	2.5	/experiments/knapen_aot/videos/R_S_yt-tX3slAQb9yY_13.mp4	0.0	241.21695685386658	2.5083699226379395
39	136.54906797409058	fix_post	2		12.0	37.0	2.5	/experiments/knapen_aot/videos/R_S_yt-tX3slAQb9yY_13.mp4	0.0	243.72532677650452	0.10052108764648438
40	136.64958906173706	fix_pre	0		46.0	38.0	2.5	/experiments/knapen_aot/videos/S_wc-hmW1OnCPF_xn_37.mp4	0.0	243.825847864151	0.3828771114349365
40	137.02419304847717	response	0	4		38.0	2.5	/experiments/knapen_aot/videos/S_wc-hmW1OnCPF_xn_37.mp4	0.0	244.2004518508911	
40	137.032466173172	movie	1		168.0	38.0	2.5	/experiments/knapen_aot/videos/S_wc-hmW1OnCPF_xn_37.mp4	0.0	244.20872497558594	2.508344888687134
40	139.54081106185913	fix_post	2		12.0	38.0	2.5	/experiments/knapen_aot/videos/S_wc-hmW1OnCPF_xn_37.mp4	0.0	246.71706986427307	0.09992408752441406
41	139.64073514938354	fix_pre	0		118.0	39.0	2.5	/experiments/knapen_aot/videos/S_comp_H012_C009_PS_v01_SDR_PS_20180925_SDR_2K_AVC.mp4	0.0	246.81699395179749	0.9833569526672363
41	140.61595010757446	response	0	4		39.0	2.5	/experiments/knapen_aot/videos/S_comp_H012_C009_PS_v01_SDR_PS_20180925_SDR_2K_AVC.mp4	0.0	247.7922089099884	
41	140.62409210205078	movie	1		166.0	39.0	2.5	/experiments/knapen_aot/videos/S_comp_H012_C009_PS_v01_SDR_PS_20180925_SDR_2K_AVC.mp4	0.0	247.80035090446472	2.5082390308380127
41	143.1323311328888	fix_post	2		12.0	39.0	2.5	/experiments/knapen_aot/videos/S_comp_H012_C009_PS_v01_SDR_PS_20180925_SDR_2K_AVC.mp4	0.0	250.30858993530273	0.10062003135681152
42	143.2329511642456	fix_pre	0		237.0	40.0	2.5	/experiments/knapen_aot/videos/S_yt-4i1b6NQ9NKs_5.mp4	0.0	250.40920996665955	1.9743938446044922
42	145.19912314414978	response	0	4		40.0	2.5	/experiments/knapen_aot/videos/S_yt-4i1b6NQ9NKs_5.mp4	0.0	252.37538194656372	
42	145.2073450088501	movie	1		301.0	40.0	2.5	/experiments/knapen_aot/videos/S_yt-4i1b6NQ9NKs_5.mp4	0.0	252.38360381126404	2.508303165435791
42	147.7156481742859	fix_post	2		12.0	40.0	2.5	/experiments/knapen_aot/videos/S_yt-4i1b6NQ9NKs_5.mp4	0.0	254.89190697669983	0.1004629135131836
43	147.81611108779907	fix_pre	0		78.0	41.0	2.5	blank	1.0	254.992369890213	0.6495568752288818
43	148.44997906684875	response	0	4		41.0	2.5	blank	1.0	255.6262378692627	
43	148.46566796302795	movie	1		301.0	41.0	2.5	blank	1.0	255.6419267654419	2.5082662105560303
43	150.97393417358398	fix_post	2		12.0	41.0	2.5	blank	1.0	258.1501929759979	0.10006594657897949
44	151.07400012016296	fix_pre	0		30.0	42.0	2.5	/experiments/knapen_aot/videos/R_S_yt-UzWRbs9Syf4_7.mp4	0.0	258.2502589225769	0.24999403953552246
44	151.31582117080688	response	0	4		42.0	2.5	/experiments/knapen_aot/videos/R_S_yt-UzWRbs9Syf4_7.mp4	0.0	258.4920799732208	
44	151.3239941596985	movie	1		298.0	42.0	2.5	/experiments/knapen_aot/videos/R_S_yt-UzWRbs9Syf4_7.mp4	0.0	258.5002529621124	2.5083258152008057
44	153.8323199748993	fix_post	2		12.0	42.0	2.5	/experiments/knapen_aot/videos/R_S_yt-UzWRbs9Syf4_7.mp4	0.0	261.00857877731323	0.10005021095275879
45	153.93237018585205	fix_pre	0		119.0	43.0	2.5	/experiments/knapen_aot/videos/S_comp_LA_A011_C003_DGRN_LNFIX_STAB_v57_SDR_PS_20181002_SDR_2K_AVC.mp4	0.0	261.108628988266	0.9916729927062988
45	154.9158411026001	response	0	4		43.0	2.5	/experiments/knapen_aot/videos/S_comp_LA_A011_C003_DGRN_LNFIX_STAB_v57_SDR_PS_20181002_SDR_2K_AVC.mp4	0.0	262.09209990501404	
45	154.92404317855835	movie	1		169.0	43.0	2.5	/experiments/knapen_aot/videos/S_comp_LA_A011_C003_DGRN_LNFIX_STAB_v57_SDR_PS_20181002_SDR_2K_AVC.mp4	0.0	262.1003019809723	2.5082008838653564
45	157.4322440624237	fix_post	2		12.0	43.0	2.5	/experiments/knapen_aot/videos/S_comp_LA_A011_C003_DGRN_LNFIX_STAB_v57_SDR_PS_20181002_SDR_2K_AVC.mp4	0.0	264.60850286483765	0.1000220775604248
46	157.53226613998413	fix_pre	0		102.0	44.0	2.5	/experiments/knapen_aot/videos/S_production_ID_5020960.mp4	0.0	264.70852494239807	0.850071907043457
46	158.36666107177734	response	0	4		44.0	2.5	/experiments/knapen_aot/videos/S_production_ID_5020960.mp4	0.0	265.5429198741913	
46	158.3823380470276	movie	1		207.0	44.0	2.5	/experiments/knapen_aot/videos/S_production_ID_5020960.mp4	0.0	265.5585968494415	2.5082831382751465
46	160.89062118530273	fix_post	2		12.0	44.0	2.5	/experiments/knapen_aot/videos/S_production_ID_5020960.mp4	0.0	268.0668799877167	0.10004091262817383
47	160.9906620979309	fix_pre	0		438.0	45.0	2.5	/experiments/knapen_aot/videos/R_S_yt-9yxWUrtQJnw_11.mp4	0.0	268.16692090034485	3.6499528884887695
47	164.6324770450592	response	0	4		45.0	2.5	/experiments/knapen_aot/videos/R_S_yt-9yxWUrtQJnw_11.mp4	0.0	271.80873584747314	
47	164.64061498641968	movie	1		301.0	45.0	2.5	/experiments/knapen_aot/videos/R_S_yt-9yxWUrtQJnw_11.mp4	0.0	271.8168737888336	2.5083742141723633
47	167.14898920059204	fix_post	2		12.0	45.0	2.5	/experiments/knapen_aot/videos/R_S_yt-9yxWUrtQJnw_11.mp4	0.0	274.325248003006	0.09995079040527344
48	167.24893999099731	fix_pre	0		199.0	46.0	2.5	/experiments/knapen_aot/videos/S_yt-H45g6700wbc_159.mp4	0.0	274.42519879341125	1.6583662033081055
48	168.89909601211548	response	0	4		46.0	2.5	/experiments/knapen_aot/videos/S_yt-H45g6700wbc_159.mp4	0.0	276.0753548145294	
48	168.90730619430542	movie	1		301.0	46.0	2.5	/experiments/knapen_aot/videos/S_yt-H45g6700wbc_159.mp4	0.0	276.08356499671936	2.508262872695923
48	171.41556906700134	fix_post	2		12.0	46.0	2.5	/experiments/knapen_aot/videos/S_yt-H45g6700wbc_159.mp4	0.0	278.5918278694153	0.09994697570800781
49	171.51551604270935	fix_pre	0		63.0	47.0	2.5	blank	1.0	278.6917748451233	0.5250270366668701
49	172.03240418434143	response	0	4		47.0	2.5	blank	1.0	279.20866298675537	
49	172.04054307937622	movie	1		301.0	47.0	2.5	blank	1.0	279.21680188179016	2.508466958999634
49	174.54901003837585	fix_post	2		12.0	47.0	2.5	blank	1.0	281.7252688407898	0.1001579761505127
50	174.64916801452637	fix_pre	0		243.0	48.0	2.5	/experiments/knapen_aot/videos/S_yt-0bovQBIUZho_15.mp4	0.0	281.8254268169403	2.0246989727020264
50	176.6583080291748	response	0	4		48.0	2.5	/experiments/knapen_aot/videos/S_yt-0bovQBIUZho_15.mp4	0.0	283.83456683158875	
50	176.6738669872284	movie	1		301.0	48.0	2.5	/experiments/knapen_aot/videos/S_yt-0bovQBIUZho_15.mp4	0.0	283.85012578964233	2.508380174636841
50	179.18224716186523	fix_post	2		12.0	48.0	2.5	/experiments/knapen_aot/videos/S_yt-0bovQBIUZho_15.mp4	0.0	286.3585059642792	0.1000218391418457
51	179.28226900100708	fix_pre	0		91.0	49.0	2.5	/experiments/knapen_aot/videos/R_S_comp_DB_D011_C010_PSNK_DENOISE_v19_SDR_PS_20180914_SDR_2K_AVC.mp4	0.0	286.458527803421	0.7583310604095459
51	180.0324239730835	response	0	4		49.0	2.5	/experiments/knapen_aot/videos/R_S_comp_DB_D011_C010_PSNK_DENOISE_v19_SDR_PS_20180914_SDR_2K_AVC.mp4	0.0	287.20868277549744	
51	180.04060006141663	movie	1		169.0	49.0	2.5	/experiments/knapen_aot/videos/R_S_comp_DB_D011_C010_PSNK_DENOISE_v19_SDR_PS_20180914_SDR_2K_AVC.mp4	0.0	287.21685886383057	2.508341073989868
51	182.5489411354065	fix_post	2		12.0	49.0	2.5	/experiments/knapen_aot/videos/R_S_comp_DB_D011_C010_PSNK_DENOISE_v19_SDR_PS_20180914_SDR_2K_AVC.mp4	0.0	289.72519993782043	0.10017704963684082
52	182.64911818504333	fix_pre	0		1.0	50.0	2.5	/experiments/knapen_aot/videos/S_ILSVRC2015_train_00042003.mp4	0.0	289.8253769874573	0.008137941360473633
52	182.65076112747192	response	0	4		50.0	2.5	/experiments/knapen_aot/videos/S_ILSVRC2015_train_00042003.mp4	0.0	289.82701992988586	
52	182.6572561264038	movie	1		301.0	50.0	2.5	/experiments/knapen_aot/videos/S_ILSVRC2015_train_00042003.mp4	0.0	289.83351492881775	2.508333921432495
52	185.1655900478363	fix_post	2		12.0	50.0	2.5	/experiments/knapen_aot/videos/S_ILSVRC2015_train_00042003.mp4	0.0	292.34184885025024	0.09998512268066406
53	185.26557517051697	fix_pre	0		72.0	51.0	2.5	/experiments/knapen_aot/videos/R_S_yt-fnE8kgUHUMI_64.mp4	0.0	292.4418339729309	0.5999758243560791
53	185.85733318328857	response	0	4		51.0	2.5	/experiments/knapen_aot/videos/R_S_yt-fnE8kgUHUMI_64.mp4	0.0	293.0335919857025	
53	185.86555099487305	movie	1		301.0	51.0	2.5	/experiments/knapen_aot/videos/R_S_yt-fnE8kgUHUMI_64.mp4	0.0	293.041809797287	2.5083510875701904
53	188.37390208244324	fix_post	2		12.0	51.0	2.5	/experiments/knapen_aot/videos/R_S_yt-fnE8kgUHUMI_64.mp4	0.0	295.5501608848572	0.100006103515625
54	188.47390818595886	fix_pre	0		93.0	52.0	2.5	/experiments/knapen_aot/videos/R_S_comp_DB_D011_C010_PSNK_DENOISE_v19_SDR_PS_20180914_SDR_2K_AVC.mp4	0.0	295.6501669883728	0.774918794631958
54	189.24068999290466	response	0	4		52.0	2.5	/experiments/knapen_aot/videos/R_S_comp_DB_D011_C010_PSNK_DENOISE_v19_SDR_PS_20180914_SDR_2K_AVC.mp4	0.0	296.4169487953186	
54	189.24882698059082	movie	1		169.0	52.0	2.5	/experiments/knapen_aot/videos/R_S_comp_DB_D011_C010_PSNK_DENOISE_v19_SDR_PS_20180914_SDR_2K_AVC.mp4	0.0	296.42508578300476	2.5083200931549072
54	191.75714707374573	fix_post	2		12.0	52.0	2.5	/experiments/knapen_aot/videos/R_S_comp_DB_D011_C010_PSNK_DENOISE_v19_SDR_PS_20180914_SDR_2K_AVC.mp4	0.0	298.93340587615967	0.10019111633300781
55	191.85733819007874	fix_pre	0		14.0	53.0	2.5	/experiments/knapen_aot/videos/R_S_yt-2lnxIdOTxog_157.mp4	0.0	299.0335969924927	0.11647677421569824
55	191.96562504768372	response	0	4		53.0	2.5	/experiments/knapen_aot/videos/R_S_yt-2lnxIdOTxog_157.mp4	0.0	299.14188385009766	
55	191.97381496429443	movie	1		301.0	53.0	2.5	/experiments/knapen_aot/videos/R_S_yt-2lnxIdOTxog_157.mp4	0.0	299.1500737667084	2.508524179458618
55	194.48233914375305	fix_post	2		12.0	53.0	2.5	/experiments/knapen_aot/videos/R_S_yt-2lnxIdOTxog_157.mp4	0.0	301.658597946167	0.09979486465454102
56	194.5821340084076	fix_pre	0		102.0	54.0	2.5	/experiments/knapen_aot/videos/R_S_video_inspire_texas_austin_oct2019_evening_00085.1080-h264.mp4	0.0	301.75839281082153	0.8500170707702637
56	195.4240210056305	response	0	4		54.0	2.5	/experiments/knapen_aot/videos/R_S_video_inspire_texas_austin_oct2019_evening_00085.1080-h264.mp4	0.0	302.60027980804443	
56	195.43215107917786	movie	1		172.0	54.0	2.5	/experiments/knapen_aot/videos/R_S_video_inspire_texas_austin_oct2019_evening_00085.1080-h264.mp4	0.0	302.6084098815918	2.5084269046783447
56	197.9405779838562	fix_post	2		12.0	54.0	2.5	/experiments/knapen_aot/videos/R_S_video_inspire_texas_austin_oct2019_evening_00085.1080-h264.mp4	0.0	305.11683678627014	0.09990501403808594
57	198.0404829978943	fix_pre	0		95.0	55.0	2.5	/experiments/knapen_aot/videos/S_yt-hQ5pge893b4_6.mp4	0.0	305.2167418003082	0.7916409969329834
57	198.8239381313324	response	0	4		55.0	2.5	/experiments/knapen_aot/videos/S_yt-hQ5pge893b4_6.mp4	0.0	306.00019693374634	
57	198.83212399482727	movie	1		301.0	55.0	2.5	/experiments/knapen_aot/videos/S_yt-hQ5pge893b4_6.mp4	0.0	306.0083827972412	2.5083351135253906
57	201.34045910835266	fix_post	2		12.0	55.0	2.5	/experiments/knapen_aot/videos/S_yt-hQ5pge893b4_6.mp4	0.0	308.5167179107666	0.10008597373962402
58	201.44054508209229	fix_pre	0		129.0	56.0	2.5	blank	1.0	308.6168038845062	1.074850082397461
58	202.5072569847107	response	0	4		56.0	2.5	blank	1.0	309.68351578712463	
58	202.51539516448975	movie	1		301.0	56.0	2.5	blank	1.0	309.6916539669037	2.5085599422454834
58	205.02395510673523	fix_post	2		12.0	56.0	2.5	blank	1.0	312.20021390914917	0.09980893135070801
59	205.12376403808594	fix_pre	0		35.0	57.0	2.5	/experiments/knapen_aot/videos/R_S_yt-iHmshS63rBc_329.mp4	0.0	312.3000228404999	0.29163408279418945
59	205.39968514442444	response	0	4		57.0	2.5	/experiments/knapen_aot/videos/R_S_yt-iHmshS63rBc_329.mp4	0.0	312.5759439468384	
59	205.41539812088013	movie	1		300.0	57.0	2.5	/experiments/knapen_aot/videos/R_S_yt-iHmshS63rBc_329.mp4	0.0	312.59165692329407	2.5083630084991455
59	207.92376112937927	fix_post	2		12.0	57.0	2.5	/experiments/knapen_aot/videos/R_S_yt-iHmshS63rBc_329.mp4	0.0	315.1000199317932	0.10007786750793457
60	208.0238389968872	fix_pre	0		117.0	58.0	2.5	/experiments/knapen_aot/videos/R_S_ILSVRC2015_train_00568002.mp4	0.0	315.20009779930115	0.9748961925506592
60	208.98308205604553	response	0	4		58.0	2.5	/experiments/knapen_aot/videos/R_S_ILSVRC2015_train_00568002.mp4	0.0	316.1593408584595	
60	208.99873518943787	movie	1		301.0	58.0	2.5	/experiments/knapen_aot/videos/R_S_ILSVRC2015_train_00568002.mp4	0.0	316.1749939918518	2.508328914642334
60	211.5070641040802	fix_post	2		12.0	58.0	2.5	/experiments/knapen_aot/videos/R_S_ILSVRC2015_train_00568002.mp4	0.0	318.68332290649414	0.10001492500305176
61	211.60707902908325	fix_pre	0		22.0	59.0	2.5	/experiments/knapen_aot/videos/R_S_production_ID_4765899.mp4	0.0	318.7833378314972	0.18331098556518555
61	211.78220510482788	response	0	4		59.0	2.5	/experiments/knapen_aot/videos/R_S_production_ID_4765899.mp4	0.0	318.9584639072418	
61	211.79039001464844	movie	1		182.0	59.0	2.5	/experiments/knapen_aot/videos/R_S_production_ID_4765899.mp4	0.0	318.9666488170624	2.508247137069702
61	214.29863715171814	fix_post	2		12.0	59.0	2.5	/experiments/knapen_aot/videos/R_S_production_ID_4765899.mp4	0.0	321.4748959541321	0.10013604164123535
62	214.39877319335938	fix_pre	0		70.0	60.0	2.5	/experiments/knapen_aot/videos/R_S_yt-hQ5pge893b4_6.mp4	0.0	321.5750319957733	0.5832788944244385
62	214.9738609790802	response	0	4		60.0	2.5	/experiments/knapen_aot/videos/R_S_yt-hQ5pge893b4_6.mp4	0.0	322.15011978149414	
62	214.9820520877838	movie	1		301.0	60.0	2.5	/experiments/knapen_aot/videos/R_S_yt-hQ5pge893b4_6.mp4	0.0	322.15831089019775	2.5082850456237793
62	217.4903371334076	fix_post	2		12.0	60.0	2.5	/experiments/knapen_aot/videos/R_S_yt-hQ5pge893b4_6.mp4	0.0	324.66659593582153	0.10004305839538574
63	217.59038019180298	fix_pre	0		107.0	61.0	2.5	/experiments/knapen_aot/videos/S_ILSVRC2015_train_00495000.mp4	0.0	324.7666389942169	0.8916549682617188
63	218.47381496429443	response	0	4		61.0	2.5	/experiments/knapen_aot/videos/S_ILSVRC2015_train_00495000.mp4	0.0	325.6500737667084	
63	218.4820351600647	movie	1		297.0	61.0	2.5	/experiments/knapen_aot/videos/S_ILSVRC2015_train_00495000.mp4	0.0	325.65829396247864	2.5082669258117676
63	220.99030208587646	fix_post	2		12.0	61.0	2.5	/experiments/knapen_aot/videos/S_ILSVRC2015_train_00495000.mp4	0.0	328.1665608882904	0.10009908676147461
64	221.09040117263794	fix_pre	0		191.0	62.0	2.5	blank	1.0	328.2666599750519	1.5916378498077393
64	222.67377710342407	response	0	4		62.0	2.5	blank	1.0	329.850035905838	
64	222.68203902244568	movie	1		301.0	62.0	2.5	blank	1.0	329.8582978248596	2.5083000659942627
64	225.19033908843994	fix_post	2		12.0	62.0	2.5	blank	1.0	332.3665978908539	0.09994006156921387
65	225.29027915000916	fix_pre	0		68.0	63.0	2.5	/experiments/knapen_aot/videos/R_S_yt-SGTgMItFkxY_172.mp4	0.0	332.4665379524231	0.5667328834533691
65	225.84878301620483	response	0	4		63.0	2.5	/experiments/knapen_aot/videos/R_S_yt-SGTgMItFkxY_172.mp4	0.0	333.0250418186188	
65	225.85701203346252	movie	1		301.0	63.0	2.5	/experiments/knapen_aot/videos/R_S_yt-SGTgMItFkxY_172.mp4	0.0	333.03327083587646	2.5083301067352295
65	228.36534214019775	fix_post	2		12.0	63.0	2.5	/experiments/knapen_aot/videos/R_S_yt-SGTgMItFkxY_172.mp4	0.0	335.5416009426117	0.10001492500305176
66	228.4653570652008	fix_pre	0		140.0	64.0	2.5	/experiments/knapen_aot/videos/R_S_yt-3R23XwTXpKs_238.mp4	0.0	335.64161586761475	1.1665380001068115
66	229.62380599975586	response	0	4		64.0	2.5	/experiments/knapen_aot/videos/R_S_yt-3R23XwTXpKs_238.mp4	0.0	336.8000648021698	
66	229.63189506530762	movie	1		301.0	64.0	2.5	/experiments/knapen_aot/videos/R_S_yt-3R23XwTXpKs_238.mp4	0.0	336.80815386772156	2.508436918258667
66	232.14033198356628	fix_post	2		12.0	64.0	2.5	/experiments/knapen_aot/videos/R_S_yt-3R23XwTXpKs_238.mp4	0.0	339.3165907859802	0.10001921653747559
67	232.24035120010376	fix_pre	0		14.0	65.0	2.5	/experiments/knapen_aot/videos/R_S_yt-wUqpCtBOFBA_89.mp4	0.0	339.4166100025177	0.11663484573364258
67	232.34125304222107	response	0	4		65.0	2.5	/experiments/knapen_aot/videos/R_S_yt-wUqpCtBOFBA_89.mp4	0.0	339.517511844635	
67	232.3569860458374	movie	1		299.0	65.0	2.5	/experiments/knapen_aot/videos/R_S_yt-wUqpCtBOFBA_89.mp4	0.0	339.53324484825134	2.5082719326019287
67	234.86525797843933	fix_post	2		12.0	65.0	2.5	/experiments/knapen_aot/videos/R_S_yt-wUqpCtBOFBA_89.mp4	0.0	342.04151678085327	0.09993314743041992
68	234.96519112586975	fix_pre	0		247.0	66.0	2.5	/experiments/knapen_aot/videos/S_comp_H004_C007_PS_v02_SDR_PS_20180925_SDR_2K_AVC.mp4	0.0	342.1414499282837	2.0584499835968018
68	237.01536011695862	response	0	4		66.0	2.5	/experiments/knapen_aot/videos/S_comp_H004_C007_PS_v02_SDR_PS_20180925_SDR_2K_AVC.mp4	0.0	344.19161891937256	
68	237.02364110946655	movie	1		166.0	66.0	2.5	/experiments/knapen_aot/videos/S_comp_H004_C007_PS_v02_SDR_PS_20180925_SDR_2K_AVC.mp4	0.0	344.1998999118805	2.5083060264587402
68	239.5319471359253	fix_post	2		12.0	66.0	2.5	/experiments/knapen_aot/videos/S_comp_H004_C007_PS_v02_SDR_PS_20180925_SDR_2K_AVC.mp4	0.0	346.70820593833923	0.10003495216369629
69	239.631982088089	fix_pre	0		37.0	67.0	2.5	/experiments/knapen_aot/videos/S_pexels-tima-miroshnichenko-5717005.mp4	0.0	346.80824089050293	0.308319091796875
69	239.93205618858337	response	0	4		67.0	2.5	/experiments/knapen_aot/videos/S_pexels-tima-miroshnichenko-5717005.mp4	0.0	347.1083149909973	
69	239.94030117988586	movie	1		166.0	67.0	2.5	/experiments/knapen_aot/videos/S_pexels-tima-miroshnichenko-5717005.mp4	0.0	347.1165599822998	2.5083370208740234
69	242.4486382007599	fix_post	2		12.0	67.0	2.5	/experiments/knapen_aot/videos/S_pexels-tima-miroshnichenko-5717005.mp4	0.0	349.6248970031738	0.10004091262817383
70	242.54867911338806	fix_pre	0		113.0	68.0	2.5	blank	1.0	349.724937915802	0.9415810108184814
70	243.4821081161499	response	0	4		68.0	2.5	blank	1.0	350.65836691856384	
70	243.49026012420654	movie	1		301.0	68.0	2.5	blank	1.0	350.6665189266205	2.508389949798584
70	245.99865007400513	fix_post	2		12.0	68.0	2.5	blank	1.0	353.17490887641907	0.09999895095825195
71	246.09864902496338	fix_pre	0		70.0	69.0	2.5	/experiments/knapen_aot/videos/S_yt-SGTgMItFkxY_172.mp4	0.0	353.2749078273773	0.5845451354980469
71	246.67377519607544	response	0	4		69.0	2.5	/experiments/knapen_aot/videos/S_yt-SGTgMItFkxY_172.mp4	0.0	353.8500339984894	
71	246.68319416046143	movie	1		301.0	69.0	2.5	/experiments/knapen_aot/videos/S_yt-SGTgMItFkxY_172.mp4	0.0	353.85945296287537	2.5070719718933105
71	249.19026613235474	fix_post	2		12.0	69.0	2.5	/experiments/knapen_aot/videos/S_yt-SGTgMItFkxY_172.mp4	0.0	356.3665249347687	0.1000368595123291
72	249.29030299186707	fix_pre	0		34.0	70.0	2.5	/experiments/knapen_aot/videos/S_8amznWxLS04_212.mp4	0.0	356.466561794281	0.28325605392456055
72	249.56542110443115	response	0	4		70.0	2.5	/experiments/knapen_aot/videos/S_8amznWxLS04_212.mp4	0.0	356.7416799068451	
72	249.57355904579163	movie	1		301.0	70.0	2.5	/experiments/knapen_aot/videos/S_8amznWxLS04_212.mp4	0.0	356.74981784820557	2.5083811283111572
72	252.08194017410278	fix_post	2		12.0	70.0	2.5	/experiments/knapen_aot/videos/S_8amznWxLS04_212.mp4	0.0	359.2581989765167	0.09999680519104004
73	252.18193697929382	fix_pre	0		424.0	71.0	2.5	/experiments/knapen_aot/videos/S_yt-sXy_bKQE-8U_7.mp4	0.0	359.35819578170776	3.533262014389038
73	255.70707416534424	response	0	4		71.0	2.5	/experiments/knapen_aot/videos/S_yt-sXy_bKQE-8U_7.mp4	0.0	362.8833329677582	
73	255.71519899368286	movie	1		301.0	71.0	2.5	/experiments/knapen_aot/videos/S_yt-sXy_bKQE-8U_7.mp4	0.0	362.8914577960968	2.5083320140838623
73	258.2235310077667	fix_post	2		12.0	71.0	2.5	/experiments/knapen_aot/videos/S_yt-sXy_bKQE-8U_7.mp4	0.0	365.39978981018066	0.09997415542602539
74	258.32350516319275	fix_pre	0		121.0	72.0	2.5	/experiments/knapen_aot/videos/R_S_yt-X6ivH9SqGu8_306.mp4	0.0	365.4997639656067	1.008316993713379
74	259.3236939907074	response	0	4		72.0	2.5	/experiments/knapen_aot/videos/R_S_yt-X6ivH9SqGu8_306.mp4	0.0	366.49995279312134	
74	259.3318221569061	movie	1		300.0	72.0	2.5	/experiments/knapen_aot/videos/R_S_yt-X6ivH9SqGu8_306.mp4	0.0	366.50808095932007	2.508359909057617
74	261.84018206596375	fix_post	2		12.0	72.0	2.5	/experiments/knapen_aot/videos/R_S_yt-X6ivH9SqGu8_306.mp4	0.0	369.0164408683777	0.0999600887298584
75	261.9401421546936	fix_pre	0		68.0	73.0	2.5	/experiments/knapen_aot/videos/S_yt-6UFUeTKci2o_164.mp4	0.0	369.11640095710754	0.5667159557342529
75	262.49865317344666	response	0	4		73.0	2.5	/experiments/knapen_aot/videos/S_yt-6UFUeTKci2o_164.mp4	0.0	369.6749119758606	
75	262.50685811042786	movie	1		301.0	73.0	2.5	/experiments/knapen_aot/videos/S_yt-6UFUeTKci2o_164.mp4	0.0	369.6831169128418	2.508336067199707
75	265.01519417762756	fix_post	2		12.0	73.0	2.5	/experiments/knapen_aot/videos/S_yt-6UFUeTKci2o_164.mp4	0.0	372.1914529800415	0.09999895095825195
76	265.1151931285858	fix_pre	0		119.0	74.0	2.5	/experiments/knapen_aot/videos/S_ILSVRC2015_train_00569003.mp4	0.0	372.29145193099976	0.9916670322418213
76	266.0985641479492	response	0	4		74.0	2.5	/experiments/knapen_aot/videos/S_ILSVRC2015_train_00569003.mp4	0.0	373.27482295036316	
76	266.10686016082764	movie	1		301.0	74.0	2.5	/experiments/knapen_aot/videos/S_ILSVRC2015_train_00569003.mp4	0.0	373.2831189632416	2.508280038833618
76	268.61514019966125	fix_post	2		12.0	74.0	2.5	/experiments/knapen_aot/videos/S_ILSVRC2015_train_00569003.mp4	0.0	375.7913990020752	0.1000359058380127
77	268.71517610549927	fix_pre	0		103.0	75.0	2.5	/experiments/knapen_aot/videos/S_comp_GMT329_113NC_396B_1105_ITALY_v03_SDR_FINAL_20180706_SDR_2K_AVC.mp4	0.0	375.8914349079132	0.8582580089569092
77	269.5652639865875	response	0	4		75.0	2.5	/experiments/knapen_aot/videos/S_comp_GMT329_113NC_396B_1105_ITALY_v03_SDR_FINAL_20180706_SDR_2K_AVC.mp4	0.0	376.74152278900146	
77	269.5734341144562	movie	1		165.0	75.0	2.5	/experiments/knapen_aot/videos/S_comp_GMT329_113NC_396B_1105_ITALY_v03_SDR_FINAL_20180706_SDR_2K_AVC.mp4	0.0	376.7496929168701	2.5084240436553955
77	272.0818581581116	fix_post	2		12.0	75.0	2.5	/experiments/knapen_aot/videos/S_comp_GMT329_113NC_396B_1105_ITALY_v03_SDR_FINAL_20180706_SDR_2K_AVC.mp4	0.0	379.2581169605255	0.09997200965881348
78	272.1818301677704	fix_pre	0		165.0	76.0	2.5	blank	1.0	379.3580889701843	1.3748769760131836
78	273.5486030578613	response	0	4		76.0	2.5	blank	1.0	380.72486186027527	
78	273.55670714378357	movie	1		301.0	76.0	2.5	blank	1.0	380.7329659461975	2.5084328651428223
78	276.0651400089264	fix_post	2		12.0	76.0	2.5	blank	1.0	383.24139881134033	0.0999751091003418
79	276.16511511802673	fix_pre	0		50.0	77.0	2.5	/experiments/knapen_aot/videos/R_S_yt-n_eO-7KedAE_21.mp4	0.0	383.3413739204407	0.41658806800842285
79	276.5661849975586	response	0	4		77.0	2.5	/experiments/knapen_aot/videos/R_S_yt-n_eO-7KedAE_21.mp4	0.0	383.74244379997253	
79	276.58170318603516	movie	1		301.0	77.0	2.5	/experiments/knapen_aot/videos/R_S_yt-n_eO-7KedAE_21.mp4	0.0	383.7579619884491	2.508401870727539
79	279.0901050567627	fix_post	2		12.0	77.0	2.5	/experiments/knapen_aot/videos/R_S_yt-n_eO-7KedAE_21.mp4	0.0	386.26636385917664	0.09999608993530273
80	279.190101146698	fix_pre	0		12.0	78.0	2.5	/experiments/knapen_aot/videos/R_S_ILSVRC2015_train_00322000.mp4	0.0	386.36635994911194	0.09994792938232422
80	279.28184509277344	response	0	4		78.0	2.5	/experiments/knapen_aot/videos/R_S_ILSVRC2015_train_00322000.mp4	0.0	386.4581038951874	
80	279.2900490760803	movie	1		301.0	78.0	2.5	/experiments/knapen_aot/videos/R_S_ILSVRC2015_train_00322000.mp4	0.0	386.46630787849426	2.5082991123199463
80	281.79834818840027	fix_post	2		12.0	78.0	2.5	/experiments/knapen_aot/videos/R_S_ILSVRC2015_train_00322000.mp4	0.0	388.9746069908142	0.10008096694946289
81	281.89842915534973	fix_pre	0		238.0	79.0	2.5	/experiments/knapen_aot/videos/S_ILSVRC2015_train_00568002.mp4	0.0	389.0746879577637	1.9833259582519531
81	283.87357807159424	response	0	4		79.0	2.5	/experiments/knapen_aot/videos/S_ILSVRC2015_train_00568002.mp4	0.0	391.0498368740082	
81	283.8817551136017	movie	1		301.0	79.0	2.5	/experiments/knapen_aot/videos/S_ILSVRC2015_train_00568002.mp4	0.0	391.0580139160156	2.5083348751068115
81	286.3900899887085	fix_post	2		12.0	79.0	2.5	/experiments/knapen_aot/videos/S_ILSVRC2015_train_00568002.mp4	0.0	393.56634879112244	0.09995818138122559
82	286.4900481700897	fix_pre	0		35.0	80.0	2.5	/experiments/knapen_aot/videos/R_S_yt-h8wy6x6oytA_25.mp4	0.0	393.66630697250366	0.2916288375854492
82	286.77347898483276	response	0	4		80.0	2.5	/experiments/knapen_aot/videos/R_S_yt-h8wy6x6oytA_25.mp4	0.0	393.9497377872467	
82	286.78167700767517	movie	1		301.0	80.0	2.5	/experiments/knapen_aot/videos/R_S_yt-h8wy6x6oytA_25.mp4	0.0	393.9579358100891	2.508388042449951
82	289.2900650501251	fix_post	2		12.0	80.0	2.5	/experiments/knapen_aot/videos/R_S_yt-h8wy6x6oytA_25.mp4	0.0	396.46632385253906	0.09999513626098633
83	289.3900601863861	fix_pre	0		183.0	81.0	2.5	/experiments/knapen_aot/videos/R_S_ILSVRC2015_train_00715000.mp4	0.0	396.56631898880005	1.524953842163086
83	290.9068081378937	response	0	4		81.0	2.5	/experiments/knapen_aot/videos/R_S_ILSVRC2015_train_00715000.mp4	0.0	398.0830669403076	
83	290.9150140285492	movie	1		297.0	81.0	2.5	/experiments/knapen_aot/videos/R_S_ILSVRC2015_train_00715000.mp4	0.0	398.09127283096313	2.508362054824829
83	293.423376083374	fix_post	2		12.0	81.0	2.5	/experiments/knapen_aot/videos/R_S_ILSVRC2015_train_00715000.mp4	0.0	400.59963488578796	0.09995102882385254
84	293.5233271121979	fix_pre	0		162.0	82.0	2.5	blank	1.0	400.6995859146118	1.350003957748413
84	294.8652081489563	response	0	4		82.0	2.5	blank	1.0	402.04146695137024	
84	294.8733310699463	movie	1		301.0	82.0	2.5	blank	1.0	402.04958987236023	2.50838303565979
84	297.3817141056061	fix_post	2		12.0	82.0	2.5	blank	1.0	404.55797290802	0.09995007514953613
85	297.4816641807556	fix_pre	0		65.0	83.0	2.5	/experiments/knapen_aot/videos/R_S_pexels-tima-miroshnichenko-5717005.mp4	0.0	404.65792298316956	0.5416748523712158
85	298.0077311992645	response	0	4		83.0	2.5	/experiments/knapen_aot/videos/R_S_pexels-tima-miroshnichenko-5717005.mp4	0.0	405.18399000167847	
85	298.02333903312683	movie	1		167.0	83.0	2.5	/experiments/knapen_aot/videos/R_S_pexels-tima-miroshnichenko-5717005.mp4	0.0	405.19959783554077	2.5083279609680176
85	300.53166699409485	fix_post	2		12.0	83.0	2.5	/experiments/knapen_aot/videos/R_S_pexels-tima-miroshnichenko-5717005.mp4	0.0	407.7079257965088	0.10003304481506348
87	300.6317000389099	stim	0		535.0					407.80795884132385	4.460637092590332
87	305.0867660045624	response	0	space						412.2630248069763	
