trial_nr	onset	event_type	phase	response	nr_frames	movie_index	movie_duration	movie_file	blank	onset_abs	duration
0	0.13334393501281738	stim	0		72.0					98.62767100334167	0.610414981842041
0	0.7334370613098145	response	0	space						99.22776412963867	
1	0.7437589168548584	stim	0		121.0					99.23808598518372	1.0057470798492432
1	1.7495059967041016	stim	1		120.0					100.24383306503296	1.0000290870666504
1	1.782999038696289	response	1	space						100.27732610702515	
1	2.141339063644409	response	1	space						100.63566613197327	
2	2.749535083770752	fix_pre	0		14.0	0.0	2.5	/experiments/knapen_aot/videos/S_yt-9T99N7Cvi_o_112.mp4	0.0	101.24386215209961	0.11670398712158203
2	2.858004093170166	response	0	space		0.0	2.5	/experiments/knapen_aot/videos/S_yt-9T99N7Cvi_o_112.mp4	0.0	101.35233116149902	
2	2.866239070892334	movie	1		300.0	0.0	2.5	/experiments/knapen_aot/videos/S_yt-9T99N7Cvi_o_112.mp4	0.0	101.36056613922119	2.5082077980041504
2	5.241847991943359	response	1	2		0.0	2.5	/experiments/knapen_aot/videos/S_yt-9T99N7Cvi_o_112.mp4	0.0	103.73617506027222	
2	5.374446868896484	fix_post	2		12.0	0.0	2.5	/experiments/knapen_aot/videos/S_yt-9T99N7Cvi_o_112.mp4	0.0	103.86877393722534	0.10009217262268066
3	5.474539041519165	fix_pre	0		38.0	1.0	2.5	/experiments/knapen_aot/videos/S_yt-JPsTqfqfPIY_319.mp4	0.0	103.96886610984802	0.31710004806518555
3	5.783029079437256	response	0	2		1.0	2.5	/experiments/knapen_aot/videos/S_yt-JPsTqfqfPIY_319.mp4	0.0	104.27735614776611	
3	5.791639089584351	movie	1		300.0	1.0	2.5	/experiments/knapen_aot/videos/S_yt-JPsTqfqfPIY_319.mp4	0.0	104.28596615791321	2.5079429149627686
3	8.29958200454712	fix_post	2		12.0	1.0	2.5	/experiments/knapen_aot/videos/S_yt-JPsTqfqfPIY_319.mp4	0.0	106.79390907287598	0.09996509552001953
4	8.399547100067139	fix_pre	0		75.0	2.0	2.5	/experiments/knapen_aot/videos/S_wc-_W9iefBXz8bi_23.mp4	0.0	106.893874168396	0.6249408721923828
4	9.016342878341675	response	0	2		2.0	2.5	/experiments/knapen_aot/videos/S_wc-_W9iefBXz8bi_23.mp4	0.0	107.51066994667053	
4	9.024487972259521	movie	1		162.0	2.0	2.5	/experiments/knapen_aot/videos/S_wc-_W9iefBXz8bi_23.mp4	0.0	107.51881504058838	2.508362054824829
4	11.53285002708435	fix_post	2		12.0	2.0	2.5	/experiments/knapen_aot/videos/S_wc-_W9iefBXz8bi_23.mp4	0.0	110.02717709541321	0.0998849868774414
5	11.632735013961792	fix_pre	0		27.0	3.0	2.5	/experiments/knapen_aot/videos/S_yt-7bSTxOajpjc_58.mp4	0.0	110.12706208229065	0.2250828742980957
5	11.849725008010864	response	0	2		3.0	2.5	/experiments/knapen_aot/videos/S_yt-7bSTxOajpjc_58.mp4	0.0	110.34405207633972	
5	11.857817888259888	movie	1		301.0	3.0	2.5	/experiments/knapen_aot/videos/S_yt-7bSTxOajpjc_58.mp4	0.0	110.35214495658875	2.508472204208374
5	14.366290092468262	fix_post	2		12.0	3.0	2.5	/experiments/knapen_aot/videos/S_yt-7bSTxOajpjc_58.mp4	0.0	112.86061716079712	0.09985589981079102
6	14.466145992279053	fix_pre	0		25.0	4.0	2.5	/experiments/knapen_aot/videos/S_yt-STL3ejY9u_Q_73.mp4	0.0	112.96047306060791	0.2082500457763672
6	14.666253089904785	response	0	2		4.0	2.5	/experiments/knapen_aot/videos/S_yt-STL3ejY9u_Q_73.mp4	0.0	113.16058015823364	
6	14.67439603805542	movie	1		301.0	4.0	2.5	/experiments/knapen_aot/videos/S_yt-STL3ejY9u_Q_73.mp4	0.0	113.16872310638428	2.508517026901245
6	17.182913064956665	fix_post	2		12.0	4.0	2.5	/experiments/knapen_aot/videos/S_yt-STL3ejY9u_Q_73.mp4	0.0	115.67724013328552	0.09994101524353027
7	17.282854080200195	fix_pre	0		17.0	5.0	2.5	/experiments/knapen_aot/videos/S_yt-e1RAhIW6WAs_535.mp4	0.0	115.77718114852905	0.14153194427490234
7	17.416229009628296	response	0	2		5.0	2.5	/experiments/knapen_aot/videos/S_yt-e1RAhIW6WAs_535.mp4	0.0	115.91055607795715	
7	17.424386024475098	movie	1		301.0	5.0	2.5	/experiments/knapen_aot/videos/S_yt-e1RAhIW6WAs_535.mp4	0.0	115.91871309280396	2.5085790157318115
7	19.93296504020691	fix_post	2		12.0	5.0	2.5	/experiments/knapen_aot/videos/S_yt-e1RAhIW6WAs_535.mp4	0.0	118.42729210853577	0.09984683990478516
8	20.032811880111694	fix_pre	0		18.0	6.0	2.5	blank	1.0	118.52713894844055	0.14991521835327148
8	20.174563884735107	response	0	2		6.0	2.5	blank	1.0	118.66889095306396	
8	20.182727098464966	movie	1		301.0	6.0	2.5	blank	1.0	118.67705416679382	2.5083858966827393
8	22.691112995147705	fix_post	2		12.0	6.0	2.5	blank	1.0	121.18544006347656	0.0999910831451416
9	22.791104078292847	fix_pre	0		33.0	7.0	2.5	/experiments/knapen_aot/videos/R_S_ILSVRC2015_train_00303005.mp4	0.0	121.2854311466217	0.2749779224395752
9	23.057864904403687	response	0	2		7.0	2.5	/experiments/knapen_aot/videos/R_S_ILSVRC2015_train_00303005.mp4	0.0	121.55219197273254	
9	23.066082000732422	movie	1		301.0	7.0	2.5	/experiments/knapen_aot/videos/R_S_ILSVRC2015_train_00303005.mp4	0.0	121.56040906906128	2.5083348751068115
9	25.574416875839233	fix_post	2		12.0	7.0	2.5	/experiments/knapen_aot/videos/R_S_ILSVRC2015_train_00303005.mp4	0.0	124.06874394416809	0.0999600887298584
10	25.674376964569092	fix_pre	0		14.0	8.0	2.5	/experiments/knapen_aot/videos/S_yt-FzMLLmcD1mE_19.mp4	0.0	124.16870403289795	0.11707901954650879
10	25.782845973968506	response	0	2		8.0	2.5	/experiments/knapen_aot/videos/S_yt-FzMLLmcD1mE_19.mp4	0.0	124.27717304229736	
10	25.7914559841156	movie	1		301.0	8.0	2.5	/experiments/knapen_aot/videos/S_yt-FzMLLmcD1mE_19.mp4	0.0	124.28578305244446	2.507982015609741
10	28.299437999725342	fix_post	2		12.0	8.0	2.5	/experiments/knapen_aot/videos/S_yt-FzMLLmcD1mE_19.mp4	0.0	126.7937650680542	0.09999394416809082
11	28.399431943893433	fix_pre	0		27.0	9.0	2.5	/experiments/knapen_aot/videos/S_comp_HK_B005_C011_PSNK_v16_SDR_PS_20180914_SDR_2K_AVC.mp4	0.0	126.89375901222229	0.22524595260620117
11	28.61621594429016	response	0	2		9.0	2.5	/experiments/knapen_aot/videos/S_comp_HK_B005_C011_PSNK_v16_SDR_PS_20180914_SDR_2K_AVC.mp4	0.0	127.11054301261902	
11	28.624677896499634	movie	1		165.0	9.0	2.5	/experiments/knapen_aot/videos/S_comp_HK_B005_C011_PSNK_v16_SDR_PS_20180914_SDR_2K_AVC.mp4	0.0	127.11900496482849	2.5081160068511963
11	31.13279390335083	fix_post	2		11.0	9.0	2.5	/experiments/knapen_aot/videos/S_comp_HK_B005_C011_PSNK_v16_SDR_PS_20180914_SDR_2K_AVC.mp4	0.0	129.6271209716797	0.09170198440551758
11	31.216273069381714	response	2	2		9.0	2.5	/experiments/knapen_aot/videos/S_comp_HK_B005_C011_PSNK_v16_SDR_PS_20180914_SDR_2K_AVC.mp4	0.0	129.71060013771057	
12	31.224495887756348	fix_pre	0		43.0	10.0	2.5	/experiments/knapen_aot/videos/R_S_yt-ibDaDIEazxg_3.mp4	0.0	129.7188229560852	0.35848402976989746
12	31.57448101043701	response	0	2		10.0	2.5	/experiments/knapen_aot/videos/R_S_yt-ibDaDIEazxg_3.mp4	0.0	130.06880807876587	
12	31.582979917526245	movie	1		301.0	10.0	2.5	/experiments/knapen_aot/videos/R_S_yt-ibDaDIEazxg_3.mp4	0.0	130.0773069858551	2.5079970359802246
12	34.09097695350647	fix_post	2		12.0	10.0	2.5	/experiments/knapen_aot/videos/R_S_yt-ibDaDIEazxg_3.mp4	0.0	132.58530402183533	0.10026192665100098
13	34.19123888015747	fix_pre	0		11.0	11.0	2.5	/experiments/knapen_aot/videos/S_yt-H611SOb1T78_189.mp4	0.0	132.68556594848633	0.09146904945373535
13	34.27447009086609	response	0	2		11.0	2.5	/experiments/knapen_aot/videos/S_yt-H611SOb1T78_189.mp4	0.0	132.76879715919495	
13	34.282707929611206	movie	1		301.0	11.0	2.5	/experiments/knapen_aot/videos/S_yt-H611SOb1T78_189.mp4	0.0	132.77703499794006	2.50832200050354
13	36.791029930114746	fix_post	2		12.0	11.0	2.5	/experiments/knapen_aot/videos/S_yt-H611SOb1T78_189.mp4	0.0	135.2853569984436	0.10001397132873535
14	36.89104390144348	fix_pre	0		21.0	12.0	2.5	blank	1.0	135.38537096977234	0.17494416236877441
14	37.05779695510864	response	0	2		12.0	2.5	blank	1.0	135.5521240234375	
14	37.065988063812256	movie	1		301.0	12.0	2.5	blank	1.0	135.5603151321411	2.5083398818969727
14	39.57432794570923	fix_post	2		12.0	12.0	2.5	blank	1.0	138.0686550140381	0.10001993179321289
15	39.67434787750244	fix_pre	0		67.0	13.0	2.5	/experiments/knapen_aot/videos/S_yt-B8Sy53C6Pxw_8.mp4	0.0	138.1686749458313	0.5582540035247803
15	40.2244770526886	response	0	2		13.0	2.5	/experiments/knapen_aot/videos/S_yt-B8Sy53C6Pxw_8.mp4	0.0	138.71880412101746	
15	40.23260188102722	movie	1		298.0	13.0	2.5	/experiments/knapen_aot/videos/S_yt-B8Sy53C6Pxw_8.mp4	0.0	138.72692894935608	2.508519172668457
15	42.74112105369568	fix_post	2		12.0	13.0	2.5	/experiments/knapen_aot/videos/S_yt-B8Sy53C6Pxw_8.mp4	0.0	141.23544812202454	0.09994101524353027
16	42.84106206893921	fix_pre	0		26.0	14.0	2.5	/experiments/knapen_aot/videos/R_S_yt-bOgChEHiroI_20.mp4	0.0	141.33538913726807	0.21659183502197266
16	43.049516916275024	response	0	2		14.0	2.5	/experiments/knapen_aot/videos/R_S_yt-bOgChEHiroI_20.mp4	0.0	141.54384398460388	
16	43.05765390396118	movie	1		301.0	14.0	2.5	/experiments/knapen_aot/videos/R_S_yt-bOgChEHiroI_20.mp4	0.0	141.55198097229004	2.5084290504455566
16	45.56608295440674	fix_post	2		12.0	14.0	2.5	/experiments/knapen_aot/videos/R_S_yt-bOgChEHiroI_20.mp4	0.0	144.0604100227356	0.10018301010131836
17	45.66626596450806	fix_pre	0		12.0	15.0	2.5	/experiments/knapen_aot/videos/S_production_ID_4325506.mp4	0.0	144.1605930328369	0.09980106353759766
17	45.75786805152893	response	0	2		15.0	2.5	/experiments/knapen_aot/videos/S_production_ID_4325506.mp4	0.0	144.2521951198578	
17	45.766067028045654	movie	1		199.0	15.0	2.5	/experiments/knapen_aot/videos/S_production_ID_4325506.mp4	0.0	144.2603940963745	2.508288860321045
17	48.2743558883667	fix_post	2		12.0	15.0	2.5	/experiments/knapen_aot/videos/S_production_ID_4325506.mp4	0.0	146.76868295669556	0.10015010833740234
18	48.3745059967041	fix_pre	0		10.0	16.0	2.5	/experiments/knapen_aot/videos/S_yt-4GDusA21cEA_170.mp4	0.0	146.86883306503296	0.0839080810546875
18	48.45028495788574	response	0	2		16.0	2.5	/experiments/knapen_aot/videos/S_yt-4GDusA21cEA_170.mp4	0.0	146.9446120262146	
18	48.45841407775879	movie	1		301.0	16.0	2.5	/experiments/knapen_aot/videos/S_yt-4GDusA21cEA_170.mp4	0.0	146.95274114608765	2.5076138973236084
18	50.9660279750824	fix_post	2		12.0	16.0	2.5	/experiments/knapen_aot/videos/S_yt-4GDusA21cEA_170.mp4	0.0	149.46035504341125	0.10002803802490234
19	51.0660560131073	fix_pre	0		22.0	17.0	2.5	/experiments/knapen_aot/videos/R_S_yt-P001x88adE4_427.mp4	0.0	149.56038308143616	0.18343687057495117
19	51.241076946258545	response	0	2		17.0	2.5	/experiments/knapen_aot/videos/R_S_yt-P001x88adE4_427.mp4	0.0	149.7354040145874	
19	51.24949288368225	movie	1		301.0	17.0	2.5	/experiments/knapen_aot/videos/R_S_yt-P001x88adE4_427.mp4	0.0	149.7438199520111	2.5081090927124023
19	53.75760197639465	fix_post	2		12.0	17.0	2.5	/experiments/knapen_aot/videos/R_S_yt-P001x88adE4_427.mp4	0.0	152.2519290447235	0.10001707077026367
20	53.85761904716492	fix_pre	0		22.0	18.0	2.5	/experiments/knapen_aot/videos/S_ILSVRC2015_train_00572000.mp4	0.0	152.35194611549377	0.1835169792175293
20	54.03276491165161	response	0	2		18.0	2.5	/experiments/knapen_aot/videos/S_ILSVRC2015_train_00572000.mp4	0.0	152.52709197998047	
20	54.041136026382446	movie	1		301.0	18.0	2.5	/experiments/knapen_aot/videos/S_ILSVRC2015_train_00572000.mp4	0.0	152.5354630947113	2.5080928802490234
20	56.54922890663147	fix_post	2		12.0	18.0	2.5	/experiments/knapen_aot/videos/S_ILSVRC2015_train_00572000.mp4	0.0	155.04355597496033	0.10001111030578613
21	56.649240016937256	fix_pre	0		26.0	19.0	2.5	/experiments/knapen_aot/videos/S_ux8Mvi8P16k_168.mp4	0.0	155.1435670852661	0.21663188934326172
21	56.85783290863037	response	0	2		19.0	2.5	/experiments/knapen_aot/videos/S_ux8Mvi8P16k_168.mp4	0.0	155.35215997695923	
21	56.86587190628052	movie	1		301.0	19.0	2.5	/experiments/knapen_aot/videos/S_ux8Mvi8P16k_168.mp4	0.0	155.36019897460938	2.5085201263427734
21	59.37439203262329	fix_post	2		12.0	19.0	2.5	/experiments/knapen_aot/videos/S_ux8Mvi8P16k_168.mp4	0.0	157.86871910095215	0.09981989860534668
22	59.47421193122864	fix_pre	0		53.0	20.0	2.5	/experiments/knapen_aot/videos/R_S_ILSVRC2015_train_00572000.mp4	0.0	157.9685389995575	0.4418179988861084
22	59.907756090164185	response	0	2		20.0	2.5	/experiments/knapen_aot/videos/R_S_ILSVRC2015_train_00572000.mp4	0.0	158.40208315849304	
22	59.916029930114746	movie	1		301.0	20.0	2.5	/experiments/knapen_aot/videos/R_S_ILSVRC2015_train_00572000.mp4	0.0	158.4103569984436	2.5081770420074463
22	62.42420697212219	fix_post	2		12.0	20.0	2.5	/experiments/knapen_aot/videos/R_S_ILSVRC2015_train_00572000.mp4	0.0	160.91853404045105	0.10306906700134277
23	62.527276039123535	fix_pre	0		122.0	21.0	2.5	blank	1.0	161.0216031074524	1.013772964477539
23	63.53267288208008	response	0	2		21.0	2.5	blank	1.0	162.02699995040894	
23	63.541049003601074	movie	1		301.0	21.0	2.5	blank	1.0	162.03537607192993	2.5081210136413574
23	66.04917001724243	fix_post	2		12.0	21.0	2.5	blank	1.0	164.5434970855713	0.10006499290466309
24	66.1492350101471	fix_pre	0		96.0	22.0	2.5	/experiments/knapen_aot/videos/S_yt-FzMLLmcD1mE_19.mp4	0.0	164.64356207847595	0.7999880313873291
24	66.94100594520569	response	0	2		22.0	2.5	/experiments/knapen_aot/videos/S_yt-FzMLLmcD1mE_19.mp4	0.0	165.43533301353455	
24	66.94922304153442	movie	1		300.0	22.0	2.5	/experiments/knapen_aot/videos/S_yt-FzMLLmcD1mE_19.mp4	0.0	165.44355010986328	2.508404016494751
24	69.45762705802917	fix_post	2		12.0	22.0	2.5	/experiments/knapen_aot/videos/S_yt-FzMLLmcD1mE_19.mp4	0.0	167.95195412635803	0.09995293617248535
25	69.55757999420166	fix_pre	0		15.0	23.0	2.5	/experiments/knapen_aot/videos/S_G008_C015_UHD_SDR_2K_AVC.mp4	0.0	168.05190706253052	0.12493300437927246
25	69.67451786994934	response	0	2		23.0	2.5	/experiments/knapen_aot/videos/S_G008_C015_UHD_SDR_2K_AVC.mp4	0.0	168.1688449382782	
25	69.68251299858093	movie	1		168.0	23.0	2.5	/experiments/knapen_aot/videos/S_G008_C015_UHD_SDR_2K_AVC.mp4	0.0	168.1768400669098	2.5082950592041016
25	72.19080805778503	fix_post	2		12.0	23.0	2.5	/experiments/knapen_aot/videos/S_G008_C015_UHD_SDR_2K_AVC.mp4	0.0	170.6851351261139	0.10013389587402344
25	72.23340106010437	response	2	2		23.0	2.5	/experiments/knapen_aot/videos/S_G008_C015_UHD_SDR_2K_AVC.mp4	0.0	170.72772812843323	
26	72.29094195365906	fix_pre	0		35.0	24.0	2.5	/experiments/knapen_aot/videos/R_S_yt-JkKOG9Fxykc_94.mp4	0.0	170.78526902198792	0.29166197776794434
26	72.57450890541077	response	0	2		24.0	2.5	/experiments/knapen_aot/videos/R_S_yt-JkKOG9Fxykc_94.mp4	0.0	171.06883597373962	
26	72.582603931427	movie	1		301.0	24.0	2.5	/experiments/knapen_aot/videos/R_S_yt-JkKOG9Fxykc_94.mp4	0.0	171.07693099975586	2.5082590579986572
26	75.09086298942566	fix_post	2		12.0	24.0	2.5	/experiments/knapen_aot/videos/R_S_yt-JkKOG9Fxykc_94.mp4	0.0	173.58519005775452	0.09997200965881348
27	75.19083499908447	fix_pre	0		22.0	25.0	2.5	/experiments/knapen_aot/videos/S_Y004_C015_SDR_2K_AVC.mp4	0.0	173.68516206741333	0.18340587615966797
27	75.35844302177429	response	0	2		25.0	2.5	/experiments/knapen_aot/videos/S_Y004_C015_SDR_2K_AVC.mp4	0.0	173.85277009010315	
27	75.37424087524414	movie	1		166.0	25.0	2.5	/experiments/knapen_aot/videos/S_Y004_C015_SDR_2K_AVC.mp4	0.0	173.868567943573	2.5081892013549805
27	77.88243007659912	fix_post	2		12.0	25.0	2.5	/experiments/knapen_aot/videos/S_Y004_C015_SDR_2K_AVC.mp4	0.0	176.37675714492798	0.10008978843688965
28	77.98251986503601	fix_pre	0		11.0	26.0	2.5	blank	1.0	176.47684693336487	0.09161615371704102
28	78.0659499168396	response	0	2		26.0	2.5	blank	1.0	176.56027698516846	
28	78.07413601875305	movie	1		301.0	26.0	2.5	blank	1.0	176.5684630870819	2.5083980560302734
28	80.58253407478333	fix_post	2		12.0	26.0	2.5	blank	1.0	179.07686114311218	0.09993791580200195
29	80.68247199058533	fix_pre	0		28.0	27.0	2.5	/experiments/knapen_aot/videos/S_yt-RlHmMGUjT9E_130.mp4	0.0	179.17679905891418	0.2333378791809082
29	80.9074969291687	response	0	2		27.0	2.5	/experiments/knapen_aot/videos/S_yt-RlHmMGUjT9E_130.mp4	0.0	179.40182399749756	
29	80.91580986976624	movie	1		301.0	27.0	2.5	/experiments/knapen_aot/videos/S_yt-RlHmMGUjT9E_130.mp4	0.0	179.4101369380951	2.5082762241363525
29	83.42408609390259	fix_post	2		12.0	27.0	2.5	/experiments/knapen_aot/videos/S_yt-RlHmMGUjT9E_130.mp4	0.0	181.91841316223145	0.10018587112426758
30	83.52427196502686	fix_pre	0		17.0	28.0	2.5	/experiments/knapen_aot/videos/S_production_ID_5144824.mp4	0.0	182.0185990333557	0.14153695106506348
30	83.65761399269104	response	0	2		28.0	2.5	/experiments/knapen_aot/videos/S_production_ID_5144824.mp4	0.0	182.1519410610199	
30	83.66580891609192	movie	1		163.0	28.0	2.5	/experiments/knapen_aot/videos/S_production_ID_5144824.mp4	0.0	182.16013598442078	2.508324146270752
30	86.17413306236267	fix_post	2		12.0	28.0	2.5	/experiments/knapen_aot/videos/S_production_ID_5144824.mp4	0.0	184.66846013069153	0.10003280639648438
31	86.27416586875916	fix_pre	0		12.0	29.0	2.5	/experiments/knapen_aot/videos/R_S_yt-hQ5pge893b4_6.mp4	0.0	184.768492937088	0.09998512268066406
31	86.3659598827362	response	0	2		29.0	2.5	/experiments/knapen_aot/videos/R_S_yt-hQ5pge893b4_6.mp4	0.0	184.86028695106506	
31	86.37415099143982	movie	1		300.0	29.0	2.5	/experiments/knapen_aot/videos/R_S_yt-hQ5pge893b4_6.mp4	0.0	184.86847805976868	2.5082759857177734
31	88.88242697715759	fix_post	2		12.0	29.0	2.5	/experiments/knapen_aot/videos/R_S_yt-hQ5pge893b4_6.mp4	0.0	187.37675404548645	0.10003089904785156
32	88.98245787620544	fix_pre	0		22.0	30.0	2.5	/experiments/knapen_aot/videos/S_yt-LGwEki4ghNw_69.mp4	0.0	187.4767849445343	0.18334317207336426
32	89.15760397911072	response	0	2		30.0	2.5	/experiments/knapen_aot/videos/S_yt-LGwEki4ghNw_69.mp4	0.0	187.65193104743958	
32	89.16580104827881	movie	1		301.0	30.0	2.5	/experiments/knapen_aot/videos/S_yt-LGwEki4ghNw_69.mp4	0.0	187.66012811660767	2.5083630084991455
32	91.67416405677795	fix_post	2		12.0	30.0	2.5	/experiments/knapen_aot/videos/S_yt-LGwEki4ghNw_69.mp4	0.0	190.1684911251068	0.09987187385559082
33	91.77403593063354	fix_pre	0		16.0	31.0	2.5	/experiments/knapen_aot/videos/S_pexels-c-technical-6809719.mp4	0.0	190.2683629989624	0.13333606719970703
33	91.89925909042358	response	0	2		31.0	2.5	/experiments/knapen_aot/videos/S_pexels-c-technical-6809719.mp4	0.0	190.39358615875244	
33	91.90737199783325	movie	1		195.0	31.0	2.5	/experiments/knapen_aot/videos/S_pexels-c-technical-6809719.mp4	0.0	190.4016990661621	2.5083858966827393
33	94.41575789451599	fix_post	2		12.0	31.0	2.5	/experiments/knapen_aot/videos/S_pexels-c-technical-6809719.mp4	0.0	192.91008496284485	0.09997010231018066
34	94.51572799682617	fix_pre	0		18.0	32.0	2.5	/experiments/knapen_aot/videos/R_S_yt-RlHmMGUjT9E_130.mp4	0.0	193.01005506515503	0.14998793601989746
34	94.65751600265503	response	0	2		32.0	2.5	/experiments/knapen_aot/videos/R_S_yt-RlHmMGUjT9E_130.mp4	0.0	193.1518430709839	
34	94.66571593284607	movie	1		301.0	32.0	2.5	/experiments/knapen_aot/videos/R_S_yt-RlHmMGUjT9E_130.mp4	0.0	193.16004300117493	2.5082650184631348
34	97.1739809513092	fix_post	2		12.0	32.0	2.5	/experiments/knapen_aot/videos/R_S_yt-RlHmMGUjT9E_130.mp4	0.0	195.66830801963806	0.10008406639099121
35	97.2740650177002	fix_pre	0		14.0	33.0	2.5	/experiments/knapen_aot/videos/S_ILSVRC2015_train_00568002.mp4	0.0	195.76839208602905	0.11665701866149902
35	97.37498903274536	response	0	2		33.0	2.5	/experiments/knapen_aot/videos/S_ILSVRC2015_train_00568002.mp4	0.0	195.86931610107422	
35	97.3907220363617	movie	1		300.0	33.0	2.5	/experiments/knapen_aot/videos/S_ILSVRC2015_train_00568002.mp4	0.0	195.88504910469055	2.508358955383301
35	99.899080991745	fix_post	2		12.0	33.0	2.5	/experiments/knapen_aot/videos/S_ILSVRC2015_train_00568002.mp4	0.0	198.39340806007385	0.09998488426208496
36	99.99906587600708	fix_pre	0		15.0	34.0	2.5	/experiments/knapen_aot/videos/S_yt--v_iMUMMX6g_39.mp4	0.0	198.49339294433594	0.12491822242736816
36	100.11581897735596	response	0	2		34.0	2.5	/experiments/knapen_aot/videos/S_yt--v_iMUMMX6g_39.mp4	0.0	198.61014604568481	
36	100.12398409843445	movie	1		301.0	34.0	2.5	/experiments/knapen_aot/videos/S_yt--v_iMUMMX6g_39.mp4	0.0	198.6183111667633	2.508445978164673
36	102.63243007659912	fix_post	2		12.0	34.0	2.5	/experiments/knapen_aot/videos/S_yt--v_iMUMMX6g_39.mp4	0.0	201.12675714492798	0.1000058650970459
37	102.73243594169617	fix_pre	0		25.0	35.0	2.5	blank	1.0	201.22676301002502	0.20831012725830078
37	102.93257904052734	response	0	2		35.0	2.5	blank	1.0	201.4269061088562	
37	102.94074606895447	movie	1		301.0	35.0	2.5	blank	1.0	201.43507313728333	2.5083060264587402
37	103.24910688400269	response	1	2		35.0	2.5	blank	1.0	201.74343395233154	
37	105.44905209541321	fix_post	2		12.0	35.0	2.5	blank	1.0	203.94337916374207	0.09994888305664062
38	105.54900097846985	fix_pre	0		91.0	36.0	2.5	/experiments/knapen_aot/videos/R_S_yt-mdLT282PVbE_6.mp4	0.0	204.0433280467987	0.7583200931549072
38	106.29920601844788	response	0	2		36.0	2.5	/experiments/knapen_aot/videos/R_S_yt-mdLT282PVbE_6.mp4	0.0	204.79353308677673	
38	106.30732107162476	movie	1		301.0	36.0	2.5	/experiments/knapen_aot/videos/R_S_yt-mdLT282PVbE_6.mp4	0.0	204.8016481399536	2.508354902267456
38	108.81567597389221	fix_post	2		12.0	36.0	2.5	/experiments/knapen_aot/videos/R_S_yt-mdLT282PVbE_6.mp4	0.0	207.31000304222107	0.10013294219970703
39	108.91580891609192	fix_pre	0		6.0	37.0	2.5	/experiments/knapen_aot/videos/R_S_yt-G_eNNzNB-hU_1.mp4	0.0	207.41013598442078	0.049990177154541016
39	108.95747303962708	response	0	2		37.0	2.5	/experiments/knapen_aot/videos/R_S_yt-G_eNNzNB-hU_1.mp4	0.0	207.45180010795593	
39	108.96579909324646	movie	1		301.0	37.0	2.5	/experiments/knapen_aot/videos/R_S_yt-G_eNNzNB-hU_1.mp4	0.0	207.46012616157532	2.508286952972412
39	111.47408604621887	fix_post	2		12.0	37.0	2.5	/experiments/knapen_aot/videos/R_S_yt-G_eNNzNB-hU_1.mp4	0.0	209.96841311454773	0.0999748706817627
40	111.57406091690063	fix_pre	0		10.0	38.0	2.5	/experiments/knapen_aot/videos/R_S_wc-rs31_SV1Opy__6.mp4	0.0	210.0683879852295	0.08452701568603516
40	111.64915800094604	response	0	2		38.0	2.5	/experiments/knapen_aot/videos/R_S_wc-rs31_SV1Opy__6.mp4	0.0	210.1434850692749	
40	111.65858793258667	movie	1		166.0	38.0	2.5	/experiments/knapen_aot/videos/R_S_wc-rs31_SV1Opy__6.mp4	0.0	210.15291500091553	2.5070371627807617
40	114.16562509536743	fix_post	2		12.0	38.0	2.5	/experiments/knapen_aot/videos/R_S_wc-rs31_SV1Opy__6.mp4	0.0	212.6599521636963	0.10001778602600098
41	114.26564288139343	fix_pre	0		13.0	39.0	2.5	/experiments/knapen_aot/videos/S_yt-UKrWbJEs7pw_74.mp4	0.0	212.7599699497223	0.1083230972290039
41	114.36575698852539	response	0	2		39.0	2.5	/experiments/knapen_aot/videos/S_yt-UKrWbJEs7pw_74.mp4	0.0	212.86008405685425	
41	114.37396597862244	movie	1		301.0	39.0	2.5	/experiments/knapen_aot/videos/S_yt-UKrWbJEs7pw_74.mp4	0.0	212.8682930469513	2.5083909034729004
41	116.88235688209534	fix_post	2		12.0	39.0	2.5	/experiments/knapen_aot/videos/S_yt-UKrWbJEs7pw_74.mp4	0.0	215.3766839504242	0.09997010231018066
42	116.98232698440552	fix_pre	0		19.0	40.0	2.5	/experiments/knapen_aot/videos/R_S_yt-gmiyqQDGN78_7.mp4	0.0	215.47665405273438	0.15825700759887695
42	117.13248705863953	response	0	2		40.0	2.5	/experiments/knapen_aot/videos/R_S_yt-gmiyqQDGN78_7.mp4	0.0	215.62681412696838	
42	117.1405839920044	movie	1		300.0	40.0	2.5	/experiments/knapen_aot/videos/R_S_yt-gmiyqQDGN78_7.mp4	0.0	215.63491106033325	2.5083820819854736
42	119.64896607398987	fix_post	2		12.0	40.0	2.5	/experiments/knapen_aot/videos/R_S_yt-gmiyqQDGN78_7.mp4	0.0	218.14329314231873	0.10000085830688477
43	119.74896693229675	fix_pre	0		17.0	41.0	2.5	blank	1.0	218.2432940006256	0.14156413078308105
43	119.88245606422424	response	0	2		41.0	2.5	blank	1.0	218.3767831325531	
43	119.89053106307983	movie	1		301.0	41.0	2.5	blank	1.0	218.3848581314087	2.5084288120269775
43	122.39895987510681	fix_post	2		12.0	41.0	2.5	blank	1.0	220.89328694343567	0.10007500648498535
44	122.4990348815918	fix_pre	0		42.0	42.0	2.5	/experiments/knapen_aot/videos/R_S_yt-BG-G7m5wLZ4_94.mp4	0.0	220.99336194992065	0.3499491214752197
44	122.84071397781372	response	0	2		42.0	2.5	/experiments/knapen_aot/videos/R_S_yt-BG-G7m5wLZ4_94.mp4	0.0	221.33504104614258	
44	122.84898400306702	movie	1		298.0	42.0	2.5	/experiments/knapen_aot/videos/R_S_yt-BG-G7m5wLZ4_94.mp4	0.0	221.34331107139587	2.5083749294281006
44	125.35735893249512	fix_post	2		12.0	42.0	2.5	/experiments/knapen_aot/videos/R_S_yt-BG-G7m5wLZ4_94.mp4	0.0	223.85168600082397	0.1000821590423584
45	125.45744109153748	fix_pre	0		8.0	43.0	2.5	/experiments/knapen_aot/videos/S_yt-P001x88adE4_427.mp4	0.0	223.95176815986633	0.06667399406433105
45	125.51600790023804	response	0	2		43.0	2.5	/experiments/knapen_aot/videos/S_yt-P001x88adE4_427.mp4	0.0	224.0103349685669	
45	125.5241150856018	movie	1		301.0	43.0	2.5	/experiments/knapen_aot/videos/S_yt-P001x88adE4_427.mp4	0.0	224.01844215393066	2.5082647800445557
45	128.03237986564636	fix_post	2		12.0	43.0	2.5	/experiments/knapen_aot/videos/S_yt-P001x88adE4_427.mp4	0.0	226.52670693397522	0.09994912147521973
46	128.13232898712158	fix_pre	0		15.0	44.0	2.5	/experiments/knapen_aot/videos/R_S_yt-LGwEki4ghNw_69.mp4	0.0	226.62665605545044	0.12501907348632812
46	128.24911904335022	response	0	2		44.0	2.5	/experiments/knapen_aot/videos/R_S_yt-LGwEki4ghNw_69.mp4	0.0	226.74344611167908	
46	128.2573480606079	movie	1		300.0	44.0	2.5	/experiments/knapen_aot/videos/R_S_yt-LGwEki4ghNw_69.mp4	0.0	226.75167512893677	2.5082828998565674
46	130.76563096046448	fix_post	2		12.0	44.0	2.5	/experiments/knapen_aot/videos/R_S_yt-LGwEki4ghNw_69.mp4	0.0	229.25995802879333	0.10002899169921875
47	130.8656599521637	fix_pre	0		21.0	45.0	2.5	/experiments/knapen_aot/videos/R_S_yt-sWJc_Do8EaI_32.mp4	0.0	229.35998702049255	0.17499804496765137
47	131.0324990749359	response	0	2		45.0	2.5	/experiments/knapen_aot/videos/R_S_yt-sWJc_Do8EaI_32.mp4	0.0	229.52682614326477	
47	131.04065799713135	movie	1		298.0	45.0	2.5	/experiments/knapen_aot/videos/R_S_yt-sWJc_Do8EaI_32.mp4	0.0	229.5349850654602	2.5083630084991455
47	133.5490210056305	fix_post	2		12.0	45.0	2.5	/experiments/knapen_aot/videos/R_S_yt-sWJc_Do8EaI_32.mp4	0.0	232.04334807395935	0.10000300407409668
48	133.6490240097046	fix_pre	0		9.0	46.0	2.5	/experiments/knapen_aot/videos/S_yt-1iB2ofPY1U8_16.mp4	0.0	232.14335107803345	0.07514500617980957
48	133.71588802337646	response	0	2		46.0	2.5	/experiments/knapen_aot/videos/S_yt-1iB2ofPY1U8_16.mp4	0.0	232.21021509170532	
48	133.7241690158844	movie	1		301.0	46.0	2.5	/experiments/knapen_aot/videos/S_yt-1iB2ofPY1U8_16.mp4	0.0	232.21849608421326	2.508178949356079
48	136.23234796524048	fix_post	2		12.0	46.0	2.5	/experiments/knapen_aot/videos/S_yt-1iB2ofPY1U8_16.mp4	0.0	234.72667503356934	0.09997391700744629
49	136.33232188224792	fix_pre	0		13.0	47.0	2.5	/experiments/knapen_aot/videos/S_g201_CA_A016_C002_SDR_20191114_SDR_2K_AVC.mp4	0.0	234.82664895057678	0.11094403266906738
49	136.4256238937378	response	0	2		47.0	2.5	/experiments/knapen_aot/videos/S_g201_CA_A016_C002_SDR_20191114_SDR_2K_AVC.mp4	0.0	234.91995096206665	
49	136.443265914917	movie	1		193.0	47.0	2.5	/experiments/knapen_aot/videos/S_g201_CA_A016_C002_SDR_20191114_SDR_2K_AVC.mp4	0.0	234.93759298324585	2.5057520866394043
49	138.9490180015564	fix_post	2		12.0	47.0	2.5	/experiments/knapen_aot/videos/S_g201_CA_A016_C002_SDR_20191114_SDR_2K_AVC.mp4	0.0	237.44334506988525	0.09996795654296875
50	139.04898595809937	fix_pre	0		5.0	48.0	2.5	blank	1.0	237.54331302642822	0.04174494743347168
50	139.08311700820923	response	0	2		48.0	2.5	blank	1.0	237.5774440765381	
50	139.09073090553284	movie	1		301.0	48.0	2.5	blank	1.0	237.5850579738617	2.5082650184631348
50	141.59899592399597	fix_post	2		12.0	48.0	2.5	blank	1.0	240.09332299232483	0.0999460220336914
51	141.69894194602966	fix_pre	0		28.0	49.0	2.5	/experiments/knapen_aot/videos/S_video-7.mp4	0.0	240.19326901435852	0.23330307006835938
51	141.92406702041626	response	0	2		49.0	2.5	/experiments/knapen_aot/videos/S_video-7.mp4	0.0	240.41839408874512	
51	141.93224501609802	movie	1		170.0	49.0	2.5	/experiments/knapen_aot/videos/S_video-7.mp4	0.0	240.42657208442688	2.508298873901367
51	144.4405438899994	fix_post	2		12.0	49.0	2.5	/experiments/knapen_aot/videos/S_video-7.mp4	0.0	242.93487095832825	0.10014915466308594
52	144.54069304466248	fix_pre	0		18.0	50.0	2.5	/experiments/knapen_aot/videos/S_yt-IX6uxR5DSKk_2.mp4	0.0	243.03502011299133	0.14989399909973145
52	144.67490696907043	response	0	2		50.0	2.5	/experiments/knapen_aot/videos/S_yt-IX6uxR5DSKk_2.mp4	0.0	243.1692340373993	
52	144.6905870437622	movie	1		299.0	50.0	2.5	/experiments/knapen_aot/videos/S_yt-IX6uxR5DSKk_2.mp4	0.0	243.18491411209106	2.5083260536193848
52	147.1989130973816	fix_post	2		12.0	50.0	2.5	/experiments/knapen_aot/videos/S_yt-IX6uxR5DSKk_2.mp4	0.0	245.69324016571045	0.0999917984008789
53	147.29890489578247	fix_pre	0		15.0	51.0	2.5	/experiments/knapen_aot/videos/R_S_ILSVRC2015_train_00569002.mp4	0.0	245.79323196411133	0.12496399879455566
53	147.41564202308655	response	0	2		51.0	2.5	/experiments/knapen_aot/videos/R_S_ILSVRC2015_train_00569002.mp4	0.0	245.9099690914154	
53	147.42386889457703	movie	1		301.0	51.0	2.5	/experiments/knapen_aot/videos/R_S_ILSVRC2015_train_00569002.mp4	0.0	245.91819596290588	2.508458137512207
53	149.93232703208923	fix_post	2		12.0	51.0	2.5	/experiments/knapen_aot/videos/R_S_ILSVRC2015_train_00569002.mp4	0.0	248.4266541004181	0.09995484352111816
54	150.03228187561035	fix_pre	0		15.0	52.0	2.5	/experiments/knapen_aot/videos/S_yt-b7JAHOeiTqU_44.mp4	0.0	248.5266089439392	0.12603306770324707
54	150.1490659713745	response	0	2		52.0	2.5	/experiments/knapen_aot/videos/S_yt-b7JAHOeiTqU_44.mp4	0.0	248.64339303970337	
54	150.1583149433136	movie	1		301.0	52.0	2.5	/experiments/knapen_aot/videos/S_yt-b7JAHOeiTqU_44.mp4	0.0	248.65264201164246	2.5072860717773438
54	152.66560101509094	fix_post	2		12.0	52.0	2.5	/experiments/knapen_aot/videos/S_yt-b7JAHOeiTqU_44.mp4	0.0	251.1599280834198	0.09999203681945801
55	152.7655930519104	fix_pre	0		6.0	53.0	2.5	/experiments/knapen_aot/videos/S_yt-gmiyqQDGN78_7.mp4	0.0	251.25992012023926	0.04994797706604004
55	152.80737900733948	response	0	2		53.0	2.5	/experiments/knapen_aot/videos/S_yt-gmiyqQDGN78_7.mp4	0.0	251.30170607566833	
55	152.81554102897644	movie	1		301.0	53.0	2.5	/experiments/knapen_aot/videos/S_yt-gmiyqQDGN78_7.mp4	0.0	251.3098680973053	2.5083398818969727
55	155.3238809108734	fix_post	2		12.0	53.0	2.5	/experiments/knapen_aot/videos/S_yt-gmiyqQDGN78_7.mp4	0.0	253.81820797920227	0.09999918937683105
56	155.42388010025024	fix_pre	0		11.0	54.0	2.5	/experiments/knapen_aot/videos/S_yt-Ndwek2tpIOA_169.mp4	0.0	253.9182071685791	0.09163880348205566
56	155.5074279308319	response	0	2		54.0	2.5	/experiments/knapen_aot/videos/S_yt-Ndwek2tpIOA_169.mp4	0.0	254.00175499916077	
56	155.5155189037323	movie	1		301.0	54.0	2.5	/experiments/knapen_aot/videos/S_yt-Ndwek2tpIOA_169.mp4	0.0	254.00984597206116	2.508395195007324
56	158.02391409873962	fix_post	2		12.0	54.0	2.5	/experiments/knapen_aot/videos/S_yt-Ndwek2tpIOA_169.mp4	0.0	256.5182411670685	0.10002899169921875
57	158.12394309043884	fix_pre	0		17.0	55.0	2.5	blank	1.0	256.6182701587677	0.14157390594482422
57	158.25730299949646	response	0	2		55.0	2.5	blank	1.0	256.7516300678253	
57	158.26551699638367	movie	1		301.0	55.0	2.5	blank	1.0	256.7598440647125	2.5083980560302734
57	160.77391505241394	fix_post	2		12.0	55.0	2.5	blank	1.0	259.2682421207428	0.09995794296264648
58	160.8738729953766	fix_pre	0		29.0	56.0	2.5	/experiments/knapen_aot/videos/R_S_yt-VfASxEzDrvc_145.mp4	0.0	259.36820006370544	0.24265503883361816
58	161.10733294487	response	0	2		56.0	2.5	/experiments/knapen_aot/videos/R_S_yt-VfASxEzDrvc_145.mp4	0.0	259.60166001319885	
58	161.1165280342102	movie	1		301.0	56.0	2.5	/experiments/knapen_aot/videos/R_S_yt-VfASxEzDrvc_145.mp4	0.0	259.61085510253906	2.5073728561401367
58	163.62390089035034	fix_post	2		12.0	56.0	2.5	/experiments/knapen_aot/videos/R_S_yt-VfASxEzDrvc_145.mp4	0.0	262.1182279586792	0.09986019134521484
59	163.72376108169556	fix_pre	0		22.0	57.0	2.5	/experiments/knapen_aot/videos/S_yt-xrPrnzvWUkY_7.mp4	0.0	262.2180881500244	0.18433380126953125
59	163.89900588989258	response	0	2		57.0	2.5	/experiments/knapen_aot/videos/S_yt-xrPrnzvWUkY_7.mp4	0.0	262.39333295822144	
59	163.9080948829651	movie	1		301.0	57.0	2.5	/experiments/knapen_aot/videos/S_yt-xrPrnzvWUkY_7.mp4	0.0	262.40242195129395	2.507451057434082
59	166.41554594039917	fix_post	2		12.0	57.0	2.5	/experiments/knapen_aot/videos/S_yt-xrPrnzvWUkY_7.mp4	0.0	264.909873008728	0.09994316101074219
60	166.5154891014099	fix_pre	0		19.0	58.0	2.5	/experiments/knapen_aot/videos/S_yt-J8E_BpSJMpk_5.mp4	0.0	265.00981616973877	0.15830779075622559
60	166.65803408622742	response	0	2		58.0	2.5	/experiments/knapen_aot/videos/S_yt-J8E_BpSJMpk_5.mp4	0.0	265.1523611545563	
60	166.67379689216614	movie	1		301.0	58.0	2.5	/experiments/knapen_aot/videos/S_yt-J8E_BpSJMpk_5.mp4	0.0	265.168123960495	2.5083889961242676
60	169.1821858882904	fix_post	2		12.0	58.0	2.5	/experiments/knapen_aot/videos/S_yt-J8E_BpSJMpk_5.mp4	0.0	267.67651295661926	0.1009511947631836
61	169.2831370830536	fix_pre	0		29.0	59.0	2.5	/experiments/knapen_aot/videos/R_S_yt-2WPmM2vIuBE_41.mp4	0.0	267.77746415138245	0.24067091941833496
61	169.5080919265747	response	0	2		59.0	2.5	/experiments/knapen_aot/videos/R_S_yt-2WPmM2vIuBE_41.mp4	0.0	268.00241899490356	
61	169.52380800247192	movie	1		301.0	59.0	2.5	/experiments/knapen_aot/videos/R_S_yt-2WPmM2vIuBE_41.mp4	0.0	268.0181350708008	2.5083200931549072
61	172.03212809562683	fix_post	2		12.0	59.0	2.5	/experiments/knapen_aot/videos/R_S_yt-2WPmM2vIuBE_41.mp4	0.0	270.5264551639557	0.09999585151672363
62	172.13212394714355	fix_pre	0		14.0	60.0	2.5	/experiments/knapen_aot/videos/S_flickr-seattlemcneals-996953_3.mp4	0.0	270.6264510154724	0.11659002304077148
62	172.24057793617249	response	0	2		60.0	2.5	/experiments/knapen_aot/videos/S_flickr-seattlemcneals-996953_3.mp4	0.0	270.73490500450134	
62	172.24871397018433	movie	1		299.0	60.0	2.5	/experiments/knapen_aot/videos/S_flickr-seattlemcneals-996953_3.mp4	0.0	270.7430410385132	2.508378028869629
62	174.75709199905396	fix_post	2		12.0	60.0	2.5	/experiments/knapen_aot/videos/S_flickr-seattlemcneals-996953_3.mp4	0.0	273.2514190673828	0.09998893737792969
63	174.85708093643188	fix_pre	0		16.0	61.0	2.5	blank	1.0	273.35140800476074	0.1333310604095459
63	174.97469997406006	response	0	2		61.0	2.5	blank	1.0	273.4690270423889	
63	174.99041199684143	movie	1		301.0	61.0	2.5	blank	1.0	273.4847390651703	2.508302927017212
63	177.49871492385864	fix_post	2		12.0	61.0	2.5	blank	1.0	275.9930419921875	0.09997797012329102
64	177.59869289398193	fix_pre	0		35.0	62.0	2.5	/experiments/knapen_aot/videos/R_S_yt-5DD4XtHSA9Q_171.mp4	0.0	276.0930199623108	0.29183411598205566
64	177.88227701187134	response	0	2		62.0	2.5	/experiments/knapen_aot/videos/R_S_yt-5DD4XtHSA9Q_171.mp4	0.0	276.3766040802002	
64	177.890527009964	movie	1		301.0	62.0	2.5	/experiments/knapen_aot/videos/R_S_yt-5DD4XtHSA9Q_171.mp4	0.0	276.38485407829285	2.508233070373535
64	180.39876008033752	fix_post	2		12.0	62.0	2.5	/experiments/knapen_aot/videos/R_S_yt-5DD4XtHSA9Q_171.mp4	0.0	278.8930871486664	0.10002684593200684
65	180.49878692626953	fix_pre	0		9.0	63.0	2.5	/experiments/knapen_aot/videos/R_S_pexels-vlada-karpovich-8044792.mp4	0.0	278.9931139945984	0.07590007781982422
65	180.56575393676758	response	0	2		63.0	2.5	/experiments/knapen_aot/videos/R_S_pexels-vlada-karpovich-8044792.mp4	0.0	279.06008100509644	
65	180.57468700408936	movie	1		165.0	63.0	2.5	/experiments/knapen_aot/videos/R_S_pexels-vlada-karpovich-8044792.mp4	0.0	279.0690140724182	2.5073399543762207
65	183.08202695846558	fix_post	2		12.0	63.0	2.5	/experiments/knapen_aot/videos/R_S_pexels-vlada-karpovich-8044792.mp4	0.0	281.57635402679443	0.1000521183013916
66	183.18207907676697	fix_pre	0		12.0	64.0	2.5	/experiments/knapen_aot/videos/R_S_yt-FzMLLmcD1mE_19.mp4	0.0	281.6764061450958	0.10085296630859375
66	183.27389407157898	response	0	2		64.0	2.5	/experiments/knapen_aot/videos/R_S_yt-FzMLLmcD1mE_19.mp4	0.0	281.76822113990784	
66	183.28293204307556	movie	1		301.0	64.0	2.5	/experiments/knapen_aot/videos/R_S_yt-FzMLLmcD1mE_19.mp4	0.0	281.7772591114044	2.5075340270996094
66	185.79046607017517	fix_post	2		12.0	64.0	2.5	/experiments/knapen_aot/videos/R_S_yt-FzMLLmcD1mE_19.mp4	0.0	284.284793138504	0.09994292259216309
67	185.89040899276733	fix_pre	0		16.0	65.0	2.5	/experiments/knapen_aot/videos/S_ILSVRC2015_train_00251004.mp4	0.0	284.3847360610962	0.13329601287841797
67	186.00795888900757	response	0	2		65.0	2.5	/experiments/knapen_aot/videos/S_ILSVRC2015_train_00251004.mp4	0.0	284.5022859573364	
67	186.02370500564575	movie	1		301.0	65.0	2.5	/experiments/knapen_aot/videos/S_ILSVRC2015_train_00251004.mp4	0.0	284.5180320739746	2.5083348751068115
67	188.53203988075256	fix_post	2		12.0	65.0	2.5	/experiments/knapen_aot/videos/S_ILSVRC2015_train_00251004.mp4	0.0	287.0263669490814	0.10003900527954102
68	188.6320788860321	fix_pre	0		9.0	66.0	2.5	/experiments/knapen_aot/videos/S_comp_DB_D008_C010_PSNK_v21_SDR_PS_20180914_F0F16157_SDR_2K_AVC.mp4	0.0	287.12640595436096	0.07496309280395508
68	188.69888496398926	response	0	2		66.0	2.5	/experiments/knapen_aot/videos/S_comp_DB_D008_C010_PSNK_v21_SDR_PS_20180914_F0F16157_SDR_2K_AVC.mp4	0.0	287.1932120323181	
68	188.70704197883606	movie	1		165.0	66.0	2.5	/experiments/knapen_aot/videos/S_comp_DB_D008_C010_PSNK_v21_SDR_PS_20180914_F0F16157_SDR_2K_AVC.mp4	0.0	287.2013690471649	2.5083460807800293
68	191.2153880596161	fix_post	2		12.0	66.0	2.5	/experiments/knapen_aot/videos/S_comp_DB_D008_C010_PSNK_v21_SDR_PS_20180914_F0F16157_SDR_2K_AVC.mp4	0.0	289.70971512794495	0.10001182556152344
69	191.3153998851776	fix_pre	0		10.0	67.0	2.5	/experiments/knapen_aot/videos/S_production_ID_4325506.mp4	0.0	289.80972695350647	0.08331012725830078
69	191.39051699638367	response	0	2		67.0	2.5	/experiments/knapen_aot/videos/S_production_ID_4325506.mp4	0.0	289.8848440647125	
69	191.3987100124359	movie	1		195.0	67.0	2.5	/experiments/knapen_aot/videos/S_production_ID_4325506.mp4	0.0	289.89303708076477	2.5082850456237793
69	193.9069950580597	fix_post	2		12.0	67.0	2.5	/experiments/knapen_aot/videos/S_production_ID_4325506.mp4	0.0	292.40132212638855	0.10001802444458008
70	194.00701308250427	fix_pre	0		1.0	68.0	2.5	blank	1.0	292.50134015083313	0.008441925048828125
70	194.00868487358093	response	0	2		68.0	2.5	blank	1.0	292.5030119419098	
70	194.0154550075531	movie	1		301.0	68.0	2.5	blank	1.0	292.50978207588196	2.50826096534729
70	196.5237159729004	fix_post	2		12.0	68.0	2.5	blank	1.0	295.01804304122925	0.09995007514953613
71	196.62366604804993	fix_pre	0		31.0	69.0	2.5	/experiments/knapen_aot/videos/R_S_yt-hRAqAwRhmwE_58.mp4	0.0	295.1179931163788	0.25830698013305664
71	196.87377905845642	response	0	2		69.0	2.5	/experiments/knapen_aot/videos/R_S_yt-hRAqAwRhmwE_58.mp4	0.0	295.3681061267853	
71	196.88197302818298	movie	1		301.0	69.0	2.5	/experiments/knapen_aot/videos/R_S_yt-hRAqAwRhmwE_58.mp4	0.0	295.37630009651184	2.5082650184631348
71	199.39023804664612	fix_post	2		12.0	69.0	2.5	/experiments/knapen_aot/videos/R_S_yt-hRAqAwRhmwE_58.mp4	0.0	297.884565114975	0.10010790824890137
72	199.49034595489502	fix_pre	0		6.0	70.0	2.5	/experiments/knapen_aot/videos/R_S_BO_A014_C008_SDR_20190719_SDR_2K_AVC.mp4	0.0	297.9846730232239	0.04997396469116211
72	199.53225708007812	response	0	2		70.0	2.5	/experiments/knapen_aot/videos/R_S_BO_A014_C008_SDR_20190719_SDR_2K_AVC.mp4	0.0	298.026584148407	
72	199.54031991958618	movie	1		165.0	70.0	2.5	/experiments/knapen_aot/videos/R_S_BO_A014_C008_SDR_20190719_SDR_2K_AVC.mp4	0.0	298.03464698791504	2.508342981338501
72	202.04866290092468	fix_post	2		12.0	70.0	2.5	/experiments/knapen_aot/videos/R_S_BO_A014_C008_SDR_20190719_SDR_2K_AVC.mp4	0.0	300.54298996925354	0.09997701644897461
72	202.12374091148376	response	2	2		70.0	2.5	/experiments/knapen_aot/videos/R_S_BO_A014_C008_SDR_20190719_SDR_2K_AVC.mp4	0.0	300.6180679798126	
73	202.14863991737366	fix_pre	0		33.0	71.0	2.5	/experiments/knapen_aot/videos/R_S_yt-Ndwek2tpIOA_169.mp4	0.0	300.6429669857025	0.2749660015106201
73	202.41545605659485	response	0	2		71.0	2.5	/experiments/knapen_aot/videos/R_S_yt-Ndwek2tpIOA_169.mp4	0.0	300.9097831249237	
73	202.42360591888428	movie	1		301.0	71.0	2.5	/experiments/knapen_aot/videos/R_S_yt-Ndwek2tpIOA_169.mp4	0.0	300.91793298721313	2.5082881450653076
73	204.93189406394958	fix_post	2		12.0	71.0	2.5	/experiments/knapen_aot/videos/R_S_yt-Ndwek2tpIOA_169.mp4	0.0	303.42622113227844	0.10002493858337402
74	205.03191900253296	fix_pre	0		10.0	72.0	2.5	/experiments/knapen_aot/videos/S_yt-c5_SFS4aaJI_1102.mp4	0.0	303.5262460708618	0.08417987823486328
74	205.10705089569092	response	0	2		72.0	2.5	/experiments/knapen_aot/videos/S_yt-c5_SFS4aaJI_1102.mp4	0.0	303.6013779640198	
74	205.11609888076782	movie	1		301.0	72.0	2.5	/experiments/knapen_aot/videos/S_yt-c5_SFS4aaJI_1102.mp4	0.0	303.6104259490967	2.5076072216033936
74	207.62370610237122	fix_post	2		12.0	72.0	2.5	/experiments/knapen_aot/videos/S_yt-c5_SFS4aaJI_1102.mp4	0.0	306.1180331707001	0.09993982315063477
75	207.72364592552185	fix_pre	0		7.0	73.0	2.5	/experiments/knapen_aot/videos/R_S_yt-8vm83GUgYxI_1.mp4	0.0	306.2179729938507	0.05903816223144531
75	207.77374386787415	response	0	2		73.0	2.5	/experiments/knapen_aot/videos/R_S_yt-8vm83GUgYxI_1.mp4	0.0	306.268070936203	
75	207.7826840877533	movie	1		301.0	73.0	2.5	/experiments/knapen_aot/videos/R_S_yt-8vm83GUgYxI_1.mp4	0.0	306.27701115608215	2.507551908493042
75	210.29023599624634	fix_post	2		12.0	73.0	2.5	/experiments/knapen_aot/videos/R_S_yt-8vm83GUgYxI_1.mp4	0.0	308.7845630645752	0.09998488426208496
76	210.39022088050842	fix_pre	0		19.0	74.0	2.5	/experiments/knapen_aot/videos/R_S_production_ID_5199636.mp4	0.0	308.8845479488373	0.15839910507202148
76	210.53286695480347	response	0	2		74.0	2.5	/experiments/knapen_aot/videos/R_S_production_ID_5199636.mp4	0.0	309.0271940231323	
76	210.54861998558044	movie	1		166.0	74.0	2.5	/experiments/knapen_aot/videos/R_S_production_ID_5199636.mp4	0.0	309.0429470539093	2.508225917816162
76	213.0568459033966	fix_post	2		12.0	74.0	2.5	/experiments/knapen_aot/videos/R_S_production_ID_5199636.mp4	0.0	311.55117297172546	0.10086703300476074
77	213.15771293640137	fix_pre	0		5.0	75.0	2.5	/experiments/knapen_aot/videos/S_BO_A012_C031_SDR_20190726_SDR_2K_AVC.mp4	0.0	311.6520400047302	0.04221296310424805
77	213.1908929347992	response	0	2		75.0	2.5	/experiments/knapen_aot/videos/S_BO_A012_C031_SDR_20190726_SDR_2K_AVC.mp4	0.0	311.68522000312805	
77	213.19992589950562	movie	1		164.0	75.0	2.5	/experiments/knapen_aot/videos/S_BO_A012_C031_SDR_20190726_SDR_2K_AVC.mp4	0.0	311.6942529678345	2.506944179534912
77	215.70687007904053	fix_post	2		12.0	75.0	2.5	/experiments/knapen_aot/videos/S_BO_A012_C031_SDR_20190726_SDR_2K_AVC.mp4	0.0	314.2011971473694	0.10004997253417969
78	215.8069200515747	fix_pre	0		15.0	76.0	2.5	blank	1.0	314.30124711990356	0.12495303153991699
78	215.9236719608307	response	0	2		76.0	2.5	blank	1.0	314.41799902915955	
78	215.93187308311462	movie	1		301.0	76.0	2.5	blank	1.0	314.4262001514435	2.508335828781128
78	218.44020891189575	fix_post	2		12.0	76.0	2.5	blank	1.0	316.9345359802246	0.10001301765441895
79	218.54022192955017	fix_pre	0		26.0	77.0	2.5	/experiments/knapen_aot/videos/R_S_pexels-ekaterina-bolovtsova-7669220.mp4	0.0	317.034548997879	0.21668696403503418
79	218.7486550807953	response	0	2		77.0	2.5	/experiments/knapen_aot/videos/R_S_pexels-ekaterina-bolovtsova-7669220.mp4	0.0	317.24298214912415	
79	218.7569088935852	movie	1		167.0	77.0	2.5	/experiments/knapen_aot/videos/R_S_pexels-ekaterina-bolovtsova-7669220.mp4	0.0	317.25123596191406	2.508296012878418
79	221.26520490646362	fix_post	2		12.0	77.0	2.5	/experiments/knapen_aot/videos/R_S_pexels-ekaterina-bolovtsova-7669220.mp4	0.0	319.7595319747925	0.10004210472106934
80	221.3652470111847	fix_pre	0		5.0	78.0	2.5	/experiments/knapen_aot/videos/R_S_yt-26009GpQuUg_3.mp4	0.0	319.85957407951355	0.04239392280578613
80	221.39887595176697	response	0	2		78.0	2.5	/experiments/knapen_aot/videos/R_S_yt-26009GpQuUg_3.mp4	0.0	319.8932030200958	
80	221.40764093399048	movie	1		301.0	78.0	2.5	/experiments/knapen_aot/videos/R_S_yt-26009GpQuUg_3.mp4	0.0	319.90196800231934	2.5075290203094482
80	223.91516995429993	fix_post	2		12.0	78.0	2.5	/experiments/knapen_aot/videos/R_S_yt-26009GpQuUg_3.mp4	0.0	322.4094970226288	0.10008096694946289
81	224.0152509212494	fix_pre	0		12.0	79.0	2.5	/experiments/knapen_aot/videos/R_S_yt-bOgChEHiroI_20.mp4	0.0	322.50957798957825	0.10067415237426758
81	224.10701203346252	response	0	2		79.0	2.5	/experiments/knapen_aot/videos/R_S_yt-bOgChEHiroI_20.mp4	0.0	322.6013391017914	
81	224.11592507362366	movie	1		300.0	79.0	2.5	/experiments/knapen_aot/videos/R_S_yt-bOgChEHiroI_20.mp4	0.0	322.6102521419525	2.5075998306274414
81	226.6235249042511	fix_post	2		12.0	79.0	2.5	/experiments/knapen_aot/videos/R_S_yt-bOgChEHiroI_20.mp4	0.0	325.11785197257996	0.10004496574401855
82	226.72356986999512	fix_pre	0		13.0	80.0	2.5	/experiments/knapen_aot/videos/S_yt-RO4mhuXBVrY_67.mp4	0.0	325.217896938324	0.10819721221923828
82	226.81605887413025	response	0	2		80.0	2.5	/experiments/knapen_aot/videos/S_yt-RO4mhuXBVrY_67.mp4	0.0	325.3103859424591	
82	226.83176708221436	movie	1		301.0	80.0	2.5	/experiments/knapen_aot/videos/S_yt-RO4mhuXBVrY_67.mp4	0.0	325.3260941505432	2.5084428787231445
82	229.3402099609375	fix_post	2		12.0	80.0	2.5	/experiments/knapen_aot/videos/S_yt-RO4mhuXBVrY_67.mp4	0.0	327.83453702926636	0.09996604919433594
83	229.44017601013184	fix_pre	0		25.0	81.0	2.5	/experiments/knapen_aot/videos/R_S_yt-RO4mhuXBVrY_67.mp4	0.0	327.9345030784607	0.2083120346069336
83	229.64028596878052	response	0	2		81.0	2.5	/experiments/knapen_aot/videos/R_S_yt-RO4mhuXBVrY_67.mp4	0.0	328.1346130371094	
83	229.64848804473877	movie	1		301.0	81.0	2.5	/experiments/knapen_aot/videos/R_S_yt-RO4mhuXBVrY_67.mp4	0.0	328.1428151130676	2.5083110332489014
83	232.15679907798767	fix_post	2		12.0	81.0	2.5	/experiments/knapen_aot/videos/R_S_yt-RO4mhuXBVrY_67.mp4	0.0	330.6511261463165	0.10012102127075195
84	232.25692009925842	fix_pre	0		20.0	82.0	2.5	/experiments/knapen_aot/videos/S_comp_GMT312_162NC_139M_1041_AFRICA_NIGHT_v14_SDR_FINAL_20180706_SDR_2K_AVC.mp4	0.0	330.7512471675873	0.1665329933166504
84	232.4153130054474	response	0	2		82.0	2.5	/experiments/knapen_aot/videos/S_comp_GMT312_162NC_139M_1041_AFRICA_NIGHT_v14_SDR_FINAL_20180706_SDR_2K_AVC.mp4	0.0	330.90964007377625	
84	232.42345309257507	movie	1		163.0	82.0	2.5	/experiments/knapen_aot/videos/S_comp_GMT312_162NC_139M_1041_AFRICA_NIGHT_v14_SDR_FINAL_20180706_SDR_2K_AVC.mp4	0.0	330.91778016090393	2.508340835571289
84	234.93179392814636	fix_post	2		12.0	82.0	2.5	/experiments/knapen_aot/videos/S_comp_GMT312_162NC_139M_1041_AFRICA_NIGHT_v14_SDR_FINAL_20180706_SDR_2K_AVC.mp4	0.0	333.4261209964752	0.09995508193969727
85	235.03174901008606	fix_pre	0		14.0	83.0	2.5	blank	1.0	333.5260760784149	0.1167290210723877
85	235.1403739452362	response	0	2		83.0	2.5	blank	1.0	333.63470101356506	
85	235.14847803115845	movie	1		301.0	83.0	2.5	blank	1.0	333.6428050994873	2.5083389282226562
85	237.6568169593811	fix_post	2		12.0	83.0	2.5	blank	1.0	336.15114402770996	0.10001301765441895
87	237.75682997703552	stim	0		250.0					336.2511570453644	2.083285093307495
87	239.83220195770264	response	0	space						338.3265290260315	
