trial_nr	onset	event_type	phase	response	nr_frames	movie_index	movie_duration	movie_file	blank	onset_abs	duration
0	0.15901780128479004	stim	0		25.0					68.21680188179016	0.2088019847869873
0	0.358522891998291	response	0	space						68.41630697250366	
1	0.36781978607177734	stim	0		121.0					68.42560386657715	1.0071470737457275
1	1.3749668598175049	stim	1		120.0					69.43275094032288	0.9996609687805176
2	2.3746278285980225	fix_pre	0		16.0	0.0	2.5	/experiments/knapen_aot/videos/R_S_ILSVRC2015_train_00547001.mp4	0.0	70.4324119091034	0.13328313827514648
2	2.4997057914733887	response	0	space		0.0	2.5	/experiments/knapen_aot/videos/R_S_ILSVRC2015_train_00547001.mp4	0.0	70.55748987197876	
2	2.507910966873169	movie	1		296.0	0.0	2.5	/experiments/knapen_aot/videos/R_S_ILSVRC2015_train_00547001.mp4	0.0	70.56569504737854	2.5083730220794678
2	5.016283988952637	fix_post	2		12.0	0.0	2.5	/experiments/knapen_aot/videos/R_S_ILSVRC2015_train_00547001.mp4	0.0	73.07406806945801	0.09997296333312988
2	5.0376927852630615	response	2	2		0.0	2.5	/experiments/knapen_aot/videos/R_S_ILSVRC2015_train_00547001.mp4	0.0	73.09547686576843	
3	5.116256952285767	fix_pre	0		33.0	1.0	2.5	/experiments/knapen_aot/videos/R_S_yt-kQpE9L-fsNE_55.mp4	0.0	73.17404103279114	0.27501797676086426
3	5.3830249309539795	response	0	2		1.0	2.5	/experiments/knapen_aot/videos/R_S_yt-kQpE9L-fsNE_55.mp4	0.0	73.44080901145935	
3	5.391274929046631	movie	1		299.0	1.0	2.5	/experiments/knapen_aot/videos/R_S_yt-kQpE9L-fsNE_55.mp4	0.0	73.449059009552	2.5083229541778564
3	7.899597883224487	fix_post	2		12.0	1.0	2.5	/experiments/knapen_aot/videos/R_S_yt-kQpE9L-fsNE_55.mp4	0.0	75.95738196372986	0.0999600887298584
4	7.999557971954346	fix_pre	0		20.0	2.0	2.5	/experiments/knapen_aot/videos/S_yt-loYSF41PfgI_79.mp4	0.0	76.05734205245972	0.16670799255371094
4	8.158113956451416	response	0	4		2.0	2.5	/experiments/knapen_aot/videos/S_yt-loYSF41PfgI_79.mp4	0.0	76.21589803695679	
4	8.166265964508057	movie	1		301.0	2.0	2.5	/experiments/knapen_aot/videos/S_yt-loYSF41PfgI_79.mp4	0.0	76.22405004501343	2.5082809925079346
4	10.674546957015991	fix_post	2		12.0	2.0	2.5	/experiments/knapen_aot/videos/S_yt-loYSF41PfgI_79.mp4	0.0	78.73233103752136	0.09999680519104004
5	10.774543762207031	fix_pre	0		8.0	3.0	2.5	/experiments/knapen_aot/videos/R_S_yt-SCzpSxzt0TA_46.mp4	0.0	78.8323278427124	0.06672310829162598
5	10.833079814910889	response	0	4		3.0	2.5	/experiments/knapen_aot/videos/R_S_yt-SCzpSxzt0TA_46.mp4	0.0	78.89086389541626	
5	10.841266870498657	movie	1		296.0	3.0	2.5	/experiments/knapen_aot/videos/R_S_yt-SCzpSxzt0TA_46.mp4	0.0	78.89905095100403	2.5082640647888184
5	13.349530935287476	fix_post	2		12.0	3.0	2.5	/experiments/knapen_aot/videos/R_S_yt-SCzpSxzt0TA_46.mp4	0.0	81.40731501579285	0.10011005401611328
6	13.449640989303589	fix_pre	0		3.0	4.0	2.5	/experiments/knapen_aot/videos/R_S_ILSVRC2015_train_00743005.mp4	0.0	81.50742506980896	0.02489185333251953
6	13.466363906860352	response	0	4		4.0	2.5	/experiments/knapen_aot/videos/R_S_ILSVRC2015_train_00743005.mp4	0.0	81.52414798736572	
6	13.474532842636108	movie	1		301.0	4.0	2.5	/experiments/knapen_aot/videos/R_S_ILSVRC2015_train_00743005.mp4	0.0	81.53231692314148	2.5084121227264404
6	15.982944965362549	fix_post	2		12.0	4.0	2.5	/experiments/knapen_aot/videos/R_S_ILSVRC2015_train_00743005.mp4	0.0	84.04072904586792	0.09997081756591797
6	15.999807834625244	response	2	4		4.0	2.5	/experiments/knapen_aot/videos/R_S_ILSVRC2015_train_00743005.mp4	0.0	84.05759191513062	
7	16.082915782928467	fix_pre	0		34.0	5.0	2.5	/experiments/knapen_aot/videos/R_S_yt-khmJAQuCRRE_119.mp4	0.0	84.14069986343384	0.2841219902038574
7	16.357977867126465	response	0	4		5.0	2.5	/experiments/knapen_aot/videos/R_S_yt-khmJAQuCRRE_119.mp4	0.0	84.41576194763184	
7	16.367037773132324	movie	1		301.0	5.0	2.5	/experiments/knapen_aot/videos/R_S_yt-khmJAQuCRRE_119.mp4	0.0	84.4248218536377	2.5075290203094482
7	18.874566793441772	fix_post	2		11.0	5.0	2.5	/experiments/knapen_aot/videos/R_S_yt-khmJAQuCRRE_119.mp4	0.0	86.93235087394714	0.09163808822631836
7	18.95799994468689	response	2	4		5.0	2.5	/experiments/knapen_aot/videos/R_S_yt-khmJAQuCRRE_119.mp4	0.0	87.01578402519226	
8	18.96620488166809	fix_pre	0		108.0	6.0	2.5	blank	1.0	87.02398896217346	0.9007000923156738
8	19.85792899131775	response	0	4		6.0	2.5	blank	1.0	87.91571307182312	
8	19.866904973983765	movie	1		301.0	6.0	2.5	blank	1.0	87.92468905448914	2.5076098442077637
8	22.37451481819153	fix_post	2		12.0	6.0	2.5	blank	1.0	90.4322988986969	0.10003399848937988
9	22.474548816680908	fix_pre	0		11.0	7.0	2.5	/experiments/knapen_aot/videos/R_S_wc-6or3Gl2Fif0m_13.mp4	0.0	90.53233289718628	0.09161901473999023
9	22.557942867279053	response	0	4		7.0	2.5	/experiments/knapen_aot/videos/R_S_wc-6or3Gl2Fif0m_13.mp4	0.0	90.61572694778442	
9	22.5661678314209	movie	1		168.0	7.0	2.5	/experiments/knapen_aot/videos/R_S_wc-6or3Gl2Fif0m_13.mp4	0.0	90.62395191192627	2.508301019668579
9	25.074468851089478	fix_post	2		12.0	7.0	2.5	/experiments/knapen_aot/videos/R_S_wc-6or3Gl2Fif0m_13.mp4	0.0	93.13225293159485	0.10002303123474121
9	25.091320991516113	response	2	4		7.0	2.5	/experiments/knapen_aot/videos/R_S_wc-6or3Gl2Fif0m_13.mp4	0.0	93.14910507202148	
10	25.17449188232422	fix_pre	0		61.0	8.0	2.5	/experiments/knapen_aot/videos/R_S_comp_DB_D001_C001_PSNK_v06_SDR_PS_20180824_SDR_2K_AVC.mp4	0.0	93.23227596282959	0.5098209381103516
10	25.67461395263672	response	0	4		8.0	2.5	/experiments/knapen_aot/videos/R_S_comp_DB_D001_C001_PSNK_v06_SDR_PS_20180824_SDR_2K_AVC.mp4	0.0	93.73239803314209	
10	25.68431282043457	movie	1		174.0	8.0	2.5	/experiments/knapen_aot/videos/R_S_comp_DB_D001_C001_PSNK_v06_SDR_PS_20180824_SDR_2K_AVC.mp4	0.0	93.74209690093994	2.506855010986328
10	28.1911678314209	fix_post	2		12.0	8.0	2.5	/experiments/knapen_aot/videos/R_S_comp_DB_D001_C001_PSNK_v06_SDR_PS_20180824_SDR_2K_AVC.mp4	0.0	96.24895191192627	0.10005593299865723
11	28.291223764419556	fix_pre	0		55.0	9.0	2.5	/experiments/knapen_aot/videos/R_S_yt-OPzchvF7jO8_53.mp4	0.0	96.34900784492493	0.4582970142364502
11	28.7429358959198	response	0	2		9.0	2.5	/experiments/knapen_aot/videos/R_S_yt-OPzchvF7jO8_53.mp4	0.0	96.80071997642517	
11	28.749520778656006	movie	1		301.0	9.0	2.5	/experiments/knapen_aot/videos/R_S_yt-OPzchvF7jO8_53.mp4	0.0	96.80730485916138	2.50834321975708
11	31.257863998413086	fix_post	2		12.0	9.0	2.5	/experiments/knapen_aot/videos/R_S_yt-OPzchvF7jO8_53.mp4	0.0	99.31564807891846	0.09994292259216309
12	31.35780692100525	fix_pre	0		13.0	10.0	2.5	/experiments/knapen_aot/videos/R_S_yt-OEY9O2MglQM_7.mp4	0.0	99.41559100151062	0.10835790634155273
12	31.45799684524536	response	0	2		10.0	2.5	/experiments/knapen_aot/videos/R_S_yt-OEY9O2MglQM_7.mp4	0.0	99.51578092575073	
12	31.4661648273468	movie	1		301.0	10.0	2.5	/experiments/knapen_aot/videos/R_S_yt-OEY9O2MglQM_7.mp4	0.0	99.52394890785217	2.508331060409546
12	33.97449588775635	fix_post	2		12.0	10.0	2.5	/experiments/knapen_aot/videos/R_S_yt-OEY9O2MglQM_7.mp4	0.0	102.03227996826172	0.10003399848937988
13	34.07452988624573	fix_pre	0		16.0	11.0	2.5	/experiments/knapen_aot/videos/R_S_production_ID_4707837.mp4	0.0	102.1323139667511	0.13330793380737305
13	34.19209885597229	response	0	2		11.0	2.5	/experiments/knapen_aot/videos/R_S_production_ID_4707837.mp4	0.0	102.24988293647766	
13	34.2078378200531	movie	1		168.0	11.0	2.5	/experiments/knapen_aot/videos/R_S_production_ID_4707837.mp4	0.0	102.26562190055847	2.508347988128662
13	36.71618580818176	fix_post	2		12.0	11.0	2.5	/experiments/knapen_aot/videos/R_S_production_ID_4707837.mp4	0.0	104.77396988868713	0.1000070571899414
14	36.816192865371704	fix_pre	0		5.0	12.0	2.5	/experiments/knapen_aot/videos/S_ILSVRC2015_train_00578000.mp4	0.0	104.87397694587708	0.04169011116027832
14	36.84966778755188	response	0	2		12.0	2.5	/experiments/knapen_aot/videos/S_ILSVRC2015_train_00578000.mp4	0.0	104.90745186805725	
14	36.85788297653198	movie	1		301.0	12.0	2.5	/experiments/knapen_aot/videos/S_ILSVRC2015_train_00578000.mp4	0.0	104.91566705703735	2.5083398818969727
14	39.366222858428955	fix_post	2		12.0	12.0	2.5	/experiments/knapen_aot/videos/S_ILSVRC2015_train_00578000.mp4	0.0	107.42400693893433	0.09981393814086914
14	39.416324853897095	response	2	2		12.0	2.5	/experiments/knapen_aot/videos/S_ILSVRC2015_train_00578000.mp4	0.0	107.47410893440247	
15	39.466036796569824	fix_pre	0		50.0	13.0	2.5	/experiments/knapen_aot/videos/S_yt-McqS-QObQbk_122.mp4	0.0	107.5238208770752	0.4167301654815674
15	39.86706781387329	response	0	2		13.0	2.5	/experiments/knapen_aot/videos/S_yt-McqS-QObQbk_122.mp4	0.0	107.92485189437866	
15	39.88276696205139	movie	1		301.0	13.0	2.5	/experiments/knapen_aot/videos/S_yt-McqS-QObQbk_122.mp4	0.0	107.94055104255676	2.5082688331604004
15	42.39103579521179	fix_post	2		12.0	13.0	2.5	/experiments/knapen_aot/videos/S_yt-McqS-QObQbk_122.mp4	0.0	110.44881987571716	0.10010004043579102
16	42.49113583564758	fix_pre	0		3.0	14.0	2.5	blank	1.0	110.54891991615295	0.025045156478881836
16	42.50795793533325	response	0	2		14.0	2.5	blank	1.0	110.56574201583862	
16	42.516180992126465	movie	1		301.0	14.0	2.5	blank	1.0	110.57396507263184	2.5082409381866455
16	45.02442193031311	fix_post	2		12.0	14.0	2.5	blank	1.0	113.08220601081848	0.09999799728393555
17	45.124419927597046	fix_pre	0		35.0	15.0	2.5	/experiments/knapen_aot/videos/R_S_b2-2.mp4	0.0	113.18220400810242	0.29167699813842773
17	45.407925844192505	response	0	2		15.0	2.5	/experiments/knapen_aot/videos/R_S_b2-2.mp4	0.0	113.46570992469788	
17	45.416096925735474	movie	1		169.0	15.0	2.5	/experiments/knapen_aot/videos/R_S_b2-2.mp4	0.0	113.47388100624084	2.5082340240478516
17	47.924330949783325	fix_post	2		12.0	15.0	2.5	/experiments/knapen_aot/videos/R_S_b2-2.mp4	0.0	115.9821150302887	0.10005903244018555
17	47.98379993438721	response	2	2		15.0	2.5	/experiments/knapen_aot/videos/R_S_b2-2.mp4	0.0	116.04158401489258	
18	48.02438998222351	fix_pre	0		44.0	16.0	2.5	/experiments/knapen_aot/videos/S_yt-JmmyeMOFpII_29.mp4	0.0	116.08217406272888	0.3667299747467041
18	48.37531089782715	response	0	2		16.0	2.5	/experiments/knapen_aot/videos/S_yt-JmmyeMOFpII_29.mp4	0.0	116.43309497833252	
18	48.391119956970215	movie	1		301.0	16.0	2.5	/experiments/knapen_aot/videos/S_yt-JmmyeMOFpII_29.mp4	0.0	116.44890403747559	2.508258819580078
18	50.89937877655029	fix_post	2		12.0	16.0	2.5	/experiments/knapen_aot/videos/S_yt-JmmyeMOFpII_29.mp4	0.0	118.95716285705566	0.10002899169921875
19	50.99940776824951	fix_pre	0		20.0	17.0	2.5	/experiments/knapen_aot/videos/S_ILSVRC2015_train_00165011.mp4	0.0	119.05719184875488	0.1666572093963623
19	51.15793299674988	response	0	2		17.0	2.5	/experiments/knapen_aot/videos/S_ILSVRC2015_train_00165011.mp4	0.0	119.21571707725525	
19	51.166064977645874	movie	1		301.0	17.0	2.5	/experiments/knapen_aot/videos/S_ILSVRC2015_train_00165011.mp4	0.0	119.22384905815125	2.5082318782806396
19	53.674296855926514	fix_post	2		12.0	17.0	2.5	/experiments/knapen_aot/videos/S_ILSVRC2015_train_00165011.mp4	0.0	121.73208093643188	0.10004901885986328
20	53.77434587478638	fix_pre	0		12.0	18.0	2.5	/experiments/knapen_aot/videos/R_S_yt-Wf-RauSbVgA_56.mp4	0.0	121.83212995529175	0.09996700286865234
20	53.86624789237976	response	0	2		18.0	2.5	/experiments/knapen_aot/videos/R_S_yt-Wf-RauSbVgA_56.mp4	0.0	121.92403197288513	
20	53.87431287765503	movie	1		301.0	18.0	2.5	/experiments/knapen_aot/videos/R_S_yt-Wf-RauSbVgA_56.mp4	0.0	121.9320969581604	2.5083858966827393
20	56.38269877433777	fix_post	2		12.0	18.0	2.5	/experiments/knapen_aot/videos/R_S_yt-Wf-RauSbVgA_56.mp4	0.0	124.44048285484314	0.10009503364562988
21	56.4827938079834	fix_pre	0		14.0	19.0	2.5	blank	1.0	124.54057788848877	0.11666297912597656
21	56.583690881729126	response	0	2		19.0	2.5	blank	1.0	124.6414749622345	
21	56.599456787109375	movie	1		301.0	19.0	2.5	blank	1.0	124.65724086761475	2.508308172225952
21	59.10776495933533	fix_post	2		12.0	19.0	2.5	blank	1.0	127.1655490398407	0.09998893737792969
22	59.20775389671326	fix_pre	0		40.0	20.0	2.5	/experiments/knapen_aot/videos/R_S_comp_HK_H004_C008_PSNK_v19_SDR_PS_20180914_SDR_2K_AVC.mp4	0.0	127.26553797721863	0.3333320617675781
22	59.53285479545593	response	0	2		20.0	2.5	/experiments/knapen_aot/videos/R_S_comp_HK_H004_C008_PSNK_v19_SDR_PS_20180914_SDR_2K_AVC.mp4	0.0	127.5906388759613	
22	59.541085958480835	movie	1		170.0	20.0	2.5	/experiments/knapen_aot/videos/R_S_comp_HK_H004_C008_PSNK_v19_SDR_PS_20180914_SDR_2K_AVC.mp4	0.0	127.5988700389862	2.508342981338501
22	62.049428939819336	fix_post	2		12.0	20.0	2.5	/experiments/knapen_aot/videos/R_S_comp_HK_H004_C008_PSNK_v19_SDR_PS_20180914_SDR_2K_AVC.mp4	0.0	130.1072130203247	0.09996604919433594
23	62.14939498901367	fix_pre	0		6.0	21.0	2.5	/experiments/knapen_aot/videos/S_yt-H45g6700wbc_159.mp4	0.0	130.20717906951904	0.050592899322509766
23	62.19134187698364	response	0	2		21.0	2.5	/experiments/knapen_aot/videos/S_yt-H45g6700wbc_159.mp4	0.0	130.249125957489	
23	62.19998788833618	movie	1		301.0	21.0	2.5	/experiments/knapen_aot/videos/S_yt-H45g6700wbc_159.mp4	0.0	130.25777196884155	2.507657051086426
23	64.70764493942261	fix_post	2		12.0	21.0	2.5	/experiments/knapen_aot/videos/S_yt-H45g6700wbc_159.mp4	0.0	132.76542901992798	0.09997987747192383
24	64.80762481689453	fix_pre	0		39.0	22.0	2.5	/experiments/knapen_aot/videos/R_S_b3TCugtX0h0_108.mp4	0.0	132.8654088973999	0.3250269889831543
24	65.1245219707489	response	0	2		22.0	2.5	/experiments/knapen_aot/videos/R_S_b3TCugtX0h0_108.mp4	0.0	133.18230605125427	
24	65.13265180587769	movie	1		301.0	22.0	2.5	/experiments/knapen_aot/videos/R_S_b3TCugtX0h0_108.mp4	0.0	133.19043588638306	2.5083060264587402
24	67.64095783233643	fix_post	2		12.0	22.0	2.5	/experiments/knapen_aot/videos/R_S_b3TCugtX0h0_108.mp4	0.0	135.6987419128418	0.09996199607849121
25	67.74091982841492	fix_pre	0		11.0	23.0	2.5	/experiments/knapen_aot/videos/R_S_yt-R9Iabv0XgOQ_80.mp4	0.0	135.7987039089203	0.09168410301208496
25	67.8244698047638	response	0	2		23.0	2.5	/experiments/knapen_aot/videos/R_S_yt-R9Iabv0XgOQ_80.mp4	0.0	135.88225388526917	
25	67.832603931427	movie	1		297.0	23.0	2.5	/experiments/knapen_aot/videos/R_S_yt-R9Iabv0XgOQ_80.mp4	0.0	135.89038801193237	2.5083389282226562
25	70.34094285964966	fix_post	2		12.0	23.0	2.5	/experiments/knapen_aot/videos/R_S_yt-R9Iabv0XgOQ_80.mp4	0.0	138.39872694015503	0.10007905960083008
26	70.44102191925049	fix_pre	0		19.0	24.0	2.5	/experiments/knapen_aot/videos/R_S_yt-h8wy6x6oytA_25.mp4	0.0	138.49880599975586	0.15826106071472168
26	70.59110188484192	response	0	2		24.0	2.5	/experiments/knapen_aot/videos/R_S_yt-h8wy6x6oytA_25.mp4	0.0	138.6488859653473	
26	70.59928297996521	movie	1		301.0	24.0	2.5	/experiments/knapen_aot/videos/R_S_yt-h8wy6x6oytA_25.mp4	0.0	138.65706706047058	2.5083940029144287
26	73.10767698287964	fix_post	2		12.0	24.0	2.5	/experiments/knapen_aot/videos/R_S_yt-h8wy6x6oytA_25.mp4	0.0	141.165461063385	0.10004401206970215
27	73.20772099494934	fix_pre	0		19.0	25.0	2.5	/experiments/knapen_aot/videos/S_pexels-koolshooters-7689098.mp4	0.0	141.2655050754547	0.15868091583251953
27	73.35787391662598	response	0	2		25.0	2.5	/experiments/knapen_aot/videos/S_pexels-koolshooters-7689098.mp4	0.0	141.41565799713135	
27	73.36640191078186	movie	1		167.0	25.0	2.5	/experiments/knapen_aot/videos/S_pexels-koolshooters-7689098.mp4	0.0	141.42418599128723	2.5078699588775635
27	75.87427186965942	fix_post	2		12.0	25.0	2.5	/experiments/knapen_aot/videos/S_pexels-koolshooters-7689098.mp4	0.0	143.9320559501648	0.10005712509155273
27	75.88361692428589	response	2	2		25.0	2.5	/experiments/knapen_aot/videos/S_pexels-koolshooters-7689098.mp4	0.0	143.94140100479126	
28	75.97432899475098	fix_pre	0		46.0	26.0	2.5	/experiments/knapen_aot/videos/S_ILSVRC2015_train_00369000.mp4	0.0	144.03211307525635	0.38326096534729004
28	76.3494279384613	response	0	2		26.0	2.5	/experiments/knapen_aot/videos/S_ILSVRC2015_train_00369000.mp4	0.0	144.40721201896667	
28	76.35758996009827	movie	1		301.0	26.0	2.5	/experiments/knapen_aot/videos/S_ILSVRC2015_train_00369000.mp4	0.0	144.41537404060364	2.5082619190216064
28	78.86585187911987	fix_post	2		12.0	26.0	2.5	/experiments/knapen_aot/videos/S_ILSVRC2015_train_00369000.mp4	0.0	146.92363595962524	0.10012102127075195
29	78.96597290039062	fix_pre	0		21.0	27.0	2.5	/experiments/knapen_aot/videos/R_S_yt-35i8UeYXjGw_47.mp4	0.0	147.023756980896	0.1749560832977295
29	79.13279581069946	response	0	2		27.0	2.5	/experiments/knapen_aot/videos/R_S_yt-35i8UeYXjGw_47.mp4	0.0	147.19057989120483	
29	79.14092898368835	movie	1		298.0	27.0	2.5	/experiments/knapen_aot/videos/R_S_yt-35i8UeYXjGw_47.mp4	0.0	147.19871306419373	2.50836181640625
29	81.6492908000946	fix_post	2		12.0	27.0	2.5	/experiments/knapen_aot/videos/R_S_yt-35i8UeYXjGw_47.mp4	0.0	149.70707488059998	0.09998106956481934
30	81.74927186965942	fix_pre	0		15.0	28.0	2.5	blank	1.0	149.8070559501648	0.12501001358032227
30	81.86605477333069	response	0	2		28.0	2.5	blank	1.0	149.92383885383606	
30	81.87428188323975	movie	1		301.0	28.0	2.5	blank	1.0	149.93206596374512	2.5083250999450684
30	84.38260698318481	fix_post	2		12.0	28.0	2.5	blank	1.0	152.44039106369019	0.09999585151672363
31	84.48260283470154	fix_pre	0		40.0	29.0	2.5	/experiments/knapen_aot/videos/S_yt-n6aLw10f2Yw_317.mp4	0.0	152.5403869152069	0.3332490921020508
31	84.8077118396759	response	0	2		29.0	2.5	/experiments/knapen_aot/videos/S_yt-n6aLw10f2Yw_317.mp4	0.0	152.86549592018127	
31	84.81585192680359	movie	1		300.0	29.0	2.5	/experiments/knapen_aot/videos/S_yt-n6aLw10f2Yw_317.mp4	0.0	152.87363600730896	2.508314847946167
31	87.32416677474976	fix_post	2		12.0	29.0	2.5	/experiments/knapen_aot/videos/S_yt-n6aLw10f2Yw_317.mp4	0.0	155.38195085525513	0.10009407997131348
32	87.42426085472107	fix_pre	0		20.0	30.0	2.5	/experiments/knapen_aot/videos/R_S_ILSVRC2015_train_00155004.mp4	0.0	155.48204493522644	0.16660714149475098
32	87.58275699615479	response	0	2		30.0	2.5	/experiments/knapen_aot/videos/R_S_ILSVRC2015_train_00155004.mp4	0.0	155.64054107666016	
32	87.59086799621582	movie	1		301.0	30.0	2.5	/experiments/knapen_aot/videos/R_S_ILSVRC2015_train_00155004.mp4	0.0	155.6486520767212	2.5084187984466553
32	90.09928679466248	fix_post	2		12.0	30.0	2.5	/experiments/knapen_aot/videos/R_S_ILSVRC2015_train_00155004.mp4	0.0	158.15707087516785	0.09996819496154785
33	90.19925498962402	fix_pre	0		5.0	31.0	2.5	/experiments/knapen_aot/videos/S_yt_R-JarqKC4X8nM_4.mp4	0.0	158.2570390701294	0.042668819427490234
33	90.23278284072876	response	0	2		31.0	2.5	/experiments/knapen_aot/videos/S_yt_R-JarqKC4X8nM_4.mp4	0.0	158.29056692123413	
33	90.24192380905151	movie	1		301.0	31.0	2.5	/experiments/knapen_aot/videos/S_yt_R-JarqKC4X8nM_4.mp4	0.0	158.29970788955688	2.507341146469116
33	92.74926495552063	fix_post	2		12.0	31.0	2.5	/experiments/knapen_aot/videos/S_yt_R-JarqKC4X8nM_4.mp4	0.0	160.807049036026	0.10021591186523438
34	92.84948086738586	fix_pre	0		14.0	32.0	2.5	/experiments/knapen_aot/videos/R_S_ILSVRC2015_train_00411001.mp4	0.0	160.90726494789124	0.11638092994689941
34	92.95768284797668	response	0	2		32.0	2.5	/experiments/knapen_aot/videos/R_S_ILSVRC2015_train_00411001.mp4	0.0	161.01546692848206	
34	92.96586179733276	movie	1		301.0	32.0	2.5	/experiments/knapen_aot/videos/R_S_ILSVRC2015_train_00411001.mp4	0.0	161.02364587783813	2.5082921981811523
34	95.47415399551392	fix_post	2		12.0	32.0	2.5	/experiments/knapen_aot/videos/R_S_ILSVRC2015_train_00411001.mp4	0.0	163.5319380760193	0.10004591941833496
35	95.57419991493225	fix_pre	0		57.0	33.0	2.5	/experiments/knapen_aot/videos/R_S_yt-SjPYdaUBi7A_37.mp4	0.0	163.63198399543762	0.4750080108642578
35	96.04096698760986	response	0	2		33.0	2.5	/experiments/knapen_aot/videos/R_S_yt-SjPYdaUBi7A_37.mp4	0.0	164.09875106811523	
35	96.04920792579651	movie	1		300.0	33.0	2.5	/experiments/knapen_aot/videos/R_S_yt-SjPYdaUBi7A_37.mp4	0.0	164.10699200630188	2.5082850456237793
35	98.55749297142029	fix_post	2		12.0	33.0	2.5	/experiments/knapen_aot/videos/R_S_yt-SjPYdaUBi7A_37.mp4	0.0	166.61527705192566	0.10039687156677246
36	98.65788984298706	fix_pre	0		15.0	34.0	2.5	/experiments/knapen_aot/videos/S_yt-FLMdajcbjcg_35.mp4	0.0	166.71567392349243	0.12495613098144531
36	98.77435088157654	response	0	2		34.0	2.5	/experiments/knapen_aot/videos/S_yt-FLMdajcbjcg_35.mp4	0.0	166.8321349620819	
36	98.7828459739685	movie	1		301.0	34.0	2.5	/experiments/knapen_aot/videos/S_yt-FLMdajcbjcg_35.mp4	0.0	166.84063005447388	2.5080249309539795
36	101.29087090492249	fix_post	2		12.0	34.0	2.5	/experiments/knapen_aot/videos/S_yt-FLMdajcbjcg_35.mp4	0.0	169.34865498542786	0.09997200965881348
37	101.3908429145813	fix_pre	0		9.0	35.0	2.5	blank	1.0	169.44862699508667	0.07505202293395996
37	101.45770597457886	response	0	2		35.0	2.5	blank	1.0	169.51549005508423	
37	101.46589493751526	movie	1		301.0	35.0	2.5	blank	1.0	169.52367901802063	2.5082180500030518
37	103.97411298751831	fix_post	2		12.0	35.0	2.5	blank	1.0	172.03189706802368	0.1003258228302002
38	104.07443881034851	fix_pre	0		26.0	36.0	2.5	/experiments/knapen_aot/videos/R_S_yt-2V2tq9-O_Nc_1669.mp4	0.0	172.13222289085388	0.2163989543914795
38	104.28262281417847	response	0	2		36.0	2.5	/experiments/knapen_aot/videos/R_S_yt-2V2tq9-O_Nc_1669.mp4	0.0	172.34040689468384	
38	104.29083776473999	movie	1		301.0	36.0	2.5	/experiments/knapen_aot/videos/R_S_yt-2V2tq9-O_Nc_1669.mp4	0.0	172.34862184524536	2.508336067199707
38	106.7991738319397	fix_post	2		12.0	36.0	2.5	/experiments/knapen_aot/videos/R_S_yt-2V2tq9-O_Nc_1669.mp4	0.0	174.85695791244507	0.09999203681945801
39	106.89916586875916	fix_pre	0		11.0	37.0	2.5	/experiments/knapen_aot/videos/R_S_ILSVRC2015_train_00165011.mp4	0.0	174.95694994926453	0.09186100959777832
39	106.9825439453125	response	0	2		37.0	2.5	/experiments/knapen_aot/videos/R_S_ILSVRC2015_train_00165011.mp4	0.0	175.04032802581787	
39	106.99102687835693	movie	1		301.0	37.0	2.5	/experiments/knapen_aot/videos/R_S_ILSVRC2015_train_00165011.mp4	0.0	175.0488109588623	2.5081820487976074
39	109.49920892715454	fix_post	2		12.0	37.0	2.5	/experiments/knapen_aot/videos/R_S_ILSVRC2015_train_00165011.mp4	0.0	177.5569930076599	0.09988903999328613
40	109.59909796714783	fix_pre	0		7.0	38.0	2.5	/experiments/knapen_aot/videos/S_yt-Mjm5smrurQI_125.mp4	0.0	177.6568820476532	0.05859088897705078
40	109.64935493469238	response	0	2		38.0	2.5	/experiments/knapen_aot/videos/S_yt-Mjm5smrurQI_125.mp4	0.0	177.70713901519775	
40	109.65768885612488	movie	1		301.0	38.0	2.5	/experiments/knapen_aot/videos/S_yt-Mjm5smrurQI_125.mp4	0.0	177.71547293663025	2.508151054382324
40	112.1658399105072	fix_post	2		12.0	38.0	2.5	/experiments/knapen_aot/videos/S_yt-Mjm5smrurQI_125.mp4	0.0	180.22362399101257	0.1001889705657959
41	112.266028881073	fix_pre	0		7.0	39.0	2.5	/experiments/knapen_aot/videos/S_ILSVRC2015_train_00185002.mp4	0.0	180.32381296157837	0.05869889259338379
41	112.3159728050232	response	0	2		39.0	2.5	/experiments/knapen_aot/videos/S_ILSVRC2015_train_00185002.mp4	0.0	180.37375688552856	
41	112.32472777366638	movie	1		301.0	39.0	2.5	/experiments/knapen_aot/videos/S_ILSVRC2015_train_00185002.mp4	0.0	180.38251185417175	2.507707118988037
41	114.83243489265442	fix_post	2		12.0	39.0	2.5	/experiments/knapen_aot/videos/S_ILSVRC2015_train_00185002.mp4	0.0	182.8902189731598	0.10007309913635254
42	114.93250799179077	fix_pre	0		13.0	40.0	2.5	/experiments/knapen_aot/videos/R_S_yt-OdTWn1U1mO4_68.mp4	0.0	182.99029207229614	0.10822892189025879
42	115.03261494636536	response	0	2		40.0	2.5	/experiments/knapen_aot/videos/R_S_yt-OdTWn1U1mO4_68.mp4	0.0	183.09039902687073	
42	115.04073691368103	movie	1		301.0	40.0	2.5	/experiments/knapen_aot/videos/R_S_yt-OdTWn1U1mO4_68.mp4	0.0	183.0985209941864	2.508424997329712
42	117.54916191101074	fix_post	2		12.0	40.0	2.5	/experiments/knapen_aot/videos/R_S_yt-OdTWn1U1mO4_68.mp4	0.0	185.6069459915161	0.09996390342712402
43	117.64912581443787	fix_pre	0		15.0	41.0	2.5	blank	1.0	185.70690989494324	0.12494397163391113
43	117.76594877243042	response	0	2		41.0	2.5	blank	1.0	185.8237328529358	
43	117.77406978607178	movie	1		301.0	41.0	2.5	blank	1.0	185.83185386657715	2.5085561275482178
43	120.28262591362	fix_post	2		12.0	41.0	2.5	blank	1.0	188.34040999412537	0.09982085227966309
44	120.38244676589966	fix_pre	0		25.0	42.0	2.5	/experiments/knapen_aot/videos/R_S_yt-Tn563IPZfg4_55.mp4	0.0	188.44023084640503	0.20827507972717285
44	120.58251094818115	response	0	2		42.0	2.5	/experiments/knapen_aot/videos/R_S_yt-Tn563IPZfg4_55.mp4	0.0	188.64029502868652	
44	120.59072184562683	movie	1		301.0	42.0	2.5	/experiments/knapen_aot/videos/R_S_yt-Tn563IPZfg4_55.mp4	0.0	188.6485059261322	2.50839900970459
44	123.09912085533142	fix_post	2		12.0	42.0	2.5	/experiments/knapen_aot/videos/R_S_yt-Tn563IPZfg4_55.mp4	0.0	191.1569049358368	0.10010790824890137
45	123.19922876358032	fix_pre	0		10.0	43.0	2.5	/experiments/knapen_aot/videos/S_yt-gzjV6YoK6X0_3.mp4	0.0	191.2570128440857	0.08351612091064453
45	123.27434396743774	response	0	2		43.0	2.5	/experiments/knapen_aot/videos/S_yt-gzjV6YoK6X0_3.mp4	0.0	191.33212804794312	
45	123.28274488449097	movie	1		301.0	43.0	2.5	/experiments/knapen_aot/videos/S_yt-gzjV6YoK6X0_3.mp4	0.0	191.34052896499634	2.5080530643463135
45	125.79079794883728	fix_post	2		12.0	43.0	2.5	/experiments/knapen_aot/videos/S_yt-gzjV6YoK6X0_3.mp4	0.0	193.84858202934265	0.10003805160522461
46	125.8908360004425	fix_pre	0		38.0	44.0	2.5	/experiments/knapen_aot/videos/S_comp_A013_C012_0122D6_CC_v01_SDR_PS_FINAL_20180709_SDR_2K_AVC.mp4	0.0	193.94862008094788	0.3165748119354248
46	126.19918394088745	response	0	2		44.0	2.5	/experiments/knapen_aot/videos/S_comp_A013_C012_0122D6_CC_v01_SDR_PS_FINAL_20180709_SDR_2K_AVC.mp4	0.0	194.25696802139282	
46	126.20741081237793	movie	1		170.0	44.0	2.5	/experiments/knapen_aot/videos/S_comp_A013_C012_0122D6_CC_v01_SDR_PS_FINAL_20180709_SDR_2K_AVC.mp4	0.0	194.2651948928833	2.508319139480591
46	128.71572995185852	fix_post	2		12.0	44.0	2.5	/experiments/knapen_aot/videos/S_comp_A013_C012_0122D6_CC_v01_SDR_PS_FINAL_20180709_SDR_2K_AVC.mp4	0.0	196.7735140323639	0.10001182556152344
47	128.81574177742004	fix_pre	0		3.0	45.0	2.5	/experiments/knapen_aot/videos/R_S_comp_LA_A005_C009_PSNK_ALT_v09_SDR_PS_201809134_SDR_2K_AVC.mp4	0.0	196.87352585792542	0.024995088577270508
47	128.83255290985107	response	0	2		45.0	2.5	/experiments/knapen_aot/videos/R_S_comp_LA_A005_C009_PSNK_ALT_v09_SDR_PS_201809134_SDR_2K_AVC.mp4	0.0	196.89033699035645	
47	128.84073686599731	movie	1		179.0	45.0	2.5	/experiments/knapen_aot/videos/R_S_comp_LA_A005_C009_PSNK_ALT_v09_SDR_PS_201809134_SDR_2K_AVC.mp4	0.0	196.89852094650269	2.5082690715789795
47	131.3490059375763	fix_post	2		12.0	45.0	2.5	/experiments/knapen_aot/videos/R_S_comp_LA_A005_C009_PSNK_ALT_v09_SDR_PS_201809134_SDR_2K_AVC.mp4	0.0	199.40679001808167	0.10015988349914551
47	131.36669182777405	response	2	2		45.0	2.5	/experiments/knapen_aot/videos/R_S_comp_LA_A005_C009_PSNK_ALT_v09_SDR_PS_201809134_SDR_2K_AVC.mp4	0.0	199.42447590827942	
48	131.44916582107544	fix_pre	0		56.0	46.0	2.5	/experiments/knapen_aot/videos/R_S_yt-H45g6700wbc_159.mp4	0.0	199.5069499015808	0.46646809577941895
48	131.90752696990967	response	0	2		46.0	2.5	/experiments/knapen_aot/videos/R_S_yt-H45g6700wbc_159.mp4	0.0	199.96531105041504	
48	131.91563391685486	movie	1		301.0	46.0	2.5	/experiments/knapen_aot/videos/R_S_yt-H45g6700wbc_159.mp4	0.0	199.97341799736023	2.508420944213867
48	134.42405486106873	fix_post	2		12.0	46.0	2.5	/experiments/knapen_aot/videos/R_S_yt-H45g6700wbc_159.mp4	0.0	202.4818389415741	0.10001301765441895
49	134.52406787872314	fix_pre	0		24.0	47.0	2.5	/experiments/knapen_aot/videos/R_S_ILSVRC2015_train_00369000.mp4	0.0	202.58185195922852	0.19999909400939941
49	134.71585988998413	response	0	2		47.0	2.5	/experiments/knapen_aot/videos/R_S_ILSVRC2015_train_00369000.mp4	0.0	202.7736439704895	
49	134.72406697273254	movie	1		301.0	47.0	2.5	/experiments/knapen_aot/videos/R_S_ILSVRC2015_train_00369000.mp4	0.0	202.78185105323792	2.5082719326019287
49	137.23233890533447	fix_post	2		12.0	47.0	2.5	/experiments/knapen_aot/videos/R_S_ILSVRC2015_train_00369000.mp4	0.0	205.29012298583984	0.10005402565002441
50	137.3323929309845	fix_pre	0		71.0	48.0	2.5	blank	1.0	205.39017701148987	0.5916328430175781
50	137.91582798957825	response	0	2		48.0	2.5	blank	1.0	205.97361207008362	
50	137.92402577400208	movie	1		301.0	48.0	2.5	blank	1.0	205.98180985450745	2.508390188217163
50	140.43241596221924	fix_post	2		12.0	48.0	2.5	blank	1.0	208.4902000427246	0.10001993179321289
51	140.53243589401245	fix_pre	0		25.0	49.0	2.5	/experiments/knapen_aot/videos/R_S_pexels-cottonbro-5310858.mp4	0.0	208.59021997451782	0.20827698707580566
51	140.7249448299408	response	0	2		49.0	2.5	/experiments/knapen_aot/videos/R_S_pexels-cottonbro-5310858.mp4	0.0	208.78272891044617	
51	140.74071288108826	movie	1		168.0	49.0	2.5	/experiments/knapen_aot/videos/R_S_pexels-cottonbro-5310858.mp4	0.0	208.79849696159363	2.5082991123199463
51	143.2490119934082	fix_post	2		12.0	49.0	2.5	/experiments/knapen_aot/videos/R_S_pexels-cottonbro-5310858.mp4	0.0	211.30679607391357	0.10001683235168457
51	143.34078288078308	response	2	2		49.0	2.5	/experiments/knapen_aot/videos/R_S_pexels-cottonbro-5310858.mp4	0.0	211.39856696128845	
52	143.3490288257599	fix_pre	0		71.0	50.0	2.5	/experiments/knapen_aot/videos/R_S_production_ID_4269182.mp4	0.0	211.40681290626526	0.5915980339050293
52	143.92489385604858	response	0	2		50.0	2.5	/experiments/knapen_aot/videos/R_S_production_ID_4269182.mp4	0.0	211.98267793655396	
52	143.94062685966492	movie	1		197.0	50.0	2.5	/experiments/knapen_aot/videos/R_S_production_ID_4269182.mp4	0.0	211.9984109401703	2.5083799362182617
52	146.44900679588318	fix_post	2		12.0	50.0	2.5	/experiments/knapen_aot/videos/R_S_production_ID_4269182.mp4	0.0	214.50679087638855	0.09996318817138672
53	146.54896998405457	fix_pre	0		50.0	51.0	2.5	/experiments/knapen_aot/videos/R_S_yt-Tt_LkR4iAt4_11.mp4	0.0	214.60675406455994	0.41664886474609375
53	146.9574329853058	response	0	2		51.0	2.5	/experiments/knapen_aot/videos/R_S_yt-Tt_LkR4iAt4_11.mp4	0.0	215.01521706581116	
53	146.96561884880066	movie	1		301.0	51.0	2.5	/experiments/knapen_aot/videos/R_S_yt-Tt_LkR4iAt4_11.mp4	0.0	215.02340292930603	2.5083529949188232
53	149.47397184371948	fix_post	2		12.0	51.0	2.5	/experiments/knapen_aot/videos/R_S_yt-Tt_LkR4iAt4_11.mp4	0.0	217.53175592422485	0.10002803802490234
54	149.57399988174438	fix_pre	0		15.0	52.0	2.5	/experiments/knapen_aot/videos/R_S_ILSVRC2015_train_00165011.mp4	0.0	217.63178396224976	0.12492799758911133
54	149.6907467842102	response	0	2		52.0	2.5	/experiments/knapen_aot/videos/R_S_ILSVRC2015_train_00165011.mp4	0.0	217.74853086471558	
54	149.6989278793335	movie	1		301.0	52.0	2.5	/experiments/knapen_aot/videos/R_S_ILSVRC2015_train_00165011.mp4	0.0	217.75671195983887	2.5083210468292236
54	152.20724892616272	fix_post	2		12.0	52.0	2.5	/experiments/knapen_aot/videos/R_S_ILSVRC2015_train_00165011.mp4	0.0	220.2650330066681	0.1000969409942627
55	152.30734586715698	fix_pre	0		9.0	53.0	2.5	/experiments/knapen_aot/videos/R_S_Pexels_Videos_278654_1.mp4	0.0	220.36512994766235	0.07515406608581543
55	152.37433791160583	response	0	2		53.0	2.5	/experiments/knapen_aot/videos/R_S_Pexels_Videos_278654_1.mp4	0.0	220.4321219921112	
55	152.3824999332428	movie	1		166.0	53.0	2.5	/experiments/knapen_aot/videos/R_S_Pexels_Videos_278654_1.mp4	0.0	220.44028401374817	2.508204936981201
55	154.890704870224	fix_post	2		12.0	53.0	2.5	/experiments/knapen_aot/videos/R_S_Pexels_Videos_278654_1.mp4	0.0	222.94848895072937	0.09998011589050293
56	154.9906849861145	fix_pre	0		26.0	54.0	2.5	blank	1.0	223.04846906661987	0.21666979789733887
56	155.19906091690063	response	0	2		54.0	2.5	blank	1.0	223.256844997406	
56	155.20735478401184	movie	1		301.0	54.0	2.5	blank	1.0	223.2651388645172	2.5082972049713135
56	157.71565198898315	fix_post	2		12.0	54.0	2.5	blank	1.0	225.77343606948853	0.10135483741760254
57	157.81700682640076	fix_pre	0		28.0	55.0	2.5	/experiments/knapen_aot/videos/R_S_yt-McqS-QObQbk_122.mp4	0.0	225.87479090690613	0.2319469451904297
57	158.04077982902527	response	0	2		55.0	2.5	/experiments/knapen_aot/videos/R_S_yt-McqS-QObQbk_122.mp4	0.0	226.09856390953064	
57	158.0489537715912	movie	1		301.0	55.0	2.5	/experiments/knapen_aot/videos/R_S_yt-McqS-QObQbk_122.mp4	0.0	226.10673785209656	2.5083529949188232
57	160.55730676651	fix_post	2		12.0	55.0	2.5	/experiments/knapen_aot/videos/R_S_yt-McqS-QObQbk_122.mp4	0.0	228.61509084701538	0.09996914863586426
58	160.65727591514587	fix_pre	0		30.0	56.0	2.5	/experiments/knapen_aot/videos/R_S_yt-fCjjH_4i8Fg_115.mp4	0.0	228.71505999565125	0.25017786026000977
58	160.89906477928162	response	0	2		56.0	2.5	/experiments/knapen_aot/videos/R_S_yt-fCjjH_4i8Fg_115.mp4	0.0	228.956848859787	
58	160.90745377540588	movie	1		301.0	56.0	2.5	/experiments/knapen_aot/videos/R_S_yt-fCjjH_4i8Fg_115.mp4	0.0	228.96523785591125	2.508129119873047
58	163.41558289527893	fix_post	2		12.0	56.0	2.5	/experiments/knapen_aot/videos/R_S_yt-fCjjH_4i8Fg_115.mp4	0.0	231.4733669757843	0.09992194175720215
59	163.51550483703613	fix_pre	0		26.0	57.0	2.5	/experiments/knapen_aot/videos/R_S_yt-kP7VNn9QIo4_53.mp4	0.0	231.5732889175415	0.2181410789489746
59	163.72406792640686	response	0	2		57.0	2.5	/experiments/knapen_aot/videos/R_S_yt-kP7VNn9QIo4_53.mp4	0.0	231.78185200691223	
59	163.7336459159851	movie	1		301.0	57.0	2.5	/experiments/knapen_aot/videos/R_S_yt-kP7VNn9QIo4_53.mp4	0.0	231.79142999649048	2.5069098472595215
59	166.24055576324463	fix_post	2		12.0	57.0	2.5	/experiments/knapen_aot/videos/R_S_yt-kP7VNn9QIo4_53.mp4	0.0	234.29833984375	0.0999460220336914
59	166.2910017967224	response	2	2		57.0	2.5	/experiments/knapen_aot/videos/R_S_yt-kP7VNn9QIo4_53.mp4	0.0	234.34878587722778	
60	166.34050178527832	fix_pre	0		52.0	58.0	2.5	/experiments/knapen_aot/videos/S_yt-PCSXJ5YB_AE_3.mp4	0.0	234.3982858657837	0.43337202072143555
60	166.76565384864807	response	0	2		58.0	2.5	/experiments/knapen_aot/videos/S_yt-PCSXJ5YB_AE_3.mp4	0.0	234.82343792915344	
60	166.77387380599976	movie	1		301.0	58.0	2.5	/experiments/knapen_aot/videos/S_yt-PCSXJ5YB_AE_3.mp4	0.0	234.83165788650513	2.5083651542663574
60	169.2822389602661	fix_post	2		12.0	58.0	2.5	/experiments/knapen_aot/videos/S_yt-PCSXJ5YB_AE_3.mp4	0.0	237.34002304077148	0.09990096092224121
61	169.38213992118835	fix_pre	0		24.0	59.0	2.5	/experiments/knapen_aot/videos/R_S_yt-0n0uppNuUus_15.mp4	0.0	237.43992400169373	0.2000589370727539
61	169.5740168094635	response	0	2		59.0	2.5	/experiments/knapen_aot/videos/R_S_yt-0n0uppNuUus_15.mp4	0.0	237.63180088996887	
61	169.5821988582611	movie	1		301.0	59.0	2.5	/experiments/knapen_aot/videos/R_S_yt-0n0uppNuUus_15.mp4	0.0	237.63998293876648	2.508347988128662
61	172.09054684638977	fix_post	2		12.0	59.0	2.5	/experiments/knapen_aot/videos/R_S_yt-0n0uppNuUus_15.mp4	0.0	240.14833092689514	0.09998607635498047
62	172.19053292274475	fix_pre	0		4.0	60.0	2.5	/experiments/knapen_aot/videos/S_nPwtvvPgdNc_39.mp4	0.0	240.24831700325012	0.033310890197753906
62	172.21569085121155	response	0	2		60.0	2.5	/experiments/knapen_aot/videos/S_nPwtvvPgdNc_39.mp4	0.0	240.27347493171692	
62	172.2238438129425	movie	1		301.0	60.0	2.5	/experiments/knapen_aot/videos/S_nPwtvvPgdNc_39.mp4	0.0	240.28162789344788	2.508352041244507
62	174.732195854187	fix_post	2		12.0	60.0	2.5	/experiments/knapen_aot/videos/S_nPwtvvPgdNc_39.mp4	0.0	242.78997993469238	0.10006308555603027
63	174.83225893974304	fix_pre	0		19.0	61.0	2.5	/experiments/knapen_aot/videos/S_yt-PyO8-WsbaLU_43.mp4	0.0	242.8900430202484	0.15822601318359375
63	174.98242092132568	response	0	2		61.0	2.5	/experiments/knapen_aot/videos/S_yt-PyO8-WsbaLU_43.mp4	0.0	243.04020500183105	
63	174.99048495292664	movie	1		301.0	61.0	2.5	/experiments/knapen_aot/videos/S_yt-PyO8-WsbaLU_43.mp4	0.0	243.048269033432	2.5083730220794678
63	177.4988579750061	fix_post	2		12.0	61.0	2.5	/experiments/knapen_aot/videos/S_yt-PyO8-WsbaLU_43.mp4	0.0	245.55664205551147	0.10006189346313477
64	177.59891986846924	fix_pre	0		59.0	62.0	2.5	blank	1.0	245.6567039489746	0.4916701316833496
64	178.08235096931458	response	0	2		62.0	2.5	blank	1.0	246.14013504981995	
64	178.0905900001526	movie	1		301.0	62.0	2.5	blank	1.0	246.14837408065796	2.5083048343658447
64	180.59889483451843	fix_post	2		12.0	62.0	2.5	blank	1.0	248.6566789150238	0.10003495216369629
65	180.69892978668213	fix_pre	0		22.0	63.0	2.5	/experiments/knapen_aot/videos/S_yt-fCjjH_4i8Fg_115.mp4	0.0	248.7567138671875	0.18330597877502441
65	180.87400484085083	response	0	2		63.0	2.5	/experiments/knapen_aot/videos/S_yt-fCjjH_4i8Fg_115.mp4	0.0	248.9317889213562	
65	180.88223576545715	movie	1		301.0	63.0	2.5	/experiments/knapen_aot/videos/S_yt-fCjjH_4i8Fg_115.mp4	0.0	248.94001984596252	2.5083160400390625
65	183.39055180549622	fix_post	2		12.0	63.0	2.5	/experiments/knapen_aot/videos/S_yt-fCjjH_4i8Fg_115.mp4	0.0	251.4483358860016	0.10001707077026367
66	183.49056887626648	fix_pre	0		25.0	64.0	2.5	/experiments/knapen_aot/videos/R_S_video_inspire_california_vineyard_sierra-mar_sunrise_110.1080-h264.mp4	0.0	251.54835295677185	0.20831298828125
66	183.69073581695557	response	0	2		64.0	2.5	/experiments/knapen_aot/videos/R_S_video_inspire_california_vineyard_sierra-mar_sunrise_110.1080-h264.mp4	0.0	251.74851989746094	
66	183.69888186454773	movie	1		172.0	64.0	2.5	/experiments/knapen_aot/videos/R_S_video_inspire_california_vineyard_sierra-mar_sunrise_110.1080-h264.mp4	0.0	251.7566659450531	2.508342981338501
66	186.20722484588623	fix_post	2		12.0	64.0	2.5	/experiments/knapen_aot/videos/R_S_video_inspire_california_vineyard_sierra-mar_sunrise_110.1080-h264.mp4	0.0	254.2650089263916	0.09998607635498047
67	186.3072109222412	fix_pre	0		4.0	65.0	2.5	/experiments/knapen_aot/videos/S_pexels-rodnae-productions-5993671.mp4	0.0	254.36499500274658	0.03339791297912598
67	186.3325538635254	response	0	2		65.0	2.5	/experiments/knapen_aot/videos/S_pexels-rodnae-productions-5993671.mp4	0.0	254.39033794403076	
67	186.34060883522034	movie	1		168.0	65.0	2.5	/experiments/knapen_aot/videos/S_pexels-rodnae-productions-5993671.mp4	0.0	254.3983929157257	2.5082509517669678
67	188.8488597869873	fix_post	2		12.0	65.0	2.5	/experiments/knapen_aot/videos/S_pexels-rodnae-productions-5993671.mp4	0.0	256.9066438674927	0.09997916221618652
67	188.93233180046082	response	2	2		65.0	2.5	/experiments/knapen_aot/videos/S_pexels-rodnae-productions-5993671.mp4	0.0	256.9901158809662	
68	188.9488389492035	fix_pre	0		46.0	66.0	2.5	/experiments/knapen_aot/videos/R_S_wc-lItGMdwvEd_l_7.mp4	0.0	257.00662302970886	0.3833160400390625
68	189.32394695281982	response	0	2		66.0	2.5	/experiments/knapen_aot/videos/R_S_wc-lItGMdwvEd_l_7.mp4	0.0	257.3817310333252	
68	189.33215498924255	movie	1		165.0	66.0	2.5	/experiments/knapen_aot/videos/R_S_wc-lItGMdwvEd_l_7.mp4	0.0	257.3899390697479	2.5082738399505615
68	191.84042882919312	fix_post	2		12.0	66.0	2.5	/experiments/knapen_aot/videos/R_S_wc-lItGMdwvEd_l_7.mp4	0.0	259.8982129096985	0.10004305839538574
69	191.9404718875885	fix_pre	0		4.0	67.0	2.5	/experiments/knapen_aot/videos/S_yt-WTxvvlP8xnw_113.mp4	0.0	259.9982559680939	0.033308982849121094
69	191.96561288833618	response	0	2		67.0	2.5	/experiments/knapen_aot/videos/S_yt-WTxvvlP8xnw_113.mp4	0.0	260.02339696884155	
69	191.97378087043762	movie	1		301.0	67.0	2.5	/experiments/knapen_aot/videos/S_yt-WTxvvlP8xnw_113.mp4	0.0	260.031564950943	2.508286952972412
69	194.48206782341003	fix_post	2		12.0	67.0	2.5	/experiments/knapen_aot/videos/S_yt-WTxvvlP8xnw_113.mp4	0.0	262.5398519039154	0.10005497932434082
70	194.58212280273438	fix_pre	0		6.0	68.0	2.5	blank	1.0	262.63990688323975	0.04998016357421875
70	194.6239778995514	response	0	2		68.0	2.5	blank	1.0	262.68176198005676	
70	194.6321029663086	movie	1		301.0	68.0	2.5	blank	1.0	262.68988704681396	2.508319854736328
70	197.14042282104492	fix_post	2		12.0	68.0	2.5	blank	1.0	265.1982069015503	0.10004210472106934
71	197.240464925766	fix_pre	0		17.0	69.0	2.5	/experiments/knapen_aot/videos/S_yt-TbdZrcl_Jso_5.mp4	0.0	265.29824900627136	0.1416008472442627
71	197.37388491630554	response	0	2		69.0	2.5	/experiments/knapen_aot/videos/S_yt-TbdZrcl_Jso_5.mp4	0.0	265.4316689968109	
71	197.38206577301025	movie	1		301.0	69.0	2.5	/experiments/knapen_aot/videos/S_yt-TbdZrcl_Jso_5.mp4	0.0	265.4398498535156	2.508411169052124
71	199.89047694206238	fix_post	2		12.0	69.0	2.5	/experiments/knapen_aot/videos/S_yt-TbdZrcl_Jso_5.mp4	0.0	267.94826102256775	0.09998893737792969
72	199.9904658794403	fix_pre	0		5.0	70.0	2.5	/experiments/knapen_aot/videos/R_S_production_ID_4122384.mp4	0.0	268.0482499599457	0.041697025299072266
72	200.02402186393738	response	0	2		70.0	2.5	/experiments/knapen_aot/videos/R_S_production_ID_4122384.mp4	0.0	268.08180594444275	
72	200.03216290473938	movie	1		170.0	70.0	2.5	/experiments/knapen_aot/videos/R_S_production_ID_4122384.mp4	0.0	268.08994698524475	2.5083060264587402
72	202.54046893119812	fix_post	2		12.0	70.0	2.5	/experiments/knapen_aot/videos/R_S_production_ID_4122384.mp4	0.0	270.5982530117035	0.09999895095825195
73	202.64046788215637	fix_pre	0		11.0	71.0	2.5	/experiments/knapen_aot/videos/S_yt-LdHRVIb4nIE_6.mp4	0.0	270.69825196266174	0.09276795387268066
73	202.72412276268005	response	0	2		71.0	2.5	/experiments/knapen_aot/videos/S_yt-LdHRVIb4nIE_6.mp4	0.0	270.7819068431854	
73	202.73323583602905	movie	1		301.0	71.0	2.5	/experiments/knapen_aot/videos/S_yt-LdHRVIb4nIE_6.mp4	0.0	270.7910199165344	2.5072591304779053
73	205.24049496650696	fix_post	2		12.0	71.0	2.5	/experiments/knapen_aot/videos/S_yt-LdHRVIb4nIE_6.mp4	0.0	273.29827904701233	0.09995388984680176
74	205.34044885635376	fix_pre	0		35.0	72.0	2.5	/experiments/knapen_aot/videos/S_yt-0xzYSBvVfYM_197.mp4	0.0	273.39823293685913	0.29166102409362793
74	205.61636996269226	response	0	2		72.0	2.5	/experiments/knapen_aot/videos/S_yt-0xzYSBvVfYM_197.mp4	0.0	273.67415404319763	
74	205.6321098804474	movie	1		301.0	72.0	2.5	/experiments/knapen_aot/videos/S_yt-0xzYSBvVfYM_197.mp4	0.0	273.68989396095276	2.5083470344543457
74	208.14045691490173	fix_post	2		12.0	72.0	2.5	/experiments/knapen_aot/videos/S_yt-0xzYSBvVfYM_197.mp4	0.0	276.1982409954071	0.09999990463256836
75	208.2404568195343	fix_pre	0		65.0	73.0	2.5	/experiments/knapen_aot/videos/S_yt-kP7VNn9QIo4_53.mp4	0.0	276.2982409000397	0.5416340827941895
75	208.7663938999176	response	0	2		73.0	2.5	/experiments/knapen_aot/videos/S_yt-kP7VNn9QIo4_53.mp4	0.0	276.824177980423	
75	208.7820909023285	movie	1		301.0	73.0	2.5	/experiments/knapen_aot/videos/S_yt-kP7VNn9QIo4_53.mp4	0.0	276.83987498283386	2.5083370208740234
75	211.29042792320251	fix_post	2		12.0	73.0	2.5	/experiments/knapen_aot/videos/S_yt-kP7VNn9QIo4_53.mp4	0.0	279.3482120037079	0.10002398490905762
76	211.39045190811157	fix_pre	0		23.0	74.0	2.5	/experiments/knapen_aot/videos/R_S_yt-4BAsE47kJNk_88.mp4	0.0	279.44823598861694	0.19163107872009277
76	211.5739529132843	response	0	2		74.0	2.5	/experiments/knapen_aot/videos/R_S_yt-4BAsE47kJNk_88.mp4	0.0	279.6317369937897	
76	211.58208298683167	movie	1		301.0	74.0	2.5	/experiments/knapen_aot/videos/R_S_yt-4BAsE47kJNk_88.mp4	0.0	279.63986706733704	2.5083019733428955
76	214.09038496017456	fix_post	2		12.0	74.0	2.5	/experiments/knapen_aot/videos/R_S_yt-4BAsE47kJNk_88.mp4	0.0	282.14816904067993	0.10000991821289062
77	214.19039487838745	fix_pre	0		5.0	75.0	2.5	/experiments/knapen_aot/videos/R_S_video_inspire_california_vineyard_sierra-mar_sunrise_110.1080-h264.mp4	0.0	282.2481789588928	0.042849063873291016
77	214.2242889404297	response	0	2		75.0	2.5	/experiments/knapen_aot/videos/R_S_video_inspire_california_vineyard_sierra-mar_sunrise_110.1080-h264.mp4	0.0	282.28207302093506	
77	214.23324394226074	movie	1		175.0	75.0	2.5	/experiments/knapen_aot/videos/R_S_video_inspire_california_vineyard_sierra-mar_sunrise_110.1080-h264.mp4	0.0	282.2910280227661	2.507158041000366
77	216.7404019832611	fix_post	2		12.0	75.0	2.5	/experiments/knapen_aot/videos/R_S_video_inspire_california_vineyard_sierra-mar_sunrise_110.1080-h264.mp4	0.0	284.7981860637665	0.09997200965881348
78	216.84037399291992	fix_pre	0		13.0	76.0	2.5	/experiments/knapen_aot/videos/R_S_yt-dO0OuozAgt0_225.mp4	0.0	284.8981580734253	0.10831594467163086
78	216.94053483009338	response	0	2		76.0	2.5	/experiments/knapen_aot/videos/R_S_yt-dO0OuozAgt0_225.mp4	0.0	284.99831891059875	
78	216.94868993759155	movie	1		301.0	76.0	2.5	/experiments/knapen_aot/videos/R_S_yt-dO0OuozAgt0_225.mp4	0.0	285.0064740180969	2.508362054824829
78	219.45705199241638	fix_post	2		12.0	76.0	2.5	/experiments/knapen_aot/videos/R_S_yt-dO0OuozAgt0_225.mp4	0.0	287.51483607292175	0.09999680519104004
79	219.55704879760742	fix_pre	0		23.0	77.0	2.5	blank	1.0	287.6148328781128	0.1916670799255371
79	219.7406759262085	response	0	2		77.0	2.5	blank	1.0	287.79846000671387	
79	219.74871587753296	movie	1		301.0	77.0	2.5	blank	1.0	287.80649995803833	2.508366107940674
79	222.25708198547363	fix_post	2		12.0	77.0	2.5	blank	1.0	290.314866065979	0.10096979141235352
80	222.358051776886	fix_pre	0		41.0	78.0	2.5	/experiments/knapen_aot/videos/S_yt-BIDHmbneB10_998.mp4	0.0	290.41583585739136	0.3406710624694824
80	222.6904947757721	response	0	2		78.0	2.5	/experiments/knapen_aot/videos/S_yt-BIDHmbneB10_998.mp4	0.0	290.74827885627747	
80	222.69872283935547	movie	1		301.0	78.0	2.5	/experiments/knapen_aot/videos/S_yt-BIDHmbneB10_998.mp4	0.0	290.75650691986084	2.508324146270752
80	225.14041781425476	response	1	2		78.0	2.5	/experiments/knapen_aot/videos/S_yt-BIDHmbneB10_998.mp4	0.0	293.19820189476013	
80	225.20704698562622	fix_post	2		12.0	78.0	2.5	/experiments/knapen_aot/videos/S_yt-BIDHmbneB10_998.mp4	0.0	293.2648310661316	0.09997797012329102
81	225.3070249557495	fix_pre	0		39.0	79.0	2.5	/experiments/knapen_aot/videos/R_S_pexels-koolshooters-7689098.mp4	0.0	293.3648090362549	0.32500791549682617
81	225.623774766922	response	0	2		79.0	2.5	/experiments/knapen_aot/videos/R_S_pexels-koolshooters-7689098.mp4	0.0	293.68155884742737	
81	225.63203287124634	movie	1		167.0	79.0	2.5	/experiments/knapen_aot/videos/R_S_pexels-koolshooters-7689098.mp4	0.0	293.6898169517517	2.50823712348938
81	228.14026999473572	fix_post	2		12.0	79.0	2.5	/experiments/knapen_aot/videos/R_S_pexels-koolshooters-7689098.mp4	0.0	296.1980540752411	0.09998893737792969
82	228.24025893211365	fix_pre	0		13.0	80.0	2.5	/experiments/knapen_aot/videos/S_yt-XUnZ7FbBtvk_162.mp4	0.0	296.298043012619	0.1082918643951416
82	228.33283376693726	response	0	2		80.0	2.5	/experiments/knapen_aot/videos/S_yt-XUnZ7FbBtvk_162.mp4	0.0	296.3906178474426	
82	228.3485507965088	movie	1		301.0	80.0	2.5	/experiments/knapen_aot/videos/S_yt-XUnZ7FbBtvk_162.mp4	0.0	296.40633487701416	2.508371114730835
82	230.85692191123962	fix_post	2		12.0	80.0	2.5	/experiments/knapen_aot/videos/S_yt-XUnZ7FbBtvk_162.mp4	0.0	298.914705991745	0.10000491142272949
83	230.95692682266235	fix_pre	0		51.0	81.0	2.5	/experiments/knapen_aot/videos/S_yt-PYHK810V_n8_1375.mp4	0.0	299.0147109031677	0.42502307891845703
83	231.37368488311768	response	0	2		81.0	2.5	/experiments/knapen_aot/videos/S_yt-PYHK810V_n8_1375.mp4	0.0	299.43146896362305	
83	231.3819499015808	movie	1		301.0	81.0	2.5	/experiments/knapen_aot/videos/S_yt-PYHK810V_n8_1375.mp4	0.0	299.4397339820862	2.508291006088257
83	233.89024090766907	fix_post	2		12.0	81.0	2.5	/experiments/knapen_aot/videos/S_yt-PYHK810V_n8_1375.mp4	0.0	301.94802498817444	0.09998202323913574
84	233.9902229309082	fix_pre	0		36.0	82.0	2.5	/experiments/knapen_aot/videos/R_S_P007_C027_UHD_SDR_2K_AVC.mp4	0.0	302.0480070114136	0.3000659942626953
84	234.28204083442688	response	0	2		82.0	2.5	/experiments/knapen_aot/videos/R_S_P007_C027_UHD_SDR_2K_AVC.mp4	0.0	302.33982491493225	
84	234.2902889251709	movie	1		173.0	82.0	2.5	/experiments/knapen_aot/videos/R_S_P007_C027_UHD_SDR_2K_AVC.mp4	0.0	302.34807300567627	2.50827693939209
84	236.798565864563	fix_post	2		12.0	82.0	2.5	/experiments/knapen_aot/videos/R_S_P007_C027_UHD_SDR_2K_AVC.mp4	0.0	304.85634994506836	0.10017108917236328
84	236.80723476409912	response	2	2		82.0	2.5	/experiments/knapen_aot/videos/R_S_P007_C027_UHD_SDR_2K_AVC.mp4	0.0	304.8650188446045	
85	236.89873695373535	fix_pre	0		47.0	83.0	2.5	blank	1.0	304.9565210342407	0.39150381088256836
85	237.28224086761475	response	0	2		83.0	2.5	blank	1.0	305.3400249481201	
85	237.29024076461792	movie	1		301.0	83.0	2.5	blank	1.0	305.3480248451233	2.5083181858062744
85	239.7985589504242	fix_post	2		12.0	83.0	2.5	blank	1.0	307.85634303092957	0.10002803802490234
87	239.8985869884491	stim	0		412.0					307.95637106895447	3.4332377910614014
87	240.08202695846558	response	0	2						308.13981103897095	
87	243.3279058933258	response	0	space						311.3856899738312	
