trial_nr	onset	event_type	phase	response	nr_frames	movie_index	movie_duration	movie_file	blank	onset_abs	duration
0	0.1387178897857666	stim	0		60.0					57.68604779243469	0.5004451274871826
0	0.6306049823760986	response	0	space						58.177934885025024	
1	0.6391630172729492	stim	0		121.0					58.186492919921875	1.0076868534088135
1	1.030552864074707	response	0	space						58.57788276672363	
1	1.4051380157470703	response	0	space						58.952467918395996	
1	1.6468498706817627	stim	1		120.0					59.19417977333069	0.9999611377716064
1	1.7645409107208252	response	1	space						59.31187081336975	
1	2.2718288898468018	response	1	space						59.81915879249573	
2	2.646811008453369	fix_pre	0		9.0	0.0	2.5	/experiments/knapen_aot/oldvideos/R_S_yt-aQfM-NhNSsA_136.mp4	0.0	60.194140911102295	0.07502889633178711
2	2.7135629653930664	response	0	space		0.0	2.5	/experiments/knapen_aot/oldvideos/R_S_yt-aQfM-NhNSsA_136.mp4	0.0	60.26089286804199	
2	2.7218399047851562	movie	1		301.0	0.0	2.5	/experiments/knapen_aot/oldvideos/R_S_yt-aQfM-NhNSsA_136.mp4	0.0	60.26916980743408	2.5082931518554688
2	5.230133056640625	fix_post	2		12.0	0.0	2.5	/experiments/knapen_aot/oldvideos/R_S_yt-aQfM-NhNSsA_136.mp4	0.0	62.77746295928955	0.10004281997680664
3	5.330175876617432	fix_pre	0		11.0	1.0	2.5	/experiments/knapen_aot/oldvideos/R_S_ILSVRC2015_train_00568002.mp4	0.0	62.87750577926636	0.0930471420288086
3	5.41103196144104	response	0	2		1.0	2.5	/experiments/knapen_aot/oldvideos/R_S_ILSVRC2015_train_00568002.mp4	0.0	62.958361864089966	
3	5.42322301864624	movie	1		298.0	1.0	2.5	/experiments/knapen_aot/oldvideos/R_S_ILSVRC2015_train_00568002.mp4	0.0	62.970552921295166	2.50704288482666
3	7.9302659034729	fix_post	2		12.0	1.0	2.5	/experiments/knapen_aot/oldvideos/R_S_ILSVRC2015_train_00568002.mp4	0.0	65.47759580612183	0.09987998008728027
4	8.03014588356018	fix_pre	0		9.0	2.0	2.5	/experiments/knapen_aot/oldvideos/R_S_yt-n_eO-7KedAE_21.mp4	0.0	65.5774757862091	0.07496118545532227
4	8.097063064575195	response	0	2		2.0	2.5	/experiments/knapen_aot/oldvideos/R_S_yt-n_eO-7KedAE_21.mp4	0.0	65.64439296722412	
4	8.105107069015503	movie	1		301.0	2.0	2.5	/experiments/knapen_aot/oldvideos/R_S_yt-n_eO-7KedAE_21.mp4	0.0	65.65243697166443	2.508356809616089
4	10.613463878631592	fix_post	2		12.0	2.0	2.5	/experiments/knapen_aot/oldvideos/R_S_yt-n_eO-7KedAE_21.mp4	0.0	68.16079378128052	0.0999441146850586
5	10.71340799331665	fix_pre	0		9.0	3.0	2.5	/experiments/knapen_aot/oldvideos/R_S_yt-Pc1ZlCvsPpc_5.mp4	0.0	68.26073789596558	0.07497692108154297
5	10.780221939086914	response	0	2		3.0	2.5	/experiments/knapen_aot/oldvideos/R_S_yt-Pc1ZlCvsPpc_5.mp4	0.0	68.32755184173584	
5	10.788384914398193	movie	1		301.0	3.0	2.5	/experiments/knapen_aot/oldvideos/R_S_yt-Pc1ZlCvsPpc_5.mp4	0.0	68.33571481704712	2.508368968963623
5	13.296753883361816	fix_post	2		12.0	3.0	2.5	/experiments/knapen_aot/oldvideos/R_S_yt-Pc1ZlCvsPpc_5.mp4	0.0	70.84408378601074	0.10003519058227539
6	13.396789073944092	fix_pre	0		7.0	4.0	2.5	/experiments/knapen_aot/oldvideos/R_S_yt-s2PWkCdT-TM_258.mp4	0.0	70.94411897659302	0.05828690528869629
6	13.446939945220947	response	0	2		4.0	2.5	/experiments/knapen_aot/oldvideos/R_S_yt-s2PWkCdT-TM_258.mp4	0.0	70.99426984786987	
6	13.455075979232788	movie	1		301.0	4.0	2.5	/experiments/knapen_aot/oldvideos/R_S_yt-s2PWkCdT-TM_258.mp4	0.0	71.00240588188171	2.508352041244507
6	15.963428020477295	fix_post	2		12.0	4.0	2.5	/experiments/knapen_aot/oldvideos/R_S_yt-s2PWkCdT-TM_258.mp4	0.0	73.51075792312622	0.10001397132873535
7	16.06344199180603	fix_pre	0		13.0	5.0	2.5	/experiments/knapen_aot/oldvideos/S_yt-ayx4rU9bJrU_179.mp4	0.0	73.61077189445496	0.10835504531860352
7	16.16353702545166	response	0	2		5.0	2.5	/experiments/knapen_aot/oldvideos/S_yt-ayx4rU9bJrU_179.mp4	0.0	73.71086692810059	
7	16.171797037124634	movie	1		301.0	5.0	2.5	/experiments/knapen_aot/oldvideos/S_yt-ayx4rU9bJrU_179.mp4	0.0	73.71912693977356	2.508457899093628
7	18.68025493621826	fix_post	2		12.0	5.0	2.5	/experiments/knapen_aot/oldvideos/S_yt-ayx4rU9bJrU_179.mp4	0.0	76.22758483886719	0.09982514381408691
7	18.76353096961975	response	2	2		5.0	2.5	/experiments/knapen_aot/oldvideos/S_yt-ayx4rU9bJrU_179.mp4	0.0	76.31086087226868	
8	18.78008008003235	fix_pre	0		31.0	6.0	2.5	/experiments/knapen_aot/oldvideos/S_yt-uX7qYKQm_pg_277.mp4	0.0	76.32740998268127	0.25829601287841797
8	19.030143976211548	response	0	2		6.0	2.5	/experiments/knapen_aot/oldvideos/S_yt-uX7qYKQm_pg_277.mp4	0.0	76.57747387886047	
8	19.038376092910767	movie	1		301.0	6.0	2.5	/experiments/knapen_aot/oldvideos/S_yt-uX7qYKQm_pg_277.mp4	0.0	76.58570599555969	2.50832200050354
8	21.546698093414307	fix_post	2		12.0	6.0	2.5	/experiments/knapen_aot/oldvideos/S_yt-uX7qYKQm_pg_277.mp4	0.0	79.09402799606323	0.10008478164672852
9	21.646782875061035	fix_pre	0		14.0	7.0	2.5	blank	1.0	79.19411277770996	0.11666011810302734
9	21.75519609451294	response	0	2		7.0	2.5	blank	1.0	79.30252599716187	
9	21.763442993164062	movie	1		301.0	7.0	2.5	blank	1.0	79.31077289581299	2.5083460807800293
9	24.271789073944092	fix_post	2		12.0	7.0	2.5	blank	1.0	81.81911897659302	0.0999748706817627
10	24.371763944625854	fix_pre	0		28.0	8.0	2.5	/experiments/knapen_aot/oldvideos/S_yt-GBt59U0KUR0_6.mp4	0.0	81.91909384727478	0.2332470417022705
10	24.596843957901	response	0	2		8.0	2.5	/experiments/knapen_aot/oldvideos/S_yt-GBt59U0KUR0_6.mp4	0.0	82.14417386054993	
10	24.605010986328125	movie	1		301.0	8.0	2.5	/experiments/knapen_aot/oldvideos/S_yt-GBt59U0KUR0_6.mp4	0.0	82.15234088897705	2.508409023284912
10	27.113420009613037	fix_post	2		12.0	8.0	2.5	/experiments/knapen_aot/oldvideos/S_yt-GBt59U0KUR0_6.mp4	0.0	84.66074991226196	0.09995603561401367
11	27.21337604522705	fix_pre	0		18.0	9.0	2.5	/experiments/knapen_aot/oldvideos/R_S_ILSVRC2015_train_00479003.mp4	0.0	84.76070594787598	0.14996790885925293
11	27.355112075805664	response	0	2		9.0	2.5	/experiments/knapen_aot/oldvideos/R_S_ILSVRC2015_train_00479003.mp4	0.0	84.90244197845459	
11	27.363343954086304	movie	1		301.0	9.0	2.5	/experiments/knapen_aot/oldvideos/R_S_ILSVRC2015_train_00479003.mp4	0.0	84.91067385673523	2.508366107940674
11	29.871710062026978	fix_post	2		12.0	9.0	2.5	/experiments/knapen_aot/oldvideos/R_S_ILSVRC2015_train_00479003.mp4	0.0	87.4190399646759	0.10004401206970215
11	29.913695096969604	response	2	2		9.0	2.5	/experiments/knapen_aot/oldvideos/R_S_ILSVRC2015_train_00479003.mp4	0.0	87.46102499961853	
12	29.97175407409668	fix_pre	0		31.0	10.0	2.5	/experiments/knapen_aot/oldvideos/R_S_wc-0SAXOWjdNVGC_8.mp4	0.0	87.5190839767456	0.2582099437713623
12	30.221802949905396	response	0	2		10.0	2.5	/experiments/knapen_aot/oldvideos/R_S_wc-0SAXOWjdNVGC_8.mp4	0.0	87.76913285255432	
12	30.229964017868042	movie	1		162.0	10.0	2.5	/experiments/knapen_aot/oldvideos/R_S_wc-0SAXOWjdNVGC_8.mp4	0.0	87.77729392051697	2.5084478855133057
12	32.73841190338135	fix_post	2		12.0	10.0	2.5	/experiments/knapen_aot/oldvideos/R_S_wc-0SAXOWjdNVGC_8.mp4	0.0	90.28574180603027	0.09995102882385254
13	32.8383629322052	fix_pre	0		4.0	11.0	2.5	/experiments/knapen_aot/oldvideos/R_S_yt-2dRSJcaJIXw_32.mp4	0.0	90.38569283485413	0.03328204154968262
13	32.86348795890808	response	0	2		11.0	2.5	/experiments/knapen_aot/oldvideos/R_S_yt-2dRSJcaJIXw_32.mp4	0.0	90.410817861557	
13	32.87164497375488	movie	1		301.0	11.0	2.5	/experiments/knapen_aot/oldvideos/R_S_yt-2dRSJcaJIXw_32.mp4	0.0	90.41897487640381	2.508368968963623
13	35.380013942718506	fix_post	2		12.0	11.0	2.5	/experiments/knapen_aot/oldvideos/R_S_yt-2dRSJcaJIXw_32.mp4	0.0	92.92734384536743	0.10001301765441895
14	35.480026960372925	fix_pre	0		20.0	12.0	2.5	/experiments/knapen_aot/oldvideos/R_S_ILSVRC2015_train_00743005.mp4	0.0	93.02735686302185	0.1666560173034668
14	35.6384539604187	response	0	2		12.0	2.5	/experiments/knapen_aot/oldvideos/R_S_ILSVRC2015_train_00743005.mp4	0.0	93.18578386306763	
14	35.64668297767639	movie	1		301.0	12.0	2.5	/experiments/knapen_aot/oldvideos/R_S_ILSVRC2015_train_00743005.mp4	0.0	93.19401288032532	2.508270025253296
14	38.15495300292969	fix_post	2		12.0	12.0	2.5	/experiments/knapen_aot/oldvideos/R_S_ILSVRC2015_train_00743005.mp4	0.0	95.70228290557861	0.10002803802490234
15	38.25498104095459	fix_pre	0		7.0	13.0	2.5	/experiments/knapen_aot/oldvideos/R_S_g201_AK_A003_C014_SDR_20191113_SDR_2K_AVC.mp4	0.0	95.80231094360352	0.05826902389526367
15	38.30507302284241	response	0	2		13.0	2.5	/experiments/knapen_aot/oldvideos/R_S_g201_AK_A003_C014_SDR_20191113_SDR_2K_AVC.mp4	0.0	95.85240292549133	
15	38.31325006484985	movie	1		178.0	13.0	2.5	/experiments/knapen_aot/oldvideos/R_S_g201_AK_A003_C014_SDR_20191113_SDR_2K_AVC.mp4	0.0	95.86057996749878	2.5083749294281006
15	40.821624994277954	fix_post	2		12.0	13.0	2.5	/experiments/knapen_aot/oldvideos/R_S_g201_AK_A003_C014_SDR_20191113_SDR_2K_AVC.mp4	0.0	98.36895489692688	0.10004591941833496
15	40.888455867767334	response	2	2		13.0	2.5	/experiments/knapen_aot/oldvideos/R_S_g201_AK_A003_C014_SDR_20191113_SDR_2K_AVC.mp4	0.0	98.43578577041626	
16	40.92167091369629	fix_pre	0		37.0	14.0	2.5	blank	1.0	98.46900081634521	0.3081700801849365
16	41.214072942733765	response	0	2		14.0	2.5	blank	1.0	98.76140284538269	
16	41.229840993881226	movie	1		301.0	14.0	2.5	blank	1.0	98.77717089653015	2.508404016494751
16	43.46343803405762	response	1	2		14.0	2.5	blank	1.0	101.01076793670654	
16	43.73824501037598	fix_post	2		12.0	14.0	2.5	blank	1.0	101.2855749130249	0.10010886192321777
16	43.74157786369324	response	2	2		14.0	2.5	blank	1.0	101.28890776634216	
17	43.838353872299194	fix_pre	0		32.0	15.0	2.5	/experiments/knapen_aot/oldvideos/S_yt-RKo978aBdzw_173.mp4	0.0	101.38568377494812	0.2665681838989258
17	44.09666395187378	response	0	2		15.0	2.5	/experiments/knapen_aot/oldvideos/S_yt-RKo978aBdzw_173.mp4	0.0	101.6439938545227	
17	44.10492205619812	movie	1		301.0	15.0	2.5	/experiments/knapen_aot/oldvideos/S_yt-RKo978aBdzw_173.mp4	0.0	101.65225195884705	2.5084149837493896
17	46.61333703994751	fix_post	2		12.0	15.0	2.5	/experiments/knapen_aot/oldvideos/S_yt-RKo978aBdzw_173.mp4	0.0	104.16066694259644	0.09999203681945801
18	46.71332907676697	fix_pre	0		2.0	16.0	2.5	/experiments/knapen_aot/oldvideos/S_yt-Q5Mfl5NdT7g_3.mp4	0.0	104.2606589794159	0.01656198501586914
18	46.72173309326172	response	0	2		16.0	2.5	/experiments/knapen_aot/oldvideos/S_yt-Q5Mfl5NdT7g_3.mp4	0.0	104.26906299591064	
18	46.72989106178284	movie	1		301.0	16.0	2.5	/experiments/knapen_aot/oldvideos/S_yt-Q5Mfl5NdT7g_3.mp4	0.0	104.27722096443176	2.5082948207855225
18	49.23818588256836	fix_post	2		12.0	16.0	2.5	/experiments/knapen_aot/oldvideos/S_yt-Q5Mfl5NdT7g_3.mp4	0.0	106.78551578521729	0.10007214546203613
19	49.338258028030396	fix_pre	0		4.0	17.0	2.5	/experiments/knapen_aot/oldvideos/S_pexels-tima-miroshnichenko-6077718.mp4	0.0	106.88558793067932	0.03333401679992676
19	49.355966091156006	response	0	2		17.0	2.5	/experiments/knapen_aot/oldvideos/S_pexels-tima-miroshnichenko-6077718.mp4	0.0	106.90329599380493	
19	49.37159204483032	movie	1		170.0	17.0	2.5	/experiments/knapen_aot/oldvideos/S_pexels-tima-miroshnichenko-6077718.mp4	0.0	106.91892194747925	2.5086069107055664
19	51.88019895553589	fix_post	2		12.0	17.0	2.5	/experiments/knapen_aot/oldvideos/S_pexels-tima-miroshnichenko-6077718.mp4	0.0	109.42752885818481	0.09974312782287598
20	51.979942083358765	fix_pre	0		25.0	18.0	2.5	/experiments/knapen_aot/oldvideos/S_yt-4r-oovk9JWg_85.mp4	0.0	109.52727198600769	0.2082669734954834
20	52.179996967315674	response	0	2		18.0	2.5	/experiments/knapen_aot/oldvideos/S_yt-4r-oovk9JWg_85.mp4	0.0	109.7273268699646	
20	52.18820905685425	movie	1		301.0	18.0	2.5	/experiments/knapen_aot/oldvideos/S_yt-4r-oovk9JWg_85.mp4	0.0	109.73553895950317	2.5083959102630615
20	54.69660496711731	fix_post	2		12.0	18.0	2.5	/experiments/knapen_aot/oldvideos/S_yt-4r-oovk9JWg_85.mp4	0.0	112.24393486976624	0.0999460220336914
21	54.796550989151	fix_pre	0		18.0	19.0	2.5	blank	1.0	112.34388089179993	0.1500239372253418
21	54.938405990600586	response	0	2		19.0	2.5	blank	1.0	112.48573589324951	
21	54.94657492637634	movie	1		301.0	19.0	2.5	blank	1.0	112.49390482902527	2.508315086364746
21	57.45489001274109	fix_post	2		12.0	19.0	2.5	blank	1.0	115.00221991539001	0.10006594657897949
22	57.55495595932007	fix_pre	0		235.0	20.0	2.5	/experiments/knapen_aot/oldvideos/R_S_ILSVRC2015_train_00363000.mp4	0.0	115.102285861969	1.9582419395446777
22	59.50505208969116	response	0	2		20.0	2.5	/experiments/knapen_aot/oldvideos/R_S_ILSVRC2015_train_00363000.mp4	0.0	117.05238199234009	
22	59.513197898864746	movie	1		301.0	20.0	2.5	/experiments/knapen_aot/oldvideos/R_S_ILSVRC2015_train_00363000.mp4	0.0	117.06052780151367	2.508366107940674
22	62.02156400680542	fix_post	2		12.0	20.0	2.5	/experiments/knapen_aot/oldvideos/R_S_ILSVRC2015_train_00363000.mp4	0.0	119.56889390945435	0.10002899169921875
23	62.12159299850464	fix_pre	0		82.0	21.0	2.5	/experiments/knapen_aot/oldvideos/R_S_yt-WTxvvlP8xnw_113.mp4	0.0	119.66892290115356	0.6832730770111084
23	62.796695947647095	response	0	2		21.0	2.5	/experiments/knapen_aot/oldvideos/R_S_yt-WTxvvlP8xnw_113.mp4	0.0	120.34402585029602	
23	62.80486607551575	movie	1		301.0	21.0	2.5	/experiments/knapen_aot/oldvideos/R_S_yt-WTxvvlP8xnw_113.mp4	0.0	120.35219597816467	2.5083699226379395
23	65.31323599815369	fix_post	2		12.0	21.0	2.5	/experiments/knapen_aot/oldvideos/R_S_yt-WTxvvlP8xnw_113.mp4	0.0	122.86056590080261	0.09998488426208496
24	65.41322088241577	fix_pre	0		29.0	22.0	2.5	/experiments/knapen_aot/oldvideos/S_yt-pOCEuqVE7ro_61.mp4	0.0	122.9605507850647	0.24167108535766602
24	65.64668297767639	response	0	2		22.0	2.5	/experiments/knapen_aot/oldvideos/S_yt-pOCEuqVE7ro_61.mp4	0.0	123.19401288032532	
24	65.65489196777344	movie	1		300.0	22.0	2.5	/experiments/knapen_aot/oldvideos/S_yt-pOCEuqVE7ro_61.mp4	0.0	123.20222187042236	2.5083279609680176
24	68.16321992874146	fix_post	2		12.0	22.0	2.5	/experiments/knapen_aot/oldvideos/S_yt-pOCEuqVE7ro_61.mp4	0.0	125.71054983139038	0.10000801086425781
25	68.26322793960571	fix_pre	0		8.0	23.0	2.5	/experiments/knapen_aot/oldvideos/S_ILSVRC2015_train_00369002.mp4	0.0	125.81055784225464	0.06664896011352539
25	68.32169604301453	response	0	2		23.0	2.5	/experiments/knapen_aot/oldvideos/S_ILSVRC2015_train_00369002.mp4	0.0	125.86902594566345	
25	68.32987689971924	movie	1		301.0	23.0	2.5	/experiments/knapen_aot/oldvideos/S_ILSVRC2015_train_00369002.mp4	0.0	125.87720680236816	2.5083260536193848
25	70.83820295333862	fix_post	2		12.0	23.0	2.5	/experiments/knapen_aot/oldvideos/S_ILSVRC2015_train_00369002.mp4	0.0	128.38553285598755	0.10006904602050781
26	70.93827199935913	fix_pre	0		14.0	24.0	2.5	/experiments/knapen_aot/oldvideos/S_yt-cM5PvgE7aJs_243.mp4	0.0	128.48560190200806	0.11655998229980469
26	71.04665493965149	response	0	2		24.0	2.5	/experiments/knapen_aot/oldvideos/S_yt-cM5PvgE7aJs_243.mp4	0.0	128.59398484230042	
26	71.05483198165894	movie	1		301.0	24.0	2.5	/experiments/knapen_aot/oldvideos/S_yt-cM5PvgE7aJs_243.mp4	0.0	128.60216188430786	2.508327007293701
26	73.56315898895264	fix_post	2		12.0	24.0	2.5	/experiments/knapen_aot/oldvideos/S_yt-cM5PvgE7aJs_243.mp4	0.0	131.11048889160156	0.10006594657897949
27	73.66322493553162	fix_pre	0		21.0	25.0	2.5	/experiments/knapen_aot/oldvideos/R_S_yt-n_eO-7KedAE_21.mp4	0.0	131.21055483818054	0.1760880947113037
27	73.82995295524597	response	0	2		25.0	2.5	/experiments/knapen_aot/oldvideos/R_S_yt-n_eO-7KedAE_21.mp4	0.0	131.3772828578949	
27	73.83931303024292	movie	1		301.0	25.0	2.5	/experiments/knapen_aot/oldvideos/R_S_yt-n_eO-7KedAE_21.mp4	0.0	131.38664293289185	2.5071780681610107
27	76.34649109840393	fix_post	2		12.0	25.0	2.5	/experiments/knapen_aot/oldvideos/R_S_yt-n_eO-7KedAE_21.mp4	0.0	133.89382100105286	0.10002994537353516
28	76.44652104377747	fix_pre	0		16.0	26.0	2.5	/experiments/knapen_aot/oldvideos/R_S_yt-5AI_SyK5sg8_112.mp4	0.0	133.9938509464264	0.13331198692321777
28	76.57165789604187	response	0	2		26.0	2.5	/experiments/knapen_aot/oldvideos/R_S_yt-5AI_SyK5sg8_112.mp4	0.0	134.1189877986908	
28	76.57983303070068	movie	1		301.0	26.0	2.5	/experiments/knapen_aot/oldvideos/R_S_yt-5AI_SyK5sg8_112.mp4	0.0	134.1271629333496	2.5083980560302734
28	79.08823108673096	fix_post	2		12.0	26.0	2.5	/experiments/knapen_aot/oldvideos/R_S_yt-5AI_SyK5sg8_112.mp4	0.0	136.63556098937988	0.09998393058776855
29	79.18821501731873	fix_pre	0		29.0	27.0	2.5	/experiments/knapen_aot/oldvideos/S_production_ID_4820868.mp4	0.0	136.73554491996765	0.24161696434020996
29	79.42160892486572	response	0	2		27.0	2.5	/experiments/knapen_aot/oldvideos/S_production_ID_4820868.mp4	0.0	136.96893882751465	
29	79.42983198165894	movie	1		167.0	27.0	2.5	/experiments/knapen_aot/oldvideos/S_production_ID_4820868.mp4	0.0	136.97716188430786	2.5083940029144287
29	81.93822598457336	fix_post	2		12.0	27.0	2.5	/experiments/knapen_aot/oldvideos/S_production_ID_4820868.mp4	0.0	139.4855558872223	0.0999441146850586
30	82.03817009925842	fix_pre	0		30.0	28.0	2.5	blank	1.0	139.58550000190735	0.24995899200439453
30	82.27991008758545	response	0	2		28.0	2.5	blank	1.0	139.82723999023438	
30	82.28812909126282	movie	1		301.0	28.0	2.5	blank	1.0	139.83545899391174	2.508523941040039
30	84.79665303230286	fix_post	2		12.0	28.0	2.5	blank	1.0	142.34398293495178	0.09982490539550781
31	84.89647793769836	fix_pre	0		23.0	29.0	2.5	/experiments/knapen_aot/oldvideos/R_S_yt-YTQXM5ZjRgg_116.mp4	0.0	142.4438078403473	0.1927809715270996
31	85.07992196083069	response	0	2		29.0	2.5	/experiments/knapen_aot/oldvideos/R_S_yt-YTQXM5ZjRgg_116.mp4	0.0	142.62725186347961	
31	85.08925890922546	movie	1		301.0	29.0	2.5	/experiments/knapen_aot/oldvideos/R_S_yt-YTQXM5ZjRgg_116.mp4	0.0	142.6365888118744	2.507160186767578
31	87.59641909599304	fix_post	2		12.0	29.0	2.5	/experiments/knapen_aot/oldvideos/R_S_yt-YTQXM5ZjRgg_116.mp4	0.0	145.14374899864197	0.10003399848937988
32	87.69645309448242	fix_pre	0		26.0	30.0	2.5	/experiments/knapen_aot/oldvideos/R_S_yt-6xXEMHBQ08A_28.mp4	0.0	145.24378299713135	0.2166428565979004
32	87.90504503250122	response	0	2		30.0	2.5	/experiments/knapen_aot/oldvideos/R_S_yt-6xXEMHBQ08A_28.mp4	0.0	145.45237493515015	
32	87.91309595108032	movie	1		301.0	30.0	2.5	/experiments/knapen_aot/oldvideos/R_S_yt-6xXEMHBQ08A_28.mp4	0.0	145.46042585372925	2.508388042449951
32	90.42148399353027	fix_post	2		12.0	30.0	2.5	/experiments/knapen_aot/oldvideos/R_S_yt-6xXEMHBQ08A_28.mp4	0.0	147.9688138961792	0.09994697570800781
33	90.52143096923828	fix_pre	0		16.0	31.0	2.5	/experiments/knapen_aot/oldvideos/S_yt-0Zze3Ff12Ys_58.mp4	0.0	148.0687608718872	0.1332850456237793
33	90.64653086662292	response	0	2		31.0	2.5	/experiments/knapen_aot/oldvideos/S_yt-0Zze3Ff12Ys_58.mp4	0.0	148.19386076927185	
33	90.65471601486206	movie	1		301.0	31.0	2.5	/experiments/knapen_aot/oldvideos/S_yt-0Zze3Ff12Ys_58.mp4	0.0	148.202045917511	2.508378028869629
33	93.16309404373169	fix_post	2		12.0	31.0	2.5	/experiments/knapen_aot/oldvideos/S_yt-0Zze3Ff12Ys_58.mp4	0.0	150.71042394638062	0.09999704360961914
34	93.26309108734131	fix_pre	0		9.0	32.0	2.5	/experiments/knapen_aot/oldvideos/S_yt-roThCERxVCs_133.mp4	0.0	150.81042098999023	0.0760958194732666
34	93.32986903190613	response	0	2		32.0	2.5	/experiments/knapen_aot/oldvideos/S_yt-roThCERxVCs_133.mp4	0.0	150.87719893455505	
34	93.33918690681458	movie	1		301.0	32.0	2.5	/experiments/knapen_aot/oldvideos/S_yt-roThCERxVCs_133.mp4	0.0	150.8865168094635	2.5072500705718994
34	95.84643697738647	fix_post	2		12.0	32.0	2.5	/experiments/knapen_aot/oldvideos/S_yt-roThCERxVCs_133.mp4	0.0	153.3937668800354	0.09997701644897461
35	95.94641399383545	fix_pre	0		11.0	33.0	2.5	blank	1.0	153.49374389648438	0.09165787696838379
35	96.0298240184784	response	0	2		33.0	2.5	blank	1.0	153.57715392112732	
35	96.03807187080383	movie	1		301.0	33.0	2.5	blank	1.0	153.58540177345276	2.508430004119873
35	98.5465018749237	fix_post	2		12.0	33.0	2.5	blank	1.0	156.09383177757263	0.09992313385009766
36	98.6464250087738	fix_pre	0		13.0	34.0	2.5	/experiments/knapen_aot/oldvideos/R_S_yt-l_pvPAznG1A_20.mp4	0.0	156.19375491142273	0.10939788818359375
36	98.74653387069702	response	0	2		34.0	2.5	/experiments/knapen_aot/oldvideos/R_S_yt-l_pvPAznG1A_20.mp4	0.0	156.29386377334595	
36	98.7558228969574	movie	1		301.0	34.0	2.5	/experiments/knapen_aot/oldvideos/R_S_yt-l_pvPAznG1A_20.mp4	0.0	156.30315279960632	2.507215976715088
36	101.03812289237976	response	1	2		34.0	2.5	/experiments/knapen_aot/oldvideos/R_S_yt-l_pvPAznG1A_20.mp4	0.0	158.5854527950287	
36	101.19644594192505	response	1	2		34.0	2.5	/experiments/knapen_aot/oldvideos/R_S_yt-l_pvPAznG1A_20.mp4	0.0	158.74377584457397	
36	101.26303887367249	fix_post	2		12.0	34.0	2.5	/experiments/knapen_aot/oldvideos/R_S_yt-l_pvPAznG1A_20.mp4	0.0	158.8103687763214	0.10002899169921875
37	101.3630678653717	fix_pre	0		4.0	35.0	2.5	/experiments/knapen_aot/oldvideos/R_S_yt-ZtS7ZrJ_rtk_525.mp4	0.0	158.91039776802063	0.03331923484802246
37	101.38818192481995	response	0	2		35.0	2.5	/experiments/knapen_aot/oldvideos/R_S_yt-ZtS7ZrJ_rtk_525.mp4	0.0	158.93551182746887	
37	101.39638710021973	movie	1		301.0	35.0	2.5	/experiments/knapen_aot/oldvideos/R_S_yt-ZtS7ZrJ_rtk_525.mp4	0.0	158.94371700286865	2.508403778076172
37	101.57155704498291	response	1	2		35.0	2.5	/experiments/knapen_aot/oldvideos/R_S_yt-ZtS7ZrJ_rtk_525.mp4	0.0	159.11888694763184	
37	101.72985291481018	response	1	2		35.0	2.5	/experiments/knapen_aot/oldvideos/R_S_yt-ZtS7ZrJ_rtk_525.mp4	0.0	159.2771828174591	
37	101.96416592597961	response	1	2		35.0	2.5	/experiments/knapen_aot/oldvideos/R_S_yt-ZtS7ZrJ_rtk_525.mp4	0.0	159.51149582862854	
37	103.9047908782959	fix_post	2		12.0	35.0	2.5	/experiments/knapen_aot/oldvideos/R_S_yt-ZtS7ZrJ_rtk_525.mp4	0.0	161.45212078094482	0.09996509552001953
38	104.00475597381592	fix_pre	0		7.0	36.0	2.5	/experiments/knapen_aot/oldvideos/R_S_yt-QI6k6mhpxLo_453.mp4	0.0	161.55208587646484	0.05831193923950195
38	104.05486798286438	response	0	2		36.0	2.5	/experiments/knapen_aot/oldvideos/R_S_yt-QI6k6mhpxLo_453.mp4	0.0	161.6021978855133	
38	104.06306791305542	movie	1		301.0	36.0	2.5	/experiments/knapen_aot/oldvideos/R_S_yt-QI6k6mhpxLo_453.mp4	0.0	161.61039781570435	2.5083301067352295
38	106.57139801979065	fix_post	2		12.0	36.0	2.5	/experiments/knapen_aot/oldvideos/R_S_yt-QI6k6mhpxLo_453.mp4	0.0	164.11872792243958	0.1010439395904541
39	106.6724419593811	fix_pre	0		29.0	37.0	2.5	/experiments/knapen_aot/oldvideos/R_S_ILSVRC2015_train_00044004.mp4	0.0	164.21977186203003	0.24056291580200195
39	106.90479493141174	response	0	2		37.0	2.5	/experiments/knapen_aot/oldvideos/R_S_ILSVRC2015_train_00044004.mp4	0.0	164.45212483406067	
39	106.9130048751831	movie	1		301.0	37.0	2.5	/experiments/knapen_aot/oldvideos/R_S_ILSVRC2015_train_00044004.mp4	0.0	164.46033477783203	2.5084171295166016
39	109.4214220046997	fix_post	2		12.0	37.0	2.5	/experiments/knapen_aot/oldvideos/R_S_ILSVRC2015_train_00044004.mp4	0.0	166.96875190734863	0.09999799728393555
40	109.52142000198364	fix_pre	0		18.0	38.0	2.5	/experiments/knapen_aot/oldvideos/R_S_yt-28ODBE9bVh0_44.mp4	0.0	167.06874990463257	0.15095901489257812
40	109.66315197944641	response	0	2		38.0	2.5	/experiments/knapen_aot/oldvideos/R_S_yt-28ODBE9bVh0_44.mp4	0.0	167.21048188209534	
40	109.67237901687622	movie	1		301.0	38.0	2.5	/experiments/knapen_aot/oldvideos/R_S_yt-28ODBE9bVh0_44.mp4	0.0	167.21970891952515	2.5074238777160645
40	112.17980289459229	fix_post	2		12.0	38.0	2.5	/experiments/knapen_aot/oldvideos/R_S_yt-28ODBE9bVh0_44.mp4	0.0	169.7271327972412	0.0999901294708252
41	112.27979302406311	fix_pre	0		4.0	39.0	2.5	/experiments/knapen_aot/oldvideos/S_yt-H45g6700wbc_159.mp4	0.0	169.82712292671204	0.033197879791259766
41	112.30484104156494	response	0	2		39.0	2.5	/experiments/knapen_aot/oldvideos/S_yt-H45g6700wbc_159.mp4	0.0	169.85217094421387	
41	112.31299090385437	movie	1		301.0	39.0	2.5	/experiments/knapen_aot/oldvideos/S_yt-H45g6700wbc_159.mp4	0.0	169.8603208065033	2.5083019733428955
41	114.82129287719727	fix_post	2		12.0	39.0	2.5	/experiments/knapen_aot/oldvideos/S_yt-H45g6700wbc_159.mp4	0.0	172.3686227798462	0.10013699531555176
42	114.92142987251282	fix_pre	0		28.0	40.0	2.5	/experiments/knapen_aot/oldvideos/S_production_ID_4101242.mp4	0.0	172.46875977516174	0.2332150936126709
42	115.14647197723389	response	0	2		40.0	2.5	/experiments/knapen_aot/oldvideos/S_production_ID_4101242.mp4	0.0	172.6938018798828	
42	115.15464496612549	movie	1		211.0	40.0	2.5	/experiments/knapen_aot/oldvideos/S_production_ID_4101242.mp4	0.0	172.7019748687744	2.508268117904663
42	117.66291308403015	fix_post	2		12.0	40.0	2.5	/experiments/knapen_aot/oldvideos/S_production_ID_4101242.mp4	0.0	175.21024298667908	0.10004091262817383
43	117.76295399665833	fix_pre	0		26.0	41.0	2.5	/experiments/knapen_aot/oldvideos/S_yt-GETRVzxihhM_74.mp4	0.0	175.31028389930725	0.2166450023651123
43	117.97140598297119	response	0	2		41.0	2.5	/experiments/knapen_aot/oldvideos/S_yt-GETRVzxihhM_74.mp4	0.0	175.51873588562012	
43	117.97959899902344	movie	1		301.0	41.0	2.5	/experiments/knapen_aot/oldvideos/S_yt-GETRVzxihhM_74.mp4	0.0	175.52692890167236	2.5083611011505127
43	120.48796010017395	fix_post	2		12.0	41.0	2.5	/experiments/knapen_aot/oldvideos/S_yt-GETRVzxihhM_74.mp4	0.0	178.03529000282288	0.10001587867736816
44	120.58797597885132	fix_pre	0		41.0	42.0	2.5	blank	1.0	178.13530588150024	0.34163689613342285
44	120.92131805419922	response	0	2		42.0	2.5	blank	1.0	178.46864795684814	
44	120.92961287498474	movie	1		301.0	42.0	2.5	blank	1.0	178.47694277763367	2.508316993713379
44	123.43792986869812	fix_post	2		12.0	42.0	2.5	blank	1.0	180.98525977134705	0.1002051830291748
45	123.5381350517273	fix_pre	0		4.0	43.0	2.5	/experiments/knapen_aot/oldvideos/S_comp_A008_C007_011550_CC_v01_SDR_PS_FINAL_20180709_SDR_2K_AVC.mp4	0.0	181.08546495437622	0.03315281867980957
45	123.56311893463135	response	0	2		43.0	2.5	/experiments/knapen_aot/oldvideos/S_comp_A008_C007_011550_CC_v01_SDR_PS_FINAL_20180709_SDR_2K_AVC.mp4	0.0	181.11044883728027	
45	123.5712878704071	movie	1		163.0	43.0	2.5	/experiments/knapen_aot/oldvideos/S_comp_A008_C007_011550_CC_v01_SDR_PS_FINAL_20180709_SDR_2K_AVC.mp4	0.0	181.11861777305603	2.508310079574585
45	126.07959794998169	fix_post	2		12.0	43.0	2.5	/experiments/knapen_aot/oldvideos/S_comp_A008_C007_011550_CC_v01_SDR_PS_FINAL_20180709_SDR_2K_AVC.mp4	0.0	183.62692785263062	0.10000014305114746
46	126.17959809303284	fix_pre	0		31.0	44.0	2.5	/experiments/knapen_aot/oldvideos/R_S_yt-mWlx1SIXl5M_850.mp4	0.0	183.72692799568176	0.2582859992980957
46	126.42967700958252	response	0	2		44.0	2.5	/experiments/knapen_aot/oldvideos/R_S_yt-mWlx1SIXl5M_850.mp4	0.0	183.97700691223145	
46	126.43788409233093	movie	1		301.0	44.0	2.5	/experiments/knapen_aot/oldvideos/R_S_yt-mWlx1SIXl5M_850.mp4	0.0	183.98521399497986	2.5083699226379395
46	128.94625401496887	fix_post	2		12.0	44.0	2.5	/experiments/knapen_aot/oldvideos/R_S_yt-mWlx1SIXl5M_850.mp4	0.0	186.4935839176178	0.09994292259216309
47	129.04619693756104	fix_pre	0		32.0	45.0	2.5	/experiments/knapen_aot/oldvideos/R_S_yt-fCjjH_4i8Fg_115.mp4	0.0	186.59352684020996	0.266664981842041
47	129.30467009544373	response	0	2		45.0	2.5	/experiments/knapen_aot/oldvideos/R_S_yt-fCjjH_4i8Fg_115.mp4	0.0	186.85199999809265	
47	129.31286191940308	movie	1		301.0	45.0	2.5	/experiments/knapen_aot/oldvideos/R_S_yt-fCjjH_4i8Fg_115.mp4	0.0	186.860191822052	2.508406162261963
47	131.82126808166504	fix_post	2		12.0	45.0	2.5	/experiments/knapen_aot/oldvideos/R_S_yt-fCjjH_4i8Fg_115.mp4	0.0	189.36859798431396	0.10003399848937988
48	131.92130208015442	fix_pre	0		20.0	46.0	2.5	/experiments/knapen_aot/oldvideos/R_S_yt-qsyDLtXcyHc_8.mp4	0.0	189.46863198280334	0.16751384735107422
48	132.0797140598297	response	0	2		46.0	2.5	/experiments/knapen_aot/oldvideos/R_S_yt-qsyDLtXcyHc_8.mp4	0.0	189.62704396247864	
48	132.0888159275055	movie	1		301.0	46.0	2.5	/experiments/knapen_aot/oldvideos/R_S_yt-qsyDLtXcyHc_8.mp4	0.0	189.63614583015442	2.50747013092041
48	134.5962860584259	fix_post	2		12.0	46.0	2.5	/experiments/knapen_aot/oldvideos/R_S_yt-qsyDLtXcyHc_8.mp4	0.0	192.14361596107483	0.10001492500305176
49	134.69630098342896	fix_pre	0		4.0	47.0	2.5	blank	1.0	192.24363088607788	0.03329801559448242
49	134.72135210037231	response	0	2		47.0	2.5	blank	1.0	192.26868200302124	
49	134.72959899902344	movie	1		301.0	47.0	2.5	blank	1.0	192.27692890167236	2.5083229541778564
49	137.2379219532013	fix_post	2		12.0	47.0	2.5	blank	1.0	194.78525185585022	0.10079193115234375
50	137.33871388435364	fix_pre	0		33.0	48.0	2.5	/experiments/knapen_aot/oldvideos/S_yt-RqWnxg1wT-0_41.mp4	0.0	194.88604378700256	0.2740800380706787
50	137.60471892356873	response	0	2		48.0	2.5	/experiments/knapen_aot/oldvideos/S_yt-RqWnxg1wT-0_41.mp4	0.0	195.15204882621765	
50	137.61279392242432	movie	1		301.0	48.0	2.5	/experiments/knapen_aot/oldvideos/S_yt-RqWnxg1wT-0_41.mp4	0.0	195.16012382507324	2.50844407081604
50	140.12123799324036	fix_post	2		12.0	48.0	2.5	/experiments/knapen_aot/oldvideos/S_yt-RqWnxg1wT-0_41.mp4	0.0	197.66856789588928	0.10012292861938477
51	140.22136092185974	fix_pre	0		9.0	49.0	2.5	/experiments/knapen_aot/oldvideos/S_yt-4GDusA21cEA_170.mp4	0.0	197.76869082450867	0.07571101188659668
51	140.28786301612854	response	0	2		49.0	2.5	/experiments/knapen_aot/oldvideos/S_yt-4GDusA21cEA_170.mp4	0.0	197.83519291877747	
51	140.29707193374634	movie	1		301.0	49.0	2.5	/experiments/knapen_aot/oldvideos/S_yt-4GDusA21cEA_170.mp4	0.0	197.84440183639526	2.5074961185455322
51	142.80456805229187	fix_post	2		12.0	49.0	2.5	/experiments/knapen_aot/oldvideos/S_yt-4GDusA21cEA_170.mp4	0.0	200.3518979549408	0.1000828742980957
52	142.90465092658997	fix_pre	0		17.0	50.0	2.5	/experiments/knapen_aot/oldvideos/S_ILSVRC2015_train_00363000.mp4	0.0	200.4519808292389	0.1424391269683838
52	143.0380449295044	response	0	2		50.0	2.5	/experiments/knapen_aot/oldvideos/S_ILSVRC2015_train_00363000.mp4	0.0	200.58537483215332	
52	143.04709005355835	movie	1		301.0	50.0	2.5	/experiments/knapen_aot/oldvideos/S_ILSVRC2015_train_00363000.mp4	0.0	200.59441995620728	2.5074808597564697
52	145.55457091331482	fix_post	2		12.0	50.0	2.5	/experiments/knapen_aot/oldvideos/S_ILSVRC2015_train_00363000.mp4	0.0	203.10190081596375	0.09993600845336914
53	145.6545069217682	fix_pre	0		17.0	51.0	2.5	/experiments/knapen_aot/oldvideos/S_yt-rlEPywo5BEQ_36.mp4	0.0	203.20183682441711	0.142686128616333
53	145.78801202774048	response	0	2		51.0	2.5	/experiments/knapen_aot/oldvideos/S_yt-rlEPywo5BEQ_36.mp4	0.0	203.3353419303894	
53	145.79719305038452	movie	1		301.0	51.0	2.5	/experiments/knapen_aot/oldvideos/S_yt-rlEPywo5BEQ_36.mp4	0.0	203.34452295303345	2.5073719024658203
53	148.30456495285034	fix_post	2		12.0	51.0	2.5	/experiments/knapen_aot/oldvideos/S_yt-rlEPywo5BEQ_36.mp4	0.0	205.85189485549927	0.0999910831451416
54	148.40455603599548	fix_pre	0		13.0	52.0	2.5	/experiments/knapen_aot/oldvideos/S_yt-JG2OY_7B-gI_537.mp4	0.0	205.9518859386444	0.10824394226074219
54	148.50463700294495	response	0	2		52.0	2.5	/experiments/knapen_aot/oldvideos/S_yt-JG2OY_7B-gI_537.mp4	0.0	206.05196690559387	
54	148.51279997825623	movie	1		301.0	52.0	2.5	/experiments/knapen_aot/oldvideos/S_yt-JG2OY_7B-gI_537.mp4	0.0	206.06012988090515	2.5085721015930176
54	151.02137207984924	fix_post	2		12.0	52.0	2.5	/experiments/knapen_aot/oldvideos/S_yt-JG2OY_7B-gI_537.mp4	0.0	208.56870198249817	0.09985089302062988
55	151.12122297286987	fix_pre	0		20.0	53.0	2.5	/experiments/knapen_aot/oldvideos/R_S_yt-T1mMDOVjvrE_83.mp4	0.0	208.6685528755188	0.1665968894958496
55	151.2795979976654	response	0	2		53.0	2.5	/experiments/knapen_aot/oldvideos/R_S_yt-T1mMDOVjvrE_83.mp4	0.0	208.82692790031433	
55	151.28781986236572	movie	1		301.0	53.0	2.5	/experiments/knapen_aot/oldvideos/R_S_yt-T1mMDOVjvrE_83.mp4	0.0	208.83514976501465	2.5083491802215576
55	153.79616904258728	fix_post	2		12.0	53.0	2.5	/experiments/knapen_aot/oldvideos/R_S_yt-T1mMDOVjvrE_83.mp4	0.0	211.3434989452362	0.10001993179321289
56	153.8961889743805	fix_pre	0		9.0	54.0	2.5	/experiments/knapen_aot/oldvideos/S_yt-ZtS7ZrJ_rtk_525.mp4	0.0	211.44351887702942	0.07484889030456543
56	153.96291089057922	response	0	2		54.0	2.5	/experiments/knapen_aot/oldvideos/S_yt-ZtS7ZrJ_rtk_525.mp4	0.0	211.51024079322815	
56	153.97103786468506	movie	1		301.0	54.0	2.5	/experiments/knapen_aot/oldvideos/S_yt-ZtS7ZrJ_rtk_525.mp4	0.0	211.51836776733398	2.5085370540618896
56	156.07130098342896	response	1	2		54.0	2.5	/experiments/knapen_aot/oldvideos/S_yt-ZtS7ZrJ_rtk_525.mp4	0.0	213.61863088607788	
56	156.27971506118774	response	1	2		54.0	2.5	/experiments/knapen_aot/oldvideos/S_yt-ZtS7ZrJ_rtk_525.mp4	0.0	213.82704496383667	
56	156.47957491874695	fix_post	2		12.0	54.0	2.5	/experiments/knapen_aot/oldvideos/S_yt-ZtS7ZrJ_rtk_525.mp4	0.0	214.02690482139587	0.09997010231018066
56	156.51371598243713	response	2	2		54.0	2.5	/experiments/knapen_aot/oldvideos/S_yt-ZtS7ZrJ_rtk_525.mp4	0.0	214.06104588508606	
57	156.57954502105713	fix_pre	0		19.0	55.0	2.5	blank	1.0	214.12687492370605	0.15825104713439941
57	156.72954201698303	response	0	2		55.0	2.5	blank	1.0	214.27687191963196	
57	156.73779606819153	movie	1		301.0	55.0	2.5	blank	1.0	214.28512597084045	2.5083258152008057
57	159.24612188339233	fix_post	2		12.0	55.0	2.5	blank	1.0	216.79345178604126	0.10001921653747559
58	159.3461410999298	fix_pre	0		285.0	56.0	2.5	/experiments/knapen_aot/oldvideos/S_yt-roThCERxVCs_133.mp4	0.0	216.89347100257874	2.374945878982544
58	161.71289801597595	response	0	2		56.0	2.5	/experiments/knapen_aot/oldvideos/S_yt-roThCERxVCs_133.mp4	0.0	219.26022791862488	
58	161.72108697891235	movie	1		301.0	56.0	2.5	/experiments/knapen_aot/oldvideos/S_yt-roThCERxVCs_133.mp4	0.0	219.26841688156128	2.508384943008423
58	164.22947192192078	fix_post	2		12.0	56.0	2.5	/experiments/knapen_aot/oldvideos/S_yt-roThCERxVCs_133.mp4	0.0	221.7768018245697	0.09997415542602539
59	164.3294460773468	fix_pre	0		5.0	57.0	2.5	/experiments/knapen_aot/oldvideos/S_b2-2.mp4	0.0	221.87677597999573	0.041610002517700195
59	164.36283898353577	response	0	2		57.0	2.5	/experiments/knapen_aot/oldvideos/S_b2-2.mp4	0.0	221.9101688861847	
59	164.3710560798645	movie	1		167.0	57.0	2.5	/experiments/knapen_aot/oldvideos/S_b2-2.mp4	0.0	221.91838598251343	2.5083508491516113
59	166.8794069290161	fix_post	2		12.0	57.0	2.5	/experiments/knapen_aot/oldvideos/S_b2-2.mp4	0.0	224.42673683166504	0.10024213790893555
59	166.93782091140747	response	2	2		57.0	2.5	/experiments/knapen_aot/oldvideos/S_b2-2.mp4	0.0	224.4851508140564	
60	166.97964906692505	fix_pre	0		37.0	58.0	2.5	/experiments/knapen_aot/oldvideos/S_Pexels_Videos_2795171.mp4	0.0	224.52697896957397	0.30809688568115234
60	167.2794690132141	response	0	2		58.0	2.5	/experiments/knapen_aot/oldvideos/S_Pexels_Videos_2795171.mp4	0.0	224.82679891586304	
60	167.2877459526062	movie	1		168.0	58.0	2.5	/experiments/knapen_aot/oldvideos/S_Pexels_Videos_2795171.mp4	0.0	224.83507585525513	2.508435010910034
60	169.79618096351624	fix_post	2		12.0	58.0	2.5	/experiments/knapen_aot/oldvideos/S_Pexels_Videos_2795171.mp4	0.0	227.34351086616516	0.10005307197570801
61	169.89623403549194	fix_pre	0		6.0	59.0	2.5	/experiments/knapen_aot/oldvideos/R_S_yt-XBAU3cq0rZs_150.mp4	0.0	227.44356393814087	0.04986095428466797
61	169.937805891037	response	0	2		59.0	2.5	/experiments/knapen_aot/oldvideos/R_S_yt-XBAU3cq0rZs_150.mp4	0.0	227.4851357936859	
61	169.9460949897766	movie	1		301.0	59.0	2.5	/experiments/knapen_aot/oldvideos/R_S_yt-XBAU3cq0rZs_150.mp4	0.0	227.49342489242554	2.5086050033569336
61	172.45469999313354	fix_post	2		12.0	59.0	2.5	/experiments/knapen_aot/oldvideos/R_S_yt-XBAU3cq0rZs_150.mp4	0.0	230.00202989578247	0.09970998764038086
62	172.55440998077393	fix_pre	0		13.0	60.0	2.5	/experiments/knapen_aot/oldvideos/S_yt-cokedWwwYYs_136.mp4	0.0	230.10173988342285	0.10835003852844238
62	172.654550075531	response	0	2		60.0	2.5	/experiments/knapen_aot/oldvideos/S_yt-cokedWwwYYs_136.mp4	0.0	230.20187997817993	
62	172.66276001930237	movie	1		301.0	60.0	2.5	/experiments/knapen_aot/oldvideos/S_yt-cokedWwwYYs_136.mp4	0.0	230.2100899219513	2.508981943130493
62	175.16278886795044	response	1	2		60.0	2.5	/experiments/knapen_aot/oldvideos/S_yt-cokedWwwYYs_136.mp4	0.0	232.71011877059937	
62	175.17174196243286	fix_post	2		12.0	60.0	2.5	/experiments/knapen_aot/oldvideos/S_yt-cokedWwwYYs_136.mp4	0.0	232.7190718650818	0.09929490089416504
63	175.27103686332703	fix_pre	0		49.0	61.0	2.5	blank	1.0	232.81836676597595	0.4083390235900879
63	175.66360092163086	response	0	2		61.0	2.5	blank	1.0	233.21093082427979	
63	175.67937588691711	movie	1		301.0	61.0	2.5	blank	1.0	233.22670578956604	2.5083541870117188
63	177.9960970878601	response	1	2		61.0	2.5	blank	1.0	235.54342699050903	
63	178.18773007392883	fix_post	2		12.0	61.0	2.5	blank	1.0	235.73505997657776	0.09991693496704102
63	178.27944493293762	response	2	2		61.0	2.5	blank	1.0	235.82677483558655	
64	178.28764700889587	fix_pre	0		41.0	62.0	2.5	/experiments/knapen_aot/oldvideos/S_yt-CR86bVrRwfo_13.mp4	0.0	235.8349769115448	0.3424050807952881
64	178.6210789680481	response	0	2		62.0	2.5	/experiments/knapen_aot/oldvideos/S_yt-CR86bVrRwfo_13.mp4	0.0	236.16840887069702	
64	178.63005208969116	movie	1		301.0	62.0	2.5	/experiments/knapen_aot/oldvideos/S_yt-CR86bVrRwfo_13.mp4	0.0	236.1773819923401	2.50768780708313
64	181.07112288475037	response	1	2		62.0	2.5	/experiments/knapen_aot/oldvideos/S_yt-CR86bVrRwfo_13.mp4	0.0	238.6184527873993	
64	181.1377398967743	fix_post	2		12.0	62.0	2.5	/experiments/knapen_aot/oldvideos/S_yt-CR86bVrRwfo_13.mp4	0.0	238.68506979942322	0.09989809989929199
65	181.23763799667358	fix_pre	0		11.0	63.0	2.5	/experiments/knapen_aot/oldvideos/R_S_yt-pB9w3AA-woE_37.mp4	0.0	238.7849678993225	0.09167098999023438
65	181.32112407684326	response	0	2		63.0	2.5	/experiments/knapen_aot/oldvideos/R_S_yt-pB9w3AA-woE_37.mp4	0.0	238.8684539794922	
65	181.32930898666382	movie	1		301.0	63.0	2.5	/experiments/knapen_aot/oldvideos/R_S_yt-pB9w3AA-woE_37.mp4	0.0	238.87663888931274	2.508384943008423
65	181.50510907173157	response	1	2		63.0	2.5	/experiments/knapen_aot/oldvideos/R_S_yt-pB9w3AA-woE_37.mp4	0.0	239.0524389743805	
65	183.596107006073	response	1	2		63.0	2.5	/experiments/knapen_aot/oldvideos/R_S_yt-pB9w3AA-woE_37.mp4	0.0	241.14343690872192	
65	183.83769392967224	fix_post	2		12.0	63.0	2.5	/experiments/knapen_aot/oldvideos/R_S_yt-pB9w3AA-woE_37.mp4	0.0	241.38502383232117	0.0999751091003418
65	183.88031697273254	response	2	2		63.0	2.5	/experiments/knapen_aot/oldvideos/R_S_yt-pB9w3AA-woE_37.mp4	0.0	241.42764687538147	
66	183.93766903877258	fix_pre	0		19.0	64.0	2.5	/experiments/knapen_aot/oldvideos/S_yt-Pc1ZlCvsPpc_5.mp4	0.0	241.4849989414215	0.1583540439605713
66	184.0877239704132	response	0	2		64.0	2.5	/experiments/knapen_aot/oldvideos/S_yt-Pc1ZlCvsPpc_5.mp4	0.0	241.63505387306213	
66	184.09602308273315	movie	1		301.0	64.0	2.5	/experiments/knapen_aot/oldvideos/S_yt-Pc1ZlCvsPpc_5.mp4	0.0	241.64335298538208	2.5084168910980225
66	186.60443997383118	fix_post	2		12.0	64.0	2.5	/experiments/knapen_aot/oldvideos/S_yt-Pc1ZlCvsPpc_5.mp4	0.0	244.1517698764801	0.09991192817687988
67	186.70435190200806	fix_pre	0		4.0	65.0	2.5	/experiments/knapen_aot/oldvideos/S_pexels-c-technical-6754008.mp4	0.0	244.25168180465698	0.033289194107055664
67	186.72952008247375	response	0	2		65.0	2.5	/experiments/knapen_aot/oldvideos/S_pexels-c-technical-6754008.mp4	0.0	244.27684998512268	
67	186.7376410961151	movie	1		195.0	65.0	2.5	/experiments/knapen_aot/oldvideos/S_pexels-c-technical-6754008.mp4	0.0	244.28497099876404	2.508382797241211
67	189.24602389335632	fix_post	2		12.0	65.0	2.5	/experiments/knapen_aot/oldvideos/S_pexels-c-technical-6754008.mp4	0.0	246.79335379600525	0.09993600845336914
68	189.3459599018097	fix_pre	0		2.0	66.0	2.5	/experiments/knapen_aot/oldvideos/R_S_yt-xQPKYWDRy2A_491.mp4	0.0	246.89328980445862	0.016709089279174805
68	189.35448503494263	response	0	2		66.0	2.5	/experiments/knapen_aot/oldvideos/R_S_yt-xQPKYWDRy2A_491.mp4	0.0	246.90181493759155	
68	189.36266899108887	movie	1		301.0	66.0	2.5	/experiments/knapen_aot/oldvideos/R_S_yt-xQPKYWDRy2A_491.mp4	0.0	246.9099988937378	2.5082590579986572
68	191.687726020813	response	1	2		66.0	2.5	/experiments/knapen_aot/oldvideos/R_S_yt-xQPKYWDRy2A_491.mp4	0.0	249.2350559234619	
68	191.87092804908752	fix_post	2		12.0	66.0	2.5	/experiments/knapen_aot/oldvideos/R_S_yt-xQPKYWDRy2A_491.mp4	0.0	249.41825795173645	0.10002684593200684
68	191.96269702911377	response	2	2		66.0	2.5	/experiments/knapen_aot/oldvideos/R_S_yt-xQPKYWDRy2A_491.mp4	0.0	249.5100269317627	
69	191.97095489501953	fix_pre	0		56.0	67.0	2.5	/experiments/knapen_aot/oldvideos/R_S_ILSVRC2015_train_00405001.mp4	0.0	249.51828479766846	0.4666860103607178
69	192.42184591293335	response	0	2		67.0	2.5	/experiments/knapen_aot/oldvideos/R_S_ILSVRC2015_train_00405001.mp4	0.0	249.96917581558228	
69	192.43764090538025	movie	1		301.0	67.0	2.5	/experiments/knapen_aot/oldvideos/R_S_ILSVRC2015_train_00405001.mp4	0.0	249.98497080802917	2.508296012878418
69	194.94593691825867	fix_post	2		12.0	67.0	2.5	/experiments/knapen_aot/oldvideos/R_S_ILSVRC2015_train_00405001.mp4	0.0	252.4932668209076	0.10021805763244629
70	195.0461549758911	fix_pre	0		11.0	68.0	2.5	blank	1.0	252.59348487854004	0.09146595001220703
70	195.12190294265747	response	0	2		68.0	2.5	blank	1.0	252.6692328453064	
70	195.13762092590332	movie	1		301.0	68.0	2.5	blank	1.0	252.68495082855225	2.508334159851074
70	197.57107496261597	response	1	2		68.0	2.5	blank	1.0	255.1184048652649	
70	197.6459550857544	fix_post	2		12.0	68.0	2.5	blank	1.0	255.19328498840332	0.10022091865539551
71	197.7461760044098	fix_pre	0		18.0	69.0	2.5	/experiments/knapen_aot/oldvideos/R_S_yt-roThCERxVCs_133.mp4	0.0	255.29350590705872	0.14972305297851562
71	197.88771104812622	response	0	2		69.0	2.5	/experiments/knapen_aot/oldvideos/R_S_yt-roThCERxVCs_133.mp4	0.0	255.43504095077515	
71	197.8958990573883	movie	1		301.0	69.0	2.5	/experiments/knapen_aot/oldvideos/R_S_yt-roThCERxVCs_133.mp4	0.0	255.44322896003723	2.5083799362182617
71	200.40427899360657	fix_post	2		12.0	69.0	2.5	/experiments/knapen_aot/oldvideos/R_S_yt-roThCERxVCs_133.mp4	0.0	257.9516088962555	0.1000208854675293
72	200.5042998790741	fix_pre	0		14.0	70.0	2.5	/experiments/knapen_aot/oldvideos/S_yt-QI6k6mhpxLo_453.mp4	0.0	258.051629781723	0.11662006378173828
72	200.60525488853455	response	0	2		70.0	2.5	/experiments/knapen_aot/oldvideos/S_yt-QI6k6mhpxLo_453.mp4	0.0	258.1525847911835	
72	200.62091994285583	movie	1		301.0	70.0	2.5	/experiments/knapen_aot/oldvideos/S_yt-QI6k6mhpxLo_453.mp4	0.0	258.16824984550476	2.5083420276641846
72	203.12926197052002	fix_post	2		12.0	70.0	2.5	/experiments/knapen_aot/oldvideos/S_yt-QI6k6mhpxLo_453.mp4	0.0	260.67659187316895	0.09992599487304688
73	203.22918796539307	fix_pre	0		39.0	71.0	2.5	/experiments/knapen_aot/oldvideos/R_S_yt-Ndwek2tpIOA_169.mp4	0.0	260.776517868042	0.3250300884246826
73	203.5386049747467	response	0	2		71.0	2.5	/experiments/knapen_aot/oldvideos/R_S_yt-Ndwek2tpIOA_169.mp4	0.0	261.08593487739563	
73	203.55421805381775	movie	1		301.0	71.0	2.5	/experiments/knapen_aot/oldvideos/R_S_yt-Ndwek2tpIOA_169.mp4	0.0	261.1015479564667	2.5083630084991455
73	206.0625810623169	fix_post	2		12.0	71.0	2.5	/experiments/knapen_aot/oldvideos/R_S_yt-Ndwek2tpIOA_169.mp4	0.0	263.6099109649658	0.10001492500305176
74	206.16259598731995	fix_pre	0		11.0	72.0	2.5	/experiments/knapen_aot/oldvideos/R_S_yt-RqWnxg1wT-0_41.mp4	0.0	263.7099258899689	0.09209990501403809
74	206.24603009223938	response	0	2		72.0	2.5	/experiments/knapen_aot/oldvideos/R_S_yt-RqWnxg1wT-0_41.mp4	0.0	263.7933599948883	
74	206.25469589233398	movie	1		301.0	72.0	2.5	/experiments/knapen_aot/oldvideos/R_S_yt-RqWnxg1wT-0_41.mp4	0.0	263.8020257949829	2.507899045944214
74	208.7625949382782	fix_post	2		12.0	72.0	2.5	/experiments/knapen_aot/oldvideos/R_S_yt-RqWnxg1wT-0_41.mp4	0.0	266.3099248409271	0.09998512268066406
75	208.86258006095886	fix_pre	0		16.0	73.0	2.5	/experiments/knapen_aot/oldvideos/R_S_comp_L004_C011_PS_v01_SDR_PS_20180925_SDR_2K_AVC.mp4	0.0	266.4099099636078	0.1333158016204834
75	208.98771595954895	response	0	2		73.0	2.5	/experiments/knapen_aot/oldvideos/R_S_comp_L004_C011_PS_v01_SDR_PS_20180925_SDR_2K_AVC.mp4	0.0	266.5350458621979	
75	208.99589586257935	movie	1		168.0	73.0	2.5	/experiments/knapen_aot/oldvideos/R_S_comp_L004_C011_PS_v01_SDR_PS_20180925_SDR_2K_AVC.mp4	0.0	266.54322576522827	2.508319139480591
75	211.50421500205994	fix_post	2		12.0	73.0	2.5	/experiments/knapen_aot/oldvideos/R_S_comp_L004_C011_PS_v01_SDR_PS_20180925_SDR_2K_AVC.mp4	0.0	269.05154490470886	0.10004091262817383
75	211.52187609672546	response	2	2		73.0	2.5	/experiments/knapen_aot/oldvideos/R_S_comp_L004_C011_PS_v01_SDR_PS_20180925_SDR_2K_AVC.mp4	0.0	269.0692059993744	
76	211.6042559146881	fix_pre	0		27.0	74.0	2.5	/experiments/knapen_aot/oldvideos/R_S_comp_GMT308_139K_142NC_CARIBBEAN_DAY_v09_SDR_FINAL_22062018_SDR_2K_AVC.mp4	0.0	269.15158581733704	0.22498202323913574
76	211.82102608680725	response	0	2		74.0	2.5	/experiments/knapen_aot/oldvideos/R_S_comp_GMT308_139K_142NC_CARIBBEAN_DAY_v09_SDR_FINAL_22062018_SDR_2K_AVC.mp4	0.0	269.3683559894562	
76	211.82923793792725	movie	1		168.0	74.0	2.5	/experiments/knapen_aot/oldvideos/R_S_comp_GMT308_139K_142NC_CARIBBEAN_DAY_v09_SDR_FINAL_22062018_SDR_2K_AVC.mp4	0.0	269.3765678405762	2.5088860988616943
76	214.07426595687866	response	1	2		74.0	2.5	/experiments/knapen_aot/oldvideos/R_S_comp_GMT308_139K_142NC_CARIBBEAN_DAY_v09_SDR_FINAL_22062018_SDR_2K_AVC.mp4	0.0	271.6215958595276	
76	214.32928895950317	response	1	2		74.0	2.5	/experiments/knapen_aot/oldvideos/R_S_comp_GMT308_139K_142NC_CARIBBEAN_DAY_v09_SDR_FINAL_22062018_SDR_2K_AVC.mp4	0.0	271.8766188621521	
76	214.33812403678894	fix_post	2		12.0	74.0	2.5	/experiments/knapen_aot/oldvideos/R_S_comp_GMT308_139K_142NC_CARIBBEAN_DAY_v09_SDR_FINAL_22062018_SDR_2K_AVC.mp4	0.0	271.88545393943787	0.09941792488098145
77	214.43754196166992	fix_pre	0		20.0	75.0	2.5	/experiments/knapen_aot/oldvideos/R_S_yt-xBwq6sHHF5M_21.mp4	0.0	271.98487186431885	0.16667509078979492
77	214.5959689617157	response	0	2		75.0	2.5	/experiments/knapen_aot/oldvideos/R_S_yt-xBwq6sHHF5M_21.mp4	0.0	272.1432988643646	
77	214.60421705245972	movie	1		301.0	75.0	2.5	/experiments/knapen_aot/oldvideos/R_S_yt-xBwq6sHHF5M_21.mp4	0.0	272.15154695510864	2.508255958557129
77	216.5743489265442	response	1	2		75.0	2.5	/experiments/knapen_aot/oldvideos/R_S_yt-xBwq6sHHF5M_21.mp4	0.0	274.1216788291931	
77	216.84623003005981	response	1	2		75.0	2.5	/experiments/knapen_aot/oldvideos/R_S_yt-xBwq6sHHF5M_21.mp4	0.0	274.39355993270874	
77	217.01268196105957	response	1	2		75.0	2.5	/experiments/knapen_aot/oldvideos/R_S_yt-xBwq6sHHF5M_21.mp4	0.0	274.5600118637085	
77	217.11247301101685	fix_post	2		12.0	75.0	2.5	/experiments/knapen_aot/oldvideos/R_S_yt-xBwq6sHHF5M_21.mp4	0.0	274.65980291366577	0.1005098819732666
77	217.204274892807	response	2	2		75.0	2.5	/experiments/knapen_aot/oldvideos/R_S_yt-xBwq6sHHF5M_21.mp4	0.0	274.75160479545593	
78	217.2129828929901	fix_pre	0		26.0	76.0	2.5	/experiments/knapen_aot/oldvideos/S_yt-xrWo3lnbshw_80.mp4	0.0	274.76031279563904	0.2162179946899414
78	217.4209759235382	response	0	2		76.0	2.5	/experiments/knapen_aot/oldvideos/S_yt-xrWo3lnbshw_80.mp4	0.0	274.96830582618713	
78	217.42920088768005	movie	1		301.0	76.0	2.5	/experiments/knapen_aot/oldvideos/S_yt-xrWo3lnbshw_80.mp4	0.0	274.976530790329	2.5083701610565186
78	219.93757104873657	fix_post	2		12.0	76.0	2.5	/experiments/knapen_aot/oldvideos/S_yt-xrWo3lnbshw_80.mp4	0.0	277.4849009513855	0.10007095336914062
79	220.0376420021057	fix_pre	0		6.0	77.0	2.5	blank	1.0	277.58497190475464	0.05035996437072754
79	220.07924103736877	response	0	2		77.0	2.5	blank	1.0	277.6265709400177	
79	220.08800196647644	movie	1		301.0	77.0	2.5	blank	1.0	277.63533186912537	2.507884979248047
79	222.5958869457245	fix_post	2		12.0	77.0	2.5	blank	1.0	280.1432168483734	0.09999799728393555
80	222.69588494300842	fix_pre	0		31.0	78.0	2.5	/experiments/knapen_aot/oldvideos/R_S_yt-uX7qYKQm_pg_277.mp4	0.0	280.24321484565735	0.2581939697265625
80	222.9460048675537	response	0	2		78.0	2.5	/experiments/knapen_aot/oldvideos/R_S_yt-uX7qYKQm_pg_277.mp4	0.0	280.49333477020264	
80	222.95407891273499	movie	1		301.0	78.0	2.5	/experiments/knapen_aot/oldvideos/R_S_yt-uX7qYKQm_pg_277.mp4	0.0	280.5014088153839	2.508517026901245
80	225.46259593963623	fix_post	2		12.0	78.0	2.5	/experiments/knapen_aot/oldvideos/R_S_yt-uX7qYKQm_pg_277.mp4	0.0	283.00992584228516	0.0999000072479248
80	225.52926301956177	response	2	2		78.0	2.5	/experiments/knapen_aot/oldvideos/R_S_yt-uX7qYKQm_pg_277.mp4	0.0	283.0765929222107	
81	225.56249594688416	fix_pre	0		28.0	79.0	2.5	/experiments/knapen_aot/oldvideos/R_S_yt-7WYXuBHeorw_188.mp4	0.0	283.1098258495331	0.2336280345916748
81	225.7875518798828	response	0	2		79.0	2.5	/experiments/knapen_aot/oldvideos/R_S_yt-7WYXuBHeorw_188.mp4	0.0	283.33488178253174	
81	225.79612398147583	movie	1		301.0	79.0	2.5	/experiments/knapen_aot/oldvideos/R_S_yt-7WYXuBHeorw_188.mp4	0.0	283.34345388412476	2.508023977279663
81	228.3041479587555	fix_post	2		12.0	79.0	2.5	/experiments/knapen_aot/oldvideos/R_S_yt-7WYXuBHeorw_188.mp4	0.0	285.8514778614044	0.10004591941833496
82	228.40419387817383	fix_pre	0		11.0	80.0	2.5	/experiments/knapen_aot/oldvideos/S_ILSVRC2015_train_00652001.mp4	0.0	285.95152378082275	0.09171509742736816
82	228.48763394355774	response	0	2		80.0	2.5	/experiments/knapen_aot/oldvideos/S_ILSVRC2015_train_00652001.mp4	0.0	286.03496384620667	
82	228.4959089756012	movie	1		301.0	80.0	2.5	/experiments/knapen_aot/oldvideos/S_ILSVRC2015_train_00652001.mp4	0.0	286.0432388782501	2.5081779956817627
82	231.00408697128296	fix_post	2		12.0	80.0	2.5	/experiments/knapen_aot/oldvideos/S_ILSVRC2015_train_00652001.mp4	0.0	288.5514168739319	0.10024690628051758
83	231.10433387756348	fix_pre	0		37.0	81.0	2.5	/experiments/knapen_aot/oldvideos/S_yt-q9kT_c9QjbQ_34.mp4	0.0	288.6516637802124	0.30812621116638184
83	231.40420699119568	response	0	2		81.0	2.5	/experiments/knapen_aot/oldvideos/S_yt-q9kT_c9QjbQ_34.mp4	0.0	288.9515368938446	
83	231.41246008872986	movie	1		301.0	81.0	2.5	/experiments/knapen_aot/oldvideos/S_yt-q9kT_c9QjbQ_34.mp4	0.0	288.9597899913788	2.5085339546203613
83	233.92099404335022	fix_post	2		12.0	81.0	2.5	/experiments/knapen_aot/oldvideos/S_yt-q9kT_c9QjbQ_34.mp4	0.0	291.46832394599915	0.09984087944030762
84	234.02083492279053	fix_pre	0		55.0	82.0	2.5	blank	1.0	291.56816482543945	0.45832300186157227
84	234.47093391418457	response	0	2		82.0	2.5	blank	1.0	292.0182638168335	
84	234.4791579246521	movie	1		301.0	82.0	2.5	blank	1.0	292.026487827301	2.5083160400390625
84	236.98747396469116	fix_post	2		12.0	82.0	2.5	blank	1.0	294.5348038673401	0.10041999816894531
85	237.0878939628601	fix_pre	0		19.0	83.0	2.5	/experiments/knapen_aot/oldvideos/R_S_yt-zydTlQGCUjQ_277.mp4	0.0	294.63522386550903	0.15789794921875
85	237.2375509738922	response	0	2		83.0	2.5	/experiments/knapen_aot/oldvideos/R_S_yt-zydTlQGCUjQ_277.mp4	0.0	294.78488087654114	
85	237.24579191207886	movie	1		301.0	83.0	2.5	/experiments/knapen_aot/oldvideos/R_S_yt-zydTlQGCUjQ_277.mp4	0.0	294.7931218147278	2.5083541870117188
85	239.75414609909058	fix_post	2		12.0	83.0	2.5	/experiments/knapen_aot/oldvideos/R_S_yt-zydTlQGCUjQ_277.mp4	0.0	297.3014760017395	0.09991884231567383
87	239.85406494140625	stim	0		435.0					297.4013948440552	3.6249239444732666
87	239.90420508384705	response	0	2						297.451534986496	
87	243.46861100196838	response	0	space						301.0159409046173	
