trial_nr	onset	event_type	phase	response	nr_frames	movie_index	movie_duration	movie_file	blank	onset_abs	duration
0	0.12474298477172852	stim	0		44.0					140.52487516403198	0.36722302436828613
0	0.4759190082550049	response	0	space						140.87605118751526	
1	0.49196600914001465	stim	0		121.0					140.89209818840027	1.007734775543213
1	1.1249148845672607	response	0	space						141.52504706382751	
1	1.4413599967956543	response	0	space						141.8414921760559	
1	1.4997007846832275	stim	1		120.0					141.89983296394348	0.9997081756591797
1	2.324462890625	response	1	space						142.72459506988525	
2	2.4994089603424072	fix_pre	0		29.0	0.0	2.5	/experiments/knapen_aot/videos/S_yt-9CY7rDYBYUI_40.mp4	0.0	142.89954113960266	0.24199295043945312
2	2.7328178882598877	response	0	space		0.0	2.5	/experiments/knapen_aot/videos/S_yt-9CY7rDYBYUI_40.mp4	0.0	143.13295006752014	
2	2.7414019107818604	movie	1		301.0	0.0	2.5	/experiments/knapen_aot/videos/S_yt-9CY7rDYBYUI_40.mp4	0.0	143.14153409004211	2.5079538822174072
2	5.249355792999268	fix_post	2		12.0	0.0	2.5	/experiments/knapen_aot/videos/S_yt-9CY7rDYBYUI_40.mp4	0.0	145.64948797225952	0.10006499290466309
3	5.349420785903931	fix_pre	0		45.0	1.0	2.5	/experiments/knapen_aot/videos/R_S_yt-P001x88adE4_427.mp4	0.0	145.74955296516418	0.37805604934692383
3	5.720999002456665	response	0	2		1.0	2.5	/experiments/knapen_aot/videos/R_S_yt-P001x88adE4_427.mp4	0.0	146.12113118171692	
3	5.7274768352508545	movie	1		293.0	1.0	2.5	/experiments/knapen_aot/videos/R_S_yt-P001x88adE4_427.mp4	0.0	146.1276090145111	2.5051729679107666
3	8.232649803161621	fix_post	2		12.0	1.0	2.5	/experiments/knapen_aot/videos/R_S_yt-P001x88adE4_427.mp4	0.0	148.63278198242188	0.10007905960083008
4	8.332728862762451	fix_pre	0		57.0	2.0	2.5	/experiments/knapen_aot/videos/R_S_ILSVRC2015_train_00569002.mp4	0.0	148.7328610420227	0.4749939441680908
4	8.79942798614502	response	0	2		2.0	2.5	/experiments/knapen_aot/videos/R_S_ILSVRC2015_train_00569002.mp4	0.0	149.19956016540527	
4	8.807722806930542	movie	1		301.0	2.0	2.5	/experiments/knapen_aot/videos/R_S_ILSVRC2015_train_00569002.mp4	0.0	149.2078549861908	2.508347988128662
4	11.316070795059204	fix_post	2		12.0	2.0	2.5	/experiments/knapen_aot/videos/R_S_ILSVRC2015_train_00569002.mp4	0.0	151.71620297431946	0.09989619255065918
5	11.415966987609863	fix_pre	0		43.0	3.0	2.5	/experiments/knapen_aot/videos/R_S_yt-aiwDdJm1ek8_90.mp4	0.0	151.81609916687012	0.3583559989929199
5	11.766138792037964	response	0	2		3.0	2.5	/experiments/knapen_aot/videos/R_S_yt-aiwDdJm1ek8_90.mp4	0.0	152.16627097129822	
5	11.774322986602783	movie	1		301.0	3.0	2.5	/experiments/knapen_aot/videos/R_S_yt-aiwDdJm1ek8_90.mp4	0.0	152.17445516586304	2.508366823196411
5	14.282689809799194	fix_post	2		12.0	3.0	2.5	/experiments/knapen_aot/videos/R_S_yt-aiwDdJm1ek8_90.mp4	0.0	154.68282198905945	0.10000801086425781
6	14.382697820663452	fix_pre	0		51.0	4.0	2.5	/experiments/knapen_aot/videos/R_S_yt-gmiyqQDGN78_7.mp4	0.0	154.7828299999237	0.4248771667480469
6	14.79944396018982	response	0	2		4.0	2.5	/experiments/knapen_aot/videos/R_S_yt-gmiyqQDGN78_7.mp4	0.0	155.19957613945007	
6	14.807574987411499	movie	1		301.0	4.0	2.5	/experiments/knapen_aot/videos/R_S_yt-gmiyqQDGN78_7.mp4	0.0	155.20770716667175	2.508312940597534
6	17.315887928009033	fix_post	2		12.0	4.0	2.5	/experiments/knapen_aot/videos/R_S_yt-gmiyqQDGN78_7.mp4	0.0	157.7160201072693	0.10007286071777344
7	17.415960788726807	fix_pre	0		30.0	5.0	2.5	/experiments/knapen_aot/videos/R_S_yt-sWJc_Do8EaI_32.mp4	0.0	157.81609296798706	0.24996304512023926
7	17.657838821411133	response	0	2		5.0	2.5	/experiments/knapen_aot/videos/R_S_yt-sWJc_Do8EaI_32.mp4	0.0	158.0579710006714	
7	17.665923833847046	movie	1		300.0	5.0	2.5	/experiments/knapen_aot/videos/R_S_yt-sWJc_Do8EaI_32.mp4	0.0	158.0660560131073	2.5083279609680176
7	20.174251794815063	fix_post	2		12.0	5.0	2.5	/experiments/knapen_aot/videos/R_S_yt-sWJc_Do8EaI_32.mp4	0.0	160.57438397407532	0.10006403923034668
8	20.27431583404541	fix_pre	0		38.0	6.0	2.5	/experiments/knapen_aot/videos/S_yt-p0buJEEKeuI_61.mp4	0.0	160.67444801330566	0.3166079521179199
8	20.582774877548218	response	0	2		6.0	2.5	/experiments/knapen_aot/videos/S_yt-p0buJEEKeuI_61.mp4	0.0	160.98290705680847	
8	20.59092378616333	movie	1		301.0	6.0	2.5	/experiments/knapen_aot/videos/S_yt-p0buJEEKeuI_61.mp4	0.0	160.99105596542358	2.5084471702575684
8	23.0993709564209	fix_post	2		12.0	6.0	2.5	/experiments/knapen_aot/videos/S_yt-p0buJEEKeuI_61.mp4	0.0	163.49950313568115	0.10013985633850098
9	23.1995108127594	fix_pre	0		62.0	7.0	2.5	blank	1.0	163.59964299201965	0.5164041519165039
9	23.70781397819519	response	0	2		7.0	2.5	blank	1.0	164.10794615745544	
9	23.715914964675903	movie	1		301.0	7.0	2.5	blank	1.0	164.11604714393616	2.508366823196411
9	26.224281787872314	fix_post	2		12.0	7.0	2.5	blank	1.0	166.62441396713257	0.10029006004333496
10	26.32457184791565	fix_pre	0		69.0	8.0	2.5	/experiments/knapen_aot/videos/S_yt-pKl8nduxfTI_798.mp4	0.0	166.7247040271759	0.574713945388794
10	26.891170978546143	response	0	2		8.0	2.5	/experiments/knapen_aot/videos/S_yt-pKl8nduxfTI_798.mp4	0.0	167.2913031578064	
10	26.899285793304443	movie	1		301.0	8.0	2.5	/experiments/knapen_aot/videos/S_yt-pKl8nduxfTI_798.mp4	0.0	167.2994179725647	2.5083751678466797
10	29.407660961151123	fix_post	2		12.0	8.0	2.5	/experiments/knapen_aot/videos/S_yt-pKl8nduxfTI_798.mp4	0.0	169.80779314041138	0.09996986389160156
11	29.507630825042725	fix_pre	0		27.0	9.0	2.5	/experiments/knapen_aot/videos/S_yt-H2ce6U0SbVA_542.mp4	0.0	169.90776300430298	0.22508907318115234
11	29.72435998916626	response	0	2		9.0	2.5	/experiments/knapen_aot/videos/S_yt-H2ce6U0SbVA_542.mp4	0.0	170.1244921684265	
11	29.732719898223877	movie	1		300.0	9.0	2.5	/experiments/knapen_aot/videos/S_yt-H2ce6U0SbVA_542.mp4	0.0	170.13285207748413	2.5081980228424072
11	32.240917921066284	fix_post	2		12.0	9.0	2.5	/experiments/knapen_aot/videos/S_yt-H2ce6U0SbVA_542.mp4	0.0	172.64105010032654	0.0998990535736084
12	32.34081697463989	fix_pre	0		42.0	10.0	2.5	/experiments/knapen_aot/videos/R_S_comp_GMT026_363A_103NC_E1027_KOREA_JAPAN_NIGHT_v18_SDR_PS_20180907_SDR_2K_AVC.mp4	0.0	172.74094915390015	0.3500850200653076
12	32.68283486366272	response	0	2		10.0	2.5	/experiments/knapen_aot/videos/R_S_comp_GMT026_363A_103NC_E1027_KOREA_JAPAN_NIGHT_v18_SDR_PS_20180907_SDR_2K_AVC.mp4	0.0	173.08296704292297	
12	32.6909019947052	movie	1		167.0	10.0	2.5	/experiments/knapen_aot/videos/R_S_comp_GMT026_363A_103NC_E1027_KOREA_JAPAN_NIGHT_v18_SDR_PS_20180907_SDR_2K_AVC.mp4	0.0	173.09103417396545	2.508502960205078
12	35.19940495491028	fix_post	2		12.0	10.0	2.5	/experiments/knapen_aot/videos/R_S_comp_GMT026_363A_103NC_E1027_KOREA_JAPAN_NIGHT_v18_SDR_PS_20180907_SDR_2K_AVC.mp4	0.0	175.59953713417053	0.09983706474304199
13	35.29924201965332	fix_pre	0		42.0	11.0	2.5	/experiments/knapen_aot/videos/S_yt-MUfa26F8dfE_97.mp4	0.0	175.69937419891357	0.34998083114624023
13	35.63353085517883	response	0	2		11.0	2.5	/experiments/knapen_aot/videos/S_yt-MUfa26F8dfE_97.mp4	0.0	176.0336630344391	
13	35.64922285079956	movie	1		299.0	11.0	2.5	/experiments/knapen_aot/videos/S_yt-MUfa26F8dfE_97.mp4	0.0	176.04935503005981	2.508373975753784
13	38.157596826553345	fix_post	2		12.0	11.0	2.5	/experiments/knapen_aot/videos/S_yt-MUfa26F8dfE_97.mp4	0.0	178.5577290058136	0.09999918937683105
14	38.257596015930176	fix_pre	0		33.0	12.0	2.5	/experiments/knapen_aot/videos/S_ILSVRC2015_train_00165011.mp4	0.0	178.65772819519043	0.2750577926635742
14	38.52432894706726	response	0	2		12.0	2.5	/experiments/knapen_aot/videos/S_ILSVRC2015_train_00165011.mp4	0.0	178.92446112632751	
14	38.53265380859375	movie	1		301.0	12.0	2.5	/experiments/knapen_aot/videos/S_ILSVRC2015_train_00165011.mp4	0.0	178.932785987854	2.5082101821899414
14	41.04086399078369	fix_post	2		12.0	12.0	2.5	/experiments/knapen_aot/videos/S_ILSVRC2015_train_00165011.mp4	0.0	181.44099617004395	0.10004401206970215
15	41.140908002853394	fix_pre	0		49.0	13.0	2.5	blank	1.0	181.54104018211365	0.40828394889831543
15	41.540992975234985	response	0	2		13.0	2.5	blank	1.0	181.94112515449524	
15	41.54919195175171	movie	1		301.0	13.0	2.5	blank	1.0	181.94932413101196	2.5083670616149902
15	44.0575590133667	fix_post	2		12.0	13.0	2.5	blank	1.0	184.45769119262695	0.10011792182922363
16	44.15767693519592	fix_pre	0		43.0	14.0	2.5	/experiments/knapen_aot/videos/R_S_pexels-mikhail-nilov-8410088.mp4	0.0	184.55780911445618	0.3581418991088867
16	44.50770688056946	response	0	2		14.0	2.5	/experiments/knapen_aot/videos/R_S_pexels-mikhail-nilov-8410088.mp4	0.0	184.9078390598297	
16	44.51581883430481	movie	1		164.0	14.0	2.5	/experiments/knapen_aot/videos/R_S_pexels-mikhail-nilov-8410088.mp4	0.0	184.91595101356506	2.5083820819854736
16	47.02420091629028	fix_post	2		12.0	14.0	2.5	/experiments/knapen_aot/videos/R_S_pexels-mikhail-nilov-8410088.mp4	0.0	187.42433309555054	0.09997200965881348
17	47.1241729259491	fix_pre	0		47.0	15.0	2.5	/experiments/knapen_aot/videos/R_S_yt-Y7-umyL036c_507.mp4	0.0	187.52430510520935	0.3916609287261963
17	47.507659912109375	response	0	2		15.0	2.5	/experiments/knapen_aot/videos/R_S_yt-Y7-umyL036c_507.mp4	0.0	187.90779209136963	
17	47.51583385467529	movie	1		301.0	15.0	2.5	/experiments/knapen_aot/videos/R_S_yt-Y7-umyL036c_507.mp4	0.0	187.91596603393555	2.508296012878418
17	50.02412986755371	fix_post	2		12.0	15.0	2.5	/experiments/knapen_aot/videos/R_S_yt-Y7-umyL036c_507.mp4	0.0	190.42426204681396	0.10001897811889648
18	50.12414884567261	fix_pre	0		36.0	16.0	2.5	/experiments/knapen_aot/videos/S_production_ID_3943334.mp4	0.0	190.52428102493286	0.2999260425567627
18	50.41595983505249	response	0	2		16.0	2.5	/experiments/knapen_aot/videos/S_production_ID_3943334.mp4	0.0	190.81609201431274	
18	50.42407488822937	movie	1		191.0	16.0	2.5	/experiments/knapen_aot/videos/S_production_ID_3943334.mp4	0.0	190.82420706748962	2.50846004486084
18	52.93253493309021	fix_post	2		12.0	16.0	2.5	/experiments/knapen_aot/videos/S_production_ID_3943334.mp4	0.0	193.33266711235046	0.10010886192321777
19	53.03264379501343	fix_pre	0		43.0	17.0	2.5	/experiments/knapen_aot/videos/S_yt-y6JsUW0eSW8_32.mp4	0.0	193.43277597427368	0.3581840991973877
19	53.38256883621216	response	0	2		17.0	2.5	/experiments/knapen_aot/videos/S_yt-y6JsUW0eSW8_32.mp4	0.0	193.7827010154724	
19	53.390827894210815	movie	1		301.0	17.0	2.5	/experiments/knapen_aot/videos/S_yt-y6JsUW0eSW8_32.mp4	0.0	193.79096007347107	2.508362054824829
19	55.899189949035645	fix_post	2		12.0	17.0	2.5	/experiments/knapen_aot/videos/S_yt-y6JsUW0eSW8_32.mp4	0.0	196.2993221282959	0.09995484352111816
20	55.99914479255676	fix_pre	0		41.0	18.0	2.5	/experiments/knapen_aot/videos/S_yt-gDZnJCR2uXI_18.mp4	0.0	196.39927697181702	0.3583672046661377
20	56.349334955215454	response	0	2		18.0	2.5	/experiments/knapen_aot/videos/S_yt-gDZnJCR2uXI_18.mp4	0.0	196.7494671344757	
20	56.3575119972229	movie	1		300.0	18.0	2.5	/experiments/knapen_aot/videos/S_yt-gDZnJCR2uXI_18.mp4	0.0	196.75764417648315	2.508389949798584
20	58.865901947021484	fix_post	2		12.0	18.0	2.5	/experiments/knapen_aot/videos/S_yt-gDZnJCR2uXI_18.mp4	0.0	199.26603412628174	0.09991288185119629
21	58.96581482887268	fix_pre	0		52.0	19.0	2.5	/experiments/knapen_aot/videos/R_S_yt-7NjoFHBdP7c_102.mp4	0.0	199.36594700813293	0.4332730770111084
21	59.38353681564331	response	0	2		19.0	2.5	/experiments/knapen_aot/videos/R_S_yt-7NjoFHBdP7c_102.mp4	0.0	199.78366899490356	
21	59.39908790588379	movie	1		301.0	19.0	2.5	/experiments/knapen_aot/videos/R_S_yt-7NjoFHBdP7c_102.mp4	0.0	199.79922008514404	2.5084218978881836
21	61.90750980377197	fix_post	2		12.0	19.0	2.5	/experiments/knapen_aot/videos/R_S_yt-7NjoFHBdP7c_102.mp4	0.0	202.30764198303223	0.09988713264465332
22	62.007396936416626	fix_pre	0		78.0	20.0	2.5	blank	1.0	202.40752911567688	0.6501150131225586
22	62.649194955825806	response	0	2		20.0	2.5	blank	1.0	203.04932713508606	
22	62.657511949539185	movie	1		301.0	20.0	2.5	blank	1.0	203.05764412879944	2.5082859992980957
22	65.16579794883728	fix_post	2		12.0	20.0	2.5	blank	1.0	205.56593012809753	0.09994006156921387
23	65.2657380104065	fix_pre	0		108.0	21.0	2.5	/experiments/knapen_aot/videos/R_S_yt-NQSCGMpo-p8_118.mp4	0.0	205.66587018966675	0.8999338150024414
23	66.15760087966919	response	0	2		21.0	2.5	/experiments/knapen_aot/videos/R_S_yt-NQSCGMpo-p8_118.mp4	0.0	206.55773305892944	
23	66.16567182540894	movie	1		301.0	21.0	2.5	/experiments/knapen_aot/videos/R_S_yt-NQSCGMpo-p8_118.mp4	0.0	206.5658040046692	2.508437156677246
23	68.67410898208618	fix_post	2		12.0	21.0	2.5	/experiments/knapen_aot/videos/R_S_yt-NQSCGMpo-p8_118.mp4	0.0	209.07424116134644	0.0999598503112793
24	68.77406883239746	fix_pre	0		44.0	22.0	2.5	/experiments/knapen_aot/videos/R_S_yt-5AI_SyK5sg8_112.mp4	0.0	209.17420101165771	0.36667299270629883
24	69.13259291648865	response	0	2		22.0	2.5	/experiments/knapen_aot/videos/R_S_yt-5AI_SyK5sg8_112.mp4	0.0	209.5327250957489	
24	69.14074182510376	movie	1		301.0	22.0	2.5	/experiments/knapen_aot/videos/R_S_yt-5AI_SyK5sg8_112.mp4	0.0	209.540874004364	2.508345127105713
24	71.64908695220947	fix_post	2		12.0	22.0	2.5	/experiments/knapen_aot/videos/R_S_yt-5AI_SyK5sg8_112.mp4	0.0	212.04921913146973	0.10017085075378418
25	71.74925780296326	fix_pre	0		30.0	23.0	2.5	/experiments/knapen_aot/videos/S_yt-pKl8nduxfTI_798.mp4	0.0	212.1493899822235	0.25814318656921387
25	71.99917888641357	response	0	2		23.0	2.5	/experiments/knapen_aot/videos/S_yt-pKl8nduxfTI_798.mp4	0.0	212.39931106567383	
25	72.00740098953247	movie	1		301.0	23.0	2.5	/experiments/knapen_aot/videos/S_yt-pKl8nduxfTI_798.mp4	0.0	212.40753316879272	2.5083107948303223
25	74.5157117843628	fix_post	2		12.0	23.0	2.5	/experiments/knapen_aot/videos/S_yt-pKl8nduxfTI_798.mp4	0.0	214.91584396362305	0.10002017021179199
26	74.61573195457458	fix_pre	0		42.0	24.0	2.5	/experiments/knapen_aot/videos/S_yt-Ol4xuEA8xQc_776.mp4	0.0	215.01586413383484	0.3499889373779297
26	74.95746779441833	response	0	2		24.0	2.5	/experiments/knapen_aot/videos/S_yt-Ol4xuEA8xQc_776.mp4	0.0	215.3575999736786	
26	74.96572089195251	movie	1		301.0	24.0	2.5	/experiments/knapen_aot/videos/S_yt-Ol4xuEA8xQc_776.mp4	0.0	215.36585307121277	2.508371114730835
26	77.47409200668335	fix_post	2		12.0	24.0	2.5	/experiments/knapen_aot/videos/S_yt-Ol4xuEA8xQc_776.mp4	0.0	217.8742241859436	0.10009598731994629
27	77.5741879940033	fix_pre	0		39.0	25.0	2.5	/experiments/knapen_aot/videos/R_S_ILSVRC2015_train_00408000.mp4	0.0	217.97432017326355	0.32486391067504883
27	77.89079093933105	response	0	2		25.0	2.5	/experiments/knapen_aot/videos/R_S_ILSVRC2015_train_00408000.mp4	0.0	218.2909231185913	
27	77.89905190467834	movie	1		301.0	25.0	2.5	/experiments/knapen_aot/videos/R_S_ILSVRC2015_train_00408000.mp4	0.0	218.2991840839386	2.508347988128662
27	80.407399892807	fix_post	2		12.0	25.0	2.5	/experiments/knapen_aot/videos/R_S_ILSVRC2015_train_00408000.mp4	0.0	220.80753207206726	0.09999990463256836
28	80.50739979743958	fix_pre	0		62.0	26.0	2.5	blank	1.0	220.90753197669983	0.5165791511535645
28	81.00821280479431	response	0	2		26.0	2.5	blank	1.0	221.40834498405457	
28	81.02397894859314	movie	1		301.0	26.0	2.5	blank	1.0	221.4241111278534	2.508358955383301
28	83.53233790397644	fix_post	2		12.0	26.0	2.5	blank	1.0	223.9324700832367	0.09999608993530273
29	83.63233399391174	fix_pre	0		38.0	27.0	2.5	/experiments/knapen_aot/videos/S_yt-N1ZrWT4xyzc_85.mp4	0.0	224.032466173172	0.3166968822479248
29	83.9408369064331	response	0	2		27.0	2.5	/experiments/knapen_aot/videos/S_yt-N1ZrWT4xyzc_85.mp4	0.0	224.34096908569336	
29	83.94903087615967	movie	1		301.0	27.0	2.5	/experiments/knapen_aot/videos/S_yt-N1ZrWT4xyzc_85.mp4	0.0	224.34916305541992	2.5083069801330566
29	86.45733785629272	fix_post	2		12.0	27.0	2.5	/experiments/knapen_aot/videos/S_yt-N1ZrWT4xyzc_85.mp4	0.0	226.85747003555298	0.09998798370361328
30	86.55732583999634	fix_pre	0		58.0	28.0	2.5	/experiments/knapen_aot/videos/R_S_Y011_C008_SDR_2K_AVC.mp4	0.0	226.9574580192566	0.48339200019836426
30	87.02497291564941	response	0	2		28.0	2.5	/experiments/knapen_aot/videos/R_S_Y011_C008_SDR_2K_AVC.mp4	0.0	227.42510509490967	
30	87.0407178401947	movie	1		173.0	28.0	2.5	/experiments/knapen_aot/videos/R_S_Y011_C008_SDR_2K_AVC.mp4	0.0	227.44085001945496	2.508223056793213
30	89.54894089698792	fix_post	2		12.0	28.0	2.5	/experiments/knapen_aot/videos/R_S_Y011_C008_SDR_2K_AVC.mp4	0.0	229.94907307624817	0.10003304481506348
31	89.64897394180298	fix_pre	0		54.0	29.0	2.5	/experiments/knapen_aot/videos/R_S_yt-H45g6700wbc_159.mp4	0.0	230.04910612106323	0.44997692108154297
31	90.09070587158203	response	0	2		29.0	2.5	/experiments/knapen_aot/videos/R_S_yt-H45g6700wbc_159.mp4	0.0	230.49083805084229	
31	90.09895086288452	movie	1		301.0	29.0	2.5	/experiments/knapen_aot/videos/R_S_yt-H45g6700wbc_159.mp4	0.0	230.49908304214478	2.508415937423706
31	92.60736680030823	fix_post	2		12.0	29.0	2.5	/experiments/knapen_aot/videos/R_S_yt-H45g6700wbc_159.mp4	0.0	233.00749897956848	0.0999600887298584
32	92.70732688903809	fix_pre	0		51.0	30.0	2.5	/experiments/knapen_aot/videos/S_video-6.mp4	0.0	233.10745906829834	0.4249598979949951
32	93.12402081489563	response	0	2		30.0	2.5	/experiments/knapen_aot/videos/S_video-6.mp4	0.0	233.52415299415588	
32	93.13228678703308	movie	1		166.0	30.0	2.5	/experiments/knapen_aot/videos/S_video-6.mp4	0.0	233.53241896629333	2.5083401203155518
32	95.64062690734863	fix_post	2		12.0	30.0	2.5	/experiments/knapen_aot/videos/S_video-6.mp4	0.0	236.0407590866089	0.10000109672546387
33	95.7406280040741	fix_pre	0		96.0	31.0	2.5	/experiments/knapen_aot/videos/S_yt-gaXgXGEanCk_140.mp4	0.0	236.14076018333435	0.7999567985534668
33	96.52486085891724	response	0	2		31.0	2.5	/experiments/knapen_aot/videos/S_yt-gaXgXGEanCk_140.mp4	0.0	236.9249930381775	
33	96.54058480262756	movie	1		298.0	31.0	2.5	/experiments/knapen_aot/videos/S_yt-gaXgXGEanCk_140.mp4	0.0	236.94071698188782	2.508385181427002
33	99.04896998405457	fix_post	2		12.0	31.0	2.5	/experiments/knapen_aot/videos/S_yt-gaXgXGEanCk_140.mp4	0.0	239.44910216331482	0.09999680519104004
34	99.1489667892456	fix_pre	0		64.0	32.0	2.5	/experiments/knapen_aot/videos/R_S_yt-xQPKYWDRy2A_491.mp4	0.0	239.54909896850586	0.5333170890808105
34	99.67409586906433	response	0	2		32.0	2.5	/experiments/knapen_aot/videos/R_S_yt-xQPKYWDRy2A_491.mp4	0.0	240.07422804832458	
34	99.68228387832642	movie	1		301.0	32.0	2.5	/experiments/knapen_aot/videos/R_S_yt-xQPKYWDRy2A_491.mp4	0.0	240.08241605758667	2.5083091259002686
34	102.19059300422668	fix_post	2		12.0	32.0	2.5	/experiments/knapen_aot/videos/R_S_yt-xQPKYWDRy2A_491.mp4	0.0	242.59072518348694	0.10001587867736816
35	102.29060888290405	fix_pre	0		38.0	33.0	2.5	blank	1.0	242.6907410621643	0.3166661262512207
35	102.5990149974823	response	0	2		33.0	2.5	blank	1.0	242.99914717674255	
35	102.60727500915527	movie	1		301.0	33.0	2.5	blank	1.0	243.00740718841553	2.508340835571289
35	105.11561584472656	fix_post	2		12.0	33.0	2.5	blank	1.0	245.51574802398682	0.09996604919433594
36	105.2155818939209	fix_pre	0		48.0	34.0	2.5	/experiments/knapen_aot/videos/R_S_yt-2cwARrUMj40_67.mp4	0.0	245.61571407318115	0.3999950885772705
36	105.60739398002625	response	0	2		34.0	2.5	/experiments/knapen_aot/videos/R_S_yt-2cwARrUMj40_67.mp4	0.0	246.0075261592865	
36	105.61557698249817	movie	1		301.0	34.0	2.5	/experiments/knapen_aot/videos/R_S_yt-2cwARrUMj40_67.mp4	0.0	246.01570916175842	2.508363962173462
36	108.12394094467163	fix_post	2		12.0	34.0	2.5	/experiments/knapen_aot/videos/R_S_yt-2cwARrUMj40_67.mp4	0.0	248.52407312393188	0.09987902641296387
37	108.2238199710846	fix_pre	0		53.0	35.0	2.5	/experiments/knapen_aot/videos/R_S_yt-v66td-1WO7w_44.mp4	0.0	248.62395215034485	0.44171595573425293
37	108.65739488601685	response	0	2		35.0	2.5	/experiments/knapen_aot/videos/R_S_yt-v66td-1WO7w_44.mp4	0.0	249.0575270652771	
37	108.66553592681885	movie	1		300.0	35.0	2.5	/experiments/knapen_aot/videos/R_S_yt-v66td-1WO7w_44.mp4	0.0	249.0656681060791	2.5083298683166504
37	111.1738657951355	fix_post	2		12.0	35.0	2.5	/experiments/knapen_aot/videos/R_S_yt-v66td-1WO7w_44.mp4	0.0	251.57399797439575	0.09999513626098633
38	111.27386093139648	fix_pre	0		49.0	36.0	2.5	/experiments/knapen_aot/videos/S_Xq0a2BWE3zA_53.mp4	0.0	251.67399311065674	0.4082798957824707
38	111.6740198135376	response	0	2		36.0	2.5	/experiments/knapen_aot/videos/S_Xq0a2BWE3zA_53.mp4	0.0	252.07415199279785	
38	111.68214082717896	movie	1		301.0	36.0	2.5	/experiments/knapen_aot/videos/S_Xq0a2BWE3zA_53.mp4	0.0	252.0822730064392	2.508380174636841
38	114.1905210018158	fix_post	2		12.0	36.0	2.5	/experiments/knapen_aot/videos/S_Xq0a2BWE3zA_53.mp4	0.0	254.59065318107605	0.09998393058776855
39	114.29050493240356	fix_pre	0		37.0	37.0	2.5	/experiments/knapen_aot/videos/S_yt-G65z8p1YNhw_16.mp4	0.0	254.69063711166382	0.30835986137390137
39	114.59063196182251	response	0	2		37.0	2.5	/experiments/knapen_aot/videos/S_yt-G65z8p1YNhw_16.mp4	0.0	254.99076414108276	
39	114.59886479377747	movie	1		301.0	37.0	2.5	/experiments/knapen_aot/videos/S_yt-G65z8p1YNhw_16.mp4	0.0	254.99899697303772	2.5082881450653076
39	117.10715293884277	fix_post	2		12.0	37.0	2.5	/experiments/knapen_aot/videos/S_yt-G65z8p1YNhw_16.mp4	0.0	257.507285118103	0.10002493858337402
40	117.20717787742615	fix_pre	0		47.0	38.0	2.5	/experiments/knapen_aot/videos/S_yt-gPhlnZG-pRY_4.mp4	0.0	257.6073100566864	0.39160799980163574
40	117.59071183204651	response	0	2		38.0	2.5	/experiments/knapen_aot/videos/S_yt-gPhlnZG-pRY_4.mp4	0.0	257.99084401130676	
40	117.59878587722778	movie	1		301.0	38.0	2.5	/experiments/knapen_aot/videos/S_yt-gPhlnZG-pRY_4.mp4	0.0	257.99891805648804	2.508439064025879
40	120.10722494125366	fix_post	2		12.0	38.0	2.5	/experiments/knapen_aot/videos/S_yt-gPhlnZG-pRY_4.mp4	0.0	260.5073571205139	0.09997701644897461
41	120.20720195770264	fix_pre	0		48.0	39.0	2.5	/experiments/knapen_aot/videos/S_ILSVRC2015_train_00689000.mp4	0.0	260.6073341369629	0.401094913482666
41	120.59900283813477	response	0	2		39.0	2.5	/experiments/knapen_aot/videos/S_ILSVRC2015_train_00689000.mp4	0.0	260.999135017395	
41	120.6082968711853	movie	1		301.0	39.0	2.5	/experiments/knapen_aot/videos/S_ILSVRC2015_train_00689000.mp4	0.0	261.00842905044556	2.507172107696533
41	123.11546897888184	fix_post	2		12.0	39.0	2.5	/experiments/knapen_aot/videos/S_ILSVRC2015_train_00689000.mp4	0.0	263.5156011581421	0.10006189346313477
42	123.21553087234497	fix_pre	0		25.0	40.0	2.5	blank	1.0	263.6156630516052	0.20831799507141113
42	123.41574287414551	response	0	2		40.0	2.5	blank	1.0	263.81587505340576	
42	123.42384886741638	movie	1		301.0	40.0	2.5	blank	1.0	263.82398104667664	2.5083320140838623
42	125.93218088150024	fix_post	2		12.0	40.0	2.5	blank	1.0	266.3323130607605	0.0999910831451416
43	126.03217196464539	fix_pre	0		50.0	41.0	2.5	/experiments/knapen_aot/videos/S_ILSVRC2015_train_00303008.mp4	0.0	266.43230414390564	0.4165689945220947
43	126.44058179855347	response	0	2		41.0	2.5	/experiments/knapen_aot/videos/S_ILSVRC2015_train_00303008.mp4	0.0	266.8407139778137	
43	126.44874095916748	movie	1		301.0	41.0	2.5	/experiments/knapen_aot/videos/S_ILSVRC2015_train_00303008.mp4	0.0	266.84887313842773	2.5083389282226562
43	128.95707988739014	fix_post	2		12.0	41.0	2.5	/experiments/knapen_aot/videos/S_ILSVRC2015_train_00303008.mp4	0.0	269.3572120666504	0.10007190704345703
44	129.0571517944336	fix_pre	0		23.0	42.0	2.5	/experiments/knapen_aot/videos/R_S_yt-Ja7d2a6e5xE_279.mp4	0.0	269.45728397369385	0.19158720970153809
44	129.24062085151672	response	0	2		42.0	2.5	/experiments/knapen_aot/videos/R_S_yt-Ja7d2a6e5xE_279.mp4	0.0	269.640753030777	
44	129.24873900413513	movie	1		301.0	42.0	2.5	/experiments/knapen_aot/videos/R_S_yt-Ja7d2a6e5xE_279.mp4	0.0	269.6488711833954	2.5084009170532227
44	131.75713992118835	fix_post	2		12.0	42.0	2.5	/experiments/knapen_aot/videos/R_S_yt-Ja7d2a6e5xE_279.mp4	0.0	272.1572721004486	0.10001301765441895
45	131.85715293884277	fix_pre	0		31.0	43.0	2.5	/experiments/knapen_aot/videos/S_59eT4XDXNno_25.mp4	0.0	272.257285118103	0.25834107398986816
45	132.10725784301758	response	0	2		43.0	2.5	/experiments/knapen_aot/videos/S_59eT4XDXNno_25.mp4	0.0	272.50739002227783	
45	132.11549401283264	movie	1		301.0	43.0	2.5	/experiments/knapen_aot/videos/S_59eT4XDXNno_25.mp4	0.0	272.5156261920929	2.5082550048828125
45	134.62374901771545	fix_post	2		12.0	43.0	2.5	/experiments/knapen_aot/videos/S_59eT4XDXNno_25.mp4	0.0	275.0238811969757	0.10025691986083984
46	134.7240059375763	fix_pre	0		54.0	44.0	2.5	/experiments/knapen_aot/videos/S_yt-fGN7sGPy8BA_13.mp4	0.0	275.12413811683655	0.4498269557952881
46	135.15800094604492	response	0	2		44.0	2.5	/experiments/knapen_aot/videos/S_yt-fGN7sGPy8BA_13.mp4	0.0	275.5581331253052	
46	135.17383289337158	movie	1		301.0	44.0	2.5	/experiments/knapen_aot/videos/S_yt-fGN7sGPy8BA_13.mp4	0.0	275.57396507263184	2.508268117904663
46	137.68210101127625	fix_post	2		12.0	44.0	2.5	/experiments/knapen_aot/videos/S_yt-fGN7sGPy8BA_13.mp4	0.0	278.0822331905365	0.10002493858337402
47	137.78212594985962	fix_pre	0		54.0	45.0	2.5	/experiments/knapen_aot/videos/R_S_yt-gaXgXGEanCk_140.mp4	0.0	278.1822581291199	0.45097804069519043
47	138.2239339351654	response	0	2		45.0	2.5	/experiments/knapen_aot/videos/R_S_yt-gaXgXGEanCk_140.mp4	0.0	278.62406611442566	
47	138.2331039905548	movie	1		301.0	45.0	2.5	/experiments/knapen_aot/videos/R_S_yt-gaXgXGEanCk_140.mp4	0.0	278.63323616981506	2.5072638988494873
47	140.7403678894043	fix_post	2		12.0	45.0	2.5	/experiments/knapen_aot/videos/R_S_yt-gaXgXGEanCk_140.mp4	0.0	281.14050006866455	0.10007905960083008
48	140.84044694900513	fix_pre	0		47.0	46.0	2.5	/experiments/knapen_aot/videos/R_S_wc-Mf8SQpviaD6D_17.mp4	0.0	281.2405791282654	0.39267587661743164
48	141.22382998466492	response	0	2		46.0	2.5	/experiments/knapen_aot/videos/R_S_wc-Mf8SQpviaD6D_17.mp4	0.0	281.62396216392517	
48	141.23312282562256	movie	1		171.0	46.0	2.5	/experiments/knapen_aot/videos/R_S_wc-Mf8SQpviaD6D_17.mp4	0.0	281.6332550048828	2.5073230266571045
48	143.74044585227966	fix_post	2		12.0	46.0	2.5	/experiments/knapen_aot/videos/R_S_wc-Mf8SQpviaD6D_17.mp4	0.0	284.1405780315399	0.0999000072479248
49	143.8403458595276	fix_pre	0		56.0	47.0	2.5	blank	1.0	284.24047803878784	0.46675896644592285
49	144.29880499839783	response	0	2		47.0	2.5	blank	1.0	284.6989371776581	
49	144.3071048259735	movie	1		301.0	47.0	2.5	blank	1.0	284.70723700523376	2.508315086364746
49	146.81541991233826	fix_post	2		12.0	47.0	2.5	blank	1.0	287.2155520915985	0.09992694854736328
50	146.91534686088562	fix_pre	0		64.0	48.0	2.5	/experiments/knapen_aot/videos/S_video-9.mp4	0.0	287.3154790401459	0.5333890914916992
50	147.44052600860596	response	0	2		48.0	2.5	/experiments/knapen_aot/videos/S_video-9.mp4	0.0	287.8406581878662	
50	147.44873595237732	movie	1		194.0	48.0	2.5	/experiments/knapen_aot/videos/S_video-9.mp4	0.0	287.8488681316376	2.5083439350128174
50	149.95707988739014	fix_post	2		12.0	48.0	2.5	/experiments/knapen_aot/videos/S_video-9.mp4	0.0	290.3572120666504	0.10000109672546387
51	150.0570809841156	fix_pre	0		127.0	49.0	2.5	/experiments/knapen_aot/videos/S_yt-hRAqAwRhmwE_58.mp4	0.0	290.45721316337585	1.0582878589630127
51	151.107342004776	response	0	2		49.0	2.5	/experiments/knapen_aot/videos/S_yt-hRAqAwRhmwE_58.mp4	0.0	291.50747418403625	
51	151.1153688430786	movie	1		301.0	49.0	2.5	/experiments/knapen_aot/videos/S_yt-hRAqAwRhmwE_58.mp4	0.0	291.51550102233887	2.5083470344543457
51	153.62371587753296	fix_post	2		12.0	49.0	2.5	/experiments/knapen_aot/videos/S_yt-hRAqAwRhmwE_58.mp4	0.0	294.0238480567932	0.10000896453857422
52	153.72372484207153	fix_pre	0		32.0	50.0	2.5	/experiments/knapen_aot/videos/S_yt-fGN7sGPy8BA_13.mp4	0.0	294.1238570213318	0.2665581703186035
52	153.982115983963	response	0	2		50.0	2.5	/experiments/knapen_aot/videos/S_yt-fGN7sGPy8BA_13.mp4	0.0	294.38224816322327	
52	153.99028301239014	movie	1		300.0	50.0	2.5	/experiments/knapen_aot/videos/S_yt-fGN7sGPy8BA_13.mp4	0.0	294.3904151916504	2.5083580017089844
52	156.49864101409912	fix_post	2		12.0	50.0	2.5	/experiments/knapen_aot/videos/S_yt-fGN7sGPy8BA_13.mp4	0.0	296.8987731933594	0.10003995895385742
53	156.59868097305298	fix_pre	0		37.0	51.0	2.5	/experiments/knapen_aot/videos/S_yt-N1EsjM9gD5Q_21.mp4	0.0	296.99881315231323	0.30833888053894043
53	156.89877700805664	response	0	2		51.0	2.5	/experiments/knapen_aot/videos/S_yt-N1EsjM9gD5Q_21.mp4	0.0	297.2989091873169	
53	156.90701985359192	movie	1		301.0	51.0	2.5	/experiments/knapen_aot/videos/S_yt-N1EsjM9gD5Q_21.mp4	0.0	297.3071520328522	2.508255958557129
53	159.41527581214905	fix_post	2		12.0	51.0	2.5	/experiments/knapen_aot/videos/S_yt-N1EsjM9gD5Q_21.mp4	0.0	299.8154079914093	0.10008406639099121
54	159.51535987854004	fix_pre	0		35.0	52.0	2.5	/experiments/knapen_aot/videos/S_yt-ejSzwn8tY8g_49.mp4	0.0	299.9154920578003	0.29169797897338867
54	159.79878187179565	response	0	2		52.0	2.5	/experiments/knapen_aot/videos/S_yt-ejSzwn8tY8g_49.mp4	0.0	300.1989140510559	
54	159.80705785751343	movie	1		301.0	52.0	2.5	/experiments/knapen_aot/videos/S_yt-ejSzwn8tY8g_49.mp4	0.0	300.2071900367737	2.5083420276641846
54	162.3153998851776	fix_post	2		12.0	52.0	2.5	/experiments/knapen_aot/videos/S_yt-ejSzwn8tY8g_49.mp4	0.0	302.71553206443787	0.10000491142272949
55	162.41540479660034	fix_pre	0		80.0	53.0	2.5	/experiments/knapen_aot/videos/R_S_ILSVRC2015_train_00369002.mp4	0.0	302.8155369758606	0.6666381359100342
55	163.07390093803406	response	0	2		53.0	2.5	/experiments/knapen_aot/videos/R_S_ILSVRC2015_train_00369002.mp4	0.0	303.4740331172943	
55	163.08204293251038	movie	1		300.0	53.0	2.5	/experiments/knapen_aot/videos/R_S_ILSVRC2015_train_00369002.mp4	0.0	303.48217511177063	2.508316993713379
55	165.59035992622375	fix_post	2		12.0	53.0	2.5	/experiments/knapen_aot/videos/R_S_ILSVRC2015_train_00369002.mp4	0.0	305.990492105484	0.10001301765441895
56	165.69037294387817	fix_pre	0		41.0	54.0	2.5	blank	1.0	306.0905051231384	0.3416869640350342
56	166.02387881278992	response	0	2		54.0	2.5	blank	1.0	306.42401099205017	
56	166.0320599079132	movie	1		301.0	54.0	2.5	blank	1.0	306.43219208717346	2.5083019733428955
56	168.5403618812561	fix_post	2		12.0	54.0	2.5	blank	1.0	308.94049406051636	0.10002613067626953
57	168.64038801193237	fix_pre	0		318.0	55.0	2.5	/experiments/knapen_aot/videos/R_S_yt-K0CzoUy_uIA_22.mp4	0.0	309.0405201911926	2.6499087810516357
57	171.28213596343994	response	0	2		55.0	2.5	/experiments/knapen_aot/videos/R_S_yt-K0CzoUy_uIA_22.mp4	0.0	311.6822681427002	
57	171.290296792984	movie	1		301.0	55.0	2.5	/experiments/knapen_aot/videos/R_S_yt-K0CzoUy_uIA_22.mp4	0.0	311.69042897224426	2.5083529949188232
57	173.79864978790283	fix_post	2		12.0	55.0	2.5	/experiments/knapen_aot/videos/R_S_yt-K0CzoUy_uIA_22.mp4	0.0	314.1987819671631	0.10005402565002441
58	173.89870381355286	fix_pre	0		70.0	56.0	2.5	/experiments/knapen_aot/videos/R_S_yt-pKl8nduxfTI_798.mp4	0.0	314.2988359928131	0.5840702056884766
58	174.47383880615234	response	0	2		56.0	2.5	/experiments/knapen_aot/videos/R_S_yt-pKl8nduxfTI_798.mp4	0.0	314.8739709854126	
58	174.48277401924133	movie	1		300.0	56.0	2.5	/experiments/knapen_aot/videos/R_S_yt-pKl8nduxfTI_798.mp4	0.0	314.8829061985016	2.507490873336792
58	176.99026489257812	fix_post	2		12.0	56.0	2.5	/experiments/knapen_aot/videos/R_S_yt-pKl8nduxfTI_798.mp4	0.0	317.3903970718384	0.10003304481506348
59	177.0902979373932	fix_pre	0		44.0	57.0	2.5	/experiments/knapen_aot/videos/R_S_ILSVRC2015_train_00599000.mp4	0.0	317.49043011665344	0.3665909767150879
59	177.4487659931183	response	0	2		57.0	2.5	/experiments/knapen_aot/videos/R_S_ILSVRC2015_train_00599000.mp4	0.0	317.84889817237854	
59	177.45688891410828	movie	1		301.0	57.0	2.5	/experiments/knapen_aot/videos/R_S_ILSVRC2015_train_00599000.mp4	0.0	317.85702109336853	2.5085110664367676
59	179.96539998054504	fix_post	2		12.0	57.0	2.5	/experiments/knapen_aot/videos/R_S_ILSVRC2015_train_00599000.mp4	0.0	320.3655321598053	0.09985184669494629
60	180.06525182724	fix_pre	0		70.0	58.0	2.5	/experiments/knapen_aot/videos/S_yt-v66td-1WO7w_44.mp4	0.0	320.46538400650024	0.5841691493988037
60	180.64044499397278	response	0	2		58.0	2.5	/experiments/knapen_aot/videos/S_yt-v66td-1WO7w_44.mp4	0.0	321.04057717323303	
60	180.6494209766388	movie	1		301.0	58.0	2.5	/experiments/knapen_aot/videos/S_yt-v66td-1WO7w_44.mp4	0.0	321.04955315589905	2.507498025894165
60	183.15691900253296	fix_post	2		12.0	58.0	2.5	/experiments/knapen_aot/videos/S_yt-v66td-1WO7w_44.mp4	0.0	323.5570511817932	0.09997797012329102
61	183.25689697265625	fix_pre	0		72.0	59.0	2.5	/experiments/knapen_aot/videos/R_S_yt-UBqUhu-GEVg_6.mp4	0.0	323.6570291519165	0.6007609367370605
61	183.84869980812073	response	0	2		59.0	2.5	/experiments/knapen_aot/videos/R_S_yt-UBqUhu-GEVg_6.mp4	0.0	324.248831987381	
61	183.8576579093933	movie	1		301.0	59.0	2.5	/experiments/knapen_aot/videos/R_S_yt-UBqUhu-GEVg_6.mp4	0.0	324.25779008865356	2.507598876953125
61	186.36525678634644	fix_post	2		12.0	59.0	2.5	/experiments/knapen_aot/videos/R_S_yt-UBqUhu-GEVg_6.mp4	0.0	326.7653889656067	0.09996199607849121
62	186.46521878242493	fix_pre	0		36.0	60.0	2.5	/experiments/knapen_aot/videos/R_S_yt-fGN7sGPy8BA_13.mp4	0.0	326.8653509616852	0.3000051975250244
62	186.75705981254578	response	0	2		60.0	2.5	/experiments/knapen_aot/videos/R_S_yt-fGN7sGPy8BA_13.mp4	0.0	327.15719199180603	
62	186.76522397994995	movie	1		301.0	60.0	2.5	/experiments/knapen_aot/videos/R_S_yt-fGN7sGPy8BA_13.mp4	0.0	327.1653561592102	2.5082828998565674
62	189.27350687980652	fix_post	2		12.0	60.0	2.5	/experiments/knapen_aot/videos/R_S_yt-fGN7sGPy8BA_13.mp4	0.0	329.6736390590668	0.10003495216369629
63	189.37354183197021	fix_pre	0		63.0	61.0	2.5	/experiments/knapen_aot/videos/S_yt-83nimFMNhrM_131.mp4	0.0	329.77367401123047	0.5258049964904785
63	189.89035487174988	response	0	2		61.0	2.5	/experiments/knapen_aot/videos/S_yt-83nimFMNhrM_131.mp4	0.0	330.29048705101013	
63	189.8993468284607	movie	1		301.0	61.0	2.5	/experiments/knapen_aot/videos/S_yt-83nimFMNhrM_131.mp4	0.0	330.29947900772095	2.507519006729126
63	192.40686583518982	fix_post	2		12.0	61.0	2.5	/experiments/knapen_aot/videos/S_yt-83nimFMNhrM_131.mp4	0.0	332.8069980144501	0.09996414184570312
64	192.50682997703552	fix_pre	0		51.0	62.0	2.5	/experiments/knapen_aot/videos/R_S_pexels-rodnae-productions-7467585.mp4	0.0	332.9069621562958	0.4250500202178955
64	192.92369389533997	response	0	2		62.0	2.5	/experiments/knapen_aot/videos/R_S_pexels-rodnae-productions-7467585.mp4	0.0	333.3238260746002	
64	192.93187999725342	movie	1		166.0	62.0	2.5	/experiments/knapen_aot/videos/R_S_pexels-rodnae-productions-7467585.mp4	0.0	333.3320121765137	2.508297920227051
64	195.44017791748047	fix_post	2		12.0	62.0	2.5	/experiments/knapen_aot/videos/R_S_pexels-rodnae-productions-7467585.mp4	0.0	335.8403100967407	0.10003900527954102
65	195.54021692276	fix_pre	0		33.0	63.0	2.5	blank	1.0	335.94034910202026	0.2757558822631836
65	195.8070068359375	response	0	2		63.0	2.5	blank	1.0	336.20713901519775	
65	195.8159728050232	movie	1		301.0	63.0	2.5	blank	1.0	336.21610498428345	2.5075531005859375
65	198.32352590560913	fix_post	2		12.0	63.0	2.5	blank	1.0	338.7236580848694	0.09994006156921387
66	198.42346596717834	fix_pre	0		86.0	64.0	2.5	/experiments/knapen_aot/videos/R_S_yt-W00vtWnXgIk_73.mp4	0.0	338.8235981464386	0.7167060375213623
66	199.1319718360901	response	0	2		64.0	2.5	/experiments/knapen_aot/videos/R_S_yt-W00vtWnXgIk_73.mp4	0.0	339.53210401535034	
66	199.1401720046997	movie	1		301.0	64.0	2.5	/experiments/knapen_aot/videos/R_S_yt-W00vtWnXgIk_73.mp4	0.0	339.54030418395996	2.5082998275756836
66	201.6484718322754	fix_post	2		12.0	64.0	2.5	/experiments/knapen_aot/videos/R_S_yt-W00vtWnXgIk_73.mp4	0.0	342.04860401153564	0.10007500648498535
67	201.74854683876038	fix_pre	0		85.0	65.0	2.5	/experiments/knapen_aot/videos/S_ILSVRC2015_train_00303008.mp4	0.0	342.14867901802063	0.708245038986206
67	202.4486939907074	response	0	2		65.0	2.5	/experiments/knapen_aot/videos/S_ILSVRC2015_train_00303008.mp4	0.0	342.84882616996765	
67	202.45679187774658	movie	1		301.0	65.0	2.5	/experiments/knapen_aot/videos/S_ILSVRC2015_train_00303008.mp4	0.0	342.85692405700684	2.5082950592041016
67	204.96508693695068	fix_post	2		12.0	65.0	2.5	/experiments/knapen_aot/videos/S_ILSVRC2015_train_00303008.mp4	0.0	345.36521911621094	0.10009098052978516
68	205.06517791748047	fix_pre	0		69.0	66.0	2.5	/experiments/knapen_aot/videos/R_S_ILSVRC2015_train_00369002.mp4	0.0	345.4653100967407	0.5750360488891602
68	205.63195395469666	response	0	2		66.0	2.5	/experiments/knapen_aot/videos/R_S_ILSVRC2015_train_00369002.mp4	0.0	346.0320861339569	
68	205.64021396636963	movie	1		301.0	66.0	2.5	/experiments/knapen_aot/videos/R_S_ILSVRC2015_train_00369002.mp4	0.0	346.0403461456299	2.5082809925079346
68	208.14849495887756	fix_post	2		12.0	66.0	2.5	/experiments/knapen_aot/videos/R_S_ILSVRC2015_train_00369002.mp4	0.0	348.5486271381378	0.10000205039978027
69	208.24849700927734	fix_pre	0		39.0	67.0	2.5	/experiments/knapen_aot/videos/R_S_ILSVRC2015_train_00303005.mp4	0.0	348.6486291885376	0.3249349594116211
69	208.5652678012848	response	0	2		67.0	2.5	/experiments/knapen_aot/videos/R_S_ILSVRC2015_train_00303005.mp4	0.0	348.96539998054504	
69	208.57343196868896	movie	1		301.0	67.0	2.5	/experiments/knapen_aot/videos/R_S_ILSVRC2015_train_00303005.mp4	0.0	348.9735641479492	2.5083279609680176
69	211.08175992965698	fix_post	2		12.0	67.0	2.5	/experiments/knapen_aot/videos/R_S_ILSVRC2015_train_00303005.mp4	0.0	351.48189210891724	0.09999299049377441
70	211.18175292015076	fix_pre	0		36.0	68.0	2.5	blank	1.0	351.581885099411	0.3007040023803711
70	211.4735507965088	response	0	2		68.0	2.5	blank	1.0	351.87368297576904	
70	211.48245692253113	movie	1		301.0	68.0	2.5	blank	1.0	351.8825891017914	2.5076608657836914
70	213.99011778831482	fix_post	2		12.0	68.0	2.5	blank	1.0	354.3902499675751	0.10000109672546387
71	214.09011888504028	fix_pre	0		75.0	69.0	2.5	/experiments/knapen_aot/videos/S_yt-gzjV6YoK6X0_3.mp4	0.0	354.49025106430054	0.625
71	214.7069058418274	response	0	2		69.0	2.5	/experiments/knapen_aot/videos/S_yt-gzjV6YoK6X0_3.mp4	0.0	355.10703802108765	
71	214.71511888504028	movie	1		301.0	69.0	2.5	/experiments/knapen_aot/videos/S_yt-gzjV6YoK6X0_3.mp4	0.0	355.11525106430054	2.5082850456237793
71	217.22340393066406	fix_post	2		12.0	69.0	2.5	/experiments/knapen_aot/videos/S_yt-gzjV6YoK6X0_3.mp4	0.0	357.6235361099243	0.10004401206970215
72	217.32344794273376	fix_pre	0		28.0	70.0	2.5	/experiments/knapen_aot/videos/S_yt-5MyvZYFlc9g_125.mp4	0.0	357.723580121994	0.23331403732299805
72	217.54857087135315	response	0	2		70.0	2.5	/experiments/knapen_aot/videos/S_yt-5MyvZYFlc9g_125.mp4	0.0	357.9487030506134	
72	217.55676198005676	movie	1		301.0	70.0	2.5	/experiments/knapen_aot/videos/S_yt-5MyvZYFlc9g_125.mp4	0.0	357.956894159317	2.5083580017089844
72	220.06511998176575	fix_post	2		12.0	70.0	2.5	/experiments/knapen_aot/videos/S_yt-5MyvZYFlc9g_125.mp4	0.0	360.465252161026	0.09995603561401367
73	220.16507601737976	fix_pre	0		52.0	71.0	2.5	/experiments/knapen_aot/videos/S_yt-G65z8p1YNhw_16.mp4	0.0	360.56520819664	0.43334197998046875
73	220.5901927947998	response	0	2		71.0	2.5	/experiments/knapen_aot/videos/S_yt-G65z8p1YNhw_16.mp4	0.0	360.99032497406006	
73	220.59841799736023	movie	1		301.0	71.0	2.5	/experiments/knapen_aot/videos/S_yt-G65z8p1YNhw_16.mp4	0.0	360.9985501766205	2.5083658695220947
73	223.10678386688232	fix_post	2		12.0	71.0	2.5	/experiments/knapen_aot/videos/S_yt-G65z8p1YNhw_16.mp4	0.0	363.5069160461426	0.09994792938232422
74	223.20673179626465	fix_pre	0		23.0	72.0	2.5	/experiments/knapen_aot/videos/S_yt-y2RUPYKfBZs_12.mp4	0.0	363.6068639755249	0.19219708442687988
74	223.39013695716858	response	0	2		72.0	2.5	/experiments/knapen_aot/videos/S_yt-y2RUPYKfBZs_12.mp4	0.0	363.79026913642883	
74	223.39892888069153	movie	1		301.0	72.0	2.5	/experiments/knapen_aot/videos/S_yt-y2RUPYKfBZs_12.mp4	0.0	363.7990610599518	2.5078020095825195
74	225.90673089027405	fix_post	2		12.0	72.0	2.5	/experiments/knapen_aot/videos/S_yt-y2RUPYKfBZs_12.mp4	0.0	366.3068630695343	0.10004806518554688
75	226.0067789554596	fix_pre	0		34.0	73.0	2.5	/experiments/knapen_aot/videos/R_S_yt-QFGyhhr1KSQ_9.mp4	0.0	366.40691113471985	0.28327393531799316
75	226.28191089630127	response	0	2		73.0	2.5	/experiments/knapen_aot/videos/R_S_yt-QFGyhhr1KSQ_9.mp4	0.0	366.6820430755615	
75	226.2900528907776	movie	1		301.0	73.0	2.5	/experiments/knapen_aot/videos/R_S_yt-QFGyhhr1KSQ_9.mp4	0.0	366.69018507003784	2.5084009170532227
75	228.7984538078308	fix_post	2		12.0	73.0	2.5	/experiments/knapen_aot/videos/R_S_yt-QFGyhhr1KSQ_9.mp4	0.0	369.19858598709106	0.09998106956481934
76	228.89843487739563	fix_pre	0		40.0	74.0	2.5	/experiments/knapen_aot/videos/R_S_ILSVRC2015_train_00369004.mp4	0.0	369.2985670566559	0.3338439464569092
76	229.22351694107056	response	0	2		74.0	2.5	/experiments/knapen_aot/videos/R_S_ILSVRC2015_train_00369004.mp4	0.0	369.6236491203308	
76	229.23227882385254	movie	1		301.0	74.0	2.5	/experiments/knapen_aot/videos/R_S_ILSVRC2015_train_00369004.mp4	0.0	369.6324110031128	2.507794141769409
76	231.74007296562195	fix_post	2		12.0	74.0	2.5	/experiments/knapen_aot/videos/R_S_ILSVRC2015_train_00369004.mp4	0.0	372.1402051448822	0.09996604919433594
77	231.84003901481628	fix_pre	0		37.0	75.0	2.5	blank	1.0	372.24017119407654	0.3090248107910156
77	232.14021587371826	response	0	2		75.0	2.5	blank	1.0	372.5403480529785	
77	232.1490638256073	movie	1		301.0	75.0	2.5	blank	1.0	372.54919600486755	2.5077719688415527
77	234.65683579444885	fix_post	2		12.0	75.0	2.5	blank	1.0	375.0569679737091	0.09992003440856934
78	234.75675582885742	fix_pre	0		40.0	76.0	2.5	/experiments/knapen_aot/videos/R_S_yt-dj0XQUJos38_14.mp4	0.0	375.1568880081177	0.33330297470092773
78	235.0817768573761	response	0	2		76.0	2.5	/experiments/knapen_aot/videos/R_S_yt-dj0XQUJos38_14.mp4	0.0	375.48190903663635	
78	235.09005880355835	movie	1		301.0	76.0	2.5	/experiments/knapen_aot/videos/R_S_yt-dj0XQUJos38_14.mp4	0.0	375.4901909828186	2.5083260536193848
78	237.59838485717773	fix_post	2		12.0	76.0	2.5	/experiments/knapen_aot/videos/R_S_yt-dj0XQUJos38_14.mp4	0.0	377.998517036438	0.10001611709594727
79	237.69840097427368	fix_pre	0		58.0	77.0	2.5	/experiments/knapen_aot/videos/S_yt-WrwPgZYBXlA_34.mp4	0.0	378.09853315353394	0.4832940101623535
79	238.17352294921875	response	0	2		77.0	2.5	/experiments/knapen_aot/videos/S_yt-WrwPgZYBXlA_34.mp4	0.0	378.573655128479	
79	238.18169498443604	movie	1		301.0	77.0	2.5	/experiments/knapen_aot/videos/S_yt-WrwPgZYBXlA_34.mp4	0.0	378.5818271636963	2.508356809616089
79	240.69005179405212	fix_post	2		12.0	77.0	2.5	/experiments/knapen_aot/videos/S_yt-WrwPgZYBXlA_34.mp4	0.0	381.0901839733124	0.10000205039978027
80	240.7900538444519	fix_pre	0		61.0	78.0	2.5	/experiments/knapen_aot/videos/R_S_ILSVRC2015_train_00418004.mp4	0.0	381.19018602371216	0.5082881450653076
80	241.29017996788025	response	0	2		78.0	2.5	/experiments/knapen_aot/videos/R_S_ILSVRC2015_train_00418004.mp4	0.0	381.6903121471405	
80	241.2983419895172	movie	1		301.0	78.0	2.5	/experiments/knapen_aot/videos/R_S_ILSVRC2015_train_00418004.mp4	0.0	381.69847416877747	2.5083420276641846
80	243.8066840171814	fix_post	2		12.0	78.0	2.5	/experiments/knapen_aot/videos/R_S_ILSVRC2015_train_00418004.mp4	0.0	384.20681619644165	0.09994077682495117
81	243.90662479400635	fix_pre	0		32.0	79.0	2.5	/experiments/knapen_aot/videos/R_S_yt-y2RUPYKfBZs_12.mp4	0.0	384.3067569732666	0.2666440010070801
81	244.16512393951416	response	0	2		79.0	2.5	/experiments/knapen_aot/videos/R_S_yt-y2RUPYKfBZs_12.mp4	0.0	384.5652561187744	
81	244.17326879501343	movie	1		301.0	79.0	2.5	/experiments/knapen_aot/videos/R_S_yt-y2RUPYKfBZs_12.mp4	0.0	384.5734009742737	2.5084052085876465
81	246.68167400360107	fix_post	2		12.0	79.0	2.5	/experiments/knapen_aot/videos/R_S_yt-y2RUPYKfBZs_12.mp4	0.0	387.0818061828613	0.09995484352111816
82	246.7816288471222	fix_pre	0		33.0	80.0	2.5	/experiments/knapen_aot/videos/R_S_yt-ejSzwn8tY8g_49.mp4	0.0	387.18176102638245	0.2749199867248535
82	247.0408959388733	response	0	2		80.0	2.5	/experiments/knapen_aot/videos/R_S_yt-ejSzwn8tY8g_49.mp4	0.0	387.44102811813354	
82	247.05654883384705	movie	1		301.0	80.0	2.5	/experiments/knapen_aot/videos/R_S_yt-ejSzwn8tY8g_49.mp4	0.0	387.4566810131073	2.5084030628204346
82	249.56495189666748	fix_post	2		12.0	80.0	2.5	/experiments/knapen_aot/videos/R_S_yt-ejSzwn8tY8g_49.mp4	0.0	389.96508407592773	0.10001206398010254
83	249.66496396064758	fix_pre	0		61.0	81.0	2.5	/experiments/knapen_aot/videos/S_ILSVRC2015_train_00369004.mp4	0.0	390.06509613990784	0.5082869529724121
83	250.165118932724	response	0	2		81.0	2.5	/experiments/knapen_aot/videos/S_ILSVRC2015_train_00369004.mp4	0.0	390.56525111198425	
83	250.17325091362	movie	1		301.0	81.0	2.5	/experiments/knapen_aot/videos/S_ILSVRC2015_train_00369004.mp4	0.0	390.57338309288025	2.508275032043457
83	252.68152594566345	fix_post	2		12.0	81.0	2.5	/experiments/knapen_aot/videos/S_ILSVRC2015_train_00369004.mp4	0.0	393.0816581249237	0.10005998611450195
84	252.78158593177795	fix_pre	0		113.0	82.0	2.5	/experiments/knapen_aot/videos/S_flickr-51283549@N02-23064904264_16.mp4	0.0	393.1817181110382	0.9416189193725586
84	253.71504998207092	response	0	2		82.0	2.5	/experiments/knapen_aot/videos/S_flickr-51283549@N02-23064904264_16.mp4	0.0	394.1151821613312	
84	253.7232048511505	movie	1		183.0	82.0	2.5	/experiments/knapen_aot/videos/S_flickr-51283549@N02-23064904264_16.mp4	0.0	394.12333703041077	2.50846004486084
84	256.23166489601135	fix_post	2		12.0	82.0	2.5	/experiments/knapen_aot/videos/S_flickr-51283549@N02-23064904264_16.mp4	0.0	396.6317970752716	0.09999704360961914
85	256.331661939621	fix_pre	0		41.0	83.0	2.5	blank	1.0	396.7317941188812	0.3416600227355957
85	256.665118932724	response	0	2		83.0	2.5	blank	1.0	397.06525111198425	
85	256.67332196235657	movie	1		301.0	83.0	2.5	blank	1.0	397.0734541416168	2.5083229541778564
85	259.1816449165344	fix_post	2		12.0	83.0	2.5	blank	1.0	399.5817770957947	0.09990191459655762
87	259.281546831131	stim	0		72.0					399.68167901039124	0.6032290458679199
87	259.8769419193268	response	0	space						400.27707409858704	
