trial_nr	onset	event_type	phase	response	nr_frames	movie_index	movie_duration	movie_file	blank	onset_abs	duration
0	0.13334202766418457	stim	0		156.0					79.99113416671753	1.2997450828552246
0	1.4248850345611572	response	0	space						81.2826771736145	
1	1.4330871105194092	stim	0		121.0					81.29087924957275	1.0082738399505615
1	2.0164129734039307	response	0	space						81.87420511245728	
1	2.4413609504699707	stim	1		120.0					82.29915308952332	0.999967098236084
2	3.4413280487060547	fix_pre	0		49.0	0.0	2.5	/experiments/knapen_aot/videos/S_yt-z5rxY-WhFNw_15.mp4	0.0	83.2991201877594	0.40831494331359863
2	3.8415539264678955	response	0	space		0.0	2.5	/experiments/knapen_aot/videos/S_yt-z5rxY-WhFNw_15.mp4	0.0	83.69934606552124	
2	3.8496429920196533	movie	1		300.0	0.0	2.5	/experiments/knapen_aot/videos/S_yt-z5rxY-WhFNw_15.mp4	0.0	83.707435131073	2.508366107940674
2	6.358009099960327	fix_post	2		12.0	0.0	2.5	/experiments/knapen_aot/videos/S_yt-z5rxY-WhFNw_15.mp4	0.0	86.21580123901367	0.10006093978881836
3	6.4580700397491455	fix_pre	0		356.0	1.0	2.5	/experiments/knapen_aot/videos/S_bing-www_dailymotion_com_video_x64hzm7_8.mp4	0.0	86.31586217880249	2.966609001159668
3	9.418842077255249	response	0	2		1.0	2.5	/experiments/knapen_aot/videos/S_bing-www_dailymotion_com_video_x64hzm7_8.mp4	0.0	89.2766342163086	
3	9.424679040908813	movie	1		166.0	1.0	2.5	/experiments/knapen_aot/videos/S_bing-www_dailymotion_com_video_x64hzm7_8.mp4	0.0	89.28247117996216	2.508297920227051
3	11.932976961135864	fix_post	2		12.0	1.0	2.5	/experiments/knapen_aot/videos/S_bing-www_dailymotion_com_video_x64hzm7_8.mp4	0.0	91.79076910018921	0.09997200965881348
4	12.032948970794678	fix_pre	0		32.0	2.0	2.5	/experiments/knapen_aot/videos/R_S_S006_C007_SDR_2K_AVC.mp4	0.0	91.89074110984802	0.26673293113708496
4	12.291533946990967	response	0	2		2.0	2.5	/experiments/knapen_aot/videos/R_S_S006_C007_SDR_2K_AVC.mp4	0.0	92.14932608604431	
4	12.299681901931763	movie	1		171.0	2.0	2.5	/experiments/knapen_aot/videos/R_S_S006_C007_SDR_2K_AVC.mp4	0.0	92.15747404098511	2.508251190185547
4	14.80793309211731	fix_post	2		12.0	2.0	2.5	/experiments/knapen_aot/videos/R_S_S006_C007_SDR_2K_AVC.mp4	0.0	94.66572523117065	0.09993982315063477
5	14.907872915267944	fix_pre	0		32.0	3.0	2.5	/experiments/knapen_aot/videos/R_S_yt-kiEFK7bDssE_14.mp4	0.0	94.76566505432129	0.26677918434143066
5	15.16646695137024	response	0	2		3.0	2.5	/experiments/knapen_aot/videos/R_S_yt-kiEFK7bDssE_14.mp4	0.0	95.02425909042358	
5	15.174652099609375	movie	1		301.0	3.0	2.5	/experiments/knapen_aot/videos/R_S_yt-kiEFK7bDssE_14.mp4	0.0	95.03244423866272	2.5083320140838623
5	17.682984113693237	fix_post	2		12.0	3.0	2.5	/experiments/knapen_aot/videos/R_S_yt-kiEFK7bDssE_14.mp4	0.0	97.54077625274658	0.10000896453857422
6	17.78299307823181	fix_pre	0		55.0	4.0	2.5	/experiments/knapen_aot/videos/R_S_yt-bOgChEHiroI_20.mp4	0.0	97.64078521728516	0.4592268466949463
6	18.233110904693604	response	0	2		4.0	2.5	/experiments/knapen_aot/videos/R_S_yt-bOgChEHiroI_20.mp4	0.0	98.09090304374695	
6	18.242219924926758	movie	1		301.0	4.0	2.5	/experiments/knapen_aot/videos/R_S_yt-bOgChEHiroI_20.mp4	0.0	98.1000120639801	2.507451057434082
6	20.74967098236084	fix_post	2		12.0	4.0	2.5	/experiments/knapen_aot/videos/R_S_yt-bOgChEHiroI_20.mp4	0.0	100.60746312141418	0.0999760627746582
7	20.849647045135498	fix_pre	0		60.0	5.0	2.5	/experiments/knapen_aot/videos/R_S_yt-5fZZrdwkFx0_28.mp4	0.0	100.70743918418884	0.5000059604644775
7	21.34144902229309	response	0	2		5.0	2.5	/experiments/knapen_aot/videos/R_S_yt-5fZZrdwkFx0_28.mp4	0.0	101.19924116134644	
7	21.349653005599976	movie	1		301.0	5.0	2.5	/experiments/knapen_aot/videos/R_S_yt-5fZZrdwkFx0_28.mp4	0.0	101.20744514465332	2.508255958557129
7	23.857908964157104	fix_post	2		12.0	5.0	2.5	/experiments/knapen_aot/videos/R_S_yt-5fZZrdwkFx0_28.mp4	0.0	103.71570110321045	0.10002303123474121
8	23.957931995391846	fix_pre	0		71.0	6.0	2.5	/experiments/knapen_aot/videos/S_P007_C027_UHD_SDR_2K_AVC.mp4	0.0	103.81572413444519	0.5916810035705566
8	24.541423082351685	response	0	2		6.0	2.5	/experiments/knapen_aot/videos/S_P007_C027_UHD_SDR_2K_AVC.mp4	0.0	104.39921522140503	
8	24.549612998962402	movie	1		168.0	6.0	2.5	/experiments/knapen_aot/videos/S_P007_C027_UHD_SDR_2K_AVC.mp4	0.0	104.40740513801575	2.5083041191101074
8	27.05791711807251	fix_post	2		12.0	6.0	2.5	/experiments/knapen_aot/videos/S_P007_C027_UHD_SDR_2K_AVC.mp4	0.0	106.91570925712585	0.09997391700744629
9	27.157891035079956	fix_pre	0		33.0	7.0	2.5	blank	1.0	107.0156831741333	0.2749960422515869
9	27.424664974212646	response	0	2		7.0	2.5	blank	1.0	107.28245711326599	
9	27.432887077331543	movie	1		301.0	7.0	2.5	blank	1.0	107.29067921638489	2.508349895477295
9	29.941236972808838	fix_post	2		12.0	7.0	2.5	blank	1.0	109.79902911186218	0.09995913505554199
10	30.04119610786438	fix_pre	0		32.0	8.0	2.5	/experiments/knapen_aot/videos/S_yt-qE70lj3-A78_228.mp4	0.0	109.89898824691772	0.26668882369995117
10	30.299649953842163	response	0	2		8.0	2.5	/experiments/knapen_aot/videos/S_yt-qE70lj3-A78_228.mp4	0.0	110.15744209289551	
10	30.30788493156433	movie	1		301.0	8.0	2.5	/experiments/knapen_aot/videos/S_yt-qE70lj3-A78_228.mp4	0.0	110.16567707061768	2.508364200592041
10	32.81624913215637	fix_post	2		12.0	8.0	2.5	/experiments/knapen_aot/videos/S_yt-qE70lj3-A78_228.mp4	0.0	112.67404127120972	0.09998488426208496
11	32.91623401641846	fix_pre	0		78.0	9.0	2.5	/experiments/knapen_aot/videos/S_yt-Snha8C5YOiY_26.mp4	0.0	112.7740261554718	0.6500029563903809
11	33.550503969192505	response	0	2		9.0	2.5	/experiments/knapen_aot/videos/S_yt-Snha8C5YOiY_26.mp4	0.0	113.40829610824585	
11	33.56623697280884	movie	1		301.0	9.0	2.5	/experiments/knapen_aot/videos/S_yt-Snha8C5YOiY_26.mp4	0.0	113.42402911186218	2.5083611011505127
11	36.07459807395935	fix_post	2		12.0	9.0	2.5	/experiments/knapen_aot/videos/S_yt-Snha8C5YOiY_26.mp4	0.0	115.9323902130127	0.10002589225769043
12	36.17462396621704	fix_pre	0		24.0	10.0	2.5	/experiments/knapen_aot/videos/S_pexels-cottonbro-9063801.mp4	0.0	116.03241610527039	0.19989800453186035
12	36.36639094352722	response	0	2		10.0	2.5	/experiments/knapen_aot/videos/S_pexels-cottonbro-9063801.mp4	0.0	116.22418308258057	
12	36.3745219707489	movie	1		201.0	10.0	2.5	/experiments/knapen_aot/videos/S_pexels-cottonbro-9063801.mp4	0.0	116.23231410980225	2.508352041244507
12	38.88287401199341	fix_post	2		12.0	10.0	2.5	/experiments/knapen_aot/videos/S_pexels-cottonbro-9063801.mp4	0.0	118.74066615104675	0.09998393058776855
13	38.98285794258118	fix_pre	0		35.0	11.0	2.5	/experiments/knapen_aot/videos/S_production_ID_4122384.mp4	0.0	118.84065008163452	0.2916891574859619
13	39.266355991363525	response	0	2		11.0	2.5	/experiments/knapen_aot/videos/S_production_ID_4122384.mp4	0.0	119.12414813041687	
13	39.27454710006714	movie	1		169.0	11.0	2.5	/experiments/knapen_aot/videos/S_production_ID_4122384.mp4	0.0	119.13233923912048	2.508312940597534
13	41.78286004066467	fix_post	2		11.0	11.0	2.5	/experiments/knapen_aot/videos/S_production_ID_4122384.mp4	0.0	121.64065217971802	0.10000801086425781
14	41.88286805152893	fix_pre	0		135.0	12.0	2.5	/experiments/knapen_aot/videos/R_S_yt-3V8US8ZD3NU_229.mp4	0.0	121.74066019058228	1.1250009536743164
14	42.99214506149292	response	0	2		12.0	2.5	/experiments/knapen_aot/videos/R_S_yt-3V8US8ZD3NU_229.mp4	0.0	122.84993720054626	
14	43.00786900520325	movie	1		301.0	12.0	2.5	/experiments/knapen_aot/videos/R_S_yt-3V8US8ZD3NU_229.mp4	0.0	122.86566114425659	2.5083301067352295
14	45.51619911193848	fix_post	2		12.0	12.0	2.5	/experiments/knapen_aot/videos/R_S_yt-3V8US8ZD3NU_229.mp4	0.0	125.37399125099182	0.09998488426208496
15	45.61618399620056	fix_pre	0		55.0	13.0	2.5	/experiments/knapen_aot/videos/S_yt-TZ107yBhXoA_1.mp4	0.0	125.4739761352539	0.4591639041900635
15	46.066352128982544	response	0	2		13.0	2.5	/experiments/knapen_aot/videos/S_yt-TZ107yBhXoA_1.mp4	0.0	125.92414426803589	
15	46.075347900390625	movie	1		300.0	13.0	2.5	/experiments/knapen_aot/videos/S_yt-TZ107yBhXoA_1.mp4	0.0	125.93314003944397	2.50748610496521
15	48.582834005355835	fix_post	2		12.0	13.0	2.5	/experiments/knapen_aot/videos/S_yt-TZ107yBhXoA_1.mp4	0.0	128.44062614440918	0.09999704360961914
16	48.682831048965454	fix_pre	0		62.0	14.0	2.5	blank	1.0	128.5406231880188	0.5175020694732666
16	49.19124507904053	response	0	2		14.0	2.5	blank	1.0	129.04903721809387	
16	49.20033311843872	movie	1		301.0	14.0	2.5	blank	1.0	129.05812525749207	2.507483959197998
16	51.70781707763672	fix_post	2		12.0	14.0	2.5	blank	1.0	131.56560921669006	0.09999895095825195
17	51.80781602859497	fix_pre	0		21.0	15.0	2.5	/experiments/knapen_aot/videos/S_wc-b4Oquu3WQPRz_45.mp4	0.0	131.66560816764832	0.17501497268676758
17	51.97463893890381	response	0	2		15.0	2.5	/experiments/knapen_aot/videos/S_wc-b4Oquu3WQPRz_45.mp4	0.0	131.83243107795715	
17	51.98283100128174	movie	1		172.0	15.0	2.5	/experiments/knapen_aot/videos/S_wc-b4Oquu3WQPRz_45.mp4	0.0	131.84062314033508	2.508251905441284
17	54.49108290672302	fix_post	2		12.0	15.0	2.5	/experiments/knapen_aot/videos/S_wc-b4Oquu3WQPRz_45.mp4	0.0	134.34887504577637	0.10005712509155273
18	54.591140031814575	fix_pre	0		51.0	16.0	2.5	/experiments/knapen_aot/videos/R_S_yt-OEY9O2MglQM_7.mp4	0.0	134.44893217086792	0.42497992515563965
18	55.00794506072998	response	0	2		16.0	2.5	/experiments/knapen_aot/videos/R_S_yt-OEY9O2MglQM_7.mp4	0.0	134.86573719978333	
18	55.016119956970215	movie	1		301.0	16.0	2.5	/experiments/knapen_aot/videos/R_S_yt-OEY9O2MglQM_7.mp4	0.0	134.87391209602356	2.5084619522094727
18	57.52458190917969	fix_post	2		12.0	16.0	2.5	/experiments/knapen_aot/videos/R_S_yt-OEY9O2MglQM_7.mp4	0.0	137.38237404823303	0.0998830795288086
19	57.624464988708496	fix_pre	0		55.0	17.0	2.5	/experiments/knapen_aot/videos/S_yt-c-H45QS0CF4_147.mp4	0.0	137.48225712776184	0.45828795433044434
19	58.0746009349823	response	0	2		17.0	2.5	/experiments/knapen_aot/videos/S_yt-c-H45QS0CF4_147.mp4	0.0	137.93239307403564	
19	58.08275294303894	movie	1		301.0	17.0	2.5	/experiments/knapen_aot/videos/S_yt-c-H45QS0CF4_147.mp4	0.0	137.94054508209229	2.5082809925079346
19	60.591033935546875	fix_post	2		12.0	17.0	2.5	/experiments/knapen_aot/videos/S_yt-c-H45QS0CF4_147.mp4	0.0	140.44882607460022	0.10012412071228027
20	60.691158056259155	fix_pre	0		105.0	18.0	2.5	/experiments/knapen_aot/videos/S_ILSVRC2015_train_00441000.mp4	0.0	140.5489501953125	0.8749160766601562
20	61.557904958724976	response	0	2		18.0	2.5	/experiments/knapen_aot/videos/S_ILSVRC2015_train_00441000.mp4	0.0	141.41569709777832	
20	61.56607413291931	movie	1		301.0	18.0	2.5	/experiments/knapen_aot/videos/S_ILSVRC2015_train_00441000.mp4	0.0	141.42386627197266	2.508415937423706
20	64.07449007034302	fix_post	2		12.0	18.0	2.5	/experiments/knapen_aot/videos/S_ILSVRC2015_train_00441000.mp4	0.0	143.93228220939636	0.09996700286865234
21	64.17445707321167	fix_pre	0		55.0	19.0	2.5	/experiments/knapen_aot/videos/S_yt-EApB0DJ3ECg_66.mp4	0.0	144.03224921226501	0.4582829475402832
21	64.62458205223083	response	0	2		19.0	2.5	/experiments/knapen_aot/videos/S_yt-EApB0DJ3ECg_66.mp4	0.0	144.48237419128418	
21	64.63274002075195	movie	1		301.0	19.0	2.5	/experiments/knapen_aot/videos/S_yt-EApB0DJ3ECg_66.mp4	0.0	144.4905321598053	2.508357048034668
21	67.14109706878662	fix_post	2		12.0	19.0	2.5	/experiments/knapen_aot/videos/S_yt-EApB0DJ3ECg_66.mp4	0.0	146.99888920783997	0.1000208854675293
22	67.24111795425415	fix_pre	0		100.0	20.0	2.5	blank	1.0	147.0989100933075	0.8340320587158203
22	68.06617903709412	response	0	2		20.0	2.5	blank	1.0	147.92397117614746	
22	68.07515001296997	movie	1		301.0	20.0	2.5	blank	1.0	147.93294215202332	2.5076189041137695
22	70.58276891708374	fix_post	2		12.0	20.0	2.5	blank	1.0	150.44056105613708	0.09993720054626465
23	70.68270611763	fix_pre	0		29.0	21.0	2.5	/experiments/knapen_aot/videos/S_yt-PP93D7b7Ni4_10.mp4	0.0	150.54049825668335	0.24170780181884766
23	70.91632199287415	response	0	2		21.0	2.5	/experiments/knapen_aot/videos/S_yt-PP93D7b7Ni4_10.mp4	0.0	150.7741141319275	
23	70.92441391944885	movie	1		301.0	21.0	2.5	/experiments/knapen_aot/videos/S_yt-PP93D7b7Ni4_10.mp4	0.0	150.7822060585022	2.508315086364746
23	73.4327290058136	fix_post	2		12.0	21.0	2.5	/experiments/knapen_aot/videos/S_yt-PP93D7b7Ni4_10.mp4	0.0	153.29052114486694	0.10000801086425781
24	73.53273701667786	fix_pre	0		87.0	22.0	2.5	/experiments/knapen_aot/videos/R_S_yt-NLfzvAJgyJ4_120.mp4	0.0	153.3905291557312	0.7249429225921631
24	74.24956512451172	response	0	2		22.0	2.5	/experiments/knapen_aot/videos/R_S_yt-NLfzvAJgyJ4_120.mp4	0.0	154.10735726356506	
24	74.25767993927002	movie	1		295.0	22.0	2.5	/experiments/knapen_aot/videos/R_S_yt-NLfzvAJgyJ4_120.mp4	0.0	154.11547207832336	2.5083940029144287
24	76.76607394218445	fix_post	2		12.0	22.0	2.5	/experiments/knapen_aot/videos/R_S_yt-NLfzvAJgyJ4_120.mp4	0.0	156.6238660812378	0.09993815422058105
25	76.86601209640503	fix_pre	0		122.0	23.0	2.5	/experiments/knapen_aot/videos/S_yt-rlVzHENWufE_61.mp4	0.0	156.72380423545837	1.0166208744049072
25	77.87452101707458	response	0	2		23.0	2.5	/experiments/knapen_aot/videos/S_yt-rlVzHENWufE_61.mp4	0.0	157.73231315612793	
25	77.88263297080994	movie	1		301.0	23.0	2.5	/experiments/knapen_aot/videos/S_yt-rlVzHENWufE_61.mp4	0.0	157.74042510986328	2.5083811283111572
25	80.3910140991211	fix_post	2		12.0	23.0	2.5	/experiments/knapen_aot/videos/S_yt-rlVzHENWufE_61.mp4	0.0	160.24880623817444	0.10007596015930176
26	80.4910900592804	fix_pre	0		64.0	24.0	2.5	/experiments/knapen_aot/videos/R_S_pexels-artem-podrez-5457692.mp4	0.0	160.34888219833374	0.5333418846130371
26	81.01621508598328	response	0	2		24.0	2.5	/experiments/knapen_aot/videos/R_S_pexels-artem-podrez-5457692.mp4	0.0	160.87400722503662	
26	81.02443194389343	movie	1		165.0	24.0	2.5	/experiments/knapen_aot/videos/R_S_pexels-artem-podrez-5457692.mp4	0.0	160.88222408294678	2.508296012878418
26	83.53272795677185	fix_post	2		12.0	24.0	2.5	/experiments/knapen_aot/videos/R_S_pexels-artem-podrez-5457692.mp4	0.0	163.3905200958252	0.09989500045776367
27	83.63262295722961	fix_pre	0		183.0	25.0	2.5	/experiments/knapen_aot/videos/R_S_ILSVRC2015_train_00318000.mp4	0.0	163.49041509628296	1.5256390571594238
27	85.1495361328125	response	0	2		25.0	2.5	/experiments/knapen_aot/videos/R_S_ILSVRC2015_train_00318000.mp4	0.0	165.00732827186584	
27	85.15826201438904	movie	1		298.0	25.0	2.5	/experiments/knapen_aot/videos/R_S_ILSVRC2015_train_00318000.mp4	0.0	165.01605415344238	2.5077080726623535
27	87.66597008705139	fix_post	2		12.0	25.0	2.5	/experiments/knapen_aot/videos/R_S_ILSVRC2015_train_00318000.mp4	0.0	167.52376222610474	0.10009193420410156
28	87.7660620212555	fix_pre	0		78.0	26.0	2.5	/experiments/knapen_aot/videos/S_yt-AbJBxqEYoMg_105.mp4	0.0	167.62385416030884	0.6498949527740479
28	88.40779995918274	response	0	2		26.0	2.5	/experiments/knapen_aot/videos/S_yt-AbJBxqEYoMg_105.mp4	0.0	168.26559209823608	
28	88.41595697402954	movie	1		301.0	26.0	2.5	/experiments/knapen_aot/videos/S_yt-AbJBxqEYoMg_105.mp4	0.0	168.27374911308289	2.508319139480591
28	90.92427611351013	fix_post	2		12.0	26.0	2.5	/experiments/knapen_aot/videos/S_yt-AbJBxqEYoMg_105.mp4	0.0	170.78206825256348	0.1000978946685791
29	91.02437400817871	fix_pre	0		130.0	27.0	2.5	/experiments/knapen_aot/videos/R_S_yt-4oacL3aXtlU_11.mp4	0.0	170.88216614723206	1.0832910537719727
29	92.0920889377594	response	0	2		27.0	2.5	/experiments/knapen_aot/videos/R_S_yt-4oacL3aXtlU_11.mp4	0.0	171.94988107681274	
29	92.10766506195068	movie	1		301.0	27.0	2.5	/experiments/knapen_aot/videos/R_S_yt-4oacL3aXtlU_11.mp4	0.0	171.96545720100403	2.5083248615264893
29	94.61598992347717	fix_post	2		12.0	27.0	2.5	/experiments/knapen_aot/videos/R_S_yt-4oacL3aXtlU_11.mp4	0.0	174.47378206253052	0.099945068359375
30	94.71593499183655	fix_pre	0		47.0	28.0	2.5	blank	1.0	174.5737271308899	0.39174914360046387
30	95.09940195083618	response	0	2		28.0	2.5	blank	1.0	174.95719408988953	
30	95.10768413543701	movie	1		301.0	28.0	2.5	blank	1.0	174.96547627449036	2.5082428455352783
30	97.61592698097229	fix_post	2		12.0	28.0	2.5	blank	1.0	177.47371912002563	0.09997892379760742
31	97.7159059047699	fix_pre	0		28.0	29.0	2.5	/experiments/knapen_aot/videos/R_S_pexels-koolshooters-7327405.mp4	0.0	177.57369804382324	0.23392701148986816
31	97.94105291366577	response	0	2		29.0	2.5	/experiments/knapen_aot/videos/R_S_pexels-koolshooters-7327405.mp4	0.0	177.79884505271912	
31	97.94983291625977	movie	1		167.0	29.0	2.5	/experiments/knapen_aot/videos/R_S_pexels-koolshooters-7327405.mp4	0.0	177.8076250553131	2.5078251361846924
31	100.45765805244446	fix_post	2		12.0	29.0	2.5	/experiments/knapen_aot/videos/R_S_pexels-koolshooters-7327405.mp4	0.0	180.3154501914978	0.09998488426208496
32	100.55764293670654	fix_pre	0		49.0	30.0	2.5	/experiments/knapen_aot/videos/S_g201_TH_804_A001_8_SDR_20191031_SDR_2K_AVC.mp4	0.0	180.4154350757599	0.40832996368408203
32	100.95783305168152	response	0	2		30.0	2.5	/experiments/knapen_aot/videos/S_g201_TH_804_A001_8_SDR_20191031_SDR_2K_AVC.mp4	0.0	180.81562519073486	
32	100.96597290039062	movie	1		164.0	30.0	2.5	/experiments/knapen_aot/videos/S_g201_TH_804_A001_8_SDR_20191031_SDR_2K_AVC.mp4	0.0	180.82376503944397	2.5082950592041016
32	103.47426795959473	fix_post	2		12.0	30.0	2.5	/experiments/knapen_aot/videos/S_g201_TH_804_A001_8_SDR_20191031_SDR_2K_AVC.mp4	0.0	183.33206009864807	0.10002517700195312
33	103.57429313659668	fix_pre	0		41.0	31.0	2.5	/experiments/knapen_aot/videos/R_S_pexels-cottonbro-5310858.mp4	0.0	183.43208527565002	0.34165096282958984
33	103.90776491165161	response	0	2		31.0	2.5	/experiments/knapen_aot/videos/R_S_pexels-cottonbro-5310858.mp4	0.0	183.76555705070496	
33	103.91594409942627	movie	1		166.0	31.0	2.5	/experiments/knapen_aot/videos/R_S_pexels-cottonbro-5310858.mp4	0.0	183.77373623847961	2.5083529949188232
33	106.42429709434509	fix_post	2		12.0	31.0	2.5	/experiments/knapen_aot/videos/R_S_pexels-cottonbro-5310858.mp4	0.0	186.28208923339844	0.1000068187713623
34	106.52430391311646	fix_pre	0		46.0	32.0	2.5	/experiments/knapen_aot/videos/S_ILSVRC2015_train_00708000.mp4	0.0	186.3820960521698	0.3837890625
34	106.89941596984863	response	0	2		32.0	2.5	/experiments/knapen_aot/videos/S_ILSVRC2015_train_00708000.mp4	0.0	186.75720810890198	
34	106.90809297561646	movie	1		301.0	32.0	2.5	/experiments/knapen_aot/videos/S_ILSVRC2015_train_00708000.mp4	0.0	186.7658851146698	2.5078201293945312
34	109.41591310501099	fix_post	2		12.0	32.0	2.5	/experiments/knapen_aot/videos/S_ILSVRC2015_train_00708000.mp4	0.0	189.27370524406433	0.10003399848937988
35	109.51594710350037	fix_pre	0		46.0	33.0	2.5	blank	1.0	189.3737392425537	0.38332200050354004
35	109.89101600646973	response	0	2		33.0	2.5	blank	1.0	189.74880814552307	
35	109.8992691040039	movie	1		301.0	33.0	2.5	blank	1.0	189.75706124305725	2.508335828781128
35	112.40760493278503	fix_post	2		12.0	33.0	2.5	blank	1.0	192.26539707183838	0.09996819496154785
36	112.50757312774658	fix_pre	0		46.0	34.0	2.5	/experiments/knapen_aot/videos/S_yt-JtR6WZXT2kU_8.mp4	0.0	192.36536526679993	0.38332200050354004
36	112.88276696205139	response	0	2		34.0	2.5	/experiments/knapen_aot/videos/S_yt-JtR6WZXT2kU_8.mp4	0.0	192.74055910110474	
36	112.89089512825012	movie	1		301.0	34.0	2.5	/experiments/knapen_aot/videos/S_yt-JtR6WZXT2kU_8.mp4	0.0	192.74868726730347	2.508328914642334
36	115.39922404289246	fix_post	2		12.0	34.0	2.5	/experiments/knapen_aot/videos/S_yt-JtR6WZXT2kU_8.mp4	0.0	195.2570161819458	0.10000085830688477
37	115.49922490119934	fix_pre	0		100.0	35.0	2.5	/experiments/knapen_aot/videos/R_S_ILSVRC2015_train_00067005.mp4	0.0	195.35701704025269	0.8333351612091064
37	116.32436013221741	response	0	2		35.0	2.5	/experiments/knapen_aot/videos/R_S_ILSVRC2015_train_00067005.mp4	0.0	196.18215227127075	
37	116.33256006240845	movie	1		301.0	35.0	2.5	/experiments/knapen_aot/videos/R_S_ILSVRC2015_train_00067005.mp4	0.0	196.1903522014618	2.5083420276641846
37	118.84090209007263	fix_post	2		12.0	35.0	2.5	/experiments/knapen_aot/videos/R_S_ILSVRC2015_train_00067005.mp4	0.0	198.69869422912598	0.09998893737792969
38	118.94089102745056	fix_pre	0		33.0	36.0	2.5	/experiments/knapen_aot/videos/S_yt-NLfzvAJgyJ4_120.mp4	0.0	198.7986831665039	0.2749788761138916
38	119.20764899253845	response	0	2		36.0	2.5	/experiments/knapen_aot/videos/S_yt-NLfzvAJgyJ4_120.mp4	0.0	199.0654411315918	
38	119.21586990356445	movie	1		301.0	36.0	2.5	/experiments/knapen_aot/videos/S_yt-NLfzvAJgyJ4_120.mp4	0.0	199.0736620426178	2.508371114730835
38	121.72424101829529	fix_post	2		12.0	36.0	2.5	/experiments/knapen_aot/videos/S_yt-NLfzvAJgyJ4_120.mp4	0.0	201.58203315734863	0.10002708435058594
39	121.82426810264587	fix_pre	0		49.0	37.0	2.5	/experiments/knapen_aot/videos/R_S_comp_L004_C011_PS_v01_SDR_PS_20180925_SDR_2K_AVC.mp4	0.0	201.68206024169922	0.40816187858581543
39	122.22431302070618	response	0	2		37.0	2.5	/experiments/knapen_aot/videos/R_S_comp_L004_C011_PS_v01_SDR_PS_20180925_SDR_2K_AVC.mp4	0.0	202.08210515975952	
39	122.23242998123169	movie	1		166.0	37.0	2.5	/experiments/knapen_aot/videos/R_S_comp_L004_C011_PS_v01_SDR_PS_20180925_SDR_2K_AVC.mp4	0.0	202.09022212028503	2.5084879398345947
39	124.74091792106628	fix_post	2		12.0	37.0	2.5	/experiments/knapen_aot/videos/R_S_comp_L004_C011_PS_v01_SDR_PS_20180925_SDR_2K_AVC.mp4	0.0	204.59871006011963	0.09991717338562012
40	124.8408350944519	fix_pre	0		30.0	38.0	2.5	/experiments/knapen_aot/videos/S_yt-RO4mhuXBVrY_67.mp4	0.0	204.69862723350525	0.24998784065246582
40	125.08264803886414	response	0	2		38.0	2.5	/experiments/knapen_aot/videos/S_yt-RO4mhuXBVrY_67.mp4	0.0	204.94044017791748	
40	125.09082293510437	movie	1		301.0	38.0	2.5	/experiments/knapen_aot/videos/S_yt-RO4mhuXBVrY_67.mp4	0.0	204.94861507415771	2.5083320140838623
40	127.59915494918823	fix_post	2		12.0	38.0	2.5	/experiments/knapen_aot/videos/S_yt-RO4mhuXBVrY_67.mp4	0.0	207.45694708824158	0.1004021167755127
41	127.69955706596375	fix_pre	0		38.0	39.0	2.5	/experiments/knapen_aot/videos/S_yt-8N5UuN5WQcY_72.mp4	0.0	207.5573492050171	0.3162660598754883
41	128.00763392448425	response	0	2		39.0	2.5	/experiments/knapen_aot/videos/S_yt-8N5UuN5WQcY_72.mp4	0.0	207.8654260635376	
41	128.01582312583923	movie	1		301.0	39.0	2.5	/experiments/knapen_aot/videos/S_yt-8N5UuN5WQcY_72.mp4	0.0	207.87361526489258	2.508347988128662
41	130.5241711139679	fix_post	2		12.0	39.0	2.5	/experiments/knapen_aot/videos/S_yt-8N5UuN5WQcY_72.mp4	0.0	210.38196325302124	0.09997200965881348
42	130.6241431236267	fix_pre	0		38.0	40.0	2.5	blank	1.0	210.48193526268005	0.3166539669036865
42	130.9326479434967	response	0	2		40.0	2.5	blank	1.0	210.79044008255005	
42	130.9407970905304	movie	1		301.0	40.0	2.5	blank	1.0	210.79858922958374	2.508307933807373
42	133.44910502433777	fix_post	2		12.0	40.0	2.5	blank	1.0	213.3068971633911	0.10004496574401855
43	133.5491499900818	fix_pre	0		15.0	41.0	2.5	/experiments/knapen_aot/videos/S_yt-VQtbKGzI9SE_431.mp4	0.0	213.40694212913513	0.13328814506530762
43	133.66685509681702	response	0	2		41.0	2.5	/experiments/knapen_aot/videos/S_yt-VQtbKGzI9SE_431.mp4	0.0	213.52464723587036	
43	133.6824381351471	movie	1		301.0	41.0	2.5	/experiments/knapen_aot/videos/S_yt-VQtbKGzI9SE_431.mp4	0.0	213.54023027420044	2.508333921432495
43	136.1907720565796	fix_post	2		12.0	41.0	2.5	/experiments/knapen_aot/videos/S_yt-VQtbKGzI9SE_431.mp4	0.0	216.04856419563293	0.10001587867736816
44	136.29078793525696	fix_pre	0		64.0	42.0	2.5	/experiments/knapen_aot/videos/R_S_yt-YMI27rk5qUQ_117.mp4	0.0	216.1485800743103	0.5337090492248535
44	136.8158929347992	response	0	2		42.0	2.5	/experiments/knapen_aot/videos/R_S_yt-YMI27rk5qUQ_117.mp4	0.0	216.67368507385254	
44	136.8244969844818	movie	1		301.0	42.0	2.5	/experiments/knapen_aot/videos/R_S_yt-YMI27rk5qUQ_117.mp4	0.0	216.68228912353516	2.5080080032348633
44	139.33250498771667	fix_post	2		12.0	42.0	2.5	/experiments/knapen_aot/videos/R_S_yt-YMI27rk5qUQ_117.mp4	0.0	219.19029712677002	0.10007309913635254
45	139.43257808685303	fix_pre	0		47.0	43.0	2.5	/experiments/knapen_aot/videos/R_S_ILSVRC2015_train_00418001.mp4	0.0	219.29037022590637	0.3918800354003906
45	139.81602811813354	response	0	2		43.0	2.5	/experiments/knapen_aot/videos/R_S_ILSVRC2015_train_00418001.mp4	0.0	219.6738202571869	
45	139.82445812225342	movie	1		301.0	43.0	2.5	/experiments/knapen_aot/videos/R_S_ILSVRC2015_train_00418001.mp4	0.0	219.68225026130676	2.507983922958374
45	142.3324420452118	fix_post	2		12.0	43.0	2.5	/experiments/knapen_aot/videos/R_S_ILSVRC2015_train_00418001.mp4	0.0	222.19023418426514	0.10003495216369629
46	142.4324769973755	fix_pre	0		47.0	44.0	2.5	/experiments/knapen_aot/videos/S_ILSVRC2015_train_00418001.mp4	0.0	222.29026913642883	0.39196109771728516
46	142.81593704223633	response	0	2		44.0	2.5	/experiments/knapen_aot/videos/S_ILSVRC2015_train_00418001.mp4	0.0	222.67372918128967	
46	142.82443809509277	movie	1		301.0	44.0	2.5	/experiments/knapen_aot/videos/S_ILSVRC2015_train_00418001.mp4	0.0	222.68223023414612	2.5079829692840576
46	145.33242106437683	fix_post	2		12.0	44.0	2.5	/experiments/knapen_aot/videos/S_ILSVRC2015_train_00418001.mp4	0.0	225.19021320343018	0.10001802444458008
47	145.4324390888214	fix_pre	0		31.0	45.0	2.5	/experiments/knapen_aot/videos/S_AK_A004_C012_SDR_20191217_SDR_2K_AVC.mp4	0.0	225.29023122787476	0.25832104682922363
47	145.6825089454651	response	0	2		45.0	2.5	/experiments/knapen_aot/videos/S_AK_A004_C012_SDR_20191217_SDR_2K_AVC.mp4	0.0	225.54030108451843	
47	145.69076013565063	movie	1		165.0	45.0	2.5	/experiments/knapen_aot/videos/S_AK_A004_C012_SDR_20191217_SDR_2K_AVC.mp4	0.0	225.54855227470398	2.50832200050354
47	148.19908213615417	fix_post	2		12.0	45.0	2.5	/experiments/knapen_aot/videos/S_AK_A004_C012_SDR_20191217_SDR_2K_AVC.mp4	0.0	228.05687427520752	0.10001778602600098
48	148.29909992218018	fix_pre	0		54.0	46.0	2.5	/experiments/knapen_aot/videos/R_S_ILSVRC2015_train_00371006.mp4	0.0	228.15689206123352	0.4500100612640381
48	148.74083495140076	response	0	2		46.0	2.5	/experiments/knapen_aot/videos/R_S_ILSVRC2015_train_00371006.mp4	0.0	228.5986270904541	
48	148.7491099834442	movie	1		301.0	46.0	2.5	/experiments/knapen_aot/videos/R_S_ILSVRC2015_train_00371006.mp4	0.0	228.60690212249756	2.5083370208740234
48	151.25744700431824	fix_post	2		12.0	46.0	2.5	/experiments/knapen_aot/videos/R_S_ILSVRC2015_train_00371006.mp4	0.0	231.11523914337158	0.0999610424041748
49	151.3574080467224	fix_pre	0		50.0	47.0	2.5	blank	1.0	231.21520018577576	0.41664695739746094
49	151.7658290863037	response	0	2		47.0	2.5	blank	1.0	231.62362122535706	
49	151.77405500411987	movie	1		301.0	47.0	2.5	blank	1.0	231.63184714317322	2.5083699226379395
49	154.2824249267578	fix_post	2		12.0	47.0	2.5	blank	1.0	234.14021706581116	0.09999918937683105
50	154.38242411613464	fix_pre	0		36.0	48.0	2.5	/experiments/knapen_aot/videos/R_S_yt-LsCCAQ8BRO8_7.mp4	0.0	234.240216255188	0.29991793632507324
50	154.67414903640747	response	0	2		48.0	2.5	/experiments/knapen_aot/videos/R_S_yt-LsCCAQ8BRO8_7.mp4	0.0	234.53194117546082	
50	154.68234205245972	movie	1		301.0	48.0	2.5	/experiments/knapen_aot/videos/R_S_yt-LsCCAQ8BRO8_7.mp4	0.0	234.54013419151306	2.5083608627319336
50	157.19070291519165	fix_post	2		12.0	48.0	2.5	/experiments/knapen_aot/videos/R_S_yt-LsCCAQ8BRO8_7.mp4	0.0	237.048495054245	0.10003113746643066
51	157.29073405265808	fix_pre	0		94.0	49.0	2.5	/experiments/knapen_aot/videos/R_S_yt-YMI27rk5qUQ_117.mp4	0.0	237.14852619171143	0.7835099697113037
51	158.0658049583435	response	0	2		49.0	2.5	/experiments/knapen_aot/videos/R_S_yt-YMI27rk5qUQ_117.mp4	0.0	237.92359709739685	
51	158.07424402236938	movie	1		301.0	49.0	2.5	/experiments/knapen_aot/videos/R_S_yt-YMI27rk5qUQ_117.mp4	0.0	237.93203616142273	2.508188009262085
51	160.58243203163147	fix_post	2		12.0	49.0	2.5	/experiments/knapen_aot/videos/R_S_yt-YMI27rk5qUQ_117.mp4	0.0	240.44022417068481	0.09998393058776855
52	160.68241596221924	fix_pre	0		51.0	50.0	2.5	/experiments/knapen_aot/videos/R_S_pexels-anna-tarazevich-6189268.mp4	0.0	240.54020810127258	0.4249379634857178
52	161.09921312332153	response	0	2		50.0	2.5	/experiments/knapen_aot/videos/R_S_pexels-anna-tarazevich-6189268.mp4	0.0	240.95700526237488	
52	161.10735392570496	movie	1		212.0	50.0	2.5	/experiments/knapen_aot/videos/R_S_pexels-anna-tarazevich-6189268.mp4	0.0	240.9651460647583	2.508561134338379
52	163.61591506004333	fix_post	2		12.0	50.0	2.5	/experiments/knapen_aot/videos/R_S_pexels-anna-tarazevich-6189268.mp4	0.0	243.47370719909668	0.09978389739990234
53	163.71569895744324	fix_pre	0		31.0	51.0	2.5	/experiments/knapen_aot/videos/R_S_g201_AK_A003_C014_SDR_20191113_SDR_2K_AVC.mp4	0.0	243.57349109649658	0.2583310604095459
53	163.96583104133606	response	0	2		51.0	2.5	/experiments/knapen_aot/videos/R_S_g201_AK_A003_C014_SDR_20191113_SDR_2K_AVC.mp4	0.0	243.8236231803894	
53	163.97403001785278	movie	1		170.0	51.0	2.5	/experiments/knapen_aot/videos/R_S_g201_AK_A003_C014_SDR_20191113_SDR_2K_AVC.mp4	0.0	243.83182215690613	2.5082619190216064
53	166.4822919368744	fix_post	2		12.0	51.0	2.5	/experiments/knapen_aot/videos/R_S_g201_AK_A003_C014_SDR_20191113_SDR_2K_AVC.mp4	0.0	246.34008407592773	0.1000821590423584
54	166.58237409591675	fix_pre	0		43.0	52.0	2.5	/experiments/knapen_aot/videos/S_ILSVRC2015_train_00599000.mp4	0.0	246.4401662349701	0.3582329750061035
54	166.92492198944092	response	0	2		52.0	2.5	/experiments/knapen_aot/videos/S_ILSVRC2015_train_00599000.mp4	0.0	246.78271412849426	
54	166.94060707092285	movie	1		301.0	52.0	2.5	/experiments/knapen_aot/videos/S_ILSVRC2015_train_00599000.mp4	0.0	246.7983992099762	2.5085859298706055
54	169.44919300079346	fix_post	2		12.0	52.0	2.5	/experiments/knapen_aot/videos/S_ILSVRC2015_train_00599000.mp4	0.0	249.3069851398468	0.09988212585449219
55	169.54907512664795	fix_pre	0		41.0	53.0	2.5	/experiments/knapen_aot/videos/R_S_yt-PP93D7b7Ni4_10.mp4	0.0	249.4068672657013	0.3414888381958008
55	169.8824179172516	response	0	2		53.0	2.5	/experiments/knapen_aot/videos/R_S_yt-PP93D7b7Ni4_10.mp4	0.0	249.74021005630493	
55	169.89056396484375	movie	1		301.0	53.0	2.5	/experiments/knapen_aot/videos/R_S_yt-PP93D7b7Ni4_10.mp4	0.0	249.7483561038971	2.508481025695801
55	172.39904499053955	fix_post	2		12.0	53.0	2.5	/experiments/knapen_aot/videos/R_S_yt-PP93D7b7Ni4_10.mp4	0.0	252.2568371295929	0.09994196891784668
56	172.4989869594574	fix_pre	0		253.0	54.0	2.5	/experiments/knapen_aot/videos/R_S_production_ID_5144824.mp4	0.0	252.35677909851074	2.1083180904388428
56	174.5991039276123	response	0	2		54.0	2.5	/experiments/knapen_aot/videos/R_S_production_ID_5144824.mp4	0.0	254.45689606666565	
56	174.60730504989624	movie	1		168.0	54.0	2.5	/experiments/knapen_aot/videos/R_S_production_ID_5144824.mp4	0.0	254.46509718894958	2.50846791267395
56	177.1157729625702	fix_post	2		12.0	54.0	2.5	/experiments/knapen_aot/videos/R_S_production_ID_5144824.mp4	0.0	256.97356510162354	0.09990310668945312
57	177.21567606925964	fix_pre	0		149.0	55.0	2.5	/experiments/knapen_aot/videos/R_S_wc-auTIuWLTxxkn_5.mp4	0.0	257.073468208313	1.2415878772735596
57	178.44913005828857	response	0	2		55.0	2.5	/experiments/knapen_aot/videos/R_S_wc-auTIuWLTxxkn_5.mp4	0.0	258.3069221973419	
57	178.4572639465332	movie	1		171.0	55.0	2.5	/experiments/knapen_aot/videos/R_S_wc-auTIuWLTxxkn_5.mp4	0.0	258.31505608558655	2.508368968963623
57	180.96563291549683	fix_post	2		12.0	55.0	2.5	/experiments/knapen_aot/videos/R_S_wc-auTIuWLTxxkn_5.mp4	0.0	260.82342505455017	0.10021805763244629
58	181.06585097312927	fix_pre	0		118.0	56.0	2.5	blank	1.0	260.9236431121826	0.9830551147460938
58	182.04074907302856	response	0	2		56.0	2.5	blank	1.0	261.8985412120819	
58	182.04890608787537	movie	1		301.0	56.0	2.5	blank	1.0	261.9066982269287	2.5083799362182617
58	184.3739719390869	response	1	2		56.0	2.5	blank	1.0	264.23176407814026	
58	184.55728602409363	fix_post	2		12.0	56.0	2.5	blank	1.0	264.415078163147	0.10008788108825684
59	184.65737390518188	fix_pre	0		33.0	57.0	2.5	/experiments/knapen_aot/videos/R_S_comp_GL_G010_C006_PSNK_NOSUN_v12_SDR_PS_FINAL_20180709_SDR_2K_AVC.mp4	0.0	264.51516604423523	0.2748591899871826
59	184.92401504516602	response	0	2		57.0	2.5	/experiments/knapen_aot/videos/R_S_comp_GL_G010_C006_PSNK_NOSUN_v12_SDR_PS_FINAL_20180709_SDR_2K_AVC.mp4	0.0	264.78180718421936	
59	184.93223309516907	movie	1		166.0	57.0	2.5	/experiments/knapen_aot/videos/R_S_comp_GL_G010_C006_PSNK_NOSUN_v12_SDR_PS_FINAL_20180709_SDR_2K_AVC.mp4	0.0	264.7900252342224	2.5083799362182617
59	187.44061303138733	fix_post	2		12.0	57.0	2.5	/experiments/knapen_aot/videos/R_S_comp_GL_G010_C006_PSNK_NOSUN_v12_SDR_PS_FINAL_20180709_SDR_2K_AVC.mp4	0.0	267.2984051704407	0.10002803802490234
60	187.54064106941223	fix_pre	0		40.0	58.0	2.5	/experiments/knapen_aot/videos/R_S_production_ID_5144824.mp4	0.0	267.3984332084656	0.3332200050354004
60	187.8657100200653	response	0	2		58.0	2.5	/experiments/knapen_aot/videos/R_S_production_ID_5144824.mp4	0.0	267.72350215911865	
60	187.87386107444763	movie	1		166.0	58.0	2.5	/experiments/knapen_aot/videos/R_S_production_ID_5144824.mp4	0.0	267.731653213501	2.50833797454834
60	190.38219904899597	fix_post	2		12.0	58.0	2.5	/experiments/knapen_aot/videos/R_S_production_ID_5144824.mp4	0.0	270.2399911880493	0.10009503364562988
61	190.4822940826416	fix_pre	0		51.0	59.0	2.5	/experiments/knapen_aot/videos/S_yt-LsCCAQ8BRO8_7.mp4	0.0	270.34008622169495	0.42504191398620605
61	190.89904499053955	response	0	2		59.0	2.5	/experiments/knapen_aot/videos/S_yt-LsCCAQ8BRO8_7.mp4	0.0	270.7568371295929	
61	190.9073359966278	movie	1		301.0	59.0	2.5	/experiments/knapen_aot/videos/S_yt-LsCCAQ8BRO8_7.mp4	0.0	270.76512813568115	2.508268117904663
61	193.41560411453247	fix_post	2		12.0	59.0	2.5	/experiments/knapen_aot/videos/S_yt-LsCCAQ8BRO8_7.mp4	0.0	273.2733962535858	0.09999895095825195
62	193.51560306549072	fix_pre	0		224.0	60.0	2.5	/experiments/knapen_aot/videos/S_yt-m8HxO_-RRq0_127.mp4	0.0	273.37339520454407	1.8665709495544434
62	195.3740210533142	response	0	2		60.0	2.5	/experiments/knapen_aot/videos/S_yt-m8HxO_-RRq0_127.mp4	0.0	275.23181319236755	
62	195.38217401504517	movie	1		298.0	60.0	2.5	/experiments/knapen_aot/videos/S_yt-m8HxO_-RRq0_127.mp4	0.0	275.2399661540985	2.5083999633789062
62	197.89057397842407	fix_post	2		12.0	60.0	2.5	/experiments/knapen_aot/videos/S_yt-m8HxO_-RRq0_127.mp4	0.0	277.7483661174774	0.09998798370361328
63	197.99056196212769	fix_pre	0		104.0	61.0	2.5	/experiments/knapen_aot/videos/S_yt-JH6qCYAnX-I_70.mp4	0.0	277.84835410118103	0.8665881156921387
63	198.84897804260254	response	0	2		61.0	2.5	/experiments/knapen_aot/videos/S_yt-JH6qCYAnX-I_70.mp4	0.0	278.7067701816559	
63	198.85715007781982	movie	1		301.0	61.0	2.5	/experiments/knapen_aot/videos/S_yt-JH6qCYAnX-I_70.mp4	0.0	278.71494221687317	2.508389949798584
63	201.3655400276184	fix_post	2		12.0	61.0	2.5	/experiments/knapen_aot/videos/S_yt-JH6qCYAnX-I_70.mp4	0.0	281.22333216667175	0.09991598129272461
64	201.46545600891113	fix_pre	0		91.0	62.0	2.5	/experiments/knapen_aot/videos/S_ILSVRC2015_train_00251004.mp4	0.0	281.3232481479645	0.7583589553833008
64	202.21567106246948	response	0	2		62.0	2.5	/experiments/knapen_aot/videos/S_ILSVRC2015_train_00251004.mp4	0.0	282.0734632015228	
64	202.22381496429443	movie	1		301.0	62.0	2.5	/experiments/knapen_aot/videos/S_ILSVRC2015_train_00251004.mp4	0.0	282.0816071033478	2.5083751678466797
64	204.7321901321411	fix_post	2		12.0	62.0	2.5	/experiments/knapen_aot/videos/S_ILSVRC2015_train_00251004.mp4	0.0	284.58998227119446	0.10001897811889648
65	204.83220911026	fix_pre	0		51.0	63.0	2.5	blank	1.0	284.69000124931335	0.4249420166015625
65	205.24897503852844	response	0	2		63.0	2.5	blank	1.0	285.1067671775818	
65	205.25715112686157	movie	1		301.0	63.0	2.5	blank	1.0	285.1149432659149	2.508330821990967
65	207.76548194885254	fix_post	2		12.0	63.0	2.5	blank	1.0	287.6232740879059	0.10005307197570801
66	207.86553502082825	fix_pre	0		45.0	64.0	2.5	/experiments/knapen_aot/videos/S_yt-OdTWn1U1mO4_68.mp4	0.0	287.7233271598816	0.37491488456726074
66	208.2322769165039	response	0	2		64.0	2.5	/experiments/knapen_aot/videos/S_yt-OdTWn1U1mO4_68.mp4	0.0	288.09006905555725	
66	208.2404499053955	movie	1		301.0	64.0	2.5	/experiments/knapen_aot/videos/S_yt-OdTWn1U1mO4_68.mp4	0.0	288.09824204444885	2.5083670616149902
66	210.7488169670105	fix_post	2		12.0	64.0	2.5	/experiments/knapen_aot/videos/S_yt-OdTWn1U1mO4_68.mp4	0.0	290.60660910606384	0.09988903999328613
67	210.84870600700378	fix_pre	0		51.0	65.0	2.5	/experiments/knapen_aot/videos/R_S_yt-Pinnv3-3GFU_452.mp4	0.0	290.70649814605713	0.425091028213501
67	211.25815892219543	response	0	2		65.0	2.5	/experiments/knapen_aot/videos/R_S_yt-Pinnv3-3GFU_452.mp4	0.0	291.1159510612488	
67	211.27379703521729	movie	1		299.0	65.0	2.5	/experiments/knapen_aot/videos/R_S_yt-Pinnv3-3GFU_452.mp4	0.0	291.13158917427063	2.5083348751068115
67	213.7821319103241	fix_post	2		12.0	65.0	2.5	/experiments/knapen_aot/videos/R_S_yt-Pinnv3-3GFU_452.mp4	0.0	293.63992404937744	0.10005021095275879
68	213.88218212127686	fix_pre	0		58.0	66.0	2.5	/experiments/knapen_aot/videos/R_S_yt-YykKZWKmLnQ_386.mp4	0.0	293.7399742603302	0.4832479953765869
68	214.35728693008423	response	0	2		66.0	2.5	/experiments/knapen_aot/videos/R_S_yt-YykKZWKmLnQ_386.mp4	0.0	294.2150790691376	
68	214.36543011665344	movie	1		301.0	66.0	2.5	/experiments/knapen_aot/videos/R_S_yt-YykKZWKmLnQ_386.mp4	0.0	294.2232222557068	2.508373975753784
68	216.87380409240723	fix_post	2		12.0	66.0	2.5	/experiments/knapen_aot/videos/R_S_yt-YykKZWKmLnQ_386.mp4	0.0	296.73159623146057	0.09999489784240723
69	216.97379899024963	fix_pre	0		62.0	67.0	2.5	/experiments/knapen_aot/videos/S_yt-Co4dzHwupRM_18.mp4	0.0	296.831591129303	0.5166101455688477
69	217.48225498199463	response	0	2		67.0	2.5	/experiments/knapen_aot/videos/S_yt-Co4dzHwupRM_18.mp4	0.0	297.340047121048	
69	217.49040913581848	movie	1		301.0	67.0	2.5	/experiments/knapen_aot/videos/S_yt-Co4dzHwupRM_18.mp4	0.0	297.3482012748718	2.508359909057617
69	219.9987690448761	fix_post	2		12.0	67.0	2.5	/experiments/knapen_aot/videos/S_yt-Co4dzHwupRM_18.mp4	0.0	299.85656118392944	0.10001707077026367
70	220.09878611564636	fix_pre	0		81.0	68.0	2.5	/experiments/knapen_aot/videos/R_S_ILSVRC2015_train_00587000.mp4	0.0	299.9565782546997	0.6762700080871582
70	220.76560497283936	response	0	2		68.0	2.5	/experiments/knapen_aot/videos/R_S_ILSVRC2015_train_00587000.mp4	0.0	300.6233971118927	
70	220.77505612373352	movie	1		301.0	68.0	2.5	/experiments/knapen_aot/videos/R_S_ILSVRC2015_train_00587000.mp4	0.0	300.63284826278687	2.507056951522827
70	223.28211307525635	fix_post	2		12.0	68.0	2.5	/experiments/knapen_aot/videos/R_S_ILSVRC2015_train_00587000.mp4	0.0	303.1399052143097	0.09995102882385254
71	223.3820641040802	fix_pre	0		77.0	69.0	2.5	/experiments/knapen_aot/videos/R_S_yt-AbJBxqEYoMg_27.mp4	0.0	303.23985624313354	0.6429469585418701
71	224.0155909061432	response	0	2		69.0	2.5	/experiments/knapen_aot/videos/R_S_yt-AbJBxqEYoMg_27.mp4	0.0	303.87338304519653	
71	224.02501106262207	movie	1		301.0	69.0	2.5	/experiments/knapen_aot/videos/R_S_yt-AbJBxqEYoMg_27.mp4	0.0	303.8828032016754	2.50703501701355
71	226.53204607963562	fix_post	2		12.0	69.0	2.5	/experiments/knapen_aot/videos/R_S_yt-AbJBxqEYoMg_27.mp4	0.0	306.38983821868896	0.10001587867736816
72	226.632061958313	fix_pre	0		54.0	70.0	2.5	blank	1.0	306.48985409736633	0.44991517066955566
72	227.07394003868103	response	0	2		70.0	2.5	blank	1.0	306.9317321777344	
72	227.08197712898254	movie	1		301.0	70.0	2.5	blank	1.0	306.9397692680359	2.508373975753784
72	229.59035110473633	fix_post	2		12.0	70.0	2.5	blank	1.0	309.4481432437897	0.10004281997680664
73	229.69039392471313	fix_pre	0		39.0	71.0	2.5	/experiments/knapen_aot/videos/S_ILSVRC2015_train_00371006.mp4	0.0	309.5481860637665	0.3249790668487549
73	230.0072889328003	response	0	2		71.0	2.5	/experiments/knapen_aot/videos/S_ILSVRC2015_train_00371006.mp4	0.0	309.86508107185364	
73	230.0153729915619	movie	1		301.0	71.0	2.5	/experiments/knapen_aot/videos/S_ILSVRC2015_train_00371006.mp4	0.0	309.87316513061523	2.5082499980926514
73	232.52362298965454	fix_post	2		11.0	71.0	2.5	/experiments/knapen_aot/videos/S_ILSVRC2015_train_00371006.mp4	0.0	312.3814151287079	0.10006999969482422
74	232.62369298934937	fix_pre	0		58.0	72.0	2.5	/experiments/knapen_aot/videos/S_yt-m8HxO_-RRq0_127.mp4	0.0	312.4814851284027	0.48461198806762695
74	233.09881711006165	response	0	2		72.0	2.5	/experiments/knapen_aot/videos/S_yt-m8HxO_-RRq0_127.mp4	0.0	312.956609249115	
74	233.108304977417	movie	1		301.0	72.0	2.5	/experiments/knapen_aot/videos/S_yt-m8HxO_-RRq0_127.mp4	0.0	312.96609711647034	2.507061004638672
74	235.61536598205566	fix_post	2		12.0	72.0	2.5	/experiments/knapen_aot/videos/S_yt-m8HxO_-RRq0_127.mp4	0.0	315.473158121109	0.09994006156921387
75	235.71530604362488	fix_pre	0		180.0	73.0	2.5	/experiments/knapen_aot/videos/S_yt-w_C-15eJeCQ_191.mp4	0.0	315.5730981826782	1.499971866607666
75	237.2071521282196	response	0	2		73.0	2.5	/experiments/knapen_aot/videos/S_yt-w_C-15eJeCQ_191.mp4	0.0	317.06494426727295	
75	237.21527791023254	movie	1		301.0	73.0	2.5	/experiments/knapen_aot/videos/S_yt-w_C-15eJeCQ_191.mp4	0.0	317.0730700492859	2.5084121227264404
75	239.72369003295898	fix_post	2		12.0	73.0	2.5	/experiments/knapen_aot/videos/S_yt-w_C-15eJeCQ_191.mp4	0.0	319.58148217201233	0.10003209114074707
76	239.82372212409973	fix_pre	0		98.0	74.0	2.5	/experiments/knapen_aot/videos/S_yt-AbJBxqEYoMg_27.mp4	0.0	319.6815142631531	0.8166239261627197
76	240.63223505020142	response	0	2		74.0	2.5	/experiments/knapen_aot/videos/S_yt-AbJBxqEYoMg_27.mp4	0.0	320.49002718925476	
76	240.64034605026245	movie	1		301.0	74.0	2.5	/experiments/knapen_aot/videos/S_yt-AbJBxqEYoMg_27.mp4	0.0	320.4981381893158	2.5082879066467285
76	243.14863395690918	fix_post	2		12.0	74.0	2.5	/experiments/knapen_aot/videos/S_yt-AbJBxqEYoMg_27.mp4	0.0	323.0064260959625	0.10000395774841309
77	243.2486379146576	fix_pre	0		39.0	75.0	2.5	/experiments/knapen_aot/videos/R_S_production_ID_5199636.mp4	0.0	323.10643005371094	0.3250410556793213
77	243.56545305252075	response	0	2		75.0	2.5	/experiments/knapen_aot/videos/R_S_production_ID_5199636.mp4	0.0	323.4232451915741	
77	243.5736789703369	movie	1		168.0	75.0	2.5	/experiments/knapen_aot/videos/R_S_production_ID_5199636.mp4	0.0	323.43147110939026	2.508296012878418
77	246.08197498321533	fix_post	2		12.0	75.0	2.5	/experiments/knapen_aot/videos/R_S_production_ID_5199636.mp4	0.0	325.9397671222687	0.10004997253417969
78	246.1820249557495	fix_pre	0		54.0	76.0	2.5	blank	1.0	326.03981709480286	0.4499530792236328
78	246.61621713638306	response	0	2		76.0	2.5	blank	1.0	326.4740092754364	
78	246.63197803497314	movie	1		301.0	76.0	2.5	blank	1.0	326.4897701740265	2.5082900524139404
78	249.14026808738708	fix_post	2		12.0	76.0	2.5	blank	1.0	328.99806022644043	0.10005903244018555
79	249.24032711982727	fix_pre	0		46.0	77.0	2.5	/experiments/knapen_aot/videos/R_S_yt-yQrDeFlFmfM_138.mp4	0.0	329.0981192588806	0.3832709789276123
79	249.61546802520752	response	0	2		77.0	2.5	/experiments/knapen_aot/videos/R_S_yt-yQrDeFlFmfM_138.mp4	0.0	329.47326016426086	
79	249.62359809875488	movie	1		301.0	77.0	2.5	/experiments/knapen_aot/videos/R_S_yt-yQrDeFlFmfM_138.mp4	0.0	329.4813902378082	2.5083658695220947
79	252.13196396827698	fix_post	2		12.0	77.0	2.5	/experiments/knapen_aot/videos/R_S_yt-yQrDeFlFmfM_138.mp4	0.0	331.9897561073303	0.10002613067626953
80	252.23199009895325	fix_pre	0		36.0	78.0	2.5	/experiments/knapen_aot/videos/R_S_yt-zhQ32_OayBQ_39.mp4	0.0	332.0897822380066	0.29988598823547363
80	252.5237889289856	response	0	2		78.0	2.5	/experiments/knapen_aot/videos/R_S_yt-zhQ32_OayBQ_39.mp4	0.0	332.38158106803894	
80	252.53187608718872	movie	1		301.0	78.0	2.5	/experiments/knapen_aot/videos/R_S_yt-zhQ32_OayBQ_39.mp4	0.0	332.38966822624207	2.508424997329712
80	255.04030108451843	fix_post	2		12.0	78.0	2.5	/experiments/knapen_aot/videos/R_S_yt-zhQ32_OayBQ_39.mp4	0.0	334.8980932235718	0.0999898910522461
81	255.14029097557068	fix_pre	0		38.0	79.0	2.5	/experiments/knapen_aot/videos/S_yt-qBPDvSQD0XY_5.mp4	0.0	334.998083114624	0.3166971206665039
81	255.44872903823853	response	0	2		79.0	2.5	/experiments/knapen_aot/videos/S_yt-qBPDvSQD0XY_5.mp4	0.0	335.30652117729187	
81	255.45698809623718	movie	1		301.0	79.0	2.5	/experiments/knapen_aot/videos/S_yt-qBPDvSQD0XY_5.mp4	0.0	335.3147802352905	2.508344888687134
81	257.9653329849243	fix_post	2		10.0	79.0	2.5	/experiments/knapen_aot/videos/S_yt-qBPDvSQD0XY_5.mp4	0.0	337.82312512397766	0.09998512268066406
82	258.065318107605	fix_pre	0		33.0	80.0	2.5	/experiments/knapen_aot/videos/R_S_yt-ycQy_fHCK-U_8.mp4	0.0	337.9231102466583	0.27495598793029785
82	258.3321099281311	response	0	2		80.0	2.5	/experiments/knapen_aot/videos/R_S_yt-ycQy_fHCK-U_8.mp4	0.0	338.18990206718445	
82	258.3402740955353	movie	1		301.0	80.0	2.5	/experiments/knapen_aot/videos/R_S_yt-ycQy_fHCK-U_8.mp4	0.0	338.1980662345886	2.5082719326019287
82	260.8485460281372	fix_post	2		12.0	80.0	2.5	/experiments/knapen_aot/videos/R_S_yt-ycQy_fHCK-U_8.mp4	0.0	340.70633816719055	0.10004806518554688
83	260.94859409332275	fix_pre	0		36.0	81.0	2.5	/experiments/knapen_aot/videos/S_yt-RHPOCG1mII0_138.mp4	0.0	340.8063862323761	0.3000178337097168
83	261.24044704437256	response	0	2		81.0	2.5	/experiments/knapen_aot/videos/S_yt-RHPOCG1mII0_138.mp4	0.0	341.0982391834259	
83	261.24861192703247	movie	1		300.0	81.0	2.5	/experiments/knapen_aot/videos/S_yt-RHPOCG1mII0_138.mp4	0.0	341.1064040660858	2.5083069801330566
83	263.7569189071655	fix_post	2		12.0	81.0	2.5	/experiments/knapen_aot/videos/S_yt-RHPOCG1mII0_138.mp4	0.0	343.6147110462189	0.10000109672546387
84	263.856920003891	fix_pre	0		43.0	82.0	2.5	/experiments/knapen_aot/videos/R_S_AK_A004_C012_SDR_20191217_SDR_2K_AVC.mp4	0.0	343.71471214294434	0.35835909843444824
84	264.20708990097046	response	0	2		82.0	2.5	/experiments/knapen_aot/videos/R_S_AK_A004_C012_SDR_20191217_SDR_2K_AVC.mp4	0.0	344.0648820400238	
84	264.21527910232544	movie	1		187.0	82.0	2.5	/experiments/knapen_aot/videos/R_S_AK_A004_C012_SDR_20191217_SDR_2K_AVC.mp4	0.0	344.0730712413788	2.508293867111206
84	266.72357296943665	fix_post	2		12.0	82.0	2.5	/experiments/knapen_aot/videos/R_S_AK_A004_C012_SDR_20191217_SDR_2K_AVC.mp4	0.0	346.58136510849	0.09994792938232422
85	266.82352089881897	fix_pre	0		39.0	83.0	2.5	blank	1.0	346.6813130378723	0.32509422302246094
85	267.1402781009674	response	0	2		83.0	2.5	blank	1.0	346.99807024002075	
85	267.14861512184143	movie	1		301.0	83.0	2.5	blank	1.0	347.0064072608948	2.5082759857177734
85	269.6568911075592	fix_post	2		12.0	83.0	2.5	blank	1.0	349.51468324661255	0.10000181198120117
87	269.7568929195404	stim	0		847.0					349.61468505859375	7.059326171875
87	269.932030916214	response	0	2						349.78982305526733	
87	276.8085629940033	response	0	space						356.66635513305664	
