trial_nr	onset	event_type	phase	response	nr_frames	movie_index	movie_duration	movie_file	blank	onset_abs	duration
0	0.12498092651367188	stim	0		71.0					65.84853601455688	0.5915811061859131
0	0.7082810401916504	response	0	space						66.43183612823486	
1	0.716562032699585	stim	0		121.0					66.4401171207428	1.0083520412445068
1	1.1917059421539307	response	0	space						66.91526103019714	
1	1.4919939041137695	response	0	space						67.21554899215698	
1	1.7249140739440918	stim	1		120.0					67.4484691619873	0.999661922454834
1	1.800058126449585	response	1	space						67.5236132144928	
1	2.008981943130493	response	1	2						67.7325370311737	
1	2.0293989181518555	response	1	space						67.75295400619507	
1	2.336920976638794	response	1	space						68.060476064682	
2	2.724575996398926	fix_pre	0		9.0	0.0	2.5	/experiments/knapen_aot/videos/R_S_ILSVRC2015_train_00415007.mp4	0.0	68.44813108444214	0.07499909400939941
2	2.7913849353790283	response	0	space		0.0	2.5	/experiments/knapen_aot/videos/R_S_ILSVRC2015_train_00415007.mp4	0.0	68.51494002342224	
2	2.799575090408325	movie	1		301.0	0.0	2.5	/experiments/knapen_aot/videos/R_S_ILSVRC2015_train_00415007.mp4	0.0	68.52313017845154	2.508358955383301
2	5.307934045791626	fix_post	2		12.0	0.0	2.5	/experiments/knapen_aot/videos/R_S_ILSVRC2015_train_00415007.mp4	0.0	71.03148913383484	0.10034584999084473
3	5.408279895782471	fix_pre	0		48.0	1.0	2.5	/experiments/knapen_aot/videos/S_wc-zkO_omg3nTvg_5.mp4	0.0	71.13183498382568	0.4027252197265625
3	5.804105997085571	response	0	2		1.0	2.5	/experiments/knapen_aot/videos/S_wc-zkO_omg3nTvg_5.mp4	0.0	71.52766108512878	
3	5.811005115509033	movie	1		163.0	1.0	2.5	/experiments/knapen_aot/videos/S_wc-zkO_omg3nTvg_5.mp4	0.0	71.53456020355225	2.5053069591522217
3	8.316312074661255	fix_post	2		12.0	1.0	2.5	/experiments/knapen_aot/videos/S_wc-zkO_omg3nTvg_5.mp4	0.0	74.03986716270447	0.09996795654296875
4	8.416280031204224	fix_pre	0		16.0	2.0	2.5	/experiments/knapen_aot/videos/R_S_comp_LA_A008_C004_ALTB_ED_FROM_FLAME_RETIME_v46_SDR_PS_20180917_SDR_2K_AVC.mp4	0.0	74.13983511924744	0.13331007957458496
4	8.541337966918945	response	0	2		2.0	2.5	/experiments/knapen_aot/videos/R_S_comp_LA_A008_C004_ALTB_ED_FROM_FLAME_RETIME_v46_SDR_PS_20180917_SDR_2K_AVC.mp4	0.0	74.26489305496216	
4	8.549590110778809	movie	1		171.0	2.0	2.5	/experiments/knapen_aot/videos/R_S_comp_LA_A008_C004_ALTB_ED_FROM_FLAME_RETIME_v46_SDR_PS_20180917_SDR_2K_AVC.mp4	0.0	74.27314519882202	2.508323907852173
4	11.057914018630981	fix_post	2		12.0	2.0	2.5	/experiments/knapen_aot/videos/R_S_comp_LA_A008_C004_ALTB_ED_FROM_FLAME_RETIME_v46_SDR_PS_20180917_SDR_2K_AVC.mp4	0.0	76.7814691066742	0.1003580093383789
5	11.15827202796936	fix_pre	0		49.0	3.0	2.5	/experiments/knapen_aot/videos/S_ILSVRC2015_train_00414000.mp4	0.0	76.88182711601257	0.40793895721435547
5	11.55807089805603	response	0	2		3.0	2.5	/experiments/knapen_aot/videos/S_ILSVRC2015_train_00414000.mp4	0.0	77.28162598609924	
5	11.566210985183716	movie	1		301.0	3.0	2.5	/experiments/knapen_aot/videos/S_ILSVRC2015_train_00414000.mp4	0.0	77.28976607322693	2.508384943008423
5	14.074595928192139	fix_post	2		12.0	3.0	2.5	/experiments/knapen_aot/videos/S_ILSVRC2015_train_00414000.mp4	0.0	79.79815101623535	0.10000801086425781
6	14.174603939056396	fix_pre	0		36.0	4.0	2.5	/experiments/knapen_aot/videos/R_S_yt-aSEKRE_FNaI_62.mp4	0.0	79.89815902709961	0.2999281883239746
6	14.466383934020996	response	0	2		4.0	2.5	/experiments/knapen_aot/videos/R_S_yt-aSEKRE_FNaI_62.mp4	0.0	80.18993902206421	
6	14.474532127380371	movie	1		301.0	4.0	2.5	/experiments/knapen_aot/videos/R_S_yt-aSEKRE_FNaI_62.mp4	0.0	80.19808721542358	2.5083189010620117
6	16.982851028442383	fix_post	2		12.0	4.0	2.5	/experiments/knapen_aot/videos/R_S_yt-aSEKRE_FNaI_62.mp4	0.0	82.7064061164856	0.10000801086425781
7	17.08285903930664	fix_pre	0		82.0	5.0	2.5	blank	1.0	82.80641412734985	0.683305025100708
7	17.75046992301941	response	0	2		5.0	2.5	blank	1.0	83.47402501106262	
7	17.76616406440735	movie	1		301.0	5.0	2.5	blank	1.0	83.48971915245056	2.5083868503570557
7	20.274550914764404	fix_post	2		12.0	5.0	2.5	blank	1.0	85.99810600280762	0.10000801086425781
8	20.374558925628662	fix_pre	0		45.0	6.0	2.5	/experiments/knapen_aot/videos/R_S_comp_A012_C014_1223PT_v53_SDR_PS_FINAL_20180709_F0F8700_SDR_2K_AVC.mp4	0.0	86.09811401367188	0.37494897842407227
8	20.741291046142578	response	0	2		6.0	2.5	/experiments/knapen_aot/videos/R_S_comp_A012_C014_1223PT_v53_SDR_PS_FINAL_20180709_F0F8700_SDR_2K_AVC.mp4	0.0	86.46484613418579	
8	20.749507904052734	movie	1		167.0	6.0	2.5	/experiments/knapen_aot/videos/R_S_comp_A012_C014_1223PT_v53_SDR_PS_FINAL_20180709_F0F8700_SDR_2K_AVC.mp4	0.0	86.47306299209595	2.5084030628204346
8	23.25791096687317	fix_post	2		12.0	6.0	2.5	/experiments/knapen_aot/videos/R_S_comp_A012_C014_1223PT_v53_SDR_PS_FINAL_20180709_F0F8700_SDR_2K_AVC.mp4	0.0	88.98146605491638	0.09999513626098633
9	23.357906103134155	fix_pre	0		49.0	7.0	2.5	/experiments/knapen_aot/videos/R_S_ILSVRC2015_train_00418004.mp4	0.0	89.08146119117737	0.4082047939300537
9	23.757927894592285	response	0	2		7.0	2.5	/experiments/knapen_aot/videos/R_S_ILSVRC2015_train_00418004.mp4	0.0	89.4814829826355	
9	23.76611089706421	movie	1		301.0	7.0	2.5	/experiments/knapen_aot/videos/R_S_ILSVRC2015_train_00418004.mp4	0.0	89.48966598510742	2.508371114730835
9	26.274482011795044	fix_post	2		12.0	7.0	2.5	/experiments/knapen_aot/videos/R_S_ILSVRC2015_train_00418004.mp4	0.0	91.99803709983826	0.1000208854675293
10	26.374502897262573	fix_pre	0		12.0	8.0	2.5	/experiments/knapen_aot/videos/R_S_yt-LsCCAQ8BRO8_7.mp4	0.0	92.09805798530579	0.10009622573852539
10	26.466241121292114	response	0	2		8.0	2.5	/experiments/knapen_aot/videos/R_S_yt-LsCCAQ8BRO8_7.mp4	0.0	92.18979620933533	
10	26.4745991230011	movie	1		301.0	8.0	2.5	/experiments/knapen_aot/videos/R_S_yt-LsCCAQ8BRO8_7.mp4	0.0	92.19815421104431	2.5083417892456055
10	28.982940912246704	fix_post	2		12.0	8.0	2.5	/experiments/knapen_aot/videos/R_S_yt-LsCCAQ8BRO8_7.mp4	0.0	94.70649600028992	0.09996318817138672
11	29.08290410041809	fix_pre	0		144.0	9.0	2.5	/experiments/knapen_aot/videos/S_yt-GWOOQZ19-oU_331.mp4	0.0	94.8064591884613	1.200037956237793
11	30.274630069732666	response	0	2		9.0	2.5	/experiments/knapen_aot/videos/S_yt-GWOOQZ19-oU_331.mp4	0.0	95.99818515777588	
11	30.282942056655884	movie	1		301.0	9.0	2.5	/experiments/knapen_aot/videos/S_yt-GWOOQZ19-oU_331.mp4	0.0	96.0064971446991	2.508180856704712
11	32.791122913360596	fix_post	2		12.0	9.0	2.5	/experiments/knapen_aot/videos/S_yt-GWOOQZ19-oU_331.mp4	0.0	98.51467800140381	0.09998917579650879
12	32.891112089157104	fix_pre	0		71.0	10.0	2.5	/experiments/knapen_aot/videos/R_S_yt--a-d97T4Gak_75.mp4	0.0	98.61466717720032	0.5916428565979004
12	33.474613904953	response	0	2		10.0	2.5	/experiments/knapen_aot/videos/R_S_yt--a-d97T4Gak_75.mp4	0.0	99.19816899299622	
12	33.482754945755005	movie	1		301.0	10.0	2.5	/experiments/knapen_aot/videos/R_S_yt--a-d97T4Gak_75.mp4	0.0	99.20631003379822	2.508941173553467
12	35.99169611930847	fix_post	2		12.0	10.0	2.5	/experiments/knapen_aot/videos/R_S_yt--a-d97T4Gak_75.mp4	0.0	101.71525120735168	0.09942078590393066
13	36.0911169052124	fix_pre	0		85.0	11.0	2.5	/experiments/knapen_aot/videos/R_S_yt--v_iMUMMX6g_39.mp4	0.0	101.81467199325562	0.7082340717315674
13	36.79124689102173	response	0	2		11.0	2.5	/experiments/knapen_aot/videos/R_S_yt--v_iMUMMX6g_39.mp4	0.0	102.51480197906494	
13	36.79935097694397	movie	1		301.0	11.0	2.5	/experiments/knapen_aot/videos/R_S_yt--v_iMUMMX6g_39.mp4	0.0	102.52290606498718	2.5084071159362793
13	39.30775809288025	fix_post	2		12.0	11.0	2.5	/experiments/knapen_aot/videos/R_S_yt--v_iMUMMX6g_39.mp4	0.0	105.03131318092346	0.10023093223571777
14	39.40798902511597	fix_pre	0		32.0	12.0	2.5	blank	1.0	105.13154411315918	0.26634907722473145
14	39.66622710227966	response	0	2		12.0	2.5	blank	1.0	105.38978219032288	
14	39.6743381023407	movie	1		301.0	12.0	2.5	blank	1.0	105.39789319038391	2.50849986076355
14	42.18283796310425	fix_post	2		12.0	12.0	2.5	blank	1.0	107.90639305114746	0.10014009475708008
15	42.28297805786133	fix_pre	0		69.0	13.0	2.5	/experiments/knapen_aot/videos/S_ILSVRC2015_train_00457000.mp4	0.0	108.00653314590454	0.5747389793395996
15	42.84952402114868	response	0	2		13.0	2.5	/experiments/knapen_aot/videos/S_ILSVRC2015_train_00457000.mp4	0.0	108.5730791091919	
15	42.85771703720093	movie	1		301.0	13.0	2.5	/experiments/knapen_aot/videos/S_ILSVRC2015_train_00457000.mp4	0.0	108.58127212524414	2.508979082107544
15	45.36669611930847	fix_post	2		12.0	13.0	2.5	/experiments/knapen_aot/videos/S_ILSVRC2015_train_00457000.mp4	0.0	111.09025120735168	0.09935379028320312
16	45.466049909591675	fix_pre	0		279.0	14.0	2.5	/experiments/knapen_aot/videos/R_S_yt-gaXgXGEanCk_140.mp4	0.0	111.18960499763489	2.3249621391296387
16	47.77525210380554	response	0	2		14.0	2.5	/experiments/knapen_aot/videos/R_S_yt-gaXgXGEanCk_140.mp4	0.0	113.49880719184875	
16	47.79101204872131	movie	1		301.0	14.0	2.5	/experiments/knapen_aot/videos/R_S_yt-gaXgXGEanCk_140.mp4	0.0	113.51456713676453	2.508652925491333
16	50.29966497421265	fix_post	2		12.0	14.0	2.5	/experiments/knapen_aot/videos/R_S_yt-gaXgXGEanCk_140.mp4	0.0	116.02322006225586	0.09972405433654785
17	50.399389028549194	fix_pre	0		50.0	15.0	2.5	/experiments/knapen_aot/videos/R_S_yt-ayx4rU9bJrU_179.mp4	0.0	116.12294411659241	0.41657495498657227
17	50.80785012245178	response	0	2		15.0	2.5	/experiments/knapen_aot/videos/R_S_yt-ayx4rU9bJrU_179.mp4	0.0	116.531405210495	
17	50.81596398353577	movie	1		301.0	15.0	2.5	/experiments/knapen_aot/videos/R_S_yt-ayx4rU9bJrU_179.mp4	0.0	116.53951907157898	2.508484125137329
17	53.324448108673096	fix_post	2		12.0	15.0	2.5	/experiments/knapen_aot/videos/R_S_yt-ayx4rU9bJrU_179.mp4	0.0	119.04800319671631	0.09995079040527344
18	53.42439889907837	fix_pre	0		241.0	16.0	2.5	/experiments/knapen_aot/videos/S_yt-Pc1ZlCvsPpc_5.mp4	0.0	119.14795398712158	2.0082290172576904
18	55.42454409599304	response	0	2		16.0	2.5	/experiments/knapen_aot/videos/S_yt-Pc1ZlCvsPpc_5.mp4	0.0	121.14809918403625	
18	55.43262791633606	movie	1		301.0	16.0	2.5	/experiments/knapen_aot/videos/S_yt-Pc1ZlCvsPpc_5.mp4	0.0	121.15618300437927	2.508587121963501
18	57.94121503829956	fix_post	2		12.0	16.0	2.5	/experiments/knapen_aot/videos/S_yt-Pc1ZlCvsPpc_5.mp4	0.0	123.66477012634277	0.09985208511352539
19	58.041067123413086	fix_pre	0		129.0	17.0	2.5	/experiments/knapen_aot/videos/S_bing-www_nytimes_com_video_dining_1247468118505_grilled-chicken-breasts-with-herb-butter_html_132.mp4	0.0	123.7646222114563	1.074955940246582
19	59.10776901245117	response	0	2		17.0	2.5	/experiments/knapen_aot/videos/S_bing-www_nytimes_com_video_dining_1247468118505_grilled-chicken-breasts-with-herb-butter_html_132.mp4	0.0	124.83132410049438	
19	59.11602306365967	movie	1		167.0	17.0	2.5	/experiments/knapen_aot/videos/S_bing-www_nytimes_com_video_dining_1247468118505_grilled-chicken-breasts-with-herb-butter_html_132.mp4	0.0	124.83957815170288	2.5084409713745117
19	61.62446403503418	fix_post	2		12.0	17.0	2.5	/experiments/knapen_aot/videos/S_bing-www_nytimes_com_video_dining_1247468118505_grilled-chicken-breasts-with-herb-butter_html_132.mp4	0.0	127.34801912307739	0.09994006156921387
20	61.724404096603394	fix_pre	0		13.0	18.0	2.5	/experiments/knapen_aot/videos/S_yt-mMnlzv6cfH4_134.mp4	0.0	127.4479591846466	0.10822391510009766
20	61.824527978897095	response	0	2		18.0	2.5	/experiments/knapen_aot/videos/S_yt-mMnlzv6cfH4_134.mp4	0.0	127.54808306694031	
20	61.83262801170349	movie	1		301.0	18.0	2.5	/experiments/knapen_aot/videos/S_yt-mMnlzv6cfH4_134.mp4	0.0	127.5561830997467	2.508378028869629
20	64.34100604057312	fix_post	2		12.0	18.0	2.5	/experiments/knapen_aot/videos/S_yt-mMnlzv6cfH4_134.mp4	0.0	130.06456112861633	0.10000801086425781
21	64.44101405143738	fix_pre	0		33.0	19.0	2.5	blank	1.0	130.1645691394806	0.2750098705291748
21	64.70781111717224	response	0	2		19.0	2.5	blank	1.0	130.43136620521545	
21	64.71602392196655	movie	1		301.0	19.0	2.5	blank	1.0	130.43957901000977	2.5083181858062744
21	66.53277492523193	response	1	2		19.0	2.5	blank	1.0	132.25633001327515	
21	67.22434210777283	fix_post	2		12.0	19.0	2.5	blank	1.0	132.94789719581604	0.10008096694946289
22	67.32442307472229	fix_pre	0		22.0	20.0	2.5	/experiments/knapen_aot/videos/S_yt--cAfxH1WnPo_3.mp4	0.0	133.0479781627655	0.18317604064941406
22	67.49939298629761	response	0	2		20.0	2.5	/experiments/knapen_aot/videos/S_yt--cAfxH1WnPo_3.mp4	0.0	133.22294807434082	
22	67.5075991153717	movie	1		301.0	20.0	2.5	/experiments/knapen_aot/videos/S_yt--cAfxH1WnPo_3.mp4	0.0	133.23115420341492	2.508359909057617
22	70.01595902442932	fix_post	2		12.0	20.0	2.5	/experiments/knapen_aot/videos/S_yt--cAfxH1WnPo_3.mp4	0.0	135.73951411247253	0.10006093978881836
23	70.11601996421814	fix_pre	0		34.0	21.0	2.5	/experiments/knapen_aot/videos/S_yt-jeVeQBuzbEQ_120.mp4	0.0	135.83957505226135	0.2833080291748047
23	70.39113092422485	response	0	2		21.0	2.5	/experiments/knapen_aot/videos/S_yt-jeVeQBuzbEQ_120.mp4	0.0	136.11468601226807	
23	70.39932799339294	movie	1		300.0	21.0	2.5	/experiments/knapen_aot/videos/S_yt-jeVeQBuzbEQ_120.mp4	0.0	136.12288308143616	2.5083210468292236
23	72.90764904022217	fix_post	2		12.0	21.0	2.5	/experiments/knapen_aot/videos/S_yt-jeVeQBuzbEQ_120.mp4	0.0	138.63120412826538	0.09998202323913574
24	73.0076310634613	fix_pre	0		30.0	22.0	2.5	/experiments/knapen_aot/videos/R_S_yt-yXJr3FR2xrM_27.mp4	0.0	138.73118615150452	0.2500278949737549
24	73.24942898750305	response	0	2		22.0	2.5	/experiments/knapen_aot/videos/R_S_yt-yXJr3FR2xrM_27.mp4	0.0	138.97298407554626	
24	73.25765895843506	movie	1		301.0	22.0	2.5	/experiments/knapen_aot/videos/R_S_yt-yXJr3FR2xrM_27.mp4	0.0	138.98121404647827	2.508363962173462
24	75.76602292060852	fix_post	2		12.0	22.0	2.5	/experiments/knapen_aot/videos/R_S_yt-yXJr3FR2xrM_27.mp4	0.0	141.48957800865173	0.09996199607849121
25	75.86598491668701	fix_pre	0		30.0	23.0	2.5	/experiments/knapen_aot/videos/S_yt-Co4dzHwupRM_18.mp4	0.0	141.58954000473022	0.24997711181640625
25	76.10776591300964	response	0	2		23.0	2.5	/experiments/knapen_aot/videos/S_yt-Co4dzHwupRM_18.mp4	0.0	141.83132100105286	
25	76.11596202850342	movie	1		301.0	23.0	2.5	/experiments/knapen_aot/videos/S_yt-Co4dzHwupRM_18.mp4	0.0	141.83951711654663	2.5083320140838623
25	78.62429404258728	fix_post	2		12.0	23.0	2.5	/experiments/knapen_aot/videos/S_yt-Co4dzHwupRM_18.mp4	0.0	144.3478491306305	0.09997391700744629
26	78.72426795959473	fix_pre	0		94.0	24.0	2.5	/experiments/knapen_aot/videos/S_yt-kYMffy4hTMo_107.mp4	0.0	144.44782304763794	0.7832620143890381
26	79.4994330406189	response	0	2		24.0	2.5	/experiments/knapen_aot/videos/S_yt-kYMffy4hTMo_107.mp4	0.0	145.2229881286621	
26	79.50752997398376	movie	1		301.0	24.0	2.5	/experiments/knapen_aot/videos/S_yt-kYMffy4hTMo_107.mp4	0.0	145.23108506202698	2.508373975753784
26	82.01590394973755	fix_post	2		12.0	24.0	2.5	/experiments/knapen_aot/videos/S_yt-kYMffy4hTMo_107.mp4	0.0	147.73945903778076	0.10002613067626953
27	82.11593008041382	fix_pre	0		55.0	25.0	2.5	/experiments/knapen_aot/videos/R_S_S003_C020_SDR_2K_AVC.mp4	0.0	147.83948516845703	0.4582710266113281
27	82.56600403785706	response	0	2		25.0	2.5	/experiments/knapen_aot/videos/R_S_S003_C020_SDR_2K_AVC.mp4	0.0	148.28955912590027	
27	82.57420110702515	movie	1		175.0	25.0	2.5	/experiments/knapen_aot/videos/R_S_S003_C020_SDR_2K_AVC.mp4	0.0	148.29775619506836	2.508401870727539
27	85.08260297775269	fix_post	2		12.0	25.0	2.5	/experiments/knapen_aot/videos/R_S_S003_C020_SDR_2K_AVC.mp4	0.0	150.8061580657959	0.10008692741394043
28	85.18268990516663	fix_pre	0		29.0	26.0	2.5	/experiments/knapen_aot/videos/S_yt-PyO8-WsbaLU_43.mp4	0.0	150.90624499320984	0.24146103858947754
28	85.41603302955627	response	0	2		26.0	2.5	/experiments/knapen_aot/videos/S_yt-PyO8-WsbaLU_43.mp4	0.0	151.1395881175995	
28	85.4241509437561	movie	1		301.0	26.0	2.5	/experiments/knapen_aot/videos/S_yt-PyO8-WsbaLU_43.mp4	0.0	151.14770603179932	2.508481025695801
28	87.9326319694519	fix_post	2		12.0	26.0	2.5	/experiments/knapen_aot/videos/S_yt-PyO8-WsbaLU_43.mp4	0.0	153.65618705749512	0.09996914863586426
29	88.03260111808777	fix_pre	0		114.0	27.0	2.5	blank	1.0	153.75615620613098	0.9498758316040039
29	88.97437596321106	response	0	2		27.0	2.5	blank	1.0	154.69793105125427	
29	88.98247694969177	movie	1		301.0	27.0	2.5	blank	1.0	154.70603203773499	2.5083811283111572
29	91.49085807800293	fix_post	2		12.0	27.0	2.5	blank	1.0	157.21441316604614	0.10006499290466309
30	91.59092307090759	fix_pre	0		39.0	28.0	2.5	/experiments/knapen_aot/videos/R_S_ILSVRC2015_train_00479002.mp4	0.0	157.3144781589508	0.32495999336242676
30	91.90763998031616	response	0	2		28.0	2.5	/experiments/knapen_aot/videos/R_S_ILSVRC2015_train_00479002.mp4	0.0	157.63119506835938	
30	91.91588306427002	movie	1		301.0	28.0	2.5	/experiments/knapen_aot/videos/R_S_ILSVRC2015_train_00479002.mp4	0.0	157.63943815231323	2.508389949798584
30	94.4242730140686	fix_post	2		12.0	28.0	2.5	/experiments/knapen_aot/videos/R_S_ILSVRC2015_train_00479002.mp4	0.0	160.14782810211182	0.1001429557800293
31	94.52441596984863	fix_pre	0		34.0	29.0	2.5	/experiments/knapen_aot/videos/R_S_wc-zkO_omg3nTvg_5.mp4	0.0	160.24797105789185	0.28304409980773926
31	94.7993369102478	response	0	2		29.0	2.5	/experiments/knapen_aot/videos/R_S_wc-zkO_omg3nTvg_5.mp4	0.0	160.52289199829102	
31	94.80746006965637	movie	1		163.0	29.0	2.5	/experiments/knapen_aot/videos/R_S_wc-zkO_omg3nTvg_5.mp4	0.0	160.53101515769958	2.508668899536133
31	97.3161289691925	fix_post	2		12.0	29.0	2.5	/experiments/knapen_aot/videos/R_S_wc-zkO_omg3nTvg_5.mp4	0.0	163.03968405723572	0.09987807273864746
32	97.41600704193115	fix_pre	0		24.0	30.0	2.5	/experiments/knapen_aot/videos/S_yt-5DD4XtHSA9Q_171.mp4	0.0	163.13956212997437	0.19990301132202148
32	97.60772800445557	response	0	2		30.0	2.5	/experiments/knapen_aot/videos/S_yt-5DD4XtHSA9Q_171.mp4	0.0	163.33128309249878	
32	97.61591005325317	movie	1		301.0	30.0	2.5	/experiments/knapen_aot/videos/S_yt-5DD4XtHSA9Q_171.mp4	0.0	163.3394651412964	2.5083298683166504
32	100.12423992156982	fix_post	2		12.0	30.0	2.5	/experiments/knapen_aot/videos/S_yt-5DD4XtHSA9Q_171.mp4	0.0	165.84779500961304	0.10002303123474121
33	100.22426295280457	fix_pre	0		72.0	31.0	2.5	/experiments/knapen_aot/videos/S_yt-MXLxcvKZDHw_22.mp4	0.0	165.94781804084778	0.5999290943145752
33	100.80845808982849	response	0	2		31.0	2.5	/experiments/knapen_aot/videos/S_yt-MXLxcvKZDHw_22.mp4	0.0	166.5320131778717	
33	100.82419204711914	movie	1		301.0	31.0	2.5	/experiments/knapen_aot/videos/S_yt-MXLxcvKZDHw_22.mp4	0.0	166.54774713516235	2.5083608627319336
33	103.33255290985107	fix_post	2		12.0	31.0	2.5	/experiments/knapen_aot/videos/S_yt-MXLxcvKZDHw_22.mp4	0.0	169.0561079978943	0.10000801086425781
34	103.43256092071533	fix_pre	0		35.0	32.0	2.5	/experiments/knapen_aot/videos/S_yt-1CV2cYtUlxE_57.mp4	0.0	169.15611600875854	0.29172611236572266
34	103.71599912643433	response	0	2		32.0	2.5	/experiments/knapen_aot/videos/S_yt-1CV2cYtUlxE_57.mp4	0.0	169.43955421447754	
34	103.72428703308105	movie	1		301.0	32.0	2.5	/experiments/knapen_aot/videos/S_yt-1CV2cYtUlxE_57.mp4	0.0	169.44784212112427	2.5082499980926514
34	106.2325370311737	fix_post	2		12.0	32.0	2.5	/experiments/knapen_aot/videos/S_yt-1CV2cYtUlxE_57.mp4	0.0	171.95609211921692	0.09996891021728516
35	106.33250594139099	fix_pre	0		99.0	33.0	2.5	/experiments/knapen_aot/videos/R_S_G008_C015_UHD_SDR_2K_AVC.mp4	0.0	172.0560610294342	0.82499098777771
35	107.14935803413391	response	0	2		33.0	2.5	/experiments/knapen_aot/videos/R_S_G008_C015_UHD_SDR_2K_AVC.mp4	0.0	172.87291312217712	
35	107.1574969291687	movie	1		177.0	33.0	2.5	/experiments/knapen_aot/videos/R_S_G008_C015_UHD_SDR_2K_AVC.mp4	0.0	172.8810520172119	2.5083751678466797
35	109.66587209701538	fix_post	2		12.0	33.0	2.5	/experiments/knapen_aot/videos/R_S_G008_C015_UHD_SDR_2K_AVC.mp4	0.0	175.3894271850586	0.09999585151672363
36	109.7658679485321	fix_pre	0		30.0	34.0	2.5	/experiments/knapen_aot/videos/R_S_yt-1CV2cYtUlxE_57.mp4	0.0	175.48942303657532	0.24996209144592285
36	110.00764012336731	response	0	2		34.0	2.5	/experiments/knapen_aot/videos/R_S_yt-1CV2cYtUlxE_57.mp4	0.0	175.73119521141052	
36	110.01583003997803	movie	1		301.0	34.0	2.5	/experiments/knapen_aot/videos/R_S_yt-1CV2cYtUlxE_57.mp4	0.0	175.73938512802124	2.5084340572357178
36	112.52426409721375	fix_post	2		12.0	34.0	2.5	/experiments/knapen_aot/videos/R_S_yt-1CV2cYtUlxE_57.mp4	0.0	178.24781918525696	0.09991693496704102
37	112.62418103218079	fix_pre	0		19.0	35.0	2.5	blank	1.0	178.347736120224	0.15831494331359863
37	112.77431106567383	response	0	2		35.0	2.5	blank	1.0	178.49786615371704	
37	112.78249597549438	movie	1		301.0	35.0	2.5	blank	1.0	178.5060510635376	2.508355140686035
37	115.29085111618042	fix_post	2		12.0	35.0	2.5	blank	1.0	181.01440620422363	0.10001778602600098
38	115.39086890220642	fix_pre	0		152.0	36.0	2.5	/experiments/knapen_aot/videos/S_yt-54kx8P3L1ns_6.mp4	0.0	181.11442399024963	1.2666041851043701
38	116.6492350101471	response	0	2		36.0	2.5	/experiments/knapen_aot/videos/S_yt-54kx8P3L1ns_6.mp4	0.0	182.3727900981903	
38	116.65747308731079	movie	1		301.0	36.0	2.5	/experiments/knapen_aot/videos/S_yt-54kx8P3L1ns_6.mp4	0.0	182.381028175354	2.5083580017089844
38	119.16583108901978	fix_post	2		12.0	36.0	2.5	/experiments/knapen_aot/videos/S_yt-54kx8P3L1ns_6.mp4	0.0	184.889386177063	0.1000669002532959
39	119.26589798927307	fix_pre	0		79.0	37.0	2.5	/experiments/knapen_aot/videos/S_yt-PREz5XiiXg0_107.mp4	0.0	184.98945307731628	0.6584100723266602
39	119.91593503952026	response	0	2		37.0	2.5	/experiments/knapen_aot/videos/S_yt-PREz5XiiXg0_107.mp4	0.0	185.63949012756348	
39	119.92430806159973	movie	1		301.0	37.0	2.5	/experiments/knapen_aot/videos/S_yt-PREz5XiiXg0_107.mp4	0.0	185.64786314964294	2.508394956588745
39	122.43270301818848	fix_post	2		12.0	37.0	2.5	/experiments/knapen_aot/videos/S_yt-PREz5XiiXg0_107.mp4	0.0	188.1562581062317	0.09973907470703125
40	122.53244209289551	fix_pre	0		193.0	38.0	2.5	/experiments/knapen_aot/videos/R_S_comp_DB_D001_C001_PSNK_v06_SDR_PS_20180824_SDR_2K_AVC.mp4	0.0	188.25599718093872	1.6083459854125977
40	124.13262295722961	response	0	2		38.0	2.5	/experiments/knapen_aot/videos/R_S_comp_DB_D001_C001_PSNK_v06_SDR_PS_20180824_SDR_2K_AVC.mp4	0.0	189.85617804527283	
40	124.1407880783081	movie	1		171.0	38.0	2.5	/experiments/knapen_aot/videos/R_S_comp_DB_D001_C001_PSNK_v06_SDR_PS_20180824_SDR_2K_AVC.mp4	0.0	189.86434316635132	2.5084290504455566
40	126.64921712875366	fix_post	2		12.0	38.0	2.5	/experiments/knapen_aot/videos/R_S_comp_DB_D001_C001_PSNK_v06_SDR_PS_20180824_SDR_2K_AVC.mp4	0.0	192.37277221679688	0.09983587265014648
41	126.74905300140381	fix_pre	0		28.0	39.0	2.5	/experiments/knapen_aot/videos/R_S_production_ID_4540332.mp4	0.0	192.47260808944702	0.23446011543273926
41	126.97418189048767	response	0	2		39.0	2.5	/experiments/knapen_aot/videos/R_S_production_ID_4540332.mp4	0.0	192.69773697853088	
41	126.98351311683655	movie	1		167.0	39.0	2.5	/experiments/knapen_aot/videos/R_S_production_ID_4540332.mp4	0.0	192.70706820487976	2.5072388648986816
41	129.49075198173523	fix_post	2		12.0	39.0	2.5	/experiments/knapen_aot/videos/R_S_production_ID_4540332.mp4	0.0	195.21430706977844	0.10001707077026367
42	129.5907690525055	fix_pre	0		53.0	40.0	2.5	/experiments/knapen_aot/videos/S_yt-RMjo2PPEPEA_112.mp4	0.0	195.3143241405487	0.441648006439209
42	130.0243489742279	response	0	2		40.0	2.5	/experiments/knapen_aot/videos/S_yt-RMjo2PPEPEA_112.mp4	0.0	195.74790406227112	
42	130.0324170589447	movie	1		301.0	40.0	2.5	/experiments/knapen_aot/videos/S_yt-RMjo2PPEPEA_112.mp4	0.0	195.75597214698792	2.5082919597625732
42	132.54070901870728	fix_post	2		12.0	40.0	2.5	/experiments/knapen_aot/videos/S_yt-RMjo2PPEPEA_112.mp4	0.0	198.2642641067505	0.10006189346313477
43	132.6407709121704	fix_pre	0		120.0	41.0	2.5	blank	1.0	198.36432600021362	0.9998791217803955
43	133.63251996040344	response	0	2		41.0	2.5	blank	1.0	199.35607504844666	
43	133.6406500339508	movie	1		301.0	41.0	2.5	blank	1.0	199.36420512199402	2.508457899093628
43	136.14910793304443	fix_post	2		12.0	41.0	2.5	blank	1.0	201.87266302108765	0.09996604919433594
44	136.24907398223877	fix_pre	0		18.0	42.0	2.5	/experiments/knapen_aot/videos/R_S_yt-osz-TXlRdXs_2.mp4	0.0	201.97262907028198	0.15096712112426758
44	136.39074611663818	response	0	2		42.0	2.5	/experiments/knapen_aot/videos/R_S_yt-osz-TXlRdXs_2.mp4	0.0	202.1143012046814	
44	136.40004110336304	movie	1		301.0	42.0	2.5	/experiments/knapen_aot/videos/R_S_yt-osz-TXlRdXs_2.mp4	0.0	202.12359619140625	2.507351875305176
44	138.9073929786682	fix_post	2		12.0	42.0	2.5	/experiments/knapen_aot/videos/R_S_yt-osz-TXlRdXs_2.mp4	0.0	204.63094806671143	0.09993600845336914
45	139.00732898712158	fix_pre	0		17.0	43.0	2.5	/experiments/knapen_aot/videos/S_pexels-mart-production-7698911.mp4	0.0	204.7308840751648	0.14266014099121094
45	139.1408131122589	response	0	2		43.0	2.5	/experiments/knapen_aot/videos/S_pexels-mart-production-7698911.mp4	0.0	204.86436820030212	
45	139.1499891281128	movie	1		203.0	43.0	2.5	/experiments/knapen_aot/videos/S_pexels-mart-production-7698911.mp4	0.0	204.873544216156	2.5074918270111084
45	141.6574809551239	fix_post	2		12.0	43.0	2.5	/experiments/knapen_aot/videos/S_pexels-mart-production-7698911.mp4	0.0	207.38103604316711	0.09988999366760254
46	141.7573709487915	fix_pre	0		28.0	44.0	2.5	/experiments/knapen_aot/videos/R_S_yt-Ja7d2a6e5xE_279.mp4	0.0	207.48092603683472	0.23333001136779785
46	141.97488594055176	response	0	2		44.0	2.5	/experiments/knapen_aot/videos/R_S_yt-Ja7d2a6e5xE_279.mp4	0.0	207.69844102859497	
46	141.9907009601593	movie	1		301.0	44.0	2.5	/experiments/knapen_aot/videos/R_S_yt-Ja7d2a6e5xE_279.mp4	0.0	207.71425604820251	2.508263111114502
46	144.4989640712738	fix_post	2		12.0	44.0	2.5	/experiments/knapen_aot/videos/R_S_yt-Ja7d2a6e5xE_279.mp4	0.0	210.22251915931702	0.10004091262817383
47	144.59900498390198	fix_pre	0		62.0	45.0	2.5	/experiments/knapen_aot/videos/R_S_yt-mMnlzv6cfH4_134.mp4	0.0	210.3225600719452	0.5165870189666748
47	145.1074960231781	response	0	2		45.0	2.5	/experiments/knapen_aot/videos/R_S_yt-mMnlzv6cfH4_134.mp4	0.0	210.8310511112213	
47	145.11559200286865	movie	1		301.0	45.0	2.5	/experiments/knapen_aot/videos/R_S_yt-mMnlzv6cfH4_134.mp4	0.0	210.83914709091187	2.5085151195526123
47	147.62410712242126	fix_post	2		12.0	45.0	2.5	/experiments/knapen_aot/videos/R_S_yt-mMnlzv6cfH4_134.mp4	0.0	213.34766221046448	0.09988093376159668
48	147.72398805618286	fix_pre	0		53.0	46.0	2.5	/experiments/knapen_aot/videos/S_G008_C015_UHD_SDR_2K_AVC.mp4	0.0	213.44754314422607	0.44167184829711914
48	148.1573770046234	response	0	2		46.0	2.5	/experiments/knapen_aot/videos/S_G008_C015_UHD_SDR_2K_AVC.mp4	0.0	213.88093209266663	
48	148.16565990447998	movie	1		178.0	46.0	2.5	/experiments/knapen_aot/videos/S_G008_C015_UHD_SDR_2K_AVC.mp4	0.0	213.8892149925232	2.508402109146118
48	150.6740620136261	fix_post	2		12.0	46.0	2.5	/experiments/knapen_aot/videos/S_G008_C015_UHD_SDR_2K_AVC.mp4	0.0	216.3976171016693	0.10007309913635254
49	150.77413511276245	fix_pre	0		44.0	47.0	2.5	/experiments/knapen_aot/videos/S_yt-v9WGfC67DPk_50.mp4	0.0	216.49769020080566	0.3665339946746826
49	151.13261008262634	response	0	2		47.0	2.5	/experiments/knapen_aot/videos/S_yt-v9WGfC67DPk_50.mp4	0.0	216.85616517066956	
49	151.14066910743713	movie	1		301.0	47.0	2.5	/experiments/knapen_aot/videos/S_yt-v9WGfC67DPk_50.mp4	0.0	216.86422419548035	2.5084269046783447
49	153.64909601211548	fix_post	2		12.0	47.0	2.5	/experiments/knapen_aot/videos/S_yt-v9WGfC67DPk_50.mp4	0.0	219.3726511001587	0.09990692138671875
50	153.7490029335022	fix_pre	0		40.0	48.0	2.5	blank	1.0	219.4725580215454	0.33345699310302734
50	154.0665819644928	response	0	2		48.0	2.5	blank	1.0	219.790137052536	
50	154.08245992660522	movie	1		301.0	48.0	2.5	blank	1.0	219.80601501464844	2.508315086364746
50	156.59077501296997	fix_post	2		12.0	48.0	2.5	blank	1.0	222.31433010101318	0.09990906715393066
51	156.6906840801239	fix_pre	0		21.0	49.0	2.5	/experiments/knapen_aot/videos/R_S_yt-RMjo2PPEPEA_112.mp4	0.0	222.41423916816711	0.1749739646911621
51	156.8575029373169	response	0	2		49.0	2.5	/experiments/knapen_aot/videos/R_S_yt-RMjo2PPEPEA_112.mp4	0.0	222.5810580253601	
51	156.86565804481506	movie	1		301.0	49.0	2.5	/experiments/knapen_aot/videos/R_S_yt-RMjo2PPEPEA_112.mp4	0.0	222.58921313285828	2.508344888687134
51	159.3740029335022	fix_post	2		12.0	49.0	2.5	/experiments/knapen_aot/videos/R_S_yt-RMjo2PPEPEA_112.mp4	0.0	225.0975580215454	0.0999910831451416
52	159.47399401664734	fix_pre	0		80.0	50.0	2.5	/experiments/knapen_aot/videos/R_S_ILSVRC2015_train_00572000.mp4	0.0	225.19754910469055	0.666619062423706
52	160.1324589252472	response	0	2		50.0	2.5	/experiments/knapen_aot/videos/R_S_ILSVRC2015_train_00572000.mp4	0.0	225.8560140132904	
52	160.14061307907104	movie	1		301.0	50.0	2.5	/experiments/knapen_aot/videos/R_S_ILSVRC2015_train_00572000.mp4	0.0	225.86416816711426	2.508405923843384
52	162.64901900291443	fix_post	2		12.0	50.0	2.5	/experiments/knapen_aot/videos/R_S_ILSVRC2015_train_00572000.mp4	0.0	228.37257409095764	0.10007309913635254
53	162.74909210205078	fix_pre	0		33.0	51.0	2.5	/experiments/knapen_aot/videos/S_comp_GMT308_139K_142NC_CARIBBEAN_DAY_v09_SDR_FINAL_22062018_SDR_2K_AVC.mp4	0.0	228.472647190094	0.2758510112762451
53	163.01575207710266	response	0	2		51.0	2.5	/experiments/knapen_aot/videos/S_comp_GMT308_139K_142NC_CARIBBEAN_DAY_v09_SDR_FINAL_22062018_SDR_2K_AVC.mp4	0.0	228.73930716514587	
53	163.02494311332703	movie	1		165.0	51.0	2.5	/experiments/knapen_aot/videos/S_comp_GMT308_139K_142NC_CARIBBEAN_DAY_v09_SDR_FINAL_22062018_SDR_2K_AVC.mp4	0.0	228.74849820137024	2.50732684135437
53	165.4073989391327	response	1	2		51.0	2.5	/experiments/knapen_aot/videos/S_comp_GMT308_139K_142NC_CARIBBEAN_DAY_v09_SDR_FINAL_22062018_SDR_2K_AVC.mp4	0.0	231.1309540271759	
53	165.5322699546814	fix_post	2		12.0	51.0	2.5	/experiments/knapen_aot/videos/S_comp_GMT308_139K_142NC_CARIBBEAN_DAY_v09_SDR_FINAL_22062018_SDR_2K_AVC.mp4	0.0	231.2558250427246	0.10003805160522461
54	165.63230800628662	fix_pre	0		41.0	52.0	2.5	/experiments/knapen_aot/videos/S_ILSVRC2015_train_00303008.mp4	0.0	231.35586309432983	0.3416569232940674
54	165.96577405929565	response	0	2		52.0	2.5	/experiments/knapen_aot/videos/S_ILSVRC2015_train_00303008.mp4	0.0	231.68932914733887	
54	165.9739649295807	movie	1		301.0	52.0	2.5	/experiments/knapen_aot/videos/S_ILSVRC2015_train_00303008.mp4	0.0	231.6975200176239	2.508315086364746
54	168.48228001594543	fix_post	2		12.0	52.0	2.5	/experiments/knapen_aot/videos/S_ILSVRC2015_train_00303008.mp4	0.0	234.20583510398865	0.10001111030578613
55	168.58229112625122	fix_pre	0		34.0	53.0	2.5	/experiments/knapen_aot/videos/R_S_G008_C015_UHD_SDR_2K_AVC.mp4	0.0	234.30584621429443	0.2832798957824707
55	168.8573911190033	response	0	2		53.0	2.5	/experiments/knapen_aot/videos/R_S_G008_C015_UHD_SDR_2K_AVC.mp4	0.0	234.5809462070465	
55	168.8655710220337	movie	1		175.0	53.0	2.5	/experiments/knapen_aot/videos/R_S_G008_C015_UHD_SDR_2K_AVC.mp4	0.0	234.5891261100769	2.5083889961242676
55	170.09922289848328	response	1	2		53.0	2.5	/experiments/knapen_aot/videos/R_S_G008_C015_UHD_SDR_2K_AVC.mp4	0.0	235.8227779865265	
55	171.30738496780396	response	1	2		53.0	2.5	/experiments/knapen_aot/videos/R_S_G008_C015_UHD_SDR_2K_AVC.mp4	0.0	237.03094005584717	
55	171.37396001815796	fix_post	2		12.0	53.0	2.5	/experiments/knapen_aot/videos/R_S_G008_C015_UHD_SDR_2K_AVC.mp4	0.0	237.09751510620117	0.10002303123474121
56	171.4739830493927	fix_pre	0		39.0	54.0	2.5	blank	1.0	237.1975381374359	0.3249669075012207
56	171.79072904586792	response	0	2		54.0	2.5	blank	1.0	237.51428413391113	
56	171.79894995689392	movie	1		301.0	54.0	2.5	blank	1.0	237.52250504493713	2.5083701610565186
56	174.30732011795044	fix_post	2		12.0	54.0	2.5	blank	1.0	240.03087520599365	0.09995198249816895
57	174.4072721004486	fix_pre	0		13.0	55.0	2.5	/experiments/knapen_aot/videos/S_ILSVRC2015_train_00584001.mp4	0.0	240.13082718849182	0.10831594467163086
57	174.50743508338928	response	0	2		55.0	2.5	/experiments/knapen_aot/videos/S_ILSVRC2015_train_00584001.mp4	0.0	240.2309901714325	
57	174.51558804512024	movie	1		301.0	55.0	2.5	/experiments/knapen_aot/videos/S_ILSVRC2015_train_00584001.mp4	0.0	240.23914313316345	2.508375883102417
57	177.02396392822266	fix_post	2		12.0	55.0	2.5	/experiments/knapen_aot/videos/S_ILSVRC2015_train_00584001.mp4	0.0	242.74751901626587	0.09997701644897461
58	177.12394094467163	fix_pre	0		31.0	56.0	2.5	/experiments/knapen_aot/videos/R_S_yt-9T99N7Cvi_o_112.mp4	0.0	242.84749603271484	0.2583000659942627
58	177.3740940093994	response	0	2		56.0	2.5	/experiments/knapen_aot/videos/R_S_yt-9T99N7Cvi_o_112.mp4	0.0	243.09764909744263	
58	177.3822410106659	movie	1		301.0	56.0	2.5	/experiments/knapen_aot/videos/R_S_yt-9T99N7Cvi_o_112.mp4	0.0	243.1057960987091	2.5083839893341064
58	179.890625	fix_post	2		12.0	56.0	2.5	/experiments/knapen_aot/videos/R_S_yt-9T99N7Cvi_o_112.mp4	0.0	245.6141800880432	0.09995794296264648
59	179.99058294296265	fix_pre	0		58.0	57.0	2.5	/experiments/knapen_aot/videos/S_yt-Ozx_f0a0ZDI_32.mp4	0.0	245.71413803100586	0.4833381175994873
59	180.4657289981842	response	0	2		57.0	2.5	/experiments/knapen_aot/videos/S_yt-Ozx_f0a0ZDI_32.mp4	0.0	246.18928408622742	
59	180.47392106056213	movie	1		301.0	57.0	2.5	/experiments/knapen_aot/videos/S_yt-Ozx_f0a0ZDI_32.mp4	0.0	246.19747614860535	2.50832200050354
59	182.69923996925354	response	1	2		57.0	2.5	/experiments/knapen_aot/videos/S_yt-Ozx_f0a0ZDI_32.mp4	0.0	248.42279505729675	
59	182.98224306106567	fix_post	2		12.0	57.0	2.5	/experiments/knapen_aot/videos/S_yt-Ozx_f0a0ZDI_32.mp4	0.0	248.7057981491089	0.09996485710144043
60	183.08220791816711	fix_pre	0		61.0	58.0	2.5	/experiments/knapen_aot/videos/R_S_yt-uY5xsUKn8zU_17.mp4	0.0	248.80576300621033	0.5083391666412354
60	183.58234906196594	response	0	2		58.0	2.5	/experiments/knapen_aot/videos/R_S_yt-uY5xsUKn8zU_17.mp4	0.0	249.30590415000916	
60	183.59054708480835	movie	1		301.0	58.0	2.5	/experiments/knapen_aot/videos/R_S_yt-uY5xsUKn8zU_17.mp4	0.0	249.31410217285156	2.508394956588745
60	186.0989420413971	fix_post	2		12.0	58.0	2.5	/experiments/knapen_aot/videos/R_S_yt-uY5xsUKn8zU_17.mp4	0.0	251.8224971294403	0.09992098808288574
61	186.19886302947998	fix_pre	0		30.0	59.0	2.5	/experiments/knapen_aot/videos/S_yt-WrwPgZYBXlA_34.mp4	0.0	251.9224181175232	0.24998807907104492
61	186.44071412086487	response	0	2		59.0	2.5	/experiments/knapen_aot/videos/S_yt-WrwPgZYBXlA_34.mp4	0.0	252.16426920890808	
61	186.44885110855103	movie	1		301.0	59.0	2.5	/experiments/knapen_aot/videos/S_yt-WrwPgZYBXlA_34.mp4	0.0	252.17240619659424	2.508474826812744
61	188.95732593536377	fix_post	2		12.0	59.0	2.5	/experiments/knapen_aot/videos/S_yt-WrwPgZYBXlA_34.mp4	0.0	254.68088102340698	0.09984397888183594
62	189.0571699142456	fix_pre	0		78.0	60.0	2.5	/experiments/knapen_aot/videos/S_production_ID_3927047.mp4	0.0	254.78072500228882	0.6501181125640869
62	189.6990270614624	response	0	2		60.0	2.5	/experiments/knapen_aot/videos/S_production_ID_3927047.mp4	0.0	255.42258214950562	
62	189.7072880268097	movie	1		200.0	60.0	2.5	/experiments/knapen_aot/videos/S_production_ID_3927047.mp4	0.0	255.4308431148529	2.508270025253296
62	192.08728408813477	response	1	2		60.0	2.5	/experiments/knapen_aot/videos/S_production_ID_3927047.mp4	0.0	257.810839176178	
62	192.215558052063	fix_post	2		12.0	60.0	2.5	/experiments/knapen_aot/videos/S_production_ID_3927047.mp4	0.0	257.9391131401062	0.09997105598449707
63	192.31552910804749	fix_pre	0		118.0	61.0	2.5	/experiments/knapen_aot/videos/S_S003_C020_SDR_2K_AVC.mp4	0.0	258.0390841960907	0.9833059310913086
63	193.29068398475647	response	0	2		61.0	2.5	/experiments/knapen_aot/videos/S_S003_C020_SDR_2K_AVC.mp4	0.0	259.0142390727997	
63	193.2988350391388	movie	1		171.0	61.0	2.5	/experiments/knapen_aot/videos/S_S003_C020_SDR_2K_AVC.mp4	0.0	259.022390127182	2.5083720684051514
63	195.80720710754395	fix_post	2		12.0	61.0	2.5	/experiments/knapen_aot/videos/S_S003_C020_SDR_2K_AVC.mp4	0.0	261.53076219558716	0.09997391700744629
64	195.9071810245514	fix_pre	0		70.0	62.0	2.5	/experiments/knapen_aot/videos/R_S_yt-utYnOeoj2Rw_3.mp4	0.0	261.6307361125946	0.583319902420044
64	196.48231601715088	response	0	2		62.0	2.5	/experiments/knapen_aot/videos/R_S_yt-utYnOeoj2Rw_3.mp4	0.0	262.2058711051941	
64	196.49050092697144	movie	1		301.0	62.0	2.5	/experiments/knapen_aot/videos/R_S_yt-utYnOeoj2Rw_3.mp4	0.0	262.21405601501465	2.5083730220794678
64	198.9988739490509	fix_post	2		12.0	62.0	2.5	/experiments/knapen_aot/videos/R_S_yt-utYnOeoj2Rw_3.mp4	0.0	264.7224290370941	0.09992194175720215
65	199.0987958908081	fix_pre	0		68.0	63.0	2.5	blank	1.0	264.8223509788513	0.5666780471801758
65	199.657310962677	response	0	2		63.0	2.5	blank	1.0	265.3808660507202	
65	199.66547393798828	movie	1		301.0	63.0	2.5	blank	1.0	265.3890290260315	2.5083279609680176
65	202.1738018989563	fix_post	2		12.0	63.0	2.5	blank	1.0	267.8973569869995	0.10005521774291992
66	202.27385711669922	fix_pre	0		30.0	64.0	2.5	/experiments/knapen_aot/videos/S_yt-BiBS8EO5GPc_4.mp4	0.0	267.99741220474243	0.250607967376709
66	202.5156650543213	response	0	2		64.0	2.5	/experiments/knapen_aot/videos/S_yt-BiBS8EO5GPc_4.mp4	0.0	268.2392201423645	
66	202.52446508407593	movie	1		301.0	64.0	2.5	/experiments/knapen_aot/videos/S_yt-BiBS8EO5GPc_4.mp4	0.0	268.24802017211914	2.508023977279663
66	205.0324890613556	fix_post	2		12.0	64.0	2.5	/experiments/knapen_aot/videos/S_yt-BiBS8EO5GPc_4.mp4	0.0	270.7560441493988	0.1000509262084961
67	205.1325399875641	fix_pre	0		35.0	65.0	2.5	/experiments/knapen_aot/videos/R_S_yt-qE70lj3-A78_228.mp4	0.0	270.8560950756073	0.29126691818237305
67	205.41553592681885	response	0	2		65.0	2.5	/experiments/knapen_aot/videos/R_S_yt-qE70lj3-A78_228.mp4	0.0	271.13909101486206	
67	205.42380690574646	movie	1		301.0	65.0	2.5	/experiments/knapen_aot/videos/R_S_yt-qE70lj3-A78_228.mp4	0.0	271.1473619937897	2.508366107940674
67	207.93217301368713	fix_post	2		12.0	65.0	2.5	/experiments/knapen_aot/videos/R_S_yt-qE70lj3-A78_228.mp4	0.0	273.65572810173035	0.10018396377563477
68	208.03235697746277	fix_pre	0		65.0	66.0	2.5	/experiments/knapen_aot/videos/S_yt-gDZnJCR2uXI_18.mp4	0.0	273.755912065506	0.5413949489593506
68	208.5655689239502	response	0	2		66.0	2.5	/experiments/knapen_aot/videos/S_yt-gDZnJCR2uXI_18.mp4	0.0	274.2891240119934	
68	208.57375192642212	movie	1		301.0	66.0	2.5	/experiments/knapen_aot/videos/S_yt-gDZnJCR2uXI_18.mp4	0.0	274.29730701446533	2.508373975753784
68	211.0821259021759	fix_post	2		12.0	66.0	2.5	/experiments/knapen_aot/videos/S_yt-gDZnJCR2uXI_18.mp4	0.0	276.8056809902191	0.10002899169921875
69	211.18215489387512	fix_pre	0		64.0	67.0	2.5	/experiments/knapen_aot/videos/S_yt-7Z6Kmp0n7L8_145.mp4	0.0	276.90570998191833	0.5332372188568115
69	211.70725798606873	response	0	2		67.0	2.5	/experiments/knapen_aot/videos/S_yt-7Z6Kmp0n7L8_145.mp4	0.0	277.43081307411194	
69	211.71539211273193	movie	1		301.0	67.0	2.5	/experiments/knapen_aot/videos/S_yt-7Z6Kmp0n7L8_145.mp4	0.0	277.43894720077515	2.5083508491516113
69	214.22374296188354	fix_post	2		12.0	67.0	2.5	/experiments/knapen_aot/videos/S_yt-7Z6Kmp0n7L8_145.mp4	0.0	279.94729804992676	0.1002349853515625
70	214.3239779472351	fix_pre	0		24.0	68.0	2.5	blank	1.0	280.0475330352783	0.20041418075561523
70	214.5155529975891	response	0	2		68.0	2.5	blank	1.0	280.2391080856323	
70	214.52439212799072	movie	1		301.0	68.0	2.5	blank	1.0	280.24794721603394	2.5077199935913086
70	216.69054794311523	response	1	2		68.0	2.5	blank	1.0	282.41410303115845	
70	217.03211212158203	fix_post	2		12.0	68.0	2.5	blank	1.0	282.75566720962524	0.10001587867736816
71	217.1321280002594	fix_pre	0		38.0	69.0	2.5	/experiments/knapen_aot/videos/R_S_yt-fymgyhmYnMI_557.mp4	0.0	282.8556830883026	0.3166310787200928
71	217.4329469203949	response	0	2		69.0	2.5	/experiments/knapen_aot/videos/R_S_yt-fymgyhmYnMI_557.mp4	0.0	283.1565020084381	
71	217.4487590789795	movie	1		301.0	69.0	2.5	/experiments/knapen_aot/videos/R_S_yt-fymgyhmYnMI_557.mp4	0.0	283.1723141670227	2.5082929134368896
71	219.95705199241638	fix_post	2		12.0	69.0	2.5	/experiments/knapen_aot/videos/R_S_yt-fymgyhmYnMI_557.mp4	0.0	285.6806070804596	0.10004091262817383
72	220.05709290504456	fix_pre	0		23.0	70.0	2.5	/experiments/knapen_aot/videos/S_yt-9T99N7Cvi_o_112.mp4	0.0	285.78064799308777	0.1916031837463379
72	220.24055004119873	response	0	2		70.0	2.5	/experiments/knapen_aot/videos/S_yt-9T99N7Cvi_o_112.mp4	0.0	285.96410512924194	
72	220.2486960887909	movie	1		301.0	70.0	2.5	/experiments/knapen_aot/videos/S_yt-9T99N7Cvi_o_112.mp4	0.0	285.9722511768341	2.5082998275756836
72	222.75699591636658	fix_post	2		12.0	70.0	2.5	/experiments/knapen_aot/videos/S_yt-9T99N7Cvi_o_112.mp4	0.0	288.4805510044098	0.10007500648498535
73	222.85707092285156	fix_pre	0		50.0	71.0	2.5	/experiments/knapen_aot/videos/S_yt-54kx8P3L1ns_6.mp4	0.0	288.5806260108948	0.41728711128234863
73	223.26560497283936	response	0	2		71.0	2.5	/experiments/knapen_aot/videos/S_yt-54kx8P3L1ns_6.mp4	0.0	288.98916006088257	
73	223.2743580341339	movie	1		301.0	71.0	2.5	/experiments/knapen_aot/videos/S_yt-54kx8P3L1ns_6.mp4	0.0	288.9979131221771	2.5076639652252197
73	225.78202199935913	fix_post	2		12.0	71.0	2.5	/experiments/knapen_aot/videos/S_yt-54kx8P3L1ns_6.mp4	0.0	291.50557708740234	0.10009098052978516
74	225.88211297988892	fix_pre	0		142.0	72.0	2.5	/experiments/knapen_aot/videos/R_S_yt-aiwDdJm1ek8_90.mp4	0.0	291.60566806793213	1.1836910247802734
74	227.05713605880737	response	0	2		72.0	2.5	/experiments/knapen_aot/videos/R_S_yt-aiwDdJm1ek8_90.mp4	0.0	292.7806911468506	
74	227.0658040046692	movie	1		301.0	72.0	2.5	/experiments/knapen_aot/videos/R_S_yt-aiwDdJm1ek8_90.mp4	0.0	292.7893590927124	2.5078470706939697
74	229.57365107536316	fix_post	2		12.0	72.0	2.5	/experiments/knapen_aot/videos/R_S_yt-aiwDdJm1ek8_90.mp4	0.0	295.2972061634064	0.10003805160522461
75	229.67368912696838	fix_pre	0		108.0	73.0	2.5	/experiments/knapen_aot/videos/R_S_I003_C011_SDR_2K_AVC.mp4	0.0	295.3972442150116	0.8999488353729248
75	230.5654149055481	response	0	2		73.0	2.5	/experiments/knapen_aot/videos/R_S_I003_C011_SDR_2K_AVC.mp4	0.0	296.2889699935913	
75	230.5736379623413	movie	1		171.0	73.0	2.5	/experiments/knapen_aot/videos/R_S_I003_C011_SDR_2K_AVC.mp4	0.0	296.2971930503845	2.5083539485931396
75	233.08199191093445	fix_post	2		12.0	73.0	2.5	/experiments/knapen_aot/videos/R_S_I003_C011_SDR_2K_AVC.mp4	0.0	298.80554699897766	0.10000014305114746
76	233.1819920539856	fix_pre	0		49.0	74.0	2.5	/experiments/knapen_aot/videos/R_S_yt-r2jZ0zZrqzQ_45.mp4	0.0	298.9055471420288	0.4082319736480713
76	233.5821521282196	response	0	2		74.0	2.5	/experiments/knapen_aot/videos/R_S_yt-r2jZ0zZrqzQ_45.mp4	0.0	299.3057072162628	
76	233.59022402763367	movie	1		301.0	74.0	2.5	/experiments/knapen_aot/videos/R_S_yt-r2jZ0zZrqzQ_45.mp4	0.0	299.3137791156769	2.5084688663482666
76	236.09869289398193	fix_post	2		12.0	74.0	2.5	/experiments/knapen_aot/videos/R_S_yt-r2jZ0zZrqzQ_45.mp4	0.0	301.82224798202515	0.09999704360961914
77	236.19868993759155	fix_pre	0		119.0	75.0	2.5	/experiments/knapen_aot/videos/R_S_yt-urJgH6tpfkU_204.mp4	0.0	301.92224502563477	0.9921431541442871
77	237.18211603164673	response	0	2		75.0	2.5	/experiments/knapen_aot/videos/R_S_yt-urJgH6tpfkU_204.mp4	0.0	302.90567111968994	
77	237.19083309173584	movie	1		301.0	75.0	2.5	/experiments/knapen_aot/videos/R_S_yt-urJgH6tpfkU_204.mp4	0.0	302.91438817977905	2.5078349113464355
77	239.69866800308228	fix_post	2		12.0	75.0	2.5	/experiments/knapen_aot/videos/R_S_yt-urJgH6tpfkU_204.mp4	0.0	305.4222230911255	0.09997892379760742
78	239.79864692687988	fix_pre	0		111.0	76.0	2.5	blank	1.0	305.5222020149231	0.9250171184539795
78	240.71542310714722	response	0	2		76.0	2.5	blank	1.0	306.43897819519043	
78	240.72366404533386	movie	1		301.0	76.0	2.5	blank	1.0	306.4472191333771	2.508288860321045
78	243.2319529056549	fix_post	2		12.0	76.0	2.5	blank	1.0	308.9555079936981	0.0999760627746582
79	243.33192896842957	fix_pre	0		39.0	77.0	2.5	/experiments/knapen_aot/videos/R_S_yt-kYMffy4hTMo_107.mp4	0.0	309.0554840564728	0.32502293586730957
79	243.64871311187744	response	0	2		77.0	2.5	/experiments/knapen_aot/videos/R_S_yt-kYMffy4hTMo_107.mp4	0.0	309.37226819992065	
79	243.65695190429688	movie	1		301.0	77.0	2.5	/experiments/knapen_aot/videos/R_S_yt-kYMffy4hTMo_107.mp4	0.0	309.3805069923401	2.5084002017974854
79	246.16535210609436	fix_post	2		12.0	77.0	2.5	/experiments/knapen_aot/videos/R_S_yt-kYMffy4hTMo_107.mp4	0.0	311.8889071941376	0.09998297691345215
80	246.2653350830078	fix_pre	0		45.0	78.0	2.5	/experiments/knapen_aot/videos/R_S_yt-HMAa2QbfFPI_216.mp4	0.0	311.988890171051	0.3748748302459717
80	246.63209199905396	response	0	2		78.0	2.5	/experiments/knapen_aot/videos/R_S_yt-HMAa2QbfFPI_216.mp4	0.0	312.35564708709717	
80	246.64020991325378	movie	1		301.0	78.0	2.5	/experiments/knapen_aot/videos/R_S_yt-HMAa2QbfFPI_216.mp4	0.0	312.363765001297	2.5085630416870117
80	249.1487729549408	fix_post	2		12.0	78.0	2.5	/experiments/knapen_aot/videos/R_S_yt-HMAa2QbfFPI_216.mp4	0.0	314.872328042984	0.0998389720916748
81	249.24861192703247	fix_pre	0		34.0	79.0	2.5	/experiments/knapen_aot/videos/S_wc-Mf8SQpviaD6D_17.mp4	0.0	314.9721670150757	0.2832770347595215
81	249.52376008033752	response	0	2		79.0	2.5	/experiments/knapen_aot/videos/S_wc-Mf8SQpviaD6D_17.mp4	0.0	315.24731516838074	
81	249.531888961792	movie	1		165.0	79.0	2.5	/experiments/knapen_aot/videos/S_wc-Mf8SQpviaD6D_17.mp4	0.0	315.2554440498352	2.5084409713745117
81	252.0403299331665	fix_post	2		12.0	79.0	2.5	/experiments/knapen_aot/videos/S_wc-Mf8SQpviaD6D_17.mp4	0.0	317.7638850212097	0.09993314743041992
82	252.14026308059692	fix_pre	0		32.0	80.0	2.5	/experiments/knapen_aot/videos/S_yt-pPIHiIYSjW8_653.mp4	0.0	317.86381816864014	0.26662588119506836
82	252.39872789382935	response	0	2		80.0	2.5	/experiments/knapen_aot/videos/S_yt-pPIHiIYSjW8_653.mp4	0.0	318.12228298187256	
82	252.406888961792	movie	1		301.0	80.0	2.5	/experiments/knapen_aot/videos/S_yt-pPIHiIYSjW8_653.mp4	0.0	318.1304440498352	2.5083529949188232
82	254.91524195671082	fix_post	2		12.0	80.0	2.5	/experiments/knapen_aot/videos/S_yt-pPIHiIYSjW8_653.mp4	0.0	320.638797044754	0.09999203681945801
83	255.01523399353027	fix_pre	0		124.0	81.0	2.5	/experiments/knapen_aot/videos/R_S_flickr-csgzs-8144064966_10.mp4	0.0	320.7387890815735	1.0333271026611328
83	256.04050397872925	response	0	2		81.0	2.5	/experiments/knapen_aot/videos/R_S_flickr-csgzs-8144064966_10.mp4	0.0	321.76405906677246	
83	256.0485610961914	movie	1		301.0	81.0	2.5	/experiments/knapen_aot/videos/R_S_flickr-csgzs-8144064966_10.mp4	0.0	321.7721161842346	2.5083789825439453
83	258.55694007873535	fix_post	2		12.0	81.0	2.5	/experiments/knapen_aot/videos/R_S_flickr-csgzs-8144064966_10.mp4	0.0	324.28049516677856	0.10017800331115723
84	258.6571180820465	fix_pre	0		37.0	82.0	2.5	/experiments/knapen_aot/videos/R_S_bing-www_nytimes_com_video_dining_1247468118505_grilled-chicken-breasts-with-herb-butter_html_132.mp4	0.0	324.3806731700897	0.3080618381500244
84	258.9569261074066	response	0	2		82.0	2.5	/experiments/knapen_aot/videos/R_S_bing-www_nytimes_com_video_dining_1247468118505_grilled-chicken-breasts-with-herb-butter_html_132.mp4	0.0	324.68048119544983	
84	258.96517992019653	movie	1		167.0	82.0	2.5	/experiments/knapen_aot/videos/R_S_bing-www_nytimes_com_video_dining_1247468118505_grilled-chicken-breasts-with-herb-butter_html_132.mp4	0.0	324.68873500823975	2.508362054824829
84	261.47354197502136	fix_post	2		12.0	82.0	2.5	/experiments/knapen_aot/videos/R_S_bing-www_nytimes_com_video_dining_1247468118505_grilled-chicken-breasts-with-herb-butter_html_132.mp4	0.0	327.1970970630646	0.10000014305114746
85	261.5735421180725	fix_pre	0		279.0	83.0	2.5	blank	1.0	327.2970972061157	2.325401782989502
85	263.89030289649963	response	0	2		83.0	2.5	blank	1.0	329.61385798454285	
85	263.898943901062	movie	1		301.0	83.0	2.5	blank	1.0	329.6224989891052	2.5079290866851807
85	266.4068729877472	fix_post	2		12.0	83.0	2.5	blank	1.0	332.1304280757904	0.10000991821289062
85	266.40948700904846	response	2	2		83.0	2.5	blank	1.0	332.1330420970917	
87	266.5068829059601	stim	0		102.0					332.2304379940033	0.8502562046051025
87	267.3534080982208	response	0	space						333.07696318626404	
