trial_nr	onset	event_type	phase	response	nr_frames	movie_index	movie_duration	movie_file	blank	onset_abs	duration
0	0.13201594352722168	stim	0		96.0					107.81543302536011	0.7998089790344238
0	0.9238650798797607	response	0	space						108.60728216171265	
1	0.9318249225616455	stim	0		121.0					108.61524200439453	1.008061170578003
1	1.9150409698486328	response	0	space						109.59845805168152	
1	1.9398860931396484	stim	1		120.0					109.62330317497253	0.999992847442627
1	2.8743460178375244	response	1	space						110.55776309967041	
2	2.9398789405822754	fix_pre	0		47.0	0.0	2.5	/experiments/knapen_aot/videos/R_S_yt-bH4nJibL4Jo_164.mp4	0.0	110.62329602241516	0.3931550979614258
2	3.3232688903808594	response	0	space		0.0	2.5	/experiments/knapen_aot/videos/R_S_yt-bH4nJibL4Jo_164.mp4	0.0	111.00668597221375	
2	3.333034038543701	movie	1		301.0	0.0	2.5	/experiments/knapen_aot/videos/R_S_yt-bH4nJibL4Jo_164.mp4	0.0	111.01645112037659	2.506865978240967
2	5.839900016784668	fix_post	2		12.0	0.0	2.5	/experiments/knapen_aot/videos/R_S_yt-bH4nJibL4Jo_164.mp4	0.0	113.52331709861755	0.09997105598449707
3	5.939871072769165	fix_pre	0		69.0	1.0	2.5	/experiments/knapen_aot/videos/S_yt-1CV2cYtUlxE_57.mp4	0.0	113.62328815460205	0.5749518871307373
3	6.510190010070801	response	0	4		1.0	2.5	/experiments/knapen_aot/videos/S_yt-1CV2cYtUlxE_57.mp4	0.0	114.19360709190369	
3	6.514822959899902	movie	1		298.0	1.0	2.5	/experiments/knapen_aot/videos/S_yt-1CV2cYtUlxE_57.mp4	0.0	114.19824004173279	2.5083749294281006
3	9.023197889328003	fix_post	2		12.0	1.0	2.5	/experiments/knapen_aot/videos/S_yt-1CV2cYtUlxE_57.mp4	0.0	116.70661497116089	0.09996318817138672
4	9.12316107749939	fix_pre	0		4.0	2.0	2.5	/experiments/knapen_aot/videos/S_video-12.mp4	0.0	116.80657815933228	0.03336286544799805
4	9.14836597442627	response	0	4		2.0	2.5	/experiments/knapen_aot/videos/S_video-12.mp4	0.0	116.83178305625916	
4	9.156523942947388	movie	1		166.0	2.0	2.5	/experiments/knapen_aot/videos/S_video-12.mp4	0.0	116.83994102478027	2.5083110332489014
4	11.664834976196289	fix_post	2		12.0	2.0	2.5	/experiments/knapen_aot/videos/S_video-12.mp4	0.0	119.34825205802917	0.10001707077026367
5	11.764852046966553	fix_pre	0		7.0	3.0	2.5	/experiments/knapen_aot/videos/S_pexels-anna-tarazevich-6189268.mp4	0.0	119.44826912879944	0.0582578182220459
5	11.814953088760376	response	0	4		3.0	2.5	/experiments/knapen_aot/videos/S_pexels-anna-tarazevich-6189268.mp4	0.0	119.49837017059326	
5	11.823109865188599	movie	1		215.0	3.0	2.5	/experiments/knapen_aot/videos/S_pexels-anna-tarazevich-6189268.mp4	0.0	119.50652694702148	2.5083730220794678
5	14.331482887268066	fix_post	2		12.0	3.0	2.5	/experiments/knapen_aot/videos/S_pexels-anna-tarazevich-6189268.mp4	0.0	122.01489996910095	0.10005617141723633
6	14.431539058685303	fix_pre	0		18.0	4.0	2.5	/experiments/knapen_aot/videos/S_b3TCugtX0h0_108.mp4	0.0	122.11495614051819	0.14994287490844727
6	14.57325291633606	response	0	4		4.0	2.5	/experiments/knapen_aot/videos/S_b3TCugtX0h0_108.mp4	0.0	122.25666999816895	
6	14.58148193359375	movie	1		301.0	4.0	2.5	/experiments/knapen_aot/videos/S_b3TCugtX0h0_108.mp4	0.0	122.26489901542664	2.5083420276641846
6	17.089823961257935	fix_post	2		12.0	4.0	2.5	/experiments/knapen_aot/videos/S_b3TCugtX0h0_108.mp4	0.0	124.77324104309082	0.10002493858337402
7	17.18984889984131	fix_pre	0		32.0	5.0	2.5	blank	1.0	124.8732659816742	0.2665741443634033
7	17.448340892791748	response	0	4		5.0	2.5	blank	1.0	125.13175797462463	
7	17.456423044204712	movie	1		301.0	5.0	2.5	blank	1.0	125.1398401260376	2.508431911468506
7	19.964854955673218	fix_post	2		12.0	5.0	2.5	blank	1.0	127.6482720375061	0.10002303123474121
8	20.06487798690796	fix_pre	0		19.0	6.0	2.5	/experiments/knapen_aot/videos/R_S_yt-kINZMjys3O4_112.mp4	0.0	127.74829506874084	0.15826106071472168
8	20.207345962524414	response	0	4		6.0	2.5	/experiments/knapen_aot/videos/R_S_yt-kINZMjys3O4_112.mp4	0.0	127.8907630443573	
8	20.22313904762268	movie	1		301.0	6.0	2.5	/experiments/knapen_aot/videos/R_S_yt-kINZMjys3O4_112.mp4	0.0	127.90655612945557	2.5083110332489014
8	22.731450080871582	fix_post	2		12.0	6.0	2.5	/experiments/knapen_aot/videos/R_S_yt-kINZMjys3O4_112.mp4	0.0	130.41486716270447	0.1000068187713623
9	22.831456899642944	fix_pre	0		40.0	7.0	2.5	/experiments/knapen_aot/videos/R_S_pexels-cottonbro-6789228.mp4	0.0	130.51487398147583	0.333327054977417
9	23.156559944152832	response	0	4		7.0	2.5	/experiments/knapen_aot/videos/R_S_pexels-cottonbro-6789228.mp4	0.0	130.83997702598572	
9	23.16478395462036	movie	1		209.0	7.0	2.5	/experiments/knapen_aot/videos/R_S_pexels-cottonbro-6789228.mp4	0.0	130.84820103645325	2.508328914642334
9	25.673112869262695	fix_post	2		12.0	7.0	2.5	/experiments/knapen_aot/videos/R_S_pexels-cottonbro-6789228.mp4	0.0	133.35652995109558	0.09995412826538086
10	25.773066997528076	fix_pre	0		36.0	8.0	2.5	/experiments/knapen_aot/videos/S_ILSVRC2015_train_00219004.mp4	0.0	133.45648407936096	0.30002498626708984
10	26.064850091934204	response	0	4		8.0	2.5	/experiments/knapen_aot/videos/S_ILSVRC2015_train_00219004.mp4	0.0	133.7482671737671	
10	26.073091983795166	movie	1		301.0	8.0	2.5	/experiments/knapen_aot/videos/S_ILSVRC2015_train_00219004.mp4	0.0	133.75650906562805	2.508331060409546
10	28.581423044204712	fix_post	2		12.0	8.0	2.5	/experiments/knapen_aot/videos/S_ILSVRC2015_train_00219004.mp4	0.0	136.2648401260376	0.10001587867736816
11	28.68143892288208	fix_pre	0		47.0	9.0	2.5	/experiments/knapen_aot/videos/S_yt-b7bIulV49DQ_81.mp4	0.0	136.36485600471497	0.39162611961364746
11	29.06490397453308	response	0	4		9.0	2.5	/experiments/knapen_aot/videos/S_yt-b7bIulV49DQ_81.mp4	0.0	136.74832105636597	
11	29.073065042495728	movie	1		301.0	9.0	2.5	/experiments/knapen_aot/videos/S_yt-b7bIulV49DQ_81.mp4	0.0	136.7564821243286	2.5083248615264893
11	31.581389904022217	fix_post	2		12.0	9.0	2.5	/experiments/knapen_aot/videos/S_yt-b7bIulV49DQ_81.mp4	0.0	139.2648069858551	0.10004496574401855
12	31.681434869766235	fix_pre	0		21.0	10.0	2.5	/experiments/knapen_aot/videos/R_S_pexels-artem-podrez-5457692.mp4	0.0	139.36485195159912	0.1749591827392578
12	31.848175048828125	response	0	4		10.0	2.5	/experiments/knapen_aot/videos/R_S_pexels-artem-podrez-5457692.mp4	0.0	139.531592130661	
12	31.856394052505493	movie	1		164.0	10.0	2.5	/experiments/knapen_aot/videos/R_S_pexels-artem-podrez-5457692.mp4	0.0	139.53981113433838	2.5083858966827393
12	34.36477994918823	fix_post	2		12.0	10.0	2.5	/experiments/knapen_aot/videos/R_S_pexels-artem-podrez-5457692.mp4	0.0	142.04819703102112	0.10001993179321289
13	34.464799880981445	fix_pre	0		84.0	11.0	2.5	/experiments/knapen_aot/videos/R_S_TYs22gin-EU_57.mp4	0.0	142.14821696281433	0.7011370658874512
13	35.156594038009644	response	0	4		11.0	2.5	/experiments/knapen_aot/videos/R_S_TYs22gin-EU_57.mp4	0.0	142.84001111984253	
13	35.1659369468689	movie	1		301.0	11.0	2.5	/experiments/knapen_aot/videos/R_S_TYs22gin-EU_57.mp4	0.0	142.84935402870178	2.5071399211883545
13	37.67307686805725	fix_post	2		12.0	11.0	2.5	/experiments/knapen_aot/videos/R_S_TYs22gin-EU_57.mp4	0.0	145.35649394989014	0.10002517700195312
14	37.773102045059204	fix_pre	0		13.0	12.0	2.5	/experiments/knapen_aot/videos/R_S_video-2.mp4	0.0	145.4565191268921	0.10829281806945801
14	37.87315106391907	response	0	4		12.0	2.5	/experiments/knapen_aot/videos/R_S_video-2.mp4	0.0	145.55656814575195	
14	37.88139486312866	movie	1		165.0	12.0	2.5	/experiments/knapen_aot/videos/R_S_video-2.mp4	0.0	145.56481194496155	2.5083110332489014
14	40.38970589637756	fix_post	2		12.0	12.0	2.5	/experiments/knapen_aot/videos/R_S_video-2.mp4	0.0	148.07312297821045	0.0999460220336914
15	40.489651918411255	fix_pre	0		17.0	13.0	2.5	blank	1.0	148.17306900024414	0.1417551040649414
15	40.62319087982178	response	0	4		13.0	2.5	blank	1.0	148.30660796165466	
15	40.631407022476196	movie	1		301.0	13.0	2.5	blank	1.0	148.31482410430908	2.508302927017212
15	43.13970994949341	fix_post	2		12.0	13.0	2.5	blank	1.0	150.8231270313263	0.10005307197570801
16	43.239763021469116	fix_pre	0		198.0	14.0	2.5	/experiments/knapen_aot/videos/R_S_yt-6DJulOrg2-8_122.mp4	0.0	150.923180103302	1.6499159336090088
16	44.873939990997314	response	0	4		14.0	2.5	/experiments/knapen_aot/videos/R_S_yt-6DJulOrg2-8_122.mp4	0.0	152.5573570728302	
16	44.889678955078125	movie	1		301.0	14.0	2.5	/experiments/knapen_aot/videos/R_S_yt-6DJulOrg2-8_122.mp4	0.0	152.573096036911	2.508350133895874
16	47.398029088974	fix_post	2		12.0	14.0	2.5	/experiments/knapen_aot/videos/R_S_yt-6DJulOrg2-8_122.mp4	0.0	155.08144617080688	0.10005593299865723
17	47.498085021972656	fix_pre	0		144.0	15.0	2.5	/experiments/knapen_aot/videos/S_yt-146gReE6xKw_379.mp4	0.0	155.18150210380554	1.1999380588531494
17	48.689850091934204	response	0	4		15.0	2.5	/experiments/knapen_aot/videos/S_yt-146gReE6xKw_379.mp4	0.0	156.3732671737671	
17	48.698023080825806	movie	1		301.0	15.0	2.5	/experiments/knapen_aot/videos/S_yt-146gReE6xKw_379.mp4	0.0	156.3814401626587	2.5085299015045166
17	51.20655298233032	fix_post	2		12.0	15.0	2.5	/experiments/knapen_aot/videos/S_yt-146gReE6xKw_379.mp4	0.0	158.8899700641632	0.09982490539550781
18	51.30637788772583	fix_pre	0		18.0	16.0	2.5	/experiments/knapen_aot/videos/R_S_yt-ybH6uAiFbjc_273.mp4	0.0	158.98979496955872	0.15118002891540527
18	51.448121070861816	response	0	4		16.0	2.5	/experiments/knapen_aot/videos/R_S_yt-ybH6uAiFbjc_273.mp4	0.0	159.1315381526947	
18	51.457557916641235	movie	1		301.0	16.0	2.5	/experiments/knapen_aot/videos/R_S_yt-ybH6uAiFbjc_273.mp4	0.0	159.14097499847412	2.507326126098633
18	53.96488404273987	fix_post	2		12.0	16.0	2.5	/experiments/knapen_aot/videos/R_S_yt-ybH6uAiFbjc_273.mp4	0.0	161.64830112457275	0.09981298446655273
18	54.031434059143066	response	2	4		16.0	2.5	/experiments/knapen_aot/videos/R_S_yt-ybH6uAiFbjc_273.mp4	0.0	161.71485114097595	
19	54.06469702720642	fix_pre	0		252.0	17.0	2.5	/experiments/knapen_aot/videos/S_yt-3TF_RGo9cLs_541.mp4	0.0	161.7481141090393	2.1010868549346924
19	56.15644192695618	response	0	4		17.0	2.5	/experiments/knapen_aot/videos/S_yt-3TF_RGo9cLs_541.mp4	0.0	163.83985900878906	
19	56.16578388214111	movie	1		301.0	17.0	2.5	/experiments/knapen_aot/videos/S_yt-3TF_RGo9cLs_541.mp4	0.0	163.849200963974	2.5071840286254883
19	58.6729679107666	fix_post	2		12.0	17.0	2.5	/experiments/knapen_aot/videos/S_yt-3TF_RGo9cLs_541.mp4	0.0	166.3563849925995	0.09999704360961914
20	58.77296495437622	fix_pre	0		47.0	18.0	2.5	/experiments/knapen_aot/videos/S_yt-R0gFQo85cAE_5.mp4	0.0	166.4563820362091	0.39282703399658203
20	59.15643095970154	response	0	4		18.0	2.5	/experiments/knapen_aot/videos/S_yt-R0gFQo85cAE_5.mp4	0.0	166.83984804153442	
20	59.1657919883728	movie	1		301.0	18.0	2.5	/experiments/knapen_aot/videos/S_yt-R0gFQo85cAE_5.mp4	0.0	166.8492090702057	2.5073580741882324
20	61.673150062561035	fix_post	2		12.0	18.0	2.5	/experiments/knapen_aot/videos/S_yt-R0gFQo85cAE_5.mp4	0.0	169.35656714439392	0.09980988502502441
21	61.77295994758606	fix_pre	0		34.0	19.0	2.5	/experiments/knapen_aot/videos/R_S_ILSVRC2015_train_00595000.mp4	0.0	169.45637702941895	0.28328895568847656
21	62.04806995391846	response	0	4		19.0	2.5	/experiments/knapen_aot/videos/R_S_ILSVRC2015_train_00595000.mp4	0.0	169.73148703575134	
21	62.056248903274536	movie	1		301.0	19.0	2.5	/experiments/knapen_aot/videos/R_S_ILSVRC2015_train_00595000.mp4	0.0	169.73966598510742	2.5084621906280518
21	64.56471109390259	fix_post	2		12.0	19.0	2.5	/experiments/knapen_aot/videos/R_S_ILSVRC2015_train_00595000.mp4	0.0	172.24812817573547	0.09993982315063477
22	64.66465091705322	fix_pre	0		20.0	20.0	2.5	/experiments/knapen_aot/videos/R_S_yt-xQPKYWDRy2A_491.mp4	0.0	172.3480679988861	0.16772007942199707
22	64.82309293746948	response	0	4		20.0	2.5	/experiments/knapen_aot/videos/R_S_yt-xQPKYWDRy2A_491.mp4	0.0	172.50651001930237	
22	64.83237099647522	movie	1		301.0	20.0	2.5	/experiments/knapen_aot/videos/R_S_yt-xQPKYWDRy2A_491.mp4	0.0	172.5157880783081	2.507204055786133
22	67.30638599395752	response	1	4		20.0	2.5	/experiments/knapen_aot/videos/R_S_yt-xQPKYWDRy2A_491.mp4	0.0	174.9898030757904	
22	67.33957505226135	fix_post	2		12.0	20.0	2.5	/experiments/knapen_aot/videos/R_S_yt-xQPKYWDRy2A_491.mp4	0.0	175.02299213409424	0.10007095336914062
23	67.4396460056305	fix_pre	0		67.0	21.0	2.5	blank	1.0	175.12306308746338	0.558258056640625
23	67.98972606658936	response	0	4		21.0	2.5	blank	1.0	175.67314314842224	
23	67.99790406227112	movie	1		301.0	21.0	2.5	blank	1.0	175.681321144104	2.508286952972412
23	70.37299704551697	response	1	4		21.0	2.5	blank	1.0	178.05641412734985	
23	70.50619101524353	fix_post	2		12.0	21.0	2.5	blank	1.0	178.18960809707642	0.10012006759643555
24	70.60631108283997	fix_pre	0		134.0	22.0	2.5	/experiments/knapen_aot/videos/S_yt-3eQHOLBzOqA_100.mp4	0.0	178.28972816467285	1.1166059970855713
24	71.71470808982849	response	0	4		22.0	2.5	/experiments/knapen_aot/videos/S_yt-3eQHOLBzOqA_100.mp4	0.0	179.39812517166138	
24	71.72291707992554	movie	1		300.0	22.0	2.5	/experiments/knapen_aot/videos/S_yt-3eQHOLBzOqA_100.mp4	0.0	179.40633416175842	2.5083208084106445
24	74.23123788833618	fix_post	2		12.0	22.0	2.5	/experiments/knapen_aot/videos/S_yt-3eQHOLBzOqA_100.mp4	0.0	181.91465497016907	0.10000205039978027
25	74.33123993873596	fix_pre	0		229.0	23.0	2.5	/experiments/knapen_aot/videos/R_S_pexels-anna-tarazevich-6189268.mp4	0.0	182.01465702056885	1.908276081085205
25	76.23131990432739	response	0	4		23.0	2.5	/experiments/knapen_aot/videos/R_S_pexels-anna-tarazevich-6189268.mp4	0.0	183.91473698616028	
25	76.23951601982117	movie	1		215.0	23.0	2.5	/experiments/knapen_aot/videos/R_S_pexels-anna-tarazevich-6189268.mp4	0.0	183.92293310165405	2.50839900970459
25	78.74791502952576	fix_post	2		12.0	23.0	2.5	/experiments/knapen_aot/videos/R_S_pexels-anna-tarazevich-6189268.mp4	0.0	186.43133211135864	0.09996294975280762
26	78.84787797927856	fix_pre	0		25.0	24.0	2.5	/experiments/knapen_aot/videos/R_S_pexels-anthony-shkraba-production-8135459.mp4	0.0	186.53129506111145	0.20832610130310059
26	79.04800200462341	response	0	4		24.0	2.5	/experiments/knapen_aot/videos/R_S_pexels-anthony-shkraba-production-8135459.mp4	0.0	186.7314190864563	
26	79.05620408058167	movie	1		163.0	24.0	2.5	/experiments/knapen_aot/videos/R_S_pexels-anthony-shkraba-production-8135459.mp4	0.0	186.73962116241455	2.508457899093628
26	81.5646619796753	fix_post	2		12.0	24.0	2.5	/experiments/knapen_aot/videos/R_S_pexels-anthony-shkraba-production-8135459.mp4	0.0	189.24807906150818	0.09997200965881348
27	81.6646339893341	fix_pre	0		24.0	25.0	2.5	/experiments/knapen_aot/videos/R_S_comp_A013_C012_0122D6_CC_v01_SDR_PS_FINAL_20180709_SDR_2K_AVC.mp4	0.0	189.348051071167	0.1999518871307373
27	81.85636496543884	response	0	4		25.0	2.5	/experiments/knapen_aot/videos/R_S_comp_A013_C012_0122D6_CC_v01_SDR_PS_FINAL_20180709_SDR_2K_AVC.mp4	0.0	189.53978204727173	
27	81.86458587646484	movie	1		167.0	25.0	2.5	/experiments/knapen_aot/videos/R_S_comp_A013_C012_0122D6_CC_v01_SDR_PS_FINAL_20180709_SDR_2K_AVC.mp4	0.0	189.54800295829773	2.50835919380188
27	84.37294507026672	fix_post	2		12.0	25.0	2.5	/experiments/knapen_aot/videos/R_S_comp_A013_C012_0122D6_CC_v01_SDR_PS_FINAL_20180709_SDR_2K_AVC.mp4	0.0	192.0563621520996	0.10007882118225098
28	84.47302389144897	fix_pre	0		27.0	26.0	2.5	/experiments/knapen_aot/videos/S_yt-UBqUhu-GEVg_6.mp4	0.0	192.15644097328186	0.22485804557800293
28	84.68970394134521	response	0	4		26.0	2.5	/experiments/knapen_aot/videos/S_yt-UBqUhu-GEVg_6.mp4	0.0	192.3731210231781	
28	84.69788193702698	movie	1		301.0	26.0	2.5	/experiments/knapen_aot/videos/S_yt-UBqUhu-GEVg_6.mp4	0.0	192.38129901885986	2.5083141326904297
28	87.20619606971741	fix_post	2		12.0	26.0	2.5	/experiments/knapen_aot/videos/S_yt-UBqUhu-GEVg_6.mp4	0.0	194.8896131515503	0.10002589225769043
29	87.3062219619751	fix_pre	0		21.0	27.0	2.5	/experiments/knapen_aot/videos/S_ILSVRC2015_train_00628000.mp4	0.0	194.98963904380798	0.17497611045837402
29	87.47300887107849	response	0	4		27.0	2.5	/experiments/knapen_aot/videos/S_ILSVRC2015_train_00628000.mp4	0.0	195.15642595291138	
29	87.48119807243347	movie	1		301.0	27.0	2.5	/experiments/knapen_aot/videos/S_ILSVRC2015_train_00628000.mp4	0.0	195.16461515426636	2.5083119869232178
29	89.98951005935669	fix_post	2		12.0	27.0	2.5	/experiments/knapen_aot/videos/S_ILSVRC2015_train_00628000.mp4	0.0	197.67292714118958	0.10003781318664551
30	90.08954787254333	fix_pre	0		31.0	28.0	2.5	blank	1.0	197.77296495437622	0.2582991123199463
30	90.33961606025696	response	0	4		28.0	2.5	blank	1.0	198.02303314208984	
30	90.34784698486328	movie	1		301.0	28.0	2.5	blank	1.0	198.03126406669617	2.508370876312256
30	91.87292194366455	response	1	4		28.0	2.5	blank	1.0	199.55633902549744	
30	92.85621786117554	fix_post	2		12.0	28.0	2.5	blank	1.0	200.53963494300842	0.10097718238830566
31	92.95719504356384	fix_pre	0		19.0	29.0	2.5	/experiments/knapen_aot/videos/S_yt-z16pdVTZK1o_3.mp4	0.0	200.64061212539673	0.1573178768157959
31	93.10630702972412	response	0	4		29.0	2.5	/experiments/knapen_aot/videos/S_yt-z16pdVTZK1o_3.mp4	0.0	200.789724111557	
31	93.11451292037964	movie	1		301.0	29.0	2.5	/experiments/knapen_aot/videos/S_yt-z16pdVTZK1o_3.mp4	0.0	200.79793000221252	2.5083110332489014
31	95.62282395362854	fix_post	2		12.0	29.0	2.5	/experiments/knapen_aot/videos/S_yt-z16pdVTZK1o_3.mp4	0.0	203.30624103546143	0.0999600887298584
32	95.7227840423584	fix_pre	0		39.0	30.0	2.5	/experiments/knapen_aot/videos/R_S_BsNCrwV7d8Q_9.mp4	0.0	203.40620112419128	0.32502293586730957
32	96.03957986831665	response	0	4		30.0	2.5	/experiments/knapen_aot/videos/R_S_BsNCrwV7d8Q_9.mp4	0.0	203.72299695014954	
32	96.04780697822571	movie	1		301.0	30.0	2.5	/experiments/knapen_aot/videos/R_S_BsNCrwV7d8Q_9.mp4	0.0	203.7312240600586	2.5083470344543457
32	98.55615401268005	fix_post	2		12.0	30.0	2.5	/experiments/knapen_aot/videos/R_S_BsNCrwV7d8Q_9.mp4	0.0	206.23957109451294	0.09998703002929688
33	98.65614104270935	fix_pre	0		40.0	31.0	2.5	/experiments/knapen_aot/videos/R_S_yt-nlfwzxlwRfk_12.mp4	0.0	206.33955812454224	0.3333008289337158
33	98.981271982193	response	0	4		31.0	2.5	/experiments/knapen_aot/videos/R_S_yt-nlfwzxlwRfk_12.mp4	0.0	206.66468906402588	
33	98.98944187164307	movie	1		301.0	31.0	2.5	/experiments/knapen_aot/videos/R_S_yt-nlfwzxlwRfk_12.mp4	0.0	206.67285895347595	2.508305072784424
33	101.49774694442749	fix_post	2		12.0	31.0	2.5	/experiments/knapen_aot/videos/R_S_yt-nlfwzxlwRfk_12.mp4	0.0	209.18116402626038	0.10005497932434082
34	101.59780192375183	fix_pre	0		54.0	32.0	2.5	/experiments/knapen_aot/videos/S_yt-oVrkSsEpuvk_118.mp4	0.0	209.28121900558472	0.4499821662902832
34	102.0395998954773	response	0	4		32.0	2.5	/experiments/knapen_aot/videos/S_yt-oVrkSsEpuvk_118.mp4	0.0	209.72301697731018	
34	102.04778409004211	movie	1		301.0	32.0	2.5	/experiments/knapen_aot/videos/S_yt-oVrkSsEpuvk_118.mp4	0.0	209.731201171875	2.5083389282226562
34	104.55612301826477	fix_post	2		12.0	32.0	2.5	/experiments/knapen_aot/videos/S_yt-oVrkSsEpuvk_118.mp4	0.0	212.23954010009766	0.10000991821289062
35	104.65613293647766	fix_pre	0		43.0	33.0	2.5	blank	1.0	212.33955001831055	0.35827112197875977
35	105.00622892379761	response	0	4		33.0	2.5	blank	1.0	212.6896460056305	
35	105.01440405845642	movie	1		301.0	33.0	2.5	blank	1.0	212.6978211402893	2.5083470344543457
35	107.52275109291077	fix_post	2		12.0	33.0	2.5	blank	1.0	215.20616817474365	0.10001993179321289
36	107.62277102470398	fix_pre	0		50.0	34.0	2.5	/experiments/knapen_aot/videos/S_yt-6xXEMHBQ08A_28.mp4	0.0	215.30618810653687	0.41762495040893555
36	108.03123903274536	response	0	4		34.0	2.5	/experiments/knapen_aot/videos/S_yt-6xXEMHBQ08A_28.mp4	0.0	215.71465611457825	
36	108.04039597511292	movie	1		301.0	34.0	2.5	/experiments/knapen_aot/videos/S_yt-6xXEMHBQ08A_28.mp4	0.0	215.7238130569458	2.5076160430908203
36	110.54801201820374	fix_post	2		12.0	34.0	2.5	/experiments/knapen_aot/videos/S_yt-6xXEMHBQ08A_28.mp4	0.0	218.23142910003662	0.09976696968078613
37	110.64777898788452	fix_pre	0		31.0	35.0	2.5	/experiments/knapen_aot/videos/S_yt-UojTppgtyCE_121.mp4	0.0	218.3311960697174	0.2582979202270508
37	110.89788103103638	response	0	4		35.0	2.5	/experiments/knapen_aot/videos/S_yt-UojTppgtyCE_121.mp4	0.0	218.58129811286926	
37	110.90607690811157	movie	1		301.0	35.0	2.5	/experiments/knapen_aot/videos/S_yt-UojTppgtyCE_121.mp4	0.0	218.58949398994446	2.508411169052124
37	113.4144880771637	fix_post	2		12.0	35.0	2.5	/experiments/knapen_aot/videos/S_yt-UojTppgtyCE_121.mp4	0.0	221.09790515899658	0.09997296333312988
38	113.51446104049683	fix_pre	0		11.0	36.0	2.5	/experiments/knapen_aot/videos/R_S_ILSVRC2015_train_00628000.mp4	0.0	221.1978781223297	0.0916140079498291
38	113.59786295890808	response	0	4		36.0	2.5	/experiments/knapen_aot/videos/R_S_ILSVRC2015_train_00628000.mp4	0.0	221.28128004074097	
38	113.60607504844666	movie	1		301.0	36.0	2.5	/experiments/knapen_aot/videos/R_S_ILSVRC2015_train_00628000.mp4	0.0	221.28949213027954	2.508267879486084
38	116.11434292793274	fix_post	2		12.0	36.0	2.5	/experiments/knapen_aot/videos/R_S_ILSVRC2015_train_00628000.mp4	0.0	223.79776000976562	0.10003113746643066
39	116.21437406539917	fix_pre	0		25.0	37.0	2.5	/experiments/knapen_aot/videos/S_yt-tNCrkObhB6c_17.mp4	0.0	223.89779114723206	0.2083430290222168
39	116.41452097892761	response	0	4		37.0	2.5	/experiments/knapen_aot/videos/S_yt-tNCrkObhB6c_17.mp4	0.0	224.0979380607605	
39	116.42271709442139	movie	1		301.0	37.0	2.5	/experiments/knapen_aot/videos/S_yt-tNCrkObhB6c_17.mp4	0.0	224.10613417625427	2.5083558559417725
39	118.93107295036316	fix_post	2		12.0	37.0	2.5	/experiments/knapen_aot/videos/S_yt-tNCrkObhB6c_17.mp4	0.0	226.61449003219604	0.10004711151123047
40	119.03112006187439	fix_pre	0		14.0	38.0	2.5	/experiments/knapen_aot/videos/R_S_yt-xCh0LI9VKeI_28.mp4	0.0	226.71453714370728	0.11668801307678223
40	119.13943696022034	response	0	4		38.0	2.5	/experiments/knapen_aot/videos/R_S_yt-xCh0LI9VKeI_28.mp4	0.0	226.82285404205322	
40	119.14780807495117	movie	1		301.0	38.0	2.5	/experiments/knapen_aot/videos/R_S_yt-xCh0LI9VKeI_28.mp4	0.0	226.83122515678406	2.5082550048828125
40	121.00650906562805	response	1	4		38.0	2.5	/experiments/knapen_aot/videos/R_S_yt-xCh0LI9VKeI_28.mp4	0.0	228.68992614746094	
40	121.65606307983398	fix_post	2		12.0	38.0	2.5	/experiments/knapen_aot/videos/R_S_yt-xCh0LI9VKeI_28.mp4	0.0	229.33948016166687	0.10001182556152344
41	121.75607490539551	fix_pre	0		67.0	39.0	2.5	/experiments/knapen_aot/videos/S_comp_LW_L001_C006_PSNK_DENOISE_v02_SDR_PS_FINAL_20180709_SDR_2K_AVC.mp4	0.0	229.4394919872284	0.5582890510559082
41	122.30607104301453	response	0	4		39.0	2.5	/experiments/knapen_aot/videos/S_comp_LW_L001_C006_PSNK_DENOISE_v02_SDR_PS_FINAL_20180709_SDR_2K_AVC.mp4	0.0	229.9894881248474	
41	122.31436395645142	movie	1		176.0	39.0	2.5	/experiments/knapen_aot/videos/S_comp_LW_L001_C006_PSNK_DENOISE_v02_SDR_PS_FINAL_20180709_SDR_2K_AVC.mp4	0.0	229.9977810382843	2.5084729194641113
41	124.82283687591553	fix_post	2		12.0	39.0	2.5	/experiments/knapen_aot/videos/S_comp_LW_L001_C006_PSNK_DENOISE_v02_SDR_PS_FINAL_20180709_SDR_2K_AVC.mp4	0.0	232.5062539577484	0.0998680591583252
42	124.92270493507385	fix_pre	0		36.0	40.0	2.5	/experiments/knapen_aot/videos/R_S_yt-R0gFQo85cAE_5.mp4	0.0	232.60612201690674	0.29995012283325195
42	125.21450996398926	response	0	4		40.0	2.5	/experiments/knapen_aot/videos/R_S_yt-R0gFQo85cAE_5.mp4	0.0	232.89792704582214	
42	125.2226550579071	movie	1		301.0	40.0	2.5	/experiments/knapen_aot/videos/R_S_yt-R0gFQo85cAE_5.mp4	0.0	232.90607213974	2.508445978164673
42	127.38943290710449	response	1	4		40.0	2.5	/experiments/knapen_aot/videos/R_S_yt-R0gFQo85cAE_5.mp4	0.0	235.07284998893738	
42	127.73110103607178	fix_post	2		12.0	40.0	2.5	/experiments/knapen_aot/videos/R_S_yt-R0gFQo85cAE_5.mp4	0.0	235.41451811790466	0.09993195533752441
43	127.8310329914093	fix_pre	0		297.0	41.0	2.5	blank	1.0	235.5144500732422	2.474966049194336
43	130.29783391952515	response	0	4		41.0	2.5	blank	1.0	237.98125100135803	
43	130.30599904060364	movie	1		301.0	41.0	2.5	blank	1.0	237.98941612243652	2.5083658695220947
43	131.88110995292664	response	1	4		41.0	2.5	blank	1.0	239.56452703475952	
43	132.81436491012573	fix_post	2		12.0	41.0	2.5	blank	1.0	240.49778199195862	0.09999513626098633
44	132.91436004638672	fix_pre	0		168.0	42.0	2.5	/experiments/knapen_aot/videos/S_I003_C004_SDR_2K_AVC.mp4	0.0	240.5977771282196	1.3999528884887695
44	134.30610990524292	response	0	4		42.0	2.5	/experiments/knapen_aot/videos/S_I003_C004_SDR_2K_AVC.mp4	0.0	241.9895269870758	
44	134.3143129348755	movie	1		169.0	42.0	2.5	/experiments/knapen_aot/videos/S_I003_C004_SDR_2K_AVC.mp4	0.0	241.99773001670837	2.5085411071777344
44	136.82285404205322	fix_post	2		12.0	42.0	2.5	/experiments/knapen_aot/videos/S_I003_C004_SDR_2K_AVC.mp4	0.0	244.5062711238861	0.09984397888183594
45	136.92269802093506	fix_pre	0		7.0	43.0	2.5	/experiments/knapen_aot/videos/R_S_video-12.mp4	0.0	244.60611510276794	0.0582270622253418
45	136.97278904914856	response	0	4		43.0	2.5	/experiments/knapen_aot/videos/R_S_video-12.mp4	0.0	244.65620613098145	
45	136.9809250831604	movie	1		165.0	43.0	2.5	/experiments/knapen_aot/videos/R_S_video-12.mp4	0.0	244.6643421649933	2.508530855178833
45	139.43942403793335	response	1	4		43.0	2.5	/experiments/knapen_aot/videos/R_S_video-12.mp4	0.0	247.12284111976624	
45	139.48945593833923	fix_post	2		12.0	43.0	2.5	/experiments/knapen_aot/videos/R_S_video-12.mp4	0.0	247.17287302017212	0.09981393814086914
46	139.5892698764801	fix_pre	0		126.0	44.0	2.5	/experiments/knapen_aot/videos/S_yt-mWlx1SIXl5M_850.mp4	0.0	247.272686958313	1.0501420497894287
46	140.63107895851135	response	0	4		44.0	2.5	/experiments/knapen_aot/videos/S_yt-mWlx1SIXl5M_850.mp4	0.0	248.31449604034424	
46	140.63941192626953	movie	1		301.0	44.0	2.5	/experiments/knapen_aot/videos/S_yt-mWlx1SIXl5M_850.mp4	0.0	248.32282900810242	2.508226156234741
46	143.14763808250427	fix_post	2		12.0	44.0	2.5	/experiments/knapen_aot/videos/S_yt-mWlx1SIXl5M_850.mp4	0.0	250.83105516433716	0.10000991821289062
47	143.24764800071716	fix_pre	0		67.0	45.0	2.5	/experiments/knapen_aot/videos/R_S_ILSVRC2015_train_00538001.mp4	0.0	250.93106508255005	0.5582458972930908
47	143.79776191711426	response	0	4		45.0	2.5	/experiments/knapen_aot/videos/R_S_ILSVRC2015_train_00538001.mp4	0.0	251.48117899894714	
47	143.80589389801025	movie	1		301.0	45.0	2.5	/experiments/knapen_aot/videos/R_S_ILSVRC2015_train_00538001.mp4	0.0	251.48931097984314	2.508466958999634
47	146.3143608570099	fix_post	2		12.0	45.0	2.5	/experiments/knapen_aot/videos/R_S_ILSVRC2015_train_00538001.mp4	0.0	253.99777793884277	0.09996414184570312
48	146.4143249988556	fix_pre	0		24.0	46.0	2.5	/experiments/knapen_aot/videos/R_S_yt-MXLxcvKZDHw_22.mp4	0.0	254.09774208068848	0.19999003410339355
48	146.60616087913513	response	0	4		46.0	2.5	/experiments/knapen_aot/videos/R_S_yt-MXLxcvKZDHw_22.mp4	0.0	254.28957796096802	
48	146.61431503295898	movie	1		301.0	46.0	2.5	/experiments/knapen_aot/videos/R_S_yt-MXLxcvKZDHw_22.mp4	0.0	254.29773211479187	2.5083019733428955
48	149.12261700630188	fix_post	2		12.0	46.0	2.5	/experiments/knapen_aot/videos/R_S_yt-MXLxcvKZDHw_22.mp4	0.0	256.80603408813477	0.10004687309265137
49	149.22266387939453	fix_pre	0		39.0	47.0	2.5	blank	1.0	256.9060809612274	0.324984073638916
49	149.5394458770752	response	0	4		47.0	2.5	blank	1.0	257.2228629589081	
49	149.54764795303345	movie	1		301.0	47.0	2.5	blank	1.0	257.23106503486633	2.508294105529785
49	152.05594205856323	fix_post	2		12.0	47.0	2.5	blank	1.0	259.7393591403961	0.1000068187713623
50	152.1559488773346	fix_pre	0		48.0	48.0	2.5	/experiments/knapen_aot/videos/S_video-2.mp4	0.0	259.8393659591675	0.3999969959259033
50	152.5477888584137	response	0	4		48.0	2.5	/experiments/knapen_aot/videos/S_video-2.mp4	0.0	260.2312059402466	
50	152.5559458732605	movie	1		164.0	48.0	2.5	/experiments/knapen_aot/videos/S_video-2.mp4	0.0	260.2393629550934	2.508305072784424
50	155.06425094604492	fix_post	2		12.0	48.0	2.5	/experiments/knapen_aot/videos/S_video-2.mp4	0.0	262.7476680278778	0.10004591941833496
51	155.16429686546326	fix_pre	0		41.0	49.0	2.5	/experiments/knapen_aot/videos/S_yt-hDYtYKUsVE4_120.mp4	0.0	262.84771394729614	0.34163713455200195
51	155.49782490730286	response	0	4		49.0	2.5	/experiments/knapen_aot/videos/S_yt-hDYtYKUsVE4_120.mp4	0.0	263.18124198913574	
51	155.50593400001526	movie	1		301.0	49.0	2.5	/experiments/knapen_aot/videos/S_yt-hDYtYKUsVE4_120.mp4	0.0	263.18935108184814	2.5083730220794678
51	158.01430702209473	fix_post	2		12.0	49.0	2.5	/experiments/knapen_aot/videos/S_yt-hDYtYKUsVE4_120.mp4	0.0	265.6977241039276	0.0999748706817627
52	158.1142818927765	fix_pre	0		49.0	50.0	2.5	/experiments/knapen_aot/videos/R_S_-IkGMlLHrOI_108.mp4	0.0	265.7976989746094	0.40825510025024414
52	158.5143129825592	response	0	4		50.0	2.5	/experiments/knapen_aot/videos/R_S_-IkGMlLHrOI_108.mp4	0.0	266.1977300643921	
52	158.52253699302673	movie	1		301.0	50.0	2.5	/experiments/knapen_aot/videos/R_S_-IkGMlLHrOI_108.mp4	0.0	266.2059540748596	2.508384943008423
52	161.03092193603516	fix_post	2		12.0	50.0	2.5	/experiments/knapen_aot/videos/R_S_-IkGMlLHrOI_108.mp4	0.0	268.71433901786804	0.09994912147521973
53	161.13087105751038	fix_pre	0		47.0	51.0	2.5	/experiments/knapen_aot/videos/S_ILSVRC2015_train_00219004.mp4	0.0	268.81428813934326	0.3916440010070801
53	161.5142948627472	response	0	4		51.0	2.5	/experiments/knapen_aot/videos/S_ILSVRC2015_train_00219004.mp4	0.0	269.1977119445801	
53	161.52251505851746	movie	1		301.0	51.0	2.5	/experiments/knapen_aot/videos/S_ILSVRC2015_train_00219004.mp4	0.0	269.20593214035034	2.5083630084991455
53	164.0308780670166	fix_post	2		12.0	51.0	2.5	/experiments/knapen_aot/videos/S_ILSVRC2015_train_00219004.mp4	0.0	271.7142951488495	0.10005998611450195
54	164.1309380531311	fix_pre	0		24.0	52.0	2.5	/experiments/knapen_aot/videos/S_-IkGMlLHrOI_108.mp4	0.0	271.814355134964	0.20067095756530762
54	164.32265305519104	response	0	4		52.0	2.5	/experiments/knapen_aot/videos/S_-IkGMlLHrOI_108.mp4	0.0	272.0060701370239	
54	164.3316090106964	movie	1		301.0	52.0	2.5	/experiments/knapen_aot/videos/S_-IkGMlLHrOI_108.mp4	0.0	272.0150260925293	2.5076558589935303
54	166.83926486968994	fix_post	2		12.0	52.0	2.5	/experiments/knapen_aot/videos/S_-IkGMlLHrOI_108.mp4	0.0	274.5226819515228	0.09991908073425293
55	166.9391839504242	fix_pre	0		51.0	53.0	2.5	/experiments/knapen_aot/videos/S_yt-jQrMcUCmAaM_44.mp4	0.0	274.6226010322571	0.4249730110168457
55	167.3558840751648	response	0	4		53.0	2.5	/experiments/knapen_aot/videos/S_yt-jQrMcUCmAaM_44.mp4	0.0	275.0393011569977	
55	167.36415696144104	movie	1		301.0	53.0	2.5	/experiments/knapen_aot/videos/S_yt-jQrMcUCmAaM_44.mp4	0.0	275.0475740432739	2.5083940029144287
55	169.87255096435547	fix_post	2		12.0	53.0	2.5	/experiments/knapen_aot/videos/S_yt-jQrMcUCmAaM_44.mp4	0.0	277.55596804618835	0.10002899169921875
56	169.9725799560547	fix_pre	0		39.0	54.0	2.5	blank	1.0	277.6559970378876	0.3249189853668213
56	170.2893249988556	response	0	4		54.0	2.5	blank	1.0	277.9727420806885	
56	170.2974989414215	movie	1		301.0	54.0	2.5	blank	1.0	277.9809160232544	2.5083770751953125
56	172.80587601661682	fix_post	2		12.0	54.0	2.5	blank	1.0	280.4892930984497	0.09997701644897461
57	172.9058530330658	fix_pre	0		76.0	55.0	2.5	/experiments/knapen_aot/videos/S_yt-9pUeQix6EW8_7.mp4	0.0	280.5892701148987	0.6338279247283936
57	173.53093099594116	response	0	4		55.0	2.5	/experiments/knapen_aot/videos/S_yt-9pUeQix6EW8_7.mp4	0.0	281.21434807777405	
57	173.5396809577942	movie	1		301.0	55.0	2.5	/experiments/knapen_aot/videos/S_yt-9pUeQix6EW8_7.mp4	0.0	281.2230980396271	2.5078470706939697
57	176.04752802848816	fix_post	2		12.0	55.0	2.5	/experiments/knapen_aot/videos/S_yt-9pUeQix6EW8_7.mp4	0.0	283.73094511032104	0.0999460220336914
58	176.14747405052185	fix_pre	0		85.0	56.0	2.5	/experiments/knapen_aot/videos/S_yt-nMWqezngycw_10.mp4	0.0	283.83089113235474	0.7082929611206055
58	176.8475570678711	response	0	4		56.0	2.5	/experiments/knapen_aot/videos/S_yt-nMWqezngycw_10.mp4	0.0	284.530974149704	
58	176.85576701164246	movie	1		301.0	56.0	2.5	/experiments/knapen_aot/videos/S_yt-nMWqezngycw_10.mp4	0.0	284.53918409347534	2.5084080696105957
58	179.36417508125305	fix_post	2		12.0	56.0	2.5	/experiments/knapen_aot/videos/S_yt-nMWqezngycw_10.mp4	0.0	287.04759216308594	0.10006880760192871
59	179.46424388885498	fix_pre	0		105.0	57.0	2.5	/experiments/knapen_aot/videos/R_S_comp_A103_C002_0205DG_v12_SDR_FINAL_20180706_SDR_2K_AVC.mp4	0.0	287.14766097068787	0.8748819828033447
59	180.3309450149536	response	0	4		57.0	2.5	/experiments/knapen_aot/videos/R_S_comp_A103_C002_0205DG_v12_SDR_FINAL_20180706_SDR_2K_AVC.mp4	0.0	288.0143620967865	
59	180.33912587165833	movie	1		168.0	57.0	2.5	/experiments/knapen_aot/videos/R_S_comp_A103_C002_0205DG_v12_SDR_FINAL_20180706_SDR_2K_AVC.mp4	0.0	288.0225429534912	2.508380174636841
59	182.84750604629517	fix_post	2		12.0	57.0	2.5	/experiments/knapen_aot/videos/R_S_comp_A103_C002_0205DG_v12_SDR_FINAL_20180706_SDR_2K_AVC.mp4	0.0	290.53092312812805	0.10000395774841309
60	182.94751000404358	fix_pre	0		319.0	58.0	2.5	/experiments/knapen_aot/videos/S_wc-ZGCMbPfXQ71L_31.mp4	0.0	290.63092708587646	2.6582438945770264
60	185.5975890159607	response	0	4		58.0	2.5	/experiments/knapen_aot/videos/S_wc-ZGCMbPfXQ71L_31.mp4	0.0	293.2810060977936	
60	185.6057538986206	movie	1		164.0	58.0	2.5	/experiments/knapen_aot/videos/S_wc-ZGCMbPfXQ71L_31.mp4	0.0	293.2891709804535	2.508388042449951
60	188.11414194107056	fix_post	2		12.0	58.0	2.5	/experiments/knapen_aot/videos/S_wc-ZGCMbPfXQ71L_31.mp4	0.0	295.79755902290344	0.09998106956481934
61	188.21412301063538	fix_pre	0		299.0	59.0	2.5	/experiments/knapen_aot/videos/R_S_yt-4NjyKFnwHBo_13.mp4	0.0	295.89754009246826	2.4919750690460205
61	190.69757890701294	response	0	4		59.0	2.5	/experiments/knapen_aot/videos/R_S_yt-4NjyKFnwHBo_13.mp4	0.0	298.3809959888458	
61	190.7060980796814	movie	1		301.0	59.0	2.5	/experiments/knapen_aot/videos/R_S_yt-4NjyKFnwHBo_13.mp4	0.0	298.3895151615143	2.50795578956604
61	193.21405386924744	fix_post	2		12.0	59.0	2.5	/experiments/knapen_aot/videos/R_S_yt-4NjyKFnwHBo_13.mp4	0.0	300.8974709510803	0.10006213188171387
62	193.31411600112915	fix_pre	0		23.0	60.0	2.5	/experiments/knapen_aot/videos/S_yt-PvWkOmfZuSY_4.mp4	0.0	300.99753308296204	0.19171404838562012
62	193.49009108543396	response	0	4		60.0	2.5	/experiments/knapen_aot/videos/S_yt-PvWkOmfZuSY_4.mp4	0.0	301.17350816726685	
62	193.50583004951477	movie	1		301.0	60.0	2.5	/experiments/knapen_aot/videos/S_yt-PvWkOmfZuSY_4.mp4	0.0	301.18924713134766	2.50819993019104
62	196.0140299797058	fix_post	2		12.0	60.0	2.5	/experiments/knapen_aot/videos/S_yt-PvWkOmfZuSY_4.mp4	0.0	303.6974470615387	0.10027909278869629
63	196.1143090724945	fix_pre	0		32.0	61.0	2.5	/experiments/knapen_aot/videos/S_yt-fryIS5Itzig_124.mp4	0.0	303.7977261543274	0.26633381843566895
63	196.37257289886475	response	0	4		61.0	2.5	/experiments/knapen_aot/videos/S_yt-fryIS5Itzig_124.mp4	0.0	304.05598998069763	
63	196.38064289093018	movie	1		301.0	61.0	2.5	/experiments/knapen_aot/videos/S_yt-fryIS5Itzig_124.mp4	0.0	304.06405997276306	2.5086309909820557
63	198.88927388191223	fix_post	2		12.0	61.0	2.5	/experiments/knapen_aot/videos/S_yt-fryIS5Itzig_124.mp4	0.0	306.5726909637451	0.0997622013092041
64	198.98903608322144	fix_pre	0		154.0	62.0	2.5	/experiments/knapen_aot/videos/S_yt-iHmshS63rBc_329.mp4	0.0	306.6724531650543	1.2833218574523926
64	200.26419401168823	response	0	4		62.0	2.5	/experiments/knapen_aot/videos/S_yt-iHmshS63rBc_329.mp4	0.0	307.9476110935211	
64	200.27235794067383	movie	1		301.0	62.0	2.5	/experiments/knapen_aot/videos/S_yt-iHmshS63rBc_329.mp4	0.0	307.9557750225067	2.5083770751953125
64	202.78073501586914	fix_post	2		12.0	62.0	2.5	/experiments/knapen_aot/videos/S_yt-iHmshS63rBc_329.mp4	0.0	310.464152097702	0.10002803802490234
65	202.88076305389404	fix_pre	0		282.0	63.0	2.5	blank	1.0	310.56418013572693	2.3498849868774414
65	205.21487998962402	response	0	4		63.0	2.5	blank	1.0	312.8982970714569	
65	205.23064804077148	movie	1		301.0	63.0	2.5	blank	1.0	312.91406512260437	2.5083858966827393
65	207.73903393745422	fix_post	2		12.0	63.0	2.5	blank	1.0	315.4224510192871	0.10000300407409668
66	207.83903694152832	fix_pre	0		77.0	64.0	2.5	/experiments/knapen_aot/videos/S_yt-V5iQ3MbihnI_103.mp4	0.0	315.5224540233612	0.6416490077972412
66	208.472491979599	response	0	4		64.0	2.5	/experiments/knapen_aot/videos/S_yt-V5iQ3MbihnI_103.mp4	0.0	316.1559090614319	
66	208.48068594932556	movie	1		301.0	64.0	2.5	/experiments/knapen_aot/videos/S_yt-V5iQ3MbihnI_103.mp4	0.0	316.16410303115845	2.508557081222534
66	210.9892430305481	fix_post	2		12.0	64.0	2.5	/experiments/knapen_aot/videos/S_yt-V5iQ3MbihnI_103.mp4	0.0	318.672660112381	0.09977102279663086
67	211.08901405334473	fix_pre	0		187.0	65.0	2.5	/experiments/knapen_aot/videos/R_S_yt-Q6BFO3Yz0zY_363.mp4	0.0	318.7724311351776	1.5582878589630127
67	212.63918805122375	response	0	4		65.0	2.5	/experiments/knapen_aot/videos/R_S_yt-Q6BFO3Yz0zY_363.mp4	0.0	320.32260513305664	
67	212.64730191230774	movie	1		301.0	65.0	2.5	/experiments/knapen_aot/videos/R_S_yt-Q6BFO3Yz0zY_363.mp4	0.0	320.3307189941406	2.5084340572357178
67	215.15573596954346	fix_post	2		12.0	65.0	2.5	/experiments/knapen_aot/videos/R_S_yt-Q6BFO3Yz0zY_363.mp4	0.0	322.83915305137634	0.0999290943145752
68	215.25566506385803	fix_pre	0		237.0	66.0	2.5	/experiments/knapen_aot/videos/S_yt-ybH6uAiFbjc_273.mp4	0.0	322.9390821456909	1.9749078750610352
68	217.2224509716034	response	0	4		66.0	2.5	/experiments/knapen_aot/videos/S_yt-ybH6uAiFbjc_273.mp4	0.0	324.9058680534363	
68	217.23057293891907	movie	1		301.0	66.0	2.5	/experiments/knapen_aot/videos/S_yt-ybH6uAiFbjc_273.mp4	0.0	324.91399002075195	2.5086770057678223
68	219.7392499446869	fix_post	2		12.0	66.0	2.5	/experiments/knapen_aot/videos/S_yt-ybH6uAiFbjc_273.mp4	0.0	327.4226670265198	0.09976506233215332
69	219.83901500701904	fix_pre	0		35.0	67.0	2.5	/experiments/knapen_aot/videos/R_S_yt-YLcmfyfIokU_64.mp4	0.0	327.52243208885193	0.29166698455810547
69	220.12245798110962	response	0	4		67.0	2.5	/experiments/knapen_aot/videos/R_S_yt-YLcmfyfIokU_64.mp4	0.0	327.8058750629425	
69	220.13068199157715	movie	1		301.0	67.0	2.5	/experiments/knapen_aot/videos/R_S_yt-YLcmfyfIokU_64.mp4	0.0	327.81409907341003	2.508246898651123
69	222.63892889022827	fix_post	2		12.0	67.0	2.5	/experiments/knapen_aot/videos/R_S_yt-YLcmfyfIokU_64.mp4	0.0	330.32234597206116	0.1000511646270752
70	222.73898005485535	fix_pre	0		33.0	68.0	2.5	blank	1.0	330.42239713668823	0.2750279903411865
70	223.00579190254211	response	0	4		68.0	2.5	blank	1.0	330.689208984375	
70	223.01400804519653	movie	1		301.0	68.0	2.5	blank	1.0	330.6974251270294	2.508237838745117
70	225.52224588394165	fix_post	2		12.0	68.0	2.5	blank	1.0	333.20566296577454	0.10029006004333496
71	225.62253594398499	fix_pre	0		26.0	69.0	2.5	/experiments/knapen_aot/videos/S_yt-uY5xsUKn8zU_17.mp4	0.0	333.30595302581787	0.21644306182861328
71	225.83070492744446	response	0	4		69.0	2.5	/experiments/knapen_aot/videos/S_yt-uY5xsUKn8zU_17.mp4	0.0	333.51412200927734	
71	225.8389790058136	movie	1		301.0	69.0	2.5	/experiments/knapen_aot/videos/S_yt-uY5xsUKn8zU_17.mp4	0.0	333.5223960876465	2.5083370208740234
71	228.08092403411865	response	1	4		69.0	2.5	/experiments/knapen_aot/videos/S_yt-uY5xsUKn8zU_17.mp4	0.0	335.76434111595154	
71	228.34731602668762	fix_post	2		12.0	69.0	2.5	/experiments/knapen_aot/videos/S_yt-uY5xsUKn8zU_17.mp4	0.0	336.0307331085205	0.09994792938232422
72	228.44726395606995	fix_pre	0		189.0	70.0	2.5	/experiments/knapen_aot/videos/R_S_ILSVRC2015_train_00538001.mp4	0.0	336.13068103790283	1.574949026107788
72	230.00656604766846	response	0	4		70.0	2.5	/experiments/knapen_aot/videos/R_S_ILSVRC2015_train_00538001.mp4	0.0	337.68998312950134	
72	230.02221298217773	movie	1		301.0	70.0	2.5	/experiments/knapen_aot/videos/R_S_ILSVRC2015_train_00538001.mp4	0.0	337.7056300640106	2.5083649158477783
72	232.5305778980255	fix_post	2		12.0	70.0	2.5	/experiments/knapen_aot/videos/R_S_ILSVRC2015_train_00538001.mp4	0.0	340.2139949798584	0.10011005401611328
73	232.63068795204163	fix_pre	0		92.0	71.0	2.5	/experiments/knapen_aot/videos/R_S_Ds4EKTLx_RI_51.mp4	0.0	340.3141050338745	0.7665281295776367
73	233.3890519142151	response	0	4		71.0	2.5	/experiments/knapen_aot/videos/R_S_Ds4EKTLx_RI_51.mp4	0.0	341.072468996048	
73	233.39721608161926	movie	1		301.0	71.0	2.5	/experiments/knapen_aot/videos/R_S_Ds4EKTLx_RI_51.mp4	0.0	341.08063316345215	2.508389949798584
73	235.90560603141785	fix_post	2		12.0	71.0	2.5	/experiments/knapen_aot/videos/R_S_Ds4EKTLx_RI_51.mp4	0.0	343.58902311325073	0.0999898910522461
74	236.0055959224701	fix_pre	0		49.0	72.0	2.5	/experiments/knapen_aot/videos/S_bing-www_nytimes_com_video_dining_1247468118505_grilled-chicken-breasts-with-herb-butter_html_132.mp4	0.0	343.689013004303	0.4084310531616211
74	236.39807891845703	response	0	4		72.0	2.5	/experiments/knapen_aot/videos/S_bing-www_nytimes_com_video_dining_1247468118505_grilled-chicken-breasts-with-herb-butter_html_132.mp4	0.0	344.0814960002899	
74	236.4140269756317	movie	1		172.0	72.0	2.5	/experiments/knapen_aot/videos/S_bing-www_nytimes_com_video_dining_1247468118505_grilled-chicken-breasts-with-herb-butter_html_132.mp4	0.0	344.0974440574646	2.508213996887207
74	238.92224097251892	fix_post	2		12.0	72.0	2.5	/experiments/knapen_aot/videos/S_bing-www_nytimes_com_video_dining_1247468118505_grilled-chicken-breasts-with-herb-butter_html_132.mp4	0.0	346.6056580543518	0.10003805160522461
75	239.02227902412415	fix_pre	0		46.0	73.0	2.5	/experiments/knapen_aot/videos/S_yt-QiJyOUkuo38_6.mp4	0.0	346.70569610595703	0.38324499130249023
75	239.39733386039734	response	0	4		73.0	2.5	/experiments/knapen_aot/videos/S_yt-QiJyOUkuo38_6.mp4	0.0	347.0807509422302	
75	239.40552401542664	movie	1		301.0	73.0	2.5	/experiments/knapen_aot/videos/S_yt-QiJyOUkuo38_6.mp4	0.0	347.0889410972595	2.508589029312134
75	241.91411304473877	fix_post	2		12.0	73.0	2.5	/experiments/knapen_aot/videos/S_yt-QiJyOUkuo38_6.mp4	0.0	349.59753012657166	0.0998239517211914
76	242.01393699645996	fix_pre	0		68.0	74.0	2.5	/experiments/knapen_aot/videos/R_S_fHdEaNT0gA0_35.mp4	0.0	349.69735407829285	0.566735029220581
76	242.57236409187317	response	0	4		74.0	2.5	/experiments/knapen_aot/videos/R_S_fHdEaNT0gA0_35.mp4	0.0	350.25578117370605	
76	242.58067202568054	movie	1		301.0	74.0	2.5	/experiments/knapen_aot/videos/R_S_fHdEaNT0gA0_35.mp4	0.0	350.2640891075134	2.5081729888916016
76	245.08884501457214	fix_post	2		12.0	74.0	2.5	/experiments/knapen_aot/videos/R_S_fHdEaNT0gA0_35.mp4	0.0	352.77226209640503	0.10004496574401855
77	245.18888998031616	fix_pre	0		265.0	75.0	2.5	/experiments/knapen_aot/videos/S_Pexels_Videos_2795737.mp4	0.0	352.87230706214905	2.208293914794922
77	247.38909792900085	response	0	4		75.0	2.5	/experiments/knapen_aot/videos/S_Pexels_Videos_2795737.mp4	0.0	355.07251501083374	
77	247.39718389511108	movie	1		165.0	75.0	2.5	/experiments/knapen_aot/videos/S_Pexels_Videos_2795737.mp4	0.0	355.08060097694397	2.508603096008301
77	249.19733595848083	response	1	4		75.0	2.5	/experiments/knapen_aot/videos/S_Pexels_Videos_2795737.mp4	0.0	356.8807530403137	
77	249.90578699111938	fix_post	2		12.0	75.0	2.5	/experiments/knapen_aot/videos/S_Pexels_Videos_2795737.mp4	0.0	357.58920407295227	0.09986686706542969
78	250.00565385818481	fix_pre	0		520.0	76.0	2.5	blank	1.0	357.6890709400177	4.333248138427734
78	254.33064889907837	response	0	4		76.0	2.5	blank	1.0	362.01406598091125	
78	254.33890199661255	movie	1		301.0	76.0	2.5	blank	1.0	362.02231907844543	2.508262872695923
78	256.8471648693085	fix_post	2		12.0	76.0	2.5	blank	1.0	364.53058195114136	0.10005021095275879
79	256.94721508026123	fix_pre	0		12.0	77.0	2.5	/experiments/knapen_aot/videos/S_bing-www_dailymotion_com_video_x4kcklg_53.mp4	0.0	364.6306321620941	0.10007500648498535
79	257.0388820171356	response	0	4		77.0	2.5	/experiments/knapen_aot/videos/S_bing-www_dailymotion_com_video_x4kcklg_53.mp4	0.0	364.7222990989685	
79	257.0472900867462	movie	1		165.0	77.0	2.5	/experiments/knapen_aot/videos/S_bing-www_dailymotion_com_video_x4kcklg_53.mp4	0.0	364.7307071685791	2.508232831954956
79	259.5555229187012	fix_post	2		12.0	77.0	2.5	/experiments/knapen_aot/videos/S_bing-www_dailymotion_com_video_x4kcklg_53.mp4	0.0	367.23894000053406	0.09998011589050293
80	259.6555030345917	fix_pre	0		80.0	78.0	2.5	/experiments/knapen_aot/videos/R_S_yt-oVrkSsEpuvk_118.mp4	0.0	367.33892011642456	0.6666278839111328
80	260.31397891044617	response	0	4		78.0	2.5	/experiments/knapen_aot/videos/R_S_yt-oVrkSsEpuvk_118.mp4	0.0	367.99739599227905	
80	260.3221309185028	movie	1		301.0	78.0	2.5	/experiments/knapen_aot/videos/R_S_yt-oVrkSsEpuvk_118.mp4	0.0	368.0055480003357	2.5088021755218506
80	262.83093309402466	fix_post	2		11.0	78.0	2.5	/experiments/knapen_aot/videos/R_S_yt-oVrkSsEpuvk_118.mp4	0.0	370.51435017585754	0.09119391441345215
80	262.9141619205475	response	2	4		78.0	2.5	/experiments/knapen_aot/videos/R_S_yt-oVrkSsEpuvk_118.mp4	0.0	370.59757900238037	
81	262.9221270084381	fix_pre	0		92.0	79.0	2.5	/experiments/knapen_aot/videos/R_S_ILSVRC2015_train_00339001.mp4	0.0	370.605544090271	0.7666158676147461
81	263.67307806015015	response	0	4		79.0	2.5	/experiments/knapen_aot/videos/R_S_ILSVRC2015_train_00339001.mp4	0.0	371.35649514198303	
81	263.68874287605286	movie	1		301.0	79.0	2.5	/experiments/knapen_aot/videos/R_S_ILSVRC2015_train_00339001.mp4	0.0	371.37215995788574	2.508449077606201
81	266.19719195365906	fix_post	2		12.0	79.0	2.5	/experiments/knapen_aot/videos/R_S_ILSVRC2015_train_00339001.mp4	0.0	373.88060903549194	0.10007691383361816
82	266.2972688674927	fix_pre	0		26.0	80.0	2.5	/experiments/knapen_aot/videos/S_yt-bH4nJibL4Jo_164.mp4	0.0	373.98068594932556	0.2165520191192627
82	266.4980990886688	response	0	4		80.0	2.5	/experiments/knapen_aot/videos/S_yt-bH4nJibL4Jo_164.mp4	0.0	374.1815161705017	
82	266.51382088661194	movie	1		301.0	80.0	2.5	/experiments/knapen_aot/videos/S_yt-bH4nJibL4Jo_164.mp4	0.0	374.1972379684448	2.5083351135253906
82	269.02215600013733	fix_post	2		12.0	80.0	2.5	/experiments/knapen_aot/videos/S_yt-bH4nJibL4Jo_164.mp4	0.0	376.7055730819702	0.1000819206237793
83	269.1222379207611	fix_pre	0		23.0	81.0	2.5	/experiments/knapen_aot/videos/R_S_yt-F1vQ5nZWhDg_21.mp4	0.0	376.805655002594	0.19155311584472656
83	269.30561900138855	response	0	4		81.0	2.5	/experiments/knapen_aot/videos/R_S_yt-F1vQ5nZWhDg_21.mp4	0.0	376.98903608322144	
83	269.31379103660583	movie	1		301.0	81.0	2.5	/experiments/knapen_aot/videos/R_S_yt-F1vQ5nZWhDg_21.mp4	0.0	376.9972081184387	2.508359909057617
83	271.82215094566345	fix_post	2		12.0	81.0	2.5	/experiments/knapen_aot/videos/R_S_yt-F1vQ5nZWhDg_21.mp4	0.0	379.50556802749634	0.10001492500305176
84	271.9221658706665	fix_pre	0		34.0	82.0	2.5	/experiments/knapen_aot/videos/R_S_yt-F3hhts3bwWg_25.mp4	0.0	379.6055829524994	0.2833130359649658
84	272.19727206230164	response	0	4		82.0	2.5	/experiments/knapen_aot/videos/R_S_yt-F3hhts3bwWg_25.mp4	0.0	379.8806891441345	
84	272.20547890663147	movie	1		301.0	82.0	2.5	/experiments/knapen_aot/videos/R_S_yt-F3hhts3bwWg_25.mp4	0.0	379.88889598846436	2.5084030628204346
84	274.7138819694519	fix_post	2		12.0	82.0	2.5	/experiments/knapen_aot/videos/R_S_yt-F3hhts3bwWg_25.mp4	0.0	382.3972990512848	0.09989190101623535
85	274.81377387046814	fix_pre	0		19.0	83.0	2.5	blank	1.0	382.497190952301	0.1583411693572998
85	274.96391797065735	response	0	4		83.0	2.5	blank	1.0	382.64733505249023	
85	274.97211503982544	movie	1		301.0	83.0	2.5	blank	1.0	382.6555321216583	2.508335828781128
85	277.48045086860657	fix_post	2		12.0	83.0	2.5	blank	1.0	385.16386795043945	0.09998416900634766
87	277.5804350376129	stim	0		220.0					385.2638521194458	1.833266019821167
87	277.8388319015503	response	0	4						385.5222489833832	
87	279.4107139110565	response	0	space						387.0941309928894	
