trial_nr	onset	event_type	phase	response	nr_frames	movie_index	movie_duration	movie_file	blank	onset_abs	duration
0	0.12505197525024414	stim	0		60.0					100.81472897529602	0.5000669956207275
0	0.6098809242248535	response	0	space						101.29955792427063	
1	0.6251189708709717	stim	0		121.0					101.31479597091675	1.007918119430542
1	1.6330370903015137	stim	1		120.0					102.32271409034729	1.0001089572906494
1	1.6582090854644775	response	1	space						102.34788608551025	
1	2.29978609085083	response	1	space						102.9894630908966	
2	2.633146047592163	fix_pre	0		95.0	0.0	2.5	/experiments/knapen_aot/videos/S_ILSVRC2015_train_00457000.mp4	0.0	103.32282304763794	0.7914869785308838
2	3.4163830280303955	response	0	space		0.0	2.5	/experiments/knapen_aot/videos/S_ILSVRC2015_train_00457000.mp4	0.0	104.10606002807617	
2	3.424633026123047	movie	1		300.0	0.0	2.5	/experiments/knapen_aot/videos/S_ILSVRC2015_train_00457000.mp4	0.0	104.11431002616882	2.508378028869629
2	5.933011054992676	fix_post	2		12.0	0.0	2.5	/experiments/knapen_aot/videos/S_ILSVRC2015_train_00457000.mp4	0.0	106.62268805503845	0.09995889663696289
3	6.032969951629639	fix_pre	0		12.0	1.0	2.5	/experiments/knapen_aot/videos/R_S_ILSVRC2015_train_00165013.mp4	0.0	106.72264695167542	0.10307502746582031
3	6.128087043762207	response	0	2		1.0	2.5	/experiments/knapen_aot/videos/R_S_ILSVRC2015_train_00165013.mp4	0.0	106.81776404380798	
3	6.136044979095459	movie	1		299.0	1.0	2.5	/experiments/knapen_aot/videos/R_S_ILSVRC2015_train_00165013.mp4	0.0	106.82572197914124	2.505234956741333
3	8.641279935836792	fix_post	2		12.0	1.0	2.5	/experiments/knapen_aot/videos/R_S_ILSVRC2015_train_00165013.mp4	0.0	109.33095693588257	0.09996509552001953
4	8.741245031356812	fix_pre	0		2.0	2.0	2.5	/experiments/knapen_aot/videos/S_yt-j-ifVbxZePQ_70.mp4	0.0	109.43092203140259	0.016687870025634766
4	8.743653059005737	response	0	2		2.0	2.5	/experiments/knapen_aot/videos/S_yt-j-ifVbxZePQ_70.mp4	0.0	109.43333005905151	
4	8.757932901382446	movie	1		301.0	2.0	2.5	/experiments/knapen_aot/videos/S_yt-j-ifVbxZePQ_70.mp4	0.0	109.44760990142822	2.508390188217163
4	11.26632308959961	fix_post	2		12.0	2.0	2.5	/experiments/knapen_aot/videos/S_yt-j-ifVbxZePQ_70.mp4	0.0	111.95600008964539	0.1002810001373291
5	11.366604089736938	fix_pre	0		7.0	3.0	2.5	/experiments/knapen_aot/videos/R_S_yt-8N5UuN5WQcY_72.mp4	0.0	112.05628108978271	0.05795884132385254
5	11.416373014450073	response	0	2		3.0	2.5	/experiments/knapen_aot/videos/R_S_yt-8N5UuN5WQcY_72.mp4	0.0	112.10605001449585	
5	11.424562931060791	movie	1		301.0	3.0	2.5	/experiments/knapen_aot/videos/R_S_yt-8N5UuN5WQcY_72.mp4	0.0	112.11423993110657	2.508373975753784
5	13.932936906814575	fix_post	2		12.0	3.0	2.5	/experiments/knapen_aot/videos/R_S_yt-8N5UuN5WQcY_72.mp4	0.0	114.62261390686035	0.10002398490905762
6	14.032960891723633	fix_pre	0		7.0	4.0	2.5	/experiments/knapen_aot/videos/R_S_yt-x7TqP8l4lCA_39.mp4	0.0	114.72263789176941	0.05824017524719238
6	14.08303189277649	response	0	2		4.0	2.5	/experiments/knapen_aot/videos/R_S_yt-x7TqP8l4lCA_39.mp4	0.0	114.77270889282227	
6	14.091201066970825	movie	1		301.0	4.0	2.5	/experiments/knapen_aot/videos/R_S_yt-x7TqP8l4lCA_39.mp4	0.0	114.7808780670166	2.5084068775177
6	16.434664964675903	response	1	2		4.0	2.5	/experiments/knapen_aot/videos/R_S_yt-x7TqP8l4lCA_39.mp4	0.0	117.12434196472168	
6	16.599607944488525	fix_post	2		12.0	4.0	2.5	/experiments/knapen_aot/videos/R_S_yt-x7TqP8l4lCA_39.mp4	0.0	117.2892849445343	0.0999441146850586
7	16.699552059173584	fix_pre	0		57.0	5.0	2.5	blank	1.0	117.38922905921936	0.4750180244445801
7	17.16636300086975	response	0	2		5.0	2.5	blank	1.0	117.85604000091553	
7	17.174570083618164	movie	1		301.0	5.0	2.5	blank	1.0	117.86424708366394	2.5083467960357666
7	19.68291687965393	fix_post	2		12.0	5.0	2.5	blank	1.0	120.3725938796997	0.1000981330871582
8	19.78301501274109	fix_pre	0		20.0	6.0	2.5	/experiments/knapen_aot/videos/R_S_ILSVRC2015_train_00044004.mp4	0.0	120.47269201278687	0.16653203964233398
8	19.941365957260132	response	0	2		6.0	2.5	/experiments/knapen_aot/videos/R_S_ILSVRC2015_train_00044004.mp4	0.0	120.63104295730591	
8	19.949547052383423	movie	1		301.0	6.0	2.5	/experiments/knapen_aot/videos/R_S_ILSVRC2015_train_00044004.mp4	0.0	120.6392240524292	2.5083718299865723
8	22.457918882369995	fix_post	2		12.0	6.0	2.5	/experiments/knapen_aot/videos/R_S_ILSVRC2015_train_00044004.mp4	0.0	123.14759588241577	0.1000211238861084
9	22.557940006256104	fix_pre	0		1.0	7.0	2.5	/experiments/knapen_aot/videos/R_S_yt-K_gHa2x2OQA_319.mp4	0.0	123.24761700630188	0.008833885192871094
9	22.55093002319336	response	0	2		7.0	2.5	/experiments/knapen_aot/videos/R_S_yt-K_gHa2x2OQA_319.mp4	0.0	123.24060702323914	
9	22.566773891448975	movie	1		301.0	7.0	2.5	/experiments/knapen_aot/videos/R_S_yt-K_gHa2x2OQA_319.mp4	0.0	123.25645089149475	2.5078001022338867
9	25.07457399368286	fix_post	2		12.0	7.0	2.5	/experiments/knapen_aot/videos/R_S_yt-K_gHa2x2OQA_319.mp4	0.0	125.76425099372864	0.09999299049377441
10	25.174566984176636	fix_pre	0		6.0	8.0	2.5	/experiments/knapen_aot/videos/S_Pexels_Videos_2786546.mp4	0.0	125.86424398422241	0.04996991157531738
10	25.21632194519043	response	0	2		8.0	2.5	/experiments/knapen_aot/videos/S_Pexels_Videos_2786546.mp4	0.0	125.9059989452362	
10	25.224536895751953	movie	1		164.0	8.0	2.5	/experiments/knapen_aot/videos/S_Pexels_Videos_2786546.mp4	0.0	125.91421389579773	2.5084140300750732
10	27.732950925827026	fix_post	2		12.0	8.0	2.5	/experiments/knapen_aot/videos/S_Pexels_Videos_2786546.mp4	0.0	128.4226279258728	0.09998798370361328
11	27.83293890953064	fix_pre	0		1.0	9.0	2.5	/experiments/knapen_aot/videos/R_S_yt-6UFUeTKci2o_164.mp4	0.0	128.52261590957642	0.008292198181152344
11	27.834534883499146	response	0	2		9.0	2.5	/experiments/knapen_aot/videos/R_S_yt-6UFUeTKci2o_164.mp4	0.0	128.52421188354492	
11	27.841231107711792	movie	1		301.0	9.0	2.5	/experiments/knapen_aot/videos/R_S_yt-6UFUeTKci2o_164.mp4	0.0	128.53090810775757	2.5083329677581787
11	30.34956407546997	fix_post	2		12.0	9.0	2.5	/experiments/knapen_aot/videos/R_S_yt-6UFUeTKci2o_164.mp4	0.0	131.03924107551575	0.0999758243560791
12	30.44953989982605	fix_pre	0		3.0	10.0	2.5	/experiments/knapen_aot/videos/R_S_FK_U009_C004_SDR_20191220_SDR_2K_AVC.mp4	0.0	131.13921689987183	0.025011062622070312
12	30.466350078582764	response	0	2		10.0	2.5	/experiments/knapen_aot/videos/R_S_FK_U009_C004_SDR_20191220_SDR_2K_AVC.mp4	0.0	131.15602707862854	
12	30.47455096244812	movie	1		163.0	10.0	2.5	/experiments/knapen_aot/videos/R_S_FK_U009_C004_SDR_20191220_SDR_2K_AVC.mp4	0.0	131.1642279624939	2.5084941387176514
12	32.98304510116577	fix_post	2		12.0	10.0	2.5	/experiments/knapen_aot/videos/R_S_FK_U009_C004_SDR_20191220_SDR_2K_AVC.mp4	0.0	133.67272210121155	0.09983086585998535
13	33.08287596702576	fix_pre	0		6.0	11.0	2.5	/experiments/knapen_aot/videos/R_S_yt-J2PiBa1MXI0_210.mp4	0.0	133.77255296707153	0.05000114440917969
13	33.124722957611084	response	0	2		11.0	2.5	/experiments/knapen_aot/videos/R_S_yt-J2PiBa1MXI0_210.mp4	0.0	133.81439995765686	
13	33.13287711143494	movie	1		301.0	11.0	2.5	/experiments/knapen_aot/videos/R_S_yt-J2PiBa1MXI0_210.mp4	0.0	133.8225541114807	2.508293867111206
13	35.64117097854614	fix_post	2		12.0	11.0	2.5	/experiments/knapen_aot/videos/R_S_yt-J2PiBa1MXI0_210.mp4	0.0	136.33084797859192	0.10000896453857422
14	35.74117994308472	fix_pre	0		10.0	12.0	2.5	/experiments/knapen_aot/videos/R_S_yt-UzWRbs9Syf4_7.mp4	0.0	136.4308569431305	0.08333015441894531
14	35.81629300117493	response	0	2		12.0	2.5	/experiments/knapen_aot/videos/R_S_yt-UzWRbs9Syf4_7.mp4	0.0	136.5059700012207	
14	35.82451009750366	movie	1		301.0	12.0	2.5	/experiments/knapen_aot/videos/R_S_yt-UzWRbs9Syf4_7.mp4	0.0	136.51418709754944	2.50837779045105
14	38.33288788795471	fix_post	2		12.0	12.0	2.5	/experiments/knapen_aot/videos/R_S_yt-UzWRbs9Syf4_7.mp4	0.0	139.0225648880005	0.09994912147521973
15	38.43283700942993	fix_pre	0		4.0	13.0	2.5	blank	1.0	139.1225140094757	0.03337693214416504
15	38.45802092552185	response	0	2		13.0	2.5	blank	1.0	139.14769792556763	
15	38.4662139415741	movie	1		301.0	13.0	2.5	blank	1.0	139.15589094161987	2.5082850456237793
15	40.974498987197876	fix_post	2		12.0	13.0	2.5	blank	1.0	141.66417598724365	0.09998893737792969
16	41.074487924575806	fix_pre	0		10.0	14.0	2.5	/experiments/knapen_aot/videos/S_yt-J2PiBa1MXI0_210.mp4	0.0	141.76416492462158	0.08330202102661133
16	41.1496639251709	response	0	2		14.0	2.5	/experiments/knapen_aot/videos/S_yt-J2PiBa1MXI0_210.mp4	0.0	141.83934092521667	
16	41.15778994560242	movie	1		301.0	14.0	2.5	/experiments/knapen_aot/videos/S_yt-J2PiBa1MXI0_210.mp4	0.0	141.8474669456482	2.508373975753784
16	43.6661639213562	fix_post	2		12.0	14.0	2.5	/experiments/knapen_aot/videos/S_yt-J2PiBa1MXI0_210.mp4	0.0	144.35584092140198	0.10000300407409668
17	43.7661669254303	fix_pre	0		5.0	15.0	2.5	/experiments/knapen_aot/videos/S_yt-074ygGXNoQ8_64.mp4	0.0	144.45584392547607	0.041654109954833984
17	43.79958510398865	response	0	2		15.0	2.5	/experiments/knapen_aot/videos/S_yt-074ygGXNoQ8_64.mp4	0.0	144.48926210403442	
17	43.80782103538513	movie	1		301.0	15.0	2.5	/experiments/knapen_aot/videos/S_yt-074ygGXNoQ8_64.mp4	0.0	144.4974980354309	2.508439064025879
17	46.31626009941101	fix_post	2		12.0	15.0	2.5	/experiments/knapen_aot/videos/S_yt-074ygGXNoQ8_64.mp4	0.0	147.0059370994568	0.09982085227966309
18	46.416080951690674	fix_pre	0		11.0	16.0	2.5	/experiments/knapen_aot/videos/R_S_yt-MNo__ov96eI_22.mp4	0.0	147.10575795173645	0.09169316291809082
18	46.499541997909546	response	0	2		16.0	2.5	/experiments/knapen_aot/videos/R_S_yt-MNo__ov96eI_22.mp4	0.0	147.18921899795532	
18	46.507774114608765	movie	1		301.0	16.0	2.5	/experiments/knapen_aot/videos/R_S_yt-MNo__ov96eI_22.mp4	0.0	147.19745111465454	2.50846791267395
18	49.016242027282715	fix_post	2		12.0	16.0	2.5	/experiments/knapen_aot/videos/R_S_yt-MNo__ov96eI_22.mp4	0.0	149.7059190273285	0.09985208511352539
19	49.11609411239624	fix_pre	0		17.0	17.0	2.5	/experiments/knapen_aot/videos/S_comp_A006_C003_1219EE_CC_v01_SDR_PS_FINAL_20180709_SDR_2K_AVC.mp4	0.0	149.80577111244202	0.14157676696777344
19	49.24958300590515	response	0	2		17.0	2.5	/experiments/knapen_aot/videos/S_comp_A006_C003_1219EE_CC_v01_SDR_PS_FINAL_20180709_SDR_2K_AVC.mp4	0.0	149.93926000595093	
19	49.257670879364014	movie	1		167.0	17.0	2.5	/experiments/knapen_aot/videos/S_comp_A006_C003_1219EE_CC_v01_SDR_PS_FINAL_20180709_SDR_2K_AVC.mp4	0.0	149.9473478794098	2.508540153503418
19	51.76621103286743	fix_post	2		12.0	17.0	2.5	/experiments/knapen_aot/videos/S_comp_A006_C003_1219EE_CC_v01_SDR_PS_FINAL_20180709_SDR_2K_AVC.mp4	0.0	152.4558880329132	0.09990906715393066
20	51.86612010002136	fix_pre	0		1.0	18.0	2.5	/experiments/knapen_aot/videos/S_yt-xQilXyNKsBw_42.mp4	0.0	152.55579710006714	0.00831294059753418
20	51.86766004562378	response	0	2		18.0	2.5	/experiments/knapen_aot/videos/S_yt-xQilXyNKsBw_42.mp4	0.0	152.55733704566956	
20	51.8744330406189	movie	1		301.0	18.0	2.5	/experiments/knapen_aot/videos/S_yt-xQilXyNKsBw_42.mp4	0.0	152.56411004066467	2.5083348751068115
20	54.38276791572571	fix_post	2		12.0	18.0	2.5	/experiments/knapen_aot/videos/S_yt-xQilXyNKsBw_42.mp4	0.0	155.07244491577148	0.1001441478729248
21	54.48291206359863	fix_pre	0		7.0	19.0	2.5	/experiments/knapen_aot/videos/S_yt-dj0XQUJos38_14.mp4	0.0	155.1725890636444	0.05814790725708008
21	54.52541708946228	response	0	2		19.0	2.5	/experiments/knapen_aot/videos/S_yt-dj0XQUJos38_14.mp4	0.0	155.21509408950806	
21	54.54105997085571	movie	1		301.0	19.0	2.5	/experiments/knapen_aot/videos/S_yt-dj0XQUJos38_14.mp4	0.0	155.2307369709015	2.508397102355957
21	57.04945707321167	fix_post	2		12.0	19.0	2.5	/experiments/knapen_aot/videos/S_yt-dj0XQUJos38_14.mp4	0.0	157.73913407325745	0.0999608039855957
22	57.149417877197266	fix_pre	0		24.0	20.0	2.5	/experiments/knapen_aot/videos/R_S_yt-aSEKRE_FNaI_62.mp4	0.0	157.83909487724304	0.19993019104003906
22	57.34130501747131	response	0	2		20.0	2.5	/experiments/knapen_aot/videos/R_S_yt-aSEKRE_FNaI_62.mp4	0.0	158.0309820175171	
22	57.349348068237305	movie	1		300.0	20.0	2.5	/experiments/knapen_aot/videos/R_S_yt-aSEKRE_FNaI_62.mp4	0.0	158.03902506828308	2.508486032485962
22	59.85783410072327	fix_post	2		12.0	20.0	2.5	/experiments/knapen_aot/videos/R_S_yt-aSEKRE_FNaI_62.mp4	0.0	160.54751110076904	0.09986186027526855
23	59.957695960998535	fix_pre	0		18.0	21.0	2.5	blank	1.0	160.6473729610443	0.15004801750183105
23	60.09943509101868	response	0	2		21.0	2.5	blank	1.0	160.78911209106445	
23	60.107743978500366	movie	1		301.0	21.0	2.5	blank	1.0	160.79742097854614	2.5083069801330566
23	62.61605095863342	fix_post	2		12.0	21.0	2.5	blank	1.0	163.3057279586792	0.10018801689147949
24	62.7162389755249	fix_pre	0		13.0	22.0	2.5	/experiments/knapen_aot/videos/R_S_yt-14tjqjjjAEI_15.mp4	0.0	163.40591597557068	0.10803699493408203
24	62.81616687774658	response	0	2		22.0	2.5	/experiments/knapen_aot/videos/R_S_yt-14tjqjjjAEI_15.mp4	0.0	163.50584387779236	
24	62.824275970458984	movie	1		301.0	22.0	2.5	/experiments/knapen_aot/videos/R_S_yt-14tjqjjjAEI_15.mp4	0.0	163.51395297050476	2.508392095565796
24	65.33266806602478	fix_post	2		12.0	22.0	2.5	/experiments/knapen_aot/videos/R_S_yt-14tjqjjjAEI_15.mp4	0.0	166.02234506607056	0.1001129150390625
25	65.43278098106384	fix_pre	0		20.0	23.0	2.5	/experiments/knapen_aot/videos/R_S_yt-iAQ98zgVlds_97.mp4	0.0	166.12245798110962	0.16654205322265625
25	65.59109091758728	response	0	2		23.0	2.5	/experiments/knapen_aot/videos/R_S_yt-iAQ98zgVlds_97.mp4	0.0	166.28076791763306	
25	65.5993230342865	movie	1		301.0	23.0	2.5	/experiments/knapen_aot/videos/R_S_yt-iAQ98zgVlds_97.mp4	0.0	166.28900003433228	2.5083868503570557
25	68.10770988464355	fix_post	2		12.0	23.0	2.5	/experiments/knapen_aot/videos/R_S_yt-iAQ98zgVlds_97.mp4	0.0	168.79738688468933	0.09998512268066406
26	68.20769500732422	fix_pre	0		14.0	24.0	2.5	/experiments/knapen_aot/videos/S_ILSVRC2015_train_00371006.mp4	0.0	168.89737200737	0.11664509773254395
26	68.31618094444275	response	0	2		24.0	2.5	/experiments/knapen_aot/videos/S_ILSVRC2015_train_00371006.mp4	0.0	169.00585794448853	
26	68.32434010505676	movie	1		301.0	24.0	2.5	/experiments/knapen_aot/videos/S_ILSVRC2015_train_00371006.mp4	0.0	169.01401710510254	2.508358955383301
26	70.83269906044006	fix_post	2		12.0	24.0	2.5	/experiments/knapen_aot/videos/S_ILSVRC2015_train_00371006.mp4	0.0	171.52237606048584	0.09998083114624023
27	70.9326798915863	fix_pre	0		18.0	25.0	2.5	/experiments/knapen_aot/videos/R_S_yt-ROhKDdF1gV4_21.mp4	0.0	171.62235689163208	0.15007710456848145
27	71.07445001602173	response	0	2		25.0	2.5	/experiments/knapen_aot/videos/R_S_yt-ROhKDdF1gV4_21.mp4	0.0	171.7641270160675	
27	71.08275699615479	movie	1		301.0	25.0	2.5	/experiments/knapen_aot/videos/R_S_yt-ROhKDdF1gV4_21.mp4	0.0	171.77243399620056	2.508307933807373
27	73.59106492996216	fix_post	2		12.0	25.0	2.5	/experiments/knapen_aot/videos/R_S_yt-ROhKDdF1gV4_21.mp4	0.0	174.28074193000793	0.09995198249816895
28	73.69101691246033	fix_pre	0		12.0	26.0	2.5	/experiments/knapen_aot/videos/R_S_ILSVRC2015_train_00457000.mp4	0.0	174.3806939125061	0.100006103515625
28	73.78283309936523	response	0	2		26.0	2.5	/experiments/knapen_aot/videos/R_S_ILSVRC2015_train_00457000.mp4	0.0	174.472510099411	
28	73.79102301597595	movie	1		301.0	26.0	2.5	/experiments/knapen_aot/videos/R_S_ILSVRC2015_train_00457000.mp4	0.0	174.48070001602173	2.508359909057617
28	76.29938292503357	fix_post	2		12.0	26.0	2.5	/experiments/knapen_aot/videos/R_S_ILSVRC2015_train_00457000.mp4	0.0	176.98905992507935	0.09993505477905273
29	76.39931797981262	fix_pre	0		10.0	27.0	2.5	/experiments/knapen_aot/videos/R_S_production_ID_4122384.mp4	0.0	177.0889949798584	0.08331012725830078
29	76.47445607185364	response	0	2		27.0	2.5	/experiments/knapen_aot/videos/R_S_production_ID_4122384.mp4	0.0	177.1641330718994	
29	76.48262810707092	movie	1		167.0	27.0	2.5	/experiments/knapen_aot/videos/R_S_production_ID_4122384.mp4	0.0	177.1723051071167	2.508450984954834
29	78.99107909202576	fix_post	2		12.0	27.0	2.5	/experiments/knapen_aot/videos/R_S_production_ID_4122384.mp4	0.0	179.68075609207153	0.09991002082824707
30	79.090989112854	fix_pre	0		17.0	28.0	2.5	blank	1.0	179.78066611289978	0.14163494110107422
30	79.22437500953674	response	0	2		28.0	2.5	blank	1.0	179.91405200958252	
30	79.23262405395508	movie	1		301.0	28.0	2.5	blank	1.0	179.92230105400085	2.5083940029144287
30	81.7410180568695	fix_post	2		12.0	28.0	2.5	blank	1.0	182.43069505691528	0.10010194778442383
31	81.84112000465393	fix_pre	0		18.0	29.0	2.5	/experiments/knapen_aot/videos/S_yt-NuZy8Rjk4d0_156.mp4	0.0	182.5307970046997	0.14981794357299805
31	81.9827070236206	response	0	2		29.0	2.5	/experiments/knapen_aot/videos/S_yt-NuZy8Rjk4d0_156.mp4	0.0	182.67238402366638	
31	81.99093794822693	movie	1		301.0	29.0	2.5	/experiments/knapen_aot/videos/S_yt-NuZy8Rjk4d0_156.mp4	0.0	182.6806149482727	2.5085091590881348
31	84.49944710731506	fix_post	2		12.0	29.0	2.5	/experiments/knapen_aot/videos/S_yt-NuZy8Rjk4d0_156.mp4	0.0	185.18912410736084	0.09984397888183594
32	84.5992910861969	fix_pre	0		18.0	30.0	2.5	/experiments/knapen_aot/videos/S_yt-TvU-aYjNa2c_21.mp4	0.0	185.28896808624268	0.14997601509094238
32	84.74110007286072	response	0	2		30.0	2.5	/experiments/knapen_aot/videos/S_yt-TvU-aYjNa2c_21.mp4	0.0	185.4307770729065	
32	84.74926710128784	movie	1		301.0	30.0	2.5	/experiments/knapen_aot/videos/S_yt-TvU-aYjNa2c_21.mp4	0.0	185.43894410133362	2.5083658695220947
32	87.25763297080994	fix_post	2		12.0	30.0	2.5	/experiments/knapen_aot/videos/S_yt-TvU-aYjNa2c_21.mp4	0.0	187.9473099708557	0.09999608993530273
33	87.35762906074524	fix_pre	0		9.0	31.0	2.5	/experiments/knapen_aot/videos/S_Y002_C013_SDR_2K_AVC.mp4	0.0	188.04730606079102	0.07491898536682129
33	87.42438101768494	response	0	2		31.0	2.5	/experiments/knapen_aot/videos/S_Y002_C013_SDR_2K_AVC.mp4	0.0	188.1140580177307	
33	87.43254804611206	movie	1		169.0	31.0	2.5	/experiments/knapen_aot/videos/S_Y002_C013_SDR_2K_AVC.mp4	0.0	188.12222504615784	2.5085978507995605
33	89.94114589691162	fix_post	2		12.0	31.0	2.5	/experiments/knapen_aot/videos/S_Y002_C013_SDR_2K_AVC.mp4	0.0	190.6308228969574	0.09978508949279785
33	89.9743480682373	response	2	2		31.0	2.5	/experiments/knapen_aot/videos/S_Y002_C013_SDR_2K_AVC.mp4	0.0	190.66402506828308	
34	90.04093098640442	fix_pre	0		40.0	32.0	2.5	/experiments/knapen_aot/videos/S_flickr-slruok-8006772217_6.mp4	0.0	190.7306079864502	0.3333148956298828
34	90.3659839630127	response	0	2		32.0	2.5	/experiments/knapen_aot/videos/S_flickr-slruok-8006772217_6.mp4	0.0	191.05566096305847	
34	90.3742458820343	movie	1		301.0	32.0	2.5	/experiments/knapen_aot/videos/S_flickr-slruok-8006772217_6.mp4	0.0	191.06392288208008	2.50839900970459
34	92.88264489173889	fix_post	2		12.0	32.0	2.5	/experiments/knapen_aot/videos/S_flickr-slruok-8006772217_6.mp4	0.0	193.57232189178467	0.09996509552001953
35	92.98260998725891	fix_pre	0		9.0	33.0	2.5	blank	1.0	193.6722869873047	0.07499504089355469
35	93.04933309555054	response	0	2		33.0	2.5	blank	1.0	193.7390100955963	
35	93.05760502815247	movie	1		301.0	33.0	2.5	blank	1.0	193.74728202819824	2.5083370208740234
35	95.56594204902649	fix_post	2		12.0	33.0	2.5	blank	1.0	196.25561904907227	0.09998297691345215
36	95.66592502593994	fix_pre	0		25.0	34.0	2.5	/experiments/knapen_aot/videos/S_pexels-c-technical-6754008.mp4	0.0	196.35560202598572	0.20833492279052734
36	95.86587691307068	response	0	2		34.0	2.5	/experiments/knapen_aot/videos/S_pexels-c-technical-6754008.mp4	0.0	196.55555391311646	
36	95.87425994873047	movie	1		200.0	34.0	2.5	/experiments/knapen_aot/videos/S_pexels-c-technical-6754008.mp4	0.0	196.56393694877625	2.5083260536193848
36	98.38258600234985	fix_post	2		12.0	34.0	2.5	/experiments/knapen_aot/videos/S_pexels-c-technical-6754008.mp4	0.0	199.07226300239563	0.10001587867736816
37	98.48260188102722	fix_pre	0		1.0	35.0	2.5	/experiments/knapen_aot/videos/S_yt-tEzCpMrjOHs_24.mp4	0.0	199.172278881073	0.008280038833618164
37	98.47545599937439	response	0	2		35.0	2.5	/experiments/knapen_aot/videos/S_yt-tEzCpMrjOHs_24.mp4	0.0	199.16513299942017	
37	98.49088191986084	movie	1		300.0	35.0	2.5	/experiments/knapen_aot/videos/S_yt-tEzCpMrjOHs_24.mp4	0.0	199.18055891990662	2.5083401203155518
37	100.99922204017639	fix_post	2		12.0	35.0	2.5	/experiments/knapen_aot/videos/S_yt-tEzCpMrjOHs_24.mp4	0.0	201.68889904022217	0.10001397132873535
38	101.09923601150513	fix_pre	0		25.0	36.0	2.5	/experiments/knapen_aot/videos/S_yt-SHTeTAnZgho_43.mp4	0.0	201.7889130115509	0.2094888687133789
38	101.29936695098877	response	0	2		36.0	2.5	/experiments/knapen_aot/videos/S_yt-SHTeTAnZgho_43.mp4	0.0	201.98904395103455	
38	101.3087248802185	movie	1		301.0	36.0	2.5	/experiments/knapen_aot/videos/S_yt-SHTeTAnZgho_43.mp4	0.0	201.99840188026428	2.5071170330047607
38	103.81584191322327	fix_post	2		12.0	36.0	2.5	/experiments/knapen_aot/videos/S_yt-SHTeTAnZgho_43.mp4	0.0	204.50551891326904	0.10002708435058594
39	103.91586899757385	fix_pre	0		22.0	37.0	2.5	/experiments/knapen_aot/videos/R_S_yt-pPIHiIYSjW8_653.mp4	0.0	204.60554599761963	0.18329691886901855
39	104.09092593193054	response	0	2		37.0	2.5	/experiments/knapen_aot/videos/R_S_yt-pPIHiIYSjW8_653.mp4	0.0	204.78060293197632	
39	104.09916591644287	movie	1		301.0	37.0	2.5	/experiments/knapen_aot/videos/R_S_yt-pPIHiIYSjW8_653.mp4	0.0	204.78884291648865	2.5084140300750732
39	106.60757994651794	fix_post	2		12.0	37.0	2.5	/experiments/knapen_aot/videos/R_S_yt-pPIHiIYSjW8_653.mp4	0.0	207.29725694656372	0.10001802444458008
40	106.70759797096252	fix_pre	0		36.0	38.0	2.5	/experiments/knapen_aot/videos/R_S_yt-tNCrkObhB6c_17.mp4	0.0	207.3972749710083	0.30002808570861816
40	106.99930500984192	response	0	2		38.0	2.5	/experiments/knapen_aot/videos/R_S_yt-tNCrkObhB6c_17.mp4	0.0	207.6889820098877	
40	107.00762605667114	movie	1		301.0	38.0	2.5	/experiments/knapen_aot/videos/R_S_yt-tNCrkObhB6c_17.mp4	0.0	207.69730305671692	2.508270025253296
40	109.51589608192444	fix_post	2		12.0	38.0	2.5	/experiments/knapen_aot/videos/R_S_yt-tNCrkObhB6c_17.mp4	0.0	210.20557308197021	0.09998083114624023
41	109.61587691307068	fix_pre	0		6.0	39.0	2.5	/experiments/knapen_aot/videos/R_S_yt-zgimmOcW5Mc_127.mp4	0.0	210.30555391311646	0.04994702339172363
41	109.65761709213257	response	0	2		39.0	2.5	/experiments/knapen_aot/videos/R_S_yt-zgimmOcW5Mc_127.mp4	0.0	210.34729409217834	
41	109.6658239364624	movie	1		301.0	39.0	2.5	/experiments/knapen_aot/videos/R_S_yt-zgimmOcW5Mc_127.mp4	0.0	210.35550093650818	2.5083611011505127
41	112.17418503761292	fix_post	2		12.0	39.0	2.5	/experiments/knapen_aot/videos/R_S_yt-zgimmOcW5Mc_127.mp4	0.0	212.8638620376587	0.10000896453857422
42	112.27419400215149	fix_pre	0		15.0	40.0	2.5	/experiments/knapen_aot/videos/S_yt-bmGWhOCsvJo_128.mp4	0.0	212.96387100219727	0.12492799758911133
42	112.39091205596924	response	0	2		40.0	2.5	/experiments/knapen_aot/videos/S_yt-bmGWhOCsvJo_128.mp4	0.0	213.08058905601501	
42	112.3991219997406	movie	1		301.0	40.0	2.5	/experiments/knapen_aot/videos/S_yt-bmGWhOCsvJo_128.mp4	0.0	213.08879899978638	2.508436918258667
42	114.90755891799927	fix_post	2		12.0	40.0	2.5	/experiments/knapen_aot/videos/S_yt-bmGWhOCsvJo_128.mp4	0.0	215.59723591804504	0.09993910789489746
43	115.00749802589417	fix_pre	0		25.0	41.0	2.5	/experiments/knapen_aot/videos/R_S_comp_LA_A005_C009_PSNK_ALT_v09_SDR_PS_201809134_SDR_2K_AVC.mp4	0.0	215.69717502593994	0.20827388763427734
43	115.2077100276947	response	0	2		41.0	2.5	/experiments/knapen_aot/videos/R_S_comp_LA_A005_C009_PSNK_ALT_v09_SDR_PS_201809134_SDR_2K_AVC.mp4	0.0	215.89738702774048	
43	115.21577191352844	movie	1		170.0	41.0	2.5	/experiments/knapen_aot/videos/R_S_comp_LA_A005_C009_PSNK_ALT_v09_SDR_PS_201809134_SDR_2K_AVC.mp4	0.0	215.90544891357422	2.5085511207580566
43	117.7243230342865	fix_post	2		12.0	41.0	2.5	/experiments/knapen_aot/videos/R_S_comp_LA_A005_C009_PSNK_ALT_v09_SDR_PS_201809134_SDR_2K_AVC.mp4	0.0	218.41400003433228	0.09985685348510742
44	117.8241798877716	fix_pre	0		5.0	42.0	2.5	blank	1.0	218.51385688781738	0.041613101959228516
44	117.8576009273529	response	0	2		42.0	2.5	blank	1.0	218.54727792739868	
44	117.86579298973083	movie	1		301.0	42.0	2.5	blank	1.0	218.5554699897766	2.508349895477295
44	120.37414288520813	fix_post	2		12.0	42.0	2.5	blank	1.0	221.0638198852539	0.09999418258666992
45	120.4741370677948	fix_pre	0		20.0	43.0	2.5	/experiments/knapen_aot/videos/R_S_ILSVRC2015_train_00322000.mp4	0.0	221.16381406784058	0.1678168773651123
45	120.63254189491272	response	0	2		43.0	2.5	/experiments/knapen_aot/videos/R_S_ILSVRC2015_train_00322000.mp4	0.0	221.3222188949585	
45	120.64195394515991	movie	1		301.0	43.0	2.5	/experiments/knapen_aot/videos/R_S_ILSVRC2015_train_00322000.mp4	0.0	221.3316309452057	2.507143974304199
45	123.14909791946411	fix_post	2		12.0	43.0	2.5	/experiments/knapen_aot/videos/R_S_ILSVRC2015_train_00322000.mp4	0.0	223.8387749195099	0.10004401206970215
46	123.24914193153381	fix_pre	0		10.0	44.0	2.5	/experiments/knapen_aot/videos/R_S_yt-fk-z6WCvjjA_3.mp4	0.0	223.9388189315796	0.08326315879821777
46	123.32426500320435	response	0	2		44.0	2.5	/experiments/knapen_aot/videos/R_S_yt-fk-z6WCvjjA_3.mp4	0.0	224.01394200325012	
46	123.33240509033203	movie	1		301.0	44.0	2.5	/experiments/knapen_aot/videos/R_S_yt-fk-z6WCvjjA_3.mp4	0.0	224.0220820903778	2.5083649158477783
46	125.84077000617981	fix_post	2		12.0	44.0	2.5	/experiments/knapen_aot/videos/R_S_yt-fk-z6WCvjjA_3.mp4	0.0	226.5304470062256	0.10000491142272949
47	125.94077491760254	fix_pre	0		7.0	45.0	2.5	/experiments/knapen_aot/videos/R_S_production_ID_4124475.mp4	0.0	226.63045191764832	0.058396100997924805
47	125.98338890075684	response	0	2		45.0	2.5	/experiments/knapen_aot/videos/R_S_production_ID_4124475.mp4	0.0	226.6730659008026	
47	125.99917101860046	movie	1		181.0	45.0	2.5	/experiments/knapen_aot/videos/R_S_production_ID_4124475.mp4	0.0	226.68884801864624	2.508394956588745
47	128.5075659751892	fix_post	2		12.0	45.0	2.5	/experiments/knapen_aot/videos/R_S_production_ID_4124475.mp4	0.0	229.19724297523499	0.0998389720916748
47	128.52422308921814	response	2	2		45.0	2.5	/experiments/knapen_aot/videos/R_S_production_ID_4124475.mp4	0.0	229.21390008926392	
48	128.60740494728088	fix_pre	0		33.0	46.0	2.5	/experiments/knapen_aot/videos/R_S_yt-zgimmOcW5Mc_127.mp4	0.0	229.29708194732666	0.2749619483947754
48	128.8741738796234	response	0	2		46.0	2.5	/experiments/knapen_aot/videos/R_S_yt-zgimmOcW5Mc_127.mp4	0.0	229.5638508796692	
48	128.88236689567566	movie	1		301.0	46.0	2.5	/experiments/knapen_aot/videos/R_S_yt-zgimmOcW5Mc_127.mp4	0.0	229.57204389572144	2.508629083633423
48	131.15756702423096	response	1	2		46.0	2.5	/experiments/knapen_aot/videos/R_S_yt-zgimmOcW5Mc_127.mp4	0.0	231.84724402427673	
48	131.39099597930908	fix_post	2		12.0	46.0	2.5	/experiments/knapen_aot/videos/R_S_yt-zgimmOcW5Mc_127.mp4	0.0	232.08067297935486	0.09976696968078613
49	131.49076294898987	fix_pre	0		9.0	47.0	2.5	/experiments/knapen_aot/videos/S_pexels-kindel-media-8164443.mp4	0.0	232.18043994903564	0.07500195503234863
49	131.557461977005	response	0	2		47.0	2.5	/experiments/knapen_aot/videos/S_pexels-kindel-media-8164443.mp4	0.0	232.24713897705078	
49	131.56576490402222	movie	1		166.0	47.0	2.5	/experiments/knapen_aot/videos/S_pexels-kindel-media-8164443.mp4	0.0	232.255441904068	2.5083260536193848
49	133.13264203071594	response	1	2		47.0	2.5	/experiments/knapen_aot/videos/S_pexels-kindel-media-8164443.mp4	0.0	233.82231903076172	
49	134.0740909576416	fix_post	2		12.0	47.0	2.5	/experiments/knapen_aot/videos/S_pexels-kindel-media-8164443.mp4	0.0	234.76376795768738	0.10003399848937988
50	134.17412495613098	fix_pre	0		17.0	48.0	2.5	blank	1.0	234.86380195617676	0.14163494110107422
50	134.30755400657654	response	0	2		48.0	2.5	blank	1.0	234.99723100662231	
50	134.31575989723206	movie	1		301.0	48.0	2.5	blank	1.0	235.00543689727783	2.508327007293701
50	136.82408690452576	fix_post	2		12.0	48.0	2.5	blank	1.0	237.51376390457153	0.1001431941986084
51	136.92423009872437	fix_pre	0		12.0	49.0	2.5	/experiments/knapen_aot/videos/R_S_yt-zhQ32_OayBQ_39.mp4	0.0	237.61390709877014	0.09977078437805176
51	137.01576590538025	response	0	2		49.0	2.5	/experiments/knapen_aot/videos/R_S_yt-zhQ32_OayBQ_39.mp4	0.0	237.70544290542603	
51	137.02400088310242	movie	1		301.0	49.0	2.5	/experiments/knapen_aot/videos/R_S_yt-zhQ32_OayBQ_39.mp4	0.0	237.7136778831482	2.508289098739624
51	139.53228998184204	fix_post	2		12.0	49.0	2.5	/experiments/knapen_aot/videos/R_S_yt-zhQ32_OayBQ_39.mp4	0.0	240.22196698188782	0.10013198852539062
52	139.63242197036743	fix_pre	0		8.0	50.0	2.5	/experiments/knapen_aot/videos/S_yt-H45g6700wbc_159.mp4	0.0	240.3220989704132	0.06659507751464844
52	139.69086694717407	response	0	2		50.0	2.5	/experiments/knapen_aot/videos/S_yt-H45g6700wbc_159.mp4	0.0	240.38054394721985	
52	139.69901704788208	movie	1		301.0	50.0	2.5	/experiments/knapen_aot/videos/S_yt-H45g6700wbc_159.mp4	0.0	240.38869404792786	2.508349895477295
52	142.20736694335938	fix_post	2		12.0	50.0	2.5	/experiments/knapen_aot/videos/S_yt-H45g6700wbc_159.mp4	0.0	242.89704394340515	0.10008597373962402
53	142.307452917099	fix_pre	0		19.0	51.0	2.5	/experiments/knapen_aot/videos/R_S_yt-mJzkLd3Mr_c_35.mp4	0.0	242.99712991714478	0.15822696685791016
53	142.45748591423035	response	0	2		51.0	2.5	/experiments/knapen_aot/videos/R_S_yt-mJzkLd3Mr_c_35.mp4	0.0	243.14716291427612	
53	142.4656798839569	movie	1		301.0	51.0	2.5	/experiments/knapen_aot/videos/R_S_yt-mJzkLd3Mr_c_35.mp4	0.0	243.15535688400269	2.5083091259002686
53	144.97398900985718	fix_post	2		12.0	51.0	2.5	/experiments/knapen_aot/videos/R_S_yt-mJzkLd3Mr_c_35.mp4	0.0	245.66366600990295	0.10002493858337402
54	145.07401394844055	fix_pre	0		9.0	52.0	2.5	/experiments/knapen_aot/videos/S_yt-8N5UuN5WQcY_72.mp4	0.0	245.76369094848633	0.07501101493835449
54	145.14096403121948	response	0	2		52.0	2.5	/experiments/knapen_aot/videos/S_yt-8N5UuN5WQcY_72.mp4	0.0	245.83064103126526	
54	145.1490249633789	movie	1		301.0	52.0	2.5	/experiments/knapen_aot/videos/S_yt-8N5UuN5WQcY_72.mp4	0.0	245.83870196342468	2.5083401203155518
54	147.65736508369446	fix_post	2		12.0	52.0	2.5	/experiments/knapen_aot/videos/S_yt-8N5UuN5WQcY_72.mp4	0.0	248.34704208374023	0.10005784034729004
55	147.75742292404175	fix_pre	0		10.0	53.0	2.5	/experiments/knapen_aot/videos/R_S_pexels-c-technical-6754008.mp4	0.0	248.44709992408752	0.08324098587036133
55	147.83243608474731	response	0	2		53.0	2.5	/experiments/knapen_aot/videos/R_S_pexels-c-technical-6754008.mp4	0.0	248.5221130847931	
55	147.8406639099121	movie	1		190.0	53.0	2.5	/experiments/knapen_aot/videos/R_S_pexels-c-technical-6754008.mp4	0.0	248.53034090995789	2.5083770751953125
55	150.34904098510742	fix_post	2		12.0	53.0	2.5	/experiments/knapen_aot/videos/R_S_pexels-c-technical-6754008.mp4	0.0	251.0387179851532	0.09998607635498047
56	150.4490270614624	fix_pre	0		4.0	54.0	2.5	/experiments/knapen_aot/videos/R_S_yt-j-ifVbxZePQ_70.mp4	0.0	251.13870406150818	0.03332090377807617
56	150.47412610054016	response	0	2		54.0	2.5	/experiments/knapen_aot/videos/R_S_yt-j-ifVbxZePQ_70.mp4	0.0	251.16380310058594	
56	150.48234796524048	movie	1		301.0	54.0	2.5	/experiments/knapen_aot/videos/R_S_yt-j-ifVbxZePQ_70.mp4	0.0	251.17202496528625	2.5082929134368896
56	152.99064087867737	fix_post	2		12.0	54.0	2.5	/experiments/knapen_aot/videos/R_S_yt-j-ifVbxZePQ_70.mp4	0.0	253.68031787872314	0.10005402565002441
57	153.0906949043274	fix_pre	0		5.0	55.0	2.5	/experiments/knapen_aot/videos/S_yt-VQtbKGzI9SE_431.mp4	0.0	253.78037190437317	0.041558027267456055
57	153.1241569519043	response	0	2		55.0	2.5	/experiments/knapen_aot/videos/S_yt-VQtbKGzI9SE_431.mp4	0.0	253.81383395195007	
57	153.13225293159485	movie	1		301.0	55.0	2.5	/experiments/knapen_aot/videos/S_yt-VQtbKGzI9SE_431.mp4	0.0	253.82192993164062	2.508625030517578
57	155.64087796211243	fix_post	2		12.0	55.0	2.5	/experiments/knapen_aot/videos/S_yt-VQtbKGzI9SE_431.mp4	0.0	256.3305549621582	0.09976792335510254
58	155.74064588546753	fix_pre	0		8.0	56.0	2.5	blank	1.0	256.4303228855133	0.06660103797912598
58	155.79907202720642	response	0	2		56.0	2.5	blank	1.0	256.4887490272522	
58	155.80724692344666	movie	1		301.0	56.0	2.5	blank	1.0	256.49692392349243	2.5083210468292236
58	158.31556797027588	fix_post	2		12.0	56.0	2.5	blank	1.0	259.00524497032166	0.10009908676147461
59	158.41566705703735	fix_pre	0		26.0	57.0	2.5	/experiments/knapen_aot/videos/R_S_yt-AjyR9--Mx3A_44.mp4	0.0	259.10534405708313	0.21660089492797852
59	158.6164960861206	response	0	2		57.0	2.5	/experiments/knapen_aot/videos/R_S_yt-AjyR9--Mx3A_44.mp4	0.0	259.3061730861664	
59	158.63226795196533	movie	1		301.0	57.0	2.5	/experiments/knapen_aot/videos/R_S_yt-AjyR9--Mx3A_44.mp4	0.0	259.3219449520111	2.508707046508789
59	161.14097499847412	fix_post	2		12.0	57.0	2.5	/experiments/knapen_aot/videos/R_S_yt-AjyR9--Mx3A_44.mp4	0.0	261.8306519985199	0.09977102279663086
60	161.24074602127075	fix_pre	0		17.0	58.0	2.5	/experiments/knapen_aot/videos/R_S_yt-0d5TkclKWVA_146.mp4	0.0	261.9304230213165	0.1415719985961914
60	161.37399411201477	response	0	2		58.0	2.5	/experiments/knapen_aot/videos/R_S_yt-0d5TkclKWVA_146.mp4	0.0	262.06367111206055	
60	161.38231801986694	movie	1		301.0	58.0	2.5	/experiments/knapen_aot/videos/R_S_yt-0d5TkclKWVA_146.mp4	0.0	262.0719950199127	2.508315086364746
60	163.8906331062317	fix_post	2		12.0	58.0	2.5	/experiments/knapen_aot/videos/R_S_yt-0d5TkclKWVA_146.mp4	0.0	264.58031010627747	0.10003280639648438
61	163.99066591262817	fix_pre	0		7.0	59.0	2.5	/experiments/knapen_aot/videos/S_yt-gDZnJCR2uXI_18.mp4	0.0	264.68034291267395	0.05817914009094238
61	164.04078602790833	response	0	2		59.0	2.5	/experiments/knapen_aot/videos/S_yt-gDZnJCR2uXI_18.mp4	0.0	264.7304630279541	
61	164.04884505271912	movie	1		301.0	59.0	2.5	/experiments/knapen_aot/videos/S_yt-gDZnJCR2uXI_18.mp4	0.0	264.7385220527649	2.508448839187622
61	166.55729389190674	fix_post	2		12.0	59.0	2.5	/experiments/knapen_aot/videos/S_yt-gDZnJCR2uXI_18.mp4	0.0	267.2469708919525	0.09999799728393555
62	166.65729188919067	fix_pre	0		6.0	60.0	2.5	/experiments/knapen_aot/videos/R_S_ILSVRC2015_train_00743002.mp4	0.0	267.34696888923645	0.04994821548461914
62	166.69904088974	response	0	2		60.0	2.5	/experiments/knapen_aot/videos/R_S_ILSVRC2015_train_00743002.mp4	0.0	267.38871788978577	
62	166.7072401046753	movie	1		301.0	60.0	2.5	/experiments/knapen_aot/videos/R_S_ILSVRC2015_train_00743002.mp4	0.0	267.39691710472107	2.508340835571289
62	169.21558094024658	fix_post	2		12.0	60.0	2.5	/experiments/knapen_aot/videos/R_S_ILSVRC2015_train_00743002.mp4	0.0	269.90525794029236	0.10000109672546387
63	169.31558203697205	fix_pre	0		20.0	61.0	2.5	/experiments/knapen_aot/videos/S_ILSVRC2015_test_00004002.mp4	0.0	270.0052590370178	0.16668391227722168
63	169.47394800186157	response	0	2		61.0	2.5	/experiments/knapen_aot/videos/S_ILSVRC2015_test_00004002.mp4	0.0	270.16362500190735	
63	169.48226594924927	movie	1		301.0	61.0	2.5	/experiments/knapen_aot/videos/S_ILSVRC2015_test_00004002.mp4	0.0	270.17194294929504	2.508334159851074
63	171.99060010910034	fix_post	2		12.0	61.0	2.5	/experiments/knapen_aot/videos/S_ILSVRC2015_test_00004002.mp4	0.0	272.6802771091461	0.09997797012329102
63	172.02405905723572	response	2	2		61.0	2.5	/experiments/knapen_aot/videos/S_ILSVRC2015_test_00004002.mp4	0.0	272.7137360572815	
64	172.09057807922363	fix_pre	0		35.0	62.0	2.5	blank	1.0	272.7802550792694	0.2915468215942383
64	172.37399888038635	response	0	2		62.0	2.5	blank	1.0	273.06367588043213	
64	172.38212490081787	movie	1		301.0	62.0	2.5	blank	1.0	273.07180190086365	2.508419990539551
64	174.89054489135742	fix_post	2		12.0	62.0	2.5	blank	1.0	275.5802218914032	0.10004806518554688
65	174.99059295654297	fix_pre	0		32.0	63.0	2.5	/experiments/knapen_aot/videos/S_yt-SRozDkhwx28_1463.mp4	0.0	275.68026995658875	0.266618013381958
65	175.24902510643005	response	0	2		63.0	2.5	/experiments/knapen_aot/videos/S_yt-SRozDkhwx28_1463.mp4	0.0	275.93870210647583	
65	175.25721096992493	movie	1		301.0	63.0	2.5	/experiments/knapen_aot/videos/S_yt-SRozDkhwx28_1463.mp4	0.0	275.9468879699707	2.5083510875701904
65	177.76556205749512	fix_post	2		12.0	63.0	2.5	/experiments/knapen_aot/videos/S_yt-SRozDkhwx28_1463.mp4	0.0	278.4552390575409	0.1000218391418457
65	177.84054803848267	response	2	2		63.0	2.5	/experiments/knapen_aot/videos/S_yt-SRozDkhwx28_1463.mp4	0.0	278.53022503852844	
66	177.86558389663696	fix_pre	0		36.0	64.0	2.5	/experiments/knapen_aot/videos/R_S_ILSVRC2015_train_00768000.mp4	0.0	278.55526089668274	0.2999541759490967
66	178.15727305412292	response	0	2		64.0	2.5	/experiments/knapen_aot/videos/R_S_ILSVRC2015_train_00768000.mp4	0.0	278.8469500541687	
66	178.16553807258606	movie	1		301.0	64.0	2.5	/experiments/knapen_aot/videos/R_S_ILSVRC2015_train_00768000.mp4	0.0	278.85521507263184	2.5083649158477783
66	180.67390298843384	fix_post	2		12.0	64.0	2.5	/experiments/knapen_aot/videos/R_S_ILSVRC2015_train_00768000.mp4	0.0	281.3635799884796	0.10002994537353516
67	180.77393293380737	fix_pre	0		1.0	65.0	2.5	/experiments/knapen_aot/videos/R_S_flickr-slruok-8006772217_6.mp4	0.0	281.46360993385315	0.008259057998657227
67	180.77590799331665	response	0	2		65.0	2.5	/experiments/knapen_aot/videos/R_S_flickr-slruok-8006772217_6.mp4	0.0	281.4655849933624	
67	180.78219199180603	movie	1		301.0	65.0	2.5	/experiments/knapen_aot/videos/R_S_flickr-slruok-8006772217_6.mp4	0.0	281.4718689918518	2.508591890335083
67	183.2907838821411	fix_post	2		12.0	65.0	2.5	/experiments/knapen_aot/videos/R_S_flickr-slruok-8006772217_6.mp4	0.0	283.9804608821869	0.10053420066833496
68	183.39131808280945	fix_pre	0		4.0	66.0	2.5	/experiments/knapen_aot/videos/R_S_ILSVRC2015_train_00549000.mp4	0.0	284.0809950828552	0.032637834548950195
68	183.40891289710999	response	0	2		66.0	2.5	/experiments/knapen_aot/videos/R_S_ILSVRC2015_train_00549000.mp4	0.0	284.09858989715576	
68	183.4239559173584	movie	1		301.0	66.0	2.5	/experiments/knapen_aot/videos/R_S_ILSVRC2015_train_00549000.mp4	0.0	284.1136329174042	2.508265972137451
68	185.93222188949585	fix_post	2		12.0	66.0	2.5	/experiments/knapen_aot/videos/R_S_ILSVRC2015_train_00549000.mp4	0.0	286.6218988895416	0.09999418258666992
68	186.00737309455872	response	2	2		66.0	2.5	/experiments/knapen_aot/videos/R_S_ILSVRC2015_train_00549000.mp4	0.0	286.6970500946045	
69	186.03221607208252	fix_pre	0		41.0	67.0	2.5	/experiments/knapen_aot/videos/R_S_yt-3E02UEHdoZ4_752.mp4	0.0	286.7218930721283	0.3416609764099121
69	186.36563110351562	response	0	2		67.0	2.5	/experiments/knapen_aot/videos/R_S_yt-3E02UEHdoZ4_752.mp4	0.0	287.0553081035614	
69	186.37387704849243	movie	1		301.0	67.0	2.5	/experiments/knapen_aot/videos/R_S_yt-3E02UEHdoZ4_752.mp4	0.0	287.0635540485382	2.508349895477295
69	188.88222694396973	fix_post	2		12.0	67.0	2.5	/experiments/knapen_aot/videos/R_S_yt-3E02UEHdoZ4_752.mp4	0.0	289.5719039440155	0.09998607635498047
70	188.9822130203247	fix_pre	0		11.0	68.0	2.5	/experiments/knapen_aot/videos/S_DV6V38rplag_215.mp4	0.0	289.6718900203705	0.09165406227111816
70	189.06567192077637	response	0	2		68.0	2.5	/experiments/knapen_aot/videos/S_DV6V38rplag_215.mp4	0.0	289.75534892082214	
70	189.07386708259583	movie	1		301.0	68.0	2.5	/experiments/knapen_aot/videos/S_DV6V38rplag_215.mp4	0.0	289.7635440826416	2.5082848072052
70	191.58215188980103	fix_post	2		12.0	68.0	2.5	/experiments/knapen_aot/videos/S_DV6V38rplag_215.mp4	0.0	292.2718288898468	0.10000419616699219
71	191.68215608596802	fix_pre	0		6.0	69.0	2.5	blank	1.0	292.3718330860138	0.05011701583862305
71	191.72392892837524	response	0	2		69.0	2.5	blank	1.0	292.413605928421	
71	191.73227310180664	movie	1		301.0	69.0	2.5	blank	1.0	292.4219501018524	2.508208990097046
71	194.2404820919037	fix_post	2		12.0	69.0	2.5	blank	1.0	294.93015909194946	0.10002589225769043
72	194.34050798416138	fix_pre	0		12.0	70.0	2.5	/experiments/knapen_aot/videos/S_yt-mDil5vGZb14_4049.mp4	0.0	295.03018498420715	0.09997010231018066
72	194.4322350025177	response	0	2		70.0	2.5	/experiments/knapen_aot/videos/S_yt-mDil5vGZb14_4049.mp4	0.0	295.1219120025635	
72	194.44047808647156	movie	1		301.0	70.0	2.5	/experiments/knapen_aot/videos/S_yt-mDil5vGZb14_4049.mp4	0.0	295.13015508651733	2.5085678100585938
72	196.94904589653015	fix_post	2		12.0	70.0	2.5	/experiments/knapen_aot/videos/S_yt-mDil5vGZb14_4049.mp4	0.0	297.6387228965759	0.09978318214416504
73	197.04882907867432	fix_pre	0		6.0	71.0	2.5	/experiments/knapen_aot/videos/S_yt-szXWk_X_67Q_10.mp4	0.0	297.7385060787201	0.050676822662353516
73	197.09058499336243	response	0	2		71.0	2.5	/experiments/knapen_aot/videos/S_yt-szXWk_X_67Q_10.mp4	0.0	297.7802619934082	
73	197.09950590133667	movie	1		301.0	71.0	2.5	/experiments/knapen_aot/videos/S_yt-szXWk_X_67Q_10.mp4	0.0	297.78918290138245	2.507642984390259
73	199.60714888572693	fix_post	2		12.0	71.0	2.5	/experiments/knapen_aot/videos/S_yt-szXWk_X_67Q_10.mp4	0.0	300.2968258857727	0.09999608993530273
74	199.70714497566223	fix_pre	0		17.0	72.0	2.5	/experiments/knapen_aot/videos/S_ILSVRC2015_train_00434000.mp4	0.0	300.396821975708	0.14229393005371094
74	199.8405749797821	response	0	2		72.0	2.5	/experiments/knapen_aot/videos/S_ILSVRC2015_train_00434000.mp4	0.0	300.5302519798279	
74	199.84943890571594	movie	1		301.0	72.0	2.5	/experiments/knapen_aot/videos/S_ILSVRC2015_train_00434000.mp4	0.0	300.5391159057617	2.5076441764831543
74	202.3570830821991	fix_post	2		12.0	72.0	2.5	/experiments/knapen_aot/videos/S_ILSVRC2015_train_00434000.mp4	0.0	303.0467600822449	0.1002659797668457
75	202.45734906196594	fix_pre	0		1.0	73.0	2.5	/experiments/knapen_aot/videos/R_S_wc-1MzpHfRq1MUK_32.mp4	0.0	303.1470260620117	0.01022791862487793
75	202.45891904830933	response	0	2		73.0	2.5	/experiments/knapen_aot/videos/R_S_wc-1MzpHfRq1MUK_32.mp4	0.0	303.1485960483551	
75	202.46757698059082	movie	1		301.0	73.0	2.5	/experiments/knapen_aot/videos/R_S_wc-1MzpHfRq1MUK_32.mp4	0.0	303.1572539806366	2.5061869621276855
75	204.9737639427185	fix_post	2		12.0	73.0	2.5	/experiments/knapen_aot/videos/R_S_wc-1MzpHfRq1MUK_32.mp4	0.0	305.6634409427643	0.1001901626586914
76	205.0739541053772	fix_pre	0		81.0	74.0	2.5	/experiments/knapen_aot/videos/S_yt-6UFUeTKci2o_164.mp4	0.0	305.763631105423	0.6747159957885742
76	205.740571975708	response	0	2		74.0	2.5	/experiments/knapen_aot/videos/S_yt-6UFUeTKci2o_164.mp4	0.0	306.4302489757538	
76	205.74867010116577	movie	1		301.0	74.0	2.5	/experiments/knapen_aot/videos/S_yt-6UFUeTKci2o_164.mp4	0.0	306.43834710121155	2.508441925048828
76	208.2571120262146	fix_post	2		12.0	74.0	2.5	/experiments/knapen_aot/videos/S_yt-6UFUeTKci2o_164.mp4	0.0	308.9467890262604	0.10002303123474121
77	208.35713505744934	fix_pre	0		9.0	75.0	2.5	/experiments/knapen_aot/videos/S_ILSVRC2015_train_00434000.mp4	0.0	309.0468120574951	0.07557392120361328
77	208.4238829612732	response	0	2		75.0	2.5	/experiments/knapen_aot/videos/S_ILSVRC2015_train_00434000.mp4	0.0	309.11355996131897	
77	208.43270897865295	movie	1		301.0	75.0	2.5	/experiments/knapen_aot/videos/S_ILSVRC2015_train_00434000.mp4	0.0	309.12238597869873	2.507786989212036
77	210.940495967865	fix_post	2		12.0	75.0	2.5	/experiments/knapen_aot/videos/S_ILSVRC2015_train_00434000.mp4	0.0	311.63017296791077	0.09999299049377441
78	211.04048895835876	fix_pre	0		9.0	76.0	2.5	blank	1.0	311.73016595840454	0.07492899894714355
78	211.10718989372253	response	0	2		76.0	2.5	blank	1.0	311.7968668937683	
78	211.1154179573059	movie	1		301.0	76.0	2.5	blank	1.0	311.8050949573517	2.5083799362182617
78	213.62379789352417	fix_post	2		12.0	76.0	2.5	blank	1.0	314.31347489356995	0.09999704360961914
79	213.7237949371338	fix_pre	0		25.0	77.0	2.5	/experiments/knapen_aot/videos/R_S_comp_A006_C003_1219EE_CC_v01_SDR_PS_FINAL_20180709_SDR_2K_AVC.mp4	0.0	314.41347193717957	0.20897698402404785
79	213.92389702796936	response	0	2		77.0	2.5	/experiments/knapen_aot/videos/R_S_comp_A006_C003_1219EE_CC_v01_SDR_PS_FINAL_20180709_SDR_2K_AVC.mp4	0.0	314.61357402801514	
79	213.93277192115784	movie	1		166.0	77.0	2.5	/experiments/knapen_aot/videos/R_S_comp_A006_C003_1219EE_CC_v01_SDR_PS_FINAL_20180709_SDR_2K_AVC.mp4	0.0	314.6224489212036	2.507763147354126
79	216.44053506851196	fix_post	2		12.0	77.0	2.5	/experiments/knapen_aot/videos/R_S_comp_A006_C003_1219EE_CC_v01_SDR_PS_FINAL_20180709_SDR_2K_AVC.mp4	0.0	317.13021206855774	0.09988903999328613
79	216.44221806526184	response	2	2		77.0	2.5	/experiments/knapen_aot/videos/R_S_comp_A006_C003_1219EE_CC_v01_SDR_PS_FINAL_20180709_SDR_2K_AVC.mp4	0.0	317.1318950653076	
80	216.54042410850525	fix_pre	0		29.0	78.0	2.5	/experiments/knapen_aot/videos/R_S_ILSVRC2015_train_00371006.mp4	0.0	317.230101108551	0.24156785011291504
80	216.77391290664673	response	0	2		78.0	2.5	/experiments/knapen_aot/videos/R_S_ILSVRC2015_train_00371006.mp4	0.0	317.4635899066925	
80	216.78199195861816	movie	1		301.0	78.0	2.5	/experiments/knapen_aot/videos/R_S_ILSVRC2015_train_00371006.mp4	0.0	317.47166895866394	2.5083799362182617
80	219.29037189483643	fix_post	2		12.0	78.0	2.5	/experiments/knapen_aot/videos/R_S_ILSVRC2015_train_00371006.mp4	0.0	319.9800488948822	0.1000361442565918
81	219.39040803909302	fix_pre	0		16.0	79.0	2.5	/experiments/knapen_aot/videos/S_yt-6DJulOrg2-8_122.mp4	0.0	320.0800850391388	0.13324499130249023
81	219.51549792289734	response	0	2		79.0	2.5	/experiments/knapen_aot/videos/S_yt-6DJulOrg2-8_122.mp4	0.0	320.2051749229431	
81	219.5236530303955	movie	1		301.0	79.0	2.5	/experiments/knapen_aot/videos/S_yt-6DJulOrg2-8_122.mp4	0.0	320.2133300304413	2.508430004119873
81	222.03208303451538	fix_post	2		12.0	79.0	2.5	/experiments/knapen_aot/videos/S_yt-6DJulOrg2-8_122.mp4	0.0	322.72176003456116	0.09998703002929688
82	222.13207006454468	fix_pre	0		17.0	80.0	2.5	/experiments/knapen_aot/videos/R_S_yt-dqcUJzNOzbM_156.mp4	0.0	322.82174706459045	0.1417398452758789
82	222.26576900482178	response	0	2		80.0	2.5	/experiments/knapen_aot/videos/R_S_yt-dqcUJzNOzbM_156.mp4	0.0	322.95544600486755	
82	222.27380990982056	movie	1		301.0	80.0	2.5	/experiments/knapen_aot/videos/R_S_yt-dqcUJzNOzbM_156.mp4	0.0	322.96348690986633	2.508542060852051
82	224.7823519706726	fix_post	2		12.0	80.0	2.5	/experiments/knapen_aot/videos/R_S_yt-dqcUJzNOzbM_156.mp4	0.0	325.4720289707184	0.09970498085021973
83	224.88205695152283	fix_pre	0		17.0	81.0	2.5	/experiments/knapen_aot/videos/R_S_yt-YFl_NAWBFAw_166.mp4	0.0	325.5717339515686	0.14165210723876953
83	225.01542901992798	response	0	2		81.0	2.5	/experiments/knapen_aot/videos/R_S_yt-YFl_NAWBFAw_166.mp4	0.0	325.70510601997375	
83	225.0237090587616	movie	1		301.0	81.0	2.5	/experiments/knapen_aot/videos/R_S_yt-YFl_NAWBFAw_166.mp4	0.0	325.7133860588074	2.5082509517669678
83	227.53196001052856	fix_post	2		12.0	81.0	2.5	/experiments/knapen_aot/videos/R_S_yt-YFl_NAWBFAw_166.mp4	0.0	328.22163701057434	0.10003900527954102
84	227.6319990158081	fix_pre	0		8.0	82.0	2.5	/experiments/knapen_aot/videos/S_P005_C002_UHD_SDR_2K_AVC.mp4	0.0	328.3216760158539	0.0666658878326416
84	227.69052410125732	response	0	2		82.0	2.5	/experiments/knapen_aot/videos/S_P005_C002_UHD_SDR_2K_AVC.mp4	0.0	328.3802011013031	
84	227.69866490364075	movie	1		168.0	82.0	2.5	/experiments/knapen_aot/videos/S_P005_C002_UHD_SDR_2K_AVC.mp4	0.0	328.3883419036865	2.508449077606201
84	230.20711398124695	fix_post	2		12.0	82.0	2.5	/experiments/knapen_aot/videos/S_P005_C002_UHD_SDR_2K_AVC.mp4	0.0	330.8967909812927	0.09997391700744629
84	230.26532101631165	response	2	2		82.0	2.5	/experiments/knapen_aot/videos/S_P005_C002_UHD_SDR_2K_AVC.mp4	0.0	330.9549980163574	
85	230.3070878982544	fix_pre	0		31.0	83.0	2.5	blank	1.0	330.99676489830017	0.2582051753997803
85	230.55706000328064	response	0	2		83.0	2.5	blank	1.0	331.2467370033264	
85	230.56529307365417	movie	1		301.0	83.0	2.5	blank	1.0	331.25497007369995	2.508358955383301
85	233.07365202903748	fix_post	2		12.0	83.0	2.5	blank	1.0	333.76332902908325	0.10004091262817383
87	233.17369294166565	stim	0		288.0					333.8633699417114	2.4045629501342773
87	233.34979605674744	response	0	2						334.0394730567932	
87	235.56956005096436	response	0	space						336.25923705101013	
